SpectraSuite Data File
++++++++++++++++++++++++++++++++++++
Date: Fri Oct 25 10:48:13 EDT 2013
User: price-jones
Dark Spectrum Present: No
Reference Spectrum Present: No
Number of Sampled Component Spectra: 1
Spectrometers: USB2+H05261
Integration Time (usec): 100000 (USB2+H05261)
Spectra Averaged: 1 (USB2+H05261)
Boxcar Smoothing: 0 (USB2+H05261)
Correct for Electrical Dark: No (USB2+H05261)
Strobe/Lamp Enabled: No (USB2+H05261)
Correct for Detector Non-linearity: No (USB2+H05261)
Correct for Stray Light: No (USB2+H05261)
Number of Pixels in Processed Spectrum: 2048
>>>>>Begin Processed Spectral Data<<<<<
365.73	126.39
365.92	126.39
366.12	126.39
366.32	0.00
366.52	72.56
366.72	32.77
366.91	72.56
367.11	65.54
367.31	49.15
367.51	0.00
367.70	0.00
367.90	86.60
368.10	0.00
368.30	9.36
368.49	70.22
368.69	42.13
368.89	145.11
369.09	105.32
369.28	72.56
369.48	142.77
369.68	163.84
369.87	133.41
370.07	110.01
370.27	138.09
370.47	189.58
370.66	440.02
370.86	444.70
371.06	425.98
371.25	449.38
371.45	468.11
371.65	535.98
371.84	407.25
372.04	470.45
372.24	468.11
372.44	498.53
372.63	421.30
372.83	554.71
373.03	517.26
373.22	479.81
373.42	601.52
373.62	545.34
373.81	547.69
374.01	592.16
374.21	585.13
374.40	514.92
374.60	645.99
374.79	573.43
374.99	575.77
375.19	547.69
375.38	587.47
375.58	540.66
375.78	599.18
375.97	643.65
376.17	606.20
376.37	589.82
376.56	568.75
376.76	573.43
376.95	587.47
377.15	587.47
377.35	622.58
377.54	674.07
377.74	575.77
377.93	641.31
378.13	627.26
378.33	622.58
378.52	557.05
378.72	617.90
378.91	620.24
379.11	608.54
379.31	606.20
379.50	704.50
379.70	634.29
379.89	636.63
380.09	653.01
380.28	653.01
380.48	723.23
380.68	671.73
380.87	638.97
381.07	674.07
381.26	669.39
381.46	645.99
381.65	748.97
381.85	706.84
382.04	664.71
382.24	713.86
382.43	662.37
382.63	641.31
382.83	603.86
383.02	751.31
383.22	751.31
383.41	727.91
383.61	819.19
383.80	748.97
384.00	774.72
384.19	791.10
384.39	798.12
384.58	814.51
384.78	763.01
384.97	760.67
385.17	828.55
385.36	706.84
385.56	723.23
385.75	800.46
385.95	805.14
386.14	814.51
386.34	866.00
386.53	793.44
386.72	772.38
386.92	807.48
387.11	732.59
387.31	870.68
387.50	809.83
387.70	858.98
387.89	844.93
388.09	837.91
388.28	861.32
388.48	901.11
388.67	940.90
388.86	866.00
389.06	894.08
389.25	922.17
389.45	903.45
389.64	983.02
389.84	915.15
390.03	945.58
390.22	987.71
390.42	877.70
390.61	945.58
390.81	938.55
391.00	1057.92
391.19	957.28
391.39	1006.43
391.58	1022.81
391.78	912.81
391.97	919.83
392.16	1001.75
392.36	1018.13
392.55	919.83
392.75	987.71
392.94	1034.52
393.13	950.26
393.33	968.98
393.52	1041.54
393.71	1090.69
393.91	1064.94
394.10	1041.54
394.29	1156.22
394.49	1057.92
394.68	1139.84
394.88	1116.44
395.07	1177.29
395.26	1193.67
395.46	1156.22
395.65	1050.90
395.84	1130.48
396.04	1224.10
396.23	1203.04
396.42	1130.48
396.62	1128.14
396.81	1235.80
397.00	1163.25
397.19	1263.89
397.39	1245.16
397.58	1336.45
397.77	1341.13
397.97	1284.95
398.16	1313.04
398.35	1345.81
398.55	1317.72
398.74	1334.11
398.93	1280.27
399.12	1336.45
399.32	1352.83
399.51	1362.19
399.70	1434.75
399.90	1453.47
400.09	1371.55
400.28	1460.49
400.47	1376.24
400.67	1439.43
400.86	1507.30
401.05	1427.73
401.24	1570.50
401.44	1540.07
401.63	1586.88
401.82	1535.39
402.01	1497.94
402.21	1584.54
402.40	1633.69
402.59	1605.61
402.78	1511.99
402.97	1502.62
403.17	1558.80
403.36	1598.59
403.55	1678.16
403.74	1743.70
403.93	1746.04
404.13	1640.72
404.32	1647.74
404.51	1722.63
404.70	1753.06
404.89	1760.08
405.09	1771.79
405.28	1771.79
405.47	1820.94
405.66	1839.66
405.85	1863.07
406.05	1753.06
406.24	1776.47
406.43	1802.21
406.62	1977.75
406.81	1919.24
407.00	1930.94
407.20	1811.57
407.39	1928.60
407.58	1905.20
407.77	1914.56
407.96	2033.93
408.15	2097.12
408.34	1933.28
408.54	1989.46
408.73	2001.16
408.92	1977.75
409.11	2143.93
409.30	2143.93
409.49	2045.63
409.68	1996.48
409.87	2062.01
410.07	2153.29
410.26	2125.21
410.45	2167.34
410.64	2207.13
410.83	2172.02
411.02	2223.51
411.21	2211.81
411.40	2209.47
411.59	2363.94
411.78	2349.90
411.98	2385.01
412.17	2396.71
412.36	2436.50
412.55	2445.86
412.74	2436.50
412.93	2480.97
413.12	2455.22
413.31	2644.81
413.50	2569.91
413.69	2569.91
413.88	2672.89
414.07	2621.40
414.26	2647.15
414.45	2691.62
414.64	2689.28
414.83	2801.62
415.02	2829.71
415.22	2787.58
415.41	2839.07
415.60	2885.88
415.79	2850.77
415.98	2911.63
416.17	3014.61
416.36	2972.48
416.55	2979.50
416.74	3021.63
416.93	2965.46
417.12	3070.78
417.31	2974.82
417.50	3014.61
417.69	3150.36
417.88	3070.78
418.07	3066.10
418.26	3059.08
418.45	3332.92
418.64	3356.33
418.83	3183.13
419.02	3243.98
419.21	3199.51
419.39	3178.45
419.58	3213.56
419.77	3297.81
419.96	3417.18
420.15	3400.80
420.34	3356.33
420.53	3337.60
420.72	3501.44
420.91	3342.28
421.10	3478.04
421.29	3452.29
421.48	3494.42
421.67	3391.44
421.86	3658.26
422.05	3529.53
422.24	3405.48
422.43	3391.44
422.61	3592.72
422.80	3468.67
422.99	3559.95
423.18	3609.11
423.37	3494.42
423.56	3669.96
423.75	3463.99
423.94	3468.67
424.13	3243.98
424.32	3309.52
424.50	3648.90
424.69	3665.28
424.88	3641.87
425.07	3606.77
425.26	3618.47
425.45	3578.68
425.64	3639.53
425.83	3641.87
426.01	3618.47
426.20	3529.53
426.39	3604.42
426.58	3651.24
426.77	3681.66
426.96	3735.50
427.15	3658.26
427.33	3566.98
427.52	3805.71
427.71	3749.54
427.90	3808.05
428.09	3803.37
428.28	3833.80
428.46	3882.95
428.65	3789.33
428.84	3833.80
429.03	3789.33
429.22	3751.88
429.40	3955.51
429.59	4018.70
429.78	3819.75
429.97	3693.37
430.16	3922.74
430.34	3719.11
430.53	3885.29
430.72	3955.51
430.91	3810.39
431.10	3934.44
431.28	4067.85
431.47	4278.50
431.66	4219.99
431.85	4156.79
432.03	4161.47
432.22	4142.75
432.41	4194.24
432.60	4322.97
432.79	4400.21
432.97	4285.52
433.16	4271.48
433.35	4297.22
433.54	4418.93
433.72	4505.53
433.91	4400.21
434.10	4308.93
434.28	4397.87
434.47	4470.42
434.66	4461.06
434.85	4379.14
435.03	4540.64
435.22	4491.49
435.41	4629.58
435.59	4568.73
435.78	4765.33
435.97	4678.73
436.16	4671.71
436.34	4641.28
436.53	4681.07
436.72	4788.74
436.90	4737.24
437.09	4751.29
437.28	4667.03
437.46	4823.84
437.65	4662.35
437.84	4858.95
438.02	4898.74
438.21	4795.76
438.40	4842.57
438.58	4987.68
438.77	4919.81
438.96	4952.57
439.14	4945.55
439.33	5111.73
439.52	5093.01
439.70	5135.14
439.89	5160.88
440.08	5203.01
440.26	5195.99
440.45	5224.08
440.63	5343.44
440.82	5355.15
441.01	5254.50
441.19	5633.67
441.38	5659.42
441.57	5514.30
441.75	5563.45
441.94	5626.65
442.12	5790.49
442.31	5813.89
442.50	5689.84
442.68	5701.54
442.87	5837.30
443.05	5987.09
443.24	5961.34
443.43	5902.83
443.61	5951.98
443.80	5959.00
443.98	5757.72
444.17	5617.29
444.35	5774.10
444.54	5961.34
444.73	5870.06
444.91	5928.58
445.10	6038.58
445.28	5881.77
445.47	5849.00
445.65	5884.11
445.84	5980.07
446.02	5996.45
446.21	5959.00
446.39	6085.39
446.58	6029.22
446.77	6043.26
446.95	6010.50
447.14	6118.16
447.32	6167.31
447.51	6127.52
447.69	5956.66
447.88	6064.33
448.06	6043.26
448.25	6024.54
448.43	6209.44
448.62	6115.82
448.80	6274.98
448.99	6188.38
449.17	6359.24
449.36	6157.95
449.54	6443.49
449.73	6487.96
449.91	6382.64
450.10	6478.60
450.28	6558.18
450.46	6424.77
450.65	6497.33
450.83	6305.40
451.02	6382.64
451.20	6595.63
451.39	6642.44
451.57	6572.22
451.76	6502.01
451.94	6693.93
452.13	6595.63
452.31	6614.35
452.49	6509.03
452.68	6614.35
452.86	6604.99
453.05	6761.81
453.23	6656.48
453.42	6789.89
453.60	6754.79
453.78	6715.00
453.97	6780.53
454.15	6817.98
454.34	6782.87
454.52	6925.65
454.70	6700.95
454.89	6923.30
455.07	6949.05
455.26	6960.75
455.44	7084.80
455.62	6918.62
455.81	7054.37
455.99	6920.96
456.17	6995.86
456.36	7311.83
456.54	7119.91
456.73	7314.17
456.91	7307.15
457.09	7503.76
457.28	7442.90
457.46	7356.30
457.64	7595.04
457.83	7496.74
458.01	7265.02
458.19	7646.53
458.38	7255.66
458.56	7623.12
458.74	7557.59
458.93	7559.93
459.11	7515.46
459.29	7576.31
459.48	7559.93
459.66	7688.66
459.84	7660.57
460.03	7740.15
460.21	7843.14
460.39	7658.23
460.57	7655.89
460.76	7899.31
460.94	7967.18
461.12	7770.58
461.31	7920.37
461.49	7967.18
461.67	7840.79
461.85	8084.21
462.04	8131.02
462.22	8477.42
462.40	8102.93
462.59	8053.78
462.77	8114.64
462.95	8229.32
463.13	7995.27
463.32	8215.28
463.50	8297.20
463.68	8119.32
463.86	8126.34
464.05	8276.13
464.23	8109.96
464.41	8334.65
464.59	8114.64
464.78	8315.92
464.96	8241.03
465.14	8236.35
465.32	8524.23
465.50	8336.99
465.69	8446.99
465.87	8329.97
466.05	8449.33
466.23	8580.40
466.41	8711.47
466.60	8533.59
466.78	8259.75
466.96	8608.49
467.14	8528.91
467.32	8634.24
467.51	8744.24
467.69	8514.87
467.87	8692.75
468.05	8659.98
468.23	8786.37
468.41	8891.70
468.60	8587.43
468.78	8877.65
468.96	8924.46
469.14	8929.14
469.32	9076.60
469.50	8755.94
469.69	9078.94
469.87	9074.26
470.05	9130.43
470.23	9071.92
470.41	9034.47
470.59	9359.80
470.77	9090.64
470.95	8973.61
471.14	9275.54
471.32	9107.02
471.50	9624.28
471.68	9315.33
471.86	9404.27
472.04	9589.17
472.22	9544.70
472.40	9441.72
472.58	9420.66
472.77	9612.58
472.95	9727.27
473.13	10005.79
473.31	9771.74
473.49	9785.78
473.67	9675.77
473.85	9916.85
474.03	10251.55
474.21	10218.78
474.39	10129.84
474.57	10375.59
474.75	10207.08
474.93	10129.84
475.12	10279.63
475.30	10483.26
475.48	10270.27
475.66	10513.69
475.84	10312.40
476.02	10761.78
476.20	10705.61
476.38	10644.76
476.56	10738.38
476.74	10635.39
476.92	10993.50
477.10	10640.08
477.28	10932.64
477.46	11126.91
477.64	11211.17
477.82	11274.36
478.00	11557.57
478.18	11510.75
478.36	11534.16
478.54	11599.70
478.72	11854.81
478.90	11854.81
479.08	11819.71
479.26	12004.61
479.44	12006.95
479.62	12105.25
479.80	12372.07
479.98	12512.50
480.16	12713.79
480.34	12479.74
480.52	12793.37
480.70	12854.22
480.88	12674.00
481.06	12858.90
481.24	12837.84
481.41	12891.67
481.59	13231.05
481.77	13217.01
481.95	13446.38
482.13	13434.68
482.31	13413.61
482.49	13804.48
482.67	13830.23
482.85	13731.92
483.03	13965.98
483.21	13940.23
483.39	14052.58
483.57	14352.16
483.74	14441.11
483.92	14565.15
484.10	14532.39
484.28	14707.93
484.46	14934.96
484.64	15023.90
484.82	14647.07
485.00	15164.33
485.18	15215.82
485.35	15754.15
485.53	15070.71
485.71	15260.29
485.89	15279.02
486.07	15274.34
486.25	15506.05
486.43	15648.82
486.61	16002.24
486.78	16102.89
486.96	15894.58
487.14	16582.70
487.32	16498.44
487.50	16760.58
487.68	17036.76
487.85	17142.08
488.03	17429.97
488.21	17376.14
488.39	17380.82
488.57	17390.18
488.75	17406.56
488.92	17699.13
489.10	17872.33
489.28	18010.42
489.46	18225.75
489.64	18237.45
489.81	18689.18
489.99	18705.56
490.17	18719.60
490.35	18963.02
490.53	18939.62
490.70	18878.76
490.88	19056.64
491.06	19192.39
491.24	19288.35
491.41	19407.72
491.59	19370.27
491.77	19620.71
491.95	19761.14
492.13	20123.93
492.30	20011.58
492.48	20285.42
492.66	20250.32
492.84	20390.75
493.01	20741.83
493.19	20622.46
493.37	20442.24
493.54	20812.04
493.72	21163.12
493.90	20917.37
494.08	21605.49
494.25	21467.39
494.43	21357.39
494.61	21731.87
494.79	21488.46
494.96	21525.91
495.14	21813.79
495.32	21862.94
495.49	22232.75
495.67	22024.44
495.85	22576.81
496.02	22614.26
496.20	22436.38
496.38	22874.06
496.55	22654.05
496.73	23019.17
496.91	22817.88
497.09	23342.16
497.26	23080.02
497.44	23274.29
497.62	23370.25
497.79	23910.91
497.97	23496.64
498.14	23800.91
498.32	23796.23
498.50	23852.40
498.67	24210.50
498.85	24451.58
499.03	24524.13
499.20	24411.79
499.38	24486.68
499.56	24306.46
499.73	24709.04
499.91	24741.80
500.08	24762.87
500.26	24402.43
500.44	24961.81
500.61	24905.64
500.79	24994.58
500.97	25214.59
501.14	25532.90
501.32	25486.09
501.49	25486.09
501.67	25483.75
501.84	25851.22
502.02	25568.01
502.20	25926.11
502.37	26059.52
502.55	26183.57
502.72	26106.34
502.90	26092.29
503.07	26125.06
503.25	26054.84
503.43	26396.56
503.60	26546.36
503.78	26462.10
503.95	26506.57
504.13	26647.00
504.30	26831.90
504.48	27056.59
504.65	27112.77
504.83	27243.84
505.01	27318.73
505.18	27419.38
505.36	27777.48
505.53	27323.41
505.71	27435.76
505.88	27700.24
506.06	27463.85
506.23	28037.28
506.41	27597.26
506.58	28051.32
506.76	28231.54
506.93	28023.23
507.11	28486.66
507.28	28554.54
507.46	28425.81
507.63	28109.83
507.81	28481.98
507.98	28489.00
508.16	28568.58
508.33	28847.10
508.50	28734.76
508.68	28737.10
508.85	29446.28
509.03	28680.92
509.20	29212.23
509.38	29692.04
509.55	29390.11
509.73	29200.52
509.90	29523.52
510.08	29338.62
510.25	29617.14
510.42	29830.13
510.60	29696.72
510.77	29851.19
510.95	30000.99
511.12	30054.82
511.30	30132.06
511.47	30295.89
511.64	30405.90
511.82	30810.81
511.99	29692.04
512.17	30457.39
512.34	30099.29
512.51	30604.84
512.69	30974.65
512.86	30831.88
513.04	31056.57
513.21	30932.52
513.38	30927.84
513.56	31143.17
513.73	30810.81
513.90	31669.79
514.08	30979.33
514.25	31129.12
514.43	31515.31
514.60	31625.32
514.77	31330.41
514.95	31934.27
515.12	31328.07
515.29	32048.96
515.47	31718.94
515.64	32168.32
515.81	31943.63
515.99	32058.32
516.16	32084.06
516.33	32343.86
516.51	32486.64
516.68	31875.76
516.85	31697.88
517.03	31971.72
517.20	32222.16
517.37	32486.64
517.54	32327.48
517.72	32430.46
517.89	32385.99
518.06	32671.54
518.24	32158.96
518.41	32428.12
518.58	32582.60
518.75	32877.51
518.93	32931.34
519.10	33251.99
519.27	32924.32
519.45	32917.29
519.62	33315.19
519.79	33399.44
519.96	33574.98
520.14	34120.33
520.31	33661.58
520.48	33694.35
520.65	33867.55
520.83	34171.82
521.00	33989.26
521.17	34082.88
521.34	33926.07
521.52	33998.62
521.69	34087.56
521.86	34548.65
522.03	34494.82
522.20	34588.44
522.38	34520.56
522.55	34300.55
522.72	34527.58
522.89	34714.83
523.07	34504.18
523.24	34426.94
523.41	35222.72
523.58	34756.96
523.75	35353.79
523.92	35049.52
524.10	35318.68
524.27	35213.36
524.44	35704.87
524.61	35475.50
524.78	35681.47
524.96	35587.85
525.13	35948.29
525.30	35728.28
525.47	36107.44
525.64	36301.71
525.81	36158.94
525.98	35697.85
526.16	35620.61
526.33	35651.04
526.50	35971.69
526.67	35400.60
526.84	35889.77
527.01	35777.43
527.18	35800.83
527.36	36568.53
527.53	36219.79
527.70	36856.42
527.87	36964.08
528.04	36353.20
528.21	36198.73
528.38	36664.49
528.55	36840.03
528.72	36912.59
528.89	36973.44
529.07	36877.48
529.24	36631.72
529.41	36643.43
529.58	36875.14
529.75	36989.83
529.92	37160.69
530.09	36730.03
530.26	37205.16
530.43	37186.43
530.60	36917.27
530.77	37116.22
530.94	37406.44
531.11	37383.04
531.28	37715.39
531.46	37516.45
531.63	37427.51
531.80	37530.49
531.97	37951.79
532.14	37755.18
532.31	37427.51
532.48	38043.07
532.65	37818.38
532.82	37933.06
532.99	38117.96
533.16	37818.38
533.33	37998.60
533.50	38197.54
533.67	38188.18
533.84	37909.66
534.01	38202.22
534.18	38384.79
534.35	38700.76
534.52	37902.64
534.69	38583.73
534.86	38569.69
535.03	38117.96
535.20	38382.45
535.37	38993.32
535.54	39131.42
535.71	39299.94
535.88	38883.32
536.05	38635.22
536.22	38740.55
536.38	39105.67
536.55	38696.08
536.72	39175.89
536.89	38951.20
537.06	38871.62
537.23	39210.99
537.40	39232.06
537.57	39215.68
537.74	39370.15
537.91	39576.12
538.08	39335.04
538.25	39470.79
538.42	39503.56
538.59	39847.62
538.75	39686.12
538.92	39145.46
539.09	39924.86
539.26	39658.04
539.43	40069.97
539.60	39349.09
539.77	39749.32
539.94	39798.47
540.11	39824.22
540.28	39737.62
540.44	39707.19
540.61	39744.64
540.78	39978.69
540.95	40362.54
541.12	39608.89
541.29	40175.30
541.46	39761.02
541.62	40229.13
541.79	40432.75
541.96	39962.31
542.13	40252.53
542.30	40301.68
542.47	40512.33
542.63	40402.33
542.80	40659.79
542.97	41177.04
543.14	40643.40
543.31	41319.82
543.48	41001.50
543.64	41048.32
543.81	41340.88
543.98	41240.24
544.15	40612.98
544.32	41535.15
544.48	41064.70
544.65	41603.02
544.82	41282.37
544.99	41006.19
545.16	41123.21
545.32	41429.82
545.49	41546.85
545.66	41752.82
545.83	41207.47
546.00	41366.63
546.16	41759.84
546.33	41434.50
546.50	41160.66
546.67	41736.43
546.83	41134.92
547.00	41427.48
547.17	41443.87
547.34	41158.32
547.50	41383.01
547.67	41638.13
547.84	41727.07
548.00	41727.07
548.17	42361.36
548.34	42436.25
548.51	41904.95
548.67	42146.03
548.84	42263.05
549.01	42124.96
549.18	41628.77
549.34	42021.98
549.51	42197.52
549.68	42454.98
549.84	42377.74
550.01	42340.29
550.18	42473.70
550.34	42021.98
550.51	42160.07
550.68	42148.37
550.84	41965.81
551.01	42487.74
551.18	42586.05
551.34	42621.16
551.51	42698.39
551.68	42637.54
551.84	42752.23
552.01	42497.11
552.18	42356.67
552.34	42110.92
552.51	42923.08
552.68	42780.31
552.84	42686.69
553.01	43143.09
553.18	43084.58
553.34	42625.84
553.51	42508.81
553.67	42939.47
553.84	42920.74
554.01	43475.45
554.17	43283.53
554.34	42953.51
554.51	43468.43
554.67	43131.39
554.84	42899.68
555.00	43103.31
555.17	43159.48
555.33	43379.49
555.50	43133.73
555.67	43175.86
555.83	43192.25
556.00	43278.85
556.16	43454.39
556.33	43636.95
556.50	43297.57
556.66	43461.41
556.83	43529.28
556.99	43824.19
557.16	43480.13
557.32	43243.74
557.49	43973.98
557.65	43374.81
557.82	43318.64
557.98	43758.66
558.15	43604.18
558.32	43665.03
558.48	43367.79
558.65	43473.11
558.81	43470.77
558.98	43756.32
559.14	43737.59
559.31	43557.37
559.47	43868.66
559.64	43608.86
559.80	43786.74
559.97	44425.71
560.13	43845.26
560.30	43831.21
560.46	43894.41
560.63	43473.11
560.79	44098.03
560.96	43917.81
561.12	44048.88
561.29	44151.87
561.45	44219.74
561.61	43688.44
561.78	44039.52
561.94	44175.27
562.11	44163.57
562.27	43735.25
562.44	44409.32
562.60	44350.81
562.77	44362.51
562.93	44044.20
563.10	44229.10
563.26	43819.51
563.42	44404.64
563.59	43735.25
563.75	44130.80
563.92	44706.57
564.08	44346.13
564.24	44605.93
564.41	44294.64
564.57	44652.74
564.74	44385.92
564.90	44240.81
565.07	44357.83
565.23	44259.53
565.39	44287.62
565.56	44683.17
565.72	44390.60
565.88	44210.38
566.05	44439.75
566.21	44196.34
566.38	44332.09
566.54	44264.21
566.70	44580.18
566.87	44463.16
567.03	44540.39
567.19	45195.74
567.36	44861.05
567.52	44294.64
567.68	44591.89
567.85	44652.74
568.01	44491.24
568.17	44112.08
568.34	44669.12
568.50	44343.79
568.66	44432.73
568.83	44325.07
568.99	44364.85
569.15	44921.90
569.32	44589.55
569.48	44130.80
569.64	45045.95
569.81	44765.09
569.97	44406.98
570.13	44619.97
570.30	44500.61
570.46	44549.76
570.62	44442.09
570.78	44114.42
570.95	44404.64
571.11	44612.95
571.27	45038.93
571.43	44402.30
571.60	44638.70
571.76	44692.53
571.92	44388.26
572.09	44638.70
572.25	44671.46
572.41	44442.09
572.57	44715.93
572.74	45134.89
572.90	44900.84
573.06	44921.90
573.22	44458.48
573.38	44708.91
573.55	44339.11
573.71	44711.25
573.87	45177.02
574.03	44622.31
574.20	44968.71
574.36	44999.14
574.52	44933.60
574.68	45319.79
574.84	44917.22
575.01	44802.53
575.17	44790.83
575.33	44652.74
575.49	44521.67
575.65	44587.21
575.82	45052.97
575.98	44545.08
576.14	45125.53
576.30	44715.93
576.46	44547.42
576.62	44898.50
576.79	44800.19
576.95	44203.36
577.11	44769.77
577.27	44868.07
577.43	44942.97
577.59	44870.41
577.75	44697.21
577.92	44561.46
578.08	45223.83
578.24	44016.11
578.40	44615.29
578.56	44821.26
578.72	44776.79
578.88	44994.46
579.04	45174.68
579.21	44624.65
579.37	44458.48
579.53	44795.51
579.69	44645.72
579.85	44942.97
580.01	45385.33
580.17	45041.27
580.33	45214.47
580.49	45237.87
580.65	45071.70
580.82	44821.26
580.98	44655.08
581.14	44889.13
581.30	45141.91
581.46	45254.26
581.62	44835.30
581.78	45322.13
581.94	45310.43
582.10	44737.00
582.26	45198.09
582.42	45244.90
582.58	45146.59
582.74	45092.76
582.90	45085.74
583.06	45139.57
583.22	44938.29
583.38	45008.50
583.54	45280.00
583.70	45113.83
583.86	45003.82
584.02	44893.82
584.18	44711.25
584.34	45242.56
584.50	45191.06
584.66	45127.87
584.82	44397.62
584.98	45155.96
585.14	45059.99
585.30	44992.12
585.46	45366.60
585.62	44844.66
585.78	45024.89
585.94	44783.81
586.10	45090.42
586.26	45097.44
586.42	45097.44
586.58	45074.04
586.74	45378.31
586.90	44652.74
587.06	44992.12
587.22	44968.71
587.38	44732.32
587.54	44683.17
587.70	45617.04
587.86	45373.63
588.02	45212.13
588.18	44795.51
588.34	45291.71
588.49	45170.00
588.65	44545.08
588.81	44638.70
588.97	45167.66
589.13	44626.99
589.29	44891.48
589.45	44898.50
589.61	45242.56
589.77	45366.60
589.93	44961.69
590.08	45544.48
590.24	45336.18
590.40	45404.05
590.56	45464.91
590.72	45448.52
590.88	45392.35
591.04	44421.03
591.20	45366.60
591.35	45530.44
591.51	46028.98
591.67	45340.86
591.83	44924.24
591.99	45195.74
592.15	45116.17
592.31	45244.90
592.46	45539.80
592.62	45284.68
592.78	45528.10
592.94	45399.37
593.10	45324.47
593.26	45287.03
593.41	45275.32
593.57	45247.24
593.73	45539.80
593.89	45069.36
594.05	45406.39
594.20	45387.67
594.36	45511.72
594.52	45228.51
594.68	45474.27
594.84	45530.44
594.99	45930.67
595.15	45537.46
595.31	45380.65
595.47	45560.87
595.62	45469.59
595.78	45507.04
595.94	45617.04
596.10	45844.07
596.25	45872.16
596.41	45635.77
596.57	45373.63
596.73	45801.94
596.88	44933.60
597.04	45418.10
597.20	45441.50
597.36	45296.39
597.51	45687.26
597.67	45214.47
597.83	45830.03
597.99	45656.83
598.14	45745.77
598.30	45500.01
598.46	45422.78
598.61	45317.45
598.77	45535.12
598.93	44982.76
599.09	45450.86
599.24	45813.65
599.40	45404.05
599.56	45347.88
599.71	45865.14
599.87	45820.67
600.03	45785.56
600.18	45783.22
600.34	45390.01
600.50	44971.05
600.65	45221.49
600.81	45722.37
600.97	45832.37
601.12	45993.87
601.28	45518.74
601.44	45808.96
601.59	45364.26
601.75	45226.17
601.91	45308.09
602.06	45338.52
602.22	46038.34
602.37	45663.85
602.53	45546.82
602.69	45483.63
602.84	45500.01
603.00	45558.53
603.16	45464.91
603.31	45303.41
603.47	45610.02
603.62	45617.04
603.78	45153.62
603.94	45572.57
604.09	45581.93
604.25	45539.80
604.40	45399.37
604.56	45624.06
604.71	45509.38
604.87	45062.33
605.03	45598.32
605.18	45422.78
605.34	45530.44
605.49	45165.32
605.65	45453.20
605.80	45041.27
605.96	45631.08
606.12	45254.26
606.27	45277.66
606.43	45099.78
606.58	45186.38
606.74	45006.16
606.89	45081.06
607.05	44891.48
607.20	45352.56
607.36	45464.91
607.51	45366.60
607.67	45280.00
607.82	45572.57
607.98	45638.11
608.13	45233.19
608.29	44746.36
608.44	44975.73
608.60	45148.93
608.75	44460.82
608.91	45364.26
609.06	45059.99
609.22	45170.00
609.37	45181.70
609.53	44999.14
609.68	44952.33
609.84	44697.21
609.99	45118.51
610.15	45186.38
610.30	45127.87
610.46	44844.66
610.61	44832.96
610.76	45067.02
610.92	44559.12
611.07	45287.03
611.23	44594.23
611.38	44729.98
611.54	44959.35
611.69	44634.02
611.84	44837.64
612.00	45085.74
612.15	44676.15
612.31	44849.35
612.46	44376.56
612.62	44942.97
612.77	45010.84
612.92	44697.21
613.08	44734.66
613.23	44669.12
613.39	44762.75
613.54	44175.27
613.69	44706.57
613.85	44453.79
614.00	44685.51
614.15	44666.78
614.31	44814.24
614.46	44371.88
614.62	44697.21
614.77	44252.51
614.92	44460.82
615.08	44189.31
615.23	44261.87
615.38	44243.15
615.54	44198.68
615.69	44423.37
615.84	44079.31
616.00	44739.34
616.15	44046.54
616.30	43945.90
616.46	43906.11
616.61	44020.80
616.76	44147.18
616.92	44240.81
617.07	43957.60
617.22	44123.78
617.37	44088.67
617.53	44074.63
617.68	44722.96
617.83	43997.39
617.99	43976.33
618.14	43969.30
618.29	43831.21
618.45	43749.29
618.60	44133.14
618.75	43768.02
618.90	43765.68
619.06	43313.95
619.21	43351.40
619.36	44135.48
619.51	44191.65
619.67	44203.36
619.82	43618.22
619.97	43971.64
620.12	43784.40
620.28	43288.21
620.43	43501.20
620.58	43824.19
620.73	44072.29
620.89	43360.76
621.04	43714.19
621.19	43395.87
621.34	43517.58
621.49	43555.03
621.65	43236.72
621.80	43452.05
621.95	43206.29
622.10	43702.48
622.25	43363.11
622.41	43313.95
622.56	42890.32
622.71	43634.61
622.86	43271.82
623.01	43653.33
623.16	43157.14
623.32	43643.97
623.47	43447.36
623.62	43363.11
623.77	43138.41
623.92	43002.66
624.07	43002.66
624.23	43061.18
624.38	42923.08
624.53	42478.38
624.68	43185.22
624.83	42948.83
624.98	43068.20
625.13	42890.32
625.29	42763.93
625.44	42731.16
625.59	42550.94
625.74	42567.32
625.89	42045.38
626.04	42632.86
626.19	42663.28
626.34	42670.31
626.49	42635.20
626.65	42965.21
626.80	42864.57
626.95	42527.53
627.10	42419.87
627.25	41984.53
627.40	42263.05
627.55	41778.56
627.70	41839.42
627.85	42239.65
628.00	42377.74
628.15	42625.84
628.30	41954.10
628.45	42298.16
628.60	42216.24
628.76	41907.29
628.91	42157.73
629.06	41811.33
629.21	42007.94
629.36	41944.74
629.51	42094.53
629.66	41476.63
629.81	42068.79
629.96	41792.61
630.11	41785.58
630.26	41853.46
630.41	42146.03
630.56	41706.01
630.71	41888.57
630.86	41633.45
631.01	41656.85
631.16	41551.53
631.31	41081.08
631.46	41057.68
631.61	41354.93
631.76	41450.89
631.91	41462.59
632.06	41921.34
632.21	41600.68
632.36	41874.52
632.51	41933.04
632.66	41663.88
632.81	40954.69
632.96	41439.18
633.10	41151.30
633.25	40858.73
633.40	40931.29
633.55	41612.38
633.70	41460.25
633.85	41193.43
634.00	41478.97
634.15	41441.53
634.30	41401.74
634.45	41490.68
634.60	41130.23
634.75	41273.01
634.90	41233.22
635.05	41333.86
635.19	41090.44
635.34	41329.18
635.49	41076.40
635.64	40891.50
635.79	40828.30
635.94	40987.46
636.09	40762.77
636.24	40608.29
636.39	40502.97
636.53	40629.36
636.68	40879.80
636.83	40385.94
636.98	40940.65
637.13	40453.82
637.28	40837.67
637.43	40942.99
637.57	40425.73
637.72	40942.99
637.87	40730.00
638.02	40521.69
638.17	40615.32
638.32	40690.21
638.46	40587.23
638.61	40713.62
638.76	40891.50
638.91	40067.63
639.06	40517.01
639.20	40201.04
639.35	40498.29
639.50	40325.09
639.65	40786.18
639.80	40652.76
639.94	40037.20
640.09	40584.89
640.24	39875.71
640.39	39620.59
640.54	39828.90
640.68	39922.52
640.83	40247.85
640.98	40086.36
641.13	40086.36
641.27	40280.62
641.42	40102.74
641.57	40257.21
641.72	39894.43
641.86	39690.80
642.01	39723.57
642.16	39562.08
642.31	39068.22
642.45	40006.78
642.60	39185.25
642.75	39056.52
642.90	39461.43
643.04	39559.73
643.19	39833.58
643.34	39873.37
643.48	40053.59
643.63	39856.98
643.78	39147.80
643.93	39351.43
644.07	39299.94
644.22	39395.90
644.37	39386.54
644.51	39033.11
644.66	39482.50
644.81	39606.55
644.95	39225.04
645.10	39618.25
645.25	39676.76
645.39	39124.40
645.54	39395.90
645.69	39400.58
645.83	39257.81
645.98	39239.08
646.13	38888.00
646.27	39208.65
646.42	39108.01
646.57	39208.65
646.71	38796.72
646.86	39220.36
647.00	38766.29
647.15	39559.73
647.30	39435.69
647.44	38829.49
647.59	39236.74
647.74	38948.85
647.88	38539.26
648.03	38873.96
648.17	38986.30
648.32	38628.20
648.47	38974.60
648.61	38527.56
648.76	38817.78
648.90	38878.64
649.05	38656.29
649.20	38506.49
649.34	38742.89
649.49	38305.21
649.63	38843.53
649.78	38384.79
649.92	38452.66
650.07	38665.65
650.21	38096.90
650.36	38623.52
650.51	38646.93
650.65	38602.46
650.80	38838.85
650.94	38316.91
651.09	38068.81
651.23	38518.20
651.38	38660.97
651.52	37926.04
651.67	38550.96
651.81	38185.84
651.96	38218.61
652.10	38143.71
652.25	38040.73
652.39	37949.45
652.54	38288.82
652.68	38242.01
652.83	38288.82
652.97	38057.11
653.12	37979.87
653.26	38101.58
653.41	38050.09
653.55	37820.72
653.70	37521.13
653.84	37909.66
653.99	37865.19
654.13	38068.81
654.27	37584.32
654.42	37902.64
654.56	37670.92
654.71	37741.14
654.85	37687.31
655.00	38050.09
655.14	37921.36
655.29	37179.41
655.43	37785.61
655.57	37022.59
655.72	36739.39
655.86	37062.38
656.01	37830.08
656.15	36863.44
656.30	37240.26
656.44	37036.64
656.58	37088.13
656.73	36753.43
656.87	36989.83
657.01	36687.90
657.16	37076.43
657.30	36650.45
657.45	36732.37
657.59	37024.93
657.73	36608.32
657.88	36823.65
658.02	37062.38
658.16	37261.33
658.31	37043.66
658.45	37256.65
658.60	37055.36
658.74	37029.62
658.88	37153.66
659.03	36725.35
659.17	36870.46
659.31	37022.59
659.46	36751.09
659.60	36615.34
659.74	36404.69
659.89	36538.10
660.03	36446.82
660.17	36142.55
660.32	36659.81
660.46	36498.31
660.60	36519.38
660.74	36498.31
660.89	36636.41
661.03	35842.96
661.17	36102.76
661.32	36072.34
661.46	36233.83
661.60	35990.42
661.74	36018.50
661.89	35782.11
662.03	35784.45
662.17	35681.47
662.31	35747.00
662.46	36067.66
662.60	35510.61
662.74	35885.09
662.88	35456.78
663.03	35943.61
663.17	35541.03
663.31	35058.88
663.45	35236.77
663.60	35367.84
663.74	35108.04
663.88	35030.80
664.02	35012.07
664.17	35412.31
664.31	35283.58
664.45	34862.28
664.59	35349.11
664.73	34904.41
664.88	35206.34
665.02	34756.96
665.16	34637.59
665.30	34944.20
665.44	35040.16
665.59	34719.51
665.73	34162.46
665.87	34375.45
666.01	34506.52
666.15	34450.35
666.29	34705.46
666.44	34745.25
666.58	34433.96
666.72	34408.22
666.86	34660.99
667.00	34340.34
667.14	34000.96
667.28	33867.55
667.43	34162.46
667.57	34141.39
667.71	34078.20
667.85	33979.90
667.99	33663.93
668.13	33617.11
668.27	33446.26
668.41	33890.96
668.56	33333.91
668.70	33811.38
668.84	33986.92
668.98	33626.48
669.12	33603.07
669.26	33720.10
669.40	33013.26
669.54	33074.11
669.68	33560.94
669.82	33338.59
669.96	32884.53
670.10	32596.64
670.25	33029.64
670.39	32903.25
670.53	32589.62
670.67	32371.95
670.81	33165.39
670.95	32940.70
671.09	32699.62
671.23	32844.74
671.37	33046.02
671.51	32493.66
671.65	32006.83
671.79	32180.03
671.93	32177.68
672.07	32634.09
672.21	32477.27
672.35	31826.60
672.49	31796.18
672.63	32048.96
672.77	32245.56
672.91	31737.66
673.05	31658.09
673.19	31491.91
673.33	31688.51
673.47	31695.53
673.61	31391.26
673.75	31318.71
673.89	31012.10
674.03	31105.72
674.17	31180.62
674.31	31005.08
674.45	30752.30
674.59	31178.28
674.73	31440.42
674.87	30871.67
675.01	31077.63
675.15	31349.14
675.29	30700.81
675.43	31047.21
675.56	30998.06
675.70	30778.04
675.84	30604.84
675.98	29605.44
676.12	30473.78
676.26	30235.04
676.40	30141.42
676.54	29895.66
676.68	29696.72
676.82	29514.16
676.96	29638.20
677.10	29603.10
677.23	29528.20
677.37	29556.28
677.51	29429.90
677.65	29497.77
677.79	29125.63
677.93	29401.81
678.07	29024.98
678.21	28659.86
678.34	28816.68
678.48	28624.75
678.62	28748.80
678.76	28404.74
678.90	28430.49
679.04	28718.37
679.18	28746.46
679.31	28133.24
679.45	28341.55
679.59	27924.93
679.73	27962.38
679.87	27906.21
680.00	28170.69
680.14	27943.66
680.28	28091.11
680.42	27627.68
680.56	27681.52
680.70	27372.57
680.83	27124.47
680.97	27058.93
681.11	27194.68
681.25	27065.96
681.39	27339.80
681.52	26897.44
681.66	27049.57
681.80	27005.10
681.94	26988.72
682.07	26764.03
682.21	26576.78
682.35	26192.94
682.49	26448.05
682.62	26239.75
682.76	26394.22
682.90	26391.88
683.04	25912.07
683.17	25862.92
683.31	25895.69
683.45	25998.67
683.59	25647.59
683.72	25371.41
683.86	25422.90
684.00	25467.37
684.13	25542.27
684.27	25436.94
684.41	25488.43
684.55	24795.64
684.68	24964.15
684.82	24922.02
684.96	25034.37
685.09	24498.39
685.23	24879.89
685.37	24402.43
685.50	24680.95
685.64	24746.48
685.78	24575.62
685.91	24547.54
686.05	24119.22
686.19	24133.26
686.32	24177.73
686.46	23747.08
686.60	23618.35
686.73	23625.37
686.87	23630.05
687.01	23358.55
687.14	23215.77
687.28	23459.19
687.42	23335.14
687.55	22934.91
687.69	23005.13
687.82	22768.73
687.96	23002.78
688.10	22991.08
688.23	22808.52
688.37	22604.89
688.50	22317.01
688.64	22370.84
688.78	22480.85
688.91	22579.15
689.05	22150.83
689.18	21986.99
689.32	22036.14
689.46	22078.27
689.59	22071.25
689.73	22207.00
689.86	21797.41
690.00	21916.78
690.13	21977.63
690.27	21724.85
690.41	21713.15
690.54	21369.09
690.68	21247.38
690.81	21289.51
690.95	21427.60
691.08	20971.20
691.22	21205.25
691.35	20830.77
691.49	21022.69
691.62	20971.20
691.76	21146.74
691.89	20863.54
692.03	20725.44
692.16	20397.77
692.30	20699.70
692.43	20577.99
692.57	20205.84
692.70	20393.09
692.84	20077.12
692.97	20037.33
693.11	20163.72
693.24	19910.94
693.38	19702.63
693.51	19468.58
693.65	19440.49
693.78	19300.06
693.92	19611.35
694.05	19145.58
694.19	19262.61
694.32	19122.18
694.45	19470.92
694.59	19033.24
694.72	18822.59
694.86	18696.20
694.99	18508.96
695.13	18721.95
695.26	18476.19
695.39	18277.24
695.53	18586.19
695.66	18476.19
695.80	18352.14
695.93	18242.14
696.07	18029.15
696.20	18031.49
696.33	18164.90
696.47	18164.90
696.60	18302.99
696.73	18097.02
696.87	17764.67
697.00	18139.15
697.14	17694.45
697.27	17764.67
697.40	17617.21
697.54	17451.03
697.67	17500.19
697.80	17355.07
697.94	17444.01
698.07	17383.16
698.21	16952.50
698.34	17165.49
698.47	16877.60
698.61	16578.01
698.74	16519.50
698.87	17013.35
699.01	16549.93
699.14	16809.73
699.27	16486.73
699.40	16468.01
699.54	16100.55
699.67	16299.49
699.80	16395.45
699.94	16259.70
700.07	16027.99
700.20	15800.96
700.34	15810.32
700.47	15798.62
700.60	16098.20
700.73	15779.89
700.87	15683.93
701.00	15630.10
701.13	15534.14
701.26	15393.70
701.40	15463.92
701.53	15290.72
701.66	15346.89
701.79	15133.90
701.93	15108.16
702.06	14745.38
702.19	14925.60
702.32	15042.62
702.46	14827.29
702.59	14813.25
702.72	14906.87
702.85	14911.55
702.99	14855.38
703.12	14796.87
703.25	14696.22
703.38	14530.05
703.51	14235.14
703.65	14600.26
703.78	14534.73
703.91	14157.90
704.04	14045.55
704.17	14284.29
704.31	14207.05
704.44	13795.12
704.57	13832.57
704.70	13839.59
704.83	13614.90
704.96	13729.58
705.10	13729.58
705.23	13902.78
>>>>>End Processed Spectral Data<<<<<
