SpectraSuite Data File
++++++++++++++++++++++++++++++++++++
Date: Fri Oct 25 11:33:19 EDT 2013
User: price-jones
Dark Spectrum Present: No
Reference Spectrum Present: No
Number of Sampled Component Spectra: 1
Spectrometers: USB2+H05261
Integration Time (usec): 100000 (USB2+H05261)
Spectra Averaged: 1 (USB2+H05261)
Boxcar Smoothing: 0 (USB2+H05261)
Correct for Electrical Dark: No (USB2+H05261)
Strobe/Lamp Enabled: No (USB2+H05261)
Correct for Detector Non-linearity: No (USB2+H05261)
Correct for Stray Light: No (USB2+H05261)
Number of Pixels in Processed Spectrum: 2048
>>>>>Begin Processed Spectral Data<<<<<
365.73	287.89
365.92	287.89
366.12	287.89
366.32	166.18
366.52	154.48
366.72	182.56
366.91	88.94
367.11	201.29
367.31	107.66
367.51	170.86
367.70	182.56
367.90	191.92
368.10	70.22
368.30	131.07
368.49	173.20
368.69	156.82
368.89	208.31
369.09	170.86
369.28	243.42
369.48	222.35
369.68	187.24
369.87	177.88
370.07	262.14
370.27	294.91
370.47	322.99
370.66	449.38
370.86	533.64
371.06	479.81
371.25	540.66
371.45	526.62
371.65	587.47
371.84	573.43
372.04	498.53
372.24	596.84
372.44	582.79
372.63	620.24
372.83	638.97
373.03	557.05
373.22	629.60
373.42	613.22
373.62	650.67
373.81	681.10
374.01	732.59
374.21	606.20
374.40	622.58
374.60	627.26
374.79	720.88
374.99	615.56
375.19	617.90
375.38	688.12
375.58	608.54
375.78	758.33
375.97	674.07
376.17	674.07
376.37	720.88
376.56	739.61
376.76	589.82
376.95	674.07
377.15	568.75
377.35	681.10
377.54	662.37
377.74	674.07
377.93	695.14
378.13	683.44
378.33	657.69
378.52	716.20
378.72	772.38
378.91	678.76
379.11	697.48
379.31	755.99
379.50	725.57
379.70	809.83
379.89	770.04
380.09	699.82
380.28	704.50
380.48	732.59
380.68	727.91
380.87	716.20
381.07	669.39
381.26	744.29
381.46	737.27
381.65	812.17
381.85	758.33
382.04	816.85
382.24	784.08
382.43	802.80
382.63	744.29
382.83	828.55
383.02	830.89
383.22	842.59
383.41	765.36
383.61	788.76
383.80	830.89
384.00	802.80
384.19	802.80
384.39	819.19
384.58	835.57
384.78	880.04
384.97	870.68
385.17	819.19
385.36	814.51
385.56	858.98
385.75	819.19
385.95	835.57
386.14	856.64
386.34	866.00
386.53	868.34
386.72	877.70
386.92	833.23
387.11	791.10
387.31	922.17
387.50	882.38
387.70	819.19
387.89	812.17
388.09	912.81
388.28	880.04
388.48	919.83
388.67	936.21
388.86	912.81
389.06	931.53
389.25	938.55
389.45	994.73
389.64	1039.20
389.84	1020.47
390.03	959.62
390.22	983.02
390.42	929.19
390.61	933.87
390.81	976.00
391.00	1004.09
391.19	1015.79
391.39	999.41
391.58	1083.67
391.78	987.71
391.97	1006.43
392.16	1057.92
392.36	1078.99
392.55	1102.39
392.75	971.32
392.94	1114.10
393.13	1025.15
393.33	983.02
393.52	1102.39
393.71	1177.29
393.91	1055.58
394.10	1088.35
394.29	1107.07
394.49	1116.44
394.68	1137.50
394.88	1107.07
395.07	1121.12
395.26	1224.10
395.46	1104.73
395.65	1181.97
395.84	1116.44
396.04	1247.51
396.23	1233.46
396.42	1240.48
396.62	1261.55
396.81	1247.51
397.00	1179.63
397.19	1238.14
397.39	1212.40
397.58	1242.82
397.77	1226.44
397.97	1273.25
398.16	1280.27
398.35	1275.59
398.55	1291.98
398.74	1282.61
398.93	1341.13
399.12	1301.34
399.32	1376.24
399.51	1376.24
399.70	1385.60
399.90	1502.62
400.09	1385.60
400.28	1357.51
400.47	1437.09
400.67	1448.79
400.86	1366.87
401.05	1472.20
401.24	1526.03
401.44	1474.54
401.63	1479.22
401.82	1385.60
402.01	1413.68
402.21	1474.54
402.40	1465.18
402.59	1483.90
402.78	1474.54
402.97	1610.29
403.17	1593.90
403.36	1462.83
403.55	1610.29
403.74	1605.61
403.93	1519.01
404.13	1694.55
404.32	1614.97
404.51	1568.16
404.70	1631.35
404.89	1678.16
405.09	1750.72
405.28	1729.66
405.47	1746.04
405.66	1619.65
405.85	1710.93
406.05	1675.82
406.24	1694.55
406.43	1760.08
406.62	1720.29
406.81	1921.58
407.00	1762.42
407.20	1856.04
407.39	1757.74
407.58	1827.96
407.77	1891.15
407.96	1809.23
408.15	1912.22
408.34	1895.83
408.54	1952.01
408.73	1940.30
408.92	1893.49
409.11	1961.37
409.30	1952.01
409.49	2015.20
409.68	1914.56
409.87	2066.69
410.07	2043.29
410.26	2090.10
410.45	1980.09
410.64	2047.97
410.83	2165.00
411.02	2176.70
411.21	2193.08
411.40	2188.40
411.59	2314.79
411.78	2256.28
411.98	2080.74
412.17	2279.68
412.36	2225.85
412.55	2289.04
412.74	2434.16
412.93	2307.77
413.12	2244.57
413.31	2406.07
413.50	2406.07
413.69	2389.69
413.88	2504.37
414.07	2518.42
414.26	2480.97
414.45	2567.57
414.64	2537.14
414.83	2576.93
415.02	2658.85
415.22	2644.81
415.41	2637.78
415.60	2726.72
415.79	2766.51
415.98	2775.88
416.17	2717.36
416.36	2820.35
416.55	2846.09
416.74	2888.22
416.93	2853.11
417.12	2846.09
417.31	2771.19
417.50	2970.14
417.69	2892.90
417.88	2981.84
418.07	2979.50
418.26	2883.54
418.45	2986.52
418.64	3042.70
418.83	3054.40
419.02	3016.95
419.21	3098.87
419.39	3148.02
419.58	3124.62
419.77	3201.85
419.96	3183.13
420.15	3253.34
420.34	3234.62
420.53	3166.74
420.72	3194.83
420.91	3356.33
421.10	3318.88
421.29	3328.24
421.48	3211.22
421.67	3353.99
421.86	3342.28
422.05	3389.10
422.24	3393.78
422.43	3379.73
422.61	3272.07
422.80	3410.16
422.99	3471.01
423.18	3449.95
423.37	3461.65
423.56	3478.04
423.75	3433.57
423.94	3393.78
424.13	3246.32
424.32	3222.92
424.50	3403.14
424.69	3585.70
424.88	3454.63
425.07	3316.54
425.26	3417.18
425.45	3489.74
425.64	3323.56
425.83	3421.86
426.01	3403.14
426.20	3499.10
426.39	3508.46
426.58	3463.99
426.77	3473.36
426.96	3618.47
427.15	3480.38
427.33	3585.70
427.52	3590.38
427.71	3712.09
427.90	3485.06
428.09	3552.93
428.28	3845.50
428.46	3557.61
428.65	3644.21
428.84	3808.05
429.03	3829.12
429.22	3684.00
429.40	3740.18
429.59	3791.67
429.78	3737.84
429.97	3667.62
430.16	3819.75
430.34	3829.12
430.53	3854.86
430.72	3875.93
430.91	3822.09
431.10	3894.65
431.28	3978.91
431.47	3948.48
431.66	3904.01
431.85	3960.19
432.03	3948.48
432.22	4100.62
432.41	4093.60
432.60	4126.36
432.79	4098.28
432.97	4203.60
433.16	4180.20
433.35	4121.68
433.54	4262.12
433.72	4191.90
433.91	4184.88
434.10	4147.43
434.28	4187.22
434.47	4278.50
434.66	4285.52
434.85	4238.71
435.03	4479.79
435.22	4304.25
435.41	4437.66
435.59	4404.89
435.78	4411.91
435.97	4402.55
436.16	4407.23
436.34	4409.57
436.53	4519.57
436.72	4486.81
436.90	4432.97
437.09	4482.13
437.28	4465.74
437.46	4568.73
437.65	4386.16
437.84	4678.73
438.02	4713.84
438.21	4631.92
438.40	4578.09
438.58	4704.48
438.77	4732.56
438.96	4800.44
439.14	4849.59
439.33	4980.66
439.52	4964.28
439.70	4947.89
439.89	5100.03
440.08	5114.07
440.26	4945.55
440.45	5034.49
440.63	5191.31
440.82	5212.37
441.01	5088.32
441.19	5067.26
441.38	5247.48
441.57	5284.93
441.75	5252.16
441.94	5589.20
442.12	5490.90
442.31	5453.45
442.50	5600.90
442.68	5577.50
442.87	5397.28
443.05	5537.71
443.24	5579.84
443.43	5514.30
443.61	5638.35
443.80	5748.36
443.98	5434.72
444.17	5350.46
444.35	5647.71
444.54	5734.31
444.73	5551.75
444.91	5678.14
445.10	5619.63
445.28	5678.14
445.47	5507.28
445.65	5621.97
445.84	5748.36
446.02	5734.31
446.21	5692.18
446.39	5682.82
446.58	5781.12
446.77	5687.50
446.95	5643.03
447.14	5806.87
447.32	5956.66
447.51	5888.79
447.69	5877.09
447.88	5900.49
448.06	5799.85
448.25	5757.72
448.43	5949.64
448.62	5760.06
448.80	5818.57
448.99	5856.02
449.17	5916.87
449.36	5813.89
449.54	6286.68
449.73	5921.56
449.91	6253.91
450.10	6225.82
450.28	6214.12
450.46	6120.50
450.65	6209.44
450.83	6097.10
451.02	6157.95
451.20	6258.59
451.39	6246.89
451.57	6092.41
451.76	6354.55
451.94	6361.58
452.13	6370.94
452.31	6218.80
452.49	6244.55
452.68	6516.05
452.86	6225.82
453.05	6506.69
453.23	6420.09
453.42	6239.87
453.60	6270.30
453.78	6548.82
453.97	6263.27
454.15	6370.94
454.34	6392.00
454.52	6628.40
454.70	6548.82
454.89	6483.28
455.07	6490.31
455.26	6658.82
455.44	6693.93
455.62	6616.69
455.81	6782.87
455.99	6745.42
456.17	6789.89
456.36	6817.98
456.54	6876.49
456.73	6906.92
456.91	7005.22
457.09	6890.54
457.28	7255.66
457.46	7063.74
457.64	7138.63
457.83	7005.22
458.01	7005.22
458.19	7330.56
458.38	7286.09
458.56	7236.94
458.74	7302.47
458.93	7246.30
459.11	7314.17
459.29	7180.76
459.48	7208.85
459.66	7227.57
459.84	7379.71
460.03	7452.27
460.21	7440.56
460.39	7148.00
460.57	7466.31
460.76	7569.29
460.94	7377.37
461.12	7836.11
461.31	7585.68
461.49	7470.99
461.67	7655.89
461.85	7705.04
462.04	7620.78
462.22	8021.02
462.40	7859.52
462.59	7896.97
462.77	7791.64
462.95	7915.69
463.13	7974.21
463.32	7840.79
463.50	7941.44
463.68	7840.79
463.86	7873.56
464.05	7911.01
464.23	7826.75
464.41	7957.82
464.59	7861.86
464.78	8140.38
464.96	8060.80
465.14	7978.89
465.32	8175.49
465.50	8212.94
465.69	8273.79
465.87	8262.09
466.05	8049.10
466.23	8037.40
466.41	8116.98
466.60	8512.53
466.78	8257.41
466.96	8252.73
467.14	8142.72
467.32	8411.89
467.51	8423.59
467.69	8243.37
467.87	8390.82
468.05	8470.40
468.23	8430.61
468.41	8531.25
468.60	8365.07
468.78	8552.32
468.96	8470.40
469.14	8674.03
469.32	8676.37
469.50	8421.25
469.69	8702.11
469.87	8748.92
470.05	8809.78
470.23	8875.31
470.41	8915.10
470.59	8894.04
470.77	8933.82
470.95	9018.08
471.14	9085.96
471.32	8938.51
471.50	9301.29
471.68	9137.45
471.86	9146.81
472.04	9254.48
472.22	9465.13
472.40	9125.75
472.58	9280.22
472.77	9362.14
472.95	9579.81
473.13	9647.69
473.31	9472.15
473.49	9521.30
473.67	9453.42
473.85	9708.54
474.03	9860.68
474.21	9898.13
474.39	9881.74
474.57	9799.82
474.75	9729.61
474.93	9996.43
475.12	10085.37
475.30	10083.03
475.48	9926.21
475.66	10260.91
475.84	10193.03
476.02	10265.59
476.20	10195.37
476.38	10478.58
476.56	10590.92
476.74	10799.23
476.92	10686.89
477.10	10710.29
477.28	10738.38
477.46	10565.18
477.64	10869.45
477.82	10918.60
478.00	11522.46
478.18	11227.55
478.36	11269.68
478.54	11576.29
478.72	11302.45
478.90	11403.09
479.08	11669.91
479.26	12002.27
479.44	11957.80
479.62	11988.22
479.80	11971.84
479.98	11969.50
480.16	12287.81
480.34	12070.14
480.52	12400.16
480.70	12273.77
480.88	12425.90
481.06	12463.35
481.24	12533.57
481.41	12709.11
481.59	12816.77
481.77	13025.08
481.95	13048.49
482.13	13118.70
482.31	13172.54
482.49	13453.40
482.67	13280.20
482.85	13708.52
483.03	13722.56
483.21	13799.80
483.39	13947.25
483.57	13549.36
483.74	14134.50
483.92	14066.62
484.10	14146.20
484.28	14469.19
484.46	14703.25
484.64	14960.70
484.82	14583.88
485.00	14766.44
485.18	15037.94
485.35	15089.43
485.53	15398.38
485.71	15234.55
485.89	15562.22
486.07	15695.63
486.25	15674.57
486.43	15557.54
486.61	15901.60
486.78	16016.29
486.96	16105.23
487.14	16524.18
487.32	16180.12
487.50	16676.32
487.68	16610.78
487.85	16779.30
488.03	16922.07
488.21	17163.15
488.39	17142.08
488.57	17078.89
488.75	17273.15
488.92	17614.87
489.10	18026.81
489.28	17671.04
489.46	17851.27
489.64	17862.97
489.81	18225.75
489.99	18197.67
490.17	18380.23
490.35	18750.03
490.53	18824.93
490.70	18841.31
490.88	18593.22
491.06	18925.57
491.24	19042.60
491.41	19157.28
491.59	19138.56
491.77	19173.67
491.95	19257.93
492.13	19709.65
492.30	19676.88
492.48	20067.75
492.66	20119.24
492.84	20247.97
493.01	20329.89
493.19	20315.85
493.37	20421.17
493.54	20690.34
493.72	20812.04
493.90	20748.85
494.08	20699.70
494.25	21032.05
494.43	21069.50
494.61	21509.52
494.79	21434.63
494.96	21621.87
495.14	22066.57
495.32	21755.28
495.49	21853.58
495.67	21921.46
495.85	22352.12
496.02	22464.46
496.20	22293.60
496.38	22731.28
496.55	22640.00
496.73	22979.38
496.91	22829.59
497.09	23047.26
497.26	22958.31
497.44	23005.13
497.62	23241.52
497.79	23721.33
497.97	23300.03
498.14	23859.42
498.32	23873.46
498.50	24203.48
498.67	24002.19
498.85	24133.26
499.03	24173.05
499.20	24257.31
499.38	24238.59
499.56	24496.05
499.73	24379.02
499.91	24596.69
500.08	25113.95
500.26	24680.95
500.44	24577.97
500.61	25160.76
500.79	25139.69
500.97	25223.95
501.14	25706.10
501.32	25245.02
501.49	25984.63
501.67	25773.98
501.84	25673.34
502.02	25781.00
502.20	25806.75
502.37	25532.90
502.55	25956.54
502.72	26349.75
502.90	26003.35
503.07	26024.42
503.25	25879.30
503.43	26171.87
503.60	26359.11
503.78	26712.53
503.95	26632.96
504.13	26745.30
504.30	26829.56
504.48	26817.86
504.65	27232.13
504.83	27105.74
505.01	27405.33
505.18	27323.41
505.36	27646.41
505.53	27508.32
505.71	27569.17
505.88	27735.35
506.06	27763.43
506.23	27772.80
506.41	27648.75
506.58	28079.41
506.76	27929.61
506.93	28056.00
507.11	28362.61
507.28	28364.95
507.46	28276.01
507.63	28423.47
507.81	28814.34
507.98	28219.84
508.16	28407.08
508.33	28844.76
508.50	29029.66
508.68	29153.71
508.85	29399.47
509.03	29003.92
509.20	29137.33
509.38	29282.44
509.55	29282.44
509.73	29394.79
509.90	29947.15
510.08	29776.30
510.25	29259.04
510.42	30202.27
510.60	30101.63
510.77	30281.85
510.95	30345.05
511.12	30323.98
511.30	30113.33
511.47	30398.88
511.64	30665.70
511.82	30745.28
511.99	30412.92
512.17	30492.50
512.34	30738.26
512.51	31136.15
512.69	31051.89
512.86	30993.37
513.04	31391.26
513.21	31388.92
513.38	31337.43
513.56	31524.68
513.73	31014.44
513.90	31686.17
514.08	31335.09
514.25	31735.32
514.43	31615.96
514.60	31814.90
514.77	31765.75
514.95	32025.55
515.12	31981.08
515.29	31941.29
515.47	32423.44
515.64	32315.78
515.81	32116.83
515.99	32346.20
516.16	33200.50
516.33	32428.12
516.51	32545.15
516.68	32540.47
516.85	32772.18
517.03	33050.70
517.20	32629.41
517.37	32971.13
517.54	32968.79
517.72	33010.92
517.89	33015.60
518.06	33366.68
518.24	33179.43
518.41	33544.56
518.58	33675.63
518.75	33383.06
518.93	33766.91
519.10	33411.15
519.27	33893.30
519.45	33780.95
519.62	34080.54
519.79	34199.91
519.96	34279.49
520.14	34288.85
520.31	33773.93
520.48	33935.43
520.65	34387.15
520.83	34553.33
521.00	34651.63
521.17	34302.89
521.34	34534.60
521.52	35014.41
521.69	35002.71
521.86	35026.12
522.03	35005.05
522.20	35012.07
522.38	35339.75
522.55	35379.54
522.72	35243.79
522.89	35201.66
523.07	35805.52
523.24	35536.35
523.41	35473.16
523.58	35316.34
523.75	35995.10
523.92	35676.79
524.10	36163.62
524.27	35971.69
524.44	35894.46
524.61	35917.86
524.78	35903.82
524.96	36486.61
525.13	36467.89
525.30	36128.51
525.47	36748.75
525.64	36135.53
525.81	36795.56
525.98	36779.18
526.16	36687.90
526.33	36673.85
526.50	36659.81
526.67	36746.41
526.84	36811.95
527.01	36987.49
527.18	37111.53
527.36	37361.97
527.53	37235.58
527.70	37368.99
527.87	37467.30
528.04	37312.82
528.21	37170.05
528.38	37280.05
528.55	37928.38
528.72	37387.72
528.89	37291.76
529.07	37287.07
529.24	37256.65
529.41	37799.65
529.58	37612.41
529.75	38029.02
529.92	37654.54
530.09	37998.60
530.26	38043.07
530.43	38153.07
530.60	38171.80
530.77	37956.47
530.94	37972.85
531.11	38239.67
531.28	38548.62
531.46	38087.54
531.63	39012.05
531.80	38328.61
531.97	38565.01
532.14	38270.10
532.31	38417.55
532.48	38960.56
532.65	39051.84
532.82	38829.49
532.99	38778.00
533.16	38993.32
533.33	39648.68
533.50	39264.83
533.67	38604.80
533.84	39225.04
534.01	39510.58
534.18	39267.17
534.35	39826.56
534.52	39438.03
534.69	39683.78
534.86	39887.41
535.03	39643.99
535.20	39536.33
535.37	39770.38
535.54	39847.62
535.71	39447.39
535.88	39655.70
536.05	39810.17
536.22	40100.40
536.38	40245.51
536.55	40105.08
536.72	39990.39
536.89	39512.92
537.06	40002.10
537.23	40280.62
537.40	39882.73
537.57	39854.64
537.74	40233.81
537.91	40409.35
538.08	40514.67
538.25	40261.90
538.42	40250.19
538.59	40484.25
538.75	40727.66
538.92	40627.02
539.09	41170.02
539.26	40989.80
539.43	40893.84
539.60	41113.85
539.77	41233.22
539.94	41186.41
540.11	41074.06
540.28	40940.65
540.44	40914.90
540.61	41214.49
540.78	41071.72
540.95	41214.49
541.12	41401.74
541.29	40992.14
541.46	41455.57
541.62	41198.11
541.79	42029.00
541.96	41331.52
542.13	41242.58
542.30	41467.27
542.47	41673.24
542.63	41584.30
542.80	42178.79
542.97	41823.03
543.14	42146.03
543.31	42117.94
543.48	42155.39
543.64	42188.16
543.81	42438.59
543.98	42258.37
544.15	42684.35
544.32	42452.64
544.48	42871.59
544.65	42609.45
544.82	42602.43
544.99	42490.09
545.16	42656.26
545.32	42499.45
545.49	42780.31
545.66	42792.01
545.83	42792.01
546.00	43166.50
546.16	42672.65
546.33	43133.73
546.50	42351.99
546.67	43232.04
546.83	42518.17
547.00	42911.38
547.17	42801.38
547.34	43370.13
547.50	43550.35
547.67	43365.45
547.84	43374.81
548.00	43524.60
548.17	43660.35
548.34	43526.94
548.51	43330.34
548.67	43409.92
548.84	43849.94
549.01	43618.22
549.18	43966.96
549.34	43880.36
549.51	43826.53
549.68	43718.87
549.84	43508.22
550.01	44020.80
550.18	43641.63
550.34	43941.22
550.51	44502.95
550.68	44320.38
550.84	44261.87
551.01	43978.67
551.18	43990.37
551.34	44184.63
551.51	44018.46
551.68	44397.62
551.84	44023.14
552.01	44046.54
552.18	44320.38
552.34	43786.74
552.51	44268.89
552.68	44285.28
552.84	44718.28
553.01	44343.79
553.18	44776.79
553.34	44430.39
553.51	44481.88
553.67	44596.57
553.84	44519.33
554.01	44940.63
554.17	44966.37
554.34	45364.26
554.51	44535.71
554.67	44949.99
554.84	44872.75
555.00	44404.64
555.17	44898.50
555.33	44715.93
555.50	44964.03
555.67	45296.39
555.83	44975.73
556.00	44947.65
556.16	45741.09
556.33	45509.38
556.50	44924.24
556.66	45303.41
556.83	45490.65
556.99	45221.49
557.16	45476.61
557.32	45446.18
557.49	45471.93
557.65	45216.81
557.82	45221.49
557.98	45504.70
558.15	45673.21
558.32	45553.85
558.48	44992.12
558.65	45783.22
558.81	45563.21
558.98	45497.67
559.14	45289.37
559.31	45284.68
559.47	46014.93
559.64	45509.38
559.80	45490.65
559.97	45965.78
560.13	45888.54
560.30	45675.55
560.46	45507.04
560.63	45846.41
560.79	46092.17
560.96	45837.05
561.12	46286.43
561.29	45806.62
561.45	45968.12
561.61	45776.20
561.78	45886.20
561.94	45928.33
562.11	45951.74
562.27	46176.43
562.44	45958.76
562.60	46110.89
562.77	46274.73
562.93	46429.21
563.10	46291.12
563.26	46340.27
563.42	46583.68
563.59	45977.48
563.75	46398.78
563.92	46263.03
564.08	45839.39
564.24	46567.30
564.41	46670.28
564.57	46284.09
564.74	46424.53
564.90	46316.86
565.07	46295.80
565.23	46136.64
565.39	46195.15
565.56	46543.89
565.72	46363.67
565.88	46356.65
566.05	46623.47
566.21	46525.17
566.38	46394.10
566.54	46815.40
566.70	46815.40
566.87	46330.90
567.03	46447.93
567.19	46588.36
567.36	46782.63
567.52	46351.97
567.68	46927.74
567.85	46752.20
568.01	47377.12
568.17	46822.42
568.34	47093.92
568.50	46897.31
568.66	46660.92
568.83	47021.36
568.99	46562.62
569.15	46766.24
569.32	46541.55
569.48	47227.33
569.64	47213.29
569.81	46452.61
569.97	46761.56
570.13	47388.83
570.30	46941.78
570.46	46534.53
570.62	46813.05
570.78	46691.35
570.95	46878.59
571.11	46946.47
571.27	46967.53
571.43	46703.05
571.60	46707.73
571.76	46866.89
571.92	47182.86
572.09	46761.56
572.25	46937.10
572.41	46979.23
572.57	47187.54
572.74	47126.69
572.90	47044.77
573.06	46923.06
573.22	46958.17
573.38	47327.97
573.55	47555.00
573.71	47552.66
573.87	47452.02
574.03	47161.79
574.20	47409.89
574.36	47381.80
574.52	47423.93
574.68	47299.89
574.84	47529.26
575.01	47201.58
575.17	47297.55
575.33	46962.85
575.49	47531.60
575.65	47407.55
575.82	47215.63
575.98	47222.65
576.14	47524.58
576.30	47236.69
576.46	47496.49
576.62	46710.07
576.79	47524.58
576.95	46930.08
577.11	47332.65
577.27	47292.86
577.43	47454.36
577.59	47210.95
577.75	47339.68
577.92	47339.68
578.08	47416.91
578.24	47133.71
578.40	47559.69
578.56	47494.15
578.72	47215.63
578.88	47608.84
579.04	47311.59
579.21	47304.57
579.37	47573.73
579.53	47332.65
579.69	47175.84
579.85	47363.08
580.01	47224.99
580.17	47288.18
580.33	47236.69
580.49	47318.61
580.65	47812.46
580.82	47360.74
580.98	47129.03
581.14	47210.95
581.30	47648.63
581.46	47409.89
581.62	47466.06
581.78	47704.80
581.94	47295.21
582.10	47550.32
582.26	47545.64
582.42	47767.99
582.58	47538.62
582.74	47934.17
582.90	47412.23
583.06	47470.75
583.22	47428.62
583.38	47814.80
583.54	47758.63
583.70	47826.51
583.86	47791.40
584.02	47995.03
584.18	48060.56
584.34	47569.05
584.50	47863.96
584.66	47742.25
584.82	47543.30
584.98	47716.50
585.14	47732.89
585.30	47885.02
585.46	48048.86
585.62	47503.51
585.78	48037.16
585.94	47519.90
586.10	47817.14
586.26	47597.13
586.42	47842.89
586.58	47599.47
586.74	47547.98
586.90	47143.07
587.06	47796.08
587.22	47494.15
587.38	47856.93
587.54	48158.86
587.70	47990.34
587.86	47730.54
588.02	47709.48
588.18	47552.66
588.34	47840.55
588.49	47966.94
588.65	47653.31
588.81	47723.52
588.97	47887.36
589.13	47875.66
589.29	47749.27
589.45	48093.33
589.61	47852.25
589.77	47931.83
589.93	48093.33
590.08	47845.23
590.24	48100.35
590.40	48556.75
590.56	48598.88
590.72	48509.94
590.88	48055.88
591.04	47908.43
591.20	48556.75
591.35	48495.90
591.51	48268.87
591.67	48217.38
591.83	48582.50
591.99	48116.73
592.15	47861.61
592.31	48175.25
592.46	48006.73
592.62	47842.89
592.78	47943.53
592.94	48556.75
593.10	48376.53
593.26	48484.20
593.41	48334.40
593.57	48781.45
593.73	48381.21
593.89	48954.64
594.05	48418.66
594.20	48399.94
594.36	48552.07
594.52	48200.99
594.68	48481.86
594.84	48477.18
594.99	48612.93
595.15	48287.59
595.31	48505.26
595.47	48299.30
595.62	48596.54
595.78	48114.39
595.94	48135.46
596.10	48299.30
596.25	49022.52
596.41	48760.38
596.57	48336.74
596.73	48505.26
596.88	48177.59
597.04	48542.71
597.20	48186.95
597.36	48626.97
597.51	48994.43
597.67	48215.04
597.83	48722.93
597.99	48528.67
598.14	48137.80
598.30	48453.77
598.46	48273.55
598.61	48608.25
598.77	48069.92
598.93	48322.70
599.09	48343.77
599.24	48942.94
599.40	48802.51
599.56	48807.19
599.71	48633.99
599.87	49074.01
600.03	48582.50
600.18	48488.88
600.34	48144.82
600.50	48891.45
600.65	48589.52
600.81	49027.20
600.97	48535.69
601.12	48591.86
601.28	48744.00
601.44	48458.45
601.59	48748.68
601.75	48643.35
601.91	48683.14
602.06	48367.17
602.22	48453.77
602.37	48484.20
602.53	48563.78
602.69	48713.57
602.84	48694.85
603.00	48582.50
603.16	48748.68
603.31	48659.74
603.47	48416.32
603.62	48931.24
603.78	48854.00
603.94	48561.44
604.09	48626.97
604.25	48507.60
604.40	48296.95
604.56	48605.91
604.71	48498.24
604.87	48643.35
605.03	48116.73
605.18	48692.50
605.34	48814.21
605.49	48488.88
605.65	48355.47
605.80	48435.05
605.96	48818.89
606.12	48762.72
606.27	48334.40
606.43	48196.31
606.58	48889.11
606.74	48582.50
606.89	48690.16
607.05	49038.90
607.20	48561.44
607.36	48306.32
607.51	48624.63
607.67	48271.21
607.82	48423.34
607.98	48442.07
608.13	48210.35
608.29	48633.99
608.44	48432.71
608.60	48470.15
608.75	48355.47
608.91	48622.29
609.06	48294.61
609.22	48463.13
609.37	48100.35
609.53	48247.80
609.68	48643.35
609.84	48217.38
609.99	47686.07
610.15	48673.78
610.30	48413.98
610.46	48299.30
610.61	48491.22
610.76	48446.75
610.92	48320.36
611.07	48224.40
611.23	48257.17
611.38	48147.16
611.54	48292.27
611.69	48348.45
611.84	48488.88
612.00	48179.93
612.15	47760.97
612.31	48238.44
612.46	48011.41
612.62	48275.89
612.77	47732.89
612.92	48559.09
613.08	48205.67
613.23	48437.39
613.39	48154.18
613.54	47725.86
613.69	48149.50
613.85	47681.39
614.00	47789.06
614.15	48067.58
614.31	47517.56
614.46	47854.59
614.62	47997.37
614.77	47669.69
614.92	47885.02
615.08	47901.40
615.23	47934.17
615.38	48250.14
615.54	47997.37
615.69	47870.98
615.84	47976.30
616.00	47576.07
616.15	47859.27
616.30	47770.33
616.46	47555.00
616.61	47840.55
616.76	47908.43
616.92	47793.74
617.07	47854.59
617.22	47873.32
617.37	46923.06
617.53	47590.11
617.68	47604.16
617.83	47391.17
617.99	47863.96
618.14	47676.71
618.29	47442.66
618.45	47583.09
618.60	47213.29
618.75	47203.92
618.90	47320.95
619.06	47386.49
619.21	47124.35
619.36	47555.00
619.51	47250.74
619.67	47159.45
619.82	47519.90
619.97	47709.48
620.12	47402.87
620.28	47377.12
620.43	47627.56
620.58	47353.72
620.73	47370.10
620.89	47517.56
621.04	47648.63
621.19	47278.82
621.34	47248.39
621.49	46724.11
621.65	47257.76
621.80	47880.34
621.95	47271.80
622.10	47297.55
622.25	47047.11
622.41	46721.77
622.56	46969.87
622.71	47161.79
622.86	47306.91
623.01	47320.95
623.16	47222.65
623.32	46799.01
623.47	47044.77
623.62	46944.12
623.77	46955.83
623.92	47182.86
624.07	47285.84
624.23	47119.66
624.38	46894.97
624.53	46883.27
624.68	46976.89
624.83	46768.58
624.98	46763.90
625.13	46398.78
625.29	46471.34
625.44	46564.96
625.59	46770.93
625.74	46768.58
625.89	46342.61
626.04	46300.48
626.19	46440.91
626.34	46358.99
626.49	46176.43
626.65	46014.93
626.80	46302.82
626.95	46024.29
627.10	46209.20
627.25	46302.82
627.40	46609.43
627.55	46342.61
627.70	46307.50
627.85	46153.02
628.00	46588.36
628.15	46171.75
628.30	45654.49
628.45	45605.34
628.60	45670.87
628.76	45736.41
628.91	45991.53
629.06	45677.90
629.21	45771.52
629.36	45883.86
629.51	45963.44
629.66	46251.33
629.81	45757.47
629.96	45940.04
630.11	45588.95
630.26	45717.68
630.41	45703.64
630.56	45598.32
630.71	46115.58
630.86	45961.10
631.01	45324.47
631.16	45511.72
631.31	45734.07
631.46	46017.27
631.61	46059.40
631.76	45790.24
631.91	45879.18
632.06	45993.87
632.21	45993.87
632.36	46092.17
632.51	45399.37
632.66	45738.75
632.81	45429.80
632.96	45595.98
633.10	45572.57
633.25	45329.16
633.40	45305.75
633.55	45652.15
633.70	44877.43
633.85	44835.30
634.00	45195.74
634.15	44800.19
634.30	45464.91
634.45	45116.17
634.60	45233.19
634.75	44861.05
634.90	45160.64
635.05	45212.13
635.19	44814.24
635.34	45460.23
635.49	44935.95
635.64	44744.02
635.79	45347.88
635.94	45144.25
636.09	45551.51
636.24	45008.50
636.39	45413.41
636.53	44748.70
636.68	44865.73
636.83	44575.50
636.98	44814.24
637.13	44367.20
637.28	44371.88
637.43	44638.70
637.57	44945.31
637.72	44238.47
637.87	44598.91
638.02	44734.66
638.17	44659.76
638.32	44568.48
638.46	44509.97
638.61	44554.44
638.76	43985.69
638.91	44348.47
639.06	44325.07
639.20	43943.56
639.35	44025.48
639.50	43737.59
639.65	44357.83
639.80	44779.13
639.94	44416.35
640.09	44292.30
640.24	44397.62
640.39	44013.77
640.54	43721.21
640.68	44133.14
640.83	44341.45
640.98	43714.19
641.13	43735.25
641.27	44292.30
641.42	44093.35
641.57	44261.87
641.72	44083.99
641.86	43751.63
642.01	43761.00
642.16	43990.37
642.31	43524.60
642.45	43938.88
642.60	43075.22
642.75	43339.70
642.90	43660.35
643.04	43695.46
643.19	43777.38
643.34	43510.56
643.48	43325.66
643.63	43730.57
643.78	43828.87
643.93	43934.20
644.07	43861.64
644.22	43613.54
644.37	43611.20
644.51	43704.82
644.66	43924.83
644.81	43440.34
644.95	43704.82
645.10	43782.06
645.25	42920.74
645.39	43133.73
645.54	43107.99
645.69	43342.04
645.83	43154.80
645.98	43178.20
646.13	43318.64
646.27	43320.98
646.42	43016.71
646.57	43019.05
646.71	43281.19
646.86	43768.02
647.00	43384.17
647.15	42866.91
647.30	43365.45
647.44	43161.82
647.59	42831.80
647.74	43091.60
647.88	43051.81
648.03	42923.08
648.17	43112.67
648.32	42880.95
648.47	43306.93
648.61	42288.80
648.76	43042.45
648.90	42766.27
649.05	42567.32
649.20	42866.91
649.34	43358.42
649.49	42768.61
649.63	43012.02
649.78	42557.96
649.92	42747.54
650.07	43384.17
650.21	42792.01
650.36	42852.87
650.51	42534.56
650.65	43168.84
650.80	42525.19
650.94	42672.65
651.09	42014.96
651.23	42195.18
651.38	42129.64
651.52	41792.61
651.67	42340.29
651.81	42637.54
651.96	42536.90
652.10	41722.39
652.25	42124.96
652.39	42068.79
652.54	41820.69
652.68	41982.19
652.83	41930.70
652.97	42234.97
653.12	42436.25
653.26	41979.85
653.41	42122.62
653.55	41574.94
653.70	42270.08
653.84	42190.50
653.99	42405.83
654.13	42349.65
654.27	42080.49
654.42	41993.89
654.56	42057.09
654.71	42270.08
654.85	41652.17
655.00	41989.21
655.14	41825.37
655.29	42038.36
655.43	42197.52
655.57	41565.57
655.72	41383.01
655.86	41340.88
656.01	41408.76
656.15	41481.31
656.30	41268.33
656.44	41827.71
656.58	41312.80
656.73	41233.22
656.87	41146.62
657.01	41312.80
657.16	41263.64
657.30	41221.52
657.45	41186.41
657.59	41661.54
657.73	40708.94
657.88	41326.84
658.02	41233.22
658.16	41727.07
658.31	40933.63
658.45	41137.26
658.60	41067.04
658.74	41303.43
658.88	41343.22
659.03	40730.00
659.17	41060.02
659.31	40718.30
659.46	40629.36
659.60	40856.39
659.74	40875.12
659.89	40748.73
660.03	40444.46
660.17	40156.57
660.32	40926.61
660.46	40570.85
660.60	40254.87
660.74	40446.80
660.89	40760.43
661.03	39959.97
661.17	39924.86
661.32	40030.18
661.46	40194.02
661.60	39826.56
661.74	39828.90
661.89	39702.51
662.03	40095.72
662.17	39454.41
662.31	39487.18
662.46	39566.76
662.60	39913.16
662.74	39297.59
662.88	39098.65
663.03	39047.16
663.17	39473.13
663.31	39145.46
663.45	39777.40
663.60	39435.69
663.74	39229.72
663.88	39510.58
664.02	38906.73
664.17	39285.89
664.31	39054.18
664.45	38705.44
664.59	39051.84
664.73	38934.81
664.88	38976.94
665.02	38618.84
665.16	38728.84
665.30	38506.49
665.44	38733.53
665.59	38305.21
665.73	38007.96
665.87	38143.71
666.01	38272.44
666.15	38345.00
666.29	38274.78
666.44	38494.79
666.58	38157.75
666.72	37968.17
666.86	38249.03
667.00	38012.64
667.14	37963.49
667.28	37921.36
667.43	38019.66
667.57	38099.24
667.71	38345.00
667.85	37879.23
667.99	38045.41
668.13	37600.71
668.27	37729.44
668.41	37443.89
668.56	37006.21
668.70	37069.40
668.84	36914.93
668.98	37191.11
669.12	36905.57
669.26	37366.65
669.40	37156.00
669.54	37600.71
669.68	37146.64
669.82	37280.05
669.96	36851.73
670.10	36402.35
670.25	36236.17
670.39	36400.01
670.53	36360.22
670.67	36493.63
670.81	36636.41
670.95	36161.28
671.09	36297.03
671.23	36212.77
671.37	36416.40
671.51	36311.07
671.65	36051.27
671.79	35828.92
671.93	35644.02
672.07	36102.76
672.21	35651.04
672.35	35744.66
672.49	35559.76
672.63	35435.71
672.77	35276.55
672.91	35903.82
673.05	35344.43
673.19	35012.07
673.33	35297.62
673.47	34941.86
673.61	34906.75
673.75	35021.44
673.89	35110.38
674.03	34658.65
674.17	34312.25
674.31	34511.20
674.45	34103.95
674.59	34628.23
674.73	34176.50
674.87	34459.71
675.01	33715.42
675.15	33855.85
675.29	33628.82
675.43	33551.58
675.56	34546.31
675.70	33919.04
675.84	33525.83
675.98	32624.73
676.12	33385.40
676.26	33710.74
676.40	33472.00
676.54	33055.39
676.68	33109.22
676.82	32622.39
676.96	32414.08
677.10	33261.35
677.23	32723.03
677.37	32744.09
677.51	32299.39
677.65	32250.24
677.79	32369.61
677.93	32175.34
678.07	32222.16
678.21	31840.65
678.34	32180.03
678.48	31791.50
678.62	31967.04
678.76	31365.52
678.90	31381.90
679.04	31164.23
679.18	31796.18
679.31	31475.52
679.45	31042.53
679.59	31091.68
679.73	31248.49
679.87	30742.94
680.00	30476.12
680.14	30806.13
680.28	30923.16
680.42	30625.91
680.56	30998.06
680.70	30471.43
680.83	30328.66
680.97	30181.21
681.11	30195.25
681.25	29553.94
681.39	29804.38
681.52	29692.04
681.66	29504.79
681.80	29172.44
681.94	29209.89
682.07	29109.24
682.21	28865.83
682.35	28704.33
682.49	29111.58
682.62	28453.89
682.76	29046.05
682.90	29076.48
683.04	28842.42
683.17	28648.16
683.31	28292.40
683.45	28371.97
683.59	28018.55
683.72	28048.98
683.86	28116.86
684.00	27620.66
684.13	27669.81
684.27	27718.96
684.41	27484.91
684.55	27983.44
684.68	27447.46
684.82	27028.51
684.96	27428.74
685.09	27117.45
685.23	26838.92
685.37	27470.87
685.50	27566.83
685.64	26855.31
685.78	26773.39
685.91	26457.42
686.05	26127.40
686.19	25947.18
686.32	26579.12
686.46	25783.34
686.60	26204.64
686.73	26038.46
686.87	26188.25
687.01	25839.51
687.14	26061.87
687.28	25771.64
687.42	25577.37
687.55	25476.73
687.69	25565.67
687.82	25095.22
687.96	25355.02
688.10	25385.45
688.23	25205.23
688.37	25383.11
688.50	25287.15
688.64	25099.90
688.78	24776.91
688.91	24517.11
689.05	24596.69
689.18	24484.34
689.32	23910.91
689.46	24133.26
689.59	24196.46
689.73	24379.02
689.86	24112.20
690.00	24184.76
690.13	23974.11
690.27	23988.15
690.41	23655.79
690.54	23255.56
690.68	23075.34
690.81	23007.47
690.95	23168.96
691.08	22955.97
691.22	22651.70
691.35	22836.61
691.49	22621.28
691.62	22801.50
691.76	22408.29
691.89	21954.22
692.03	22349.78
692.16	22162.53
692.30	22174.24
692.43	21860.60
692.57	21715.49
692.70	21975.29
692.84	21958.91
692.97	21385.47
693.11	21645.27
693.24	21605.49
693.38	21343.35
693.51	21411.22
693.65	20964.18
693.78	21151.42
693.92	20961.84
694.05	20842.47
694.19	20994.61
694.32	20805.02
694.45	21020.35
694.59	20812.04
694.72	20636.50
694.86	20365.00
694.99	20505.43
695.13	19932.00
695.26	19810.29
695.39	19896.89
695.53	19812.63
695.66	19880.51
695.80	19833.70
695.93	19545.81
696.07	19634.75
696.20	19466.24
696.33	19253.25
696.47	19300.06
696.60	19056.64
696.73	19159.63
696.87	19129.20
697.00	19187.71
697.14	18824.93
697.27	18565.13
697.40	18761.73
697.54	18593.22
697.67	18771.10
697.80	18792.16
697.94	18368.52
698.07	18363.84
698.21	18518.32
698.34	18359.16
698.47	18207.03
698.61	17975.31
698.74	17834.88
698.87	17865.31
699.01	17535.29
699.14	17563.38
699.27	17757.64
699.40	17572.74
699.54	17420.61
699.67	17474.44
699.80	17523.59
699.94	17221.66
700.07	17174.85
700.20	17018.04
700.34	16931.44
700.47	17057.82
700.60	17106.98
700.73	16652.91
700.87	16723.13
701.00	16503.12
701.13	16369.71
701.26	16350.98
701.40	16395.45
701.53	16343.96
701.66	16233.96
701.79	16079.48
701.93	16105.23
702.06	15435.83
702.19	15712.02
702.32	15812.66
702.46	15712.02
702.59	15943.73
702.72	15686.27
702.85	15779.89
702.99	15620.74
703.12	15250.93
703.25	15307.10
703.38	15199.44
703.51	15073.05
703.65	14895.17
703.78	14607.28
703.91	14682.18
704.04	14633.03
704.17	14576.86
704.31	14504.30
704.44	14424.72
704.57	14546.43
704.70	14370.89
704.83	14054.92
704.96	14260.88
705.10	13987.04
705.23	14307.69
>>>>>End Processed Spectral Data<<<<<
