SpectraSuite Data File
++++++++++++++++++++++++++++++++++++
Date: Fri Oct 25 10:46:57 EDT 2013
User: price-jones
Dark Spectrum Present: No
Reference Spectrum Present: No
Number of Sampled Component Spectra: 1
Spectrometers: USB2+H05261
Integration Time (usec): 100000 (USB2+H05261)
Spectra Averaged: 1 (USB2+H05261)
Boxcar Smoothing: 0 (USB2+H05261)
Correct for Electrical Dark: No (USB2+H05261)
Strobe/Lamp Enabled: No (USB2+H05261)
Correct for Detector Non-linearity: No (USB2+H05261)
Correct for Stray Light: No (USB2+H05261)
Number of Pixels in Processed Spectrum: 2048
>>>>>Begin Processed Spectral Data<<<<<
365.73	142.77
365.92	142.77
366.12	142.77
366.32	0.00
366.52	105.32
366.72	35.11
366.91	46.81
367.11	37.45
367.31	0.00
367.51	42.13
367.70	14.04
367.90	0.00
368.10	84.26
368.30	39.79
368.49	77.24
368.69	56.17
368.89	32.77
369.09	56.17
369.28	105.32
369.48	145.11
369.68	107.66
369.87	56.17
370.07	60.85
370.27	107.66
370.47	217.67
370.66	395.55
370.86	418.96
371.06	444.70
371.25	531.30
371.45	503.22
371.65	461.09
371.84	468.11
372.04	491.51
372.24	561.73
372.44	421.30
372.63	491.51
372.83	552.37
373.03	468.11
373.22	531.30
373.42	557.05
373.62	519.60
373.81	538.32
374.01	540.66
374.21	521.94
374.40	543.00
374.60	636.63
374.79	526.62
374.99	629.60
375.19	636.63
375.38	620.24
375.58	543.00
375.78	645.99
375.97	620.24
376.17	671.73
376.37	587.47
376.56	589.82
376.76	587.47
376.95	596.84
377.15	685.78
377.35	671.73
377.54	709.18
377.74	657.69
377.93	645.99
378.13	627.26
378.33	699.82
378.52	727.91
378.72	678.76
378.91	657.69
379.11	709.18
379.31	624.92
379.50	617.90
379.70	711.52
379.89	699.82
380.09	653.01
380.28	770.04
380.48	702.16
380.68	716.20
380.87	751.31
381.07	695.14
381.26	727.91
381.46	772.38
381.65	655.35
381.85	683.44
382.04	713.86
382.24	704.50
382.43	674.07
382.63	741.95
382.83	667.05
383.02	730.25
383.22	725.57
383.41	765.36
383.61	748.97
383.80	699.82
384.00	805.14
384.19	807.48
384.39	840.25
384.58	805.14
384.78	816.85
384.97	755.99
385.17	805.14
385.36	835.57
385.56	877.70
385.75	737.27
385.95	805.14
386.14	791.10
386.34	847.27
386.53	826.21
386.72	844.93
386.92	875.36
387.11	786.42
387.31	844.93
387.50	933.87
387.70	868.34
387.89	896.43
388.09	903.45
388.28	896.43
388.48	917.49
388.67	856.64
388.86	905.79
389.06	978.34
389.25	884.72
389.45	938.55
389.64	978.34
389.84	938.55
390.03	994.73
390.22	957.28
390.42	1027.50
390.61	992.39
390.81	926.85
391.00	1020.47
391.19	1032.18
391.39	976.00
391.58	1006.43
391.78	992.39
391.97	1107.07
392.16	1043.88
392.36	1069.62
392.55	1064.94
392.75	1004.09
392.94	896.43
393.13	983.02
393.33	877.70
393.52	987.71
393.71	1177.29
393.91	1069.62
394.10	1071.97
394.29	1102.39
394.49	1172.61
394.68	1153.88
394.88	1247.51
395.07	1254.53
395.26	1247.51
395.46	1191.33
395.65	1287.29
395.84	1163.25
396.04	1291.98
396.23	1191.33
396.42	1231.12
396.62	1181.97
396.81	1233.46
397.00	1263.89
397.19	1275.59
397.39	1245.16
397.58	1313.04
397.77	1383.26
397.97	1444.11
398.16	1371.55
398.35	1409.00
398.55	1376.24
398.74	1399.64
398.93	1460.49
399.12	1420.71
399.32	1476.88
399.51	1458.15
399.70	1474.54
399.90	1500.28
400.09	1554.12
400.28	1589.22
400.47	1544.75
400.67	1687.53
400.86	1558.80
401.05	1614.97
401.24	1645.40
401.44	1680.50
401.63	1722.63
401.82	1673.48
402.01	1612.63
402.21	1652.42
402.40	1668.80
402.59	1675.82
402.78	1696.89
402.97	1654.76
403.17	1724.97
403.36	1715.61
403.55	1659.44
403.74	1849.02
403.93	1827.96
404.13	1778.81
404.32	1727.32
404.51	1795.19
404.70	1846.68
404.89	1788.17
405.09	1874.77
405.28	1994.14
405.47	1827.96
405.66	1923.92
405.85	1893.49
406.05	1877.11
406.24	2050.31
406.43	2005.84
406.62	2024.56
406.81	2064.35
407.00	1991.80
407.20	2015.20
407.39	2003.50
407.58	2165.00
407.77	2176.70
407.96	2127.55
408.15	2118.18
408.34	2087.76
408.54	2256.28
408.73	2160.31
408.92	2167.34
409.11	2134.57
409.30	2197.76
409.49	2195.42
409.68	2176.70
409.87	2202.44
410.07	2282.02
410.26	2239.89
410.45	2326.49
410.64	2310.11
410.83	2300.75
411.02	2476.29
411.21	2523.10
411.40	2476.29
411.59	2420.11
411.78	2532.46
411.98	2417.77
412.17	2567.57
412.36	2537.14
412.55	2548.84
412.74	2635.44
412.93	2663.53
413.12	2712.68
413.31	2668.21
413.50	2715.02
413.69	2731.41
413.88	2883.54
414.07	2752.47
414.26	2932.69
414.45	2757.15
414.64	2885.88
414.83	2876.52
415.02	3042.70
415.22	2995.89
415.41	2970.14
415.60	2960.78
415.79	3148.02
415.98	3201.85
416.17	3176.11
416.36	3098.87
416.55	3126.96
416.74	3084.83
416.93	3122.27
417.12	3152.70
417.31	3258.03
417.50	3267.39
417.69	3349.31
417.88	3211.22
418.07	3339.94
418.26	3293.13
418.45	3365.69
418.64	3478.04
418.83	3386.76
419.02	3368.03
419.21	3454.63
419.39	3447.61
419.58	3492.08
419.77	3358.67
419.96	3529.53
420.15	3461.65
420.34	3597.40
420.53	3482.72
420.72	3768.26
420.91	3695.71
421.10	3651.24
421.29	3627.83
421.48	3796.35
421.67	3758.90
421.86	3632.51
422.05	3632.51
422.24	3616.13
422.43	3604.42
422.61	3705.07
422.80	3726.13
422.99	3854.86
423.18	3819.75
423.37	3880.61
423.56	3786.99
423.75	3740.18
423.94	3798.69
424.13	3496.76
424.32	3744.86
424.50	3850.18
424.69	3885.29
424.88	3796.35
425.07	3723.79
425.26	3747.20
425.45	3730.81
425.64	3859.54
425.83	3859.54
426.01	3768.26
426.20	3777.62
426.39	3936.78
426.58	3826.78
426.77	3838.48
426.96	3948.48
427.15	3899.33
427.33	3925.08
427.52	4025.72
427.71	4063.17
427.90	3934.44
428.09	3901.67
428.28	3953.16
428.46	3936.78
428.65	4065.51
428.84	4248.07
429.03	4276.16
429.22	3978.91
429.40	3988.27
429.59	4011.68
429.78	3829.12
429.97	3829.12
430.16	3978.91
430.34	4004.66
430.53	4021.04
430.72	4070.19
430.91	4109.98
431.10	4198.92
431.28	4374.46
431.47	4505.53
431.66	4407.23
431.85	4266.80
432.03	4678.73
432.22	4456.38
432.41	4484.47
432.60	4512.55
432.79	4671.71
432.97	4629.58
433.16	4484.47
433.35	4435.32
433.54	4510.21
433.72	4470.42
433.91	4638.94
434.10	4615.54
434.28	4528.94
434.47	4550.00
434.66	4798.10
434.85	4655.33
435.03	4748.95
435.22	4924.49
435.41	4905.76
435.59	4973.64
435.78	4915.12
435.97	4910.44
436.16	4957.25
436.34	5041.51
436.53	5011.09
436.72	4975.98
436.90	5036.83
437.09	5027.47
437.28	4929.17
437.46	5125.77
437.65	5060.24
437.84	5027.47
438.02	4842.57
438.21	4985.34
438.40	5064.92
438.58	5153.86
438.77	5095.35
438.96	5427.70
439.14	5427.70
439.33	5373.87
439.52	5427.70
439.70	5518.98
439.89	5509.62
440.08	5500.26
440.26	5614.95
440.45	5416.00
440.63	5600.90
440.82	5731.97
441.01	5783.46
441.19	5865.38
441.38	6108.80
441.57	5966.03
441.75	5888.79
441.94	6113.48
442.12	6176.67
442.31	6094.76
442.50	6031.56
442.68	5940.28
442.87	6160.29
443.05	6080.71
443.24	6094.76
443.43	6064.33
443.61	6200.08
443.80	6406.05
443.98	6080.71
444.17	6078.37
444.35	6181.35
444.54	6399.02
444.73	6382.64
444.91	6139.23
445.10	6204.76
445.28	6260.93
445.47	6169.65
445.65	6033.90
445.84	6136.88
446.02	6270.30
446.21	6305.40
446.39	6333.49
446.58	6408.39
446.77	6352.21
446.95	6263.27
447.14	6616.69
447.32	6506.69
447.51	6518.39
447.69	6541.80
447.88	6415.41
448.06	6471.58
448.25	6401.37
448.43	6445.84
448.62	6415.41
448.80	6546.48
448.99	6623.72
449.17	6576.91
449.36	6661.16
449.54	6752.45
449.73	6642.44
449.91	6836.70
450.10	6810.96
450.28	7007.56
450.46	6846.07
450.65	6829.68
450.83	6942.03
451.02	7007.56
451.20	6930.33
451.39	6895.22
451.57	6902.24
451.76	6750.10
451.94	6937.35
452.13	7131.61
452.31	7049.69
452.49	6733.72
452.68	7016.93
452.86	7005.22
453.05	6923.30
453.23	7014.59
453.42	6876.49
453.60	7059.06
453.78	7297.79
453.97	7110.55
454.15	7007.56
454.34	7169.06
454.52	7248.64
454.70	7311.83
454.89	7262.68
455.07	7243.96
455.26	7440.56
455.44	7360.98
455.62	7384.39
455.81	7482.69
455.99	7398.43
456.17	7452.27
456.36	7604.40
456.54	7653.55
456.73	7658.23
456.91	7981.23
457.09	7892.29
457.28	7875.90
457.46	7730.79
457.64	7761.22
457.83	7789.30
458.01	7681.64
458.19	7892.29
458.38	7831.43
458.56	7873.56
458.74	7967.18
458.93	7793.98
459.11	8128.68
459.29	8077.19
459.48	7936.76
459.66	8016.33
459.84	8189.53
460.03	8210.60
460.21	8348.69
460.39	8138.04
460.57	8156.77
460.76	8234.00
460.94	8147.40
461.12	8276.13
461.31	8372.10
461.49	8388.48
461.67	8500.83
461.85	8369.76
462.04	8292.52
462.22	8943.19
462.40	8645.94
462.59	8491.46
462.77	8498.49
462.95	8683.39
463.13	8594.45
463.32	8538.27
463.50	8622.53
463.68	8816.80
463.86	8795.73
464.05	8559.34
464.23	8641.26
464.41	8681.05
464.59	8685.73
464.78	8940.85
464.96	8774.67
465.14	8781.69
465.32	8898.72
465.50	9025.11
465.69	9114.05
465.87	8898.72
466.05	9153.84
466.23	8999.36
466.41	8994.68
466.60	9184.26
466.78	8795.73
466.96	9078.94
467.14	8999.36
467.32	9011.06
467.51	9268.52
467.69	9027.45
467.87	9118.73
468.05	9132.77
468.23	9284.91
468.41	9029.79
468.60	9247.46
468.78	9202.99
468.96	9151.49
469.14	9352.78
469.32	9439.38
469.50	9121.07
469.69	9345.76
469.87	9621.94
470.05	9547.05
470.23	9561.09
470.41	9493.21
470.59	9652.37
470.77	9593.86
470.95	9675.77
471.14	10029.20
471.32	9605.56
471.50	9792.80
471.68	9668.75
471.86	9973.02
472.04	9923.87
472.22	10415.38
472.40	9996.43
472.58	9930.89
472.77	10157.92
472.95	10150.90
473.13	10300.70
473.31	9970.68
473.49	10134.52
473.67	10317.08
473.85	10338.15
474.03	10714.97
474.21	10579.22
474.39	10635.39
474.57	10977.11
474.75	10714.97
474.93	10794.55
475.12	10801.57
475.30	11101.16
475.48	10808.59
475.66	10946.69
475.84	10995.84
476.02	10801.57
476.20	11199.46
476.38	11414.79
476.56	11421.81
476.74	11349.26
476.92	11508.41
477.10	11541.18
477.28	11623.10
477.46	11784.60
477.64	11501.39
477.82	12095.89
478.00	12123.98
478.18	12219.94
478.36	12315.90
478.54	12187.17
478.72	12538.25
478.90	12617.83
479.08	12475.06
479.26	12779.32
479.44	12587.40
479.62	12917.42
479.80	12863.58
479.98	12830.82
480.16	13116.36
480.34	13153.81
480.52	13191.26
480.70	13401.91
480.88	13261.48
481.06	13345.73
481.24	13741.29
481.41	13928.53
481.59	13596.17
481.77	14026.83
481.95	13820.86
482.13	13923.85
482.31	14174.28
482.49	14656.43
482.67	14401.32
482.85	14614.30
483.03	14892.83
483.21	14651.75
483.39	14834.32
483.57	14806.23
483.74	15169.01
483.92	15044.96
484.10	15246.25
484.28	15559.88
484.46	15545.84
484.64	15880.53
484.82	15662.86
485.00	15686.27
485.18	15903.94
485.35	16063.10
485.53	15576.27
485.71	15985.86
485.89	15988.20
486.07	15873.51
486.25	15943.73
486.43	16802.71
486.61	16489.07
486.78	16685.68
486.96	17116.34
487.14	17041.44
487.32	17184.21
487.50	17738.92
487.68	17525.93
487.85	17724.88
488.03	17790.41
488.21	17963.61
488.39	17872.33
488.57	18209.37
488.75	18171.92
488.92	18668.11
489.10	18714.92
489.28	18977.06
489.46	19173.67
489.64	19239.20
489.81	19562.20
489.99	19513.05
490.17	19407.72
490.35	19936.68
490.53	19592.62
490.70	19974.13
490.88	20006.90
491.06	20252.66
491.24	20276.06
491.41	20184.78
491.59	20549.90
491.77	20463.30
491.95	20762.89
492.13	20790.98
492.30	21097.59
492.48	20992.26
492.66	21064.82
492.84	21067.16
493.01	21486.12
493.19	21500.16
493.37	21553.99
493.54	21912.10
493.72	22291.26
493.90	22164.87
494.08	22274.88
494.25	22478.50
494.43	22473.82
494.61	23094.07
494.79	22677.45
494.96	22590.85
495.14	23049.60
495.32	22948.95
495.49	22930.23
495.67	23211.09
495.85	23379.61
496.02	23288.33
496.20	23473.23
496.38	23662.82
496.55	24100.50
496.73	24552.22
496.91	24247.95
497.09	24250.29
497.26	24315.83
497.44	24205.82
497.62	24563.92
497.79	24828.40
497.97	24362.64
498.14	24666.91
498.32	25083.52
498.50	25230.98
498.67	25397.15
498.85	25088.20
499.03	25689.72
499.20	25645.25
499.38	25778.66
499.56	25612.48
499.73	26008.03
499.91	26125.06
500.08	25872.28
500.26	26068.89
500.44	25881.64
500.61	26223.36
500.79	26031.44
500.97	26443.37
501.14	26726.58
501.32	26448.05
501.49	26410.60
501.67	26305.28
501.84	26885.73
502.02	26895.10
502.20	26796.79
502.37	27335.12
502.55	27131.49
502.72	27321.07
502.90	27580.87
503.07	27318.73
503.25	27517.68
503.43	27456.82
503.60	27850.03
503.78	27470.87
503.95	27253.20
504.13	27814.93
504.30	27583.21
504.48	28175.37
504.65	28123.88
504.83	28402.40
505.01	28662.20
505.18	28470.28
505.36	28524.11
505.53	28474.96
505.71	28996.90
505.88	29034.35
506.06	28716.03
506.23	29125.63
506.41	29263.72
506.58	29081.16
506.76	29289.46
506.93	29420.53
507.11	28900.94
507.28	29413.51
507.46	29223.93
507.63	29652.25
507.81	29818.42
507.98	29741.19
508.16	29912.05
508.33	29928.43
508.50	30178.87
508.68	30073.54
508.85	30637.61
509.03	30401.22
509.20	30373.13
509.38	30426.96
509.55	30888.05
509.73	30621.23
509.90	30609.53
510.08	30670.38
510.25	30789.75
510.42	31070.61
510.60	30967.63
510.77	31030.82
510.95	31182.96
511.12	31337.43
511.30	31094.02
511.47	31838.31
511.64	32257.26
511.82	31763.41
511.99	31503.61
512.17	31505.95
512.34	31452.12
512.51	32041.93
512.69	32051.30
512.86	31938.95
513.04	32659.84
513.21	31920.23
513.38	32002.14
513.56	32325.14
513.73	32081.72
513.90	32477.27
514.08	32189.39
514.25	32311.10
514.43	33017.94
514.60	32692.60
514.77	32645.79
514.95	32723.03
515.12	33205.18
515.29	32964.10
515.47	33298.80
515.64	33163.05
515.81	33125.60
515.99	33434.55
516.16	33425.19
516.33	33331.57
516.51	33294.12
516.68	32943.04
516.85	32802.61
517.03	33284.76
517.20	33134.96
517.37	33748.18
517.54	33998.62
517.72	33895.64
517.89	33940.11
518.06	33415.83
518.24	33806.70
518.41	33787.97
518.58	33886.28
518.75	33848.83
518.93	34457.37
519.10	34314.59
519.27	34253.74
519.45	34485.45
519.62	34499.50
519.79	34511.20
519.96	35117.40
520.14	35122.08
520.31	34403.53
520.48	34998.03
520.65	34735.89
520.83	35274.21
521.00	35278.89
521.17	34843.56
521.34	35271.87
521.52	35590.19
521.69	35730.62
521.86	35880.41
522.03	35667.42
522.20	35728.28
522.38	35861.69
522.55	35938.93
522.72	35845.30
522.89	35807.86
523.07	35962.33
523.24	35997.44
523.41	35995.10
523.58	36123.83
523.75	36381.29
523.92	36151.91
524.10	36732.37
524.27	36552.15
524.44	36975.78
524.61	36973.44
524.78	36870.46
524.96	36870.46
525.13	36978.12
525.30	37560.92
525.47	37411.12
525.64	37191.11
525.81	37050.68
525.98	37167.71
526.16	36650.45
526.33	36926.63
526.50	37368.99
526.67	36407.03
526.84	36933.65
527.01	37125.58
527.18	37357.29
527.36	37425.17
527.53	37677.94
527.70	37820.72
527.87	37979.87
528.04	37668.58
528.21	37799.65
528.38	37565.60
528.55	38288.82
528.72	37860.51
528.89	37766.88
529.07	38181.16
529.24	37996.26
529.41	38059.45
529.58	37900.29
529.75	38363.72
529.92	38036.05
530.09	37993.92
530.26	38649.27
530.43	38806.08
530.60	38607.14
530.77	38675.01
530.94	39051.84
531.11	38609.48
531.28	38478.41
531.46	39007.37
531.63	39108.01
531.80	38953.54
531.97	39225.04
532.14	38675.01
532.31	38359.04
532.48	38902.04
532.65	39098.65
532.82	39309.30
532.99	39278.87
533.16	39384.19
533.33	39234.40
533.50	39992.73
533.67	39737.62
533.84	39150.14
534.01	39548.03
534.18	39452.07
534.35	39938.90
534.52	39269.51
534.69	40116.78
534.86	40130.83
535.03	39854.64
535.20	40091.04
535.37	40383.60
535.54	40154.23
535.71	39964.65
535.88	40069.97
536.05	39988.05
536.22	39765.70
536.38	39915.50
536.55	40158.91
536.72	39981.03
536.89	39709.53
537.06	40318.07
537.23	40737.02
537.40	40065.29
537.57	40584.89
537.74	41076.40
537.91	40987.46
538.08	40430.41
538.25	40292.32
538.42	40081.67
538.59	41141.94
538.75	40507.65
538.92	40622.34
539.09	41287.05
539.26	40994.48
539.43	41076.40
539.60	41273.01
539.77	41067.04
539.94	40790.86
540.11	41060.02
540.28	40842.35
540.44	40875.12
540.61	41031.93
540.78	40989.80
540.95	41036.61
541.12	41443.87
541.29	40788.52
541.46	41034.27
541.62	41518.76
541.79	41895.59
541.96	41289.39
542.13	41202.79
542.30	41478.97
542.47	41333.86
542.63	41383.01
542.80	41841.76
542.97	41455.57
543.14	42347.31
543.31	42328.59
543.48	42251.35
543.64	42609.45
543.81	42387.10
543.98	42309.86
544.15	41954.10
544.32	42567.32
544.48	42511.15
544.65	42277.10
544.82	42623.50
544.99	42258.37
545.16	42230.29
545.32	42787.33
545.49	43150.12
545.66	42387.10
545.83	42464.34
546.00	42604.77
546.16	42660.94
546.33	42630.52
546.50	42476.04
546.67	43035.43
546.83	42139.00
547.00	42237.31
547.17	42679.67
547.34	42923.08
547.50	42911.38
547.67	43494.18
547.84	43061.18
548.00	43295.23
548.17	43363.11
548.34	43260.12
548.51	43636.95
548.67	43435.66
548.84	43416.94
549.01	43288.21
549.18	43360.76
549.34	43578.43
549.51	43239.06
549.68	43395.87
549.84	43386.51
550.01	43648.65
550.18	43597.16
550.34	43515.24
550.51	44102.71
550.68	43761.00
550.84	43250.76
551.01	43931.86
551.18	43660.35
551.34	43283.53
551.51	43622.90
551.68	44156.55
551.84	43552.69
552.01	43646.31
552.18	43983.35
552.34	43641.63
552.51	44123.78
552.68	43590.14
552.84	44177.61
553.01	44381.24
553.18	44016.11
553.34	43833.55
553.51	43482.47
553.67	44392.94
553.84	44556.78
554.01	44250.17
554.17	44322.72
554.34	44486.56
554.51	44318.04
554.67	44418.69
554.84	44240.81
555.00	44404.64
555.17	44451.45
555.33	44463.16
555.50	44219.74
555.67	44198.68
555.83	44126.12
556.00	44395.28
556.16	44769.77
556.33	44357.83
556.50	44142.50
556.66	44533.37
556.83	44140.16
556.99	44697.21
557.16	45153.62
557.32	44376.56
557.49	44685.51
557.65	44435.07
557.82	43936.54
557.98	44641.04
558.15	44205.70
558.32	44435.07
558.48	44591.89
558.65	44601.25
558.81	44296.98
558.98	44524.01
559.14	44842.32
559.31	44851.69
559.47	44612.95
559.64	45092.76
559.80	45090.42
559.97	44868.07
560.13	44753.38
560.30	44615.29
560.46	45099.78
560.63	45251.92
560.79	45368.94
560.96	45125.53
561.12	45378.31
561.29	45214.47
561.45	44765.09
561.61	45228.51
561.78	45228.51
561.94	45038.93
562.11	44608.27
562.27	45422.78
562.44	45153.62
562.60	45020.20
562.77	45579.59
562.93	45043.61
563.10	45380.65
563.26	45137.23
563.42	45177.02
563.59	45666.19
563.75	44966.37
563.92	45588.95
564.08	45628.74
564.24	45619.38
564.41	45509.38
564.57	45191.06
564.74	45713.00
564.90	45645.13
565.07	45282.34
565.23	45242.56
565.39	44858.71
565.56	45853.44
565.72	45333.84
565.88	45263.62
566.05	45258.94
566.21	45095.10
566.38	45495.33
566.54	45492.99
566.70	45633.42
566.87	45469.59
567.03	45251.92
567.19	45734.07
567.36	45942.38
567.52	45731.73
567.68	45717.68
567.85	45551.51
568.01	45457.88
568.17	45720.02
568.34	45724.71
568.50	45626.40
568.66	45441.50
568.83	45956.42
568.99	45525.76
569.15	45731.73
569.32	45336.18
569.48	45518.74
569.64	46157.70
569.81	46113.23
569.97	45886.20
570.13	46054.72
570.30	45123.19
570.46	45453.20
570.62	45083.40
570.78	45134.89
570.95	44989.78
571.11	46064.08
571.27	45162.98
571.43	45806.62
571.60	45799.60
571.76	45544.48
571.92	45476.61
572.09	45680.24
572.25	45666.19
572.41	45509.38
572.57	45734.07
572.74	46206.86
572.90	45521.08
573.06	45640.45
573.22	45263.62
573.38	46127.28
573.55	45305.75
573.71	45993.87
573.87	45820.67
574.03	45715.34
574.20	45312.77
574.36	45521.08
574.52	45977.48
574.68	45663.85
574.84	45745.77
575.01	45989.19
575.17	45539.80
575.33	45815.99
575.49	45722.37
575.65	46040.68
575.82	46234.94
575.98	46024.29
576.14	46085.15
576.30	46064.08
576.46	45677.90
576.62	45628.74
576.79	45427.46
576.95	45687.26
577.11	45837.05
577.27	46333.24
577.43	46089.83
577.59	45860.46
577.75	45783.22
577.92	45495.33
578.08	45736.41
578.24	45497.67
578.40	46106.21
578.56	45670.87
578.72	46085.15
578.88	45928.33
579.04	46167.07
579.21	45717.68
579.37	45799.60
579.53	45881.52
579.69	45500.01
579.85	45666.19
580.01	45846.41
580.17	46101.53
580.33	46164.73
580.49	46003.23
580.65	46061.74
580.82	45656.83
580.98	45998.55
581.14	45811.31
581.30	46445.59
581.46	45422.78
581.62	45755.13
581.78	45883.86
581.94	46120.26
582.10	45837.05
582.26	46248.99
582.42	45853.44
582.58	45970.46
582.74	46256.01
582.90	45895.56
583.06	45834.71
583.22	46461.97
583.38	46569.64
583.54	46057.06
583.70	45869.82
583.86	45944.72
584.02	46061.74
584.18	46021.95
584.34	46195.15
584.50	46593.04
584.66	45617.04
584.82	45764.49
584.98	46370.69
585.14	46286.43
585.30	45640.45
585.46	46178.77
585.62	45652.15
585.78	46319.20
585.94	46021.95
586.10	46213.88
586.26	45818.33
586.42	46279.41
586.58	46258.35
586.74	46108.55
586.90	45954.08
587.06	45815.99
587.22	46181.11
587.38	45277.66
587.54	46260.69
587.70	45965.78
587.86	46380.06
588.02	46192.81
588.18	46586.02
588.34	45778.54
588.49	45888.54
588.65	45801.94
588.81	45481.29
588.97	45815.99
589.13	45649.81
589.29	45794.92
589.45	46326.22
589.61	45762.15
589.77	46321.54
589.93	46160.05
590.08	46389.42
590.24	46347.29
590.40	46335.59
590.56	46492.40
590.72	45743.43
590.88	46054.72
591.04	45827.69
591.20	46761.56
591.35	46473.68
591.51	46506.44
591.67	46171.75
591.83	46087.49
591.99	45703.64
592.15	45867.48
592.31	46089.83
592.46	45911.95
592.62	46164.73
592.78	46370.69
592.94	46342.61
593.10	46354.31
593.26	46223.24
593.41	46021.95
593.57	46134.30
593.73	46216.22
593.89	46639.86
594.05	46057.06
594.20	45900.25
594.36	46050.04
594.52	46291.12
594.68	46054.72
594.84	46256.01
594.99	46316.86
595.15	46323.88
595.31	46319.20
595.47	46440.91
595.62	46714.75
595.78	46361.33
595.94	46497.08
596.10	45984.51
596.25	46485.38
596.41	46590.70
596.57	46188.13
596.73	46616.45
596.88	46272.39
597.04	46373.03
597.20	46328.56
597.36	46497.08
597.51	46382.40
597.67	46459.63
597.83	46499.42
597.99	46714.75
598.14	46162.39
598.30	46342.61
598.46	46443.25
598.61	46298.14
598.77	46103.87
598.93	46387.08
599.09	46548.57
599.24	46340.27
599.40	46703.05
599.56	46424.53
599.71	46230.26
599.87	46419.84
600.03	46195.15
600.18	46323.88
600.34	46590.70
600.50	46550.91
600.65	45993.87
600.81	46635.17
600.97	46752.20
601.12	46988.60
601.28	46473.68
601.44	46536.87
601.59	46548.57
601.75	46115.58
601.91	46422.19
602.06	45991.53
602.22	46169.41
602.37	46220.90
602.53	46431.55
602.69	46117.92
602.84	46124.94
603.00	46106.21
603.16	46354.31
603.31	46094.51
603.47	46096.85
603.62	46199.83
603.78	45841.73
603.94	46291.12
604.09	46274.73
604.25	46419.84
604.40	46445.59
604.56	46237.28
604.71	46225.58
604.87	45991.53
605.03	46143.66
605.18	45757.47
605.34	46536.87
605.49	45890.88
605.65	46183.45
605.80	46181.11
605.96	46138.98
606.12	46340.27
606.27	46471.34
606.43	45874.50
606.58	46120.26
606.74	46040.68
606.89	45563.21
607.05	45876.84
607.20	46377.72
607.36	46059.40
607.51	46368.35
607.67	46005.57
607.82	46291.12
607.98	46000.89
608.13	45710.66
608.29	45818.33
608.44	45752.79
608.60	45631.08
608.75	45530.44
608.91	45586.61
609.06	45539.80
609.22	45918.97
609.37	45579.59
609.53	45729.39
609.68	45956.42
609.84	45755.13
609.99	45778.54
610.15	45617.04
610.30	45886.20
610.46	45691.94
610.61	45792.58
610.76	45661.51
610.92	45689.60
611.07	46014.93
611.23	45841.73
611.38	45958.76
611.54	45645.13
611.69	45326.81
611.84	45586.61
612.00	45500.01
612.15	45216.81
612.31	45670.87
612.46	46171.75
612.62	45549.17
612.77	45649.81
612.92	45911.95
613.08	45443.84
613.23	45277.66
613.39	45296.39
613.54	45380.65
613.69	44807.22
613.85	45074.04
614.00	45595.98
614.15	45357.24
614.31	45214.47
614.46	45640.45
614.62	45530.44
614.77	45656.83
614.92	44898.50
615.08	45139.57
615.23	44985.10
615.38	45071.70
615.54	44727.64
615.69	44596.57
615.84	44935.95
616.00	45244.90
616.15	45064.67
616.30	44992.12
616.46	44751.04
616.61	44774.45
616.76	44699.55
616.92	44760.40
617.07	44619.97
617.22	44336.77
617.37	44484.22
617.53	44748.70
617.68	44561.46
617.83	44968.71
617.99	45027.23
618.14	45001.48
618.29	44259.53
618.45	44362.51
618.60	44706.57
618.75	44449.11
618.90	44505.29
619.06	44814.24
619.21	44381.24
619.36	44795.51
619.51	44664.44
619.67	44624.65
619.82	44355.49
619.97	44786.15
620.12	44301.66
620.28	44105.06
620.43	44519.33
620.58	44390.60
620.73	44002.07
620.89	44322.72
621.04	44694.87
621.19	44004.41
621.34	44292.30
621.49	43983.35
621.65	43910.79
621.80	44191.65
621.95	43983.35
622.10	44009.09
622.25	43749.29
622.41	44018.46
622.56	44009.09
622.71	43885.04
622.86	43838.23
623.01	43856.96
623.16	43924.83
623.32	43878.02
623.47	44037.18
623.62	44311.02
623.77	44018.46
623.92	44409.32
624.07	43454.39
624.23	43438.00
624.38	43559.71
624.53	43627.59
624.68	43517.58
624.83	43583.12
624.98	43704.82
625.13	43264.80
625.29	43711.84
625.44	43688.44
625.59	43353.74
625.74	43421.62
625.89	43358.42
626.04	43360.76
626.19	43005.00
626.34	43335.02
626.49	43447.36
626.65	43381.83
626.80	43222.67
626.95	43093.94
627.10	42864.57
627.25	43124.37
627.40	42815.42
627.55	42412.85
627.70	42342.63
627.85	42579.03
628.00	42759.25
628.15	43173.52
628.30	42859.89
628.45	42810.74
628.60	42796.70
628.76	42717.12
628.91	43136.07
629.06	43058.84
629.21	42733.50
629.36	42546.26
629.51	42623.50
629.66	42857.55
629.81	42234.97
629.96	42445.62
630.11	42953.51
630.26	42799.04
630.41	42529.87
630.56	42536.90
630.71	42703.07
630.86	42555.62
631.01	42305.18
631.16	42298.16
631.31	42190.50
631.46	41984.53
631.61	41888.57
631.76	42389.44
631.91	42246.67
632.06	42122.62
632.21	42356.67
632.36	42443.27
632.51	42216.24
632.66	42094.53
632.81	41677.92
632.96	41785.58
633.10	41588.98
633.25	41570.25
633.40	42305.18
633.55	42082.83
633.70	41998.57
633.85	42373.06
634.00	42050.06
634.15	41804.31
634.30	41579.62
634.45	41956.44
634.60	41808.99
634.75	41696.64
634.90	41970.49
635.05	41755.16
635.19	41886.23
635.34	41511.74
635.49	41691.96
635.64	41649.83
635.79	41399.40
635.94	41549.19
636.09	41888.57
636.24	41022.57
636.39	41258.96
636.53	41329.18
636.68	41088.10
636.83	41221.52
636.98	41242.58
637.13	41045.97
637.28	41251.94
637.43	41216.83
637.57	41474.29
637.72	41361.95
637.87	41415.78
638.02	41357.27
638.17	41151.30
638.32	41518.76
638.46	40779.15
638.61	40828.30
638.76	40634.04
638.91	41031.93
639.06	40912.56
639.20	41418.12
639.35	41160.66
639.50	40898.52
639.65	41048.32
639.80	41364.29
639.94	41006.19
640.09	40559.14
640.24	40872.78
640.39	40809.58
640.54	40612.98
640.68	40769.79
640.83	40713.62
640.98	40280.62
641.13	40856.39
641.27	41081.08
641.42	40399.99
641.57	40154.23
641.72	40870.43
641.86	40231.47
642.01	40128.48
642.16	40580.21
642.31	40165.93
642.45	40325.09
642.60	40062.95
642.75	40133.17
642.90	40268.92
643.04	40254.87
643.19	40521.69
643.34	40114.44
643.48	40320.41
643.63	40177.64
643.78	40217.43
643.93	40016.14
644.07	40112.10
644.22	40219.77
644.37	40105.08
644.51	40123.80
644.66	39981.03
644.81	39819.53
644.95	40236.15
645.10	40261.90
645.25	40467.86
645.39	39683.78
645.54	39739.96
645.69	39800.81
645.83	39522.29
645.98	39491.86
646.13	39966.99
646.27	39793.79
646.42	39751.66
646.57	39634.63
646.71	39681.44
646.86	39578.46
647.00	39693.15
647.15	40093.38
647.30	39732.93
647.44	39255.46
647.59	39526.97
647.74	39412.28
647.88	39271.85
648.03	39789.11
648.17	39494.20
648.32	39061.20
648.47	39180.57
648.61	38941.83
648.76	39620.59
648.90	39187.59
649.05	39381.85
649.20	39646.33
649.34	39718.89
649.49	39304.62
649.63	39325.68
649.78	39377.17
649.92	38569.69
650.07	39400.58
650.21	39452.07
650.36	38976.94
650.51	38756.93
650.65	39161.84
650.80	39370.15
650.94	39075.24
651.09	39297.59
651.23	38958.22
651.38	38670.33
651.52	38480.75
651.67	39110.35
651.81	38785.02
651.96	38249.03
652.10	38785.02
652.25	38639.90
652.39	38672.67
652.54	38820.13
652.68	38717.14
652.83	38768.63
652.97	38824.81
653.12	38665.65
653.26	38792.04
653.41	38733.53
653.55	38218.61
653.70	38141.37
653.84	38731.18
653.99	38630.54
654.13	38653.95
654.27	38469.04
654.42	38527.56
654.56	38082.86
654.71	38094.56
654.85	38405.85
655.00	38195.20
655.14	38220.95
655.29	37778.59
655.43	37944.76
655.57	37689.65
655.72	37993.92
655.86	37270.69
656.01	37614.75
656.15	36968.76
656.30	37436.87
656.44	37717.73
656.58	37591.34
656.73	37486.02
656.87	37579.64
657.01	37532.83
657.16	37244.94
657.30	37432.19
657.45	37853.48
657.59	37806.67
657.73	37015.57
657.88	37471.98
658.02	37551.56
658.16	37539.85
658.31	38050.09
658.45	37502.40
658.60	37467.30
658.74	37427.51
658.88	37661.56
659.03	37347.93
659.17	36914.93
659.31	37303.46
659.46	36973.44
659.60	37085.79
659.74	37198.13
659.89	36662.15
660.03	37034.30
660.17	37193.45
660.32	36992.17
660.46	36879.82
660.60	36683.22
660.74	36840.03
660.89	36910.25
661.03	36453.84
661.17	36521.72
661.32	35885.09
661.46	36538.10
661.60	36641.09
661.74	36879.82
661.89	36601.30
662.03	36524.06
662.17	36093.40
662.31	36388.31
662.46	36341.50
662.60	36165.96
662.74	36608.32
662.88	36411.71
663.03	36184.68
663.17	36158.94
663.31	35690.83
663.45	35967.01
663.60	35622.95
663.74	35896.80
663.88	35592.53
664.02	35938.93
664.17	36079.36
664.31	35342.09
664.45	35349.11
664.59	35393.58
664.73	35346.77
664.88	35484.86
665.02	35009.73
665.16	35517.63
665.30	35505.93
665.44	34962.92
665.59	34890.37
665.73	35239.11
665.87	34693.76
666.01	35442.73
666.15	34810.79
666.29	35091.65
666.44	34567.37
666.58	34548.65
666.72	34724.19
666.86	35119.74
667.00	35187.61
667.14	34195.23
667.28	34511.20
667.43	34330.98
667.57	34485.45
667.71	34389.49
667.85	34394.17
667.99	34293.53
668.13	34153.10
668.27	33689.67
668.41	34286.51
668.56	33954.15
668.70	33888.62
668.84	34059.48
668.98	33813.72
669.12	33858.19
669.26	33890.96
669.40	33710.74
669.54	33633.50
669.68	33841.81
669.82	33654.56
669.96	33530.51
670.10	33392.42
670.25	33755.21
670.39	33631.16
670.53	33436.89
670.67	33223.90
670.81	33153.69
670.95	32856.44
671.09	32992.19
671.23	33202.84
671.37	33376.04
671.51	32931.34
671.65	32746.44
671.79	32692.60
671.93	32739.41
672.07	33326.89
672.21	32648.13
672.35	32538.13
672.49	32474.93
672.63	32315.78
672.77	32088.74
672.91	32341.52
673.05	32402.38
673.19	31967.04
673.33	31983.42
673.47	32041.93
673.61	31887.46
673.75	31831.29
673.89	31578.51
674.03	31356.16
674.17	31541.06
674.31	31637.02
674.45	31723.62
674.59	31571.49
674.73	31782.13
674.87	31463.82
675.01	31302.32
675.15	31281.26
675.29	31328.07
675.43	31260.20
675.56	31175.94
675.70	31049.55
675.84	30817.83
675.98	29757.57
676.12	30363.77
676.26	30478.46
676.40	30452.71
676.54	30419.94
676.68	30305.26
676.82	29954.18
676.96	29996.31
677.10	29984.60
677.23	30342.70
677.37	29928.43
677.51	29642.88
677.65	29397.13
677.79	29649.91
677.93	29511.81
678.07	29490.75
678.21	29488.41
678.34	29319.89
678.48	29039.03
678.62	28978.17
678.76	28884.55
678.90	28760.50
679.04	28790.93
679.18	29167.76
679.31	28507.72
679.45	28364.95
679.59	28428.15
679.73	28154.30
679.87	28407.08
680.00	28053.66
680.14	27971.74
680.28	27812.59
680.42	27723.65
680.56	28037.28
680.70	27543.42
680.83	27679.18
680.97	27812.59
681.11	27414.69
681.25	27524.70
681.39	27372.57
681.52	27555.13
681.66	27424.06
681.80	27171.28
681.94	27323.41
682.07	27187.66
682.21	26876.37
682.35	26817.86
682.49	26813.18
682.62	26883.39
682.76	26539.33
682.90	26363.79
683.04	26286.56
683.17	26129.74
683.31	25893.35
683.45	26497.20
683.59	26225.70
683.72	25984.63
683.86	25563.33
684.00	25586.74
684.13	25748.23
684.27	25673.34
684.41	25448.64
684.55	25612.48
684.68	25303.53
684.82	25654.61
684.96	25408.86
685.09	25378.43
685.23	25324.60
685.37	24767.55
685.50	24868.19
685.64	24776.91
685.78	24666.91
685.91	24615.41
686.05	24732.44
686.19	24135.60
686.32	24388.38
686.46	23948.36
686.60	23807.93
686.73	23962.40
686.87	23641.75
687.01	23899.21
687.14	23594.94
687.28	23468.55
687.42	23578.56
687.55	23225.14
687.69	23370.25
687.82	23096.41
687.96	23173.64
688.10	23009.81
688.23	23342.16
688.37	22871.72
688.50	22691.49
688.64	22869.37
688.78	22590.85
688.91	22462.12
689.05	22471.48
689.18	22443.40
689.32	22054.87
689.46	22249.13
689.59	22415.31
689.73	22202.32
689.86	22150.83
690.00	21771.66
690.13	22031.46
690.27	21731.87
690.41	21642.93
690.54	21654.64
690.68	21256.75
690.81	21348.03
690.95	21291.85
691.08	21392.50
691.22	21303.56
691.35	21135.04
691.49	21467.39
691.62	21378.45
691.76	21172.49
691.89	21128.02
692.03	20521.82
692.16	20671.61
692.30	20685.65
692.43	20624.80
692.57	20423.51
692.70	20416.49
692.84	20453.94
692.97	20093.50
693.11	20032.65
693.24	20142.65
693.38	19758.80
693.51	20121.59
693.65	19791.57
693.78	19822.00
693.92	19779.87
694.05	19623.05
694.19	19552.84
694.32	19410.06
694.45	19349.21
694.59	19246.23
694.72	19499.00
694.86	19232.18
694.99	18993.45
695.13	18834.29
695.26	18831.95
695.39	18850.67
695.53	18864.72
695.66	18600.24
695.80	18511.30
695.93	18513.64
696.07	18265.54
696.20	18258.52
696.33	18405.97
696.47	18286.61
696.60	17977.65
696.73	18171.92
696.87	17769.35
697.00	17666.36
697.14	17703.81
697.27	17848.93
697.40	17921.48
697.54	17692.11
697.67	17296.56
697.80	17434.65
697.94	17326.99
698.07	17366.78
698.21	17231.02
698.34	17343.37
698.47	17425.29
698.61	16851.86
698.74	16989.95
698.87	16755.90
699.01	16877.60
699.14	16896.33
699.27	16737.17
699.40	16650.57
699.54	16428.22
699.67	16297.15
699.80	16379.07
699.94	16329.92
700.07	16318.22
700.20	16140.33
700.34	16126.29
700.47	16196.51
700.60	16222.25
700.73	15896.92
700.87	16292.47
701.00	15880.53
701.13	15676.91
701.26	15800.96
701.40	15672.23
701.53	15227.53
701.66	15447.54
701.79	15161.99
701.93	15206.46
702.06	15206.46
702.19	15033.26
702.32	14963.04
702.46	15180.71
702.59	15143.27
702.72	14740.69
702.85	14899.85
702.99	14941.98
703.12	15080.07
703.25	14757.08
703.38	14675.16
703.51	14787.50
703.65	14324.08
703.78	14480.89
703.91	14551.11
704.04	14499.62
704.17	14104.07
704.31	13954.27
704.44	14019.81
704.57	14024.49
704.70	13825.54
704.83	14050.24
704.96	14040.87
705.10	13818.52
705.23	13865.33
>>>>>End Processed Spectral Data<<<<<
