SpectraSuite Data File
++++++++++++++++++++++++++++++++++++
Date: Fri Oct 25 11:34:04 EDT 2013
User: price-jones
Dark Spectrum Present: No
Reference Spectrum Present: No
Number of Sampled Component Spectra: 1
Spectrometers: USB2+H05261
Integration Time (usec): 100000 (USB2+H05261)
Spectra Averaged: 1 (USB2+H05261)
Boxcar Smoothing: 0 (USB2+H05261)
Correct for Electrical Dark: No (USB2+H05261)
Strobe/Lamp Enabled: No (USB2+H05261)
Correct for Detector Non-linearity: No (USB2+H05261)
Correct for Stray Light: No (USB2+H05261)
Number of Pixels in Processed Spectrum: 2048
>>>>>Begin Processed Spectral Data<<<<<
365.73	299.59
365.92	299.59
366.12	299.59
366.32	161.50
366.52	189.58
366.72	93.62
366.91	173.20
367.11	224.69
367.31	220.01
367.51	231.71
367.70	201.29
367.90	154.48
368.10	217.67
368.30	170.86
368.49	266.82
368.69	231.71
368.89	182.56
369.09	187.24
369.28	159.16
369.48	152.13
369.68	250.44
369.87	231.71
370.07	315.97
370.27	297.25
370.47	290.23
370.66	465.77
370.86	470.45
371.06	550.03
371.25	543.00
371.45	521.94
371.65	421.30
371.84	505.56
372.04	531.30
372.24	564.07
372.44	599.18
372.63	568.75
372.83	566.41
373.03	552.37
373.22	451.72
373.42	594.50
373.62	568.75
373.81	636.63
374.01	638.97
374.21	589.82
374.40	564.07
374.60	645.99
374.79	624.92
374.99	723.23
375.19	610.88
375.38	667.05
375.58	657.69
375.78	755.99
375.97	770.04
376.17	690.46
376.37	716.20
376.56	688.12
376.76	674.07
376.95	664.71
377.15	678.76
377.35	720.88
377.54	645.99
377.74	678.76
377.93	688.12
378.13	664.71
378.33	720.88
378.52	671.73
378.72	767.70
378.91	699.82
379.11	716.20
379.31	629.60
379.50	650.67
379.70	791.10
379.89	788.76
380.09	671.73
380.28	709.18
380.48	770.04
380.68	763.01
380.87	727.91
381.07	751.31
381.26	758.33
381.46	723.23
381.65	854.30
381.85	807.48
382.04	746.63
382.24	798.12
382.43	821.53
382.63	732.59
382.83	779.40
383.02	816.85
383.22	784.08
383.41	786.42
383.61	795.78
383.80	744.29
384.00	777.06
384.19	767.70
384.39	718.54
384.58	844.93
384.78	901.11
384.97	788.76
385.17	866.00
385.36	758.33
385.56	854.30
385.75	748.97
385.95	856.64
386.14	863.66
386.34	856.64
386.53	840.25
386.72	877.70
386.92	945.58
387.11	873.02
387.31	858.98
387.50	777.06
387.70	837.91
387.89	870.68
388.09	847.27
388.28	868.34
388.48	849.61
388.67	947.92
388.86	903.45
389.06	884.72
389.25	908.13
389.45	884.72
389.64	957.28
389.84	983.02
390.03	917.49
390.22	961.96
390.42	992.39
390.61	994.73
390.81	1018.13
391.00	992.39
391.19	976.00
391.39	968.98
391.58	1022.81
391.78	947.92
391.97	961.96
392.16	1137.50
392.36	1102.39
392.55	1004.09
392.75	1064.94
392.94	1116.44
393.13	1046.22
393.33	1004.09
393.52	1121.12
393.71	1034.52
393.91	1057.92
394.10	1062.60
394.29	1034.52
394.49	1004.09
394.68	1114.10
394.88	1090.69
395.07	1118.78
395.26	1177.29
395.46	1142.18
395.65	1107.07
395.84	1184.31
396.04	1172.61
396.23	1170.27
396.42	1055.58
396.62	1118.78
396.81	1179.63
397.00	1256.87
397.19	1226.44
397.39	1142.18
397.58	1306.02
397.77	1282.61
397.97	1200.69
398.16	1224.10
398.35	1320.06
398.55	1289.64
398.74	1240.48
398.93	1310.70
399.12	1259.21
399.32	1249.85
399.51	1294.32
399.70	1348.15
399.90	1334.11
400.09	1397.30
400.28	1401.98
400.47	1362.19
400.67	1453.47
400.86	1413.68
401.05	1406.66
401.24	1437.09
401.44	1404.32
401.63	1467.52
401.82	1521.35
402.01	1387.94
402.21	1425.39
402.40	1331.76
402.59	1401.98
402.78	1399.64
402.97	1474.54
403.17	1467.52
403.36	1488.58
403.55	1523.69
403.74	1467.52
403.93	1565.82
404.13	1586.88
404.32	1549.43
404.51	1631.35
404.70	1647.74
404.89	1542.41
405.09	1643.06
405.28	1657.10
405.47	1668.80
405.66	1654.76
405.85	1685.19
406.05	1652.42
406.24	1741.36
406.43	1687.53
406.62	1764.76
406.81	1919.24
407.00	1736.68
407.20	1713.27
407.39	1680.50
407.58	1886.47
407.77	1837.32
407.96	1762.42
408.15	1944.99
408.34	1949.67
408.54	1926.26
408.73	1893.49
408.92	1893.49
409.11	2026.90
409.30	1947.33
409.49	1856.04
409.68	1989.46
409.87	1949.67
410.07	2099.46
410.26	1984.77
410.45	2003.50
410.64	2167.34
410.83	2160.31
411.02	2097.12
411.21	2139.25
411.40	2134.57
411.59	2223.51
411.78	2038.61
411.98	2169.68
412.17	2251.60
412.36	2204.78
412.55	2267.98
412.74	2267.98
412.93	2359.26
413.12	2279.68
413.31	2312.45
413.50	2394.37
413.69	2424.80
413.88	2455.22
414.07	2396.71
414.26	2473.95
414.45	2558.21
414.64	2415.43
414.83	2551.18
415.02	2448.20
415.22	2661.19
415.41	2668.21
415.60	2712.68
415.79	2546.50
415.98	2698.64
416.17	2832.05
416.36	2628.42
416.55	2696.30
416.74	2647.15
416.93	2799.28
417.12	2843.75
417.31	2750.13
417.50	2750.13
417.69	2796.94
417.88	2935.03
418.07	2892.90
418.26	2963.12
418.45	2911.63
418.64	3038.02
418.83	3026.31
419.02	2998.23
419.21	3112.91
419.39	3108.23
419.58	2928.01
419.77	2944.39
419.96	3070.78
420.15	3199.51
420.34	3204.19
420.53	3122.27
420.72	3269.73
420.91	3178.45
421.10	3152.70
421.29	3220.58
421.48	3112.91
421.67	3215.90
421.86	3339.94
422.05	3187.81
422.24	3262.71
422.43	3272.07
422.61	3248.66
422.80	3267.39
422.99	3424.20
423.18	3353.99
423.37	3363.35
423.56	3363.35
423.75	3353.99
423.94	3105.89
424.13	3171.43
424.32	3241.64
424.50	3412.50
424.69	3482.72
424.88	3468.67
425.07	3335.26
425.26	3290.79
425.45	3412.50
425.64	3426.54
425.83	3311.86
426.01	3466.33
426.20	3372.71
426.39	3595.06
426.58	3410.16
426.77	3466.33
426.96	3426.54
427.15	3536.55
427.33	3651.24
427.52	3557.61
427.71	3550.59
427.90	3606.77
428.09	3641.87
428.28	3606.77
428.46	3602.08
428.65	3545.91
428.84	3688.68
429.03	3665.28
429.22	3669.96
429.40	3758.90
429.59	3733.15
429.78	3625.49
429.97	3616.13
430.16	3557.61
430.34	3824.44
430.53	3840.82
430.72	3691.02
430.91	3838.48
431.10	3742.52
431.28	3859.54
431.47	3864.22
431.66	4002.32
431.85	3946.14
432.03	4051.47
432.22	3964.87
432.41	3992.95
432.60	4114.66
432.79	4016.36
432.97	3976.57
433.16	4077.21
433.35	3929.76
433.54	4086.58
433.72	4184.88
433.91	4119.34
434.10	4124.02
434.28	4180.20
434.47	4109.98
434.66	4086.58
434.85	4222.33
435.03	4252.75
435.22	4276.16
435.41	4315.95
435.59	4250.41
435.78	4374.46
435.97	4358.08
436.16	4292.54
436.34	4301.90
436.53	4344.03
436.72	4500.85
436.90	4402.55
437.09	4423.61
437.28	4402.55
437.46	4505.53
437.65	4648.30
437.84	4432.97
438.02	4444.68
438.21	4547.66
438.40	4498.51
438.58	4669.37
438.77	4690.43
438.96	4704.48
439.14	4758.31
439.33	4931.51
439.52	4781.71
439.70	4699.80
439.89	4919.81
440.08	5006.41
440.26	4823.84
440.45	4791.08
440.63	4814.48
440.82	4910.44
441.01	4826.18
441.19	5081.30
441.38	5240.46
441.57	5139.82
441.75	5217.05
441.94	5420.68
442.12	5259.18
442.31	5181.95
442.50	5296.63
442.68	5125.77
442.87	5224.08
443.05	5397.28
443.24	5558.77
443.43	5474.51
443.61	5558.77
443.80	5544.73
443.98	5427.70
444.17	5205.35
444.35	5514.30
444.54	5565.79
444.73	5451.11
444.91	5593.88
445.10	5579.84
445.28	5727.29
445.47	5441.75
445.65	5423.02
445.84	5727.29
446.02	5696.86
446.21	5680.48
446.39	5547.07
446.58	5724.95
446.77	5650.05
446.95	5537.71
447.14	5633.67
447.32	5696.86
447.51	5753.04
447.69	5596.22
447.88	5640.69
448.06	5664.10
448.25	5687.50
448.43	5575.16
448.62	5706.23
448.80	5729.63
448.99	5736.65
449.17	5612.60
449.36	5666.44
449.54	5851.34
449.73	5895.81
449.91	5935.60
450.10	5872.40
450.28	6015.18
450.46	6015.18
450.65	5937.94
450.83	6040.92
451.02	5996.45
451.20	5996.45
451.39	6146.25
451.57	6108.80
451.76	6118.16
451.94	5895.81
452.13	6338.17
452.31	6188.38
452.49	6183.70
452.68	6232.85
452.86	5996.45
453.05	6157.95
453.23	6307.74
453.42	6174.33
453.60	6249.23
453.78	6258.59
453.97	6312.42
454.15	6083.05
454.34	6424.77
454.52	6363.92
454.70	6445.84
454.89	6422.43
455.07	6319.45
455.26	6380.30
455.44	6738.40
455.62	6518.39
455.81	6644.78
455.99	6693.93
456.17	6558.18
456.36	6633.08
456.54	6745.42
456.73	6972.46
456.91	6965.43
457.09	6640.10
457.28	7066.08
457.46	6855.43
457.64	6913.94
457.83	6892.88
458.01	6778.19
458.19	6942.03
458.38	7019.27
458.56	7103.53
458.74	7026.29
458.93	7140.97
459.11	7002.88
459.29	6930.33
459.48	7033.31
459.66	7159.70
459.84	7241.62
460.03	7206.51
460.21	7241.62
460.39	7323.54
460.57	7321.20
460.76	7311.83
460.94	7449.93
461.12	7396.09
461.31	7290.77
461.49	7321.20
461.67	7330.56
461.85	7632.49
462.04	7459.29
462.22	7992.93
462.40	7590.36
462.59	7613.76
462.77	7489.71
462.95	7569.29
463.13	7611.42
463.32	7578.65
463.50	7803.35
463.68	7639.51
463.86	7693.34
464.05	7550.57
464.23	7777.60
464.41	8018.68
464.59	7850.16
464.78	8116.98
464.96	7899.31
465.14	7861.86
465.32	7941.44
465.50	7857.18
465.69	7808.03
465.87	7925.05
466.05	7756.54
466.23	8018.68
466.41	8198.90
466.60	7957.82
466.78	8116.98
466.96	8035.06
467.14	8077.19
467.32	8210.60
467.51	8264.43
467.69	7960.16
467.87	8245.71
468.05	8250.39
468.23	8229.32
468.41	8173.15
468.60	8461.04
468.78	8355.71
468.96	8299.54
469.14	8360.39
469.32	8571.04
469.50	8205.92
469.69	8475.08
469.87	8622.53
470.05	8610.83
470.23	8662.32
470.41	8615.51
470.59	8601.47
470.77	8788.71
470.95	8657.64
471.14	8837.86
471.32	8739.56
471.50	8716.16
471.68	8798.07
471.86	8990.00
472.04	9118.73
472.22	9137.45
472.40	8894.04
472.58	8990.00
472.77	8968.93
472.95	9097.66
473.13	9582.15
473.31	8861.27
473.49	9177.24
473.67	9254.48
473.85	9291.93
474.03	9610.24
474.21	9617.26
474.39	9895.78
474.57	9582.15
474.75	9724.93
474.93	9834.93
475.12	9453.42
475.30	9977.70
475.48	9811.53
475.66	10038.56
475.84	9734.29
476.02	9755.35
476.20	9947.28
476.38	10207.08
476.56	10408.36
476.74	10115.80
476.92	10202.40
477.10	10434.11
477.28	10251.55
477.46	10370.91
477.64	10696.25
477.82	10740.72
478.00	11073.07
478.18	10815.62
478.36	10923.28
478.54	11077.76
478.72	11061.37
478.90	11557.57
479.08	11417.13
479.26	11510.75
479.44	11375.00
479.62	11492.03
479.80	11698.00
479.98	11824.39
480.16	12140.36
480.34	11784.60
480.52	11957.80
480.70	12037.38
480.88	11894.60
481.06	12222.28
481.24	12142.70
481.41	12580.38
481.59	12573.36
481.77	12589.74
481.95	12674.00
482.13	12791.03
482.31	12505.48
482.49	13083.59
482.67	13018.06
482.85	13263.82
483.03	13378.50
483.21	13490.85
483.39	13502.55
483.57	13647.66
483.74	13568.09
483.92	13774.05
484.10	13640.64
484.28	14022.15
484.46	14188.33
484.64	14305.35
484.82	14178.97
485.00	14204.71
485.18	14546.43
485.35	14934.96
485.53	14764.10
485.71	14904.53
485.89	15063.69
486.07	15131.56
486.25	15091.77
486.43	15077.73
486.61	15316.47
486.78	15676.91
486.96	15506.05
487.14	15613.71
487.32	15850.11
487.50	15894.58
487.68	16098.20
487.85	16346.30
488.03	16592.06
488.21	16706.74
488.39	16561.63
488.57	16793.34
488.75	16851.86
488.92	16851.86
489.10	17193.58
489.28	17053.14
489.46	17427.63
489.64	17352.73
489.81	17666.36
489.99	17577.42
490.17	17907.44
490.35	17951.91
490.53	17902.76
490.70	18302.99
490.88	18185.96
491.06	18331.08
491.24	18576.83
491.41	18562.79
491.59	18726.63
491.77	18647.05
491.95	18794.50
492.13	19323.46
492.30	19496.66
492.48	19552.84
492.66	19438.15
492.84	19396.02
493.01	19901.58
493.19	19770.51
493.37	19889.87
493.54	20046.69
493.72	20629.48
493.90	20093.50
494.08	20336.91
494.25	20301.81
494.43	20994.61
494.61	20730.12
494.79	20599.05
494.96	20671.61
495.14	20905.66
495.32	21401.86
495.49	21530.59
495.67	21378.45
495.85	21525.91
496.02	21715.49
496.20	21764.64
496.38	21837.20
496.55	21757.62
496.73	22071.25
496.91	22387.22
497.09	22565.10
497.26	22132.11
497.44	22501.91
497.62	22632.98
497.79	22860.01
497.97	22796.82
498.14	23154.92
498.32	23199.39
498.50	23248.54
498.67	23461.53
498.85	23328.12
499.03	23651.11
499.20	23496.64
499.38	23611.32
499.56	24088.79
499.73	23960.06
499.91	24336.89
500.08	24114.54
500.26	24020.92
500.44	24444.56
500.61	24746.48
500.79	24180.07
500.97	24589.67
501.14	24650.52
501.32	24699.67
501.49	24713.72
501.67	25034.37
501.84	25071.82
502.02	25127.99
502.20	24922.02
502.37	25137.35
502.55	25380.77
502.72	25301.19
502.90	25106.93
503.07	25193.53
503.25	25469.71
503.43	25783.34
503.60	25621.84
503.78	25708.44
503.95	25804.41
504.13	26047.82
504.30	26103.99
504.48	26232.72
504.65	26228.04
504.83	26309.96
505.01	26796.79
505.18	26686.79
505.36	27063.61
505.53	26764.03
505.71	26541.68
505.88	26958.29
506.06	26930.20
506.23	27175.96
506.41	27051.91
506.58	27199.37
506.76	27000.42
506.93	27510.66
507.11	27470.87
507.28	27325.75
507.46	27496.61
507.63	27632.36
507.81	27929.61
507.98	27814.93
508.16	28046.64
508.33	27927.27
508.50	28020.89
508.68	27786.84
508.85	28276.01
509.03	28491.34
509.20	28568.58
509.38	28657.52
509.55	28512.41
509.73	28786.25
509.90	28919.66
510.08	28517.09
510.25	28926.68
510.42	28905.62
510.60	29151.37
510.77	29347.98
510.95	29399.47
511.12	29235.63
511.30	29357.34
511.47	29120.95
511.64	29429.90
511.82	29759.91
511.99	29907.37
512.17	29507.13
512.34	30047.80
512.51	29841.83
512.69	30305.26
512.86	30459.73
513.04	29965.88
513.21	29902.68
513.38	30316.96
513.56	30625.91
513.73	30359.09
513.90	30756.98
514.08	30431.65
514.25	30735.92
514.43	30962.95
514.60	30871.67
514.77	31440.42
514.95	31005.08
515.12	31117.42
515.29	31330.41
515.47	31243.81
515.64	31505.95
515.81	30913.80
515.99	31510.63
516.16	31964.70
516.33	31754.05
516.51	31929.59
516.68	31681.49
516.85	31950.65
517.03	32194.07
517.20	32173.00
517.37	32318.12
517.54	32198.75
517.72	32294.71
517.89	32458.55
518.06	32175.34
518.24	32341.52
518.41	32474.93
518.58	32563.87
518.75	32051.30
518.93	32807.29
519.10	32428.12
519.27	32561.53
519.45	32964.10
519.62	32994.53
519.79	32879.85
519.96	32900.91
520.14	33476.68
520.31	32858.78
520.48	33205.18
520.65	33081.13
520.83	34146.08
521.00	33584.35
521.17	33961.17
521.34	33710.74
521.52	33558.60
521.69	33844.15
521.86	33830.10
522.03	34073.52
522.20	34431.62
522.38	34419.92
522.55	34244.38
522.72	34213.95
522.89	34326.30
523.07	34731.21
523.24	34745.25
523.41	34850.58
523.58	34225.65
523.75	34639.93
523.92	34602.48
524.10	34948.88
524.27	34892.71
524.44	34939.52
524.61	35037.82
524.78	35196.98
524.96	35061.22
525.13	35288.26
525.30	35550.40
525.47	35318.68
525.64	35463.80
525.81	35328.05
525.98	35662.74
526.16	35763.39
526.33	35442.73
526.50	35941.27
526.67	35512.95
526.84	35842.96
527.01	36046.59
527.18	35889.77
527.36	35861.69
527.53	35859.35
527.70	36360.22
527.87	36531.08
528.04	36392.99
528.21	36091.06
528.38	36044.25
528.55	36205.75
528.72	36217.45
528.89	36299.37
529.07	36402.35
529.24	36428.10
529.41	36584.91
529.58	36484.27
529.75	36414.05
529.92	36961.74
530.09	36704.28
530.26	36933.65
530.43	37123.24
530.60	36856.42
530.77	36744.07
530.94	37053.02
531.11	37048.34
531.28	37228.56
531.46	37626.45
531.63	37401.76
531.80	37413.46
531.97	37673.26
532.14	37074.09
532.31	37495.38
532.48	37827.74
532.65	37429.85
532.82	37720.07
532.99	37523.47
533.16	37830.08
533.33	37919.02
533.50	38260.74
533.67	38433.94
533.84	37909.66
534.01	38007.96
534.18	37837.10
534.35	38700.76
534.52	38361.38
534.69	38286.48
534.86	38672.67
535.03	38087.54
535.20	38850.55
535.37	38691.40
535.54	38958.22
535.71	38445.64
535.88	38920.77
536.05	38848.21
536.22	38930.13
536.38	38904.38
536.55	39075.24
536.72	38965.24
536.89	38700.76
537.06	39187.59
537.23	39124.40
537.40	39065.88
537.57	38962.90
537.74	38778.00
537.91	39531.65
538.08	39674.42
538.25	38792.04
538.42	39201.63
538.59	39924.86
538.75	39501.22
538.92	39597.18
539.09	39608.89
539.26	39456.75
539.43	39337.38
539.60	39896.77
539.77	39730.59
539.94	40421.05
540.11	39927.20
540.28	39648.68
540.44	39337.38
540.61	40032.52
540.78	39992.73
540.95	39920.18
541.12	39903.79
541.29	39721.23
541.46	40245.51
541.62	40245.51
541.79	40554.46
541.96	40198.70
542.13	39943.58
542.30	40507.65
542.47	40121.46
542.63	40737.02
542.80	40603.61
542.97	41137.26
543.14	40978.10
543.31	40879.80
543.48	41155.98
543.64	41418.12
543.81	41539.83
543.98	41020.23
544.15	41118.53
544.32	41200.45
544.48	41455.57
544.65	41502.38
544.82	41287.05
544.99	41219.17
545.16	41462.59
545.32	41254.28
545.49	41642.81
545.66	41933.04
545.83	41708.35
546.00	41450.89
546.16	41902.61
546.33	41364.29
546.50	41572.60
546.67	42171.77
546.83	41621.75
547.00	41535.15
547.17	41633.45
547.34	41748.14
547.50	42017.30
547.67	41933.04
547.84	41918.99
548.00	41708.35
548.17	42178.79
548.34	42469.02
548.51	42312.20
548.67	42555.62
548.84	42284.12
549.01	42279.44
549.18	42366.04
549.34	42885.64
549.51	42728.82
549.68	42810.74
549.84	42497.11
550.01	43122.03
550.18	42279.44
550.34	42726.48
550.51	43107.99
550.68	43220.33
550.84	42752.23
551.01	43072.88
551.18	42497.11
551.34	42525.19
551.51	42529.87
551.68	43049.47
551.84	42913.72
552.01	42679.67
552.18	43210.97
552.34	42775.63
552.51	43313.95
552.68	43311.61
552.84	43337.36
553.01	43545.67
553.18	43107.99
553.34	43325.66
553.51	43309.27
553.67	43555.03
553.84	43672.06
554.01	43435.66
554.17	43711.84
554.34	43430.98
554.51	43379.49
554.67	43639.29
554.84	43402.89
555.00	43686.10
555.17	43763.34
555.33	43709.50
555.50	43697.80
555.67	43800.79
555.83	43728.23
556.00	44048.88
556.16	44589.55
556.33	44315.70
556.50	43959.94
556.66	43945.90
556.83	44308.68
556.99	44205.70
557.16	44369.54
557.32	44027.82
557.49	44018.46
557.65	44273.57
557.82	44252.51
557.98	44091.01
558.15	44203.36
558.32	44612.95
558.48	44091.01
558.65	44432.73
558.81	44416.35
558.98	44259.53
559.14	44549.76
559.31	44201.02
559.47	44432.73
559.64	44584.86
559.80	44140.16
559.97	44467.84
560.13	44545.08
560.30	44224.42
560.46	44758.06
560.63	44683.17
560.79	45375.97
560.96	44980.42
561.12	44655.08
561.29	45172.34
561.45	44877.43
561.61	44580.18
561.78	44655.08
561.94	45029.57
562.11	44713.59
562.27	44500.61
562.44	45333.84
562.60	44900.84
562.77	45118.51
562.93	44968.71
563.10	45500.01
563.26	44858.71
563.42	45165.32
563.59	44861.05
563.75	44652.74
563.92	45134.89
564.08	45090.42
564.24	44809.56
564.41	44800.19
564.57	45118.51
564.74	45453.20
564.90	45390.01
565.07	45020.20
565.23	45038.93
565.39	45083.40
565.56	45453.20
565.72	45476.61
565.88	45254.26
566.05	45525.76
566.21	45399.37
566.38	45319.79
566.54	45270.64
566.70	45563.21
566.87	45392.35
567.03	45265.96
567.19	45743.43
567.36	45579.59
567.52	45303.41
567.68	45703.64
567.85	45661.51
568.01	45607.68
568.17	45668.53
568.34	45865.14
568.50	45680.24
568.66	45787.90
568.83	45598.32
568.99	45783.22
569.15	45907.27
569.32	45811.31
569.48	45734.07
569.64	45984.51
569.81	45544.48
569.97	45666.19
570.13	45954.08
570.30	45612.36
570.46	46108.55
570.62	45930.67
570.78	45603.00
570.95	45720.02
571.11	45844.07
571.27	45872.16
571.43	45668.53
571.60	45820.67
571.76	45375.97
571.92	45949.40
572.09	45830.03
572.25	45940.04
572.41	45724.71
572.57	45881.52
572.74	46323.88
572.90	45827.69
573.06	46033.66
573.22	45986.85
573.38	46553.26
573.55	45947.06
573.71	46333.24
573.87	45968.12
574.03	45979.82
574.20	45982.16
574.36	45808.96
574.52	46419.84
574.68	46749.86
574.84	46078.13
575.01	46309.84
575.17	46171.75
575.33	46082.81
575.49	45933.01
575.65	46321.54
575.82	46043.02
575.98	46113.23
576.14	46550.91
576.30	46646.88
576.46	46405.80
576.62	46038.34
576.79	46099.19
576.95	45670.87
577.11	45942.38
577.27	45963.44
577.43	46057.06
577.59	45975.14
577.75	45801.94
577.92	46113.23
578.08	46162.39
578.24	45933.01
578.40	46284.09
578.56	46342.61
578.72	46064.08
578.88	46679.64
579.04	46014.93
579.21	46340.27
579.37	46272.39
579.53	46349.63
579.69	46272.39
579.85	46218.56
580.01	45904.93
580.17	46335.59
580.33	46665.60
580.49	46146.00
580.65	45827.69
580.82	46148.34
580.98	46206.86
581.14	46300.48
581.30	46562.62
581.46	46387.08
581.62	46040.68
581.78	46202.18
581.94	46309.84
582.10	46553.26
582.26	46335.59
582.42	46382.40
582.58	46660.92
582.74	46525.17
582.90	46960.51
583.06	46277.07
583.22	46036.00
583.38	46188.13
583.54	46433.89
583.70	46490.06
583.86	46766.24
584.02	46543.89
584.18	46689.01
584.34	46431.55
584.50	46658.58
584.66	46412.82
584.82	46628.15
584.98	46848.16
585.14	46637.51
585.30	46403.46
585.46	46417.50
585.62	46520.49
585.78	46644.54
585.94	46101.53
586.10	46419.84
586.26	46150.68
586.42	46408.14
586.58	46588.36
586.74	46440.91
586.90	46192.81
587.06	46700.71
587.22	46784.97
587.38	46305.16
587.54	47180.52
587.70	46623.47
587.86	46319.20
588.02	46515.81
588.18	46440.91
588.34	46424.53
588.49	46827.10
588.65	46326.22
588.81	46492.40
588.97	46602.41
589.13	46691.35
589.29	46579.00
589.45	46983.91
589.61	46780.29
589.77	46955.83
589.93	46679.64
590.08	47061.15
590.24	46960.51
590.40	47430.96
590.56	47445.00
590.72	46955.83
590.88	46808.37
591.04	46852.84
591.20	46862.21
591.35	47405.21
591.51	47161.79
591.67	47250.74
591.83	47426.28
591.99	47187.54
592.15	46782.63
592.31	46892.63
592.46	46885.61
592.62	46857.52
592.78	47250.74
592.94	47019.02
593.10	47271.80
593.26	47311.59
593.41	47559.69
593.57	46827.10
593.73	47079.88
593.89	47281.16
594.05	47613.52
594.20	47278.82
594.36	47613.52
594.52	47105.62
594.68	47297.55
594.84	47061.15
594.99	47573.73
595.15	47428.62
595.31	47311.59
595.47	46703.05
595.62	47253.08
595.78	47494.15
595.94	47367.76
596.10	47327.97
596.25	47077.54
596.41	47466.06
596.57	47311.59
596.73	47505.85
596.88	47250.74
597.04	47349.04
597.20	47360.74
597.36	47342.02
597.51	47250.74
597.67	47217.97
597.83	47442.66
597.99	47543.30
598.14	47433.30
598.30	47501.17
598.46	46747.52
598.61	47636.92
598.77	47597.13
598.93	47070.51
599.09	47405.21
599.24	47985.66
599.40	47201.58
599.56	47185.20
599.71	47648.63
599.87	47639.26
600.03	47564.37
600.18	47707.14
600.34	47379.46
600.50	47119.66
600.65	47084.56
600.81	47805.44
600.97	47358.40
601.12	47482.45
601.28	47351.38
601.44	46845.82
601.59	47377.12
601.75	47391.17
601.91	47250.74
602.06	47562.03
602.22	47878.00
602.37	47257.76
602.53	47435.64
602.69	47667.35
602.84	47309.25
603.00	47330.31
603.16	47810.12
603.31	47477.77
603.47	47512.88
603.62	47688.42
603.78	47789.06
603.94	47655.65
604.09	47161.79
604.25	47040.09
604.40	46969.87
604.56	47068.17
604.71	47840.55
604.87	47374.78
605.03	47540.96
605.18	47484.79
605.34	47379.46
605.49	47208.61
605.65	47498.83
605.80	47304.57
605.96	47269.46
606.12	47217.97
606.27	47484.79
606.43	47012.00
606.58	47318.61
606.74	47182.86
606.89	47157.11
607.05	47906.08
607.20	47536.28
607.36	46976.89
607.51	47241.37
607.67	46890.29
607.82	47524.58
607.98	47435.64
608.13	47103.28
608.29	47084.56
608.44	47224.99
608.60	47093.92
608.75	47306.91
608.91	47468.40
609.06	47110.30
609.22	47323.29
609.37	47012.00
609.53	47234.35
609.68	47309.25
609.84	47220.31
609.99	47278.82
610.15	47014.34
610.30	47246.05
610.46	46976.89
610.61	47012.00
610.76	47180.52
610.92	47061.15
611.07	46796.67
611.23	47019.02
611.38	47026.04
611.54	47131.37
611.69	47229.67
611.84	46887.95
612.00	47089.24
612.15	47122.01
612.31	46663.26
612.46	46532.19
612.62	47248.39
612.77	47114.98
612.92	47035.41
613.08	46878.59
613.23	46965.19
613.39	47026.04
613.54	46621.13
613.69	46611.77
613.85	46412.82
614.00	46909.02
614.15	46700.71
614.31	46494.74
614.46	46651.56
614.62	46667.94
614.77	46784.97
614.92	46487.72
615.08	47070.51
615.23	46958.17
615.38	46759.22
615.54	46738.16
615.69	46780.29
615.84	46731.14
616.00	46958.17
616.15	46632.83
616.30	46869.23
616.46	46480.70
616.61	46660.92
616.76	46300.48
616.92	46267.71
617.07	46784.97
617.22	46328.56
617.37	45916.63
617.53	46766.24
617.68	46342.61
617.83	46197.49
617.99	46576.66
618.14	46080.47
618.29	45972.80
618.45	46321.54
618.60	46429.21
618.75	46160.05
618.90	46256.01
619.06	46293.46
619.21	46143.66
619.36	46504.10
619.51	45806.62
619.67	46220.90
619.82	46007.91
619.97	46335.59
620.12	46225.58
620.28	46162.39
620.43	46150.68
620.58	46164.73
620.73	46316.86
620.89	46508.79
621.04	46209.20
621.19	46078.13
621.34	45918.97
621.49	45638.11
621.65	45963.44
621.80	46281.75
621.95	46087.49
622.10	46202.18
622.25	45380.65
622.41	45507.04
622.56	45914.29
622.71	45806.62
622.86	45717.68
623.01	45581.93
623.16	45713.00
623.32	46349.63
623.47	45652.15
623.62	45890.88
623.77	45500.01
623.92	46199.83
624.07	45478.95
624.23	46129.62
624.38	46391.76
624.53	45890.88
624.68	45083.40
624.83	45392.35
624.98	45296.39
625.13	45443.84
625.29	45289.37
625.44	45181.70
625.59	45336.18
625.74	45436.82
625.89	45223.83
626.04	44980.42
626.19	45331.50
626.34	45074.04
626.49	44884.45
626.65	45010.84
626.80	44863.39
626.95	44769.77
627.10	44729.98
627.25	45076.38
627.40	44825.94
627.55	45287.03
627.70	45059.99
627.85	45368.94
628.00	45394.69
628.15	45148.93
628.30	44687.85
628.45	44411.67
628.60	44608.27
628.76	44561.46
628.91	44772.11
629.06	44009.09
629.21	44430.39
629.36	45205.11
629.51	44996.80
629.66	44493.58
629.81	44687.85
629.96	44779.13
630.11	44423.37
630.26	44711.25
630.41	44776.79
630.56	44332.09
630.71	44751.04
630.86	44381.24
631.01	44458.48
631.16	44531.03
631.31	43997.39
631.46	44128.46
631.61	44498.26
631.76	44491.24
631.91	44514.65
632.06	44308.68
632.21	44947.65
632.36	44746.36
632.51	44058.24
632.66	44376.56
632.81	44013.77
632.96	44727.64
633.10	44215.06
633.25	44030.16
633.40	44083.99
633.55	44046.54
633.70	44060.58
633.85	43482.47
634.00	43892.07
634.15	44299.32
634.30	43906.11
634.45	44058.24
634.60	43590.14
634.75	43990.37
634.90	43777.38
635.05	43922.49
635.19	43861.64
635.34	43849.94
635.49	43594.82
635.64	43824.19
635.79	43863.98
635.94	43873.34
636.09	43997.39
636.24	43786.74
636.39	43763.34
636.53	43730.57
636.68	43262.46
636.83	43079.90
636.98	43604.18
637.13	43126.71
637.28	43232.04
637.43	43545.67
637.57	43220.33
637.72	43370.13
637.87	43536.30
638.02	43332.68
638.17	43285.87
638.32	43255.44
638.46	42646.90
638.61	43075.22
638.76	42913.72
638.91	43091.60
639.06	43316.29
639.20	42876.27
639.35	42789.67
639.50	42892.66
639.65	42899.68
639.80	42930.11
639.94	42895.00
640.09	42976.92
640.24	43267.14
640.39	42618.81
640.54	42703.07
640.68	43009.68
640.83	42934.79
640.98	42710.10
641.13	42422.21
641.27	42836.48
641.42	42855.21
641.57	42487.74
641.72	42843.51
641.86	42581.37
642.01	42546.26
642.16	42480.72
642.31	41893.25
642.45	42756.91
642.60	41890.91
642.75	42829.46
642.90	42721.80
643.04	42726.48
643.19	42745.20
643.34	42199.86
643.48	42043.04
643.63	42462.00
643.78	42476.04
643.93	42548.60
644.07	42024.32
644.22	42344.97
644.37	42043.04
644.51	42319.23
644.66	42518.17
644.81	41762.18
644.95	42003.25
645.10	42227.95
645.25	42106.24
645.39	42007.94
645.54	41518.76
645.69	41909.63
645.83	41677.92
645.98	41827.71
646.13	41858.14
646.27	41804.31
646.42	42052.41
646.57	41886.23
646.71	42031.34
646.86	41928.36
647.00	41808.99
647.15	41624.09
647.30	41647.49
647.44	41926.02
647.59	41972.83
647.74	41635.79
647.88	41736.43
648.03	41923.68
648.17	42101.56
648.32	41724.73
648.47	42050.06
648.61	41991.55
648.76	41537.49
648.90	41785.58
649.05	41481.31
649.20	41439.18
649.34	41666.22
649.49	41375.99
649.63	41556.21
649.78	41415.78
649.92	41521.10
650.07	42108.58
650.21	41790.27
650.36	41560.89
650.51	41305.77
650.65	41357.27
650.80	41724.73
650.94	41614.72
651.09	41350.24
651.23	41092.79
651.38	40907.88
651.52	40669.15
651.67	40964.06
651.81	41151.30
651.96	41518.76
652.10	40975.76
652.25	41041.29
652.39	40879.80
652.54	41551.53
652.68	41155.98
652.83	41099.81
652.97	41027.25
653.12	40842.35
653.26	40811.92
653.41	40767.45
653.55	41441.53
653.70	41174.70
653.84	41006.19
653.99	40547.44
654.13	40526.38
654.27	40921.93
654.42	40765.11
654.56	40650.42
654.71	40734.68
654.85	40711.28
655.00	40985.12
655.14	41081.08
655.29	40697.24
655.43	40509.99
655.57	40577.87
655.72	39749.32
655.86	40547.44
656.01	40367.22
656.15	40123.80
656.30	40184.66
656.44	40725.32
656.58	40257.21
656.73	40428.07
656.87	40060.61
657.01	40119.12
657.16	40259.55
657.30	40680.85
657.45	39950.60
657.59	40023.16
657.73	39695.49
657.88	39990.39
658.02	40304.02
658.16	40053.59
658.31	39856.98
658.45	40329.77
658.60	39423.98
658.74	39920.18
658.88	40027.84
659.03	39817.19
659.17	39501.22
659.31	39297.59
659.46	39105.67
659.60	39892.09
659.74	39491.86
659.89	39166.52
660.03	39143.12
660.17	39599.52
660.32	39192.27
660.46	39342.06
660.60	38639.90
660.74	39349.09
660.89	39108.01
661.03	38724.16
661.17	38906.73
661.32	38834.17
661.46	39075.24
661.60	38686.71
661.74	38581.39
661.89	38761.61
662.03	39262.49
662.17	38632.88
662.31	38328.61
662.46	38506.49
662.60	38293.50
662.74	38305.21
662.88	38326.27
663.03	37965.83
663.17	38022.00
663.31	38087.54
663.45	38359.04
663.60	38340.32
663.74	38038.39
663.88	38080.52
664.02	37851.14
664.17	38473.73
664.31	37993.92
664.45	37696.67
664.59	37724.75
664.73	37844.12
664.88	37282.39
665.02	37170.05
665.16	37385.38
665.30	37563.26
665.44	37673.26
665.59	37605.39
665.73	37160.69
665.87	37127.92
666.01	37394.74
666.15	37486.02
666.29	36858.76
666.44	37364.31
666.58	37024.93
666.72	37060.04
666.86	37041.32
667.00	36507.68
667.14	36769.82
667.28	36844.71
667.43	36638.75
667.57	36659.81
667.71	36589.59
667.85	37106.85
667.99	36369.58
668.13	36788.54
668.27	36423.42
668.41	36339.16
668.56	36208.09
668.70	35915.52
668.84	36086.38
668.98	35864.03
669.12	36322.77
669.26	36009.14
669.40	35978.72
669.54	35632.32
669.68	35934.24
669.82	35763.39
669.96	35524.65
670.10	35431.03
670.25	35807.86
670.39	35494.22
670.53	35749.34
670.67	35517.63
670.81	35435.71
670.95	35306.98
671.09	34878.66
671.23	34548.65
671.37	35318.68
671.51	35049.52
671.65	34890.37
671.79	34932.50
671.93	35040.16
672.07	34473.75
672.21	34628.23
672.35	34572.05
672.49	34513.54
672.63	34616.52
672.77	33895.64
672.91	34548.65
673.05	34452.69
673.19	33846.49
673.33	34213.95
673.47	33432.21
673.61	33771.59
673.75	33663.93
673.89	33745.84
674.03	33464.98
674.17	33668.61
674.31	33303.48
674.45	32966.45
674.59	33427.53
674.73	33207.52
674.87	33284.76
675.01	32978.15
675.15	32769.84
675.29	32943.04
675.43	32914.95
675.56	32720.69
675.70	32531.11
675.84	32273.65
675.98	31740.00
676.12	32121.51
676.26	32285.35
676.40	32077.04
676.54	31854.69
676.68	31957.67
676.82	31651.06
676.96	32128.53
677.10	31845.33
677.23	31857.03
677.37	31569.15
677.51	31445.10
677.65	31655.75
677.79	31454.46
677.93	31433.39
678.07	31344.45
678.21	31218.07
678.34	31016.78
678.48	30705.49
678.62	30792.09
678.76	30066.52
678.90	30536.97
679.04	30408.24
679.18	30602.50
679.31	30160.14
679.45	30426.96
679.59	30242.06
679.73	30108.65
679.87	29820.77
680.00	29919.07
680.14	30298.23
680.28	29476.71
680.42	29741.19
680.56	29429.90
680.70	29287.12
680.83	29338.62
680.97	29188.82
681.11	29118.60
681.25	28762.84
681.39	28538.15
681.52	28655.18
681.66	28599.01
681.80	27957.70
681.94	27875.78
682.07	28680.92
682.21	28325.16
682.35	28332.18
682.49	28112.17
682.62	28283.03
682.76	27740.03
682.90	28006.85
683.04	27880.46
683.17	27644.07
683.31	27517.68
683.45	27393.63
683.59	26890.41
683.72	27215.75
683.86	26948.93
684.00	27175.96
684.13	26941.91
684.27	27028.51
684.41	26494.86
684.55	26958.29
684.68	26515.93
684.82	26024.42
684.96	26354.43
685.09	26988.72
685.23	26466.78
685.37	26153.15
685.50	26232.72
685.64	26099.31
685.78	26008.03
685.91	25624.18
686.05	25734.19
686.19	25130.33
686.32	25448.64
686.46	24938.41
686.60	24943.09
686.73	24978.20
686.87	24877.55
687.01	25277.79
687.14	25174.80
687.28	24783.93
687.42	24931.39
687.55	24821.38
687.69	24589.67
687.82	24503.07
687.96	24416.47
688.10	24322.85
688.23	24439.87
688.37	24159.01
688.50	24343.91
688.64	24063.05
688.78	24107.52
688.91	23817.29
689.05	23754.10
689.18	23527.06
689.32	23019.17
689.46	23309.40
689.59	23328.12
689.73	23536.43
689.86	23187.69
690.00	23101.09
690.13	23213.43
690.27	22824.90
690.41	23061.30
690.54	22499.57
690.68	22429.35
690.81	22532.34
690.95	22319.35
691.08	22169.55
691.22	22157.85
691.35	21689.74
691.49	22462.12
691.62	21867.63
691.76	21465.05
691.89	21453.35
692.03	21446.33
692.16	21369.09
692.30	21345.69
692.43	21280.15
692.57	20947.79
692.70	21399.52
692.84	21018.01
692.97	20989.92
693.11	20936.09
693.24	20732.47
693.38	20790.98
693.51	20627.14
693.65	20772.25
693.78	20561.61
693.92	20264.36
694.05	20004.56
694.19	20144.99
694.32	20456.28
694.45	20374.36
694.59	20596.71
694.72	19999.88
694.86	19576.24
694.99	19597.31
695.13	19726.04
695.26	19646.46
695.39	19274.31
695.53	19353.89
695.66	19204.10
695.80	18771.10
695.93	19204.10
696.07	19014.51
696.20	18721.95
696.33	18523.00
696.47	18436.40
696.60	18354.48
696.73	18553.43
696.87	18815.57
697.00	18588.53
697.14	18075.96
697.27	17996.38
697.40	18090.00
697.54	18082.98
697.67	17881.69
697.80	18232.77
697.94	18129.79
698.07	17727.22
698.21	17617.21
698.34	17343.37
698.47	17488.48
698.61	17200.60
698.74	17121.02
698.87	17181.87
699.01	17104.64
699.14	17144.42
699.27	17153.79
699.40	17025.06
699.54	17048.46
699.67	16966.54
699.80	16793.34
699.94	16662.27
700.07	16652.91
700.20	16573.33
700.34	16369.71
700.47	16397.79
700.60	16460.99
700.73	16308.85
700.87	16081.82
701.00	15726.06
701.13	15761.17
701.26	15662.86
701.40	15779.89
701.53	15454.56
701.66	15845.43
701.79	15733.08
701.93	15470.94
702.06	15269.66
702.19	15407.75
702.32	15346.89
702.46	15218.16
702.59	15260.29
702.72	15124.54
702.85	15484.98
702.99	15073.05
703.12	15030.92
703.25	14740.69
703.38	14745.38
703.51	14813.25
703.65	14445.79
703.78	14176.62
703.91	14295.99
704.04	14160.24
704.17	14235.14
704.31	14157.90
704.44	14129.81
704.57	14019.81
704.70	14101.73
704.83	13731.92
704.96	13699.16
705.10	13699.16
705.23	13525.96
>>>>>End Processed Spectral Data<<<<<
