SpectraSuite Data File
++++++++++++++++++++++++++++++++++++
Date: Fri Oct 25 10:48:20 EDT 2013
User: price-jones
Dark Spectrum Present: No
Reference Spectrum Present: No
Number of Sampled Component Spectra: 1
Spectrometers: USB2+H05261
Integration Time (usec): 100000 (USB2+H05261)
Spectra Averaged: 1 (USB2+H05261)
Boxcar Smoothing: 0 (USB2+H05261)
Correct for Electrical Dark: No (USB2+H05261)
Strobe/Lamp Enabled: No (USB2+H05261)
Correct for Detector Non-linearity: No (USB2+H05261)
Correct for Stray Light: No (USB2+H05261)
Number of Pixels in Processed Spectrum: 2048
>>>>>Begin Processed Spectral Data<<<<<
365.73	215.33
365.92	215.33
366.12	215.33
366.32	30.43
366.52	81.92
366.72	0.00
366.91	0.00
367.11	35.11
367.31	9.36
367.51	35.11
367.70	77.24
367.90	77.24
368.10	30.43
368.30	74.90
368.49	28.09
368.69	112.35
368.89	74.90
369.09	93.62
369.28	88.94
369.48	32.77
369.68	77.24
369.87	70.22
370.07	65.54
370.27	152.13
370.47	238.73
370.66	362.78
370.86	472.79
371.06	493.85
371.25	540.66
371.45	503.22
371.65	482.15
371.84	514.92
372.04	531.30
372.24	575.77
372.44	486.83
372.63	533.64
372.83	561.73
373.03	606.20
373.22	493.85
373.42	514.92
373.62	550.03
373.81	559.39
374.01	517.26
374.21	650.67
374.40	564.07
374.60	578.11
374.79	587.47
374.99	653.01
375.19	538.32
375.38	638.97
375.58	669.39
375.78	634.29
375.97	660.03
376.17	725.57
376.37	671.73
376.56	634.29
376.76	615.56
376.95	627.26
377.15	699.82
377.35	760.67
377.54	723.23
377.74	657.69
377.93	674.07
378.13	638.97
378.33	688.12
378.52	662.37
378.72	725.57
378.91	720.88
379.11	615.56
379.31	643.65
379.50	631.94
379.70	802.80
379.89	837.91
380.09	711.52
380.28	713.86
380.48	753.65
380.68	725.57
380.87	784.08
381.07	793.44
381.26	737.27
381.46	739.61
381.65	748.97
381.85	805.14
382.04	744.29
382.24	744.29
382.43	692.80
382.63	758.33
382.83	720.88
383.02	760.67
383.22	741.95
383.41	767.70
383.61	751.31
383.80	809.83
384.00	823.87
384.19	847.27
384.39	856.64
384.58	851.96
384.78	889.40
384.97	901.11
385.17	842.59
385.36	882.38
385.56	814.51
385.75	898.77
385.95	863.66
386.14	903.45
386.34	880.04
386.53	901.11
386.72	875.36
386.92	987.71
387.11	978.34
387.31	915.15
387.50	870.68
387.70	978.34
387.89	987.71
388.09	947.92
388.28	908.13
388.48	896.43
388.67	968.98
388.86	1048.56
389.06	957.28
389.25	1006.43
389.45	1039.20
389.64	1032.18
389.84	1064.94
390.03	1057.92
390.22	1046.22
390.42	1015.79
390.61	1032.18
390.81	1069.62
391.00	1102.39
391.19	1207.72
391.39	1076.65
391.58	1064.94
391.78	1151.54
391.97	1165.59
392.16	1097.71
392.36	1116.44
392.55	1184.31
392.75	1086.01
392.94	1006.43
393.13	1078.99
393.33	1095.37
393.52	1050.90
393.71	1219.42
393.91	1090.69
394.10	1186.65
394.29	1217.08
394.49	1214.74
394.68	1231.12
394.88	1261.55
395.07	1320.06
395.26	1221.76
395.46	1350.49
395.65	1235.80
395.84	1359.85
396.04	1322.40
396.23	1198.35
396.42	1200.69
396.62	1289.64
396.81	1254.53
397.00	1261.55
397.19	1324.74
397.39	1343.47
397.58	1350.49
397.77	1444.11
397.97	1523.69
398.16	1493.26
398.35	1511.99
398.55	1561.14
398.74	1554.12
398.93	1687.53
399.12	1540.07
399.32	1591.56
399.51	1575.18
399.70	1675.82
399.90	1607.95
400.09	1687.53
400.28	1750.72
400.47	1631.35
400.67	1760.08
400.86	1757.74
401.05	1764.76
401.24	1783.49
401.44	1806.89
401.63	1837.32
401.82	1790.51
402.01	1750.72
402.21	1832.64
402.40	1944.99
402.59	1802.21
402.78	1823.28
402.97	1895.83
403.17	1853.70
403.36	1912.22
403.55	1909.88
403.74	2024.56
403.93	1916.90
404.13	2012.86
404.32	1952.01
404.51	1980.09
404.70	1982.43
404.89	2059.67
405.09	2080.74
405.28	2106.48
405.47	2038.61
405.66	1984.77
405.85	2059.67
406.05	2099.46
406.24	2012.86
406.43	2050.31
406.62	2179.04
406.81	2359.26
407.00	2022.22
407.20	2122.87
407.39	2218.83
407.58	2342.88
407.77	2275.00
407.96	2349.90
408.15	2392.03
408.34	2307.77
408.54	2377.98
408.73	2499.69
408.92	2382.67
409.11	2459.90
409.30	2342.88
409.49	2382.67
409.68	2342.88
409.87	2483.31
410.07	2459.90
410.26	2478.63
410.45	2417.77
410.64	2438.84
410.83	2583.95
411.02	2626.08
411.21	2813.32
411.40	2761.83
411.59	2574.59
411.78	2675.23
411.98	2738.43
412.17	2808.64
412.36	2773.53
412.55	2794.60
412.74	2799.28
412.93	2843.75
413.12	2890.56
413.31	3066.10
413.50	2874.18
413.69	2848.43
413.88	2995.89
414.07	3054.40
414.26	3178.45
414.45	3052.06
414.64	3155.04
414.83	3101.21
415.02	3112.91
415.22	3225.26
415.41	3251.00
415.60	3239.30
415.79	3428.88
415.98	3442.93
416.17	3440.59
416.36	3445.27
416.55	3463.99
416.74	3342.28
416.93	3435.91
417.12	3405.48
417.31	3534.21
417.50	3555.27
417.69	3632.51
417.88	3466.33
418.07	3574.00
418.26	3478.04
418.45	3637.19
418.64	3819.75
418.83	3772.94
419.02	3698.05
419.21	3784.65
419.39	3686.34
419.58	3716.77
419.77	3644.21
419.96	3808.05
420.15	3948.48
420.34	3864.22
420.53	4035.08
420.72	3803.37
420.91	3948.48
421.10	3946.14
421.29	3880.61
421.48	3901.67
421.67	4145.09
421.86	4084.23
422.05	3908.69
422.24	3896.99
422.43	3943.80
422.61	4102.96
422.80	4049.13
422.99	4049.13
423.18	4212.96
423.37	4241.05
423.56	4212.96
423.75	4032.74
423.94	3981.25
424.13	3796.35
424.32	3927.42
424.50	4109.98
424.69	4023.38
424.88	4196.58
425.07	4042.11
425.26	4145.09
425.45	4039.76
425.64	4100.62
425.83	4135.73
426.01	4205.94
426.20	4084.23
426.39	4379.14
426.58	4079.55
426.77	4060.83
426.96	4149.77
427.15	4140.41
427.33	4294.88
427.52	4266.80
427.71	4299.56
427.90	4269.14
428.09	4322.97
428.28	4252.75
428.46	4376.80
428.65	4320.63
428.84	4603.83
429.03	4442.34
429.22	4271.48
429.40	4280.84
429.59	4205.94
429.78	4147.43
429.97	4088.92
430.16	4224.67
430.34	4266.80
430.53	4358.08
430.72	4404.89
430.91	4383.82
431.10	4484.47
431.28	4770.01
431.47	4791.08
431.66	4884.70
431.85	4732.56
432.03	4861.29
432.22	4975.98
432.41	4910.44
432.60	4877.68
432.79	4835.55
432.97	4924.49
433.16	5046.20
433.35	4842.57
433.54	4912.78
433.72	5001.72
433.91	4919.81
434.10	5055.56
434.28	4971.30
434.47	5083.64
434.66	5142.16
434.85	5329.40
435.03	5245.14
435.22	5231.10
435.41	5373.87
435.59	5149.18
435.78	5224.08
435.97	5184.29
436.16	5135.14
436.34	5446.43
436.53	5357.49
436.72	5310.68
436.90	5298.97
437.09	5263.86
437.28	5376.21
437.46	5420.68
437.65	5296.63
437.84	5336.42
438.02	5280.25
438.21	5446.43
438.40	5444.09
438.58	5811.55
438.77	5678.14
438.96	5692.18
439.14	5703.89
439.33	5865.38
439.52	5785.80
439.70	5895.81
439.89	5912.19
440.08	5886.45
440.26	5970.71
440.45	5954.32
440.63	6054.97
440.82	6375.62
441.01	6115.82
441.19	6090.07
441.38	6279.66
441.57	6352.21
441.75	6466.90
441.94	6590.95
442.12	6436.47
442.31	6710.32
442.50	6628.40
442.68	6476.26
442.87	6626.06
443.05	6705.63
443.24	6913.94
443.43	6663.51
443.61	6637.76
443.80	6906.92
443.98	6679.89
444.17	6504.35
444.35	6623.72
444.54	6920.96
444.73	6768.83
444.91	6740.74
445.10	6787.55
445.28	6656.48
445.47	6764.15
445.65	6691.59
445.84	6775.85
446.02	6918.62
446.21	7037.99
446.39	6892.88
446.58	6918.62
446.77	7110.55
446.95	6810.96
447.14	7061.40
447.32	7070.76
447.51	7033.31
447.69	6881.18
447.88	6979.48
448.06	6883.52
448.25	6939.69
448.43	7063.74
448.62	7063.74
448.80	6913.94
448.99	6939.69
449.17	7070.76
449.36	7183.10
449.54	7180.76
449.73	7339.92
449.91	7447.58
450.10	7269.70
450.28	7541.21
450.46	7592.70
450.65	7581.00
450.83	7630.15
451.02	7419.50
451.20	7653.55
451.39	7691.00
451.57	7494.40
451.76	7520.14
451.94	7524.82
452.13	7688.66
452.31	7655.89
452.49	7482.69
452.68	7433.54
452.86	7597.38
453.05	7616.10
453.23	7571.63
453.42	7517.80
453.60	7683.98
453.78	7866.54
453.97	7709.72
454.15	7730.79
454.34	7716.75
454.52	7831.43
454.70	7756.54
454.89	7913.35
455.07	7901.65
455.26	8067.83
455.44	8046.76
455.62	7953.14
455.81	8142.72
455.99	8072.51
456.17	8035.06
456.36	8037.40
456.54	8189.53
456.73	8369.76
456.91	8395.50
457.09	8379.12
457.28	8554.66
457.46	8470.40
457.64	8585.08
457.83	8416.57
458.01	8177.83
458.19	8608.49
458.38	8430.61
458.56	8573.38
458.74	8428.27
458.93	8386.14
459.11	8594.45
459.29	8423.59
459.48	8713.81
459.66	8805.10
459.84	8793.39
460.03	8863.61
460.21	8842.54
460.39	8765.31
460.57	8990.00
460.76	8940.85
460.94	8971.27
461.12	8938.51
461.31	9177.24
461.49	8903.40
461.67	9025.11
461.85	9102.34
462.04	9104.68
462.22	9418.32
462.40	9202.99
462.59	9268.52
462.77	9053.19
462.95	9352.78
463.13	9507.26
463.32	9329.38
463.50	9282.56
463.68	9497.89
463.86	9263.84
464.05	9195.96
464.23	9050.85
464.41	9397.25
464.59	9338.74
464.78	9420.66
464.96	9465.13
465.14	9359.80
465.32	9598.54
465.50	9689.82
465.69	9572.79
465.87	9631.30
466.05	9771.74
466.23	9509.60
466.41	9549.39
466.60	9727.27
466.78	9724.93
466.96	9596.20
467.14	9666.41
467.32	10157.92
467.51	9809.19
467.69	9462.79
467.87	9753.01
468.05	9956.64
468.23	9753.01
468.41	9884.08
468.60	10038.56
468.78	10036.22
468.96	9710.88
469.14	9954.30
469.32	10010.47
469.50	9708.54
469.69	10204.74
469.87	10218.78
470.05	10104.09
470.23	10260.91
470.41	10214.10
470.59	10296.02
470.77	10314.74
470.95	10284.31
471.14	10494.96
471.32	10457.51
471.50	10700.93
471.68	10736.04
471.86	10806.25
472.04	10965.41
472.22	11222.87
472.40	10668.16
472.58	10829.66
472.77	10745.40
472.95	10958.39
473.13	11236.91
473.31	10654.12
473.49	11183.08
473.67	11108.18
473.85	10918.60
474.03	11407.77
474.21	11140.95
474.39	11349.26
474.57	11424.15
474.75	11648.85
474.93	11648.85
475.12	11634.80
475.30	11690.98
475.48	11405.43
475.66	11723.74
475.84	11747.15
476.02	11676.93
476.20	11976.52
476.38	12187.17
476.56	12152.06
476.74	12285.47
476.92	12250.36
477.10	12304.20
477.28	12517.18
477.46	12514.84
477.64	12571.02
477.82	12854.22
478.00	13029.76
478.18	12835.50
478.36	12950.18
478.54	12989.97
478.72	13446.38
478.90	13579.79
479.08	13596.17
479.26	13540.00
479.44	13685.11
479.62	13870.01
479.80	13790.44
479.98	14036.19
480.16	14181.31
480.34	14080.66
480.52	14181.31
480.70	14361.53
480.88	14118.11
481.06	14314.72
481.24	14272.59
481.41	14686.86
481.59	14998.15
481.77	15063.69
481.95	14946.66
482.13	15070.71
482.31	15047.30
482.49	15693.29
482.67	15255.61
482.85	15707.34
483.03	15536.48
483.21	15939.05
483.39	15946.07
483.57	16013.95
483.74	16194.17
483.92	16168.42
484.10	16175.44
484.28	16477.37
484.46	16716.11
484.64	16945.48
484.82	16655.25
485.00	16915.05
485.18	16734.83
485.35	17095.27
485.53	16641.21
485.71	16851.86
485.89	17057.82
486.07	17130.38
486.25	17224.00
486.43	17378.48
486.61	17682.75
486.78	17783.39
486.96	17848.93
487.14	18204.69
487.32	18258.52
487.50	18532.36
487.68	18743.01
487.85	19274.31
488.03	19281.33
488.21	19211.12
488.39	18951.32
488.57	19410.06
488.75	19325.80
488.92	19955.41
489.10	20042.01
489.28	20187.12
489.46	20400.11
489.64	20409.47
489.81	20779.28
489.99	21104.61
490.17	20964.18
490.35	20957.16
490.53	21195.89
490.70	21425.26
490.88	21383.13
491.06	21490.80
491.24	21568.04
491.41	21018.01
491.59	21696.77
491.77	21132.70
491.95	21628.89
492.13	22242.11
492.30	22429.35
492.48	22405.95
492.66	22845.97
492.84	23030.87
493.01	23002.78
493.19	22967.68
493.37	22925.55
493.54	23183.01
493.72	23297.69
493.90	23421.74
494.08	23601.96
494.25	23910.91
494.43	24137.94
494.61	24308.80
494.79	24348.59
494.96	24276.04
495.14	24519.45
495.32	24737.12
495.49	24673.93
495.67	24608.39
495.85	24966.49
496.02	25310.55
496.20	25605.46
496.38	25441.62
496.55	25518.86
496.73	25860.58
496.91	25750.57
497.09	26129.74
497.26	26223.36
497.44	25900.37
497.62	26178.89
497.79	26356.77
497.97	26017.40
498.14	26321.66
498.32	26906.80
498.50	26630.62
498.67	26527.63
498.85	27065.96
499.03	26913.82
499.20	27136.17
499.38	27817.27
499.56	27566.83
499.73	27737.69
499.91	27428.74
500.08	27630.02
500.26	27157.24
500.44	27637.05
500.61	27545.76
500.79	27927.27
500.97	27728.33
501.14	28236.22
501.32	28173.03
501.49	27791.52
501.67	27995.15
501.84	28407.08
502.02	28121.54
502.20	28704.33
502.37	28919.66
502.55	28966.47
502.72	29102.22
502.90	29237.97
503.07	28868.17
503.25	29420.53
503.43	28945.41
503.60	29195.84
503.78	29275.42
503.95	29305.85
504.13	29434.58
504.30	29745.87
504.48	29532.88
504.65	29724.80
504.83	30249.08
505.01	30267.81
505.18	29881.62
505.36	30534.63
505.53	30649.32
505.71	30972.31
505.88	31309.35
506.06	30719.53
506.23	30646.97
506.41	30848.26
506.58	30845.92
506.76	30841.24
506.93	31267.22
507.11	31192.32
507.28	31112.74
507.46	31119.76
507.63	31159.55
507.81	31101.04
507.98	31234.45
508.16	31339.77
508.33	31424.03
508.50	32032.57
508.68	31878.10
508.85	31917.89
509.03	32149.60
509.20	32582.60
509.38	32671.54
509.55	32423.44
509.73	32364.93
509.90	32774.52
510.08	32879.85
510.25	32393.01
510.42	32659.84
510.60	32994.53
510.77	33003.89
510.95	33490.73
511.12	33221.56
511.30	32900.91
511.47	33614.77
511.64	33235.61
511.82	33647.54
511.99	33139.65
512.17	33738.82
512.34	33177.09
512.51	33752.87
512.69	33675.63
512.86	33680.31
513.04	33982.24
513.21	33825.42
513.38	33930.75
513.56	33865.21
513.73	33724.78
513.90	34265.44
514.08	34052.45
514.25	34401.19
514.43	34696.10
514.60	34394.17
514.77	34246.72
514.95	35297.62
515.12	34686.74
515.29	34731.21
515.47	35374.86
515.64	35356.13
515.81	34714.83
515.99	34932.50
516.16	34953.56
516.33	34998.03
516.51	34930.16
516.68	34211.61
516.85	34239.70
517.03	34775.68
517.20	35199.32
517.37	35007.39
517.54	35314.00
517.72	35220.38
517.89	35093.99
518.06	35384.22
518.24	35040.16
518.41	35367.84
518.58	35754.02
518.75	35328.05
518.93	36552.15
519.10	35845.30
519.27	36367.24
519.45	36135.53
519.62	36416.40
519.79	36510.02
519.96	36699.60
520.14	36664.49
520.31	36304.05
520.48	36950.04
520.65	36694.92
520.83	37280.05
521.00	37020.25
521.17	37043.66
521.34	36940.68
521.52	37331.54
521.69	37794.97
521.86	38012.64
522.03	37532.83
522.20	37926.04
522.38	37816.04
522.55	37645.18
522.72	37481.34
522.89	37308.14
523.07	37724.75
523.24	37996.26
523.41	37862.85
523.58	38106.26
523.75	38459.68
523.92	38466.70
524.10	38476.07
524.27	38550.96
524.44	38485.43
524.61	38721.82
524.78	38433.94
524.96	38953.54
525.13	38775.66
525.30	39009.71
525.47	39285.89
525.64	39283.55
525.81	38946.51
525.98	38710.12
526.16	38707.78
526.33	38206.90
526.50	39168.87
526.67	38656.29
526.84	38623.52
527.01	38672.67
527.18	38700.76
527.36	39210.99
527.53	39519.95
527.70	40069.97
527.87	40016.14
528.04	39805.49
528.21	39739.96
528.38	39445.05
528.55	40133.17
528.72	40175.30
528.89	40105.08
529.07	39775.06
529.24	39995.07
529.41	39749.32
529.58	39749.32
529.75	40229.13
529.92	40222.11
530.09	39964.65
530.26	40631.70
530.43	40961.72
530.60	40201.04
530.77	40130.83
530.94	40701.92
531.11	40659.79
531.28	40746.39
531.46	40566.16
531.63	41471.95
531.80	40638.72
531.97	40971.08
532.14	40680.85
532.31	40549.78
532.48	40942.99
532.65	40774.47
532.82	40655.11
532.99	41359.61
533.16	41090.44
533.33	41542.17
533.50	41385.35
533.67	40802.56
533.84	40886.82
534.01	41567.91
534.18	41776.22
534.35	42021.98
534.52	41324.50
534.69	41563.23
534.86	41867.50
535.03	41638.13
535.20	42398.80
535.37	42218.58
535.54	42178.79
535.71	42057.09
535.88	42061.77
536.05	41759.84
536.22	41858.14
536.38	41907.29
536.55	41785.58
536.72	41872.18
536.89	41720.05
537.06	42232.63
537.23	42384.76
537.40	42169.43
537.57	42595.41
537.74	41853.46
537.91	42813.08
538.08	42574.34
538.25	42328.59
538.42	42614.13
538.59	42965.21
538.75	42136.66
538.92	42389.44
539.09	42459.66
539.26	42445.62
539.43	42300.50
539.60	42653.92
539.77	42536.90
539.94	42789.67
540.11	42639.88
540.28	42623.50
540.44	42295.82
540.61	42693.71
540.78	42527.53
540.95	42705.41
541.12	42564.98
541.29	42920.74
541.46	42981.60
541.62	43463.75
541.79	43372.47
541.96	42679.67
542.13	43203.95
542.30	43428.64
542.47	43122.03
542.63	43196.93
542.80	43295.23
542.97	44051.22
543.14	44062.93
543.31	43725.89
543.48	43739.93
543.64	44395.28
543.81	44231.44
543.98	44512.31
544.15	44289.96
544.32	44460.82
544.48	44168.25
544.65	44388.26
544.82	44048.88
544.99	44219.74
545.16	44236.12
545.32	44177.61
545.49	44493.58
545.66	44460.82
545.83	44261.87
546.00	44879.77
546.16	44669.12
546.33	44601.25
546.50	44013.77
546.67	44664.44
546.83	44217.40
547.00	44402.30
547.17	44334.43
547.34	44423.37
547.50	44669.12
547.67	44851.69
547.84	44491.24
548.00	45102.12
548.17	44973.39
548.34	44680.83
548.51	45275.32
548.67	45549.17
548.84	44921.90
549.01	44832.96
549.18	45401.71
549.34	45181.70
549.51	45095.10
549.68	45195.74
549.84	45130.21
550.01	44839.98
550.18	45331.50
550.34	45371.28
550.51	45434.48
550.68	44854.03
550.84	44849.35
551.01	45420.44
551.18	45141.91
551.34	45074.04
551.51	45631.08
551.68	45294.05
551.84	45516.40
552.01	45296.39
552.18	45605.34
552.34	45511.72
552.51	45495.33
552.68	45448.52
552.84	46036.00
553.01	46050.04
553.18	45860.46
553.34	45717.68
553.51	45390.01
553.67	45787.90
553.84	46017.27
554.01	45530.44
554.17	46148.34
554.34	45537.46
554.51	45984.51
554.67	46295.80
554.84	46213.88
555.00	46248.99
555.17	45907.27
555.33	46064.08
555.50	45933.01
555.67	45773.86
555.83	46134.30
556.00	46387.08
556.16	46150.68
556.33	46146.00
556.50	46148.34
556.66	46307.50
556.83	46007.91
556.99	46323.88
557.16	46520.49
557.32	46398.78
557.49	46550.91
557.65	46281.75
557.82	46246.65
557.98	46218.56
558.15	46553.26
558.32	46485.38
558.48	46190.47
558.65	46347.29
558.81	46525.17
558.98	46232.60
559.14	46527.51
559.31	46384.74
559.47	46391.76
559.64	46581.34
559.80	46394.10
559.97	46581.34
560.13	46436.23
560.30	47004.98
560.46	46689.01
560.63	46707.73
560.79	46946.47
560.96	46976.89
561.12	46665.60
561.29	46696.03
561.45	46822.42
561.61	46766.24
561.78	46539.21
561.94	46450.27
562.11	46791.99
562.27	46621.13
562.44	46852.84
562.60	47208.61
562.77	47016.68
562.93	46838.80
563.10	47159.45
563.26	46747.52
563.42	46953.49
563.59	46653.90
563.75	46473.68
563.92	47175.84
564.08	46948.81
564.24	47138.39
564.41	46965.19
564.57	46782.63
564.74	46686.67
564.90	46993.28
565.07	47086.90
565.23	46787.31
565.39	46965.19
565.56	47065.83
565.72	46742.84
565.88	46733.48
566.05	46913.70
566.21	46974.55
566.38	47040.09
566.54	47138.39
566.70	46967.53
566.87	47346.70
567.03	47012.00
567.19	47234.35
567.36	47342.02
567.52	46754.54
567.68	47594.79
567.85	46651.56
568.01	47206.26
568.17	47065.83
568.34	47210.95
568.50	47047.11
568.66	47388.83
568.83	46913.70
568.99	47103.28
569.15	47086.90
569.32	47079.88
569.48	47257.76
569.64	47276.48
569.81	47166.48
569.97	47360.74
570.13	46911.36
570.30	47033.07
570.46	46742.84
570.62	46855.18
570.78	46899.65
570.95	47002.64
571.11	47337.33
571.27	47143.07
571.43	47323.29
571.60	46887.95
571.76	47140.73
571.92	47430.96
572.09	47531.60
572.25	47519.90
572.41	46995.62
572.57	47014.34
572.74	47281.16
572.90	47522.24
573.06	47386.49
573.22	47669.69
573.38	46946.47
573.55	47161.79
573.71	47484.79
573.87	47363.08
574.03	47131.37
574.20	47470.75
574.36	47079.88
574.52	47351.38
574.68	47320.95
574.84	47140.73
575.01	46997.96
575.17	46960.51
575.33	46965.19
575.49	47215.63
575.65	47587.77
575.82	47704.80
575.98	47412.23
576.14	47592.45
576.30	47327.97
576.46	47110.30
576.62	47185.20
576.79	47122.01
576.95	47028.38
577.11	47461.38
577.27	47402.87
577.43	47260.10
577.59	47533.94
577.75	47358.40
577.92	47086.90
578.08	46742.84
578.24	46981.57
578.40	47332.65
578.56	47084.56
578.72	47576.07
578.88	47480.11
579.04	47533.94
579.21	47501.17
579.37	47505.85
579.53	47157.11
579.69	47381.80
579.85	47700.12
580.01	47763.31
580.17	47538.62
580.33	47093.92
580.49	47491.81
580.65	47650.97
580.82	47522.24
580.98	47278.82
581.14	46941.78
581.30	47555.00
581.46	47665.01
581.62	47842.89
581.78	47402.87
581.94	47655.65
582.10	47592.45
582.26	47363.08
582.42	47494.15
582.58	47737.57
582.74	47763.31
582.90	47566.71
583.06	47454.36
583.22	47304.57
583.38	47686.07
583.54	47615.86
583.70	47468.40
583.86	47356.06
584.02	47075.19
584.18	47676.71
584.34	47505.85
584.50	47688.42
584.66	47526.92
584.82	47267.12
584.98	47388.83
585.14	47615.86
585.30	47477.77
585.46	47669.69
585.62	47049.45
585.78	47131.37
585.94	46951.15
586.10	47089.24
586.26	47187.54
586.42	47437.98
586.58	47817.14
586.74	47700.12
586.90	47061.15
587.06	46979.23
587.22	47805.44
587.38	47440.32
587.54	47931.83
587.70	47882.68
587.86	47276.48
588.02	47679.05
588.18	47395.85
588.34	47248.39
588.49	46681.98
588.65	46579.00
588.81	47154.77
588.97	47030.72
589.13	46401.12
589.29	47529.26
589.45	47166.48
589.61	47381.80
589.77	47199.24
589.93	47885.02
590.08	47606.50
590.24	47683.73
590.40	47737.57
590.56	47608.84
590.72	47550.32
590.88	47540.96
591.04	47540.96
591.20	47753.95
591.35	47536.28
591.51	47866.30
591.67	47641.60
591.83	47913.11
591.99	47381.80
592.15	47248.39
592.31	47646.29
592.46	47573.73
592.62	47023.70
592.78	47285.84
592.94	47707.14
593.10	47545.64
593.26	47866.30
593.41	47267.12
593.57	47686.07
593.73	47442.66
593.89	47482.45
594.05	47679.05
594.20	47751.61
594.36	47281.16
594.52	47620.54
594.68	47540.96
594.84	47463.72
594.99	48011.41
595.15	47309.25
595.31	48039.50
595.47	47576.07
595.62	47372.44
595.78	47700.12
595.94	47681.39
596.10	47662.67
596.25	47870.98
596.41	47882.68
596.57	47718.84
596.73	47606.50
596.88	47475.43
597.04	47786.72
597.20	47767.99
597.36	47856.93
597.51	48011.41
597.67	47466.06
597.83	47735.23
597.99	47594.79
598.14	47583.09
598.30	47814.80
598.46	47770.33
598.61	48053.54
598.77	47325.63
598.93	47798.42
599.09	47913.11
599.24	48376.53
599.40	47711.82
599.56	47749.27
599.71	47632.24
599.87	47679.05
600.03	47435.64
600.18	47491.81
600.34	47374.78
600.50	47578.41
600.65	47489.47
600.81	47814.80
600.97	47831.19
601.12	47880.34
601.28	47470.75
601.44	47753.95
601.59	47538.62
601.75	47103.28
601.91	47428.62
602.06	47217.97
602.22	48121.41
602.37	47480.11
602.53	47611.18
602.69	47913.11
602.84	47576.07
603.00	47711.82
603.16	47470.75
603.31	47398.19
603.47	47686.07
603.62	47482.45
603.78	47763.31
603.94	47536.28
604.09	47709.48
604.25	47463.72
604.40	47529.26
604.56	47966.94
604.71	47639.26
604.87	47262.44
605.03	47426.28
605.18	47468.40
605.34	47585.43
605.49	47248.39
605.65	47318.61
605.80	47056.47
605.96	47590.11
606.12	47674.37
606.27	47796.08
606.43	47306.91
606.58	47590.11
606.74	47688.42
606.89	46967.53
607.05	47459.04
607.20	47267.12
607.36	47503.51
607.51	47501.17
607.67	47496.49
607.82	47150.09
607.98	47077.54
608.13	46941.78
608.29	47217.97
608.44	46775.61
608.60	46408.14
608.75	46494.74
608.91	46859.87
609.06	46808.37
609.22	47498.83
609.37	46820.08
609.53	47253.08
609.68	47082.22
609.84	47082.22
609.99	47138.39
610.15	47068.17
610.30	46997.96
610.46	46696.03
610.61	47164.14
610.76	47276.48
610.92	46808.37
611.07	46518.15
611.23	46801.35
611.38	47122.01
611.54	46864.55
611.69	46597.73
611.84	46628.15
612.00	46925.40
612.15	46164.73
612.31	46981.57
612.46	46719.43
612.62	47178.18
612.77	46862.21
612.92	47215.63
613.08	46831.78
613.23	46773.27
613.39	46536.87
613.54	46342.61
613.69	46567.30
613.85	46660.92
614.00	46754.54
614.15	46349.63
614.31	46597.73
614.46	46396.44
614.62	46841.14
614.77	46415.16
614.92	46504.10
615.08	46082.81
615.23	46464.32
615.38	46101.53
615.54	45886.20
615.69	46438.57
615.84	45823.01
616.00	46007.91
616.15	45872.16
616.30	46211.54
616.46	46066.42
616.61	45666.19
616.76	46038.34
616.92	45935.35
617.07	45874.50
617.22	46061.74
617.37	46356.65
617.53	46178.77
617.68	46061.74
617.83	46382.40
617.99	46286.43
618.14	45933.01
618.29	46321.54
618.45	45450.86
618.60	46028.98
618.75	45523.42
618.90	46134.30
619.06	45869.82
619.21	45638.11
619.36	46394.10
619.51	45610.02
619.67	45371.28
619.82	45991.53
619.97	46237.28
620.12	45528.10
620.28	45385.33
620.43	45457.88
620.58	45394.69
620.73	45460.23
620.89	45464.91
621.04	45759.81
621.19	45214.47
621.34	45462.57
621.49	45319.79
621.65	45326.81
621.80	45064.67
621.95	44900.84
622.10	45202.77
622.25	45212.13
622.41	45071.70
622.56	45212.13
622.71	45397.03
622.86	45368.94
623.01	45113.83
623.16	45067.02
623.32	45251.92
623.47	45221.49
623.62	45282.34
623.77	45343.20
623.92	45127.87
624.07	44622.31
624.23	44816.58
624.38	44753.38
624.53	44467.84
624.68	44896.16
624.83	44650.40
624.98	45038.93
625.13	44425.71
625.29	44465.50
625.44	44704.23
625.59	44318.04
625.74	44594.23
625.89	44079.31
626.04	44172.93
626.19	44318.04
626.34	44458.48
626.49	44460.82
626.65	44093.35
626.80	44528.69
626.95	44203.36
627.10	44215.06
627.25	43945.90
627.40	44135.48
627.55	43550.35
627.70	43913.13
627.85	43414.60
628.00	43732.91
628.15	44041.86
628.30	43833.55
628.45	44018.46
628.60	43674.40
628.76	44105.06
628.91	43700.14
629.06	43871.00
629.21	43840.57
629.36	43793.76
629.51	43674.40
629.66	43257.78
629.81	43540.99
629.96	43835.89
630.11	43845.26
630.26	43765.68
630.41	43990.37
630.56	43482.47
630.71	43632.27
630.86	43299.91
631.01	43246.08
631.16	43508.22
631.31	42824.78
631.46	43075.22
631.61	43213.31
631.76	43283.53
631.91	43412.26
632.06	43517.58
632.21	43510.56
632.36	43332.68
632.51	43302.25
632.66	43398.21
632.81	43173.52
632.96	43381.83
633.10	42962.87
633.25	43189.91
633.40	43215.65
633.55	43084.58
633.70	43400.55
633.85	43091.60
634.00	43325.66
634.15	42815.42
634.30	43208.63
634.45	43133.73
634.60	42642.22
634.75	42981.60
634.90	42813.08
635.05	43054.15
635.19	43264.80
635.34	43461.41
635.49	42614.13
635.64	42754.57
635.79	42541.58
635.94	42787.33
636.09	42012.62
636.24	42071.13
636.39	42384.76
636.53	42408.17
636.68	42153.05
636.83	42185.82
636.98	42557.96
637.13	42731.16
637.28	42899.68
637.43	42483.06
637.57	43061.18
637.72	42815.42
637.87	42504.13
638.02	42820.10
638.17	42384.76
638.32	42024.32
638.46	42319.23
638.61	42246.67
638.76	42054.75
638.91	42293.48
639.06	42045.38
639.20	42263.05
639.35	42169.43
639.50	42129.64
639.65	41926.02
639.80	41895.59
639.94	42162.41
640.09	42094.53
640.24	41921.34
640.39	41593.66
640.54	41572.60
640.68	41904.95
640.83	41958.78
640.98	41593.66
641.13	41649.83
641.27	42033.68
641.42	41354.93
641.57	41745.80
641.72	41603.02
641.86	41500.04
642.01	41434.50
642.16	41375.99
642.31	40910.22
642.45	41490.68
642.60	41120.87
642.75	41340.88
642.90	41268.33
643.04	41331.52
643.19	40811.92
643.34	41322.16
643.48	41598.34
643.63	41212.15
643.78	41263.64
643.93	40795.54
644.07	41074.06
644.22	41139.60
644.37	40788.52
644.51	41179.39
644.66	41078.74
644.81	41228.54
644.95	41139.60
645.10	40886.82
645.25	41062.36
645.39	41158.32
645.54	41322.16
645.69	40933.63
645.83	41191.09
645.98	40673.83
646.13	41137.26
646.27	41181.73
646.42	40444.46
646.57	40987.46
646.71	40650.42
646.86	40521.69
647.00	40905.54
647.15	40341.47
647.30	40776.81
647.44	40306.37
647.59	40907.88
647.74	40301.68
647.88	40116.78
648.03	40044.23
648.17	40123.80
648.32	40093.38
648.47	40547.44
648.61	39964.65
648.76	40175.30
648.90	40301.68
649.05	40240.83
649.20	40416.37
649.34	40264.24
649.49	39849.96
649.63	40196.36
649.78	40336.79
649.92	39964.65
650.07	40526.38
650.21	39913.16
650.36	40135.51
650.51	39779.74
650.65	40643.40
650.80	40390.62
650.94	40446.80
651.09	40023.16
651.23	39714.21
651.38	39557.39
651.52	39718.89
651.67	39920.18
651.81	39969.33
651.96	39756.34
652.10	39849.96
652.25	39522.29
652.39	39232.06
652.54	39452.07
652.68	40041.88
652.83	39379.51
652.97	39676.76
653.12	39585.48
653.26	39529.31
653.41	39842.94
653.55	39103.33
653.70	39470.79
653.84	39548.03
653.99	39491.86
654.13	39580.80
654.27	39234.40
654.42	39180.57
654.56	39274.19
654.71	39302.28
654.85	39023.75
655.00	39023.75
655.14	39028.43
655.29	38609.48
655.43	38515.86
655.57	38625.86
655.72	38337.98
655.86	38370.74
656.01	38703.10
656.15	38258.40
656.30	38625.86
656.44	38359.04
656.58	38476.07
656.73	38471.39
656.87	38164.78
657.01	38190.52
657.16	38532.24
657.30	38361.38
657.45	38242.01
657.59	38576.71
657.73	38602.46
657.88	38401.17
658.02	38347.34
658.16	38345.00
658.31	38600.12
658.45	38309.89
658.60	38096.90
658.74	38167.12
658.88	38075.84
659.03	37963.49
659.17	37907.32
659.31	38239.67
659.46	37834.76
659.60	38211.59
659.74	38136.69
659.89	37769.22
660.03	37640.50
660.17	38005.62
660.32	38036.05
660.46	37766.88
660.60	37904.98
660.74	37797.31
660.89	37776.25
661.03	37326.86
661.17	37329.20
661.32	37291.76
661.46	37244.94
661.60	37378.36
661.74	37013.23
661.89	37577.30
662.03	37392.40
662.17	37022.59
662.31	37191.11
662.46	37371.33
662.60	37151.32
662.74	36891.52
662.88	37034.30
663.03	36662.15
663.17	36704.28
663.31	37024.93
663.45	37081.11
663.60	36708.96
663.74	36474.91
663.88	36542.78
664.02	36531.08
664.17	36575.55
664.31	36390.65
664.45	36638.75
664.59	36463.21
664.73	36311.07
664.88	36367.24
665.02	36348.52
665.16	36371.92
665.30	36053.61
665.44	36336.82
665.59	35831.26
665.73	35824.24
665.87	35641.68
666.01	35559.76
666.15	35606.57
666.29	35899.14
666.44	36070.00
666.58	35564.44
666.72	35599.55
666.86	35714.23
667.00	35908.50
667.14	35232.08
667.28	35250.81
667.43	35370.18
667.57	35435.71
667.71	34843.56
667.85	35384.22
667.99	34646.95
668.13	34665.67
668.27	34796.74
668.41	35276.55
668.56	34405.88
668.70	35189.95
668.84	34499.50
668.98	34817.81
669.12	35030.80
669.26	34745.25
669.40	34621.20
669.54	34614.18
669.68	34934.84
669.82	34218.63
669.96	33947.13
670.10	33926.07
670.25	34307.57
670.39	34440.98
670.53	34155.44
670.67	34361.40
670.81	34045.43
670.95	34171.82
671.09	34452.69
671.23	34288.85
671.37	33951.81
671.51	33890.96
671.65	33682.65
671.79	33390.08
671.93	33481.36
672.07	33528.17
672.21	33254.33
672.35	33156.03
672.49	33078.79
672.63	33319.87
672.77	33010.92
672.91	33090.49
673.05	33184.12
673.19	33071.77
673.33	33003.89
673.47	32947.72
673.61	32783.88
673.75	32236.20
673.89	32285.35
674.03	31866.39
674.17	32315.78
674.31	32098.11
674.45	32077.04
674.59	32622.39
674.73	32275.99
674.87	32393.01
675.01	32037.25
675.15	32285.35
675.29	31859.37
675.43	31936.61
675.56	31758.73
675.70	31515.31
675.84	31299.98
675.98	30756.98
676.12	31337.43
676.26	31438.08
676.40	31037.84
676.54	31030.82
676.68	31508.29
676.82	30621.23
676.96	30976.99
677.10	30546.33
677.23	30469.09
677.37	30841.24
677.51	30581.44
677.65	30558.03
677.79	30115.67
677.93	30663.36
678.07	29963.54
678.21	29851.19
678.34	30132.06
678.48	29710.76
678.62	29975.24
678.76	29692.04
678.90	29415.85
679.04	29567.99
679.18	29596.07
679.31	29336.27
679.45	28891.57
679.59	28985.19
679.73	29191.16
679.87	29457.98
680.00	28982.85
680.14	28793.27
680.28	28624.75
680.42	28535.81
680.56	28463.25
680.70	28355.59
680.83	28425.81
680.97	28116.86
681.11	28070.04
681.25	28210.48
681.39	28025.57
681.52	28128.56
681.66	27974.08
681.80	27538.74
681.94	27637.05
682.07	27681.52
682.21	27590.24
682.35	27234.47
682.49	27456.82
682.62	27276.60
682.76	27208.73
682.90	27124.47
683.04	26764.03
683.17	26995.74
683.31	26649.34
683.45	26911.48
683.59	26452.73
683.72	26534.65
683.86	26466.78
684.00	26579.12
684.13	26459.76
684.27	26045.48
684.41	26515.93
684.55	25982.29
684.68	25881.64
684.82	25741.21
684.96	25678.02
685.09	25509.50
685.23	25685.04
685.37	25572.69
685.50	26010.37
685.64	25362.04
685.78	25280.13
685.91	25184.16
686.05	25385.45
686.19	25355.02
686.32	24858.83
686.46	24442.21
686.60	24233.91
686.73	24077.09
686.87	23992.83
687.01	24233.91
687.14	23817.29
687.28	23929.64
687.42	23723.67
687.55	23307.05
687.69	23810.27
687.82	23880.49
687.96	23744.73
688.10	23482.59
688.23	23229.82
688.37	23290.67
688.50	22958.31
688.64	22855.33
688.78	22902.14
688.91	22719.58
689.05	22661.07
689.18	22438.72
689.32	22452.76
689.46	22614.26
689.59	22579.15
689.73	22642.34
689.86	22485.53
690.00	22487.87
690.13	23175.98
690.27	22331.05
690.41	22541.70
690.54	21937.84
690.68	22015.08
690.81	21743.58
690.95	21834.86
691.08	21710.81
691.22	21706.13
691.35	21380.79
691.49	21720.17
691.62	21553.99
691.76	21542.29
691.89	21633.57
692.03	21312.92
692.16	21329.30
692.30	21046.10
692.43	21188.87
692.57	20973.54
692.70	20840.13
692.84	20577.99
692.97	20556.93
693.11	20510.11
693.24	20594.37
693.38	20180.10
693.51	19924.98
693.65	20194.14
693.78	20554.58
693.92	20365.00
694.05	19903.92
694.19	19763.48
694.32	19906.26
694.45	19854.76
694.59	19838.38
694.72	19548.15
694.86	19585.60
694.99	19147.92
695.13	19197.07
695.26	19140.90
695.39	18958.34
695.53	19286.01
695.66	19253.25
695.80	19007.49
695.93	19021.53
696.07	18698.54
696.20	19033.24
696.33	18988.77
696.47	19051.96
696.60	18513.64
696.73	18569.81
696.87	18333.42
697.00	18478.53
697.14	18066.60
697.27	18139.15
697.40	17888.71
697.54	17921.48
697.67	18099.36
697.80	17996.38
697.94	17837.22
698.07	17163.15
698.21	17528.27
698.34	17565.72
698.47	17612.53
698.61	17151.45
698.74	16957.18
698.87	16879.94
699.01	17305.92
699.14	17099.95
699.27	17397.20
699.40	16645.89
699.54	16645.89
699.67	16582.70
699.80	16725.47
699.94	16549.93
700.07	16629.51
700.20	16697.38
700.34	16287.79
700.47	16416.52
700.60	16744.19
700.73	16484.39
700.87	16369.71
701.00	16053.73
701.13	15899.26
701.26	15978.84
701.40	16107.57
701.53	15936.71
701.66	15936.71
701.79	15548.18
701.93	15548.18
702.06	15363.28
702.19	15428.81
702.32	15517.75
702.46	15295.40
702.59	15255.61
702.72	15211.14
702.85	15225.18
702.99	15206.46
703.12	15119.86
703.25	15021.56
703.38	14995.81
703.51	14916.23
703.65	14911.55
703.78	14916.23
703.91	14574.52
704.04	14815.59
704.17	14541.75
704.31	14303.01
704.44	14218.75
704.57	14352.16
704.70	13956.61
704.83	14127.47
704.96	14169.60
705.10	14148.54
705.23	14171.94
>>>>>End Processed Spectral Data<<<<<
