SpectraSuite Data File
++++++++++++++++++++++++++++++++++++
Date: Fri Oct 25 11:33:59 EDT 2013
User: price-jones
Dark Spectrum Present: No
Reference Spectrum Present: No
Number of Sampled Component Spectra: 1
Spectrometers: USB2+H05261
Integration Time (usec): 100000 (USB2+H05261)
Spectra Averaged: 1 (USB2+H05261)
Boxcar Smoothing: 0 (USB2+H05261)
Correct for Electrical Dark: No (USB2+H05261)
Strobe/Lamp Enabled: No (USB2+H05261)
Correct for Detector Non-linearity: No (USB2+H05261)
Correct for Stray Light: No (USB2+H05261)
Number of Pixels in Processed Spectrum: 2048
>>>>>Begin Processed Spectral Data<<<<<
365.73	259.80
365.92	259.80
366.12	259.80
366.32	205.97
366.52	198.95
366.72	184.90
366.91	224.69
367.11	175.54
367.31	124.05
367.51	168.52
367.70	147.45
367.90	135.75
368.10	187.24
368.30	182.56
368.49	245.76
368.69	231.71
368.89	149.79
369.09	187.24
369.28	224.69
369.48	236.39
369.68	198.95
369.87	245.76
370.07	217.67
370.27	245.76
370.47	330.02
370.66	533.64
370.86	568.75
371.06	550.03
371.25	514.92
371.45	475.13
371.65	608.54
371.84	444.70
372.04	580.45
372.24	587.47
372.44	634.29
372.63	662.37
372.83	592.16
373.03	578.11
373.22	627.26
373.42	709.18
373.62	634.29
373.81	683.44
374.01	601.52
374.21	770.04
374.40	638.97
374.60	627.26
374.79	587.47
374.99	624.92
375.19	638.97
375.38	655.35
375.58	629.60
375.78	690.46
375.97	657.69
376.17	748.97
376.37	594.50
376.56	711.52
376.76	669.39
376.95	674.07
377.15	620.24
377.35	755.99
377.54	713.86
377.74	636.63
377.93	643.65
378.13	720.88
378.33	725.57
378.52	667.05
378.72	720.88
378.91	758.33
379.11	678.76
379.31	650.67
379.50	638.97
379.70	753.65
379.89	739.61
380.09	671.73
380.28	791.10
380.48	725.57
380.68	706.84
380.87	725.57
381.07	777.06
381.26	809.83
381.46	802.80
381.65	791.10
381.85	720.88
382.04	798.12
382.24	755.99
382.43	770.04
382.63	786.42
382.83	739.61
383.02	774.72
383.22	798.12
383.41	858.98
383.61	741.95
383.80	819.19
384.00	791.10
384.19	819.19
384.39	798.12
384.58	774.72
384.78	788.76
384.97	816.85
385.17	779.40
385.36	814.51
385.56	868.34
385.75	830.89
385.95	793.44
386.14	800.46
386.34	861.32
386.53	908.13
386.72	851.96
386.92	933.87
387.11	915.15
387.31	868.34
387.50	983.02
387.70	887.06
387.89	844.93
388.09	908.13
388.28	854.30
388.48	863.66
388.67	889.40
388.86	896.43
389.06	938.55
389.25	889.40
389.45	917.49
389.64	938.55
389.84	952.60
390.03	1027.50
390.22	1055.58
390.42	940.90
390.61	1027.50
390.81	968.98
391.00	936.21
391.19	1043.88
391.39	1006.43
391.58	1069.62
391.78	1060.26
391.97	961.96
392.16	1053.24
392.36	1046.22
392.55	1011.11
392.75	1053.24
392.94	1086.01
393.13	1022.81
393.33	997.07
393.52	1118.78
393.71	1158.57
393.91	1135.16
394.10	1121.12
394.29	1116.44
394.49	1132.82
394.68	1107.07
394.88	1128.14
395.07	1104.73
395.26	1086.01
395.46	1151.54
395.65	1163.25
395.84	1125.80
396.04	1231.12
396.23	1217.08
396.42	1135.16
396.62	1172.61
396.81	1163.25
397.00	1207.72
397.19	1252.19
397.39	1282.61
397.58	1156.22
397.77	1224.10
397.97	1226.44
398.16	1231.12
398.35	1214.74
398.55	1313.04
398.74	1261.55
398.93	1324.74
399.12	1336.45
399.32	1380.92
399.51	1277.93
399.70	1409.00
399.90	1352.83
400.09	1366.87
400.28	1434.75
400.47	1387.94
400.67	1390.28
400.86	1357.51
401.05	1439.43
401.24	1446.45
401.44	1423.05
401.63	1467.52
401.82	1488.58
402.01	1472.20
402.21	1521.35
402.40	1476.88
402.59	1359.85
402.78	1418.36
402.97	1455.81
403.17	1579.86
403.36	1481.56
403.55	1540.07
403.74	1586.88
403.93	1563.48
404.13	1598.59
404.32	1556.46
404.51	1561.14
404.70	1682.85
404.89	1650.08
405.09	1703.91
405.28	1673.48
405.47	1661.78
405.66	1783.49
405.85	1699.23
406.05	1724.97
406.24	1675.82
406.43	1682.85
406.62	1830.30
406.81	1708.59
407.00	1827.96
407.20	1764.76
407.39	1750.72
407.58	1872.43
407.77	1930.94
407.96	1886.47
408.15	1832.64
408.34	1879.45
408.54	1907.54
408.73	1825.62
408.92	1842.00
409.11	1884.13
409.30	1968.39
409.49	1858.39
409.68	1949.67
409.87	1928.60
410.07	2040.95
410.26	1900.52
410.45	2022.22
410.64	2012.86
410.83	2150.95
411.02	2146.27
411.21	2118.18
411.40	2176.70
411.59	2303.09
411.78	2321.81
411.98	2193.08
412.17	2260.96
412.36	2253.94
412.55	2235.21
412.74	2326.49
412.93	2373.30
413.12	2387.35
413.31	2506.71
413.50	2359.26
413.69	2387.35
413.88	2478.63
414.07	2452.88
414.26	2560.55
414.45	2471.61
414.64	2499.69
414.83	2448.20
415.02	2593.31
415.22	2700.98
415.41	2537.14
415.60	2647.15
415.79	2602.68
415.98	2656.51
416.17	2682.25
416.36	2696.30
416.55	2754.81
416.74	2740.77
416.93	2775.88
417.12	2890.56
417.31	2869.50
417.50	2836.73
417.69	3030.99
417.88	3019.29
418.07	2951.42
418.26	2913.97
418.45	3014.61
418.64	3042.70
418.83	2939.71
419.02	3047.38
419.21	3047.38
419.39	3124.62
419.58	3201.85
419.77	3038.02
419.96	3232.28
420.15	3150.36
420.34	3183.13
420.53	3103.55
420.72	3150.36
420.91	3304.84
421.10	3260.37
421.29	3265.05
421.48	3258.03
421.67	3246.32
421.86	3180.79
422.05	3286.11
422.24	3311.86
422.43	3335.26
422.61	3307.18
422.80	3307.18
422.99	3328.24
423.18	3466.33
423.37	3349.31
423.56	3337.60
423.75	3407.82
423.94	3232.28
424.13	3052.06
424.32	3375.05
424.50	3384.41
424.69	3419.52
424.88	3386.76
425.07	3400.80
425.26	3314.20
425.45	3435.91
425.64	3478.04
425.83	3534.21
426.01	3478.04
426.20	3510.80
426.39	3449.95
426.58	3576.34
426.77	3368.03
426.96	3428.88
427.15	3524.85
427.33	3588.04
427.52	3552.93
427.71	3574.00
427.90	3541.23
428.09	3588.04
428.28	3658.26
428.46	3728.47
428.65	3719.11
428.84	3754.22
429.03	3786.99
429.22	3620.81
429.40	3719.11
429.59	3705.07
429.78	3648.90
429.97	3588.04
430.16	3702.73
430.34	3672.30
430.53	3812.73
430.72	3887.63
430.91	3908.69
431.10	3894.65
431.28	3852.52
431.47	3964.87
431.66	4074.87
431.85	3904.01
432.03	3936.78
432.22	4191.90
432.41	3990.61
432.60	4058.49
432.79	4259.78
432.97	4077.21
433.16	4145.09
433.35	4131.05
433.54	4067.85
433.72	4135.73
433.91	4224.67
434.10	4025.72
434.28	4161.47
434.47	4416.59
434.66	4201.26
434.85	4182.54
435.03	4301.90
435.22	4212.96
435.41	4447.02
435.59	4273.82
435.78	4311.27
435.97	4376.80
436.16	4301.90
436.34	4339.35
436.53	4585.11
436.72	4505.53
436.90	4432.97
437.09	4421.27
437.28	4301.90
437.46	4512.55
437.65	4461.06
437.84	4613.20
438.02	4468.08
438.21	4596.81
438.40	4603.83
438.58	4692.77
438.77	4662.35
438.96	4713.84
439.14	4957.25
439.33	4814.48
439.52	4849.59
439.70	4910.44
439.89	4905.76
440.08	4842.57
440.26	4912.78
440.45	4903.42
440.63	4954.91
440.82	5107.05
441.01	4985.34
441.19	5177.26
441.38	5280.25
441.57	5179.61
441.75	5366.85
441.94	5228.76
442.12	5296.63
442.31	5261.52
442.50	5383.23
442.68	5479.19
442.87	5423.02
443.05	5507.28
443.24	5797.51
443.43	5465.15
443.61	5636.01
443.80	5668.78
443.98	5502.60
444.17	5350.46
444.35	5516.64
444.54	5643.03
444.73	5575.16
444.91	5540.05
445.10	5617.29
445.28	5664.10
445.47	5563.45
445.65	5467.49
445.84	5834.96
446.02	5731.97
446.21	5736.65
446.39	5724.95
446.58	5734.31
446.77	5830.27
446.95	5657.07
447.14	5638.35
447.32	5774.10
447.51	5666.44
447.69	5699.20
447.88	5764.74
448.06	5722.61
448.25	5771.76
448.43	5727.29
448.62	5713.25
448.80	5762.40
448.99	5891.13
449.17	6083.05
449.36	5722.61
449.54	5909.85
449.73	6047.94
449.91	6092.41
450.10	6153.27
450.28	6083.05
450.46	6012.84
450.65	6099.44
450.83	6204.76
451.02	6071.35
451.20	6080.71
451.39	6087.73
451.57	6193.06
451.76	6113.48
451.94	6218.80
452.13	6260.93
452.31	6071.35
452.49	6076.03
452.68	6223.48
452.86	6431.79
453.05	6342.85
453.23	6279.66
453.42	6342.85
453.60	6401.37
453.78	6431.79
453.97	6342.85
454.15	6188.38
454.34	6387.32
454.52	6490.31
454.70	6700.95
454.89	6417.75
455.07	6513.71
455.26	6616.69
455.44	6525.41
455.62	6621.38
455.81	6595.63
455.99	6633.08
456.17	6640.10
456.36	6719.68
456.54	6789.89
456.73	6778.19
456.91	6977.14
457.09	6937.35
457.28	6925.65
457.46	6981.82
457.64	6909.26
457.83	7070.76
458.01	6920.96
458.19	7148.00
458.38	7211.19
458.56	7246.30
458.74	7054.37
458.93	7227.57
459.11	7112.89
459.29	7232.26
459.48	7243.96
459.66	7166.72
459.84	7286.09
460.03	7396.09
460.21	7318.86
460.39	7382.05
460.57	7246.30
460.76	7435.88
460.94	7461.63
461.12	7475.67
461.31	7417.16
461.49	7508.44
461.67	7510.78
461.85	7499.08
462.04	7424.18
462.22	7999.95
462.40	7667.60
462.59	7726.11
462.77	7503.76
462.95	7756.54
463.13	7606.74
463.32	7672.28
463.50	7726.11
463.68	7885.26
463.86	7957.82
464.05	7805.69
464.23	7747.17
464.41	7777.60
464.59	7747.17
464.78	8126.34
464.96	8039.74
465.14	7655.89
465.32	7903.99
465.50	8086.55
465.69	8112.30
465.87	8121.66
466.05	8112.30
466.23	8184.85
466.41	8095.91
466.60	8222.30
466.78	8042.08
466.96	8086.55
467.14	7847.82
467.32	8194.22
467.51	8285.50
467.69	8229.32
467.87	8084.21
468.05	8393.16
468.23	8411.89
468.41	8320.60
468.60	8414.23
468.78	8418.91
468.96	8454.02
469.14	8643.60
469.32	8634.24
469.50	8477.42
469.69	8528.91
469.87	8428.27
470.05	8566.36
470.23	8807.44
470.41	8585.08
470.59	8807.44
470.77	8769.99
470.95	8936.17
471.14	9078.94
471.32	8807.44
471.50	9029.79
471.68	8798.07
471.86	9064.89
472.04	9153.84
472.22	9308.31
472.40	9076.60
472.58	9064.89
472.77	9219.37
472.95	9153.84
473.13	9607.90
473.31	9434.70
473.49	9378.53
473.67	9378.53
473.85	9633.64
474.03	9542.36
474.21	9586.83
474.39	9685.14
474.57	9699.18
474.75	9738.97
474.93	9851.31
475.12	9834.93
475.30	9921.53
475.48	9942.60
475.66	9940.26
475.84	9977.70
476.02	10228.14
476.20	10066.64
476.38	10118.14
476.56	10338.15
476.74	10396.66
476.92	10431.77
477.10	10284.31
477.28	10670.50
477.46	10445.81
477.64	10719.65
477.82	10897.53
478.00	11171.38
478.18	11180.74
478.36	11037.97
478.54	11052.01
478.72	11180.74
478.90	11328.19
479.08	11456.92
479.26	11681.61
479.44	11693.32
479.62	11934.39
479.80	11786.94
479.98	12002.27
480.16	12152.06
480.34	11772.89
480.52	12187.17
480.70	12074.82
480.88	12273.77
481.06	12414.20
481.24	12226.96
481.41	12566.34
481.59	12613.15
481.77	12608.47
481.95	12849.54
482.13	12849.54
482.31	12784.01
482.49	13015.72
482.67	13013.38
482.85	13298.92
483.03	13771.71
483.21	13673.41
483.39	13645.32
483.57	13811.50
483.74	13881.72
483.92	13902.78
484.10	13755.33
484.28	13998.74
484.46	14462.17
484.64	14616.65
484.82	14129.81
485.00	14368.55
485.18	14555.79
485.35	14946.66
485.53	14822.61
485.71	14824.95
485.89	14932.62
486.07	15187.74
486.25	15257.95
486.43	15428.81
486.61	15648.82
486.78	15789.25
486.96	15833.72
487.14	15882.88
487.32	15913.30
487.50	15946.07
487.68	16381.41
487.85	16479.71
488.03	16638.87
488.21	17179.53
488.39	16737.17
488.57	16826.11
488.75	16992.29
488.92	17275.49
489.10	17322.30
489.28	17724.88
489.46	17596.15
489.64	17500.19
489.81	17884.03
489.99	17895.74
490.17	18111.07
490.35	18188.30
490.53	18197.67
490.70	18553.43
490.88	18462.15
491.06	18813.23
491.24	18668.11
491.41	19051.96
491.59	18888.12
491.77	19349.21
491.95	19040.26
492.13	19278.99
492.30	19499.00
492.48	19506.02
492.66	19754.12
492.84	19477.94
493.01	20168.40
493.19	19807.95
493.37	20315.85
493.54	20191.80
493.72	20570.97
493.90	20421.17
494.08	20531.18
494.25	20840.13
494.43	21048.44
494.61	21055.46
494.79	21338.66
494.96	21043.76
495.14	21022.69
495.32	21706.13
495.49	21394.84
495.67	21476.76
495.85	21996.35
496.02	21961.25
496.20	22008.06
496.38	22342.75
496.55	22216.36
496.73	22340.41
496.91	22593.19
497.09	22434.03
497.26	22625.96
497.44	22838.95
497.62	22937.25
497.79	23068.32
497.97	23147.90
498.14	23473.23
498.32	23318.76
498.50	23562.17
498.67	23978.79
498.85	23775.16
499.03	23803.25
499.20	23658.14
499.38	23997.51
499.56	24070.07
499.73	24362.64
499.91	24231.57
500.08	24524.13
500.26	24135.60
500.44	24734.78
500.61	24711.38
500.79	24643.50
500.97	24524.13
501.14	25296.51
501.32	24959.47
501.49	25102.25
501.67	25694.40
501.84	25373.75
502.02	25046.07
502.20	25240.34
502.37	25619.50
502.55	25490.77
502.72	25497.80
502.90	26160.17
503.07	25970.58
503.25	25692.06
503.43	25675.68
503.60	26038.46
503.78	26092.29
503.95	25839.51
504.13	26693.81
504.30	26534.65
504.48	26700.83
504.65	26361.45
504.83	26958.29
505.01	26932.54
505.18	26607.21
505.36	27267.24
505.53	26757.00
505.71	27215.75
505.88	27182.98
506.06	26855.31
506.23	27543.42
506.41	26857.65
506.58	27611.30
506.76	27623.00
506.93	27744.71
507.11	27859.40
507.28	28081.75
507.46	27653.43
507.63	28166.01
507.81	28465.60
507.98	28032.60
508.16	28276.01
508.33	28243.24
508.50	28669.22
508.68	28418.78
508.85	28776.89
509.03	28498.36
509.20	28994.56
509.38	29167.76
509.55	28666.88
509.73	28940.72
509.90	29104.56
510.08	29113.92
510.25	29184.14
510.42	29305.85
510.60	29427.56
510.77	29635.86
510.95	29855.87
511.12	29408.83
511.30	29942.47
511.47	29933.11
511.64	29759.91
511.82	30377.81
511.99	30087.59
512.17	30141.42
512.34	29958.86
512.51	30307.60
512.69	30806.13
512.86	30331.00
513.04	31194.66
513.21	31068.27
513.38	30838.90
513.56	30792.09
513.73	30969.97
513.90	31054.23
514.08	30948.90
514.25	31182.96
514.43	30993.37
514.60	31302.32
514.77	31566.81
514.95	31564.46
515.12	31424.03
515.29	31569.15
515.47	31681.49
515.64	31847.67
515.81	31658.09
515.99	31835.97
516.16	32240.88
516.33	31660.43
516.51	32198.75
516.68	32381.31
516.85	32128.53
517.03	32364.93
517.20	32613.02
517.37	32603.66
517.54	32381.31
517.72	32659.84
517.89	32744.09
518.06	32694.94
518.24	32430.46
518.41	32428.12
518.58	32865.80
518.75	32744.09
518.93	33090.49
519.10	33242.63
519.27	33020.28
519.45	33277.74
519.62	33703.71
519.79	33249.65
519.96	33441.57
520.14	33404.13
520.31	33453.28
520.48	33839.47
520.65	33574.98
520.83	34323.96
521.00	34244.38
521.17	33944.79
521.34	33883.94
521.52	34227.99
521.69	34134.37
521.86	34541.63
522.03	34209.27
522.20	34677.38
522.38	34703.12
522.55	34782.70
522.72	34689.08
522.89	34785.04
523.07	35421.67
523.24	34600.14
523.41	35278.89
523.58	34714.83
523.75	35536.35
523.92	34916.11
524.10	35189.95
524.27	35323.36
524.44	35634.66
524.61	35421.67
524.78	35548.06
524.96	35529.33
525.13	35789.13
525.30	35763.39
525.47	35948.29
525.64	36168.30
525.81	36023.19
525.98	36205.75
526.16	36023.19
526.33	36011.48
526.50	36280.64
526.67	35667.42
526.84	36444.48
527.01	36163.62
527.18	36355.54
527.36	36535.76
527.53	36360.22
527.70	36996.85
527.87	36844.71
528.04	36180.00
528.21	36863.44
528.38	36648.11
528.55	37043.66
528.72	36694.92
528.89	36905.57
529.07	36748.75
529.24	36531.08
529.41	37277.71
529.58	37200.47
529.75	37127.92
529.92	37289.42
530.09	37610.07
530.26	37514.11
530.43	37530.49
530.60	37408.78
530.77	37151.32
530.94	37598.37
531.11	37514.11
531.28	37942.42
531.46	37610.07
531.63	37743.48
531.80	37940.08
531.97	38045.41
532.14	38188.18
532.31	38174.14
532.48	37958.81
532.65	38010.30
532.82	38220.95
532.99	38171.80
533.16	38253.72
533.33	38550.96
533.50	38614.16
533.67	38682.03
533.84	37996.26
534.01	38649.27
534.18	38614.16
534.35	38930.13
534.52	38906.73
534.69	39019.07
534.86	39065.88
535.03	38611.82
535.20	39147.80
535.37	39098.65
535.54	39267.17
535.71	38981.62
535.88	39269.51
536.05	39524.63
536.22	39613.57
536.38	39117.37
536.55	39222.70
536.72	39152.48
536.89	39152.48
537.06	39178.23
537.23	39800.81
537.40	39044.82
537.57	39660.38
537.74	39629.95
537.91	39545.69
538.08	39775.06
538.25	39562.08
538.42	39735.27
538.59	40725.32
538.75	39629.95
538.92	39899.11
539.09	40081.67
539.26	39962.31
539.43	40395.31
539.60	40147.21
539.77	40236.15
539.94	40664.47
540.11	40683.19
540.28	40828.30
540.44	40706.60
540.61	40353.18
540.78	40273.60
540.95	40652.76
541.12	40563.82
541.29	40549.78
541.46	40760.43
541.62	40624.68
541.79	40662.13
541.96	40627.02
542.13	40802.56
542.30	40811.92
542.47	41230.88
542.63	41390.03
542.80	40921.93
542.97	40828.30
543.14	41453.23
543.31	41228.54
543.48	41790.27
543.64	42087.51
543.81	41741.11
543.98	41406.42
544.15	41698.98
544.32	41741.11
544.48	42019.64
544.65	41839.42
544.82	41888.57
544.99	41567.91
545.16	41741.11
545.32	42171.77
545.49	41947.08
545.66	42291.14
545.83	42234.97
546.00	42375.40
546.16	42136.66
546.33	42527.53
546.50	41926.02
546.67	42469.02
546.83	41848.78
547.00	42209.22
547.17	42216.24
547.34	41858.14
547.50	42361.36
547.67	42873.93
547.84	42506.47
548.00	42721.80
548.17	43110.33
548.34	42979.26
548.51	42993.30
548.67	42719.46
548.84	43016.71
549.01	42829.46
549.18	43028.41
549.34	43374.81
549.51	43100.97
549.68	43194.59
549.84	42913.72
550.01	43316.29
550.18	43372.47
550.34	43248.42
550.51	43079.90
550.68	43559.71
550.84	42967.55
551.01	43625.25
551.18	43075.22
551.34	43533.96
551.51	43620.56
551.68	43393.53
551.84	43468.43
552.01	42990.96
552.18	43548.01
552.34	43072.88
552.51	43913.13
552.68	43402.89
552.84	43290.55
553.01	44254.85
553.18	43571.41
553.34	43606.52
553.51	43981.01
553.67	44126.12
553.84	43983.35
554.01	43728.23
554.17	43620.56
554.34	44432.73
554.51	44294.64
554.67	44509.97
554.84	44006.75
555.00	44168.25
555.17	44261.87
555.33	44341.45
555.50	44449.11
555.67	44467.84
555.83	44341.45
556.00	44144.84
556.16	44582.52
556.33	44552.10
556.50	44465.50
556.66	44556.78
556.83	44411.67
556.99	44472.52
557.16	44954.67
557.32	44507.63
557.49	44973.39
557.65	44392.94
557.82	44547.42
557.98	44835.30
558.15	44690.19
558.32	44828.28
558.48	44650.40
558.65	44680.83
558.81	44823.60
558.98	44870.41
559.14	44641.04
559.31	44823.60
559.47	44655.08
559.64	44985.10
559.80	44959.35
559.97	45017.86
560.13	44587.21
560.30	44694.87
560.46	45329.16
560.63	45151.27
560.79	45202.77
560.96	45317.45
561.12	45315.11
561.29	45511.72
561.45	45598.32
561.61	45268.30
561.78	45450.86
561.94	44924.24
562.11	45078.72
562.27	45605.34
562.44	44835.30
562.60	45364.26
562.77	45209.79
562.93	45074.04
563.10	45542.14
563.26	45193.40
563.42	45680.24
563.59	45141.91
563.75	45270.64
563.92	45799.60
564.08	45846.41
564.24	45570.23
564.41	45574.91
564.57	45476.61
564.74	45352.56
564.90	46040.68
565.07	45710.66
565.23	45331.50
565.39	45610.02
565.56	45860.46
565.72	45659.17
565.88	46089.83
566.05	45736.41
566.21	46298.14
566.38	45607.68
566.54	45925.99
566.70	45956.42
566.87	45771.52
567.03	45591.30
567.19	45631.08
567.36	45752.79
567.52	45865.14
567.68	46239.62
567.85	46113.23
568.01	46199.83
568.17	45804.28
568.34	46038.34
568.50	46101.53
568.66	45806.62
568.83	45837.05
568.99	46204.52
569.15	45958.76
569.32	46155.36
569.48	46419.84
569.64	46522.83
569.81	46574.32
569.97	46181.11
570.13	46745.18
570.30	45897.91
570.46	46433.89
570.62	46153.02
570.78	46314.52
570.95	46204.52
571.11	46712.41
571.27	46143.66
571.43	45975.14
571.60	46291.12
571.76	46157.70
571.92	46174.09
572.09	46436.23
572.25	46366.01
572.41	46061.74
572.57	46660.92
572.74	46684.33
572.90	46085.15
573.06	46660.92
573.22	46721.77
573.38	46539.21
573.55	46459.63
573.71	46588.36
573.87	45965.78
574.03	46466.66
574.20	46696.03
574.36	46691.35
574.52	46752.20
574.68	46326.22
574.84	46571.98
575.01	46733.48
575.17	46712.41
575.33	46719.43
575.49	46373.03
575.65	47124.35
575.82	47124.35
575.98	46366.01
576.14	46681.98
576.30	47168.82
576.46	46948.81
576.62	46714.75
576.79	46497.08
576.95	46246.65
577.11	46506.44
577.27	46653.90
577.43	46494.74
577.59	46454.95
577.75	46382.40
577.92	46138.98
578.08	46555.60
578.24	46754.54
578.40	46820.08
578.56	46749.86
578.72	47065.83
578.88	47014.34
579.04	46841.14
579.21	46461.97
579.37	46789.65
579.53	47192.22
579.69	46719.43
579.85	46649.22
580.01	46817.74
580.17	46817.74
580.33	46553.26
580.49	46988.60
580.65	46834.12
580.82	46494.74
580.98	46354.31
581.14	46405.80
581.30	46932.42
581.46	46808.37
581.62	46710.07
581.78	46712.41
581.94	47070.51
582.10	47054.13
582.26	46820.08
582.42	47089.24
582.58	46787.31
582.74	47232.01
582.90	46927.74
583.06	47262.44
583.22	47110.30
583.38	46955.83
583.54	47075.19
583.70	47154.77
583.86	47236.69
584.02	46770.93
584.18	47274.14
584.34	47122.01
584.50	47363.08
584.66	46979.23
584.82	46986.25
584.98	47505.85
585.14	47344.36
585.30	46632.83
585.46	47138.39
585.62	47079.88
585.78	47096.26
585.94	46965.19
586.10	47033.07
586.26	46529.85
586.42	47063.49
586.58	46909.02
586.74	46866.89
586.90	46777.95
587.06	46955.83
587.22	47440.32
587.38	46689.01
587.54	47257.76
587.70	47356.06
587.86	47374.78
588.02	47166.48
588.18	46550.91
588.34	47114.98
588.49	46836.46
588.65	46674.96
588.81	47147.75
588.97	46909.02
589.13	46916.04
589.29	47552.66
589.45	47557.35
589.61	47077.54
589.77	47716.50
589.93	47096.26
590.08	47325.63
590.24	47786.72
590.40	47484.79
590.56	47650.97
590.72	47262.44
590.88	47278.82
591.04	47327.97
591.20	47662.67
591.35	47365.42
591.51	47711.82
591.67	47267.12
591.83	47571.39
591.99	47428.62
592.15	47543.30
592.31	47700.12
592.46	47107.96
592.62	47047.11
592.78	48098.01
592.94	47828.85
593.10	47859.27
593.26	47676.71
593.41	47739.91
593.57	47498.83
593.73	47435.64
593.89	47938.85
594.05	47971.62
594.20	47517.56
594.36	48048.86
594.52	47653.31
594.68	47721.18
594.84	47466.06
594.99	48011.41
595.15	47929.49
595.31	47330.31
595.47	47627.56
595.62	47646.29
595.78	47416.91
595.94	47924.81
596.10	47791.40
596.25	47880.34
596.41	47641.60
596.57	47295.21
596.73	48023.11
596.88	48079.28
597.04	47503.51
597.20	47955.24
597.36	47215.63
597.51	47863.96
597.67	47749.27
597.83	47697.78
597.99	47838.21
598.14	47571.39
598.30	47751.61
598.46	48006.73
598.61	47849.91
598.77	47613.52
598.93	48114.39
599.09	47917.79
599.24	48261.85
599.40	47732.89
599.56	47995.03
599.71	47543.30
599.87	48121.41
600.03	48488.88
600.18	47810.12
600.34	47878.00
600.50	47810.12
600.65	47985.66
600.81	47959.92
600.97	48102.69
601.12	48177.59
601.28	47807.78
601.44	47503.51
601.59	47566.71
601.75	47681.39
601.91	48158.86
602.06	48055.88
602.22	47973.96
602.37	47901.40
602.53	47821.83
602.69	47707.14
602.84	47742.25
603.00	47936.51
603.16	47892.04
603.31	47660.33
603.47	47749.27
603.62	47885.02
603.78	48030.13
603.94	47880.34
604.09	48037.16
604.25	47416.91
604.40	47922.47
604.56	47683.73
604.71	47945.87
604.87	47679.05
605.03	47550.32
605.18	47592.45
605.34	47812.46
605.49	47428.62
605.65	47971.62
605.80	47772.67
605.96	47655.65
606.12	47838.21
606.27	47459.04
606.43	47777.36
606.58	48168.22
606.74	47868.64
606.89	47906.08
607.05	47992.68
607.20	47812.46
607.36	47379.46
607.51	47730.54
607.67	47676.71
607.82	47456.70
607.98	47531.60
608.13	47716.50
608.29	47437.98
608.44	47660.33
608.60	47543.30
608.75	48044.18
608.91	47686.07
609.06	47480.11
609.22	47442.66
609.37	47313.93
609.53	47723.52
609.68	47777.36
609.84	47014.34
609.99	48039.50
610.15	47634.58
610.30	47526.92
610.46	47760.97
610.61	47477.77
610.76	47587.77
610.92	47297.55
611.07	47175.84
611.23	47297.55
611.38	47807.78
611.54	47433.30
611.69	47896.72
611.84	47374.78
612.00	47285.84
612.15	47332.65
612.31	47742.25
612.46	47236.69
612.62	47744.59
612.77	47262.44
612.92	47744.59
613.08	47676.71
613.23	47440.32
613.39	47365.42
613.54	47325.63
613.69	47477.77
613.85	47405.21
614.00	47210.95
614.15	47363.08
614.31	46981.57
614.46	47423.93
614.62	46887.95
614.77	47122.01
614.92	47232.01
615.08	47288.18
615.23	47164.14
615.38	47412.23
615.54	46955.83
615.69	47138.39
615.84	47077.54
616.00	47021.36
616.15	47222.65
616.30	47302.23
616.46	46932.42
616.61	47105.62
616.76	47019.02
616.92	46932.42
617.07	46997.96
617.22	46782.63
617.37	46476.02
617.53	46576.66
617.68	46698.37
617.83	46368.35
617.99	47297.55
618.14	47065.83
618.29	46588.36
618.45	46469.00
618.60	46958.17
618.75	46656.24
618.90	46396.44
619.06	46824.76
619.21	46651.56
619.36	46794.33
619.51	46630.49
619.67	46192.81
619.82	46553.26
619.97	46616.45
620.12	46787.31
620.28	46527.51
620.43	46653.90
620.58	46485.38
620.73	46480.70
620.89	47477.77
621.04	45958.76
621.19	46281.75
621.34	46583.68
621.49	46333.24
621.65	46347.29
621.80	46581.34
621.95	46316.86
622.10	46164.73
622.25	46295.80
622.41	46043.02
622.56	45771.52
622.71	46216.22
622.86	46333.24
623.01	46492.40
623.16	46087.49
623.32	46057.06
623.47	46108.55
623.62	46099.19
623.77	46120.26
623.92	46028.98
624.07	46220.90
624.23	46305.16
624.38	46319.20
624.53	46263.03
624.68	45895.56
624.83	45883.86
624.98	46143.66
625.13	45935.35
625.29	45584.27
625.44	45823.01
625.59	45947.06
625.74	45626.40
625.89	45422.78
626.04	45265.96
626.19	46005.57
626.34	45579.59
626.49	45436.82
626.65	45277.66
626.80	45425.12
626.95	44978.07
627.10	45261.28
627.25	45450.86
627.40	45542.14
627.55	45631.08
627.70	45457.88
627.85	45256.60
628.00	45670.87
628.15	45422.78
628.30	45031.91
628.45	44847.00
628.60	45123.19
628.76	45301.07
628.91	45146.59
629.06	44996.80
629.21	45240.21
629.36	45088.08
629.51	44985.10
629.66	45619.38
629.81	45230.85
629.96	44737.00
630.11	45064.67
630.26	44399.96
630.41	44708.91
630.56	45083.40
630.71	44868.07
630.86	45041.27
631.01	44942.97
631.16	44491.24
631.31	45024.89
631.46	44472.52
631.61	45029.57
631.76	44947.65
631.91	45106.80
632.06	44816.58
632.21	44818.92
632.36	45162.98
632.51	44212.72
632.66	44755.72
632.81	44596.57
632.96	44629.34
633.10	44704.23
633.25	45158.30
633.40	44285.28
633.55	44566.14
633.70	44643.38
633.85	43962.28
634.00	44664.44
634.15	44444.43
634.30	44102.71
634.45	44009.09
634.60	43831.21
634.75	44275.91
634.90	44404.64
635.05	44645.72
635.19	44224.42
635.34	44355.49
635.49	44273.57
635.64	44470.18
635.79	44629.34
635.94	44287.62
636.09	44264.21
636.24	44060.58
636.39	44196.34
636.53	44268.89
636.68	43679.08
636.83	43709.50
636.98	43887.39
637.13	43739.93
637.28	44081.65
637.43	43955.26
637.57	44109.74
637.72	43585.46
637.87	43428.64
638.02	43873.34
638.17	43440.34
638.32	43498.86
638.46	42976.92
638.61	43210.97
638.76	43122.03
638.91	43665.03
639.06	43751.63
639.20	43463.75
639.35	43618.22
639.50	43077.56
639.65	43271.82
639.80	43772.70
639.94	43648.65
640.09	43323.32
640.24	43540.99
640.39	43070.54
640.54	43037.77
640.68	43323.32
640.83	43557.37
640.98	43344.38
641.13	42705.41
641.27	43433.32
641.42	43196.93
641.57	43803.13
641.72	42958.19
641.86	43491.83
642.01	42719.46
642.16	43278.85
642.31	42562.64
642.45	43569.07
642.60	42784.99
642.75	42672.65
642.90	42749.88
643.04	42630.52
643.19	42518.17
643.34	42295.82
643.48	42768.61
643.63	42724.14
643.78	42990.96
643.93	42689.03
644.07	43122.03
644.22	42623.50
644.37	42649.24
644.51	42752.23
644.66	42754.57
644.81	42419.87
644.95	42279.44
645.10	42586.05
645.25	42300.50
645.39	42054.75
645.54	42567.32
645.69	42326.25
645.83	42164.75
645.98	42078.15
646.13	42167.09
646.27	42218.58
646.42	42321.57
646.57	42359.02
646.71	42384.76
646.86	42834.14
647.00	42513.49
647.15	42574.34
647.30	42763.93
647.44	42010.28
647.59	42106.24
647.74	42227.95
647.88	41862.82
648.03	42553.28
648.17	42452.64
648.32	42330.93
648.47	42061.77
648.61	42396.46
648.76	41848.78
648.90	42192.84
649.05	41682.60
649.20	41907.29
649.34	41839.42
649.49	42513.49
649.63	42036.02
649.78	41827.71
649.92	42183.48
650.07	42270.08
650.21	41785.58
650.36	41958.78
650.51	41944.74
650.65	42092.19
650.80	41745.80
650.94	41525.78
651.09	41933.04
651.23	41448.55
651.38	41361.95
651.52	41223.86
651.67	41556.21
651.81	41574.94
651.96	41820.69
652.10	40933.63
652.25	41010.87
652.39	41579.62
652.54	41399.40
652.68	41155.98
652.83	41413.44
652.97	41694.30
653.12	41434.50
653.26	40940.65
653.41	41429.82
653.55	41280.03
653.70	41455.57
653.84	41495.36
653.99	41717.71
654.13	41258.96
654.27	41591.32
654.42	41200.45
654.56	41001.50
654.71	41357.27
654.85	41378.33
655.00	41116.19
655.14	41614.72
655.29	41137.26
655.43	41200.45
655.57	40828.30
655.72	40690.21
655.86	40645.74
656.01	40437.44
656.15	40594.25
656.30	40470.20
656.44	40891.50
656.58	40889.16
656.73	40919.59
656.87	40456.16
657.01	40722.98
657.16	40512.33
657.30	40832.99
657.45	40568.51
657.59	40348.50
657.73	39957.63
657.88	40865.75
658.02	40524.04
658.16	40938.31
658.31	40556.80
658.45	40481.91
658.60	40182.32
658.74	40371.90
658.88	40306.37
659.03	40002.10
659.17	39571.44
659.31	40074.65
659.46	39885.07
659.60	40044.23
659.74	39915.50
659.89	39676.76
660.03	39606.55
660.17	39679.10
660.32	39592.50
660.46	39543.35
660.60	39285.89
660.74	39779.74
660.89	39625.27
661.03	39227.38
661.17	39082.27
661.32	39372.49
661.46	39529.31
661.60	39138.44
661.74	39335.04
661.89	39278.87
662.03	39409.94
662.17	39189.93
662.31	38955.88
662.46	39122.05
662.60	39248.44
662.74	38700.76
662.88	38808.42
663.03	38459.68
663.17	38499.47
663.31	38595.43
663.45	38986.30
663.60	38754.59
663.74	38382.45
663.88	38401.17
664.02	38267.76
664.17	38679.69
664.31	38630.54
664.45	38473.73
664.59	38054.77
664.73	37984.55
664.88	37991.58
665.02	37628.79
665.16	37825.40
665.30	37757.52
665.44	38314.57
665.59	37762.20
665.73	37488.36
665.87	37560.92
666.01	37818.38
666.15	37493.04
666.29	37708.37
666.44	37432.19
666.58	37654.54
666.72	37113.87
666.86	37439.21
667.00	37530.49
667.14	37387.72
667.28	36940.68
667.43	37303.46
667.57	37331.54
667.71	37198.13
667.85	37200.47
667.99	37467.30
668.13	37067.06
668.27	36779.18
668.41	36418.74
668.56	36009.14
668.70	35962.33
668.84	36311.07
668.98	36294.69
669.12	36587.25
669.26	36210.43
669.40	36552.15
669.54	36245.54
669.68	36044.25
669.82	36116.81
669.96	35866.37
670.10	35648.70
670.25	36041.91
670.39	35618.27
670.53	35875.73
670.67	36009.14
670.81	35889.77
670.95	35962.33
671.09	35566.78
671.23	35035.48
671.37	35632.32
671.51	35063.57
671.65	35524.65
671.79	35023.78
671.93	35491.88
672.07	35328.05
672.21	35255.49
672.35	34504.18
672.49	35180.59
672.63	34773.34
672.77	35028.46
672.91	34820.15
673.05	34665.67
673.19	34387.15
673.33	34192.89
673.47	34045.43
673.61	34176.50
673.75	34330.98
673.89	34211.61
674.03	33546.90
674.17	33797.34
674.31	34092.24
674.45	33839.47
674.59	33366.68
674.73	34139.05
674.87	33677.97
675.01	33387.74
675.15	33277.74
675.29	33556.26
675.43	32921.98
675.56	32769.84
675.70	32964.10
675.84	32870.48
675.98	31976.40
676.12	32524.08
676.26	32989.85
676.40	32793.25
676.54	32313.44
676.68	32285.35
676.82	31747.03
676.96	32243.22
677.10	32428.12
677.23	32287.69
677.37	31838.31
677.51	31952.99
677.65	31718.94
677.79	31681.49
677.93	31828.95
678.07	31578.51
678.21	31510.63
678.34	31133.81
678.48	30974.65
678.62	30923.16
678.76	31023.80
678.90	31110.40
679.04	31204.02
679.18	31288.28
679.31	30991.03
679.45	30527.61
679.59	30752.30
679.73	30642.29
679.87	30422.28
680.00	29933.11
680.14	30190.57
680.28	30249.08
680.42	29696.72
680.56	29654.59
680.70	29888.64
680.83	29563.31
680.97	29418.19
681.11	29755.23
681.25	29165.42
681.39	29139.67
681.52	28940.72
681.66	28870.51
681.80	28694.97
681.94	28507.72
682.07	28634.11
682.21	28425.81
682.35	28371.97
682.49	28166.01
682.62	28458.57
682.76	28444.53
682.90	28493.68
683.04	27922.59
683.17	27913.23
683.31	28009.19
683.45	27761.09
683.59	27356.18
683.72	27072.98
683.86	27182.98
684.00	27192.34
684.13	27058.93
684.27	26761.69
684.41	27138.51
684.55	27070.64
684.68	26824.88
684.82	26867.01
684.96	26848.29
685.09	26581.46
685.23	26691.47
685.37	26848.29
685.50	26796.79
685.64	26356.77
685.78	26239.75
685.91	25748.23
686.05	25907.39
686.19	25287.15
686.32	25455.67
686.46	25366.73
686.60	25057.78
686.73	25455.67
686.87	25284.81
687.01	25661.63
687.14	25291.83
687.28	25050.75
687.42	25144.38
687.55	24886.92
687.69	24814.36
687.82	24610.73
687.96	24570.94
688.10	24985.22
688.23	24687.97
688.37	24547.54
688.50	24493.71
688.64	24561.58
688.78	24510.09
688.91	23939.00
689.05	24297.10
689.18	23737.71
689.32	23386.63
689.46	23285.99
689.59	23431.10
689.73	23620.69
689.86	23770.48
690.00	23452.17
690.13	23398.34
690.27	23087.04
690.41	23253.22
690.54	22834.27
690.68	22848.31
690.81	22647.02
690.95	22675.11
691.08	22750.01
691.22	22160.19
691.35	22427.01
691.49	22546.38
691.62	22544.04
691.76	22134.45
691.89	21869.97
692.03	21607.83
692.16	21539.95
692.30	21762.30
692.43	21645.27
692.57	21401.86
692.70	21593.78
692.84	21514.20
692.97	21001.63
693.11	20945.45
693.24	20938.43
693.38	20798.00
693.51	20620.12
693.65	20769.91
693.78	20585.01
693.92	20577.99
694.05	20271.38
694.19	20587.35
694.32	20304.15
694.45	20629.48
694.59	20390.75
694.72	20376.70
694.86	20056.05
694.99	19957.75
695.13	19735.40
695.26	19564.54
695.39	19473.26
695.53	19562.20
695.66	19421.77
695.80	19295.38
695.93	19094.09
696.07	19070.68
696.20	18934.93
696.33	18551.09
696.47	18787.48
696.60	18853.02
696.73	18759.39
696.87	18799.18
697.00	19012.17
697.14	18476.19
697.27	18314.69
697.40	18478.53
697.54	18209.37
697.67	18281.92
697.80	18277.24
697.94	18202.35
698.07	17961.27
698.21	17980.00
698.34	17879.35
698.47	17315.28
698.61	17453.37
698.74	17427.63
698.87	17542.32
699.01	17135.06
699.14	17170.17
699.27	17165.49
699.40	16870.58
699.54	17050.80
699.67	17095.27
699.80	17099.95
699.94	16978.25
700.07	16739.51
700.20	16561.63
700.34	16255.02
700.47	16437.58
700.60	16847.18
700.73	16556.95
700.87	16262.04
701.00	16053.73
701.13	15957.77
701.26	16013.95
701.40	16121.61
701.53	15679.25
701.66	15948.41
701.79	15702.65
701.93	15534.14
702.06	15616.05
702.19	15428.81
702.32	15307.10
702.46	15508.39
702.59	15555.20
702.72	15396.04
702.85	15365.62
702.99	15136.24
703.12	14892.83
703.25	14808.57
703.38	14834.32
703.51	15000.49
703.65	14874.10
703.78	14288.97
703.91	14375.57
704.04	14459.83
704.17	14223.44
704.31	14214.07
704.44	14286.63
704.57	14303.01
704.70	13937.89
704.83	14111.09
704.96	13860.65
705.10	13839.59
705.23	13846.61
>>>>>End Processed Spectral Data<<<<<
