SpectraSuite Data File
++++++++++++++++++++++++++++++++++++
Date: Fri Oct 25 10:44:24 EDT 2013
User: price-jones
Dark Spectrum Present: No
Reference Spectrum Present: No
Number of Sampled Component Spectra: 1
Spectrometers: USB2+H05261
Integration Time (usec): 100000 (USB2+H05261)
Spectra Averaged: 1 (USB2+H05261)
Boxcar Smoothing: 0 (USB2+H05261)
Correct for Electrical Dark: No (USB2+H05261)
Strobe/Lamp Enabled: No (USB2+H05261)
Correct for Detector Non-linearity: No (USB2+H05261)
Correct for Stray Light: No (USB2+H05261)
Number of Pixels in Processed Spectrum: 2048
>>>>>Begin Processed Spectral Data<<<<<
365.73	60.85
365.92	60.85
366.12	60.85
366.32	72.56
366.52	0.00
366.72	30.43
366.91	84.26
367.11	81.92
367.31	0.00
367.51	100.64
367.70	98.30
367.90	30.43
368.10	79.58
368.30	4.68
368.49	46.81
368.69	37.45
368.89	95.96
369.09	56.17
369.28	58.51
369.48	70.22
369.68	98.30
369.87	159.16
370.07	133.41
370.27	126.39
370.47	201.29
370.66	404.91
370.86	456.40
371.06	409.59
371.25	503.22
371.45	416.62
371.65	397.89
371.84	547.69
372.04	482.15
372.24	472.79
372.44	486.83
372.63	517.26
372.83	484.49
373.03	564.07
373.22	512.58
373.42	524.28
373.62	510.24
373.81	568.75
374.01	535.98
374.21	545.34
374.40	606.20
374.60	606.20
374.79	587.47
374.99	545.34
375.19	641.31
375.38	599.18
375.58	589.82
375.78	669.39
375.97	627.26
376.17	704.50
376.37	655.35
376.56	636.63
376.76	573.43
376.95	601.52
377.15	702.16
377.35	753.65
377.54	594.50
377.74	709.18
377.93	653.01
378.13	695.14
378.33	788.76
378.52	683.44
378.72	702.16
378.91	662.37
379.11	594.50
379.31	580.45
379.50	603.86
379.70	695.14
379.89	772.38
380.09	753.65
380.28	734.93
380.48	692.80
380.68	648.33
380.87	746.63
381.07	758.33
381.26	784.08
381.46	650.67
381.65	737.27
381.85	711.52
382.04	699.82
382.24	664.71
382.43	660.03
382.63	727.91
382.83	781.74
383.02	732.59
383.22	685.78
383.41	784.08
383.61	809.83
383.80	884.72
384.00	805.14
384.19	835.57
384.39	812.17
384.58	826.21
384.78	758.33
384.97	847.27
385.17	800.46
385.36	870.68
385.56	858.98
385.75	802.80
385.95	851.96
386.14	936.21
386.34	826.21
386.53	826.21
386.72	837.91
386.92	985.37
387.11	842.59
387.31	856.64
387.50	868.34
387.70	889.40
387.89	880.04
388.09	737.27
388.28	887.06
388.48	924.51
388.67	938.55
388.86	910.47
389.06	987.71
389.25	1039.20
389.45	973.66
389.64	1036.86
389.84	952.60
390.03	1039.20
390.22	1067.28
390.42	1032.18
390.61	1029.84
390.81	959.62
391.00	1013.45
391.19	1088.35
391.39	1135.16
391.58	1025.15
391.78	1097.71
391.97	1076.65
392.16	1128.14
392.36	1086.01
392.55	1090.69
392.75	1020.47
392.94	1064.94
393.13	936.21
393.33	1013.45
393.52	1027.50
393.71	1142.18
393.91	1177.29
394.10	1156.22
394.29	1167.93
394.49	1240.48
394.68	1301.34
394.88	1364.53
395.07	1249.85
395.26	1315.38
395.46	1306.02
395.65	1291.98
395.84	1263.89
396.04	1331.76
396.23	1242.82
396.42	1238.14
396.62	1252.19
396.81	1167.93
397.00	1277.93
397.19	1275.59
397.39	1364.53
397.58	1397.30
397.77	1289.64
397.97	1488.58
398.16	1483.90
398.35	1479.22
398.55	1458.15
398.74	1544.75
398.93	1605.61
399.12	1645.40
399.32	1519.01
399.51	1497.94
399.70	1720.29
399.90	1572.84
400.09	1624.33
400.28	1645.40
400.47	1589.22
400.67	1795.19
400.86	1652.42
401.05	1748.38
401.24	1722.63
401.44	1678.16
401.63	1834.98
401.82	1802.21
402.01	1753.06
402.21	1886.47
402.40	1832.64
402.59	1851.36
402.78	1837.32
402.97	1863.07
403.17	1734.34
403.36	1849.02
403.55	1799.87
403.74	1947.33
403.93	1942.64
404.13	1933.28
404.32	1954.35
404.51	1823.28
404.70	1914.56
404.89	2062.01
405.09	1977.75
405.28	1930.94
405.47	2062.01
405.66	2024.56
405.85	1970.73
406.05	2069.03
406.24	2101.80
406.43	2047.97
406.62	2139.25
406.81	2202.44
407.00	2169.68
407.20	2052.65
407.39	2008.18
407.58	2155.63
407.77	2319.47
407.96	2267.98
408.15	2380.32
408.34	2370.96
408.54	2431.82
408.73	2303.09
408.92	2408.41
409.11	2286.70
409.30	2401.39
409.49	2349.90
409.68	2424.80
409.87	2342.88
410.07	2380.32
410.26	2473.95
410.45	2436.50
410.64	2504.37
410.83	2513.74
411.02	2523.10
411.21	2579.27
411.40	2670.55
411.59	2792.26
411.78	2696.30
411.98	2593.31
412.17	2616.72
412.36	2754.81
412.55	2722.04
412.74	2787.58
412.93	2647.15
413.12	2796.94
413.31	2979.50
413.50	3014.61
413.69	2871.84
413.88	2970.14
414.07	2977.16
414.26	2960.78
414.45	3061.42
414.64	3098.87
414.83	3265.05
415.02	3119.93
415.22	3255.69
415.41	3131.64
415.60	3194.83
415.79	3335.26
415.98	3419.52
416.17	3363.35
416.36	3351.65
416.55	3363.35
416.74	3368.03
416.93	3253.34
417.12	3391.44
417.31	3452.29
417.50	3522.51
417.69	3536.55
417.88	3576.34
418.07	3426.54
418.26	3644.21
418.45	3456.97
418.64	3679.32
418.83	3471.01
419.02	3597.40
419.21	3721.45
419.39	3747.20
419.58	3672.30
419.77	3676.98
419.96	3779.97
420.15	3822.09
420.34	3826.78
420.53	3971.89
420.72	3946.14
420.91	3882.95
421.10	3826.78
421.29	4021.04
421.48	3817.41
421.67	4084.23
421.86	3829.12
422.05	3962.53
422.24	3803.37
422.43	3946.14
422.61	3997.64
422.80	4046.79
422.99	4016.36
423.18	4124.02
423.37	4046.79
423.56	3964.87
423.75	4074.87
423.94	3941.46
424.13	3740.18
424.32	3878.27
424.50	4086.58
424.69	4135.73
424.88	4124.02
425.07	3999.98
425.26	4039.76
425.45	4035.08
425.64	4018.70
425.83	4222.33
426.01	4128.70
426.20	4140.41
426.39	4063.17
426.58	4201.26
426.77	4070.19
426.96	4177.86
427.15	4121.68
427.33	4147.43
427.52	4173.18
427.71	4276.16
427.90	4203.60
428.09	4241.05
428.28	4215.30
428.46	4250.41
428.65	4276.16
428.84	4301.90
429.03	4329.99
429.22	4243.39
429.40	4250.41
429.59	4236.37
429.78	4107.64
429.97	3922.74
430.16	4121.68
430.34	4168.49
430.53	4351.06
430.72	4210.62
430.91	4568.73
431.10	4432.97
431.28	4596.81
431.47	4650.64
431.66	4784.06
431.85	4690.43
432.03	4779.37
432.22	4699.80
432.41	4727.88
432.60	4861.29
432.79	4816.82
432.97	4882.36
433.16	4781.71
433.35	4734.90
433.54	4898.74
433.72	4887.04
433.91	4791.08
434.10	4823.84
434.28	4887.04
434.47	5046.20
434.66	5135.14
434.85	5001.72
435.03	5174.92
435.22	5011.09
435.41	5310.68
435.59	5291.95
435.78	5242.80
435.97	5310.68
436.16	5224.08
436.34	5128.11
436.53	5284.93
436.72	5282.59
436.90	5261.52
437.09	5303.65
437.28	5144.50
437.46	5502.60
437.65	5352.81
437.84	5303.65
438.02	5235.78
438.21	5320.04
438.40	5193.65
438.58	5359.83
438.77	5692.18
438.96	5511.96
439.14	5521.32
439.33	5701.54
439.52	5790.49
439.70	5947.30
439.89	5898.15
440.08	5895.81
440.26	5841.98
440.45	5851.34
440.63	5926.24
440.82	6076.03
441.01	6106.46
441.19	6094.76
441.38	6270.30
441.57	6202.42
441.75	6415.41
441.94	6342.85
442.12	6466.90
442.31	6497.33
442.50	6504.35
442.68	6569.88
442.87	6417.75
443.05	6583.93
443.24	6649.46
443.43	6597.97
443.61	6616.69
443.80	6979.48
443.98	6499.67
444.17	6532.44
444.35	6670.53
444.54	6796.92
444.73	6651.80
444.91	6576.91
445.10	6607.33
445.28	6754.79
445.47	6665.85
445.65	6658.82
445.84	6682.23
446.02	6876.49
446.21	6782.87
446.39	6890.54
446.58	6846.07
446.77	6691.59
446.95	6829.68
447.14	7115.23
447.32	6998.20
447.51	6789.89
447.69	6707.98
447.88	6899.90
448.06	6932.67
448.25	6911.60
448.43	7136.29
448.62	6850.75
448.80	7007.56
448.99	7101.19
449.17	7117.57
449.36	6979.48
449.54	6991.18
449.73	7199.49
449.91	7304.81
450.10	7234.60
450.28	7440.56
450.46	7508.44
450.65	7499.08
450.83	7363.33
451.02	7405.46
451.20	7494.40
451.39	7262.68
451.57	7569.29
451.76	7389.07
451.94	7466.31
452.13	7470.99
452.31	7321.20
452.49	7372.69
452.68	7307.15
452.86	7346.94
453.05	7442.90
453.23	7555.25
453.42	7513.12
453.60	7548.23
453.78	7557.59
453.97	7489.71
454.15	7796.32
454.34	7543.55
454.52	7571.63
454.70	7861.86
454.89	7719.09
455.07	7878.24
455.26	7929.74
455.44	8072.51
455.62	7892.29
455.81	7770.58
455.99	8156.77
456.17	8037.40
456.36	8084.21
456.54	8098.25
456.73	8269.11
456.91	8339.33
457.09	8355.71
457.28	8552.32
457.46	8163.79
457.64	8198.90
457.83	8126.34
458.01	8259.75
458.19	8491.46
458.38	8418.91
458.56	8456.36
458.74	8454.02
458.93	8397.84
459.11	8505.51
459.29	8533.59
459.48	8507.85
459.66	8718.50
459.84	8741.90
460.03	8681.05
460.21	8636.58
460.39	8802.75
460.57	8833.18
460.76	8732.54
460.94	8980.64
461.12	8798.07
461.31	8760.63
461.49	8805.10
461.67	8828.50
461.85	9153.84
462.04	8959.57
462.22	9252.14
462.40	9050.85
462.59	9081.28
462.77	9097.66
462.95	9158.52
463.13	9224.05
463.32	9334.06
463.50	9408.95
463.68	9205.33
463.86	9149.15
464.05	9172.56
464.23	9188.94
464.41	9231.07
464.59	9210.01
464.78	9362.14
464.96	9406.61
465.14	9352.78
465.32	9584.49
465.50	9406.61
465.69	9591.52
465.87	9502.58
466.05	9540.02
466.23	9289.59
466.41	9322.35
466.60	9657.05
466.78	9483.85
466.96	9530.66
467.14	9448.74
467.32	9483.85
467.51	9708.54
467.69	9474.49
467.87	9554.07
468.05	9706.20
468.23	9582.15
468.41	9776.42
468.60	9989.41
468.78	9898.13
468.96	9455.76
469.14	10101.75
469.32	10256.23
469.50	9769.40
469.69	10005.79
469.87	10026.86
470.05	10150.90
470.23	10153.24
470.41	10291.34
470.59	10274.95
470.77	10176.65
470.95	10064.30
471.14	10120.48
471.32	10415.38
471.50	10427.09
471.68	10511.35
471.86	10647.10
472.04	10707.95
472.22	10677.52
472.40	10431.77
472.58	10541.77
472.77	10724.33
472.95	10930.30
473.13	11204.14
473.31	10794.55
473.49	10836.68
473.67	10761.78
473.85	10874.13
474.03	11293.08
474.21	11447.56
474.39	11201.80
474.57	11314.15
474.75	11279.04
474.93	11375.00
475.12	11555.22
475.30	11620.76
475.48	11571.61
475.66	11370.32
475.84	11597.35
476.02	11812.68
476.20	11880.56
476.38	11749.49
476.56	12233.98
476.74	12226.96
476.92	12086.53
477.10	12322.92
477.28	12610.81
477.46	12540.59
477.64	12526.55
477.82	12748.90
478.00	12966.57
478.18	12486.76
478.36	12964.23
478.54	12849.54
478.72	13282.54
478.90	13273.18
479.08	13472.12
479.26	13497.87
479.44	13589.15
479.62	13413.61
479.80	13549.36
479.98	13706.18
480.16	14155.56
480.34	14015.13
480.52	14207.05
480.70	14338.12
480.88	14064.28
481.06	14171.94
481.24	14300.67
481.41	14450.47
481.59	14916.23
481.77	14771.12
481.95	14736.01
482.13	14909.21
482.31	15019.22
482.49	15150.29
482.67	15318.81
482.85	15393.70
483.03	15695.63
483.21	15702.65
483.39	15903.94
483.57	15751.81
483.74	15833.72
483.92	16145.02
484.10	15922.66
484.28	16137.99
484.46	16659.93
484.64	16659.93
484.82	16622.48
485.00	16776.96
485.18	16556.95
485.35	16847.18
485.53	16418.86
485.71	16617.80
485.89	16519.50
486.07	16578.01
486.25	16957.18
486.43	17214.64
486.61	17193.58
486.78	17755.30
486.96	17935.53
487.14	18031.49
487.32	17982.34
487.50	18572.15
487.68	18539.38
487.85	18892.80
488.03	19014.51
488.21	19028.56
488.39	18780.46
488.57	19192.39
488.75	19250.91
488.92	19616.03
489.10	19798.59
489.28	19850.08
489.46	20451.60
489.64	19978.81
489.81	20510.11
489.99	20484.37
490.17	20666.93
490.35	20776.94
490.53	20931.41
490.70	21179.51
490.88	20898.64
491.06	21502.50
491.24	21366.75
491.41	21364.41
491.59	21577.40
491.77	21261.43
491.95	21411.22
492.13	21876.99
492.30	22441.06
492.48	22249.13
492.66	22309.99
492.84	22419.99
493.01	22750.01
493.19	22565.10
493.37	22857.67
493.54	22649.36
493.72	23264.92
493.90	23171.30
494.08	23555.15
494.25	23770.48
494.43	23506.00
494.61	23807.93
494.79	24393.06
494.96	23840.70
495.14	23969.43
495.32	24121.56
495.49	24233.91
495.67	24245.61
495.85	24816.70
496.02	24870.53
496.20	25191.19
496.38	24786.27
496.55	25467.37
496.73	25806.75
496.91	25465.03
497.09	25701.42
497.26	25621.84
497.44	25811.43
497.62	25434.60
497.79	25888.67
497.97	25785.68
498.14	26197.62
498.32	25844.20
498.50	26366.13
498.67	26532.31
498.85	26518.27
499.03	26890.41
499.20	26780.41
499.38	26651.68
499.56	26717.22
499.73	26881.05
499.91	26913.82
500.08	27314.05
500.26	26759.34
500.44	27484.91
500.61	27351.50
500.79	27428.74
500.97	27536.40
501.14	27641.73
501.32	27618.32
501.49	27620.66
501.67	27763.43
501.84	27917.91
502.02	28119.20
502.20	28086.43
502.37	28334.53
502.55	28313.46
502.72	28809.65
502.90	28573.26
503.07	28783.91
503.25	28807.31
503.43	28587.30
503.60	28760.50
503.78	28627.09
503.95	28865.83
504.13	29139.67
504.30	29420.53
504.48	29509.47
504.65	29673.31
504.83	29830.13
505.01	29813.74
505.18	29544.58
505.36	30148.44
505.53	30047.80
505.71	30148.44
505.88	30572.08
506.06	29886.30
506.23	30476.12
506.41	30387.18
506.58	30672.72
506.76	30565.06
506.93	30780.39
507.11	30778.04
507.28	30892.73
507.46	30719.53
507.63	30686.76
507.81	30913.80
507.98	30707.83
508.16	31503.61
508.33	31098.70
508.50	31386.58
508.68	31901.50
508.85	31740.00
509.03	31646.38
509.20	31585.53
509.38	31828.95
509.55	31534.04
509.73	31924.91
509.90	32538.13
510.08	31887.46
510.25	31948.31
510.42	32411.74
510.60	33031.98
510.77	32727.71
510.95	32779.20
511.12	32617.71
511.30	32641.11
511.47	33092.83
511.64	33036.66
511.82	33266.03
511.99	32683.24
512.17	33113.90
512.34	33223.90
512.51	33034.32
512.69	33596.05
512.86	33521.15
513.04	33493.07
513.21	33312.84
513.38	33813.72
513.56	33567.96
513.73	33486.04
513.90	33523.49
514.08	33642.86
514.25	33577.33
514.43	33816.06
514.60	33734.14
514.77	33986.92
514.95	34532.26
515.12	34284.17
515.29	34380.13
515.47	34904.41
515.64	34611.84
515.81	34541.63
515.99	34581.42
516.16	34316.93
516.33	34375.45
516.51	34141.39
516.68	34199.91
516.85	34082.88
517.03	34616.52
517.20	34431.62
517.37	34909.09
517.54	35311.66
517.72	35154.85
517.89	34848.24
518.06	34756.96
518.24	34340.34
518.41	34705.46
518.58	34958.24
518.75	35482.52
518.93	35510.61
519.10	35391.24
519.27	35367.84
519.45	36215.11
519.62	36025.53
519.79	36259.58
519.96	35959.99
520.14	36781.52
520.31	35957.65
520.48	36437.46
520.65	36194.04
520.83	36650.45
521.00	36907.91
521.17	36697.26
521.34	36779.18
521.52	37120.90
521.69	36882.16
521.86	36978.12
522.03	37516.45
522.20	36739.39
522.38	37156.00
522.55	37469.64
522.72	37038.98
522.89	37207.50
523.07	37376.01
523.24	37287.07
523.41	37963.49
523.58	37390.06
523.75	38134.35
523.92	37848.80
524.10	38117.96
524.27	38007.96
524.44	38223.29
524.61	38319.25
524.78	38483.09
524.96	38206.90
525.13	38403.51
525.30	38328.61
525.47	38660.97
525.64	38457.34
525.81	38061.79
525.98	38197.54
526.16	38017.32
526.33	37780.93
526.50	38265.42
526.67	37862.85
526.84	38312.23
527.01	38057.11
527.18	38433.94
527.36	38637.56
527.53	39168.87
527.70	39344.41
527.87	39311.64
528.04	39016.73
528.21	39187.59
528.38	39253.12
528.55	39335.04
528.72	39117.37
528.89	39529.31
529.07	39604.20
529.24	39475.48
529.41	39201.63
529.58	39386.54
529.75	39262.49
529.92	39882.73
530.09	39639.31
530.26	39861.66
530.43	39913.16
530.60	39882.73
530.77	39990.39
530.94	40133.17
531.11	40055.93
531.28	40388.28
531.46	40336.79
531.63	40341.47
531.80	39800.81
531.97	40119.12
532.14	40116.78
532.31	39721.23
532.48	40545.10
532.65	40531.06
532.82	40505.31
532.99	40353.18
533.16	40638.72
533.33	41036.61
533.50	41090.44
533.67	40992.14
533.84	40816.60
534.01	40893.84
534.18	40844.69
534.35	41483.66
534.52	40996.82
534.69	41478.97
534.86	40964.06
535.03	41371.31
535.20	41354.93
535.37	41750.48
535.54	41776.22
535.71	41223.86
535.88	41413.44
536.05	41544.51
536.22	41794.95
536.38	41523.44
536.55	41500.04
536.72	41401.74
536.89	41626.43
537.06	41598.34
537.23	41598.34
537.40	41680.26
537.57	41411.10
537.74	41497.70
537.91	42457.32
538.08	42220.92
538.25	42326.25
538.42	42153.05
538.59	42120.28
538.75	42185.82
538.92	42284.12
539.09	42040.70
539.26	42007.94
539.43	42307.52
539.60	42103.90
539.77	42277.10
539.94	42108.58
540.11	41806.65
540.28	42040.70
540.44	42270.08
540.61	42241.99
540.78	41982.19
540.95	42288.80
541.12	42281.78
541.29	42391.78
541.46	42700.73
541.62	42967.55
541.79	42813.08
541.96	42703.07
542.13	42354.33
542.30	42609.45
542.47	42555.62
542.63	42955.85
542.80	43325.66
542.97	43154.80
543.14	43517.58
543.31	43529.28
543.48	43351.40
543.64	44130.80
543.81	43812.49
543.98	43283.53
544.15	43393.53
544.32	43461.41
544.48	43665.03
544.65	43515.24
544.82	44182.29
544.99	43372.47
545.16	43899.09
545.32	43578.43
545.49	43959.94
545.66	44119.10
545.83	43840.57
546.00	43889.73
546.16	43852.28
546.33	43847.60
546.50	43665.03
546.67	44006.75
546.83	43753.97
547.00	43540.99
547.17	43978.67
547.34	43796.10
547.50	44135.48
547.67	44399.96
547.84	44140.16
548.00	44421.03
548.17	44624.65
548.34	44385.92
548.51	44261.87
548.67	44626.99
548.84	44105.06
549.01	44325.07
549.18	44210.38
549.34	44708.91
549.51	45275.32
549.68	44706.57
549.84	44854.03
550.01	44634.02
550.18	44610.61
550.34	44744.02
550.51	44369.54
550.68	44598.91
550.84	44554.44
551.01	44964.03
551.18	44664.44
551.34	44755.72
551.51	45172.34
551.68	45146.59
551.84	44980.42
552.01	45106.80
552.18	44545.08
552.34	44779.13
552.51	45099.78
552.68	44912.54
552.84	45272.98
553.01	45322.13
553.18	45340.86
553.34	44919.56
553.51	45167.66
553.67	45167.66
553.84	45249.58
554.01	45560.87
554.17	45371.28
554.34	45188.72
554.51	45633.42
554.67	45469.59
554.84	45275.32
555.00	45645.13
555.17	45495.33
555.33	45151.27
555.50	45368.94
555.67	45247.24
555.83	45319.79
556.00	45638.11
556.16	45624.06
556.33	45567.89
556.50	45406.39
556.66	45729.39
556.83	45179.36
556.99	46026.63
557.16	46040.68
557.32	45935.35
557.49	45745.77
557.65	45689.60
557.82	45989.19
557.98	46141.32
558.15	45687.26
558.32	46277.07
558.48	45490.65
558.65	45961.10
558.81	45708.32
558.98	45572.57
559.14	45855.78
559.31	45741.09
559.47	45588.95
559.64	45923.65
559.80	46291.12
559.97	45893.22
560.13	45640.45
560.30	45736.41
560.46	45998.55
560.63	45954.08
560.79	46368.35
560.96	46321.54
561.12	46089.83
561.29	46061.74
561.45	45921.31
561.61	45925.99
561.78	45979.82
561.94	45675.55
562.11	46101.53
562.27	46019.61
562.44	46256.01
562.60	46335.59
562.77	46314.52
562.93	46096.85
563.10	46361.33
563.26	45900.25
563.42	46415.16
563.59	45921.31
563.75	46277.07
563.92	46586.02
564.08	46101.53
564.24	46543.89
564.41	46265.37
564.57	46087.49
564.74	46405.80
564.90	46415.16
565.07	46403.46
565.23	46541.55
565.39	46188.13
565.56	46314.52
565.72	46358.99
565.88	46335.59
566.05	46256.01
566.21	46342.61
566.38	46227.92
566.54	46710.07
566.70	46520.49
566.87	46836.46
567.03	46567.30
567.19	46513.47
567.36	46838.80
567.52	46167.07
567.68	46536.87
567.85	46263.03
568.01	46995.62
568.17	46443.25
568.34	46595.38
568.50	46483.04
568.66	46597.73
568.83	46188.13
568.99	46117.92
569.15	46387.08
569.32	46389.42
569.48	46010.25
569.64	46995.62
569.81	46506.44
569.97	46454.95
570.13	46543.89
570.30	46122.60
570.46	46028.98
570.62	46124.94
570.78	45872.16
570.95	46555.60
571.11	46555.60
571.27	46541.55
571.43	46527.51
571.60	46508.79
571.76	46476.02
571.92	46452.61
572.09	46515.81
572.25	46864.55
572.41	47086.90
572.57	46665.60
572.74	46794.33
572.90	47002.64
573.06	46845.82
573.22	46904.34
573.38	46642.20
573.55	46457.29
573.71	46817.74
573.87	46309.84
574.03	46368.35
574.20	46309.84
574.36	46799.01
574.52	46557.94
574.68	46717.09
574.84	46726.46
575.01	46618.79
575.17	46616.45
575.33	46403.46
575.49	46808.37
575.65	46962.85
575.82	46740.50
575.98	46672.62
576.14	46609.43
576.30	46712.41
576.46	46700.71
576.62	46775.61
576.79	46548.57
576.95	46342.61
577.11	46752.20
577.27	46918.38
577.43	46756.88
577.59	46965.19
577.75	46927.74
577.92	46138.98
578.08	46588.36
578.24	46227.92
578.40	46302.82
578.56	46770.93
578.72	46712.41
578.88	47061.15
579.04	46796.67
579.21	46277.07
579.37	47012.00
579.53	46663.26
579.69	46525.17
579.85	46780.29
580.01	46653.90
580.17	47112.64
580.33	46859.87
580.49	46696.03
580.65	46913.70
580.82	46630.49
580.98	46220.90
581.14	46422.19
581.30	47484.79
581.46	46665.60
581.62	46768.58
581.78	46672.62
581.94	47334.99
582.10	46426.87
582.26	46719.43
582.42	47028.38
582.58	46497.08
582.74	46693.69
582.90	46918.38
583.06	47379.46
583.22	47014.34
583.38	47288.18
583.54	46969.87
583.70	47185.20
583.86	46862.21
584.02	46806.03
584.18	47119.66
584.34	46560.28
584.50	46799.01
584.66	46873.91
584.82	46944.12
584.98	47119.66
585.14	46791.99
585.30	46794.33
585.46	47044.77
585.62	46497.08
585.78	46913.70
585.94	46464.32
586.10	46579.00
586.26	46426.87
586.42	47047.11
586.58	47058.81
586.74	47070.51
586.90	46555.60
587.06	46862.21
587.22	46941.78
587.38	46429.21
587.54	46672.62
587.70	46773.27
587.86	46864.55
588.02	47098.60
588.18	47206.26
588.34	46902.00
588.49	46419.84
588.65	45652.15
588.81	46122.60
588.97	46394.10
589.13	46031.32
589.29	46363.67
589.45	46426.87
589.61	46738.16
589.77	47112.64
589.93	46616.45
590.08	46611.77
590.24	46852.84
590.40	47388.83
590.56	47260.10
590.72	46845.82
590.88	46485.38
591.04	46948.81
591.20	47594.79
591.35	47070.51
591.51	47505.85
591.67	47002.64
591.83	46780.29
591.99	46761.56
592.15	46796.67
592.31	47173.50
592.46	46719.43
592.62	47178.18
592.78	47147.75
592.94	47459.04
593.10	47114.98
593.26	46969.87
593.41	46990.94
593.57	47014.34
593.73	46787.31
593.89	47028.38
594.05	46635.17
594.20	46885.61
594.36	47222.65
594.52	47124.35
594.68	46946.47
594.84	47009.66
594.99	47309.25
595.15	46799.01
595.31	46749.86
595.47	46672.62
595.62	47182.86
595.78	46855.18
595.94	46892.63
596.10	47248.39
596.25	47189.88
596.41	47157.11
596.57	46995.62
596.73	47093.92
596.88	46724.11
597.04	46852.84
597.20	47014.34
597.36	47028.38
597.51	46951.15
597.67	47468.40
597.83	47248.39
597.99	47182.86
598.14	47114.98
598.30	47016.68
598.46	46878.59
598.61	46892.63
598.77	46777.95
598.93	47035.41
599.09	46972.21
599.24	47206.26
599.40	47248.39
599.56	47241.37
599.71	47224.99
599.87	47040.09
600.03	47194.56
600.18	46768.58
600.34	47351.38
600.50	47199.24
600.65	46866.89
600.81	47009.66
600.97	47112.64
601.12	47292.86
601.28	46871.57
601.44	46522.83
601.59	47339.68
601.75	46955.83
601.91	46674.96
602.06	46525.17
602.22	47058.81
602.37	46946.47
602.53	46710.07
602.69	47079.88
602.84	46646.88
603.00	46777.95
603.16	47131.37
603.31	46944.12
603.47	46801.35
603.62	46691.35
603.78	47030.72
603.94	46679.64
604.09	47426.28
604.25	47187.54
604.40	47119.66
604.56	47260.10
604.71	46918.38
604.87	47002.64
605.03	46656.24
605.18	46593.04
605.34	46810.71
605.49	46508.79
605.65	46693.69
605.80	46752.20
605.96	46806.03
606.12	46859.87
606.27	47079.88
606.43	46813.05
606.58	46876.25
606.74	46595.38
606.89	46848.16
607.05	46801.35
607.20	46766.24
607.36	46518.15
607.51	46588.36
607.67	46288.77
607.82	46986.25
607.98	46576.66
608.13	46724.11
608.29	46632.83
608.44	46408.14
608.60	46429.21
608.75	46504.10
608.91	46279.41
609.06	46476.02
609.22	46576.66
609.37	46293.46
609.53	46281.75
609.68	46309.84
609.84	46433.89
609.99	46469.00
610.15	46326.22
610.30	46447.93
610.46	45518.74
610.61	45977.48
610.76	46555.60
610.92	46557.94
611.07	46663.26
611.23	46330.90
611.38	46506.44
611.54	46277.07
611.69	46064.08
611.84	45914.29
612.00	45872.16
612.15	45841.73
612.31	45982.16
612.46	45869.82
612.62	46227.92
612.77	46333.24
612.92	46871.57
613.08	46122.60
613.23	46131.96
613.39	45958.76
613.54	45769.18
613.69	45820.67
613.85	45900.25
614.00	45893.22
614.15	46167.07
614.31	46021.95
614.46	46108.55
614.62	46092.17
614.77	45766.84
614.92	46033.66
615.08	45457.88
615.23	45441.50
615.38	45530.44
615.54	45085.74
615.69	45394.69
615.84	45251.92
616.00	45397.03
616.15	45549.17
616.30	45439.16
616.46	45446.18
616.61	45146.59
616.76	45069.36
616.92	44800.19
617.07	45134.89
617.22	44713.59
617.37	45137.23
617.53	45385.33
617.68	45708.32
617.83	45326.81
617.99	45504.70
618.14	45738.75
618.29	45296.39
618.45	45275.32
618.60	44994.46
618.75	45160.64
618.90	45132.55
619.06	45385.33
619.21	45134.89
619.36	46000.89
619.51	45446.18
619.67	45078.72
619.82	45001.48
619.97	45242.56
620.12	45088.08
620.28	44463.16
620.43	45024.89
620.58	45022.54
620.73	44744.02
620.89	44755.72
621.04	45336.18
621.19	44935.95
621.34	44877.43
621.49	44556.78
621.65	44624.65
621.80	44615.29
621.95	44226.76
622.10	44371.88
622.25	44149.53
622.41	44032.50
622.56	44650.40
622.71	44524.01
622.86	44624.65
623.01	44975.73
623.16	44177.61
623.32	44449.11
623.47	43959.94
623.62	44341.45
623.77	44266.55
623.92	44601.25
624.07	44149.53
624.23	44280.60
624.38	44011.43
624.53	43814.83
624.68	43800.79
624.83	43971.64
624.98	43849.94
625.13	43732.91
625.29	43487.15
625.44	43999.73
625.59	43819.51
625.74	43421.62
625.89	43227.35
626.04	43126.71
626.19	43758.66
626.34	43723.55
626.49	43739.93
626.65	44091.01
626.80	43758.66
626.95	43739.93
627.10	43817.17
627.25	43412.26
627.40	43213.31
627.55	43152.46
627.70	42677.33
627.85	43227.35
628.00	43091.60
628.15	42997.98
628.30	42831.80
628.45	43454.39
628.60	43098.62
628.76	43379.49
628.91	43107.99
629.06	43168.84
629.21	42820.10
629.36	43573.75
629.51	43473.11
629.66	43405.23
629.81	42670.31
629.96	42724.14
630.11	43178.20
630.26	42883.30
630.41	43079.90
630.56	42841.17
630.71	42895.00
630.86	42787.33
631.01	42738.18
631.16	42789.67
631.31	43012.02
631.46	42780.31
631.61	42270.08
631.76	42745.20
631.91	42361.36
632.06	43145.44
632.21	42878.61
632.36	42759.25
632.51	42160.07
632.66	42230.29
632.81	42082.83
632.96	42499.45
633.10	42375.40
633.25	42478.38
633.40	42321.57
633.55	42527.53
633.70	42029.00
633.85	42129.64
634.00	42366.04
634.15	42007.94
634.30	42043.04
634.45	42260.71
634.60	42141.35
634.75	42288.80
634.90	42380.08
635.05	42445.62
635.19	42192.84
635.34	42251.35
635.49	41909.63
635.64	41778.56
635.79	41808.99
635.94	42043.04
636.09	41886.23
636.24	42117.94
636.39	41708.35
636.53	41736.43
636.68	41282.37
636.83	41862.82
636.98	41769.20
637.13	41635.79
637.28	41619.41
637.43	41862.82
637.57	41886.23
637.72	41724.73
637.87	42064.11
638.02	41675.58
638.17	41933.04
638.32	41411.10
638.46	41652.17
638.61	41357.27
638.76	41572.60
638.91	41333.86
639.06	41411.10
639.20	41268.33
639.35	41486.00
639.50	41366.63
639.65	41635.79
639.80	41450.89
639.94	41179.39
640.09	41556.21
640.24	41006.19
640.39	40945.33
640.54	41076.40
640.68	41148.96
640.83	40821.28
640.98	41027.25
641.13	40795.54
641.27	41144.28
641.42	40711.28
641.57	41024.91
641.72	40676.17
641.86	40502.97
642.01	40364.88
642.16	40634.04
642.31	40533.40
642.45	40598.93
642.60	40360.20
642.75	40634.04
642.90	40903.20
643.04	41015.55
643.19	40378.92
643.34	40755.75
643.48	40320.41
643.63	40315.73
643.78	40355.52
643.93	40027.84
644.07	40383.60
644.22	40126.14
644.37	40470.20
644.51	40222.11
644.66	40786.18
644.81	40641.06
644.95	40659.79
645.10	40662.13
645.25	40549.78
645.39	40893.84
645.54	40519.35
645.69	39945.92
645.83	40332.11
645.98	40336.79
646.13	39866.34
646.27	40144.87
646.42	39835.92
646.57	40163.59
646.71	40048.91
646.86	39585.48
647.00	40187.00
647.15	40060.61
647.30	39966.99
647.44	39709.53
647.59	39503.56
647.74	39470.79
647.88	39512.92
648.03	40187.00
648.17	39821.87
648.32	39662.72
648.47	39899.11
648.61	39482.50
648.76	39772.72
648.90	39775.06
649.05	39955.29
649.20	39533.99
649.34	39302.28
649.49	39002.69
649.63	39054.18
649.78	39119.71
649.92	39421.64
650.07	39477.82
650.21	39108.01
650.36	39723.57
650.51	39089.29
650.65	40187.00
650.80	39533.99
650.94	39761.02
651.09	39576.12
651.23	38981.62
651.38	39145.46
651.52	39103.33
651.67	39543.35
651.81	39026.09
651.96	38560.33
652.10	38981.62
652.25	38953.54
652.39	39178.23
652.54	39063.54
652.68	39171.21
652.83	39257.81
652.97	38782.68
653.12	38822.47
653.26	38719.48
653.41	39145.46
653.55	38366.06
653.70	38663.31
653.84	38754.59
653.99	38621.18
654.13	38656.29
654.27	38550.96
654.42	38745.23
654.56	38518.20
654.71	38710.12
654.85	38728.84
655.00	38763.95
655.14	38162.43
655.29	37982.21
655.43	37830.08
655.57	38124.99
655.72	37951.79
655.86	37642.84
656.01	38244.35
656.15	37577.30
656.30	38134.35
656.44	37806.67
656.58	37764.54
656.73	37858.17
656.87	37734.12
657.01	37579.64
657.16	38038.39
657.30	38094.56
657.45	37776.25
657.59	37834.76
657.73	37603.05
657.88	37876.89
658.02	38106.26
658.16	37879.23
658.31	38029.02
658.45	37801.99
658.60	37670.92
658.74	37516.45
658.88	37656.88
659.03	37244.94
659.17	37090.47
659.31	37479.00
659.46	37418.14
659.60	37343.25
659.74	37516.45
659.89	37305.80
660.03	37333.89
660.17	37085.79
660.32	37134.94
660.46	37062.38
660.60	36926.63
660.74	37305.80
660.89	36928.97
661.03	37235.58
661.17	36762.79
661.32	36624.70
661.46	36645.77
661.60	36708.96
661.74	37017.91
661.89	36397.67
662.03	36978.12
662.17	36526.40
662.31	36662.15
662.46	36856.42
662.60	37046.00
662.74	36510.02
662.88	36634.06
663.03	36067.66
663.17	36109.78
663.31	35847.64
663.45	35995.10
663.60	36261.92
663.74	36013.82
663.88	36119.15
664.02	36114.47
664.17	35927.22
664.31	35730.62
664.45	35857.01
664.59	35398.26
664.73	35536.35
664.88	35522.31
665.02	35225.06
665.16	35578.48
665.30	35541.03
665.44	35580.82
665.59	35564.44
665.73	35316.34
665.87	35007.39
666.01	35318.68
666.15	35232.08
666.29	35122.08
666.44	35695.51
666.58	34965.26
666.72	34883.34
666.86	34824.83
667.00	34881.00
667.14	34995.69
667.28	34714.83
667.43	34333.32
667.57	34810.79
667.71	34529.92
667.85	34340.34
667.99	34555.67
668.13	34403.53
668.27	34302.89
668.41	34497.16
668.56	34232.68
668.70	34525.24
668.84	34015.01
668.98	34106.29
669.12	34047.77
669.26	34113.31
669.40	33617.11
669.54	33703.71
669.68	33687.33
669.82	33708.40
669.96	33682.65
670.10	33792.65
670.25	33656.90
670.39	33228.59
670.53	33408.81
670.67	33345.61
670.81	33717.76
670.95	33046.02
671.09	33326.89
671.23	33532.86
671.37	33001.55
671.51	33118.58
671.65	32699.62
671.79	32126.19
671.93	32875.16
672.07	33064.75
672.21	33055.39
672.35	32776.86
672.49	32732.39
672.63	32699.62
672.77	32641.11
672.91	32503.02
673.05	32659.84
673.19	32395.35
673.33	31955.33
673.47	32341.52
673.61	31828.95
673.75	32077.04
673.89	32018.53
674.03	31601.91
674.17	31587.87
674.31	31571.49
674.45	31379.56
674.59	31672.13
674.73	31676.81
674.87	31428.71
675.01	31325.73
675.15	31482.55
675.29	31381.90
675.43	31339.77
675.56	31189.98
675.70	31030.82
675.84	31079.97
675.98	29830.13
676.12	30974.65
676.26	30773.36
676.40	30558.03
676.54	30810.81
676.68	30679.74
676.82	30295.89
676.96	30103.97
677.10	30412.92
677.23	30164.82
677.37	30305.26
677.51	30012.69
677.65	30110.99
677.79	29764.59
677.93	29661.61
678.07	29621.82
678.21	29322.23
678.34	29230.95
678.48	29366.70
678.62	29069.45
678.76	29092.86
678.90	28776.89
679.04	28952.43
679.18	29057.75
679.31	28512.41
679.45	28999.24
679.59	28414.10
679.73	28182.39
679.87	28292.40
680.00	27927.27
680.14	28161.33
680.28	27903.87
680.42	28393.04
680.56	28290.06
680.70	27931.95
680.83	28280.69
680.97	28044.30
681.11	28030.26
681.25	27281.28
681.39	27606.62
681.52	27782.16
681.66	27618.32
681.80	27250.86
681.94	26930.20
682.07	27068.30
682.21	27454.48
682.35	26679.77
682.49	27063.61
682.62	27082.34
682.76	26780.41
682.90	26632.96
683.04	26366.13
683.17	26469.12
683.31	26396.56
683.45	26038.46
683.59	26176.55
683.72	26099.31
683.86	25591.42
684.00	25977.61
684.13	25771.64
684.27	25649.93
684.41	26029.10
684.55	25441.62
684.68	25523.54
684.82	25310.55
684.96	25603.12
685.09	25453.33
685.23	25252.04
685.37	25111.61
685.50	25230.98
685.64	24746.48
685.78	25006.28
685.91	24570.94
686.05	24739.46
686.19	24407.11
686.32	24114.54
686.46	23594.94
686.60	23810.27
686.73	23583.24
686.87	23655.79
687.01	23206.41
687.14	23335.14
687.28	23309.40
687.42	23267.27
687.55	23566.85
687.69	23473.23
687.82	23433.44
687.96	23288.33
688.10	23260.24
688.23	23119.81
688.37	22677.45
688.50	22700.86
688.64	22848.31
688.78	22857.67
688.91	22647.02
689.05	22775.75
689.18	22707.88
689.32	22319.35
689.46	22263.18
689.59	22412.97
689.73	22302.96
689.86	22314.67
690.00	22054.87
690.13	22080.61
690.27	21846.56
690.41	22015.08
690.54	21378.45
690.68	21315.26
690.81	21600.80
690.95	21446.33
691.08	21296.53
691.22	21521.23
691.35	21153.76
691.49	21685.06
691.62	21523.57
691.76	21034.39
691.89	20912.69
692.03	20706.72
692.16	20877.58
692.30	20678.63
692.43	20334.57
692.57	20112.22
692.70	20540.54
692.84	20205.84
692.97	20332.23
693.11	20053.71
693.24	20039.67
693.38	20144.99
693.51	19955.41
693.65	20002.22
693.78	19800.93
693.92	19969.45
694.05	19709.65
694.19	19613.69
694.32	19559.86
694.45	19524.75
694.59	18885.78
694.72	18953.66
694.86	19260.27
694.99	19157.28
695.13	19470.92
695.26	19037.92
695.39	18752.37
695.53	18991.11
695.66	18920.89
695.80	18775.78
695.93	18733.65
696.07	18754.71
696.20	18310.01
696.33	18478.53
696.47	18317.03
696.60	18483.21
696.73	18256.18
696.87	18267.88
697.00	18141.49
697.14	17860.63
697.27	18012.76
697.40	17839.56
697.54	17792.75
697.67	17490.82
697.80	17378.48
697.94	17451.03
698.07	17385.50
698.21	16994.63
698.34	17163.15
698.47	17116.34
698.61	16929.09
698.74	16924.41
698.87	17043.78
699.01	16718.45
699.14	16645.89
699.27	16688.02
699.40	16428.22
699.54	16458.65
699.67	16493.76
699.80	16287.79
699.94	16503.12
700.07	16278.43
700.20	16177.78
700.34	16212.89
700.47	16170.76
700.60	16159.06
700.73	16252.68
700.87	15899.26
701.00	16011.60
701.13	15660.52
701.26	15728.40
701.40	15623.08
701.53	15590.31
701.66	15492.01
701.79	15199.44
701.93	15412.43
702.06	15246.25
702.19	15290.72
702.32	15234.55
702.46	14867.08
702.59	14934.96
702.72	15215.82
702.85	14789.85
702.99	14829.63
703.12	14731.33
703.25	14345.14
703.38	14534.73
703.51	14457.49
703.65	14483.24
703.78	14483.24
703.91	14286.63
704.04	14593.24
704.17	14413.02
704.31	14153.22
704.44	14043.21
704.57	14295.99
704.70	14090.02
704.83	14001.08
704.96	13949.59
705.10	13820.86
705.23	13839.59
>>>>>End Processed Spectral Data<<<<<
