SpectraSuite Data File
++++++++++++++++++++++++++++++++++++
Date: Fri Oct 25 10:47:34 EDT 2013
User: price-jones
Dark Spectrum Present: No
Reference Spectrum Present: No
Number of Sampled Component Spectra: 1
Spectrometers: USB2+H05261
Integration Time (usec): 100000 (USB2+H05261)
Spectra Averaged: 1 (USB2+H05261)
Boxcar Smoothing: 0 (USB2+H05261)
Correct for Electrical Dark: No (USB2+H05261)
Strobe/Lamp Enabled: No (USB2+H05261)
Correct for Detector Non-linearity: No (USB2+H05261)
Correct for Stray Light: No (USB2+H05261)
Number of Pixels in Processed Spectrum: 2048
>>>>>Begin Processed Spectral Data<<<<<
365.73	93.62
365.92	93.62
366.12	93.62
366.32	63.19
366.52	4.68
366.72	39.79
366.91	126.39
367.11	30.43
367.31	0.00
367.51	21.06
367.70	0.00
367.90	30.43
368.10	14.04
368.30	14.04
368.49	42.13
368.69	95.96
368.89	42.13
369.09	23.41
369.28	119.37
369.48	23.41
369.68	74.90
369.87	119.37
370.07	114.69
370.27	102.98
370.47	229.37
370.66	367.46
370.86	360.44
371.06	463.43
371.25	486.83
371.45	365.12
371.65	477.47
371.84	468.11
372.04	496.19
372.24	535.98
372.44	507.90
372.63	528.96
372.83	482.15
373.03	489.17
373.22	440.02
373.42	447.04
373.62	561.73
373.81	465.77
374.01	521.94
374.21	603.86
374.40	505.56
374.60	554.71
374.79	594.50
374.99	547.69
375.19	514.92
375.38	592.16
375.58	592.16
375.78	533.64
375.97	561.73
376.17	561.73
376.37	596.84
376.56	512.58
376.76	535.98
376.95	631.94
377.15	641.31
377.35	550.03
377.54	580.45
377.74	575.77
377.93	552.37
378.13	629.60
378.33	566.41
378.52	638.97
378.72	638.97
378.91	587.47
379.11	596.84
379.31	592.16
379.50	559.39
379.70	648.33
379.89	653.01
380.09	603.86
380.28	655.35
380.48	660.03
380.68	617.90
380.87	620.24
381.07	669.39
381.26	702.16
381.46	603.86
381.65	655.35
381.85	650.67
382.04	711.52
382.24	606.20
382.43	690.46
382.63	709.18
382.83	704.50
383.02	678.76
383.22	730.25
383.41	748.97
383.61	744.29
383.80	676.41
384.00	671.73
384.19	788.76
384.39	664.71
384.58	741.95
384.78	737.27
384.97	720.88
385.17	744.29
385.36	685.78
385.56	699.82
385.75	692.80
385.95	741.95
386.14	758.33
386.34	713.86
386.53	713.86
386.72	765.36
386.92	798.12
387.11	812.17
387.31	774.72
387.50	795.78
387.70	765.36
387.89	903.45
388.09	833.23
388.28	795.78
388.48	823.87
388.67	915.15
388.86	931.53
389.06	882.38
389.25	870.68
389.45	884.72
389.64	868.34
389.84	940.90
390.03	917.49
390.22	910.47
390.42	882.38
390.61	908.13
390.81	964.30
391.00	997.07
391.19	1001.75
391.39	1062.60
391.58	966.64
391.78	1013.45
391.97	940.90
392.16	968.98
392.36	1004.09
392.55	945.58
392.75	933.87
392.94	837.91
393.13	957.28
393.33	915.15
393.52	964.30
393.71	1004.09
393.91	1076.65
394.10	1041.54
394.29	971.32
394.49	1057.92
394.68	959.62
394.88	1032.18
395.07	1104.73
395.26	1057.92
395.46	1111.75
395.65	1142.18
395.84	1083.67
396.04	1151.54
396.23	1071.97
396.42	1135.16
396.62	1130.48
396.81	1118.78
397.00	1034.52
397.19	1118.78
397.39	1245.16
397.58	1291.98
397.77	1263.89
397.97	1235.80
398.16	1270.91
398.35	1355.17
398.55	1345.81
398.74	1313.04
398.93	1240.48
399.12	1245.16
399.32	1214.74
399.51	1310.70
399.70	1315.38
399.90	1409.00
400.09	1465.18
400.28	1409.00
400.47	1270.91
400.67	1460.49
400.86	1432.41
401.05	1493.26
401.24	1439.43
401.44	1420.71
401.63	1507.30
401.82	1481.56
402.01	1376.24
402.21	1448.79
402.40	1572.84
402.59	1556.46
402.78	1488.58
402.97	1507.30
403.17	1554.12
403.36	1565.82
403.55	1493.26
403.74	1645.40
403.93	1626.67
404.13	1673.48
404.32	1607.95
404.51	1607.95
404.70	1657.10
404.89	1685.19
405.09	1767.10
405.28	1769.44
405.47	1694.55
405.66	1701.57
405.85	1664.12
406.05	1661.78
406.24	1713.27
406.43	1736.68
406.62	1762.42
406.81	1846.68
407.00	1722.63
407.20	1781.15
407.39	1778.81
407.58	1860.73
407.77	1879.45
407.96	1937.96
408.15	1888.81
408.34	2031.58
408.54	1809.23
408.73	1933.28
408.92	1961.37
409.11	1989.46
409.30	1921.58
409.49	1980.09
409.68	2094.78
409.87	1872.43
410.07	1966.05
410.26	1961.37
410.45	2059.67
410.64	2052.65
410.83	2204.78
411.02	2157.97
411.21	2207.13
411.40	2242.23
411.59	2162.66
411.78	2176.70
411.98	2193.08
412.17	2305.43
412.36	2319.47
412.55	2331.17
412.74	2457.56
412.93	2466.92
413.12	2366.28
413.31	2495.01
413.50	2459.90
413.69	2359.26
413.88	2562.89
414.07	2600.34
414.26	2567.57
414.45	2600.34
414.64	2567.57
414.83	2541.82
415.02	2581.61
415.22	2600.34
415.41	2722.04
415.60	2738.43
415.79	2818.00
415.98	2857.79
416.17	2867.16
416.36	2708.00
416.55	2829.71
416.74	2909.29
416.93	2827.37
417.12	2841.41
417.31	2825.03
417.50	2876.52
417.69	3026.31
417.88	2986.52
418.07	2928.01
418.26	3021.63
418.45	2963.12
418.64	3089.51
418.83	3124.62
419.02	3204.19
419.21	3089.51
419.39	3066.10
419.58	3258.03
419.77	3178.45
419.96	3178.45
420.15	3185.47
420.34	3192.49
420.53	3318.88
420.72	3332.92
420.91	3311.86
421.10	3412.50
421.29	3372.71
421.48	3265.05
421.67	3405.48
421.86	3321.22
422.05	3382.07
422.24	3471.01
422.43	3243.98
422.61	3368.03
422.80	3548.25
422.99	3520.17
423.18	3562.30
423.37	3473.36
423.56	3393.78
423.75	3365.69
423.94	3349.31
424.13	3248.66
424.32	3258.03
424.50	3557.61
424.69	3583.36
424.88	3623.15
425.07	3412.50
425.26	3527.19
425.45	3466.33
425.64	3466.33
425.83	3569.32
426.01	3557.61
426.20	3410.16
426.39	3555.27
426.58	3515.48
426.77	3459.31
426.96	3616.13
427.15	3412.50
427.33	3625.49
427.52	3623.15
427.71	3660.60
427.90	3660.60
428.09	3768.26
428.28	3702.73
428.46	3712.09
428.65	3646.55
428.84	3810.39
429.03	3990.61
429.22	3686.34
429.40	3878.27
429.59	3770.60
429.78	3609.11
429.97	3590.38
430.16	3728.47
430.34	3775.28
430.53	3819.75
430.72	3906.35
430.91	3915.72
431.10	3894.65
431.28	3988.27
431.47	4084.23
431.66	4198.92
431.85	3969.55
432.03	4042.11
432.22	4074.87
432.41	4170.83
432.60	4184.88
432.79	4156.79
432.97	4046.79
433.16	4238.71
433.35	4081.89
433.54	4252.75
433.72	4294.88
433.91	4109.98
434.10	4215.30
434.28	4337.01
434.47	4156.79
434.66	4468.08
434.85	4327.65
435.03	4322.97
435.22	4175.52
435.41	4447.02
435.59	4297.22
435.78	4435.32
435.97	4559.36
436.16	4498.51
436.34	4449.36
436.53	4475.10
436.72	4702.14
436.90	4545.32
437.09	4437.66
437.28	4519.57
437.46	4709.16
437.65	4507.87
437.84	4526.60
438.02	4629.58
438.21	4713.84
438.40	4360.42
438.58	4770.01
438.77	4873.00
438.96	4823.84
439.14	4807.46
439.33	4912.78
439.52	4903.42
439.70	5022.79
439.89	4931.51
440.08	5135.14
440.26	5114.07
440.45	4891.72
440.63	5041.51
440.82	5322.38
441.01	5041.51
441.19	5111.73
441.38	5348.12
441.57	5247.48
441.75	5383.23
441.94	5600.90
442.12	5495.58
442.31	5687.50
442.50	5547.07
442.68	5518.98
442.87	5511.96
443.05	5493.24
443.24	5664.10
443.43	5701.54
443.61	5502.60
443.80	5806.87
443.98	5593.88
444.17	5455.79
444.35	5694.52
444.54	5844.32
444.73	5654.73
444.91	5696.86
445.10	5799.85
445.28	5717.93
445.47	5762.40
445.65	5872.40
445.84	5771.76
446.02	5802.19
446.21	5933.26
446.39	5900.49
446.58	5827.93
446.77	5879.43
446.95	5816.23
447.14	5914.53
447.32	6036.24
447.51	5839.64
447.69	5900.49
447.88	5853.68
448.06	5837.30
448.25	5827.93
448.43	6040.92
448.62	5846.66
448.80	5870.06
448.99	5877.09
449.17	6150.93
449.36	5891.13
449.54	6160.29
449.73	6204.76
449.91	6171.99
450.10	6228.17
450.28	6342.85
450.46	6359.24
450.65	6153.27
450.83	6312.42
451.02	6249.23
451.20	6333.49
451.39	6480.94
451.57	6253.91
451.76	6387.32
451.94	6441.15
452.13	6548.82
452.31	6230.51
452.49	6310.08
452.68	6296.04
452.86	6413.07
453.05	6497.33
453.23	6459.88
453.42	6569.88
453.60	6342.85
453.78	6546.48
453.97	6534.78
454.15	6600.31
454.34	6523.07
454.52	6644.78
454.70	6775.85
454.89	6595.63
455.07	6633.08
455.26	6715.00
455.44	6867.13
455.62	6771.17
455.81	6799.26
455.99	6822.66
456.17	6857.77
456.36	6801.60
456.54	6853.09
456.73	6869.47
456.91	7337.58
457.09	7115.23
457.28	7143.32
457.46	7155.02
457.64	6998.20
457.83	7236.94
458.01	7138.63
458.19	7190.13
458.38	7229.91
458.56	7335.24
458.74	7250.98
458.93	7396.09
459.11	7442.90
459.29	7307.15
459.48	7426.52
459.66	7325.88
459.84	7232.26
460.03	7613.76
460.21	7438.22
460.39	7550.57
460.57	7552.91
460.76	7630.15
460.94	7545.89
461.12	7590.36
461.31	7442.90
461.49	7719.09
461.67	7669.94
461.85	7777.60
462.04	7765.90
462.22	8276.13
462.40	8037.40
462.59	7880.58
462.77	7770.58
462.95	7882.92
463.13	7765.90
463.32	7723.77
463.50	8006.97
463.68	7854.84
463.86	7962.50
464.05	7946.12
464.23	8100.59
464.41	7782.28
464.59	7887.61
464.78	7969.52
464.96	8060.80
465.14	7997.61
465.32	8269.11
465.50	8074.85
465.69	8168.47
465.87	8219.96
466.05	8191.88
466.23	8379.12
466.41	8166.13
466.60	8234.00
466.78	8219.96
466.96	8315.92
467.14	8430.61
467.32	8369.76
467.51	8435.29
467.69	8241.03
467.87	8360.39
468.05	8428.27
468.23	8362.73
468.41	8425.93
468.60	8585.08
468.78	8578.06
468.96	8571.04
469.14	8709.13
469.32	8634.24
469.50	8669.34
469.69	8690.41
469.87	8727.86
470.05	8952.55
470.23	8767.65
470.41	8638.92
470.59	8887.01
470.77	8854.25
470.95	8802.75
471.14	9198.31
471.32	8992.34
471.50	9001.70
471.68	9071.92
471.86	9193.62
472.04	9193.62
472.22	9233.41
472.40	9224.05
472.58	9401.93
472.77	9191.28
472.95	9472.15
473.13	9708.54
473.31	9357.46
473.49	9317.67
473.67	9462.79
473.85	9544.70
474.03	9900.47
474.21	9568.11
474.39	9820.89
474.57	9764.72
474.75	10127.50
474.93	10122.82
475.12	10045.58
475.30	10012.81
475.48	9944.94
475.66	10225.80
475.84	10097.07
476.02	10101.75
476.20	10314.74
476.38	10312.40
476.56	10651.78
476.74	10602.63
476.92	10384.96
477.10	10530.07
477.28	10885.83
477.46	10651.78
477.64	10974.77
477.82	11080.10
478.00	11166.70
478.18	10984.13
478.36	11190.10
478.54	11562.25
478.72	11456.92
478.90	11417.13
479.08	11634.80
479.26	11733.11
479.44	11749.49
479.62	12077.16
479.80	11871.20
479.98	12128.66
480.16	12266.75
480.34	12053.76
480.52	12432.93
480.70	12184.83
480.88	12297.17
481.06	12358.03
481.24	12423.56
481.41	12666.98
481.59	12996.99
481.77	12741.88
481.95	12847.20
482.13	12936.14
482.31	12741.88
482.49	13324.67
482.67	13528.30
482.85	13460.42
483.03	13603.19
483.21	13603.19
483.39	13647.66
483.57	13874.70
483.74	13825.54
483.92	13935.55
484.10	14047.90
484.28	14366.21
484.46	14436.42
484.64	14539.41
484.82	14527.71
485.00	14539.41
485.18	14707.93
485.35	14817.93
485.53	14773.46
485.71	14953.68
485.89	14827.29
486.07	14939.64
486.25	15225.18
486.43	15431.15
486.61	15384.34
486.78	15360.94
486.96	15513.07
487.14	15786.91
487.32	15941.39
487.50	16168.42
487.68	16432.90
487.85	16692.70
488.03	16613.12
488.21	16964.20
488.39	16681.00
488.57	16858.88
488.75	17027.40
488.92	17392.52
489.10	17715.51
489.28	17411.25
489.46	18033.83
489.64	17685.09
489.81	18031.49
489.99	18380.23
490.17	18258.52
490.35	18464.49
490.53	18293.63
490.70	18682.16
490.88	18485.55
491.06	18820.25
491.24	18621.30
491.41	18726.63
491.59	18916.21
491.77	19080.05
491.95	19232.18
492.13	19206.44
492.30	19529.43
492.48	19620.71
492.66	19892.21
492.84	19913.28
493.01	19964.77
493.19	19695.61
493.37	20072.43
493.54	20175.42
493.72	20662.25
493.90	20577.99
494.08	20776.94
494.25	20982.90
494.43	21046.10
494.61	20882.26
494.79	21240.36
494.96	21090.57
495.14	20917.37
495.32	21486.12
495.49	21420.58
495.67	21355.05
495.85	21516.54
496.02	21895.71
496.20	22162.53
496.38	22457.44
496.55	21991.67
496.73	22478.50
496.91	22258.49
497.09	22642.34
497.26	23080.02
497.44	22754.69
497.62	22958.31
497.79	22986.40
497.97	22848.31
498.14	23360.89
498.32	23419.40
498.50	23328.12
498.67	23894.53
498.85	23742.39
499.03	23807.93
499.20	23908.57
499.38	23988.15
499.56	23845.38
499.73	24159.01
499.91	24095.82
500.08	24561.58
500.26	23700.26
500.44	24599.03
500.61	24526.47
500.79	24638.82
500.97	24496.05
501.14	25202.89
501.32	25071.82
501.49	25083.52
501.67	24875.21
501.84	25291.83
502.02	25301.19
502.20	25418.22
502.37	25687.38
502.55	25053.09
502.72	25336.30
502.90	25699.08
503.07	25799.73
503.25	25598.44
503.43	25907.39
503.60	25900.37
503.78	25769.30
503.95	26054.84
504.13	26171.87
504.30	26181.23
504.48	26274.85
504.65	26366.13
504.83	26490.18
505.01	26668.06
505.18	26438.69
505.36	26827.22
505.53	26796.79
505.71	26906.80
505.88	27435.76
506.06	26993.40
506.23	27339.80
506.41	27119.79
506.58	27112.77
506.76	27508.32
506.93	27494.27
507.11	27562.15
507.28	27524.70
507.46	27599.60
507.63	27679.18
507.81	27559.81
507.98	27587.89
508.16	27744.71
508.33	27871.10
508.50	28170.69
508.68	28474.96
508.85	28425.81
509.03	28304.10
509.20	28613.05
509.38	28446.87
509.55	28856.46
509.73	28973.49
509.90	28940.72
510.08	28694.97
510.25	28964.13
510.42	29160.73
510.60	29242.65
510.77	28931.36
510.95	29429.90
511.12	29355.00
511.30	29429.90
511.47	29390.11
511.64	29544.58
511.82	29785.66
511.99	29771.61
512.17	29914.39
512.34	29280.10
512.51	30026.73
512.69	30106.31
512.86	30380.15
513.04	30089.93
513.21	30160.14
513.38	30171.85
513.56	30412.92
513.73	30162.48
513.90	30401.22
514.08	30438.67
514.25	30476.12
514.43	30637.61
514.60	30646.97
514.77	30988.69
514.95	30864.64
515.12	30782.73
515.29	30972.31
515.47	31377.22
515.64	31445.10
515.81	31225.09
515.99	31264.88
516.16	31606.59
516.33	31271.90
516.51	31498.93
516.68	31367.86
516.85	31150.19
517.03	31145.51
517.20	31681.49
517.37	31721.28
517.54	31978.74
517.72	31374.88
517.89	31728.30
518.06	32285.35
518.24	31496.59
518.41	31899.16
518.58	31761.07
518.75	32102.79
518.93	32554.51
519.10	32168.32
519.27	32496.00
519.45	32194.07
519.62	32545.15
519.79	32591.96
519.96	32477.27
520.14	32943.04
520.31	32861.12
520.48	33593.71
520.65	32919.63
520.83	33322.21
521.00	33411.15
521.17	33111.56
521.34	33556.26
521.52	33652.22
521.69	33242.63
521.86	33455.62
522.03	33750.52
522.20	34045.43
522.38	33895.64
522.55	34218.63
522.72	33699.03
522.89	33624.14
523.07	33958.83
523.24	33757.55
523.41	34176.50
523.58	33764.57
523.75	34883.34
523.92	34260.76
524.10	34705.46
524.27	34338.00
524.44	34494.82
524.61	35108.04
524.78	34911.43
524.96	34799.08
525.13	34653.97
525.30	34625.89
525.47	35023.78
525.64	35321.02
525.81	35000.37
525.98	35248.47
526.16	34988.67
526.33	34731.21
526.50	35241.45
526.67	35002.71
526.84	35019.10
527.01	35178.25
527.18	35491.88
527.36	35702.53
527.53	35637.00
527.70	35571.46
527.87	36016.16
528.04	35821.90
528.21	36257.24
528.38	35866.37
528.55	35920.20
528.72	35924.88
528.89	36760.45
529.07	36034.89
529.24	35999.78
529.41	36458.52
529.58	36212.77
529.75	36292.35
529.92	36357.88
530.09	36240.86
530.26	36484.27
530.43	36556.83
530.60	36388.31
530.77	36355.54
530.94	36753.43
531.11	36685.56
531.28	36835.35
531.46	36844.71
531.63	36734.71
531.80	36638.75
531.97	36933.65
532.14	37092.81
532.31	36692.58
532.48	36898.55
532.65	36973.44
532.82	37263.67
532.99	37317.50
533.16	37125.58
533.33	37315.16
533.50	37696.67
533.67	37368.99
533.84	37558.58
534.01	37558.58
534.18	37340.91
534.35	38066.47
534.52	37413.46
534.69	37677.94
534.86	37867.53
535.03	37612.41
535.20	38073.49
535.37	38059.45
535.54	38176.48
535.71	38012.64
535.88	38302.87
536.05	38237.33
536.22	38022.00
536.38	37907.32
536.55	38064.13
536.72	38368.40
536.89	37904.98
537.06	38206.90
537.23	38375.42
537.40	38176.48
537.57	38569.69
537.74	38766.29
537.91	39147.80
538.08	38808.42
538.25	38525.22
538.42	38146.05
538.59	38546.28
538.75	38377.76
538.92	38808.42
539.09	38965.24
539.26	38962.90
539.43	38995.67
539.60	38993.32
539.77	38665.65
539.94	39061.20
540.11	39400.58
540.28	38763.95
540.44	39112.69
540.61	39019.07
540.78	39154.82
540.95	39253.12
541.12	39435.69
541.29	39337.38
541.46	39065.88
541.62	39496.54
541.79	39768.04
541.96	39533.99
542.13	39374.83
542.30	39445.05
542.47	39770.38
542.63	39894.43
542.80	39672.08
542.97	39983.37
543.14	40411.69
543.31	40098.06
543.48	40154.23
543.64	41207.47
543.81	40582.55
543.98	40809.58
544.15	39908.47
544.32	40292.32
544.48	40556.80
544.65	40512.33
544.82	40364.88
544.99	40030.18
545.16	40364.88
545.32	40739.36
545.49	40734.68
545.66	40865.75
545.83	40446.80
546.00	40821.28
546.16	40645.74
546.33	40500.63
546.50	40442.12
546.67	40945.33
546.83	40610.64
547.00	40463.18
547.17	41027.25
547.34	40498.29
547.50	41434.50
547.67	41111.51
547.84	40872.78
548.00	41677.92
548.17	41368.97
548.34	41146.62
548.51	40985.12
548.67	41275.35
548.84	41612.38
549.01	41144.28
549.18	41322.16
549.34	41497.70
549.51	41462.59
549.68	41429.82
549.84	41888.57
550.01	41869.84
550.18	41713.03
550.34	41741.11
550.51	41462.59
550.68	41397.06
550.84	41481.31
551.01	41258.96
551.18	41488.34
551.34	41612.38
551.51	41584.30
551.68	41851.12
551.84	41984.53
552.01	41827.71
552.18	42506.47
552.34	41918.99
552.51	42157.73
552.68	41867.50
552.84	42012.62
553.01	42520.51
553.18	42043.04
553.34	41858.14
553.51	42040.70
553.67	41813.67
553.84	42321.57
554.01	42712.44
554.17	42377.74
554.34	42529.87
554.51	42768.61
554.67	42897.34
554.84	42569.66
555.00	42131.98
555.17	42120.28
555.33	42567.32
555.50	42391.78
555.67	42429.23
555.83	42607.11
556.00	42895.00
556.16	43388.85
556.33	43173.52
556.50	42927.77
556.66	43012.02
556.83	42876.27
556.99	42937.13
557.16	42997.98
557.32	42885.64
557.49	42913.72
557.65	42529.87
557.82	42616.47
557.98	42611.79
558.15	42953.51
558.32	42995.64
558.48	43122.03
558.65	43276.51
558.81	42696.05
558.98	43070.54
559.14	43147.78
559.31	43042.45
559.47	43096.28
559.64	43232.04
559.80	43360.76
559.97	42691.37
560.13	42838.83
560.30	42614.13
560.46	43545.67
560.63	42684.35
560.79	43276.51
560.96	43405.23
561.12	43433.32
561.29	43442.68
561.45	43051.81
561.61	43175.86
561.78	42916.06
561.94	42925.42
562.11	43337.36
562.27	43164.16
562.44	43576.09
562.60	43718.87
562.77	43639.29
562.93	43611.20
563.10	43856.96
563.26	43295.23
563.42	43599.50
563.59	43494.18
563.75	43658.01
563.92	43531.62
564.08	43421.62
564.24	43416.94
564.41	43889.73
564.57	43629.93
564.74	43807.81
564.90	43531.62
565.07	43810.15
565.23	43400.55
565.39	43498.86
565.56	43714.19
565.72	43519.92
565.88	43739.93
566.05	43744.61
566.21	43599.50
566.38	43564.39
566.54	43622.90
566.70	43959.94
566.87	44133.14
567.03	43700.14
567.19	44236.12
567.36	43859.30
567.52	43683.76
567.68	44083.99
567.85	43931.86
568.01	43791.42
568.17	43725.89
568.34	44069.95
568.50	43679.08
568.66	43826.53
568.83	43665.03
568.99	43409.92
569.15	43592.48
569.32	43981.01
569.48	44208.04
569.64	44215.06
569.81	43971.64
569.97	43667.37
570.13	43723.55
570.30	43997.39
570.46	44133.14
570.62	44156.55
570.78	43798.44
570.95	43770.36
571.11	44086.33
571.27	44100.37
571.43	44402.30
571.60	43976.33
571.76	43765.68
571.92	43828.87
572.09	43845.26
572.25	43934.20
572.41	44016.11
572.57	43885.04
572.74	44800.19
572.90	43995.05
573.06	44341.45
573.22	43826.53
573.38	44233.78
573.55	43702.48
573.71	44273.57
573.87	44315.70
574.03	44086.33
574.20	44006.75
574.36	44217.40
574.52	44495.92
574.68	44367.20
574.84	44474.86
575.01	44191.65
575.17	44093.35
575.33	44016.11
575.49	44233.78
575.65	44718.28
575.82	44486.56
575.98	44444.43
576.14	44456.14
576.30	44378.90
576.46	43725.89
576.62	43859.30
576.79	44041.86
576.95	44524.01
577.11	44069.95
577.27	43955.26
577.43	44294.64
577.59	44289.96
577.75	43924.83
577.92	43950.58
578.08	43615.88
578.24	44210.38
578.40	44547.42
578.56	44126.12
578.72	44112.08
578.88	44229.10
579.04	44739.34
579.21	44254.85
579.37	44435.07
579.53	44093.35
579.69	44339.11
579.85	44027.82
580.01	44479.54
580.17	44311.02
580.33	44425.71
580.49	44285.28
580.65	44760.40
580.82	44334.43
580.98	44292.30
581.14	44444.43
581.30	44177.61
581.46	44219.74
581.62	44477.20
581.78	44215.06
581.94	44531.03
582.10	44273.57
582.26	44460.82
582.42	44559.12
582.58	44626.99
582.74	44287.62
582.90	44451.45
583.06	44451.45
583.22	44414.01
583.38	44722.96
583.54	44580.18
583.70	44208.04
583.86	44198.68
584.02	44081.65
584.18	44870.41
584.34	44072.29
584.50	44844.66
584.66	44357.83
584.82	44044.20
584.98	44821.26
585.14	44706.57
585.30	44507.63
585.46	44292.30
585.62	43964.62
585.78	44100.37
585.94	44128.46
586.10	44669.12
586.26	44500.61
586.42	44648.06
586.58	44402.30
586.74	44500.61
586.90	44481.88
587.06	44474.86
587.22	45102.12
587.38	44135.48
587.54	44917.22
587.70	44570.82
587.86	44687.85
588.02	44421.03
588.18	44521.67
588.34	44634.02
588.49	44140.16
588.65	44069.95
588.81	44247.83
588.97	44179.95
589.13	44100.37
589.29	44531.03
589.45	44568.48
589.61	44690.19
589.77	44664.44
589.93	44559.12
590.08	44493.58
590.24	45116.17
590.40	45024.89
590.56	44708.91
590.72	44641.04
590.88	44442.09
591.04	45001.48
591.20	45111.49
591.35	45050.63
591.51	45184.04
591.67	44495.92
591.83	44657.42
591.99	44713.59
592.15	44575.50
592.31	44428.05
592.46	44481.88
592.62	44467.84
592.78	44685.51
592.94	45226.17
593.10	44601.25
593.26	45165.32
593.41	44774.45
593.57	44601.25
593.73	44832.96
593.89	45193.40
594.05	44559.12
594.20	44594.23
594.36	45048.29
594.52	44811.90
594.68	44786.15
594.84	44837.64
594.99	44818.92
595.15	44933.60
595.31	44957.01
595.47	44816.58
595.62	44758.06
595.78	44683.17
595.94	45099.78
596.10	45228.51
596.25	44973.39
596.41	44828.28
596.57	44961.69
596.73	44830.62
596.88	44727.64
597.04	44729.98
597.20	44685.51
597.36	44818.92
597.51	45071.70
597.67	45017.86
597.83	44891.48
597.99	44973.39
598.14	45118.51
598.30	45256.60
598.46	44542.74
598.61	44989.78
598.77	44891.48
598.93	44463.16
599.09	44912.54
599.24	45034.25
599.40	44889.13
599.56	44910.20
599.71	45045.95
599.87	45441.50
600.03	44741.68
600.18	45013.18
600.34	45083.40
600.50	44650.40
600.65	44573.16
600.81	45361.92
600.97	45420.44
601.12	45448.52
601.28	45291.71
601.44	44999.14
601.59	44959.35
601.75	44800.19
601.91	45528.10
602.06	44509.97
602.22	45179.36
602.37	44870.41
602.53	45148.93
602.69	45055.31
602.84	44626.99
603.00	44959.35
603.16	44610.61
603.31	44921.90
603.47	44762.75
603.62	44538.05
603.78	45020.20
603.94	44837.64
604.09	45221.49
604.25	44847.00
604.40	45057.65
604.56	44718.28
604.71	44858.71
604.87	44804.88
605.03	44978.07
605.18	44921.90
605.34	44807.22
605.49	44608.27
605.65	44971.05
605.80	44776.79
605.96	45291.71
606.12	44882.11
606.27	45343.20
606.43	45088.08
606.58	44811.90
606.74	44816.58
606.89	44615.29
607.05	44655.08
607.20	44683.17
607.36	44769.77
607.51	44980.42
607.67	44942.97
607.82	44732.32
607.98	44411.67
608.13	44437.41
608.29	44631.68
608.44	44535.71
608.60	44165.91
608.75	44282.94
608.91	44198.68
609.06	44390.60
609.22	44605.93
609.37	44582.52
609.53	44486.56
609.68	44444.43
609.84	44594.23
609.99	44554.44
610.15	44416.35
610.30	44306.34
610.46	44126.12
610.61	44318.04
610.76	44226.76
610.92	44711.25
611.07	44397.62
611.23	44100.37
611.38	44584.86
611.54	44336.77
611.69	44186.97
611.84	44215.06
612.00	44044.20
612.15	44287.62
612.31	44362.51
612.46	44055.90
612.62	44481.88
612.77	44453.79
612.92	44512.31
613.08	44240.81
613.23	44009.09
613.39	44556.78
613.54	43810.15
613.69	43966.96
613.85	43758.66
614.00	44238.47
614.15	44643.38
614.31	44163.57
614.46	44353.15
614.62	44107.40
614.77	44027.82
614.92	44091.01
615.08	43597.16
615.23	43863.98
615.38	43672.06
615.54	43704.82
615.69	43765.68
615.84	43508.22
616.00	43721.21
616.15	43421.62
616.30	43716.53
616.46	43550.35
616.61	43517.58
616.76	43339.70
616.92	43430.98
617.07	43107.99
617.22	43489.49
617.37	43632.27
617.53	43543.33
617.68	43627.59
617.83	43653.33
617.99	43381.83
618.14	43793.76
618.29	43707.16
618.45	43452.05
618.60	43007.34
618.75	43330.34
618.90	43459.07
619.06	43639.29
619.21	44009.09
619.36	43217.99
619.51	43349.06
619.67	43026.07
619.82	43569.07
619.97	42955.85
620.12	42981.60
620.28	43030.75
620.43	42827.12
620.58	43349.06
620.73	42916.06
620.89	43363.11
621.04	43232.04
621.19	42672.65
621.34	43016.71
621.49	43021.39
621.65	42572.00
621.80	43084.58
621.95	42724.14
622.10	43005.00
622.25	42574.34
622.41	42855.21
622.56	42597.75
622.71	42679.67
622.86	42801.38
623.01	42691.37
623.16	42698.39
623.32	43374.81
623.47	42834.14
623.62	43157.14
623.77	42572.00
623.92	42656.26
624.07	42426.89
624.23	42321.57
624.38	42513.49
624.53	42735.84
624.68	42464.34
624.83	42501.79
624.98	42110.92
625.13	41893.25
625.29	42312.20
625.44	42485.40
625.59	41977.51
625.74	41855.80
625.89	41446.21
626.04	41729.41
626.19	42291.14
626.34	42443.27
626.49	41729.41
626.65	42162.41
626.80	42588.39
626.95	42047.72
627.10	41958.78
627.25	41961.12
627.40	41579.62
627.55	41532.81
627.70	41902.61
627.85	42043.04
628.00	41752.82
628.15	41996.23
628.30	41675.58
628.45	41766.86
628.60	41645.15
628.76	41713.03
628.91	41792.61
629.06	41605.36
629.21	41928.36
629.36	41577.28
629.51	41254.28
629.66	41450.89
629.81	41296.41
629.96	41563.23
630.11	41713.03
630.26	41736.43
630.41	41844.10
630.56	41502.38
630.71	41652.17
630.86	41579.62
631.01	41385.35
631.16	41099.81
631.31	41043.63
631.46	41198.11
631.61	41132.57
631.76	40933.63
631.91	41392.37
632.06	41221.52
632.21	40924.27
632.36	41495.36
632.51	40980.44
632.66	41102.15
632.81	40683.19
632.96	41261.30
633.10	40575.53
633.25	40809.58
633.40	40760.43
633.55	41083.42
633.70	40715.96
633.85	40985.12
634.00	40840.01
634.15	40704.26
634.30	40734.68
634.45	40811.92
634.60	40683.19
634.75	40861.07
634.90	40648.08
635.05	40959.38
635.19	40636.38
635.34	40807.24
635.49	40961.72
635.64	39871.03
635.79	40247.85
635.94	39910.82
636.09	40264.24
636.24	40360.20
636.39	39819.53
636.53	39995.07
636.68	40282.96
636.83	40039.54
636.98	40191.68
637.13	40032.52
637.28	39814.85
637.43	40414.03
637.57	40832.99
637.72	40194.02
637.87	40407.01
638.02	40233.81
638.17	39978.69
638.32	39927.20
638.46	39620.59
638.61	39681.44
638.76	39711.87
638.91	39915.50
639.06	39765.70
639.20	40109.76
639.35	40065.29
639.50	40105.08
639.65	40346.15
639.80	39861.66
639.94	39772.72
640.09	39866.34
640.24	39395.90
640.39	39667.40
640.54	39751.66
640.68	39349.09
640.83	39576.12
640.98	39849.96
641.13	39477.82
641.27	39529.31
641.42	39566.76
641.57	39744.64
641.72	39426.32
641.86	39550.37
642.01	39580.80
642.16	39138.44
642.31	39253.12
642.45	39332.70
642.60	39232.06
642.75	39321.00
642.90	38902.04
643.04	39145.46
643.19	39445.05
643.34	39133.76
643.48	39234.40
643.63	39234.40
643.78	38705.44
643.93	38857.57
644.07	38705.44
644.22	38958.22
644.37	38546.28
644.51	38803.74
644.66	39175.89
644.81	39084.61
644.95	39337.38
645.10	39021.41
645.25	39302.28
645.39	39203.97
645.54	39503.56
645.69	38920.77
645.83	38501.81
645.98	38651.61
646.13	38806.08
646.27	39112.69
646.42	38904.38
646.57	38492.45
646.71	38635.22
646.86	38995.67
647.00	38562.67
647.15	38515.86
647.30	38864.60
647.44	38572.03
647.59	38557.99
647.74	38466.70
647.88	38586.07
648.03	38574.37
648.17	38527.56
648.32	38424.57
648.47	38195.20
648.61	38295.85
648.76	38871.62
648.90	38396.49
649.05	38672.67
649.20	38469.04
649.34	38382.45
649.49	38586.07
649.63	38211.59
649.78	38066.47
649.92	38492.45
650.07	38462.02
650.21	38117.96
650.36	37919.02
650.51	37785.61
650.65	38363.72
650.80	38192.86
650.94	38110.94
651.09	38115.62
651.23	37951.79
651.38	38143.71
651.52	37715.39
651.67	38012.64
651.81	38073.49
651.96	37996.26
652.10	37926.04
652.25	37619.43
652.39	37827.74
652.54	38066.47
652.68	37539.85
652.83	37741.14
652.97	38000.94
653.12	37427.51
653.26	37607.73
653.41	37633.47
653.55	37390.06
653.70	37385.38
653.84	37556.24
653.99	37556.24
654.13	37504.74
654.27	37455.59
654.42	37514.11
654.56	37191.11
654.71	37357.29
654.85	37212.18
655.00	37156.00
655.14	37046.00
655.29	36458.52
655.43	37165.37
655.57	36655.13
655.72	36746.41
655.86	36854.08
656.01	36528.74
656.15	36992.17
656.30	37043.66
656.44	36985.15
656.58	36872.80
656.73	36573.21
656.87	36762.79
657.01	36208.09
657.16	36746.41
657.30	36589.59
657.45	36510.02
657.59	36605.98
657.73	36542.78
657.88	36280.64
658.02	36535.76
658.16	36512.36
658.31	36825.99
658.45	36699.60
658.60	36500.65
658.74	36861.10
658.88	36350.86
659.03	36065.31
659.17	36163.62
659.31	36313.41
659.46	35681.47
659.60	36133.19
659.74	36062.97
659.89	35887.43
660.03	36149.57
660.17	36070.00
660.32	36004.46
660.46	36095.74
660.60	35936.59
660.74	36498.31
660.89	36266.60
661.03	35786.79
661.17	35885.09
661.32	35171.23
661.46	35426.35
661.60	35807.86
661.74	35779.77
661.89	35777.43
662.03	35543.38
662.17	35449.75
662.31	35089.31
662.46	35545.72
662.60	35463.80
662.74	35253.15
662.88	34948.88
663.03	35068.25
663.17	35267.19
663.31	35276.55
663.45	35021.44
663.60	35175.91
663.74	34728.87
663.88	35065.91
664.02	34778.02
664.17	35021.44
664.31	34550.99
664.45	34455.03
664.59	34733.55
664.73	35159.53
664.88	34476.09
665.02	34120.33
665.16	34412.90
665.30	34347.36
665.44	34319.28
665.59	34157.78
665.73	34054.79
665.87	34298.21
666.01	34167.14
666.15	33900.32
666.29	33862.87
666.44	34314.59
666.58	33968.19
666.72	33663.93
666.86	34192.89
667.00	34403.53
667.14	33972.88
667.28	33570.30
667.43	33579.67
667.57	33574.98
667.71	33764.57
667.85	33429.87
667.99	33469.66
668.13	32952.40
668.27	33163.05
668.41	33642.86
668.56	33251.99
668.70	33366.68
668.84	33275.40
668.98	33050.70
669.12	33354.97
669.26	33446.26
669.40	33036.66
669.54	32945.38
669.68	33149.01
669.82	32879.85
669.96	32678.56
670.10	32510.04
670.25	32570.90
670.39	33127.94
670.53	32776.86
670.67	32285.35
670.81	32823.67
670.95	32545.15
671.09	32416.42
671.23	32446.85
671.37	32088.74
671.51	32261.94
671.65	32259.60
671.79	32196.41
671.93	31578.51
672.07	32051.30
672.21	31587.87
672.35	31707.24
672.49	31716.60
672.63	31889.80
672.77	31512.97
672.91	31421.69
673.05	31325.73
673.19	31438.08
673.33	31140.83
673.47	31360.84
673.61	31379.56
673.75	31307.01
673.89	31119.76
674.03	30916.14
674.17	30494.84
674.31	30829.54
674.45	30979.33
674.59	31072.95
674.73	30955.93
674.87	30852.94
675.01	30852.94
675.15	30976.99
675.29	30876.35
675.43	30810.81
675.56	30684.42
675.70	30333.34
675.84	30274.83
675.98	28872.85
676.12	30087.59
676.26	30110.99
676.40	30085.25
676.54	29792.68
676.68	29387.77
676.82	28786.25
676.96	29219.25
677.10	29132.65
677.23	29343.30
677.37	29476.71
677.51	29282.44
677.65	28814.34
677.79	28542.83
677.93	28973.49
678.07	28912.64
678.21	28687.95
678.34	28753.48
678.48	28545.17
678.62	28512.41
678.76	28510.07
678.90	28343.89
679.04	28137.92
679.18	28577.94
679.31	27920.25
679.45	28034.94
679.59	27323.41
679.73	27583.21
679.87	27407.67
680.00	27552.79
680.14	27480.23
680.28	27250.86
680.42	27307.03
680.56	27377.25
680.70	27325.75
680.83	27115.11
680.97	26843.60
681.11	26850.63
681.25	26611.89
681.39	26874.03
681.52	26888.07
681.66	26635.30
681.80	26639.98
681.94	26590.83
682.07	26735.94
682.21	26335.71
682.35	26153.15
682.49	26244.43
682.62	25984.63
682.76	25724.83
682.90	26129.74
683.04	25963.56
683.17	25876.96
683.31	25722.49
683.45	25766.96
683.59	25298.85
683.72	25502.48
683.86	25432.26
684.00	25015.65
684.13	25326.94
684.27	25366.73
684.41	25235.66
684.55	24711.38
684.68	24620.10
684.82	24119.22
684.96	24849.47
685.09	24746.48
685.23	24439.87
685.37	24011.56
685.50	24383.70
685.64	24601.37
685.78	24140.29
685.91	23983.47
686.05	24063.05
686.19	23644.09
686.32	23821.97
686.46	23545.79
686.60	23690.90
686.73	23103.43
686.87	23145.56
687.01	23253.22
687.14	22852.99
687.28	22995.76
687.42	23009.81
687.55	22611.92
687.69	23255.56
687.82	22799.16
687.96	23173.64
688.10	22530.00
688.23	22724.26
688.37	22331.05
688.50	22073.59
688.64	22429.35
688.78	22242.11
688.91	22148.49
689.05	22089.98
689.18	21989.33
689.32	21635.91
689.46	21912.10
689.59	22136.79
689.73	22150.83
689.86	21642.93
690.00	21420.58
690.13	21455.69
690.27	21366.75
690.41	20896.30
690.54	21160.78
690.68	20762.89
690.81	21025.03
690.95	20819.07
691.08	21046.10
691.22	20943.11
691.35	21113.97
691.49	20725.44
691.62	21039.08
691.76	20599.05
691.89	20725.44
692.03	20673.95
692.16	20308.83
692.30	20269.04
692.43	20163.72
692.57	20058.39
692.70	19971.79
692.84	20135.63
692.97	20056.05
693.11	19412.40
693.24	19711.99
693.38	19536.45
693.51	19655.82
693.65	19428.79
693.78	19573.90
693.92	19611.35
694.05	19426.45
694.19	19328.14
694.32	19068.34
694.45	19206.44
694.59	18951.32
694.72	18974.72
694.86	19021.53
694.99	18565.13
695.13	18338.10
695.26	18499.59
695.39	18237.45
695.53	18485.55
695.66	18331.08
695.80	18490.23
695.93	18373.21
696.07	17970.63
696.20	17980.00
696.33	17900.42
696.47	17834.88
696.60	17823.18
696.73	17748.28
696.87	17745.94
697.00	17502.53
697.14	17678.07
697.27	17582.10
697.40	17516.57
697.54	17088.25
697.67	17130.38
697.80	16947.82
697.94	16926.75
698.07	17118.68
698.21	16896.33
698.34	16842.50
698.47	16788.66
698.61	16725.47
698.74	16505.46
698.87	16435.24
699.01	16259.70
699.14	16390.77
699.27	16049.05
699.40	16006.92
699.54	16404.81
699.67	16180.12
699.80	16201.19
699.94	15910.96
700.07	15812.66
700.20	15946.07
700.34	15747.12
700.47	15704.99
700.60	15908.62
700.73	15702.65
700.87	15641.80
701.00	15374.98
701.13	15499.03
701.26	15257.95
701.40	15232.21
701.53	15192.42
701.66	15192.42
701.79	15037.94
701.93	14916.23
702.06	14801.55
702.19	14785.16
702.32	15070.71
702.46	14761.76
702.59	14597.92
702.72	14764.10
702.85	14906.87
702.99	14801.55
703.12	14597.92
703.25	14618.99
703.38	14401.32
703.51	14181.31
703.65	14202.37
703.78	14333.44
703.91	14129.81
704.04	14078.32
704.17	13832.57
704.31	13645.32
704.44	13584.47
704.57	13635.96
704.70	13750.65
704.83	13544.68
704.96	13554.04
705.10	13645.32
705.23	13785.76
>>>>>End Processed Spectral Data<<<<<
