SpectraSuite Data File
++++++++++++++++++++++++++++++++++++
Date: Fri Oct 25 10:48:23 EDT 2013
User: price-jones
Dark Spectrum Present: No
Reference Spectrum Present: No
Number of Sampled Component Spectra: 1
Spectrometers: USB2+H05261
Integration Time (usec): 100000 (USB2+H05261)
Spectra Averaged: 1 (USB2+H05261)
Boxcar Smoothing: 0 (USB2+H05261)
Correct for Electrical Dark: No (USB2+H05261)
Strobe/Lamp Enabled: No (USB2+H05261)
Correct for Detector Non-linearity: No (USB2+H05261)
Correct for Stray Light: No (USB2+H05261)
Number of Pixels in Processed Spectrum: 2048
>>>>>Begin Processed Spectral Data<<<<<
365.73	135.75
365.92	135.75
366.12	135.75
366.32	114.69
366.52	91.28
366.72	72.56
366.91	35.11
367.11	28.09
367.31	25.75
367.51	23.41
367.70	0.00
367.90	0.00
368.10	56.17
368.30	79.58
368.49	0.00
368.69	60.85
368.89	58.51
369.09	98.30
369.28	70.22
369.48	107.66
369.68	91.28
369.87	133.41
370.07	105.32
370.27	100.64
370.47	290.23
370.66	442.36
370.86	425.98
371.06	449.38
371.25	468.11
371.45	437.68
371.65	463.43
371.84	470.45
372.04	433.00
372.24	505.56
372.44	402.57
372.63	503.22
372.83	519.60
373.03	535.98
373.22	482.15
373.42	526.62
373.62	589.82
373.81	505.56
374.01	472.79
374.21	662.37
374.40	615.56
374.60	631.94
374.79	601.52
374.99	667.05
375.19	638.97
375.38	592.16
375.58	638.97
375.78	641.31
375.97	608.54
376.17	662.37
376.37	613.22
376.56	629.60
376.76	587.47
376.95	601.52
377.15	692.80
377.35	650.67
377.54	702.16
377.74	650.67
377.93	685.78
378.13	699.82
378.33	685.78
378.52	676.41
378.72	716.20
378.91	713.86
379.11	732.59
379.31	592.16
379.50	624.92
379.70	725.57
379.89	739.61
380.09	734.93
380.28	629.60
380.48	681.10
380.68	709.18
380.87	641.31
381.07	704.50
381.26	709.18
381.46	709.18
381.65	685.78
381.85	741.95
382.04	706.84
382.24	720.88
382.43	781.74
382.63	667.05
382.83	713.86
383.02	812.17
383.22	823.87
383.41	706.84
383.61	760.67
383.80	814.51
384.00	781.74
384.19	662.37
384.39	807.48
384.58	781.74
384.78	833.23
384.97	889.40
385.17	791.10
385.36	774.72
385.56	809.83
385.75	758.33
385.95	814.51
386.14	772.38
386.34	842.59
386.53	945.58
386.72	856.64
386.92	894.08
387.11	929.19
387.31	842.59
387.50	833.23
387.70	812.17
387.89	849.61
388.09	938.55
388.28	917.49
388.48	966.64
388.67	952.60
388.86	976.00
389.06	1062.60
389.25	882.38
389.45	1013.45
389.64	952.60
389.84	950.26
390.03	952.60
390.22	1076.65
390.42	1020.47
390.61	1081.33
390.81	905.79
391.00	1064.94
391.19	1013.45
391.39	1041.54
391.58	1118.78
391.78	1001.75
391.97	1128.14
392.16	1006.43
392.36	994.73
392.55	1071.97
392.75	1090.69
392.94	987.71
393.13	1093.03
393.33	1039.20
393.52	1086.01
393.71	1123.46
393.91	1102.39
394.10	1123.46
394.29	1132.82
394.49	1135.16
394.68	1238.14
394.88	1191.33
395.07	1270.91
395.26	1179.63
395.46	1235.80
395.65	1186.65
395.84	1198.35
396.04	1238.14
396.23	1165.59
396.42	1242.82
396.62	1282.61
396.81	1196.01
397.00	1219.42
397.19	1348.15
397.39	1254.53
397.58	1334.11
397.77	1296.66
397.97	1362.19
398.16	1352.83
398.35	1462.83
398.55	1322.40
398.74	1483.90
398.93	1458.15
399.12	1483.90
399.32	1551.78
399.51	1476.88
399.70	1430.07
399.90	1558.80
400.09	1497.94
400.28	1629.01
400.47	1481.56
400.67	1643.06
400.86	1626.67
401.05	1621.99
401.24	1586.88
401.44	1715.61
401.63	1647.74
401.82	1760.08
402.01	1612.63
402.21	1544.75
402.40	1739.02
402.59	1657.10
402.78	1703.91
402.97	1668.80
403.17	1743.70
403.36	1706.25
403.55	1834.98
403.74	1806.89
403.93	1877.11
404.13	1806.89
404.32	1732.00
404.51	1842.00
404.70	1811.57
404.89	1853.70
405.09	1907.54
405.28	1928.60
405.47	1994.14
405.66	1952.01
405.85	1961.37
406.05	1956.69
406.24	1994.14
406.43	1998.82
406.62	1970.73
406.81	2092.44
407.00	2036.27
407.20	1987.11
407.39	2078.40
407.58	2076.06
407.77	2108.82
407.96	2197.76
408.15	2099.46
408.34	2188.40
408.54	2155.63
408.73	2314.79
408.92	2232.87
409.11	2202.44
409.30	2331.17
409.49	2256.28
409.68	2263.30
409.87	2251.60
410.07	2370.96
410.26	2326.49
410.45	2382.67
410.64	2349.90
410.83	2427.14
411.02	2506.71
411.21	2459.90
411.40	2597.99
411.59	2527.78
411.78	2558.21
411.98	2675.23
412.17	2621.40
412.36	2588.63
412.55	2576.93
412.74	2663.53
412.93	2567.57
413.12	2642.46
413.31	2888.22
413.50	2649.49
413.69	2869.50
413.88	2785.24
414.07	2827.37
414.26	2724.38
414.45	2904.60
414.64	2897.58
414.83	2918.65
415.02	3040.36
415.22	3028.65
415.41	2972.48
415.60	3105.89
415.79	3112.91
415.98	3080.14
416.17	3082.49
416.36	3192.49
416.55	3138.66
416.74	3222.92
416.93	3173.77
417.12	3173.77
417.31	3229.94
417.50	3178.45
417.69	3478.04
417.88	3407.82
418.07	3290.79
418.26	3346.97
418.45	3349.31
418.64	3496.76
418.83	3517.83
419.02	3522.51
419.21	3571.66
419.39	3552.93
419.58	3363.35
419.77	3405.48
419.96	3574.00
420.15	3578.68
420.34	3658.26
420.53	3705.07
420.72	3658.26
420.91	3775.28
421.10	3803.37
421.29	3779.97
421.48	3740.18
421.67	3770.60
421.86	3684.00
422.05	3705.07
422.24	3665.28
422.43	3763.58
422.61	3749.54
422.80	3880.61
422.99	3686.34
423.18	3892.31
423.37	3866.56
423.56	3826.78
423.75	3779.97
423.94	3894.65
424.13	3698.05
424.32	3646.55
424.50	3906.35
424.69	3943.80
424.88	3901.67
425.07	3995.29
425.26	3742.52
425.45	3794.01
425.64	3794.01
425.83	3779.97
426.01	3873.59
426.20	3866.56
426.39	3892.31
426.58	3894.65
426.77	3894.65
426.96	4009.34
427.15	3866.56
427.33	4039.76
427.52	3889.97
427.71	3873.59
427.90	4079.55
428.09	4044.45
428.28	4154.45
428.46	4119.34
428.65	4065.51
428.84	4329.99
429.03	4018.70
429.22	4161.47
429.40	4147.43
429.59	4086.58
429.78	3824.44
429.97	3836.14
430.16	3843.16
430.34	4112.32
430.53	4224.67
430.72	4070.19
430.91	4222.33
431.10	4273.82
431.28	4383.82
431.47	4559.36
431.66	4734.90
431.85	4407.23
432.03	4507.87
432.22	4603.83
432.41	4514.89
432.60	4716.18
432.79	4575.75
432.97	4662.35
433.16	4652.98
433.35	4650.64
433.54	4643.62
433.72	4645.96
433.91	4655.33
434.10	4809.80
434.28	4587.45
434.47	4786.40
434.66	4826.18
434.85	4931.51
435.03	4830.87
435.22	4926.83
435.41	5062.58
435.59	5062.58
435.78	5048.54
435.97	5095.35
436.16	5001.72
436.34	5027.47
436.53	4992.36
436.72	5100.03
436.90	5076.62
437.09	5109.39
437.28	5025.13
437.46	5085.98
437.65	5132.79
437.84	5130.45
438.02	4971.30
438.21	5156.20
438.40	4994.70
438.58	5348.12
438.77	5427.70
438.96	5256.84
439.14	5460.47
439.33	5493.24
439.52	5568.13
439.70	5549.41
439.89	5530.69
440.08	5584.52
440.26	5610.26
440.45	5561.11
440.63	5799.85
440.82	5912.19
441.01	5804.53
441.19	5792.83
441.38	5874.74
441.57	5921.56
441.75	6022.20
441.94	6085.39
442.12	6083.05
442.31	6108.80
442.50	6176.67
442.68	6174.33
442.87	6204.76
443.05	6218.80
443.24	6349.87
443.43	6314.77
443.61	6410.73
443.80	6494.99
443.98	6162.63
444.17	6164.97
444.35	6171.99
444.54	6609.67
444.73	6352.21
444.91	6427.11
445.10	6349.87
445.28	6333.49
445.47	6186.04
445.65	6193.06
445.84	6455.20
446.02	6539.46
446.21	6410.73
446.39	6471.58
446.58	6392.00
446.77	6693.93
446.95	6436.47
447.14	6541.80
447.32	6661.16
447.51	6567.54
447.69	6530.09
447.88	6469.24
448.06	6544.14
448.25	6483.28
448.43	6548.82
448.62	6548.82
448.80	6649.46
448.99	6803.94
449.17	6707.98
449.36	6511.37
449.54	6869.47
449.73	6796.92
449.91	6979.48
450.10	6825.00
450.28	6942.03
450.46	6927.99
450.65	7066.08
450.83	7049.69
451.02	6984.16
451.20	7030.97
451.39	6967.77
451.57	6991.18
451.76	7035.65
451.94	7023.95
452.13	7047.35
452.31	7091.82
452.49	6909.26
452.68	7049.69
452.86	7054.37
453.05	7033.31
453.23	7068.42
453.42	7145.66
453.60	7016.93
453.78	7208.85
453.97	7122.25
454.15	7171.40
454.34	7253.32
454.52	7414.82
454.70	7386.73
454.89	7470.99
455.07	7396.09
455.26	7431.20
455.44	7506.10
455.62	7524.82
455.81	7475.67
455.99	7557.59
456.17	7644.19
456.36	7634.83
456.54	7740.15
456.73	7819.73
456.91	7892.29
457.09	7805.69
457.28	8124.00
457.46	7646.53
457.64	7946.12
457.83	8067.83
458.01	7822.07
458.19	7953.14
458.38	8065.49
458.56	8152.09
458.74	8088.89
458.93	8238.69
459.11	8189.53
459.29	8168.47
459.48	8002.29
459.66	8030.38
459.84	8191.88
460.03	8578.06
460.21	8248.05
460.39	8187.19
460.57	8334.65
460.76	8561.68
460.94	8386.14
461.12	8442.31
461.31	8587.43
461.49	8479.76
461.67	8393.16
461.85	8552.32
462.04	8444.65
462.22	9263.84
462.40	8772.33
462.59	8512.53
462.77	8695.09
462.95	8929.14
463.13	8671.68
463.32	8891.70
463.50	8718.50
463.68	8805.10
463.86	8819.14
464.05	8760.63
464.23	8933.82
464.41	8905.74
464.59	8690.41
464.78	8964.25
464.96	8814.46
465.14	8910.42
465.32	9055.53
465.50	8926.80
465.69	9277.88
465.87	9015.74
466.05	9050.85
466.23	9170.22
466.41	9053.19
466.60	9266.18
466.78	9179.58
466.96	9357.46
467.14	9055.53
467.32	9177.24
467.51	9170.22
467.69	9036.81
467.87	9130.43
468.05	9432.36
468.23	9238.09
468.41	9270.86
468.60	9305.97
468.78	9380.87
468.96	9301.29
469.14	9533.00
469.32	9715.56
469.50	9282.56
469.69	9490.87
469.87	9654.71
470.05	9680.46
470.23	9706.20
470.41	9586.83
470.59	9635.99
470.77	9551.73
470.95	9703.86
471.14	10068.98
471.32	9694.50
471.50	9841.95
471.68	9998.77
471.86	10106.43
472.04	10068.98
472.22	10305.38
472.40	10031.54
472.58	10087.71
472.77	10232.82
472.95	10413.04
473.13	10490.28
473.31	10361.55
473.49	10413.04
473.67	10389.64
473.85	10335.81
474.03	10544.11
474.21	10637.73
474.39	10836.68
474.57	10768.80
474.75	10946.69
474.93	10885.83
475.12	10960.73
475.30	11009.88
475.48	11222.87
475.66	10909.24
475.84	10979.45
476.02	11389.05
476.20	11262.66
476.38	11389.05
476.56	11658.21
476.74	11515.44
476.92	11634.80
477.10	11698.00
477.28	11815.02
477.46	11836.09
477.64	11934.39
477.82	12318.24
478.00	12404.84
478.18	12442.29
478.36	12362.71
478.54	12451.65
478.72	12372.07
478.90	12788.69
479.08	13137.43
479.26	12809.75
479.44	13027.42
479.62	12891.67
479.80	12854.22
479.98	13074.23
480.16	13659.37
480.34	13312.97
480.52	13460.42
480.70	13486.17
480.88	13104.66
481.06	13525.96
481.24	13818.52
481.41	13846.61
481.59	14228.12
481.77	13996.40
481.95	14317.06
482.13	14160.24
482.31	14024.49
482.49	14640.05
482.67	14789.85
482.85	14731.33
483.03	15033.26
483.21	14780.48
483.39	15150.29
483.57	15255.61
483.74	15363.28
483.92	15295.40
484.10	15363.28
484.28	15484.98
484.46	15906.28
484.64	15960.11
484.82	16088.84
485.00	16152.04
485.18	16070.12
485.35	16299.49
485.53	15775.21
485.71	15873.51
485.89	16400.13
486.07	16140.33
486.25	16266.72
486.43	16781.64
486.61	16912.71
486.78	16893.99
486.96	17284.86
487.14	17493.16
487.32	17572.74
487.50	17752.96
487.68	17591.47
487.85	18132.13
488.03	18298.31
488.21	17923.82
488.39	18183.62
488.57	18317.03
488.75	18366.18
488.92	18733.65
489.10	19063.66
489.28	19133.88
489.46	19454.53
489.64	19232.18
489.81	19922.64
489.99	19793.91
490.17	20091.16
490.35	20278.40
490.53	20009.24
490.70	20070.09
490.88	19924.98
491.06	20648.21
491.24	20397.77
491.41	20369.68
491.59	20634.16
491.77	20505.43
491.95	20872.90
492.13	21163.12
492.30	21359.73
492.48	21451.01
492.66	21607.83
492.84	21521.23
493.01	22089.98
493.19	21771.66
493.37	21982.31
493.54	22288.92
493.72	22235.09
493.90	21844.22
494.08	22490.21
494.25	22848.31
494.43	22560.42
494.61	23297.69
494.79	23075.34
494.96	23061.30
495.14	23047.26
495.32	23353.87
495.49	23328.12
495.67	23475.57
495.85	23873.46
496.02	24107.52
496.20	23697.92
496.38	24140.29
496.55	24240.93
496.73	24683.29
496.91	24046.66
497.09	24631.80
497.26	24486.68
497.44	24868.19
497.62	24720.74
497.79	24957.13
497.97	24805.00
498.14	25186.50
498.32	25418.22
498.50	25345.66
498.67	25827.81
498.85	25212.25
499.03	25940.16
499.20	25937.82
499.38	25762.28
499.56	25781.00
499.73	26012.71
499.91	26099.31
500.08	26373.16
500.26	26635.30
500.44	26417.63
500.61	26300.60
500.79	26239.75
500.97	26544.02
501.14	26754.66
501.32	26789.77
501.49	27077.66
501.67	27072.98
501.84	26941.91
502.02	27213.41
502.20	27246.18
502.37	27580.87
502.55	27222.77
502.72	27681.52
502.90	27653.43
503.07	27744.71
503.25	27658.11
503.43	27782.16
503.60	27625.34
503.78	27728.33
503.95	28098.13
504.13	28353.25
504.30	28444.53
504.48	28542.83
504.65	28350.91
504.83	28744.12
505.01	28996.90
505.18	28322.82
505.36	28823.70
505.53	29282.44
505.71	29357.34
505.88	29214.57
506.06	29015.62
506.23	29261.38
506.41	29315.21
506.58	29390.11
506.76	29572.67
506.93	29837.15
507.11	29703.74
507.28	30211.64
507.46	30012.69
507.63	29633.52
507.81	29848.85
507.98	29741.19
508.16	29869.92
508.33	30309.94
508.50	30525.27
508.68	30387.18
508.85	31005.08
509.03	30583.78
509.20	30588.46
509.38	31072.95
509.55	30864.64
509.73	30874.01
509.90	30946.56
510.08	31007.42
510.25	31292.96
510.42	31101.04
510.60	31372.54
510.77	31737.66
510.95	31817.24
511.12	31789.16
511.30	31688.51
511.47	32126.19
511.64	32311.10
511.82	32011.51
511.99	31974.06
512.17	31852.35
512.34	32531.11
512.51	32453.87
512.69	32388.33
512.86	32517.06
513.04	32842.40
513.21	32573.24
513.38	32512.38
513.56	32137.90
513.73	32229.18
513.90	32849.42
514.08	32687.92
514.25	32872.82
514.43	32905.59
514.60	32760.48
514.77	32952.40
514.95	33249.65
515.12	33354.97
515.29	33706.05
515.47	33443.91
515.64	34197.57
515.81	33354.97
515.99	33207.52
516.16	33240.29
516.33	33317.53
516.51	33390.08
516.68	33060.07
516.85	32828.35
517.03	33549.24
517.20	33483.70
517.37	33603.07
517.54	34122.67
517.72	34092.24
517.89	33717.76
518.06	33715.42
518.24	33886.28
518.41	34349.70
518.58	34274.80
518.75	34429.28
518.93	34471.41
519.10	34506.52
519.27	34796.74
519.45	34892.71
519.62	34946.54
519.79	35206.34
519.96	35208.68
520.14	35337.41
520.31	35105.70
520.48	35512.95
520.65	35416.99
520.83	35730.62
521.00	35999.78
521.17	35789.13
521.34	35641.68
521.52	35910.84
521.69	35917.86
521.86	36325.11
522.03	36144.89
522.20	35878.07
522.38	36067.66
522.55	36376.61
522.72	36392.99
522.89	36098.08
523.07	36233.83
523.24	36065.31
523.41	36460.87
523.58	36463.21
523.75	37125.58
523.92	36804.92
524.10	37427.51
524.27	36622.36
524.44	36928.97
524.61	36982.80
524.78	37053.02
524.96	37144.30
525.13	37174.73
525.30	37277.71
525.47	37680.28
525.64	37371.33
525.81	37696.67
525.98	37359.63
526.16	36905.57
526.33	36893.86
526.50	37312.82
526.67	36910.25
526.84	37371.33
527.01	37139.62
527.18	37450.91
527.36	38108.60
527.53	37804.33
527.70	38473.73
527.87	38487.77
528.04	37937.74
528.21	38712.46
528.38	38672.67
528.55	38546.28
528.72	38122.65
528.89	38993.32
529.07	38426.92
529.24	38122.65
529.41	38749.91
529.58	38384.79
529.75	38529.90
529.92	38845.87
530.09	38794.38
530.26	38948.85
530.43	39363.13
530.60	39091.63
530.77	38780.34
530.94	39098.65
531.11	39210.99
531.28	39456.75
531.46	39470.79
531.63	39536.33
531.80	39477.82
531.97	39290.57
532.14	39171.21
532.31	38871.62
532.48	39234.40
532.65	39416.96
532.82	39749.32
532.99	39515.26
533.16	39426.32
533.33	39665.06
533.50	40105.08
533.67	39604.20
533.84	39562.08
534.01	39828.90
534.18	39814.85
534.35	40378.92
534.52	40062.95
534.69	40072.31
534.86	40121.46
535.03	40311.05
535.20	40458.50
535.37	40224.45
535.54	40416.37
535.71	40540.42
535.88	40378.92
536.05	40722.98
536.22	40456.16
536.38	40769.79
536.55	40425.73
536.72	40514.67
536.89	40449.14
537.06	40542.76
537.23	40566.16
537.40	40870.43
537.57	40821.28
537.74	41067.04
537.91	41301.09
538.08	40987.46
538.25	41034.27
538.42	41324.50
538.59	41202.79
538.75	41167.68
538.92	41085.76
539.09	41301.09
539.26	41071.72
539.43	41209.81
539.60	41289.39
539.77	40947.67
539.94	41448.55
540.11	41649.83
540.28	41425.14
540.44	40950.01
540.61	41116.19
540.78	41275.35
540.95	41656.85
541.12	41663.88
541.29	41322.16
541.46	41256.62
541.62	41961.12
541.79	42033.68
541.96	41326.84
542.13	41827.71
542.30	41258.96
542.47	42040.70
542.63	42405.83
542.80	41588.98
542.97	42342.63
543.14	42656.26
543.31	42195.18
543.48	42543.92
543.64	43189.91
543.81	42665.63
543.98	42466.68
544.15	42754.57
544.32	42834.14
544.48	42993.30
544.65	42909.04
544.82	42689.03
544.99	42813.08
545.16	42813.08
545.32	42717.12
545.49	42923.08
545.66	43140.75
545.83	43306.93
546.00	43723.55
546.16	43079.90
546.33	43210.97
546.50	42789.67
546.67	43189.91
546.83	43056.50
547.00	43365.45
547.17	42735.84
547.34	42962.87
547.50	43086.92
547.67	43356.08
547.84	43533.96
548.00	43381.83
548.17	43592.48
548.34	43358.42
548.51	43744.61
548.67	44261.87
548.84	43981.01
549.01	43489.49
549.18	43641.63
549.34	43948.24
549.51	43611.20
549.68	43990.37
549.84	43772.70
550.01	43976.33
550.18	43213.31
550.34	43529.28
550.51	44083.99
550.68	43835.89
550.84	43508.22
551.01	43494.18
551.18	44002.07
551.34	43622.90
551.51	43758.66
551.68	44495.92
551.84	44289.96
552.01	43999.73
552.18	43880.36
552.34	43948.24
552.51	44488.90
552.68	44182.29
552.84	44416.35
553.01	44456.14
553.18	44575.50
553.34	44383.58
553.51	44222.08
553.67	44718.28
553.84	44961.69
554.01	44701.89
554.17	44603.59
554.34	44671.46
554.51	44580.18
554.67	44854.03
554.84	44652.74
555.00	44678.49
555.17	44533.37
555.33	44795.51
555.50	44502.95
555.67	44753.38
555.83	44638.70
556.00	44975.73
556.16	45612.36
556.33	45336.18
556.50	44732.32
556.66	44910.20
556.83	44851.69
556.99	44737.00
557.16	45443.84
557.32	44823.60
557.49	45001.48
557.65	44769.77
557.82	44980.42
557.98	44933.60
558.15	45275.32
558.32	45326.81
558.48	45102.12
558.65	45027.23
558.81	45202.77
558.98	44741.68
559.14	44973.39
559.31	45254.26
559.47	45640.45
559.64	45502.35
559.80	45680.24
559.97	45595.98
560.13	45495.33
560.30	45514.06
560.46	45406.39
560.63	45289.37
560.79	45556.19
560.96	45516.40
561.12	45216.81
561.29	45507.04
561.45	45591.30
561.61	45333.84
561.78	45258.94
561.94	45635.77
562.11	45570.23
562.27	45364.26
562.44	45631.08
562.60	45748.11
562.77	45350.22
562.93	46038.34
563.10	45453.20
563.26	45471.93
563.42	46106.21
563.59	45275.32
563.75	45415.76
563.92	45815.99
564.08	45687.26
564.24	45778.54
564.41	45935.35
564.57	45717.68
564.74	45661.51
564.90	45670.87
565.07	45844.07
565.23	45975.14
565.39	45617.04
565.56	45811.31
565.72	45851.09
565.88	45652.15
566.05	45694.28
566.21	46054.72
566.38	46061.74
566.54	45319.79
566.70	45750.45
566.87	46120.26
567.03	45631.08
567.19	46206.86
567.36	45895.56
567.52	45806.62
567.68	46021.95
567.85	46094.51
568.01	45951.74
568.17	45853.44
568.34	45797.26
568.50	45827.69
568.66	45872.16
568.83	46031.32
568.99	46052.38
569.15	45895.56
569.32	46040.68
569.48	45474.27
569.64	45909.61
569.81	45986.85
569.97	46036.00
570.13	45872.16
570.30	45705.98
570.46	45801.94
570.62	45876.84
570.78	45724.71
570.95	45951.74
571.11	46356.65
571.27	45907.27
571.43	45808.96
571.60	45907.27
571.76	45933.01
571.92	45806.62
572.09	46003.23
572.25	45495.33
572.41	45916.63
572.57	46153.02
572.74	46834.12
572.90	46309.84
573.06	46354.31
573.22	46382.40
573.38	45890.88
573.55	46078.13
573.71	46120.26
573.87	45977.48
574.03	45647.47
574.20	46164.73
574.36	46113.23
574.52	46248.99
574.68	46382.40
574.84	46419.84
575.01	46382.40
575.17	46265.37
575.33	45928.33
575.49	45914.29
575.65	46279.41
575.82	46307.50
575.98	46038.34
576.14	46356.65
576.30	46356.65
576.46	46286.43
576.62	46452.61
576.79	46059.40
576.95	45930.67
577.11	45923.65
577.27	46017.27
577.43	46305.16
577.59	46113.23
577.75	45687.26
577.92	45593.64
578.08	45380.65
578.24	45949.40
578.40	46248.99
578.56	45844.07
578.72	45968.12
578.88	46590.70
579.04	46230.26
579.21	46129.62
579.37	45914.29
579.53	46031.32
579.69	46014.93
579.85	46061.74
580.01	46209.20
580.17	46553.26
580.33	46534.53
580.49	45989.19
580.65	46143.66
580.82	45794.92
580.98	46204.52
581.14	46153.02
581.30	46492.40
581.46	46534.53
581.62	46501.76
581.78	46188.13
581.94	46604.75
582.10	46394.10
582.26	46529.85
582.42	46440.91
582.58	46536.87
582.74	46024.29
582.90	46099.19
583.06	46323.88
583.22	46225.58
583.38	46663.26
583.54	46026.63
583.70	46501.76
583.86	46368.35
584.02	45925.99
584.18	46440.91
584.34	45944.72
584.50	46602.41
584.66	46714.75
584.82	46436.23
584.98	46417.50
585.14	46593.04
585.30	46316.86
585.46	46272.39
585.62	46089.83
585.78	46192.81
585.94	45897.91
586.10	46117.92
586.26	46045.36
586.42	46373.03
586.58	46337.93
586.74	46085.15
586.90	46265.37
587.06	46684.33
587.22	46436.23
587.38	46309.84
587.54	46693.69
587.70	46712.41
587.86	46672.62
588.02	45797.26
588.18	46347.29
588.34	46190.47
588.49	46003.23
588.65	45989.19
588.81	45904.93
588.97	46176.43
589.13	45815.99
589.29	45769.18
589.45	46195.15
589.61	46480.70
589.77	46433.89
589.93	46501.76
590.08	46550.91
590.24	46403.46
590.40	46525.17
590.56	46817.74
590.72	46274.73
590.88	46286.43
591.04	46340.27
591.20	46738.16
591.35	46515.81
591.51	46843.48
591.67	46431.55
591.83	46590.70
591.99	46370.69
592.15	46085.15
592.31	46679.64
592.46	46274.73
592.62	46363.67
592.78	46710.07
592.94	46724.11
593.10	46651.56
593.26	46752.20
593.41	46637.51
593.57	46387.08
593.73	46541.55
593.89	46447.93
594.05	46639.86
594.20	46705.39
594.36	46677.30
594.52	46515.81
594.68	46457.29
594.84	46541.55
594.99	47019.02
595.15	46487.72
595.31	46782.63
595.47	46616.45
595.62	46794.33
595.78	46256.01
595.94	47037.75
596.10	46714.75
596.25	46958.17
596.41	46941.78
596.57	46726.46
596.73	46850.50
596.88	46216.22
597.04	46656.24
597.20	46667.94
597.36	46454.95
597.51	46925.40
597.67	46679.64
597.83	46815.40
597.99	46731.14
598.14	46625.81
598.30	46698.37
598.46	46642.20
598.61	46944.12
598.77	46593.04
598.93	46431.55
599.09	46206.86
599.24	47192.22
599.40	46583.68
599.56	46703.05
599.71	46923.06
599.87	47016.68
600.03	46770.93
600.18	46834.12
600.34	46894.97
600.50	46862.21
600.65	46827.10
600.81	46705.39
600.97	47255.42
601.12	46937.10
601.28	46855.18
601.44	46443.25
601.59	46574.32
601.75	46433.89
601.91	46337.93
602.06	46735.82
602.22	46827.10
602.37	46630.49
602.53	46398.78
602.69	46768.58
602.84	46752.20
603.00	46564.96
603.16	46857.52
603.31	46349.63
603.47	46506.44
603.62	46487.72
603.78	46513.47
603.94	46988.60
604.09	46813.05
604.25	46691.35
604.40	46436.23
604.56	47009.66
604.71	46579.00
604.87	46522.83
605.03	46466.66
605.18	46209.20
605.34	46326.22
605.49	46363.67
605.65	46714.75
605.80	46756.88
605.96	46436.23
606.12	46307.50
606.27	46443.25
606.43	46150.68
606.58	46600.07
606.74	45954.08
606.89	46745.18
607.05	46204.52
607.20	46270.05
607.36	46473.68
607.51	46913.70
607.67	46761.56
607.82	46216.22
607.98	46073.45
608.13	46150.68
608.29	46588.36
608.44	46150.68
608.60	46171.75
608.75	45874.50
608.91	45956.42
609.06	45764.49
609.22	46237.28
609.37	45780.88
609.53	45652.15
609.68	46054.72
609.84	46206.86
609.99	46075.79
610.15	46108.55
610.30	45888.54
610.46	45975.14
610.61	46167.07
610.76	45825.35
610.92	45872.16
611.07	46043.02
611.23	46075.79
611.38	46003.23
611.54	45783.22
611.69	45727.05
611.84	45640.45
612.00	46010.25
612.15	45790.24
612.31	45720.02
612.46	45523.42
612.62	46401.12
612.77	45752.79
612.92	46321.54
613.08	45441.50
613.23	45787.90
613.39	45492.99
613.54	45659.17
613.69	45722.37
613.85	45776.20
614.00	45965.78
614.15	45708.32
614.31	45382.99
614.46	46003.23
614.62	45724.71
614.77	45656.83
614.92	45518.74
615.08	45628.74
615.23	45680.24
615.38	45848.75
615.54	45162.98
615.69	44964.03
615.84	45006.16
616.00	45216.81
616.15	45230.85
616.30	45387.67
616.46	45090.42
616.61	45001.48
616.76	45130.21
616.92	44690.19
617.07	45322.13
617.22	45059.99
617.37	45216.81
617.53	45500.01
617.68	45240.21
617.83	45319.79
617.99	44835.30
618.14	44964.03
618.29	44886.79
618.45	45067.02
618.60	44889.13
618.75	44776.79
618.90	45064.67
619.06	44935.95
619.21	45315.11
619.36	45371.28
619.51	44638.70
619.67	44708.91
619.82	44751.04
619.97	45043.61
620.12	44528.69
620.28	44727.64
620.43	44378.90
620.58	44254.85
620.73	44353.15
620.89	44746.36
621.04	44804.88
621.19	44467.84
621.34	44311.02
621.49	44531.03
621.65	43973.98
621.80	44624.65
621.95	44135.48
622.10	44753.38
622.25	44385.92
622.41	44128.46
622.56	43744.61
622.71	44247.83
622.86	44327.41
623.01	44168.25
623.16	44451.45
623.32	44416.35
623.47	44381.24
623.62	44657.42
623.77	43934.20
623.92	44341.45
624.07	43690.78
624.23	43702.48
624.38	43629.93
624.53	43997.39
624.68	43962.28
624.83	44226.76
624.98	44325.07
625.13	43859.30
625.29	44018.46
625.44	43758.66
625.59	43901.43
625.74	43367.79
625.89	43056.50
626.04	43274.16
626.19	43409.92
626.34	43660.35
626.49	43384.17
626.65	43377.15
626.80	43524.60
626.95	43285.87
627.10	43562.05
627.25	43007.34
627.40	42766.27
627.55	42972.24
627.70	42817.76
627.85	43199.27
628.00	43051.81
628.15	43210.97
628.30	43110.33
628.45	43438.00
628.60	43189.91
628.76	43110.33
628.91	43217.99
629.06	43037.77
629.21	42724.14
629.36	42983.94
629.51	42946.49
629.66	43110.33
629.81	42862.23
629.96	42810.74
630.11	42930.11
630.26	43358.42
630.41	42988.62
630.56	42534.56
630.71	42600.09
630.86	42511.15
631.01	43084.58
631.16	42443.27
631.31	42478.38
631.46	42351.99
631.61	42520.51
631.76	42806.06
631.91	42600.09
632.06	42380.08
632.21	42815.42
632.36	42845.85
632.51	42230.29
632.66	42347.31
632.81	42029.00
632.96	42150.71
633.10	42216.24
633.25	41794.95
633.40	41277.69
633.55	42719.46
633.70	42319.23
633.85	42209.22
634.00	42139.00
634.15	42316.89
634.30	42775.63
634.45	42337.95
634.60	42478.38
634.75	41928.36
634.90	42525.19
635.05	41935.38
635.19	42082.83
635.34	41883.89
635.49	41935.38
635.64	42014.96
635.79	41666.22
635.94	42164.75
636.09	41956.44
636.24	41567.91
636.39	41975.17
636.53	41666.22
636.68	41474.29
636.83	41881.55
636.98	41839.42
637.13	41113.85
637.28	41352.58
637.43	42040.70
637.57	41771.54
637.72	41720.05
637.87	42209.22
638.02	41808.99
638.17	41588.98
638.32	41132.57
638.46	41265.99
638.61	41130.23
638.76	40912.56
638.91	41340.88
639.06	41134.92
639.20	41462.59
639.35	41581.96
639.50	41214.49
639.65	41539.83
639.80	41270.67
639.94	41324.50
640.09	40982.78
640.24	41303.43
640.39	41010.87
640.54	40449.14
640.68	41092.79
640.83	41174.70
640.98	41111.51
641.13	40428.07
641.27	41200.45
641.42	40954.69
641.57	40694.89
641.72	41010.87
641.86	40343.81
642.01	40924.27
642.16	40760.43
642.31	40229.13
642.45	40608.29
642.60	40348.50
642.75	40453.82
642.90	40519.35
643.04	40453.82
643.19	40549.78
643.34	41024.91
643.48	40442.12
643.63	40722.98
643.78	40135.51
643.93	40671.49
644.07	40133.17
644.22	40205.72
644.37	39796.13
644.51	40208.06
644.66	40318.07
644.81	40091.04
644.95	40507.65
645.10	40313.39
645.25	39948.26
645.39	40507.65
645.54	40217.43
645.69	40060.61
645.83	40238.49
645.98	40416.37
646.13	40189.34
646.27	39985.71
646.42	40343.81
646.57	39880.39
646.71	39754.00
646.86	39995.07
647.00	40093.38
647.15	40006.78
647.30	39901.45
647.44	40175.30
647.59	39899.11
647.74	39321.00
647.88	39463.77
648.03	39398.24
648.17	39454.41
648.32	39431.01
648.47	39559.73
648.61	39508.24
648.76	39835.92
648.90	39791.45
649.05	39847.62
649.20	39969.33
649.34	39854.64
649.49	39033.11
649.63	39250.78
649.78	39643.99
649.92	39220.36
650.07	39461.43
650.21	39253.12
650.36	39079.92
650.51	39489.52
650.65	40055.93
650.80	39978.69
650.94	39653.36
651.09	39414.62
651.23	39365.47
651.38	39182.91
651.52	38794.38
651.67	39145.46
651.81	38944.17
651.96	38831.83
652.10	39164.18
652.25	38967.58
652.39	38686.71
652.54	38801.40
652.68	39325.68
652.83	39185.25
652.97	39269.51
653.12	38974.60
653.26	39016.73
653.41	38782.68
653.55	38609.48
653.70	38616.50
653.84	38785.02
653.99	38738.21
654.13	38775.66
654.27	38632.88
654.42	38675.01
654.56	38857.57
654.71	38424.57
654.85	38763.95
655.00	38712.46
655.14	38490.11
655.29	37998.60
655.43	38050.09
655.57	37834.76
655.72	37912.00
655.86	37860.51
656.01	37780.93
656.15	37654.54
656.30	37757.52
656.44	37769.22
656.58	38106.26
656.73	37766.88
656.87	37659.22
657.01	37809.01
657.16	37352.61
657.30	37656.88
657.45	37380.70
657.59	37682.62
657.73	37610.07
657.88	37991.58
658.02	37787.95
658.16	37993.92
658.31	37888.59
658.45	38218.61
658.60	37865.19
658.74	37628.79
658.88	37785.61
659.03	37411.12
659.17	37139.62
659.31	37411.12
659.46	37420.48
659.60	37670.92
659.74	36975.78
659.89	37251.97
660.03	37060.04
660.17	37144.30
660.32	36982.80
660.46	37357.29
660.60	37406.44
660.74	37600.71
660.89	36910.25
661.03	36605.98
661.17	36921.95
661.32	36697.26
661.46	36793.22
661.60	36622.36
661.74	36519.38
661.89	36673.85
662.03	36460.87
662.17	36561.51
662.31	36381.29
662.46	37130.26
662.60	36715.98
662.74	36554.49
662.88	36381.29
663.03	36540.44
663.17	36313.41
663.31	35772.75
663.45	36453.84
663.60	36004.46
663.74	35997.44
663.88	35875.73
664.02	35857.01
664.17	36095.74
664.31	35667.42
664.45	35566.78
664.59	35559.76
664.73	35622.95
664.88	35917.86
665.02	35475.50
665.16	35529.33
665.30	35566.78
665.44	35503.59
665.59	35604.23
665.73	35271.87
665.87	35147.82
666.01	35358.47
666.15	35262.51
666.29	35269.53
666.44	35477.84
666.58	35096.33
666.72	35424.01
666.86	35550.40
667.00	35194.64
667.14	35145.48
667.28	34731.21
667.43	34621.20
667.57	34555.67
667.71	34398.85
667.85	34986.33
667.99	34338.00
668.13	34546.31
668.27	34220.97
668.41	34349.70
668.56	34384.81
668.70	34440.98
668.84	34279.49
668.98	34239.70
669.12	34143.74
669.26	33989.26
669.40	33914.36
669.54	33701.37
669.68	33755.21
669.82	33832.44
669.96	33303.48
670.10	33432.21
670.25	33528.17
670.39	33617.11
670.53	33479.02
670.67	33097.52
670.81	33401.79
670.95	33769.25
671.09	33329.23
671.23	33577.33
671.37	33394.76
671.51	32870.48
671.65	33006.23
671.79	32856.44
671.93	32905.59
672.07	32905.59
672.21	33015.60
672.35	32737.07
672.49	32980.49
672.63	32826.01
672.77	32882.19
672.91	32587.28
673.05	32573.24
673.19	32175.34
673.33	32575.58
673.47	32343.86
673.61	32011.51
673.75	31950.65
673.89	32048.96
674.03	31709.58
674.17	31857.03
674.31	31686.17
674.45	31632.34
674.59	31697.88
674.73	31557.44
674.87	31590.21
675.01	31576.17
675.15	31732.98
675.29	31725.96
675.43	31248.49
675.56	31501.27
675.70	31409.99
675.84	31220.41
675.98	30300.58
676.12	31110.40
676.26	30611.87
676.40	30501.86
676.54	30490.16
676.68	30448.03
676.82	30237.38
676.96	30401.22
677.10	30005.67
677.23	30347.39
677.37	30096.95
677.51	29998.65
677.65	30066.52
677.79	29457.98
677.93	29839.49
678.07	29949.50
678.21	29551.60
678.34	29462.66
678.48	29287.12
678.62	29495.43
678.76	29418.19
678.90	29333.93
679.04	29151.37
679.18	29340.96
679.31	29069.45
679.45	28701.99
679.59	28016.21
679.73	28531.13
679.87	28823.70
680.00	28755.82
680.14	28435.17
680.28	28257.29
680.42	28119.20
680.56	28556.88
680.70	27974.08
680.83	27922.59
680.97	27697.90
681.11	27674.49
681.25	27749.39
681.39	27810.25
681.52	27789.18
681.66	27290.65
681.80	27213.41
681.94	27365.54
682.07	27262.56
682.21	27058.93
682.35	27211.07
682.49	27131.49
682.62	27232.13
682.76	26560.40
682.90	26642.32
683.04	26698.49
683.17	26668.06
683.31	26546.36
683.45	26553.38
683.59	26300.60
683.72	26115.70
683.86	26005.69
684.00	26050.16
684.13	25813.77
684.27	25781.00
684.41	25673.34
684.55	25628.87
684.68	25577.37
684.82	25603.12
684.96	25624.18
685.09	25284.81
685.23	25242.68
685.37	25102.25
685.50	25205.23
685.64	25064.80
685.78	24924.36
685.91	24687.97
686.05	24884.58
686.19	24662.22
686.32	24477.32
686.46	24123.90
686.60	23910.91
686.73	23782.18
686.87	23447.49
687.01	23452.17
687.14	23370.25
687.28	23400.68
687.42	23473.23
687.55	23274.29
687.69	23293.01
687.82	23147.90
687.96	23431.10
688.10	23229.82
688.23	22852.99
688.37	22895.12
688.50	22995.76
688.64	23016.83
688.78	22918.53
688.91	22480.85
689.05	22670.43
689.18	22263.18
689.32	22462.12
689.46	22588.51
689.59	22562.76
689.73	22391.91
689.86	22235.09
690.00	22012.74
690.13	21949.54
690.27	22260.84
690.41	22366.16
690.54	21727.19
690.68	21668.68
690.81	21844.22
690.95	21638.25
691.08	21565.70
691.22	21380.79
691.35	21219.30
691.49	21111.63
691.62	21462.71
691.76	21055.46
691.89	21109.29
692.03	20704.38
692.16	20800.34
692.30	21036.74
692.43	20723.10
692.57	20470.33
692.70	20676.29
692.84	20524.16
692.97	20503.09
693.11	20294.79
693.24	20177.76
693.38	20018.60
693.51	19917.96
693.65	19943.70
693.78	20109.88
693.92	19798.59
694.05	19775.19
694.19	19456.87
694.32	19777.53
694.45	19585.60
694.59	19447.51
694.72	19239.20
694.86	19192.39
694.99	19112.81
695.13	18897.49
695.26	18663.43
695.39	18691.52
695.53	18998.13
695.66	19206.44
695.80	18569.81
695.93	18712.58
696.07	18532.36
696.20	18588.53
696.33	18609.60
696.47	18579.17
696.60	18258.52
696.73	18164.90
696.87	18059.57
697.00	18200.01
697.14	17996.38
697.27	18038.51
697.40	17589.13
697.54	17394.86
697.67	17802.11
697.80	17767.01
697.94	17631.26
698.07	17481.46
698.21	17605.51
698.34	17666.36
698.47	17074.21
698.61	17102.29
698.74	17242.73
698.87	16915.05
699.01	16865.90
699.14	16727.81
699.27	16781.64
699.40	16851.86
699.54	16475.03
699.67	16259.70
699.80	16578.01
699.94	16554.61
700.07	16233.96
700.20	16107.57
700.34	15960.11
700.47	16142.67
700.60	16109.91
700.73	16304.17
700.87	15957.77
701.00	15683.93
701.13	15726.06
701.26	16044.37
701.40	15859.47
701.53	15777.55
701.66	15660.52
701.79	15550.52
701.93	15496.69
702.06	15260.29
702.19	15180.71
702.32	15115.18
702.46	14974.75
702.59	15185.40
702.72	15035.60
702.85	15040.28
702.99	15075.39
703.12	15183.06
703.25	14888.15
703.38	14848.36
703.51	14672.82
703.65	14696.22
703.78	14562.81
703.91	14466.85
704.04	14567.49
704.17	14228.12
704.31	14169.60
704.44	14183.65
704.57	13848.95
704.70	13650.00
704.83	13804.48
704.96	13930.87
705.10	14012.79
705.23	13987.04
>>>>>End Processed Spectral Data<<<<<
