SpectraSuite Data File
++++++++++++++++++++++++++++++++++++
Date: Fri Oct 25 11:33:45 EDT 2013
User: price-jones
Dark Spectrum Present: No
Reference Spectrum Present: No
Number of Sampled Component Spectra: 1
Spectrometers: USB2+H05261
Integration Time (usec): 100000 (USB2+H05261)
Spectra Averaged: 1 (USB2+H05261)
Boxcar Smoothing: 0 (USB2+H05261)
Correct for Electrical Dark: No (USB2+H05261)
Strobe/Lamp Enabled: No (USB2+H05261)
Correct for Detector Non-linearity: No (USB2+H05261)
Correct for Stray Light: No (USB2+H05261)
Number of Pixels in Processed Spectrum: 2048
>>>>>Begin Processed Spectral Data<<<<<
365.73	245.76
365.92	245.76
366.12	245.76
366.32	191.92
366.52	138.09
366.72	212.99
366.91	149.79
367.11	177.88
367.31	133.41
367.51	145.11
367.70	227.03
367.90	126.39
368.10	163.84
368.30	229.37
368.49	170.86
368.69	212.99
368.89	280.86
369.09	189.58
369.28	241.08
369.48	184.90
369.68	187.24
369.87	252.78
370.07	271.50
370.27	306.61
370.47	308.95
370.66	451.72
370.86	428.32
371.06	540.66
371.25	493.85
371.45	500.87
371.65	564.07
371.84	594.50
372.04	580.45
372.24	631.94
372.44	582.79
372.63	587.47
372.83	521.94
373.03	496.19
373.22	571.09
373.42	589.82
373.62	641.31
373.81	615.56
374.01	601.52
374.21	699.82
374.40	681.10
374.60	685.78
374.79	592.16
374.99	648.33
375.19	739.61
375.38	704.50
375.58	648.33
375.78	631.94
375.97	713.86
376.17	699.82
376.37	678.76
376.56	671.73
376.76	770.04
376.95	702.16
377.15	723.23
377.35	713.86
377.54	641.31
377.74	706.84
377.93	690.46
378.13	706.84
378.33	681.10
378.52	615.56
378.72	711.52
378.91	641.31
379.11	615.56
379.31	676.41
379.50	699.82
379.70	746.63
379.89	716.20
380.09	777.06
380.28	763.01
380.48	800.46
380.68	755.99
380.87	702.16
381.07	695.14
381.26	718.54
381.46	732.59
381.65	709.18
381.85	844.93
382.04	858.98
382.24	732.59
382.43	770.04
382.63	798.12
382.83	870.68
383.02	798.12
383.22	791.10
383.41	779.40
383.61	805.14
383.80	748.97
384.00	758.33
384.19	844.93
384.39	821.53
384.58	903.45
384.78	823.87
384.97	875.36
385.17	833.23
385.36	849.61
385.56	882.38
385.75	823.87
385.95	882.38
386.14	847.27
386.34	795.78
386.53	889.40
386.72	840.25
386.92	898.77
387.11	919.83
387.31	781.74
387.50	908.13
387.70	929.19
387.89	877.70
388.09	940.90
388.28	905.79
388.48	915.15
388.67	947.92
388.86	896.43
389.06	971.32
389.25	1008.77
389.45	873.02
389.64	1006.43
389.84	912.81
390.03	847.27
390.22	1011.11
390.42	908.13
390.61	931.53
390.81	1015.79
391.00	987.71
391.19	1011.11
391.39	985.37
391.58	987.71
391.78	987.71
391.97	1050.90
392.16	1041.54
392.36	1001.75
392.55	985.37
392.75	1046.22
392.94	1048.56
393.13	1064.94
393.33	1053.24
393.52	1125.80
393.71	1125.80
393.91	1200.69
394.10	1151.54
394.29	1081.33
394.49	1074.31
394.68	1184.31
394.88	1111.75
395.07	1095.37
395.26	1043.88
395.46	1142.18
395.65	1139.84
395.84	1198.35
396.04	1275.59
396.23	1226.44
396.42	1146.86
396.62	1219.42
396.81	1203.04
397.00	1299.00
397.19	1203.04
397.39	1165.59
397.58	1221.76
397.77	1210.06
397.97	1233.46
398.16	1259.21
398.35	1294.32
398.55	1413.68
398.74	1430.07
398.93	1334.11
399.12	1308.36
399.32	1327.08
399.51	1420.71
399.70	1432.41
399.90	1273.25
400.09	1369.21
400.28	1291.98
400.47	1416.02
400.67	1441.77
400.86	1327.08
401.05	1359.85
401.24	1289.64
401.44	1455.81
401.63	1439.43
401.82	1486.24
402.01	1427.73
402.21	1544.75
402.40	1469.86
402.59	1467.52
402.78	1509.65
402.97	1488.58
403.17	1565.82
403.36	1577.52
403.55	1565.82
403.74	1645.40
403.93	1666.46
404.13	1617.31
404.32	1652.42
404.51	1664.12
404.70	1699.23
404.89	1671.14
405.09	1706.25
405.28	1652.42
405.47	1638.38
405.66	1647.74
405.85	1696.89
406.05	1717.95
406.24	1680.50
406.43	1816.26
406.62	1891.15
406.81	1851.36
407.00	1781.15
407.20	1746.04
407.39	1764.76
407.58	1830.30
407.77	1923.92
407.96	1947.33
408.15	1839.66
408.34	1930.94
408.54	1879.45
408.73	1884.13
408.92	1888.81
409.11	2036.27
409.30	2005.84
409.49	1933.28
409.68	2083.08
409.87	2043.29
410.07	2087.76
410.26	2148.61
410.45	2036.27
410.64	2064.35
410.83	2162.66
411.02	2129.89
411.21	2207.13
411.40	2246.91
411.59	2172.02
411.78	2179.04
411.98	2172.02
412.17	2272.66
412.36	2286.70
412.55	2307.77
412.74	2289.04
412.93	2401.39
413.12	2349.90
413.31	2396.71
413.50	2385.01
413.69	2413.09
413.88	2478.63
414.07	2525.44
414.26	2544.16
414.45	2415.43
414.64	2609.70
414.83	2640.12
415.02	2574.59
415.22	2731.41
415.41	2684.59
415.60	2600.34
415.79	2649.49
415.98	2785.24
416.17	2810.98
416.36	2855.45
416.55	2785.24
416.74	2906.95
416.93	2869.50
417.12	2834.39
417.31	2874.18
417.50	2918.65
417.69	2850.77
417.88	2892.90
418.07	2956.10
418.26	2984.18
418.45	3087.17
418.64	3112.91
418.83	3038.02
419.02	3049.72
419.21	3206.53
419.39	3171.43
419.58	3052.06
419.77	3000.57
419.96	3206.53
420.15	3204.19
420.34	3173.77
420.53	3178.45
420.72	3075.46
420.91	3178.45
421.10	3199.51
421.29	3328.24
421.48	3157.38
421.67	3162.06
421.86	3325.90
422.05	3297.81
422.24	3344.63
422.43	3323.56
422.61	3290.79
422.80	3342.28
422.99	3475.70
423.18	3461.65
423.37	3487.40
423.56	3375.05
423.75	3424.20
423.94	3283.77
424.13	3248.66
424.32	3258.03
424.50	3513.14
424.69	3559.95
424.88	3520.17
425.07	3473.36
425.26	3328.24
425.45	3353.99
425.64	3398.46
425.83	3417.18
426.01	3597.40
426.20	3564.64
426.39	3456.97
426.58	3377.39
426.77	3513.14
426.96	3599.74
427.15	3487.40
427.33	3665.28
427.52	3751.88
427.71	3700.39
427.90	3641.87
428.09	3684.00
428.28	3658.26
428.46	3662.94
428.65	3803.37
428.84	3801.03
429.03	3805.71
429.22	3786.99
429.40	3801.03
429.59	3681.66
429.78	3728.47
429.97	3770.60
430.16	3688.68
430.34	3918.06
430.53	3847.84
430.72	3873.59
430.91	3899.33
431.10	3817.41
431.28	3976.57
431.47	4028.06
431.66	4072.53
431.85	4079.55
432.03	4009.34
432.22	4037.42
432.41	3999.98
432.60	3927.42
432.79	3950.82
432.97	4145.09
433.16	4070.19
433.35	4037.42
433.54	4224.67
433.72	4215.30
433.91	4117.00
434.10	4287.86
434.28	4222.33
434.47	4238.71
434.66	4383.82
434.85	4318.29
435.03	4304.25
435.22	4369.78
435.41	4514.89
435.59	4285.52
435.78	4414.25
435.97	4486.81
436.16	4355.74
436.34	4334.67
436.53	4484.47
436.72	4486.81
436.90	4444.68
437.09	4582.77
437.28	4407.23
437.46	4489.15
437.65	4608.51
437.84	4613.20
438.02	4531.28
438.21	4709.16
438.40	4636.60
438.58	4833.21
438.77	4833.21
438.96	4638.94
439.14	4917.47
439.33	5018.11
439.52	4880.02
439.70	4873.00
439.89	4987.68
440.08	5078.96
440.26	5036.83
440.45	5085.98
440.63	5039.17
440.82	5188.97
441.01	5217.05
441.19	5132.79
441.38	5172.58
441.57	5247.48
441.75	5228.76
441.94	5324.72
442.12	5301.31
442.31	5460.47
442.50	5490.90
442.68	5390.25
442.87	5420.68
443.05	5547.07
443.24	5628.99
443.43	5511.96
443.61	5673.46
443.80	5802.19
443.98	5563.45
444.17	5289.61
444.35	5504.94
444.54	5495.58
444.73	5570.48
444.91	5678.14
445.10	5654.73
445.28	5533.03
445.47	5689.84
445.65	5699.20
445.84	5572.82
446.02	5816.23
446.21	5647.71
446.39	5818.57
446.58	5820.91
446.77	5741.33
446.95	5617.29
447.14	5664.10
447.32	5764.74
447.51	5839.64
447.69	5846.66
447.88	5799.85
448.06	5724.95
448.25	5785.80
448.43	5909.85
448.62	5774.10
448.80	5893.47
448.99	5846.66
449.17	5783.46
449.36	5914.53
449.54	5895.81
449.73	6122.84
449.91	6069.01
450.10	6099.44
450.28	6317.11
450.46	6083.05
450.65	5996.45
450.83	6270.30
451.02	6031.56
451.20	6272.64
451.39	6335.83
451.57	6127.52
451.76	5982.41
451.94	6202.42
452.13	6324.13
452.31	6244.55
452.49	6230.51
452.68	6370.94
452.86	6216.46
453.05	6490.31
453.23	6513.71
453.42	6483.28
453.60	6286.68
453.78	6483.28
453.97	6263.27
454.15	6300.72
454.34	6544.14
454.52	6551.16
454.70	6506.69
454.89	6490.31
455.07	6677.55
455.26	6686.91
455.44	6698.61
455.62	6710.32
455.81	6670.53
455.99	6750.10
456.17	6569.88
456.36	6780.53
456.54	6815.64
456.73	6890.54
456.91	6930.33
457.09	7073.10
457.28	7157.36
457.46	7075.44
457.64	7302.47
457.83	7171.40
458.01	6925.65
458.19	7236.94
458.38	7021.61
458.56	7143.32
458.74	7229.91
458.93	7143.32
459.11	7225.23
459.29	7066.08
459.48	7368.01
459.66	7407.80
459.84	7337.58
460.03	7478.01
460.21	7351.62
460.39	7377.37
460.57	7529.50
460.76	7478.01
460.94	7410.14
461.12	7431.20
461.31	7634.83
461.49	7588.02
461.67	7583.34
461.85	7791.64
462.04	7557.59
462.22	7899.31
462.40	7599.72
462.59	7805.69
462.77	7674.62
462.95	7878.24
463.13	7744.83
463.32	7742.49
463.50	7962.50
463.68	8049.10
463.86	8173.15
464.05	7901.65
464.23	7845.48
464.41	8021.02
464.59	7716.75
464.78	8184.85
464.96	8102.93
465.14	7981.23
465.32	8224.64
465.50	8070.17
465.69	8278.47
465.87	8093.57
466.05	8252.73
466.23	8131.02
466.41	8173.15
466.60	8311.24
466.78	8102.93
466.96	8159.11
467.14	8215.28
467.32	8198.90
467.51	8332.31
467.69	8271.45
467.87	8273.79
468.05	8423.59
468.23	8538.27
468.41	8355.71
468.60	8491.46
468.78	8615.51
468.96	8425.93
469.14	8613.17
469.32	8926.80
469.50	8430.61
469.69	8695.09
469.87	8676.37
470.05	8610.83
470.23	8709.13
470.41	8727.86
470.59	9083.62
470.77	8723.18
470.95	8667.00
471.14	8964.25
471.32	8847.22
471.50	8849.57
471.68	9107.02
471.86	9163.20
472.04	9015.74
472.22	9432.36
472.40	9291.93
472.58	9245.12
472.77	9373.85
472.95	9413.63
473.13	9675.77
473.31	9341.08
473.49	9572.79
473.67	9500.23
473.85	9582.15
474.03	9745.99
474.21	9722.59
474.39	9893.44
474.57	9813.87
474.75	10017.49
474.93	9886.42
475.12	10001.11
475.30	9947.28
475.48	10085.37
475.66	10008.13
475.84	10101.75
476.02	10216.44
476.20	10078.35
476.38	10546.45
476.56	10607.31
476.74	10644.76
476.92	10410.70
477.10	10707.95
477.28	10733.70
477.46	10654.12
477.64	10654.12
477.82	10773.49
478.00	11468.62
478.18	11199.46
478.36	11365.64
478.54	11365.64
478.72	11267.34
478.90	11606.72
479.08	11644.17
479.26	11683.95
479.44	11815.02
479.62	11620.76
479.80	12025.67
479.98	12016.31
480.16	12367.39
480.34	12325.26
480.52	12304.20
480.70	12439.95
480.88	12140.36
481.06	12081.85
481.24	12278.45
481.41	12819.11
481.59	12725.49
481.77	12973.59
481.95	12877.63
482.13	12973.59
482.31	13001.68
482.49	13249.77
482.67	13296.58
482.85	13399.57
483.03	13668.73
483.21	13680.43
483.39	13874.70
483.57	13975.34
483.74	13846.61
483.92	14001.08
484.10	14019.81
484.28	14265.57
484.46	14310.04
484.64	14817.93
484.82	14303.01
485.00	14696.22
485.18	14876.44
485.35	15199.44
485.53	15066.03
485.71	15187.74
485.89	15531.80
486.07	15372.64
486.25	15468.60
486.43	15618.39
486.61	15695.63
486.78	15936.71
486.96	15995.22
487.14	15978.84
487.32	16304.17
487.50	16552.27
487.68	16828.45
487.85	16664.61
488.03	16681.00
488.21	16980.59
488.39	16662.27
488.57	16826.11
488.75	17563.38
488.92	17657.00
489.10	17338.69
489.28	17687.43
489.46	17827.86
489.64	17699.13
489.81	18122.77
489.99	18078.30
490.17	18157.88
490.35	18553.43
490.53	18396.61
490.70	18621.30
490.88	18656.41
491.06	18965.36
491.24	19206.44
491.41	18986.43
491.59	19529.43
491.77	19206.44
491.95	19583.26
492.13	19665.18
492.30	19449.85
492.48	19955.41
492.66	19964.77
492.84	19934.34
493.01	19915.62
493.19	20222.23
493.37	20460.96
493.54	20189.46
493.72	20428.20
493.90	20610.76
494.08	21041.42
494.25	20987.58
494.43	21022.69
494.61	21142.06
494.79	20975.88
494.96	21287.17
495.14	21837.20
495.32	21965.93
495.49	21694.43
495.67	22106.36
495.85	21975.29
496.02	22256.15
496.20	22265.52
496.38	22408.29
496.55	22455.10
496.73	22684.47
496.91	22696.17
497.09	22944.27
497.26	22850.65
497.44	22829.59
497.62	22923.21
497.79	23449.83
497.97	23426.42
498.14	23276.63
498.32	23632.39
498.50	23889.85
498.67	23988.15
498.85	23915.59
499.03	24123.90
499.20	23840.70
499.38	24210.50
499.56	24276.04
499.73	24666.91
499.91	24592.01
500.08	24664.57
500.26	24854.15
500.44	24678.61
500.61	24786.27
500.79	24903.30
500.97	25137.35
501.14	25455.67
501.32	25631.21
501.49	25556.31
501.67	25462.69
501.84	25773.98
502.02	25415.88
502.20	25399.49
502.37	25638.23
502.55	25521.20
502.72	26019.74
502.90	26176.55
503.07	26050.16
503.25	26457.42
503.43	25961.22
503.60	26466.78
503.78	26370.82
503.95	26595.51
504.13	26623.59
504.30	26749.98
504.48	26452.73
504.65	26930.20
504.83	26977.01
505.01	27555.13
505.18	26948.93
505.36	27377.25
505.53	27351.50
505.71	27318.73
505.88	27417.04
506.06	27173.62
506.23	27250.86
506.41	27957.70
506.58	27550.45
506.76	28065.36
506.93	28158.99
507.11	27894.50
507.28	28325.16
507.46	28205.80
507.63	28493.68
507.81	28552.20
507.98	28315.80
508.16	28503.04
508.33	28701.99
508.50	28800.29
508.68	29032.00
508.85	29120.95
509.03	28744.12
509.20	29530.54
509.38	29137.33
509.55	29404.15
509.73	29357.34
509.90	29614.80
510.08	29483.73
510.25	29771.61
510.42	29329.25
510.60	30103.97
510.77	29886.30
510.95	29792.68
511.12	29963.54
511.30	29874.60
511.47	30199.93
511.64	30213.98
511.82	30464.41
511.99	30316.96
512.17	30476.12
512.34	30775.70
512.51	30829.54
512.69	30944.22
512.86	30682.08
513.04	30937.20
513.21	30740.60
513.38	31227.43
513.56	31138.49
513.73	30923.16
513.90	31398.29
514.08	31260.20
514.25	31838.31
514.43	32414.08
514.60	31662.77
514.77	31365.52
514.95	31758.73
515.12	31952.99
515.29	31676.81
515.47	31976.40
515.64	32030.23
515.81	32177.68
515.99	32393.01
516.16	32381.31
516.33	32390.67
516.51	32748.78
516.68	32423.44
516.85	32671.54
517.03	32655.15
517.20	32737.07
517.37	33118.58
517.54	32570.90
517.72	32823.67
517.89	32758.14
518.06	33149.01
518.24	32889.21
518.41	32914.95
518.58	32905.59
518.75	33067.09
518.93	33277.74
519.10	33486.04
519.27	33502.43
519.45	33347.95
519.62	33832.44
519.79	33628.82
519.96	33612.43
520.14	34190.55
520.31	33848.83
520.48	34082.88
520.65	34291.19
520.83	34480.77
521.00	34653.97
521.17	34352.04
521.34	34529.92
521.52	34480.77
521.69	34504.18
521.86	34852.92
522.03	34579.07
522.20	34443.32
522.38	35166.55
522.55	35089.31
522.72	35101.01
522.89	35374.86
523.07	35344.43
523.24	35213.36
523.41	35482.52
523.58	35136.12
523.75	35534.01
523.92	35552.74
524.10	35438.05
524.27	35747.00
524.44	35559.76
524.61	35995.10
524.78	36126.17
524.96	36261.92
525.13	36130.85
525.30	36243.20
525.47	36247.88
525.64	36112.13
525.81	36367.24
525.98	36325.11
526.16	36507.68
526.33	36196.38
526.50	36655.13
526.67	36652.79
526.84	36694.92
527.01	36584.91
527.18	36720.66
527.36	37436.87
527.53	36870.46
527.70	37308.14
527.87	37546.87
528.04	36631.72
528.21	36889.18
528.38	37294.10
528.55	36825.99
528.72	36744.07
528.89	37647.52
529.07	37680.28
529.24	37179.41
529.41	37773.91
529.58	37610.07
529.75	37296.44
529.92	37942.42
530.09	37532.83
530.26	37933.06
530.43	38274.78
530.60	37720.07
530.77	37851.14
530.94	38080.52
531.11	37645.18
531.28	37811.35
531.46	38153.07
531.63	37818.38
531.80	37904.98
531.97	38672.67
532.14	38504.15
532.31	38169.46
532.48	38447.98
532.65	38581.39
532.82	38550.96
532.99	38583.73
533.16	38876.30
533.33	38768.63
533.50	38960.56
533.67	39028.43
533.84	38455.00
534.01	38923.11
534.18	38813.10
534.35	39283.55
534.52	38923.11
534.69	39536.33
534.86	39636.97
535.03	39339.72
535.20	39419.30
535.37	39306.96
535.54	39398.24
535.71	39435.69
535.88	39536.33
536.05	40011.46
536.22	39522.29
536.38	39700.17
536.55	39938.90
536.72	39653.36
536.89	39824.22
537.06	39934.22
537.23	40009.12
537.40	39880.39
537.57	40121.46
537.74	39969.33
537.91	40268.92
538.08	40407.01
538.25	39770.38
538.42	40369.56
538.59	40868.09
538.75	40437.44
538.92	40994.48
539.09	40308.71
539.26	40486.59
539.43	40837.67
539.60	41113.85
539.77	40364.88
539.94	40790.86
540.11	40947.67
540.28	41015.55
540.44	40818.94
540.61	40900.86
540.78	40954.69
540.95	40809.58
541.12	41301.09
541.29	40933.63
541.46	41212.15
541.62	40898.52
541.79	40751.07
541.96	40842.35
542.13	41017.89
542.30	41167.68
542.47	41287.05
542.63	41359.61
542.80	42007.94
542.97	41710.69
543.14	41928.36
543.31	41478.97
543.48	42169.43
543.64	42113.26
543.81	42284.12
543.98	41820.69
544.15	41991.55
544.32	42429.23
544.48	42536.90
544.65	42618.81
544.82	42223.26
544.99	41991.55
545.16	42375.40
545.32	42197.52
545.49	42623.50
545.66	42937.13
545.83	42562.64
546.00	42408.17
546.16	42581.37
546.33	42841.17
546.50	42712.44
546.67	42951.17
546.83	42431.57
547.00	42740.52
547.17	42649.24
547.34	42742.86
547.50	43159.48
547.67	43154.80
547.84	42965.21
548.00	42810.74
548.17	43445.02
548.34	43260.12
548.51	43384.17
548.67	43246.08
548.84	43330.34
549.01	43133.73
549.18	43311.61
549.34	43363.11
549.51	43805.47
549.68	43620.56
549.84	43185.22
550.01	43819.51
550.18	43316.29
550.34	43571.41
550.51	44039.52
550.68	43791.42
550.84	43370.13
551.01	44060.58
551.18	44091.01
551.34	43871.00
551.51	44147.18
551.68	44130.80
551.84	43849.94
552.01	44051.22
552.18	44009.09
552.34	43728.23
552.51	44381.24
552.68	43779.72
552.84	44343.79
553.01	44404.64
553.18	44271.23
553.34	44198.68
553.51	44568.48
553.67	44278.25
553.84	44671.46
554.01	44240.81
554.17	44116.76
554.34	44987.44
554.51	44928.92
554.67	44591.89
554.84	44779.13
555.00	44739.34
555.17	44643.38
555.33	45099.78
555.50	44851.69
555.67	44837.64
555.83	44926.58
556.00	44889.13
556.16	45036.59
556.33	45106.80
556.50	44793.17
556.66	44818.92
556.83	44795.51
556.99	45422.78
557.16	45109.14
557.32	44914.88
557.49	44861.05
557.65	44975.73
557.82	44987.44
557.98	45144.25
558.15	45067.02
558.32	45151.27
558.48	45127.87
558.65	45272.98
558.81	45099.78
558.98	45333.84
559.14	45247.24
559.31	45198.09
559.47	45301.07
559.64	45488.31
559.80	45551.51
559.97	45539.80
560.13	45457.88
560.30	45670.87
560.46	45808.96
560.63	45734.07
560.79	45610.02
560.96	45722.37
561.12	45979.82
561.29	46241.96
561.45	45839.39
561.61	45949.40
561.78	45827.69
561.94	45970.46
562.11	46244.30
562.27	45813.65
562.44	45729.39
562.60	45801.94
562.77	45801.94
562.93	45680.24
563.10	46167.07
563.26	46036.00
563.42	46312.18
563.59	45830.03
563.75	45923.65
563.92	46019.61
564.08	45958.76
564.24	46199.83
564.41	46003.23
564.57	45703.64
564.74	46050.04
564.90	45853.44
565.07	46391.76
565.23	46122.60
565.39	46270.05
565.56	46342.61
565.72	45492.99
565.88	46019.61
566.05	46422.19
566.21	46068.76
566.38	46431.55
566.54	45837.05
566.70	46604.75
566.87	46012.59
567.03	45858.12
567.19	46410.48
567.36	46799.01
567.52	46071.10
567.68	46724.11
567.85	46445.59
568.01	46960.51
568.17	46354.31
568.34	46887.95
568.50	46300.48
568.66	46340.27
568.83	46443.25
568.99	46665.60
569.15	46607.09
569.32	46541.55
569.48	46621.13
569.64	46876.25
569.81	46405.80
569.97	46270.05
570.13	47033.07
570.30	46602.41
570.46	46728.80
570.62	46906.68
570.78	46508.79
570.95	46356.65
571.11	46906.68
571.27	46880.93
571.43	46536.87
571.60	46974.55
571.76	46520.49
571.92	46518.15
572.09	46681.98
572.25	46520.49
572.41	46590.70
572.57	47007.32
572.74	46979.23
572.90	46761.56
573.06	47325.63
573.22	47295.21
573.38	47051.79
573.55	47035.41
573.71	47295.21
573.87	47040.09
574.03	46979.23
574.20	47241.37
574.36	47150.09
574.52	47182.86
574.68	47309.25
574.84	46911.36
575.01	47372.44
575.17	47124.35
575.33	47416.91
575.49	47297.55
575.65	47000.30
575.82	46990.94
575.98	47215.63
576.14	47178.18
576.30	47129.03
576.46	47428.62
576.62	47138.39
576.79	47049.45
576.95	46693.69
577.11	47086.90
577.27	47012.00
577.43	47463.72
577.59	47037.75
577.75	46974.55
577.92	47037.75
578.08	46902.00
578.24	47145.41
578.40	47496.49
578.56	46784.97
578.72	47110.30
578.88	47447.34
579.04	47274.14
579.21	47353.72
579.37	46857.52
579.53	47620.54
579.69	47000.30
579.85	47021.36
580.01	47098.60
580.17	46962.85
580.33	47281.16
580.49	47353.72
580.65	46955.83
580.82	47110.30
580.98	46883.27
581.14	47388.83
581.30	47374.78
581.46	47110.30
581.62	47241.37
581.78	47229.67
581.94	47325.63
582.10	47278.82
582.26	47241.37
582.42	47377.12
582.58	47421.59
582.74	47831.19
582.90	47363.08
583.06	47639.26
583.22	47164.14
583.38	47290.52
583.54	47487.13
583.70	47683.73
583.86	47428.62
584.02	47494.15
584.18	47562.03
584.34	47681.39
584.50	47978.64
584.66	47337.33
584.82	47524.58
584.98	47814.80
585.14	47901.40
585.30	47168.82
585.46	47508.19
585.62	47290.52
585.78	47538.62
585.94	47452.02
586.10	47547.98
586.26	46988.60
586.42	47285.84
586.58	47449.68
586.74	47463.72
586.90	47374.78
587.06	47906.08
587.22	48020.77
587.38	47309.25
587.54	47676.71
587.70	47796.08
587.86	47629.90
588.02	47234.35
588.18	47496.49
588.34	47318.61
588.49	47482.45
588.65	47288.18
588.81	47868.64
588.97	47608.84
589.13	47203.92
589.29	47409.89
589.45	47508.19
589.61	47882.68
589.77	47800.76
589.93	47585.43
590.08	48013.75
590.24	47985.66
590.40	47936.51
590.56	47969.28
590.72	47950.56
590.88	47358.40
591.04	47625.22
591.20	48212.70
591.35	48186.95
591.51	48233.76
591.67	47917.79
591.83	48161.20
591.99	48264.19
592.15	48076.94
592.31	48013.75
592.46	47688.42
592.62	47831.19
592.78	48191.63
592.94	48418.66
593.10	48147.16
593.26	48041.84
593.41	48243.12
593.57	48072.26
593.73	48252.48
593.89	48369.51
594.05	48062.90
594.20	48374.19
594.36	48381.21
594.52	48481.86
594.68	48081.63
594.84	47793.74
594.99	48610.59
595.15	48247.80
595.31	48336.74
595.47	48247.80
595.62	48460.79
595.78	47838.21
595.94	48105.03
596.10	47870.98
596.25	48336.74
596.41	48591.86
596.57	48161.20
596.73	48467.81
596.88	48048.86
597.04	48135.46
597.20	48500.58
597.36	48303.98
597.51	48093.33
597.67	47840.55
597.83	47812.46
597.99	48149.50
598.14	47899.06
598.30	48500.58
598.46	47854.59
598.61	48343.77
598.77	47980.98
598.93	48914.86
599.09	48346.11
599.24	48633.99
599.40	48851.66
599.56	48100.35
599.71	48767.40
599.87	49062.31
600.03	48781.45
600.18	48341.42
600.34	48449.09
600.50	48353.13
600.65	48184.61
600.81	48699.53
600.97	48540.37
601.12	48528.67
601.28	48027.79
601.44	48208.01
601.59	48615.27
601.75	48339.08
601.91	48456.11
602.06	48296.95
602.22	48488.88
602.37	48439.73
602.53	48495.90
602.69	48135.46
602.84	48273.55
603.00	48453.77
603.16	48273.55
603.31	48428.02
603.47	48435.05
603.62	47955.24
603.78	48453.77
603.94	48755.70
604.09	48006.73
604.25	47849.91
604.40	47887.36
604.56	48505.26
604.71	48608.25
604.87	48346.11
605.03	48659.74
605.18	48006.73
605.34	48559.09
605.49	48212.70
605.65	48575.48
605.80	48184.61
605.96	48023.11
606.12	48184.61
606.27	48367.17
606.43	48236.10
606.58	48397.60
606.74	48385.89
606.89	48596.54
607.05	48444.41
607.20	48608.25
607.36	48296.95
607.51	48076.94
607.67	48114.39
607.82	48390.58
607.98	47952.90
608.13	47892.04
608.29	48135.46
608.44	48474.84
608.60	48004.39
608.75	47929.49
608.91	48137.80
609.06	47650.97
609.22	47995.03
609.37	48105.03
609.53	48198.65
609.68	48067.58
609.84	48006.73
609.99	48067.58
610.15	47985.66
610.30	48364.83
610.46	48147.16
610.61	47873.32
610.76	48062.90
610.92	47442.66
611.07	48055.88
611.23	47540.96
611.38	47480.11
611.54	48413.98
611.69	47980.98
611.84	48233.76
612.00	48041.84
612.15	47861.61
612.31	47906.08
612.46	47255.42
612.62	47557.35
612.77	47969.28
612.92	48090.99
613.08	47728.20
613.23	47639.26
613.39	47569.05
613.54	47356.06
613.69	47941.19
613.85	47491.81
614.00	47370.10
614.15	48053.54
614.31	47540.96
614.46	47732.89
614.62	47531.60
614.77	47849.91
614.92	47966.94
615.08	47648.63
615.23	47573.73
615.38	47723.52
615.54	47852.25
615.69	47604.16
615.84	47550.32
616.00	47377.12
616.15	47758.63
616.30	47648.63
616.46	47454.36
616.61	47372.44
616.76	47501.17
616.92	47494.15
617.07	47564.37
617.22	46674.96
617.37	47241.37
617.53	47236.69
617.68	47143.07
617.83	47224.99
617.99	47482.45
618.14	47648.63
618.29	46986.25
618.45	47028.38
618.60	47037.75
618.75	47009.66
618.90	47173.50
619.06	47089.24
619.21	47122.01
619.36	47508.19
619.51	46656.24
619.67	46855.18
619.82	47103.28
619.97	47426.28
620.12	47131.37
620.28	47077.54
620.43	47358.40
620.58	47292.86
620.73	47517.56
620.89	47054.13
621.04	47285.84
621.19	47187.54
621.34	47012.00
621.49	46485.38
621.65	46974.55
621.80	47203.92
621.95	46288.77
622.10	46951.15
622.25	46712.41
622.41	46890.29
622.56	46349.63
622.71	46553.26
622.86	46850.50
623.01	47124.35
623.16	46731.14
623.32	46291.12
623.47	46447.93
623.62	46719.43
623.77	46452.61
623.92	46408.14
624.07	46902.00
624.23	46735.82
624.38	46546.23
624.53	46162.39
624.68	46286.43
624.83	46440.91
624.98	46237.28
625.13	46209.20
625.29	46110.89
625.44	46560.28
625.59	46101.53
625.74	46028.98
625.89	46405.80
626.04	46195.15
626.19	46347.29
626.34	46204.52
626.49	45865.14
626.65	46337.93
626.80	46436.23
626.95	45888.54
627.10	45467.25
627.25	46452.61
627.40	46408.14
627.55	46265.37
627.70	46358.99
627.85	46195.15
628.00	45897.91
628.15	45876.84
628.30	45553.85
628.45	45734.07
628.60	45258.94
628.76	46230.26
628.91	46000.89
629.06	45357.24
629.21	45361.92
629.36	45504.70
629.51	45762.15
629.66	45661.51
629.81	45715.34
629.96	45488.31
630.11	45544.48
630.26	45263.62
630.41	45375.97
630.56	45450.86
630.71	45134.89
630.86	45670.87
631.01	45076.38
631.16	45312.77
631.31	45350.22
631.46	45305.75
631.61	45076.38
631.76	45713.00
631.91	45258.94
632.06	45668.53
632.21	45478.95
632.36	45591.30
632.51	44404.64
632.66	45015.52
632.81	44973.39
632.96	45280.00
633.10	44987.44
633.25	44992.12
633.40	45078.72
633.55	45532.78
633.70	45387.67
633.85	44526.35
634.00	44863.39
634.15	44545.08
634.30	45013.18
634.45	44641.04
634.60	44884.45
634.75	44877.43
634.90	44999.14
635.05	44917.22
635.19	44851.69
635.34	45350.22
635.49	44446.77
635.64	44786.15
635.79	44903.18
635.94	44781.47
636.09	44952.33
636.24	44470.18
636.39	44343.79
636.53	44767.43
636.68	44311.02
636.83	44261.87
636.98	44547.42
637.13	44030.16
637.28	44453.79
637.43	44247.83
637.57	44376.56
637.72	44034.84
637.87	44273.57
638.02	44418.69
638.17	44350.81
638.32	44088.67
638.46	43772.70
638.61	43835.89
638.76	43969.30
638.91	44414.01
639.06	44175.27
639.20	43484.81
639.35	43873.34
639.50	43749.29
639.65	43880.36
639.80	43950.58
639.94	44296.98
640.09	44243.15
640.24	43826.53
640.39	43548.01
640.54	43777.38
640.68	44107.40
640.83	44315.70
640.98	43742.27
641.13	43751.63
641.27	44271.23
641.42	44163.57
641.57	43580.78
641.72	44009.09
641.86	43847.60
642.01	43358.42
642.16	43676.74
642.31	43037.77
642.45	43866.32
642.60	42990.96
642.75	43349.06
642.90	43445.02
643.04	43171.18
643.19	43409.92
643.34	43248.42
643.48	42820.10
643.63	43459.07
643.78	43461.41
643.93	43461.41
644.07	43246.08
644.22	43419.28
644.37	43159.48
644.51	43489.49
644.66	43217.99
644.81	43168.84
644.95	43159.48
645.10	42948.83
645.25	43124.37
645.39	42859.89
645.54	43225.01
645.69	42611.79
645.83	42843.51
645.98	42593.07
646.13	43173.52
646.27	42845.85
646.42	42359.02
646.57	43021.39
646.71	42621.16
646.86	43143.09
647.00	42721.80
647.15	42754.57
647.30	43091.60
647.44	43019.05
647.59	42742.86
647.74	42361.36
647.88	42927.77
648.03	42787.33
648.17	42693.71
648.32	42302.84
648.47	42712.44
648.61	42504.13
648.76	42279.44
648.90	42534.56
649.05	42017.30
649.20	42527.53
649.34	42469.02
649.49	42534.56
649.63	42590.73
649.78	42845.85
649.92	42958.19
650.07	42775.63
650.21	42550.94
650.36	42932.45
650.51	41956.44
650.65	42452.64
650.80	42497.11
650.94	42344.97
651.09	42335.61
651.23	41799.63
651.38	42110.92
651.52	41820.69
651.67	41848.78
651.81	42258.37
651.96	41869.84
652.10	41521.10
652.25	41816.01
652.39	41647.49
652.54	42031.34
652.68	41816.01
652.83	42026.66
652.97	42085.17
653.12	41811.33
653.26	41780.90
653.41	41525.78
653.55	41659.20
653.70	41804.31
653.84	41544.51
653.99	42075.81
654.13	41605.36
654.27	41558.55
654.42	41680.26
654.56	41703.67
654.71	41427.48
654.85	41921.34
655.00	41394.71
655.14	41457.91
655.29	41572.60
655.43	41874.52
655.57	41375.99
655.72	41076.40
655.86	41453.23
656.01	40978.10
656.15	41375.99
656.30	41322.16
656.44	41280.03
656.58	41254.28
656.73	41275.35
656.87	40889.16
657.01	40840.01
657.16	41163.00
657.30	40772.13
657.45	41434.50
657.59	40631.70
657.73	40484.25
657.88	40992.14
658.02	40917.25
658.16	41137.26
658.31	41118.53
658.45	41167.68
658.60	40804.90
658.74	40968.74
658.88	40905.54
659.03	40947.67
659.17	40481.91
659.31	40264.24
659.46	40135.51
659.60	40570.85
659.74	39934.22
659.89	39871.03
660.03	40037.20
660.17	40137.85
660.32	40456.16
660.46	40158.91
660.60	39775.06
660.74	39791.45
660.89	40020.82
661.03	39751.66
661.17	39407.60
661.32	39742.30
661.46	40524.04
661.60	39711.87
661.74	39449.73
661.89	39604.20
662.03	39388.88
662.17	39487.18
662.31	39203.97
662.46	39754.00
662.60	39192.27
662.74	39152.48
662.88	39103.33
663.03	38911.41
663.17	38590.75
663.31	39063.54
663.45	39264.83
663.60	39196.95
663.74	39250.78
663.88	39005.03
664.02	38845.87
664.17	39131.42
664.31	39002.69
664.45	38136.69
664.59	38426.92
664.73	38731.18
664.88	38684.37
665.02	38473.73
665.16	38117.96
665.30	38438.62
665.44	38431.60
665.59	38087.54
665.73	38117.96
665.87	37933.06
666.01	37961.15
666.15	38160.09
666.29	38232.65
666.44	37965.83
666.58	37830.08
666.72	37734.12
666.86	37670.92
667.00	37502.40
667.14	37514.11
667.28	37832.42
667.43	37581.98
667.57	37811.35
667.71	37883.91
667.85	37680.28
667.99	37148.98
668.13	37156.00
668.27	36818.97
668.41	37305.80
668.56	36631.72
668.70	36531.08
668.84	36961.74
668.98	36624.70
669.12	36982.80
669.26	36783.86
669.40	36814.29
669.54	36605.98
669.68	36648.11
669.82	36282.98
669.96	36510.02
670.10	36114.47
670.25	36545.12
670.39	36072.34
670.53	36421.08
670.67	36002.12
670.81	36292.35
670.95	36086.38
671.09	35974.03
671.23	35517.63
671.37	36397.67
671.51	35601.89
671.65	35749.34
671.79	35288.26
671.93	36093.40
672.07	35639.34
672.21	35496.56
672.35	35386.56
672.49	35531.67
672.63	35622.95
672.77	35157.19
672.91	35274.21
673.05	34813.13
673.19	34607.16
673.33	34799.08
673.47	34873.98
673.61	34937.18
673.75	34588.44
673.89	34567.37
674.03	34443.32
674.17	34274.80
674.31	33977.56
674.45	34033.73
674.59	34122.67
674.73	34024.37
674.87	33743.50
675.01	33347.95
675.15	33343.27
675.29	33354.97
675.43	33366.68
675.56	33701.37
675.70	33446.26
675.84	33160.71
675.98	32304.07
676.12	33221.56
676.26	33261.35
676.40	33387.74
676.54	32711.33
676.68	32484.30
676.82	32650.47
676.96	32505.36
677.10	32283.01
677.23	32608.34
677.37	32423.44
677.51	32311.10
677.65	31859.37
677.79	32161.30
677.93	32271.31
678.07	32013.85
678.21	31618.30
678.34	31480.21
678.48	31353.82
678.62	31358.50
678.76	31056.57
678.90	31417.01
679.04	31414.67
679.18	31299.98
679.31	31236.79
679.45	31241.47
679.59	30412.92
679.73	31468.50
679.87	30366.11
680.00	30586.12
680.14	30426.96
680.28	30960.61
680.42	30258.45
680.56	30206.95
680.70	30239.72
680.83	30150.78
680.97	29848.85
681.11	29893.32
681.25	29668.63
681.39	29813.74
681.52	29560.97
681.66	29083.50
681.80	28861.15
681.94	29010.94
682.07	29088.18
682.21	28900.94
682.35	28617.73
682.49	28617.73
682.62	28886.89
682.76	28360.27
682.90	28603.69
683.04	28308.78
683.17	28336.87
683.31	27557.47
683.45	28271.33
683.59	27562.15
683.72	27838.33
683.86	27772.80
684.00	27578.53
684.13	27889.82
684.27	27402.99
684.41	26867.01
684.55	27473.21
684.68	27302.35
684.82	26960.63
684.96	26913.82
685.09	27267.24
685.23	26813.18
685.37	27400.65
685.50	27321.07
685.64	27220.43
685.78	26445.71
685.91	26494.86
686.05	26148.46
686.19	25776.32
686.32	26143.78
686.46	25441.62
686.60	25722.49
686.73	25755.26
686.87	25558.65
687.01	25862.92
687.14	25472.05
687.28	25685.04
687.42	25191.19
687.55	25064.80
687.69	24842.45
687.82	25118.63
687.96	24875.21
688.10	25085.86
688.23	24840.11
688.37	24776.91
688.50	25144.38
688.64	24732.44
688.78	24320.51
688.91	24774.57
689.05	24229.23
689.18	24231.57
689.32	23599.62
689.46	23688.56
689.59	23763.46
689.73	24198.80
689.86	23779.84
690.00	23896.87
690.13	23491.96
690.27	23262.58
690.41	23442.81
690.54	23103.43
690.68	23260.24
690.81	23077.68
690.95	22768.73
691.08	22693.83
691.22	22705.54
691.35	22499.57
691.49	22850.65
691.62	22541.70
691.76	22459.78
691.89	22160.19
692.03	22190.62
692.16	21902.73
692.30	21972.95
692.43	21921.46
692.57	21853.58
692.70	22036.14
692.84	21336.32
692.97	21401.86
693.11	21193.55
693.24	21350.37
693.38	20851.83
693.51	20952.48
693.65	21074.18
693.78	21003.97
693.92	20954.82
694.05	20652.89
694.19	20650.55
694.32	20760.55
694.45	20912.69
694.59	20762.89
694.72	20465.64
694.86	20346.28
694.99	20032.65
695.13	19672.20
695.26	20095.84
695.39	19578.58
695.53	19852.42
695.66	19953.07
695.80	19545.81
695.93	19885.19
696.07	19379.64
696.20	19281.33
696.33	18824.93
696.47	19044.94
696.60	18974.72
696.73	19206.44
696.87	19033.24
697.00	18822.59
697.14	18876.42
697.27	18623.64
697.40	18661.09
697.54	18600.24
697.67	18361.50
697.80	18595.56
697.94	18354.48
698.07	18359.16
698.21	17977.65
698.34	18174.26
698.47	17888.71
698.61	17462.74
698.74	17488.48
698.87	17661.68
699.01	17390.18
699.14	17434.65
699.27	17420.61
699.40	17156.13
699.54	16875.26
699.67	17289.54
699.80	17341.03
699.94	16858.88
700.07	16908.03
700.20	16929.09
700.34	16575.67
700.47	16727.81
700.60	16891.65
700.73	16814.41
700.87	16428.22
701.00	16315.87
701.13	16496.10
701.26	15751.81
701.40	16322.90
701.53	16002.24
701.66	16374.39
701.79	15829.04
701.93	15484.98
702.06	15618.39
702.19	15726.06
702.32	15660.52
702.46	15611.37
702.59	15597.33
702.72	15662.86
702.85	15473.28
702.99	15330.51
703.12	15019.22
703.25	15185.40
703.38	15084.75
703.51	14913.89
703.65	14874.10
703.78	14766.44
703.91	14836.66
704.04	14656.43
704.17	14455.15
704.31	14562.81
704.44	14572.18
704.57	14312.38
704.70	14232.80
704.83	14244.50
704.96	14178.97
705.10	14178.97
705.23	13750.65
>>>>>End Processed Spectral Data<<<<<
