SpectraSuite Data File
++++++++++++++++++++++++++++++++++++
Date: Fri Oct 25 10:47:14 EDT 2013
User: price-jones
Dark Spectrum Present: No
Reference Spectrum Present: No
Number of Sampled Component Spectra: 1
Spectrometers: USB2+H05261
Integration Time (usec): 100000 (USB2+H05261)
Spectra Averaged: 1 (USB2+H05261)
Boxcar Smoothing: 0 (USB2+H05261)
Correct for Electrical Dark: No (USB2+H05261)
Strobe/Lamp Enabled: No (USB2+H05261)
Correct for Detector Non-linearity: No (USB2+H05261)
Correct for Stray Light: No (USB2+H05261)
Number of Pixels in Processed Spectrum: 2048
>>>>>Begin Processed Spectral Data<<<<<
365.73	175.54
365.92	175.54
366.12	175.54
366.32	14.04
366.52	0.00
366.72	56.17
366.91	9.36
367.11	30.43
367.31	0.00
367.51	18.72
367.70	95.96
367.90	105.32
368.10	67.88
368.30	60.85
368.49	0.00
368.69	86.60
368.89	2.34
369.09	51.49
369.28	51.49
369.48	79.58
369.68	140.43
369.87	86.60
370.07	121.71
370.27	138.09
370.47	198.95
370.66	353.42
370.86	404.91
371.06	430.66
371.25	421.30
371.45	447.04
371.65	507.90
371.84	468.11
372.04	414.27
372.24	449.38
372.44	447.04
372.63	449.38
372.83	479.81
373.03	390.87
373.22	496.19
373.42	500.87
373.62	517.26
373.81	470.45
374.01	498.53
374.21	521.94
374.40	505.56
374.60	585.13
374.79	601.52
374.99	482.15
375.19	514.92
375.38	521.94
375.58	575.77
375.78	568.75
375.97	571.09
376.17	547.69
376.37	636.63
376.56	582.79
376.76	582.79
376.95	571.09
377.15	587.47
377.35	573.43
377.54	594.50
377.74	596.84
377.93	543.00
378.13	592.16
378.33	561.73
378.52	589.82
378.72	641.31
378.91	603.86
379.11	638.97
379.31	528.96
379.50	624.92
379.70	634.29
379.89	648.33
380.09	645.99
380.28	720.88
380.48	589.82
380.68	608.54
380.87	697.48
381.07	608.54
381.26	634.29
381.46	671.73
381.65	669.39
381.85	681.10
382.04	697.48
382.24	620.24
382.43	685.78
382.63	622.58
382.83	777.06
383.02	704.50
383.22	638.97
383.41	688.12
383.61	718.54
383.80	739.61
384.00	685.78
384.19	664.71
384.39	732.59
384.58	690.46
384.78	781.74
384.97	725.57
385.17	725.57
385.36	655.35
385.56	765.36
385.75	788.76
385.95	767.70
386.14	765.36
386.34	695.14
386.53	779.40
386.72	723.23
386.92	800.46
387.11	849.61
387.31	833.23
387.50	739.61
387.70	716.20
387.89	814.51
388.09	814.51
388.28	739.61
388.48	854.30
388.67	866.00
388.86	807.48
389.06	835.57
389.25	863.66
389.45	877.70
389.64	903.45
389.84	870.68
390.03	847.27
390.22	896.43
390.42	828.55
390.61	805.14
390.81	896.43
391.00	924.51
391.19	952.60
391.39	880.04
391.58	931.53
391.78	919.83
391.97	889.40
392.16	877.70
392.36	926.85
392.55	938.55
392.75	940.90
392.94	884.72
393.13	978.34
393.33	964.30
393.52	1039.20
393.71	1029.84
393.91	978.34
394.10	978.34
394.29	1057.92
394.49	1048.56
394.68	973.66
394.88	997.07
395.07	1102.39
395.26	1048.56
395.46	1071.97
395.65	1006.43
395.84	1193.67
396.04	1170.27
396.23	1181.97
396.42	1102.39
396.62	1069.62
396.81	1107.07
397.00	1100.05
397.19	1186.65
397.39	1111.75
397.58	1186.65
397.77	1196.01
397.97	1149.20
398.16	1263.89
398.35	1228.78
398.55	1254.53
398.74	1299.00
398.93	1355.17
399.12	1174.95
399.32	1207.72
399.51	1270.91
399.70	1291.98
399.90	1263.89
400.09	1371.55
400.28	1343.47
400.47	1392.62
400.67	1362.19
400.86	1444.11
401.05	1362.19
401.24	1432.41
401.44	1455.81
401.63	1322.40
401.82	1416.02
402.01	1448.79
402.21	1465.18
402.40	1465.18
402.59	1362.19
402.78	1526.03
402.97	1476.88
403.17	1495.60
403.36	1465.18
403.55	1500.28
403.74	1598.59
403.93	1575.18
404.13	1605.61
404.32	1453.47
404.51	1554.12
404.70	1626.67
404.89	1577.52
405.09	1654.76
405.28	1624.33
405.47	1591.56
405.66	1706.25
405.85	1685.19
406.05	1666.46
406.24	1720.29
406.43	1673.48
406.62	1750.72
406.81	1877.11
407.00	1790.51
407.20	1689.87
407.39	1813.92
407.58	1830.30
407.77	1739.02
407.96	1804.55
408.15	1830.30
408.34	1790.51
408.54	1907.54
408.73	1937.96
408.92	1905.20
409.11	1984.77
409.30	1914.56
409.49	1933.28
409.68	1909.88
409.87	1994.14
410.07	2036.27
410.26	2003.50
410.45	2052.65
410.64	2101.80
410.83	2029.24
411.02	2172.02
411.21	2232.87
411.40	2113.50
411.59	2174.36
411.78	2165.00
411.98	2148.61
412.17	2291.38
412.36	2129.89
412.55	2282.02
412.74	2239.89
412.93	2417.77
413.12	2270.32
413.31	2462.24
413.50	2298.41
413.69	2373.30
413.88	2457.56
414.07	2473.95
414.26	2464.58
414.45	2495.01
414.64	2560.55
414.83	2593.31
415.02	2640.12
415.22	2530.12
415.41	2656.51
415.60	2640.12
415.79	2754.81
415.98	2810.98
416.17	2724.38
416.36	2766.51
416.55	2745.45
416.74	2930.35
416.93	2785.24
417.12	2796.94
417.31	2799.28
417.50	2864.82
417.69	2979.50
417.88	3042.70
418.07	2918.65
418.26	2899.92
418.45	3030.99
418.64	3045.04
418.83	2984.18
419.02	3054.40
419.21	3059.08
419.39	2998.23
419.58	2995.89
419.77	2995.89
419.96	3042.70
420.15	3150.36
420.34	3014.61
420.53	3187.81
420.72	3288.45
420.91	3258.03
421.10	3201.85
421.29	3281.43
421.48	3344.63
421.67	3251.00
421.86	3232.28
422.05	3225.26
422.24	3321.22
422.43	3384.41
422.61	3316.54
422.80	3407.82
422.99	3351.65
423.18	3206.53
423.37	3438.25
423.56	3393.78
423.75	3370.37
423.94	3379.73
424.13	3119.93
424.32	3129.30
424.50	3372.71
424.69	3541.23
424.88	3515.48
425.07	3403.14
425.26	3398.46
425.45	3461.65
425.64	3342.28
425.83	3353.99
426.01	3466.33
426.20	3410.16
426.39	3433.57
426.58	3384.41
426.77	3454.63
426.96	3499.10
427.15	3548.25
427.33	3644.21
427.52	3372.71
427.71	3581.02
427.90	3595.06
428.09	3634.85
428.28	3641.87
428.46	3585.70
428.65	3672.30
428.84	3726.13
429.03	3749.54
429.22	3590.38
429.40	3585.70
429.59	3611.45
429.78	3548.25
429.97	3513.14
430.16	3658.26
430.34	3730.81
430.53	3651.24
430.72	3719.11
430.91	3662.94
431.10	3812.73
431.28	3906.35
431.47	4030.40
431.66	4014.02
431.85	3847.84
432.03	4037.42
432.22	4114.66
432.41	3999.98
432.60	4205.94
432.79	4070.19
432.97	4124.02
433.16	4140.41
433.35	4182.54
433.54	4086.58
433.72	4126.36
433.91	4147.43
434.10	4126.36
434.28	4035.08
434.47	4203.60
434.66	4304.25
434.85	4381.48
435.03	4381.48
435.22	4217.65
435.41	4484.47
435.59	4299.56
435.78	4505.53
435.97	4243.39
436.16	4383.82
436.34	4400.21
436.53	4498.51
436.72	4430.63
436.90	4447.02
437.09	4454.04
437.28	4491.49
437.46	4477.44
437.65	4575.75
437.84	4606.17
438.02	4564.04
438.21	4505.53
438.40	4596.81
438.58	4676.39
438.77	4596.81
438.96	4645.96
439.14	4730.22
439.33	4795.76
439.52	4971.30
439.70	4833.21
439.89	4957.25
440.08	4891.72
440.26	4926.83
440.45	5032.15
440.63	5041.51
440.82	4973.64
441.01	5125.77
441.19	5219.39
441.38	5104.71
441.57	5231.10
441.75	5376.21
441.94	5366.85
442.12	5350.46
442.31	5397.28
442.50	5348.12
442.68	5493.24
442.87	5619.63
443.05	5596.22
443.24	5577.50
443.43	5458.13
443.61	5680.48
443.80	5565.79
443.98	5430.04
444.17	5280.25
444.35	5741.33
444.54	5706.23
444.73	5596.22
444.91	5678.14
445.10	5724.95
445.28	5654.73
445.47	5577.50
445.65	5619.63
445.84	5682.82
446.02	5671.12
446.21	5685.16
446.39	5666.44
446.58	5902.83
446.77	5715.59
446.95	5570.48
447.14	5762.40
447.32	5645.37
447.51	5736.65
447.69	5731.97
447.88	5802.19
448.06	5647.71
448.25	5647.71
448.43	5909.85
448.62	5762.40
448.80	5699.20
448.99	5893.47
449.17	6132.20
449.36	5874.74
449.54	5966.03
449.73	6045.60
449.91	6216.46
450.10	6066.67
450.28	6122.84
450.46	6263.27
450.65	6282.00
450.83	6113.48
451.02	6195.40
451.20	6314.77
451.39	6300.72
451.57	5973.05
451.76	6139.23
451.94	6204.76
452.13	6188.38
452.31	6251.57
452.49	6008.16
452.68	6230.51
452.86	6314.77
453.05	6342.85
453.23	6270.30
453.42	6272.64
453.60	6375.62
453.78	6480.94
453.97	6253.91
454.15	6377.96
454.34	6235.19
454.52	6499.67
454.70	6427.11
454.89	6401.37
455.07	6551.16
455.26	6572.22
455.44	6703.29
455.62	6553.50
455.81	6846.07
455.99	6761.81
456.17	6794.58
456.36	6712.66
456.54	6909.26
456.73	6970.12
456.91	6822.66
457.09	7124.59
457.28	7119.91
457.46	6867.13
457.64	7112.89
457.83	7066.08
458.01	6944.37
458.19	7103.53
458.38	6979.48
458.56	7227.57
458.74	7126.93
458.93	7056.72
459.11	7246.30
459.29	7274.38
459.48	7243.96
459.66	7047.35
459.84	7265.02
460.03	7407.80
460.21	7470.99
460.39	7297.79
460.57	7269.70
460.76	7349.28
460.94	7435.88
461.12	7470.99
461.31	7489.71
461.49	7342.26
461.67	7527.16
461.85	7648.87
462.04	7403.11
462.22	8138.04
462.40	7737.81
462.59	7730.79
462.77	7606.74
462.95	7798.66
463.13	7763.56
463.32	7672.28
463.50	7880.58
463.68	7824.41
463.86	7728.45
464.05	7618.44
464.23	7826.75
464.41	7915.69
464.59	7864.20
464.78	8102.93
464.96	7822.07
465.14	7852.50
465.32	8021.02
465.50	8226.98
465.69	8297.20
465.87	7763.56
466.05	8154.43
466.23	8084.21
466.41	8023.36
466.60	8196.56
466.78	7985.91
466.96	8091.23
467.14	8074.85
467.32	8259.75
467.51	8390.82
467.69	8175.49
467.87	8203.58
468.05	8191.88
468.23	8177.83
468.41	8318.26
468.60	8348.69
468.78	8374.44
468.96	8175.49
469.14	8470.40
469.32	8566.36
469.50	8236.35
469.69	8421.25
469.87	8655.30
470.05	8610.83
470.23	8659.98
470.41	8650.62
470.59	8858.93
470.77	8664.66
470.95	8702.11
471.14	8833.18
471.32	8711.47
471.50	8938.51
471.68	9064.89
471.86	8844.88
472.04	8833.18
472.22	9198.31
472.40	8938.51
472.58	9100.00
472.77	9132.77
472.95	9336.40
473.13	9483.85
473.31	9277.88
473.49	9053.19
473.67	9268.52
473.85	9455.76
474.03	9671.09
474.21	9474.49
474.39	9722.59
474.57	9767.06
474.75	9816.21
474.93	9942.60
475.12	9795.14
475.30	9832.59
475.48	9921.53
475.66	9736.63
475.84	9858.34
476.02	9977.70
476.20	10066.64
476.38	10331.12
476.56	10403.68
476.74	10188.35
476.92	10443.47
477.10	10347.51
477.28	10544.11
477.46	10523.05
477.64	10736.04
477.82	10817.96
478.00	10988.82
478.18	10977.11
478.36	11154.99
478.54	10995.84
478.72	11070.73
478.90	11328.19
479.08	11384.37
479.26	11379.68
479.44	11557.57
479.62	11641.82
479.80	11681.61
479.98	11810.34
480.16	11838.43
480.34	11948.43
480.52	12049.08
480.70	12102.91
480.88	12142.70
481.06	12297.17
481.24	12170.79
481.41	12641.23
481.59	12456.33
481.77	12484.42
481.95	12800.39
482.13	12868.27
482.31	12823.80
482.49	13088.28
482.67	13198.28
482.85	13497.87
483.03	13413.61
483.21	13675.75
483.39	13715.54
483.57	13635.96
483.74	13668.73
483.92	13769.37
484.10	13877.04
484.28	14209.39
484.46	14408.34
484.64	14129.81
484.82	14295.99
485.00	14398.98
485.18	14728.99
485.35	14766.44
485.53	14352.16
485.71	14661.12
485.89	14752.40
486.07	15019.22
486.25	15187.74
486.43	15248.59
486.61	15009.86
486.78	15449.88
486.96	15503.71
487.14	15960.11
487.32	16065.44
487.50	16030.33
487.68	15896.92
487.85	16201.19
488.03	16472.69
488.21	16664.61
488.39	16758.24
488.57	16730.15
488.75	16695.04
488.92	16989.95
489.10	17352.73
489.28	16952.50
489.46	17291.88
489.64	17245.07
489.81	17715.51
489.99	17535.29
490.17	18054.89
490.35	18218.73
490.53	18251.50
490.70	18071.28
490.88	18258.52
491.06	18284.26
491.24	18427.04
491.41	18518.32
491.59	18513.64
491.77	18466.83
491.95	18743.01
492.13	18761.73
492.30	19213.46
492.48	19080.05
492.66	19269.63
492.84	19454.53
493.01	19744.76
493.19	19491.98
493.37	19985.83
493.54	19946.05
493.72	20437.56
493.90	20313.51
494.08	20662.25
494.25	20643.52
494.43	20699.70
494.61	20809.70
494.79	20959.50
494.96	20669.27
495.14	20744.17
495.32	21025.03
495.49	21158.44
495.67	21500.16
495.85	21474.42
496.02	21741.24
496.20	21668.68
496.38	21642.93
496.55	21802.09
496.73	22026.78
496.91	22209.34
497.09	22632.98
497.26	22368.50
497.44	22675.11
497.62	22576.81
497.79	22532.34
497.97	22757.03
498.14	23094.07
498.32	22775.75
498.50	23159.60
498.67	23220.45
498.85	23239.18
499.03	23447.49
499.20	23608.98
499.38	23482.59
499.56	23332.80
499.73	23573.88
499.91	23929.64
500.08	23878.15
500.26	23819.63
500.44	23744.73
500.61	24119.22
500.79	24016.24
500.97	24273.70
501.14	24482.00
501.32	24643.50
501.49	24463.28
501.67	24570.94
501.84	24844.79
502.02	24748.82
502.20	24671.59
502.37	24973.52
502.55	25443.96
502.72	25027.35
502.90	25207.57
503.07	25186.50
503.25	25329.28
503.43	25362.04
503.60	25474.39
503.78	25593.76
503.95	25809.09
504.13	25619.50
504.30	25750.57
504.48	25921.43
504.65	26136.76
504.83	26120.38
505.01	26178.89
505.18	26204.64
505.36	26382.52
505.53	26288.90
505.71	26494.86
505.88	26705.51
506.06	26534.65
506.23	26614.23
506.41	26455.08
506.58	26918.50
506.76	26867.01
506.93	26951.27
507.11	27051.91
507.28	27531.72
507.46	27271.92
507.63	27072.98
507.81	27667.47
507.98	27068.30
508.16	27508.32
508.33	27920.25
508.50	27777.48
508.68	27899.19
508.85	28196.43
509.03	27936.63
509.20	27885.14
509.38	28002.17
509.55	28283.03
509.73	28126.22
509.90	28570.92
510.08	28439.85
510.25	28388.36
510.42	28526.45
510.60	28545.17
510.77	28711.35
510.95	29024.98
511.12	28774.55
511.30	29088.18
511.47	29392.45
511.64	29411.17
511.82	29237.97
511.99	29418.19
512.17	29146.69
512.34	29212.23
512.51	29668.63
512.69	29727.14
512.86	29509.47
513.04	30038.44
513.21	30197.59
513.38	30178.87
513.56	29975.24
513.73	29890.98
513.90	30377.81
514.08	30029.07
514.25	30263.13
514.43	30621.23
514.60	30331.00
514.77	30595.48
514.95	30536.97
515.12	30513.56
515.29	31016.78
515.47	30670.38
515.64	31096.36
515.81	30976.99
515.99	31094.02
516.16	30979.33
516.33	30888.05
516.51	31239.13
516.68	30871.67
516.85	30728.89
517.03	30988.69
517.20	31140.83
517.37	31257.85
517.54	31431.05
517.72	31269.56
517.89	31234.45
518.06	31454.46
518.24	31548.08
518.41	31697.88
518.58	31683.83
518.75	31477.86
518.93	31887.46
519.10	31978.74
519.27	32105.13
519.45	31950.65
519.62	32149.60
519.79	32685.58
519.96	32594.30
520.14	32692.60
520.31	32144.92
520.48	32673.88
520.65	32627.07
520.83	32425.78
521.00	32730.05
521.17	32842.40
521.34	32919.63
521.52	32870.48
521.69	32767.50
521.86	33542.22
522.03	33493.07
522.20	33621.80
522.38	33516.47
522.55	33668.61
522.72	33731.80
522.89	33680.31
523.07	33663.93
523.24	33413.49
523.41	33785.63
523.58	33497.75
523.75	34000.96
523.92	33790.31
524.10	34272.46
524.27	34043.09
524.44	34321.62
524.61	33996.28
524.78	34445.66
524.96	34630.57
525.13	34719.51
525.30	35033.14
525.47	34628.23
525.64	34410.56
525.81	34831.85
525.98	34824.83
526.16	34511.20
526.33	34726.53
526.50	35346.77
526.67	34333.32
526.84	35363.15
527.01	34691.42
527.18	35000.37
527.36	34820.15
527.53	35180.59
527.70	35182.93
527.87	35487.20
528.04	34897.39
528.21	35805.52
528.38	35569.12
528.55	35768.07
528.72	35594.87
528.89	35543.38
529.07	35800.83
529.24	35299.96
529.41	35264.85
529.58	35896.80
529.75	35882.75
529.92	36077.02
530.09	35718.92
530.26	36400.01
530.43	36224.47
530.60	36128.51
530.77	36552.15
530.94	36542.78
531.11	36112.13
531.28	36587.25
531.46	36500.65
531.63	36294.69
531.80	36648.11
531.97	36519.38
532.14	36643.43
532.31	36322.77
532.48	36376.61
532.65	36503.00
532.82	36533.42
532.99	36835.35
533.16	36601.30
533.33	36814.29
533.50	37083.45
533.67	36980.46
533.84	37031.96
534.01	37118.56
534.18	37141.96
534.35	37584.32
534.52	36783.86
534.69	37305.80
534.86	37621.77
535.03	37214.52
535.20	37581.98
535.37	37584.32
535.54	37752.84
535.71	37769.22
535.88	37673.26
536.05	38000.94
536.22	38078.18
536.38	38167.12
536.55	37811.35
536.72	38300.53
536.89	37287.07
537.06	37603.05
537.23	37816.04
537.40	37654.54
537.57	37778.59
537.74	38033.71
537.91	38305.21
538.08	37942.42
538.25	38000.94
538.42	38644.59
538.59	38588.41
538.75	38223.29
538.92	38134.35
539.09	38401.17
539.26	38852.89
539.43	38590.75
539.60	38628.20
539.77	38361.38
539.94	38696.08
540.11	38740.55
540.28	38649.27
540.44	38714.80
540.61	38583.73
540.78	38555.64
540.95	38637.56
541.12	38831.83
541.29	38562.67
541.46	38944.17
541.62	38948.85
541.79	39058.86
541.96	38492.45
542.13	38773.31
542.30	39042.48
542.47	39377.17
542.63	39328.02
542.80	39592.50
542.97	39445.05
543.14	40011.46
543.31	39779.74
543.48	39524.63
543.64	40105.08
543.81	39924.86
543.98	40142.53
544.15	39798.47
544.32	39978.69
544.48	40088.70
544.65	40037.20
544.82	39686.12
544.99	39917.84
545.16	39868.69
545.32	39697.83
545.49	40545.10
545.66	40505.31
545.83	40172.96
546.00	40233.81
546.16	40037.20
546.33	40472.54
546.50	40336.79
546.67	40463.18
546.83	40069.97
547.00	40437.44
547.17	40566.16
547.34	40236.15
547.50	40507.65
547.67	41083.42
547.84	40594.25
548.00	40694.89
548.17	40940.65
548.34	41020.23
548.51	41750.48
548.67	41141.94
548.84	40734.68
549.01	40797.88
549.18	40999.16
549.34	40797.88
549.51	41340.88
549.68	41516.42
549.84	41013.21
550.01	41493.02
550.18	41069.38
550.34	41324.50
550.51	41092.79
550.68	40823.62
550.84	41249.60
551.01	41301.09
551.18	41532.81
551.34	41380.67
551.51	41207.47
551.68	41336.20
551.84	41390.03
552.01	41092.79
552.18	41462.59
552.34	41310.46
552.51	41734.09
552.68	41514.08
552.84	41570.25
553.01	42209.22
553.18	41488.34
553.34	41766.86
553.51	41324.50
553.67	41907.29
553.84	42108.58
554.01	42050.06
554.17	42040.70
554.34	42204.54
554.51	42419.87
554.67	42146.03
554.84	41890.91
555.00	41916.65
555.17	42000.91
555.33	41958.78
555.50	42293.48
555.67	42185.82
555.83	42232.63
556.00	42148.37
556.16	42745.20
556.33	42195.18
556.50	41940.06
556.66	42522.85
556.83	42150.71
556.99	42368.38
557.16	42363.70
557.32	42637.54
557.49	42742.86
557.65	42120.28
557.82	42239.65
557.98	42167.09
558.15	42333.27
558.32	42658.60
558.48	42721.80
558.65	42494.77
558.81	42583.71
558.98	42309.86
559.14	42536.90
559.31	42663.28
559.47	42508.81
559.64	42651.58
559.80	42988.62
559.97	42925.42
560.13	42572.00
560.30	42855.21
560.46	42815.42
560.63	42527.53
560.79	42972.24
560.96	43316.29
561.12	43098.62
561.29	43257.78
561.45	43164.16
561.61	43075.22
561.78	43388.85
561.94	42918.40
562.11	43620.56
562.27	43070.54
562.44	43091.60
562.60	43377.15
562.77	43035.43
562.93	43187.56
563.10	43115.01
563.26	42593.07
563.42	43349.06
563.59	43199.27
563.75	42955.85
563.92	43438.00
564.08	42878.61
564.24	43072.88
564.41	42852.87
564.57	43257.78
564.74	42951.17
564.90	43154.80
565.07	43517.58
565.23	43325.66
565.39	43021.39
565.56	43117.35
565.72	43498.86
565.88	43538.65
566.05	43222.67
566.21	43084.58
566.38	43274.16
566.54	43358.42
566.70	43456.73
566.87	43660.35
567.03	43351.40
567.19	43707.16
567.36	43564.39
567.52	42885.64
567.68	43739.93
567.85	43681.42
568.01	43615.88
568.17	43374.81
568.34	43557.37
568.50	43510.56
568.66	43503.54
568.83	43648.65
568.99	43964.62
569.15	43477.79
569.32	43299.91
569.48	43426.30
569.64	43704.82
569.81	43686.10
569.97	43597.16
570.13	43779.72
570.30	43229.69
570.46	43304.59
570.62	43517.58
570.78	43325.66
570.95	43564.39
571.11	43887.39
571.27	43393.53
571.43	43482.47
571.60	43938.88
571.76	43519.92
571.92	43599.50
572.09	43578.43
572.25	43468.43
572.41	43643.97
572.57	43814.83
572.74	44245.49
572.90	43725.89
573.06	43611.20
573.22	44109.74
573.38	44041.86
573.55	43709.50
573.71	43835.89
573.87	43363.11
574.03	43814.83
574.20	43817.17
574.36	43660.35
574.52	43688.44
574.68	43775.04
574.84	43775.04
575.01	43863.98
575.17	43503.54
575.33	43697.80
575.49	43484.81
575.65	44098.03
575.82	44002.07
575.98	43583.12
576.14	44526.35
576.30	43824.19
576.46	43742.27
576.62	43922.49
576.79	43924.83
576.95	43173.52
577.11	44182.29
577.27	44264.21
577.43	44020.80
577.59	44051.22
577.75	43997.39
577.92	43761.00
578.08	43901.43
578.24	43569.07
578.40	44053.56
578.56	44240.81
578.72	43810.15
578.88	44390.60
579.04	44247.83
579.21	43896.75
579.37	43796.10
579.53	43510.56
579.69	43728.23
579.85	43693.12
580.01	44126.12
580.17	44053.56
580.33	44203.36
580.49	44156.55
580.65	44299.32
580.82	44285.28
580.98	43540.99
581.14	43835.89
581.30	44299.32
581.46	44659.76
581.62	44418.69
581.78	43812.49
581.94	44264.21
582.10	43826.53
582.26	44076.97
582.42	44004.41
582.58	43770.36
582.74	44306.34
582.90	43952.92
583.06	43917.81
583.22	44268.89
583.38	44552.10
583.54	44135.48
583.70	44076.97
583.86	44109.74
584.02	43833.55
584.18	43978.67
584.34	44098.03
584.50	44327.41
584.66	44039.52
584.82	43753.97
584.98	44329.75
585.14	44114.42
585.30	44360.17
585.46	44060.58
585.62	43697.80
585.78	44458.48
585.94	43952.92
586.10	44009.09
586.26	43821.85
586.42	44509.97
586.58	44601.25
586.74	44062.93
586.90	43878.02
587.06	43936.54
587.22	44343.79
587.38	43929.51
587.54	44182.29
587.70	44573.16
587.86	44519.33
588.02	44294.64
588.18	44362.51
588.34	44002.07
588.49	43597.16
588.65	43950.58
588.81	44222.08
588.97	43938.88
589.13	43927.17
589.29	44072.29
589.45	44481.88
589.61	44383.58
589.77	44460.82
589.93	44369.54
590.08	44463.16
590.24	44498.26
590.40	44376.56
590.56	44261.87
590.72	44252.51
590.88	44261.87
591.04	44296.98
591.20	44425.71
591.35	44526.35
591.51	44935.95
591.67	44470.18
591.83	44641.04
591.99	44388.26
592.15	44280.60
592.31	44416.35
592.46	44086.33
592.62	44353.15
592.78	44430.39
592.94	44629.34
593.10	44158.89
593.26	44566.14
593.41	44196.34
593.57	44353.15
593.73	44177.61
593.89	44713.59
594.05	44081.65
594.20	44432.73
594.36	44793.17
594.52	44437.41
594.68	44304.00
594.84	44208.04
594.99	45144.25
595.15	44409.32
595.31	44406.98
595.47	44786.15
595.62	44371.88
595.78	44383.58
595.94	44898.50
596.10	44692.53
596.25	44470.18
596.41	44676.15
596.57	44776.79
596.73	44987.44
596.88	44282.94
597.04	44495.92
597.20	44542.74
597.36	44823.60
597.51	44788.49
597.67	44547.42
597.83	44442.09
597.99	44666.78
598.14	44687.85
598.30	44610.61
598.46	44701.89
598.61	44758.06
598.77	44025.48
598.93	44332.09
599.09	44266.55
599.24	45191.06
599.40	44725.30
599.56	44980.42
599.71	44872.75
599.87	45153.62
600.03	44875.09
600.18	44577.84
600.34	44830.62
600.50	44928.92
600.65	44514.65
600.81	44973.39
600.97	44933.60
601.12	45308.09
601.28	45071.70
601.44	44449.11
601.59	44868.07
601.75	44554.44
601.91	44322.72
602.06	44641.04
602.22	44940.63
602.37	44692.53
602.53	44748.70
602.69	44664.44
602.84	44395.28
603.00	44252.51
603.16	44374.22
603.31	44641.04
603.47	44559.12
603.62	44416.35
603.78	44575.50
603.94	44814.24
604.09	44910.20
604.25	45095.10
604.40	44552.10
604.56	44547.42
604.71	45125.53
604.87	44294.64
605.03	44603.59
605.18	43917.81
605.34	44755.72
605.49	44594.23
605.65	44706.57
605.80	44893.82
605.96	44697.21
606.12	44402.30
606.27	44980.42
606.43	44369.54
606.58	44772.11
606.74	44435.07
606.89	44346.13
607.05	43938.88
607.20	44488.90
607.36	44306.34
607.51	44519.33
607.67	44605.93
607.82	44055.90
607.98	44280.60
608.13	44795.51
608.29	44612.95
608.44	44114.42
608.60	43580.78
608.75	43828.87
608.91	43964.62
609.06	44086.33
609.22	44414.01
609.37	43873.34
609.53	44397.62
609.68	44348.47
609.84	44175.27
609.99	44217.40
610.15	44495.92
610.30	44025.48
610.46	44189.31
610.61	44311.02
610.76	43866.32
610.92	44250.17
611.07	44123.78
611.23	43831.21
611.38	43938.88
611.54	43871.00
611.69	44175.27
611.84	43938.88
612.00	44247.83
612.15	43725.89
612.31	44076.97
612.46	43707.16
612.62	43988.03
612.77	43344.38
612.92	44282.94
613.08	43751.63
613.23	43643.97
613.39	43714.19
613.54	43772.70
613.69	43653.33
613.85	43601.84
614.00	44051.22
614.15	44383.58
614.31	44231.44
614.46	44158.89
614.62	44030.16
614.77	43679.08
614.92	43653.33
615.08	43442.68
615.23	43463.75
615.38	43756.32
615.54	43285.87
615.69	43316.29
615.84	43150.12
616.00	43533.96
616.15	43484.81
616.30	43175.86
616.46	42920.74
616.61	43360.76
616.76	43566.73
616.92	42993.30
617.07	43271.82
617.22	42752.23
617.37	43070.54
617.53	43548.01
617.68	43599.50
617.83	43349.06
617.99	43323.32
618.14	43580.78
618.29	43222.67
618.45	42986.28
618.60	43435.66
618.75	42981.60
618.90	43248.42
619.06	43075.22
619.21	43367.79
619.36	43292.89
619.51	43086.92
619.67	42983.94
619.82	43084.58
619.97	43091.60
620.12	43042.45
620.28	42536.90
620.43	42342.63
620.58	43000.32
620.73	42927.77
620.89	42501.79
621.04	42876.27
621.19	42541.58
621.34	42649.24
621.49	42398.80
621.65	42454.98
621.80	42623.50
621.95	42490.09
622.10	42714.78
622.25	42527.53
622.41	42167.09
622.56	42178.79
622.71	42773.29
622.86	42550.94
623.01	42506.47
623.16	42366.04
623.32	42836.48
623.47	42239.65
623.62	42281.78
623.77	42295.82
623.92	42391.78
624.07	42342.63
624.23	42080.49
624.38	42206.88
624.53	41528.13
624.68	41928.36
624.83	42473.70
624.98	41839.42
625.13	41818.35
625.29	42003.25
625.44	42361.36
625.59	41504.72
625.74	42000.91
625.89	41366.63
626.04	41404.08
626.19	42253.69
626.34	41818.35
626.49	42007.94
626.65	41364.29
626.80	41904.95
626.95	41486.00
627.10	41769.20
627.25	41476.63
627.40	41612.38
627.55	41457.91
627.70	40823.62
627.85	41574.94
628.00	41366.63
628.15	42213.90
628.30	41301.09
628.45	41614.72
628.60	41294.07
628.76	41783.24
628.91	41834.74
629.06	41642.81
629.21	41703.67
629.36	41310.46
629.51	41270.67
629.66	41097.47
629.81	40753.41
629.96	41230.88
630.11	41235.56
630.26	41722.39
630.41	41696.64
630.56	41319.82
630.71	41436.84
630.86	41322.16
631.01	41347.90
631.16	41102.15
631.31	40982.78
631.46	40568.51
631.61	41132.57
631.76	41053.00
631.91	41053.00
632.06	40919.59
632.21	41024.91
632.36	41420.46
632.51	40751.07
632.66	41340.88
632.81	40425.73
632.96	40622.34
633.10	40699.58
633.25	40502.97
633.40	40268.92
633.55	41256.62
633.70	40605.95
633.85	40648.08
634.00	40708.94
634.15	40212.74
634.30	40210.40
634.45	40133.17
634.60	40222.11
634.75	40610.64
634.90	40708.94
635.05	40318.07
635.19	40299.34
635.34	40629.36
635.49	40140.19
635.64	40430.41
635.79	39697.83
635.94	39995.07
636.09	40545.10
636.24	40198.70
636.39	39732.93
636.53	40116.78
636.68	40034.86
636.83	40037.20
636.98	40542.76
637.13	39639.31
637.28	39845.28
637.43	40044.23
637.57	40308.71
637.72	40020.82
637.87	40013.80
638.02	39634.63
638.17	39784.43
638.32	39475.48
638.46	39761.02
638.61	39817.19
638.76	39370.15
638.91	39393.56
639.06	39629.95
639.20	39681.44
639.35	39564.42
639.50	39536.33
639.65	40011.46
639.80	39739.96
639.94	39613.57
640.09	39295.25
640.24	39468.45
640.39	39285.89
640.54	39278.87
640.68	39487.18
640.83	39548.03
640.98	39428.66
641.13	38998.01
641.27	39913.16
641.42	39412.28
641.57	39665.06
641.72	39276.53
641.86	39051.84
642.01	38904.38
642.16	39171.21
642.31	38897.36
642.45	39023.75
642.60	38487.77
642.75	39108.01
642.90	38888.00
643.04	38752.25
643.19	39084.61
643.34	39112.69
643.48	38522.88
643.63	39005.03
643.78	38738.21
643.93	38607.14
644.07	38756.93
644.22	38831.83
644.37	38614.16
644.51	38637.56
644.66	38733.53
644.81	39014.39
644.95	39058.86
645.10	38614.16
645.25	39283.55
645.39	38756.93
645.54	38731.18
645.69	38403.51
645.83	38274.78
645.98	38305.21
646.13	38625.86
646.27	38667.99
646.42	38323.93
646.57	38848.21
646.71	38412.87
646.86	38602.46
647.00	38660.97
647.15	38588.41
647.30	38433.94
647.44	38560.33
647.59	38480.75
647.74	37968.17
647.88	38246.69
648.03	38321.59
648.17	38148.39
648.32	38286.48
648.47	38073.49
648.61	38150.73
648.76	38218.61
648.90	38518.20
649.05	38199.88
649.20	38265.42
649.34	38220.95
649.49	38251.38
649.63	38117.96
649.78	38129.67
649.92	37881.57
650.07	38202.22
650.21	37792.63
650.36	37944.76
650.51	38005.62
650.65	38328.61
650.80	38232.65
650.94	38394.15
651.09	37874.55
651.23	37844.12
651.38	37497.72
651.52	37827.74
651.67	37771.57
651.81	37628.79
651.96	37614.75
652.10	37764.54
652.25	37333.89
652.39	37420.48
652.54	37174.73
652.68	37617.09
652.83	37663.90
652.97	37851.14
653.12	37598.37
653.26	36903.23
653.41	37308.14
653.55	37392.40
653.70	37350.27
653.84	37315.16
653.99	37099.83
654.13	37352.61
654.27	37258.99
654.42	37188.77
654.56	37617.09
654.71	37163.03
654.85	37453.25
655.00	37085.79
655.14	37017.91
655.29	36638.75
655.43	36828.33
655.57	36816.63
655.72	37188.77
655.86	37027.28
656.01	36723.01
656.15	36830.67
656.30	36510.02
656.44	36608.32
656.58	36840.03
656.73	36533.42
656.87	36545.12
657.01	36371.92
657.16	36718.32
657.30	36254.90
657.45	36519.38
657.59	36301.71
657.73	36444.48
657.88	36753.43
658.02	36306.39
658.16	36692.58
658.31	36659.81
658.45	36697.26
658.60	36285.33
658.74	36519.38
658.88	36512.36
659.03	36191.70
659.17	36027.87
659.31	36210.43
659.46	36196.38
659.60	35702.53
659.74	35985.74
659.89	35887.43
660.03	35517.63
660.17	35941.27
660.32	35718.92
660.46	36194.04
660.60	35873.39
660.74	36044.25
660.89	36151.91
661.03	35470.82
661.17	35620.61
661.32	35000.37
661.46	35409.96
661.60	35192.30
661.74	35314.00
661.89	35201.66
662.03	35487.20
662.17	35206.34
662.31	35262.51
662.46	35058.88
662.60	35463.80
662.74	35042.50
662.88	35164.21
663.03	35033.14
663.17	35033.14
663.31	34607.16
663.45	34803.77
663.60	35096.33
663.74	35061.22
663.88	34595.46
664.02	34838.87
664.17	34986.33
664.31	34249.06
664.45	34384.81
664.59	34586.10
664.73	34361.40
664.88	34707.80
665.02	34209.27
665.16	34602.48
665.30	34359.06
665.44	34246.72
665.59	33694.35
665.73	33675.63
665.87	33647.54
666.01	33816.06
666.15	34024.37
666.29	33586.69
666.44	34251.40
666.58	33944.79
666.72	33394.76
666.86	34209.27
667.00	33923.72
667.14	33909.68
667.28	33633.50
667.43	33312.84
667.57	33167.73
667.71	33406.47
667.85	33134.96
667.99	33488.38
668.13	33200.50
668.27	33343.27
668.41	33123.26
668.56	32879.85
668.70	33301.14
668.84	32545.15
668.98	32624.73
669.12	33280.08
669.26	33001.55
669.40	32900.91
669.54	32606.00
669.68	32926.66
669.82	32638.77
669.96	32360.25
670.10	32561.53
670.25	32879.85
670.39	32868.14
670.53	32622.39
670.67	31924.91
670.81	32315.78
670.95	32414.08
671.09	32163.64
671.23	32297.05
671.37	32350.88
671.51	32034.91
671.65	31864.05
671.79	32009.17
671.93	31491.91
672.07	31885.12
672.21	31917.89
672.35	31590.21
672.49	31967.04
672.63	31812.56
672.77	31962.36
672.91	31232.11
673.05	31555.10
673.19	31026.14
673.33	30951.24
673.47	30864.64
673.61	30876.35
673.75	30827.20
673.89	30808.47
674.03	30754.64
674.17	30590.80
674.31	30944.22
674.45	30794.43
674.59	30691.44
674.73	30974.65
674.87	30298.23
675.01	30422.28
675.15	30803.79
675.29	30551.01
675.43	30501.86
675.56	30157.80
675.70	29780.98
675.84	29776.30
675.98	28814.34
676.12	29771.61
676.26	30103.97
676.40	29575.01
676.54	29261.38
676.68	29675.65
676.82	29039.03
676.96	29392.45
677.10	28849.44
677.23	28978.17
677.37	29355.00
677.51	29116.26
677.65	28936.04
677.79	28821.36
677.93	28634.11
678.07	28444.53
678.21	28575.60
678.34	28219.84
678.48	28418.78
678.62	28610.71
678.76	28102.81
678.90	28442.19
679.04	28364.95
679.18	28283.03
679.31	27747.05
679.45	27784.50
679.59	27414.69
679.73	27426.40
679.87	27262.56
680.00	27592.58
680.14	27096.38
680.28	27786.84
680.42	27562.15
680.56	27026.17
680.70	27201.71
680.83	27007.44
680.97	26888.07
681.11	26759.34
681.25	26609.55
681.39	26719.56
681.52	27016.80
681.66	26452.73
681.80	26429.33
681.94	26132.08
682.07	26434.01
682.21	26263.15
682.35	26043.14
682.49	26513.59
682.62	26061.87
682.76	25582.06
682.90	25645.25
683.04	25710.78
683.17	25858.24
683.31	25123.31
683.45	26043.14
683.59	25539.93
683.72	25385.45
683.86	24929.05
684.00	25041.39
684.13	25050.75
684.27	25455.67
684.41	24830.74
684.55	24954.79
684.68	24650.52
684.82	24486.68
684.96	24194.12
685.09	24348.59
685.23	24306.46
685.37	24203.48
685.50	24718.40
685.64	24449.24
685.78	23939.00
685.91	23768.14
686.05	24056.03
686.19	23403.02
686.32	23744.73
686.46	23049.60
686.60	23353.87
686.73	23185.35
686.87	23531.75
687.01	23337.48
687.14	22906.82
687.28	23042.57
687.42	23201.73
687.55	22778.09
687.69	22724.26
687.82	22932.57
687.96	22857.67
688.10	22824.90
688.23	22438.72
688.37	22429.35
688.50	22237.43
688.64	22380.20
688.78	22047.85
688.91	21937.84
689.05	22104.02
689.18	22195.30
689.32	21493.14
689.46	21507.18
689.59	21951.88
689.73	21895.71
689.86	21694.43
690.00	21558.67
690.13	21549.31
690.27	21310.58
690.41	21406.54
690.54	21062.48
690.68	20924.39
690.81	20886.94
690.95	20767.57
691.08	20538.20
691.22	20528.84
691.35	20776.94
691.49	20592.03
691.62	20854.17
691.76	20680.97
691.89	20659.91
692.03	20266.70
692.16	20002.22
692.30	20013.92
692.43	19756.46
692.57	19873.49
692.70	19880.51
692.84	19922.64
692.97	19861.79
693.11	19655.82
693.24	19496.66
693.38	19470.92
693.51	19002.81
693.65	19421.77
693.78	19356.23
693.92	19363.25
694.05	19246.23
694.19	18977.06
694.32	18806.20
694.45	19133.88
694.59	18977.06
694.72	18803.86
694.86	18979.40
694.99	18590.88
695.13	18471.51
695.26	18363.84
695.39	18031.49
695.53	18363.84
695.66	18099.36
695.80	18513.64
695.93	17884.03
696.07	18104.04
696.20	18155.54
696.33	17869.99
696.47	17937.87
696.60	17841.90
696.73	17673.39
696.87	17401.88
697.00	17600.83
697.14	17448.69
697.27	17432.31
697.40	17474.44
697.54	17144.42
697.67	17123.36
697.80	17348.05
697.94	16987.61
698.07	16999.31
698.21	16901.01
698.34	16901.01
698.47	16730.15
698.61	16521.84
698.74	16561.63
698.87	16493.76
699.01	16388.43
699.14	16147.36
699.27	16205.87
699.40	16198.85
699.54	15667.55
699.67	16049.05
699.80	15824.36
699.94	15796.28
700.07	15908.62
700.20	15847.77
700.34	15597.33
700.47	15602.01
700.60	15721.38
700.73	15822.02
700.87	15658.18
701.00	15606.69
701.13	15367.96
701.26	15318.81
701.40	15489.67
701.53	15211.14
701.66	15222.84
701.79	14946.66
701.93	15197.10
702.06	14700.90
702.19	14836.66
702.32	14672.82
702.46	14637.71
702.59	14562.81
702.72	14780.48
702.85	14696.22
702.99	14541.75
703.12	14420.04
703.25	14593.24
703.38	14656.43
703.51	14265.57
703.65	14242.16
703.78	14153.22
703.91	13820.86
704.04	13970.66
704.17	14045.55
704.31	13771.71
704.44	13458.08
704.57	13544.68
704.70	13350.42
704.83	13525.96
704.96	13804.48
705.10	13586.81
705.23	13748.31
>>>>>End Processed Spectral Data<<<<<
