SpectraSuite Data File
++++++++++++++++++++++++++++++++++++
Date: Fri Oct 25 10:43:32 EDT 2013
User: price-jones
Dark Spectrum Present: No
Reference Spectrum Present: No
Number of Sampled Component Spectra: 1
Spectrometers: USB2+H05261
Integration Time (usec): 100000 (USB2+H05261)
Spectra Averaged: 1 (USB2+H05261)
Boxcar Smoothing: 0 (USB2+H05261)
Correct for Electrical Dark: No (USB2+H05261)
Strobe/Lamp Enabled: No (USB2+H05261)
Correct for Detector Non-linearity: No (USB2+H05261)
Correct for Stray Light: No (USB2+H05261)
Number of Pixels in Processed Spectrum: 2048
>>>>>Begin Processed Spectral Data<<<<<
365.73	126.39
365.92	126.39
366.12	126.39
366.32	67.88
366.52	0.00
366.72	0.00
366.91	7.02
367.11	21.06
367.31	0.00
367.51	58.51
367.70	32.77
367.90	81.92
368.10	0.00
368.30	0.00
368.49	39.79
368.69	65.54
368.89	67.88
369.09	72.56
369.28	98.30
369.48	7.02
369.68	42.13
369.87	84.26
370.07	63.19
370.27	187.24
370.47	252.78
370.66	418.96
370.86	482.15
371.06	397.89
371.25	461.09
371.45	437.68
371.65	458.74
371.84	411.93
372.04	435.34
372.24	503.22
372.44	519.60
372.63	510.24
372.83	503.22
373.03	479.81
373.22	528.96
373.42	486.83
373.62	524.28
373.81	561.73
374.01	601.52
374.21	528.96
374.40	498.53
374.60	568.75
374.79	498.53
374.99	559.39
375.19	601.52
375.38	526.62
375.58	505.56
375.78	660.03
375.97	585.13
376.17	559.39
376.37	648.33
376.56	592.16
376.76	573.43
376.95	533.64
377.15	545.34
377.35	697.48
377.54	669.39
377.74	634.29
377.93	636.63
378.13	645.99
378.33	631.94
378.52	557.05
378.72	699.82
378.91	603.86
379.11	613.22
379.31	608.54
379.50	627.26
379.70	681.10
379.89	653.01
380.09	622.58
380.28	641.31
380.48	650.67
380.68	683.44
380.87	631.94
381.07	744.29
381.26	711.52
381.46	641.31
381.65	739.61
381.85	676.41
382.04	650.67
382.24	716.20
382.43	720.88
382.63	739.61
382.83	629.60
383.02	739.61
383.22	767.70
383.41	641.31
383.61	681.10
383.80	781.74
384.00	741.95
384.19	777.06
384.39	774.72
384.58	683.44
384.78	755.99
384.97	847.27
385.17	716.20
385.36	795.78
385.56	830.89
385.75	767.70
385.95	861.32
386.14	791.10
386.34	819.19
386.53	880.04
386.72	844.93
386.92	884.72
387.11	912.81
387.31	828.55
387.50	929.19
387.70	884.72
387.89	891.74
388.09	856.64
388.28	856.64
388.48	844.93
388.67	929.19
388.86	910.47
389.06	952.60
389.25	929.19
389.45	1006.43
389.64	990.05
389.84	954.94
390.03	957.28
390.22	959.62
390.42	936.21
390.61	1095.37
390.81	971.32
391.00	987.71
391.19	1076.65
391.39	940.90
391.58	1006.43
391.78	954.94
391.97	1001.75
392.16	926.85
392.36	999.41
392.55	1001.75
392.75	1004.09
392.94	976.00
393.13	1015.79
393.33	1004.09
393.52	1050.90
393.71	1146.86
393.91	1121.12
394.10	1076.65
394.29	1116.44
394.49	1139.84
394.68	1158.57
394.88	1207.72
395.07	1254.53
395.26	1306.02
395.46	1233.46
395.65	1240.48
395.84	1095.37
396.04	1207.72
396.23	1177.29
396.42	1172.61
396.62	1043.88
396.81	1198.35
397.00	1296.66
397.19	1266.23
397.39	1268.57
397.58	1394.96
397.77	1345.81
397.97	1406.66
398.16	1441.77
398.35	1462.83
398.55	1605.61
398.74	1486.24
398.93	1540.07
399.12	1434.75
399.32	1469.86
399.51	1446.45
399.70	1570.50
399.90	1460.49
400.09	1540.07
400.28	1511.99
400.47	1476.88
400.67	1673.48
400.86	1636.03
401.05	1661.78
401.24	1664.12
401.44	1661.78
401.63	1699.23
401.82	1687.53
402.01	1706.25
402.21	1708.59
402.40	1743.70
402.59	1715.61
402.78	1746.04
402.97	1619.65
403.17	1706.25
403.36	1729.66
403.55	1816.26
403.74	1806.89
403.93	1753.06
404.13	1823.28
404.32	1837.32
404.51	1842.00
404.70	1998.82
404.89	1832.64
405.09	1905.20
405.28	1987.11
405.47	1968.39
405.66	1895.83
405.85	2026.90
406.05	1935.62
406.24	2064.35
406.43	1966.05
406.62	2005.84
406.81	2139.25
407.00	2019.88
407.20	2031.58
407.39	2101.80
407.58	2162.66
407.77	2036.27
407.96	2169.68
408.15	2165.00
408.34	2167.34
408.54	2249.25
408.73	2377.98
408.92	2260.96
409.11	2373.30
409.30	2246.91
409.49	2310.11
409.68	2249.25
409.87	2258.62
410.07	2324.15
410.26	2307.77
410.45	2415.43
410.64	2420.11
410.83	2471.61
411.02	2457.56
411.21	2497.35
411.40	2551.18
411.59	2621.40
411.78	2605.02
411.98	2597.99
412.17	2640.12
412.36	2654.17
412.55	2698.64
412.74	2677.57
412.93	2813.32
413.12	2710.34
413.31	2904.60
413.50	2773.53
413.69	2775.88
413.88	2895.24
414.07	2810.98
414.26	2892.90
414.45	2869.50
414.64	2874.18
414.83	3040.36
415.02	2979.50
415.22	3038.02
415.41	3098.87
415.60	3164.40
415.79	3225.26
415.98	3122.27
416.17	3243.98
416.36	3108.23
416.55	3187.81
416.74	3279.09
416.93	3187.81
417.12	3307.18
417.31	3274.41
417.50	3382.07
417.69	3276.75
417.88	3398.46
418.07	3431.23
418.26	3424.20
418.45	3583.36
418.64	3552.93
418.83	3602.08
419.02	3527.19
419.21	3538.89
419.39	3499.10
419.58	3559.95
419.77	3548.25
419.96	3721.45
420.15	3609.11
420.34	3660.60
420.53	3606.77
420.72	3728.47
420.91	3779.97
421.10	3761.24
421.29	3840.82
421.48	3810.39
421.67	3808.05
421.86	3735.50
422.05	3840.82
422.24	3719.11
422.43	3765.92
422.61	3735.50
422.80	3836.14
422.99	3962.53
423.18	3852.52
423.37	3936.78
423.56	3817.41
423.75	3878.27
423.94	3854.86
424.13	3529.53
424.32	3674.64
424.50	3955.51
424.69	3925.08
424.88	4009.34
425.07	3850.18
425.26	3957.85
425.45	3822.09
425.64	3997.64
425.83	3948.48
426.01	4011.68
426.20	3941.46
426.39	3925.08
426.58	3983.59
426.77	3875.93
426.96	3985.93
427.15	3985.93
427.33	4063.17
427.52	3978.91
427.71	4004.66
427.90	4154.45
428.09	4194.24
428.28	4245.73
428.46	4030.40
428.65	4194.24
428.84	4238.71
429.03	4053.81
429.22	4039.76
429.40	4138.07
429.59	4219.99
429.78	3859.54
429.97	3939.12
430.16	4058.49
430.34	4170.83
430.53	4250.41
430.72	4264.46
430.91	4208.28
431.10	4344.03
431.28	4374.46
431.47	4695.11
431.66	4655.33
431.85	4458.72
432.03	4493.83
432.22	4564.04
432.41	4521.92
432.60	4709.16
432.79	4652.98
432.97	4809.80
433.16	4683.41
433.35	4648.30
433.54	4702.14
433.72	4697.46
433.91	4634.26
434.10	4798.10
434.28	4664.69
434.47	4919.81
434.66	4837.89
434.85	4957.25
435.03	4940.87
435.22	4800.44
435.41	5074.28
435.59	5090.67
435.78	5090.67
435.97	5137.48
436.16	4987.68
436.34	5107.05
436.53	5032.15
436.72	5245.14
436.90	5060.24
437.09	5212.37
437.28	5097.69
437.46	5172.58
437.65	5057.90
437.84	5205.35
438.02	5128.11
438.21	5188.97
438.40	5203.01
438.58	5273.23
438.77	5247.48
438.96	5455.79
439.14	5362.17
439.33	5633.67
439.52	5664.10
439.70	5596.22
439.89	5610.26
440.08	5689.84
440.26	5633.67
440.45	5781.12
440.63	5785.80
440.82	5998.79
441.01	5930.92
441.19	6033.90
441.38	6045.60
441.57	6054.97
441.75	6029.22
441.94	6125.18
442.12	6211.78
442.31	6242.21
442.50	6207.10
442.68	6076.03
442.87	6054.97
443.05	6179.01
443.24	6593.29
443.43	6410.73
443.61	6216.46
443.80	6502.01
443.98	6279.66
444.17	6190.72
444.35	6506.69
444.54	6506.69
444.73	6513.71
444.91	6356.90
445.10	6469.24
445.28	6305.40
445.47	6480.94
445.65	6478.60
445.84	6511.37
446.02	6476.26
446.21	6490.31
446.39	6537.12
446.58	6626.06
446.77	6614.35
446.95	6490.31
447.14	6698.61
447.32	6848.41
447.51	6710.32
447.69	6445.84
447.88	6548.82
448.06	6836.70
448.25	6766.49
448.43	6717.34
448.62	6740.74
448.80	6719.68
448.99	6698.61
449.17	6771.17
449.36	6658.82
449.54	6843.73
449.73	6958.41
449.91	7295.45
450.10	7007.56
450.28	7335.24
450.46	7250.98
450.65	7157.36
450.83	7133.95
451.02	7087.14
451.20	7239.28
451.39	7061.40
451.57	7176.08
451.76	6951.39
451.94	7190.13
452.13	7199.49
452.31	7258.00
452.49	7094.16
452.68	7215.87
452.86	7178.42
453.05	7269.70
453.23	7215.87
453.42	7262.68
453.60	7290.77
453.78	7309.49
453.97	7225.23
454.15	7398.43
454.34	7288.43
454.52	7552.91
454.70	7393.75
454.89	7330.56
455.07	7569.29
455.26	7581.00
455.44	7611.42
455.62	7719.09
455.81	7581.00
455.99	7522.48
456.17	7672.28
456.36	7817.39
456.54	7793.98
456.73	7988.25
456.91	7950.80
457.09	8105.28
457.28	8236.35
457.46	8086.55
457.64	8093.57
457.83	8060.80
458.01	8060.80
458.19	8107.62
458.38	8098.25
458.56	8149.75
458.74	8238.69
458.93	8145.06
459.11	8332.31
459.29	8177.83
459.48	8245.71
459.66	8395.50
459.84	8116.98
460.03	8451.67
460.21	8500.83
460.39	8475.08
460.57	8542.96
460.76	8603.81
460.94	8643.60
461.12	8482.10
461.31	8674.03
461.49	8652.96
461.67	8826.16
461.85	8676.37
462.04	8674.03
462.22	9125.75
462.40	8812.12
462.59	8982.98
462.77	8816.80
462.95	8898.72
463.13	8760.63
463.32	8868.29
463.50	8898.72
463.68	8929.14
463.86	8915.10
464.05	8631.90
464.23	8830.84
464.41	8901.06
464.59	8957.23
464.78	9191.28
464.96	8863.61
465.14	8964.25
465.32	9090.64
465.50	9291.93
465.69	9130.43
465.87	9336.40
466.05	9123.41
466.23	9193.62
466.41	9109.36
466.60	9425.34
466.78	8959.57
466.96	9160.86
467.14	9186.60
467.32	9305.97
467.51	9380.87
467.69	9151.49
467.87	9320.01
468.05	9277.88
468.23	9535.34
468.41	9383.21
468.60	9418.32
468.78	9635.99
468.96	9296.61
469.14	9720.24
469.32	9624.28
469.50	9430.02
469.69	9593.86
469.87	9465.13
470.05	9687.48
470.23	9727.27
470.41	9734.29
470.59	9811.53
470.77	9802.16
470.95	9753.01
471.14	10024.51
471.32	9685.14
471.50	10211.76
471.68	10300.70
471.86	10106.43
472.04	10305.38
472.22	10492.62
472.40	10073.67
472.58	10242.18
472.77	10209.42
472.95	10363.89
473.13	10773.49
473.31	10710.29
473.49	10637.73
473.67	10499.64
473.85	10656.46
474.03	10972.43
474.21	10878.81
474.39	10934.98
474.57	11171.38
474.75	11070.73
474.93	11143.29
475.12	10832.00
475.30	11042.65
475.48	10813.28
475.66	11246.27
475.84	11379.68
476.02	11426.50
476.20	11431.18
476.38	11585.65
476.56	11791.62
476.74	11798.64
476.92	11627.78
477.10	11932.05
477.28	12074.82
477.46	11964.82
477.64	12191.85
477.82	12585.06
478.00	12437.61
478.18	12578.04
478.36	12353.35
478.54	12776.98
478.72	12826.14
478.90	12844.86
479.08	13004.02
479.26	13071.89
479.44	13008.70
479.62	13018.06
479.80	13263.82
479.98	13303.60
480.16	13542.34
480.34	13624.26
480.52	13652.34
480.70	13839.59
480.88	13820.86
481.06	13818.52
481.24	13642.98
481.41	13940.23
481.59	14218.75
481.77	14450.47
481.95	14214.07
482.13	14581.54
482.31	14476.21
482.49	14736.01
482.67	14920.92
482.85	14731.33
483.03	14860.06
483.21	15293.06
483.39	15288.38
483.57	15143.27
483.74	15421.79
483.92	15461.58
484.10	15461.58
484.28	15569.24
484.46	15941.39
484.64	16365.03
484.82	15948.41
485.00	16093.52
485.18	16269.06
485.35	16039.69
485.53	15777.55
485.71	16161.40
485.89	16421.20
486.07	16081.82
486.25	16208.21
486.43	16748.87
486.61	16863.56
486.78	16893.99
486.96	17296.56
487.14	17542.32
487.32	17460.40
487.50	17685.09
487.68	17982.34
487.85	18239.79
488.03	18150.85
488.21	18445.76
488.39	18497.25
488.57	18616.62
488.75	18731.31
488.92	18895.14
489.10	18853.02
489.28	19562.20
489.46	19133.88
489.64	19377.30
489.81	20191.80
489.99	19927.32
490.17	20093.50
490.35	20386.07
490.53	20121.59
490.70	20290.10
490.88	20283.08
491.06	20847.15
491.24	20690.34
491.41	20629.48
491.59	20332.23
491.77	20673.95
491.95	21025.03
492.13	21104.61
492.30	21242.70
492.48	21717.83
492.66	21387.82
492.84	21530.59
493.01	21652.30
493.19	21628.89
493.37	22001.04
493.54	21942.52
493.72	22335.73
493.90	22490.21
494.08	22663.41
494.25	23164.28
494.43	23253.22
494.61	23274.29
494.79	23337.48
494.96	23302.37
495.14	23171.30
495.32	23807.93
495.49	23627.71
495.67	23583.24
495.85	23824.31
496.02	24175.39
496.20	24142.63
496.38	24360.30
496.55	24109.86
496.73	24847.13
496.91	24500.73
497.09	24687.97
497.26	24858.83
497.44	24849.47
497.62	25156.08
497.79	24910.32
497.97	24842.45
498.14	25364.39
498.32	25411.20
498.50	25376.09
498.67	25881.64
498.85	25823.13
499.03	26214.00
499.20	25984.63
499.38	25858.24
499.56	26026.76
499.73	26286.56
499.91	26253.79
500.08	26192.94
500.26	26749.98
500.44	26651.68
500.61	26398.90
500.79	26328.69
500.97	26548.70
501.14	27145.53
501.32	26696.15
501.49	27051.91
501.67	27110.43
501.84	27508.32
502.02	27014.46
502.20	27508.32
502.37	27505.98
502.55	27260.22
502.72	27831.31
502.90	27812.59
503.07	28196.43
503.25	27770.46
503.43	28102.81
503.60	27971.74
503.78	27887.48
503.95	28112.17
504.13	28528.79
504.30	28505.38
504.48	28428.15
504.65	28505.38
504.83	28917.32
505.01	28945.41
505.18	28875.19
505.36	29418.19
505.53	29404.15
505.71	29048.39
505.88	29677.99
506.06	29315.21
506.23	29830.13
506.41	29312.87
506.58	29577.35
506.76	29591.39
506.93	29982.26
507.11	29661.61
507.28	29560.97
507.46	29914.39
507.63	29509.47
507.81	29905.02
507.98	29685.01
508.16	30225.68
508.33	30396.54
508.50	30497.18
508.68	30576.76
508.85	30967.63
509.03	30349.73
509.20	31115.08
509.38	31000.40
509.55	31133.81
509.73	30792.09
509.90	31133.81
510.08	31770.43
510.25	30979.33
510.42	31421.69
510.60	31395.95
510.77	31887.46
510.95	31814.90
511.12	31400.63
511.30	32041.93
511.47	32158.96
511.64	31950.65
511.82	32275.99
511.99	32313.44
512.17	32357.91
512.34	31807.88
512.51	32233.86
512.69	32416.42
512.86	32603.66
513.04	32610.68
513.21	32524.08
513.38	32601.32
513.56	32407.06
513.73	32645.79
513.90	32730.05
514.08	32690.26
514.25	32847.08
514.43	33029.64
514.60	33067.09
514.77	33036.66
514.95	33385.40
515.12	33373.70
515.29	33357.32
515.47	33467.32
515.64	33717.76
515.81	33481.36
515.99	33986.92
516.16	33755.21
516.33	33294.12
516.51	33207.52
516.68	33181.77
516.85	33256.67
517.03	33404.13
517.20	33762.23
517.37	33844.15
517.54	34396.51
517.72	34092.24
517.89	33968.19
518.06	33593.71
518.24	33780.95
518.41	33909.68
518.58	34223.31
518.75	34218.63
518.93	34508.86
519.10	34534.60
519.27	34431.62
519.45	34806.11
519.62	35344.43
519.79	35091.65
519.96	35040.16
520.14	35140.80
520.31	35241.45
520.48	35204.00
520.65	34834.19
520.83	35632.32
521.00	35648.70
521.17	35629.98
521.34	35849.99
521.52	35917.86
521.69	35828.92
521.86	35440.39
522.03	35566.78
522.20	35917.86
522.38	36016.16
522.55	36142.55
522.72	35704.87
522.89	36292.35
523.07	36357.88
523.24	36229.15
523.41	36797.90
523.58	36540.44
523.75	37214.52
523.92	37104.51
524.10	36847.05
524.27	37205.16
524.44	36847.05
524.61	37258.99
524.78	36858.76
524.96	36748.75
525.13	37254.31
525.30	37207.50
525.47	37322.18
525.64	37457.93
525.81	36999.19
525.98	37357.29
526.16	37326.86
526.33	36947.70
526.50	37364.31
526.67	36474.91
526.84	37144.30
527.01	36961.74
527.18	37670.92
527.36	37965.83
527.53	38082.86
527.70	38153.07
527.87	38394.15
528.04	38609.48
528.21	38174.14
528.38	38607.14
528.55	38663.31
528.72	38735.87
528.89	38895.02
529.07	38728.84
529.24	38600.12
529.41	38356.70
529.58	38361.38
529.75	38974.60
529.92	38857.57
530.09	38962.90
530.26	38873.96
530.43	39150.14
530.60	39035.45
530.77	38693.74
530.94	39089.29
531.11	39164.18
531.28	39005.03
531.46	39227.38
531.63	38983.96
531.80	39051.84
531.97	38902.04
532.14	38880.98
532.31	38637.56
532.48	39325.68
532.65	39431.01
532.82	39189.93
532.99	38990.98
533.16	39608.89
533.33	39700.17
533.50	40236.15
533.67	39622.93
533.84	39702.51
534.01	39491.86
534.18	39412.28
534.35	40240.83
534.52	39931.88
534.69	40517.01
534.86	40612.98
535.03	39878.05
535.20	40357.86
535.37	40231.47
535.54	40762.77
535.71	40924.27
535.88	40425.73
536.05	40179.98
536.22	40421.05
536.38	40538.08
536.55	40601.27
536.72	40292.32
536.89	40348.50
537.06	40556.80
537.23	40889.16
537.40	40868.09
537.57	40971.08
537.74	41092.79
537.91	41123.21
538.08	41010.87
538.25	40542.76
538.42	40935.97
538.59	41013.21
538.75	40886.82
538.92	40610.64
539.09	40982.78
539.26	41467.27
539.43	41265.99
539.60	41200.45
539.77	40697.24
539.94	41263.64
540.11	40823.62
540.28	41359.61
540.44	41530.47
540.61	41429.82
540.78	40996.82
540.95	41294.07
541.12	41118.53
541.29	41228.54
541.46	41713.03
541.62	41907.29
541.79	41918.99
541.96	41647.49
542.13	41539.83
542.30	41776.22
542.47	41614.72
542.63	41687.28
542.80	41923.68
542.97	42078.15
543.14	42579.03
543.31	42789.67
543.48	42396.46
543.64	43082.24
543.81	42731.16
543.98	42707.76
544.15	42340.29
544.32	42445.62
544.48	42834.14
544.65	42735.84
544.82	42649.24
544.99	42525.19
545.16	42801.38
545.32	42539.24
545.49	42799.04
545.66	43051.81
545.83	42724.14
546.00	42967.55
546.16	42450.30
546.33	42810.74
546.50	42763.93
546.67	43360.76
546.83	42644.56
547.00	43122.03
547.17	42721.80
547.34	43192.25
547.50	42848.19
547.67	43264.80
547.84	43154.80
548.00	43405.23
548.17	43529.28
548.34	43435.66
548.51	43360.76
548.67	43676.74
548.84	43761.00
549.01	43344.38
549.18	43079.90
549.34	43608.86
549.51	43459.07
549.68	43838.23
549.84	43648.65
550.01	43796.10
550.18	43620.56
550.34	43878.02
550.51	43522.26
550.68	43232.04
550.84	42969.90
551.01	43519.92
551.18	43374.81
551.34	43690.78
551.51	43922.49
551.68	44081.65
551.84	43927.17
552.01	44006.75
552.18	43910.79
552.34	43681.42
552.51	44311.02
552.68	44142.50
552.84	43676.74
553.01	43838.23
553.18	43948.24
553.34	43840.57
553.51	43962.28
553.67	44364.85
553.84	44474.86
554.01	44493.58
554.17	44282.94
554.34	44519.33
554.51	44294.64
554.67	44615.29
554.84	44250.17
555.00	44196.34
555.17	44734.66
555.33	44570.82
555.50	44442.09
555.67	44322.72
555.83	44650.40
556.00	44488.90
556.16	45102.12
556.33	44781.47
556.50	44641.04
556.66	44624.65
556.83	44603.59
556.99	44528.69
557.16	44664.44
557.32	44753.38
557.49	44498.26
557.65	44472.52
557.82	44561.46
557.98	44795.51
558.15	44886.79
558.32	44872.75
558.48	44264.21
558.65	44687.85
558.81	44814.24
558.98	44687.85
559.14	44886.79
559.31	44662.10
559.47	44814.24
559.64	44839.98
559.80	44917.22
559.97	45490.65
560.13	45083.40
560.30	44961.69
560.46	45148.93
560.63	45132.55
560.79	45303.41
560.96	45530.44
561.12	44973.39
561.29	45174.68
561.45	44945.31
561.61	44699.55
561.78	44755.72
561.94	44847.00
562.11	45469.59
562.27	45008.50
562.44	44676.15
562.60	45366.60
562.77	45088.08
562.93	45291.71
563.10	45160.64
563.26	45118.51
563.42	45265.96
563.59	45553.85
563.75	45443.84
563.92	45567.89
564.08	44886.79
564.24	45425.12
564.41	45595.98
564.57	45186.38
564.74	45567.89
564.90	45310.43
565.07	45251.92
565.23	45368.94
565.39	45158.30
565.56	45141.91
565.72	45017.86
565.88	45102.12
566.05	45015.52
566.21	45265.96
566.38	45167.66
566.54	45289.37
566.70	45820.67
566.87	45738.75
567.03	45827.69
567.19	45961.10
567.36	45329.16
567.52	45624.06
567.68	45638.11
567.85	45162.98
568.01	45500.01
568.17	45357.24
568.34	45689.60
568.50	45425.12
568.66	45713.00
568.83	45900.25
568.99	45366.60
569.15	45008.50
569.32	45549.17
569.48	45265.96
569.64	45614.70
569.81	45219.15
569.97	45883.86
570.13	45443.84
570.30	45375.97
570.46	45312.77
570.62	45375.97
570.78	45209.79
570.95	44900.84
571.11	45612.36
571.27	45556.19
571.43	45280.00
571.60	45874.50
571.76	45371.28
571.92	45235.53
572.09	45778.54
572.25	45495.33
572.41	45879.18
572.57	45902.59
572.74	45909.61
572.90	45865.14
573.06	46092.17
573.22	45649.81
573.38	45659.17
573.55	45474.27
573.71	45642.79
573.87	46019.61
574.03	45144.25
574.20	45764.49
574.36	45958.76
574.52	45563.21
574.68	45544.48
574.84	45565.55
575.01	45558.53
575.17	45331.50
575.33	45612.36
575.49	45645.13
575.65	45677.90
575.82	45998.55
575.98	45661.51
576.14	45979.82
576.30	45928.33
576.46	45818.33
576.62	45642.79
576.79	45617.04
576.95	45481.29
577.11	45958.76
577.27	46054.72
577.43	45577.25
577.59	44879.77
577.75	45532.78
577.92	45415.76
578.08	45546.82
578.24	45556.19
578.40	45729.39
578.56	45785.56
578.72	45773.86
578.88	46129.62
579.04	45696.62
579.21	45338.52
579.37	45743.43
579.53	45436.82
579.69	45617.04
579.85	45485.97
580.01	45949.40
580.17	45818.33
580.33	45720.02
580.49	46007.91
580.65	45764.49
580.82	46021.95
580.98	45855.78
581.14	45631.08
581.30	45844.07
581.46	45944.72
581.62	46047.70
581.78	45708.32
581.94	46248.99
582.10	45797.26
582.26	45839.39
582.42	45888.54
582.58	45649.81
582.74	45801.94
582.90	46031.32
583.06	46246.65
583.22	45591.30
583.38	46457.29
583.54	46089.83
583.70	45785.56
583.86	46057.06
584.02	45757.47
584.18	45677.90
584.34	46117.92
584.50	45865.14
584.66	45682.58
584.82	45677.90
584.98	46005.57
585.14	45783.22
585.30	45783.22
585.46	45567.89
585.62	45357.24
585.78	46033.66
585.94	45918.97
586.10	45869.82
586.26	45476.61
586.42	46181.11
586.58	46068.76
586.74	45771.52
586.90	45713.00
587.06	45944.72
587.22	46148.34
587.38	45858.12
587.54	45961.10
587.70	46202.18
587.86	45785.56
588.02	45942.38
588.18	46248.99
588.34	45825.35
588.49	45544.48
588.65	45289.37
588.81	45303.41
588.97	45682.58
589.13	45301.07
589.29	45298.73
589.45	45841.73
589.61	45820.67
589.77	45677.90
589.93	46052.38
590.08	45691.94
590.24	45886.20
590.40	46178.77
590.56	46199.83
590.72	46043.02
590.88	45621.72
591.04	46298.14
591.20	46436.23
591.35	46000.89
591.51	46134.30
591.67	46031.32
591.83	45801.94
591.99	45925.99
592.15	45682.58
592.31	46436.23
592.46	45757.47
592.62	46045.36
592.78	45797.26
592.94	46007.91
593.10	46387.08
593.26	46241.96
593.41	46487.72
593.57	45872.16
593.73	45933.01
593.89	46094.51
594.05	46040.68
594.20	46157.70
594.36	45614.70
594.52	46068.76
594.68	45837.05
594.84	46082.81
594.99	45776.20
595.15	46206.86
595.31	46216.22
595.47	46281.75
595.62	46174.09
595.78	45979.82
595.94	46253.67
596.10	46497.08
596.25	45975.14
596.41	45961.10
596.57	45984.51
596.73	45937.69
596.88	45832.37
597.04	46043.02
597.20	46277.07
597.36	46265.37
597.51	46028.98
597.67	46429.21
597.83	46092.17
597.99	46209.20
598.14	46607.09
598.30	46396.44
598.46	46026.63
598.61	46499.42
598.77	45956.42
598.93	46061.74
599.09	46141.32
599.24	46513.47
599.40	46368.35
599.56	46153.02
599.71	45649.81
599.87	46101.53
600.03	46017.27
600.18	45940.04
600.34	46167.07
600.50	46000.89
600.65	45855.78
600.81	46714.75
600.97	45661.51
601.12	46567.30
601.28	45825.35
601.44	45846.41
601.59	46085.15
601.75	46136.64
601.91	46031.32
602.06	45715.34
602.22	45902.59
602.37	46492.40
602.53	46110.89
602.69	46115.58
602.84	46078.13
603.00	45785.56
603.16	46136.64
603.31	46043.02
603.47	46000.89
603.62	45361.92
603.78	46117.92
603.94	46066.42
604.09	46450.27
604.25	46019.61
604.40	45769.18
604.56	46218.56
604.71	46232.60
604.87	45923.65
605.03	45954.08
605.18	46195.15
605.34	46272.39
605.49	45748.11
605.65	45675.55
605.80	46270.05
605.96	45848.75
606.12	45841.73
606.27	45890.88
606.43	45673.21
606.58	46052.38
606.74	45776.20
606.89	45588.95
607.05	45956.42
607.20	46225.58
607.36	45691.94
607.51	46188.13
607.67	45689.60
607.82	45705.98
607.98	45483.63
608.13	45607.68
608.29	45830.03
608.44	45228.51
608.60	45071.70
608.75	45610.02
608.91	45448.52
609.06	45694.28
609.22	45553.85
609.37	45525.76
609.53	45752.79
609.68	45682.58
609.84	45621.72
609.99	45581.93
610.15	45509.38
610.30	45195.74
610.46	45574.91
610.61	45092.76
610.76	45492.99
610.92	45881.52
611.07	45752.79
611.23	45247.24
611.38	45333.84
611.54	44978.07
611.69	45090.42
611.84	45280.00
612.00	45167.66
612.15	45207.45
612.31	45495.33
612.46	45469.59
612.62	45734.07
612.77	45167.66
612.92	45621.72
613.08	44711.25
613.23	44774.45
613.39	44715.93
613.54	44570.82
613.69	44868.07
613.85	45092.76
614.00	44657.42
614.15	44830.62
614.31	44861.05
614.46	45265.96
614.62	44961.69
614.77	44800.19
614.92	44903.18
615.08	44664.44
615.23	44629.34
615.38	44245.49
615.54	44652.74
615.69	44989.78
615.84	44795.51
616.00	44224.42
616.15	45041.27
616.30	44739.34
616.46	44587.21
616.61	44313.36
616.76	44226.76
616.92	44140.16
617.07	44238.47
617.22	44474.86
617.37	44339.11
617.53	44575.50
617.68	44788.49
617.83	44233.78
617.99	44409.32
618.14	43899.09
618.29	44044.20
618.45	44037.18
618.60	43943.56
618.75	43662.69
618.90	43992.71
619.06	43697.80
619.21	44357.83
619.36	44643.38
619.51	44402.30
619.67	43753.97
619.82	43660.35
619.97	44296.98
620.12	43803.13
620.28	43274.16
620.43	43861.64
620.58	43742.27
620.73	44020.80
620.89	43805.47
621.04	44229.10
621.19	43955.26
621.34	43775.04
621.49	43863.98
621.65	43817.17
621.80	43931.86
621.95	43789.08
622.10	43253.10
622.25	43309.27
622.41	43468.43
622.56	43487.15
622.71	44121.44
622.86	43119.69
623.01	44037.18
623.16	43611.20
623.32	43608.86
623.47	43391.19
623.62	43442.68
623.77	43295.23
623.92	43456.73
624.07	43669.72
624.23	43129.05
624.38	43229.69
624.53	43358.42
624.68	43199.27
624.83	43367.79
624.98	43473.11
625.13	43145.44
625.29	43044.79
625.44	43021.39
625.59	42951.17
625.74	42710.10
625.89	42965.21
626.04	42747.54
626.19	42623.50
626.34	43033.09
626.49	42986.28
626.65	42487.74
626.80	43044.79
626.95	42206.88
627.10	42497.11
627.25	42848.19
627.40	42777.97
627.55	42183.48
627.70	42373.06
627.85	42600.09
628.00	42621.16
628.15	42703.07
628.30	42438.59
628.45	42305.18
628.60	42181.13
628.76	42188.16
628.91	42239.65
629.06	41874.52
629.21	41979.85
629.36	42134.32
629.51	42256.03
629.66	42525.19
629.81	42295.82
629.96	42335.61
630.11	42216.24
630.26	42361.36
630.41	42588.39
630.56	42024.32
630.71	41979.85
630.86	41975.17
631.01	41951.76
631.16	41933.04
631.31	41708.35
631.46	41347.90
631.61	41813.67
631.76	41497.70
631.91	42078.15
632.06	41893.25
632.21	41729.41
632.36	42216.24
632.51	41633.45
632.66	41581.96
632.81	41511.74
632.96	41792.61
633.10	41818.35
633.25	41640.47
633.40	41794.95
633.55	41429.82
633.70	41642.81
633.85	41567.91
634.00	41649.83
634.15	41771.54
634.30	41144.28
634.45	41441.53
634.60	41661.54
634.75	41427.48
634.90	41478.97
635.05	41816.01
635.19	41165.34
635.34	41397.06
635.49	41193.43
635.64	41258.96
635.79	40715.96
635.94	41228.54
636.09	40687.87
636.24	40809.58
636.39	40671.49
636.53	40868.09
636.68	40336.79
636.83	40996.82
636.98	40886.82
637.13	40636.38
637.28	41235.56
637.43	41181.73
637.57	41345.56
637.72	40570.85
637.87	40650.42
638.02	40921.93
638.17	41151.30
638.32	40783.83
638.46	40479.57
638.61	40236.15
638.76	40395.31
638.91	40444.46
639.06	40615.32
639.20	41027.25
639.35	40301.68
639.50	40776.81
639.65	40062.95
639.80	40830.65
639.94	40636.38
640.09	40858.73
640.24	40526.38
640.39	39988.05
640.54	40168.27
640.68	40009.12
640.83	40072.31
640.98	40006.78
641.13	39796.13
641.27	40559.14
641.42	39990.39
641.57	40084.01
641.72	40105.08
641.86	40062.95
642.01	39739.96
642.16	39889.75
642.31	39800.81
642.45	39892.09
642.60	39772.72
642.75	39761.02
642.90	39952.94
643.04	39761.02
643.19	39847.62
643.34	39697.83
643.48	39775.06
643.63	39770.38
643.78	39082.27
643.93	39636.97
644.07	39360.79
644.22	39578.46
644.37	39477.82
644.51	39274.19
644.66	39519.95
644.81	39873.37
644.95	39576.12
645.10	39056.52
645.25	39381.85
645.39	39629.95
645.54	39325.68
645.69	38911.41
645.83	39267.17
645.98	39009.71
646.13	39077.58
646.27	39501.22
646.42	39321.00
646.57	39255.46
646.71	39475.48
646.86	39236.74
647.00	39501.22
647.15	38944.17
647.30	38937.15
647.44	38913.75
647.59	38604.80
647.74	38693.74
647.88	38998.01
648.03	39175.89
648.17	38724.16
648.32	38930.13
648.47	38604.80
648.61	38684.37
648.76	39129.08
648.90	38951.20
649.05	38501.81
649.20	38691.40
649.34	38834.17
649.49	38169.46
649.63	38525.22
649.78	38700.76
649.92	38714.80
650.07	38960.56
650.21	38389.47
650.36	38663.31
650.51	38438.62
650.65	39103.33
650.80	39051.84
650.94	38719.48
651.09	38490.11
651.23	37717.73
651.38	38265.42
651.52	38225.63
651.67	37703.69
651.81	38623.52
651.96	38312.23
652.10	37823.06
652.25	38300.53
652.39	38148.39
652.54	38410.53
652.68	38080.52
652.83	38625.86
652.97	38775.66
653.12	38005.62
653.26	38085.20
653.41	37937.74
653.55	37888.59
653.70	38005.62
653.84	37881.57
653.99	37577.30
654.13	38204.56
654.27	37834.76
654.42	37806.67
654.56	37787.95
654.71	38113.28
654.85	37570.28
655.00	37928.38
655.14	37797.31
655.29	37163.03
655.43	37104.51
655.57	37132.60
655.72	37280.05
655.86	37055.36
656.01	36683.22
656.15	36418.74
656.30	36814.29
656.44	36971.10
656.58	37347.93
656.73	37481.34
656.87	37329.20
657.01	37144.30
657.16	36685.56
657.30	36531.08
657.45	37081.11
657.59	36655.13
657.73	37261.33
657.88	37090.47
658.02	37254.31
658.16	37010.89
658.31	37268.35
658.45	37479.00
658.60	36811.95
658.74	36957.06
658.88	37106.85
659.03	37010.89
659.17	36809.61
659.31	36388.31
659.46	36566.19
659.60	36385.97
659.74	36634.06
659.89	36327.45
660.03	36320.43
660.17	36526.40
660.32	36961.74
660.46	36503.00
660.60	36140.21
660.74	36713.64
660.89	36690.24
661.03	36238.51
661.17	36062.97
661.32	35962.33
661.46	36130.85
661.60	36009.14
661.74	36187.02
661.89	35737.64
662.03	35938.93
662.17	35503.59
662.31	36261.92
662.46	36025.53
662.60	36067.66
662.74	35676.79
662.88	36189.36
663.03	35133.78
663.17	35421.67
663.31	35108.04
663.45	35796.15
663.60	35906.16
663.74	35253.15
663.88	35150.17
664.02	35157.19
664.17	35405.28
664.31	34787.38
664.45	34621.20
664.59	34967.60
664.73	35548.06
664.88	35016.75
665.02	34546.31
665.16	34962.92
665.30	34679.72
665.44	34501.84
665.59	34349.70
665.73	34487.79
665.87	34115.65
666.01	34153.10
666.15	34096.92
666.29	34450.35
666.44	34347.36
666.58	34403.53
666.72	34368.43
666.86	33993.94
667.00	34181.18
667.14	33776.27
667.28	34202.25
667.43	34316.93
667.57	34132.03
667.71	33874.57
667.85	33694.35
667.99	34127.35
668.13	34204.59
668.27	33881.60
668.41	34237.36
668.56	33684.99
668.70	33729.46
668.84	33333.91
668.98	33165.39
669.12	33380.72
669.26	33706.05
669.40	33017.94
669.54	33144.33
669.68	33151.35
669.82	32968.79
669.96	33092.83
670.10	33106.88
670.25	33127.94
670.39	33347.95
670.53	32767.50
670.67	32760.48
670.81	32978.15
670.95	32463.23
671.09	32596.64
671.23	32512.38
671.37	32236.20
671.51	32788.56
671.65	31988.10
671.79	32187.05
671.93	32151.94
672.07	32030.23
672.21	32294.71
672.35	31934.27
672.49	32030.23
672.63	31871.07
672.77	31747.03
672.91	31756.39
673.05	31454.46
673.19	31536.38
673.33	31503.61
673.47	31641.70
673.61	31548.08
673.75	31325.73
673.89	31164.23
674.03	31180.62
674.17	31318.71
674.31	30890.39
674.45	31374.88
674.59	31281.26
674.73	31456.80
674.87	31145.51
675.01	30883.37
675.15	30740.60
675.29	31154.87
675.43	30747.62
675.56	30661.02
675.70	30866.98
675.84	30759.32
675.98	29582.03
676.12	29893.32
676.26	30249.08
676.40	29806.72
676.54	30213.98
676.68	30008.01
676.82	29514.16
676.96	29748.21
677.10	29654.59
677.23	29654.59
677.37	29603.10
677.51	29366.70
677.65	29160.73
677.79	28765.18
677.93	29111.58
678.07	28465.60
678.21	28177.71
678.34	28453.89
678.48	28453.89
678.62	28439.85
678.76	27892.16
678.90	28051.32
679.04	28297.08
679.18	28453.89
679.31	27997.49
679.45	27810.25
679.59	28070.04
679.73	28063.02
679.87	28229.20
680.00	27906.21
680.14	27824.29
680.28	27274.26
680.42	27372.57
680.56	27388.95
680.70	27276.60
680.83	27335.12
680.97	27433.42
681.11	27351.50
681.25	27122.13
681.39	27159.58
681.52	27080.00
681.66	26611.89
681.80	26548.70
681.94	26375.50
682.07	26345.07
682.21	26518.27
682.35	26532.31
682.49	26410.60
682.62	26012.71
682.76	25898.03
682.90	26089.95
683.04	26295.92
683.17	25830.15
683.31	25450.99
683.45	25469.71
683.59	25628.87
683.72	25483.75
683.86	25577.37
684.00	25245.02
684.13	25301.19
684.27	24971.18
684.41	25156.08
684.55	24828.40
684.68	24851.81
684.82	24713.72
684.96	24676.27
685.09	24812.02
685.23	24453.92
685.37	24416.47
685.50	24222.20
685.64	24479.66
685.78	24388.38
685.91	24109.86
686.05	23733.03
686.19	23852.40
686.32	23545.79
686.46	23367.91
686.60	23536.43
686.73	23110.45
686.87	23562.17
687.01	23183.01
687.14	22799.16
687.28	23150.24
687.42	22820.22
687.55	22740.64
687.69	22864.69
687.82	22855.33
687.96	22892.78
688.10	22590.85
688.23	22401.27
688.37	22457.44
688.50	22286.58
688.64	22197.64
688.78	22312.33
688.91	21591.44
689.05	21970.61
689.18	21757.62
689.32	21706.13
689.46	22045.51
689.59	22054.87
689.73	22059.55
689.86	21703.79
690.00	21378.45
690.13	21827.84
690.27	21425.26
690.41	21184.19
690.54	21039.08
690.68	21074.18
690.81	21397.18
690.95	20933.75
691.08	21195.89
691.22	20847.15
691.35	20996.95
691.49	20966.52
691.62	20776.94
691.76	20861.19
691.89	20613.10
692.03	20606.08
692.16	20372.02
692.30	20463.30
692.43	20219.89
692.57	20081.80
692.70	20128.61
692.84	19756.46
692.97	19934.34
693.11	19566.88
693.24	19435.81
693.38	19367.93
693.51	19597.31
693.65	19545.81
693.78	19426.45
693.92	19264.95
694.05	19009.83
694.19	19077.71
694.32	19035.58
694.45	19414.74
694.59	19007.49
694.72	18944.30
694.86	18831.95
694.99	18492.57
695.13	18373.21
695.26	18417.68
695.39	18532.36
695.53	18469.17
695.66	18497.25
695.80	18307.67
695.93	18352.14
696.07	18160.22
696.20	18143.83
696.33	18012.76
696.47	17961.27
696.60	17750.62
696.73	17921.48
696.87	17869.99
697.00	17631.26
697.14	17603.17
697.27	17390.18
697.40	17392.52
697.54	17411.25
697.67	17245.07
697.80	17036.76
697.94	17022.72
698.07	17130.38
698.21	16844.84
698.34	17034.42
698.47	16989.95
698.61	16889.31
698.74	16510.14
698.87	16772.28
699.01	16355.66
699.14	16489.07
699.27	16252.68
699.40	16353.32
699.54	16264.38
699.67	16231.62
699.80	15899.26
699.94	15892.24
700.07	15871.17
700.20	16016.29
700.34	15922.66
700.47	16004.58
700.60	16180.12
700.73	15824.36
700.87	15632.44
701.00	15536.48
701.13	15585.63
701.26	15330.51
701.40	15492.01
701.53	15180.71
701.66	15000.49
701.79	14764.10
701.93	15227.53
702.06	15136.24
702.19	14956.02
702.32	14771.12
702.46	14691.54
702.59	14600.26
702.72	14820.27
702.85	14731.33
702.99	14551.11
703.12	14787.50
703.25	14139.18
703.38	14448.13
703.51	14136.84
703.65	14162.58
703.78	14066.62
703.91	13745.97
704.04	14003.43
704.17	13982.36
704.31	13874.70
704.44	13640.64
704.57	13727.24
704.70	13591.49
704.83	13490.85
704.96	13909.80
705.10	13738.94
705.23	13455.74
>>>>>End Processed Spectral Data<<<<<
