SpectraSuite Data File
++++++++++++++++++++++++++++++++++++
Date: Fri Oct 25 11:33:14 EDT 2013
User: price-jones
Dark Spectrum Present: No
Reference Spectrum Present: No
Number of Sampled Component Spectra: 1
Spectrometers: USB2+H05261
Integration Time (usec): 100000 (USB2+H05261)
Spectra Averaged: 1 (USB2+H05261)
Boxcar Smoothing: 0 (USB2+H05261)
Correct for Electrical Dark: No (USB2+H05261)
Strobe/Lamp Enabled: No (USB2+H05261)
Correct for Detector Non-linearity: No (USB2+H05261)
Correct for Stray Light: No (USB2+H05261)
Number of Pixels in Processed Spectrum: 2048
>>>>>Begin Processed Spectral Data<<<<<
365.73	299.59
365.92	299.59
366.12	299.59
366.32	208.31
366.52	215.33
366.72	252.78
366.91	159.16
367.11	121.71
367.31	222.35
367.51	159.16
367.70	189.58
367.90	191.92
368.10	212.99
368.30	140.43
368.49	224.69
368.69	177.88
368.89	205.97
369.09	175.54
369.28	161.50
369.48	215.33
369.68	313.63
369.87	198.95
370.07	215.33
370.27	215.33
370.47	290.23
370.66	381.51
370.86	505.56
371.06	484.49
371.25	531.30
371.45	524.28
371.65	482.15
371.84	500.87
372.04	526.62
372.24	571.09
372.44	582.79
372.63	610.88
372.83	655.35
373.03	571.09
373.22	510.24
373.42	653.01
373.62	634.29
373.81	681.10
374.01	690.46
374.21	692.80
374.40	610.88
374.60	660.03
374.79	620.24
374.99	664.71
375.19	657.69
375.38	690.46
375.58	638.97
375.78	688.12
375.97	610.88
376.17	683.44
376.37	594.50
376.56	716.20
376.76	681.10
376.95	671.73
377.15	617.90
377.35	688.12
377.54	739.61
377.74	685.78
377.93	540.66
378.13	683.44
378.33	713.86
378.52	720.88
378.72	662.37
378.91	730.25
379.11	718.54
379.31	727.91
379.50	660.03
379.70	713.86
379.89	706.84
380.09	669.39
380.28	702.16
380.48	692.80
380.68	709.18
380.87	753.65
381.07	795.78
381.26	772.38
381.46	821.53
381.65	774.72
381.85	781.74
382.04	748.97
382.24	856.64
382.43	807.48
382.63	854.30
382.83	734.93
383.02	809.83
383.22	814.51
383.41	873.02
383.61	854.30
383.80	763.01
384.00	873.02
384.19	765.36
384.39	758.33
384.58	779.40
384.78	833.23
384.97	847.27
385.17	889.40
385.36	856.64
385.56	891.74
385.75	896.43
385.95	866.00
386.14	887.06
386.34	887.06
386.53	856.64
386.72	847.27
386.92	807.48
387.11	896.43
387.31	840.25
387.50	891.74
387.70	922.17
387.89	835.57
388.09	887.06
388.28	870.68
388.48	912.81
388.67	957.28
388.86	929.19
389.06	966.64
389.25	912.81
389.45	971.32
389.64	896.43
389.84	964.30
390.03	898.77
390.22	997.07
390.42	959.62
390.61	1027.50
390.81	938.55
391.00	891.74
391.19	1032.18
391.39	978.34
391.58	1046.22
391.78	994.73
391.97	1006.43
392.16	938.55
392.36	1032.18
392.55	1135.16
392.75	1123.46
392.94	1090.69
393.13	1100.05
393.33	1078.99
393.52	1039.20
393.71	1090.69
393.91	1102.39
394.10	1095.37
394.29	1095.37
394.49	1067.28
394.68	1107.07
394.88	1174.95
395.07	1210.06
395.26	1062.60
395.46	1121.12
395.65	1193.67
395.84	1282.61
396.04	1249.85
396.23	1242.82
396.42	1196.01
396.62	1221.76
396.81	1196.01
397.00	1149.20
397.19	1221.76
397.39	1188.99
397.58	1310.70
397.77	1275.59
397.97	1221.76
398.16	1268.57
398.35	1284.95
398.55	1287.29
398.74	1341.13
398.93	1369.21
399.12	1315.38
399.32	1357.51
399.51	1359.85
399.70	1371.55
399.90	1364.53
400.09	1413.68
400.28	1455.81
400.47	1380.92
400.67	1507.30
400.86	1432.41
401.05	1383.26
401.24	1490.92
401.44	1493.26
401.63	1568.16
401.82	1376.24
402.01	1366.87
402.21	1434.75
402.40	1465.18
402.59	1495.60
402.78	1533.05
402.97	1509.65
403.17	1511.99
403.36	1584.54
403.55	1497.94
403.74	1640.72
403.93	1603.27
404.13	1619.65
404.32	1638.38
404.51	1619.65
404.70	1629.01
404.89	1619.65
405.09	1755.40
405.28	1776.47
405.47	1727.32
405.66	1818.60
405.85	1769.44
406.05	1834.98
406.24	1727.32
406.43	1771.79
406.62	1792.85
406.81	1827.96
407.00	1727.32
407.20	1919.24
407.39	1816.26
407.58	1804.55
407.77	1905.20
407.96	1827.96
408.15	1949.67
408.34	1900.52
408.54	1916.90
408.73	1947.33
408.92	2045.63
409.11	2008.18
409.30	2062.01
409.49	2099.46
409.68	2015.20
409.87	2087.76
410.07	2125.21
410.26	2045.63
410.45	2005.84
410.64	2125.21
410.83	2043.29
411.02	2165.00
411.21	2218.83
411.40	2209.47
411.59	2246.91
411.78	2232.87
411.98	2263.30
412.17	2223.51
412.36	2310.11
412.55	2312.45
412.74	2380.32
412.93	2333.51
413.12	2265.64
413.31	2483.31
413.50	2483.31
413.69	2370.96
413.88	2539.48
414.07	2485.65
414.26	2485.65
414.45	2562.89
414.64	2548.84
414.83	2506.71
415.02	2623.74
415.22	2504.37
415.41	2609.70
415.60	2637.78
415.79	2733.75
415.98	2626.08
416.17	2745.45
416.36	2705.66
416.55	2693.96
416.74	2820.35
416.93	2862.48
417.12	2803.96
417.31	2871.84
417.50	2970.14
417.69	2960.78
417.88	2836.73
418.07	2892.90
418.26	2944.39
418.45	2881.20
418.64	3112.91
418.83	3040.36
419.02	3124.62
419.21	3148.02
419.39	3059.08
419.58	3098.87
419.77	3204.19
419.96	3239.30
420.15	3176.11
420.34	3162.06
420.53	3262.71
420.72	3206.53
420.91	3208.87
421.10	3295.47
421.29	3269.73
421.48	3164.40
421.67	3365.69
421.86	3258.03
422.05	3272.07
422.24	3370.37
422.43	3314.20
422.61	3330.58
422.80	3269.73
422.99	3400.80
423.18	3321.22
423.37	3325.90
423.56	3468.67
423.75	3363.35
423.94	3215.90
424.13	3276.75
424.32	3335.26
424.50	3538.89
424.69	3494.42
424.88	3499.10
425.07	3393.78
425.26	3311.86
425.45	3363.35
425.64	3454.63
425.83	3482.72
426.01	3571.66
426.20	3391.44
426.39	3604.42
426.58	3389.10
426.77	3494.42
426.96	3571.66
427.15	3513.14
427.33	3595.06
427.52	3630.17
427.71	3637.19
427.90	3653.58
428.09	3618.47
428.28	3620.81
428.46	3674.64
428.65	3641.87
428.84	3836.14
429.03	3763.58
429.22	3674.64
429.40	3786.99
429.59	3815.07
429.78	3646.55
429.97	3660.60
430.16	3768.26
430.34	3913.38
430.53	3889.97
430.72	3815.07
430.91	3873.59
431.10	3819.75
431.28	3978.91
431.47	3852.52
431.66	3955.51
431.85	4032.74
432.03	3929.76
432.22	4222.33
432.41	4194.24
432.60	4187.22
432.79	4002.32
432.97	4093.60
433.16	4241.05
433.35	4135.73
433.54	4299.56
433.72	4224.67
433.91	4166.15
434.10	4194.24
434.28	4121.68
434.47	4203.60
434.66	4339.35
434.85	4425.95
435.03	4351.06
435.22	4372.12
435.41	4407.23
435.59	4381.48
435.78	4360.42
435.97	4461.06
436.16	4358.08
436.34	4367.44
436.53	4430.63
436.72	4395.53
436.90	4505.53
437.09	4674.05
437.28	4496.17
437.46	4440.00
437.65	4610.86
437.84	4690.43
438.02	4685.75
438.21	4622.56
438.40	4552.34
438.58	4812.14
438.77	4765.33
438.96	4903.42
439.14	4835.55
439.33	5008.75
439.52	4940.87
439.70	4952.57
439.89	5109.39
440.08	4968.96
440.26	5142.16
440.45	5064.92
440.63	5111.73
440.82	5125.77
441.01	5069.60
441.19	5135.14
441.38	5104.71
441.57	5158.54
441.75	5352.81
441.94	5380.89
442.12	5437.06
442.31	5472.17
442.50	5495.58
442.68	5526.00
442.87	5387.91
443.05	5535.37
443.24	5614.95
443.43	5579.84
443.61	5479.19
443.80	5708.57
443.98	5540.05
444.17	5479.19
444.35	5586.86
444.54	5678.14
444.73	5570.48
444.91	5685.16
445.10	5659.42
445.28	5755.38
445.47	5551.75
445.65	5687.50
445.84	5837.30
446.02	5886.45
446.21	5729.63
446.39	5771.76
446.58	5825.59
446.77	5771.76
446.95	5708.57
447.14	5790.49
447.32	5863.04
447.51	5860.70
447.69	5575.16
447.88	5806.87
448.06	5692.18
448.25	5703.89
448.43	5905.17
448.62	5703.89
448.80	5912.19
448.99	5907.51
449.17	5966.03
449.36	5785.80
449.54	6001.13
449.73	6019.86
449.91	6218.80
450.10	6085.39
450.28	6181.35
450.46	6069.01
450.65	6139.23
450.83	6190.72
451.02	6193.06
451.20	6326.47
451.39	6333.49
451.57	6319.45
451.76	6272.64
451.94	6232.85
452.13	6256.25
452.31	6375.62
452.49	6202.42
452.68	6389.66
452.86	6328.81
453.05	6389.66
453.23	6480.94
453.42	6459.88
453.60	6499.67
453.78	6483.28
453.97	6324.13
454.15	6506.69
454.34	6651.80
454.52	6628.40
454.70	6462.22
454.89	6569.88
455.07	6778.19
455.26	6672.87
455.44	6860.11
455.62	6768.83
455.81	6810.96
455.99	6974.80
456.17	7052.03
456.36	6839.05
456.54	6829.68
456.73	6986.50
456.91	6977.14
457.09	6906.92
457.28	7012.24
457.46	6736.06
457.64	7140.97
457.83	7000.54
458.01	6977.14
458.19	7234.60
458.38	7021.61
458.56	7281.41
458.74	7304.81
458.93	7201.83
459.11	7243.96
459.29	7368.01
459.48	7173.74
459.66	7201.83
459.84	7414.82
460.03	7265.02
460.21	7536.52
460.39	7522.48
460.57	7452.27
460.76	7494.40
460.94	7590.36
461.12	7705.04
461.31	7543.55
461.49	7590.36
461.67	7531.84
461.85	7768.24
462.04	7616.10
462.22	8231.66
462.40	7681.64
462.59	7740.15
462.77	7887.61
462.95	7899.31
463.13	7957.82
463.32	7892.29
463.50	7925.05
463.68	7936.76
463.86	8025.70
464.05	7941.44
464.23	7946.12
464.41	8142.72
464.59	7859.52
464.78	8161.45
464.96	8140.38
465.14	8002.29
465.32	8198.90
465.50	8145.06
465.69	8114.64
465.87	8004.63
466.05	8285.50
466.23	8283.16
466.41	8212.94
466.60	8229.32
466.78	8187.19
466.96	8191.88
467.14	8297.20
467.32	8393.16
467.51	8484.44
467.69	8439.97
467.87	8332.31
468.05	8514.87
468.23	8526.57
468.41	8376.78
468.60	8528.91
468.78	8744.24
468.96	8503.17
469.14	8657.64
469.32	8751.26
469.50	8472.74
469.69	8746.58
469.87	8910.42
470.05	8648.28
470.23	8833.18
470.41	8917.44
470.59	8868.29
470.77	8861.27
470.95	8992.34
471.14	9102.34
471.32	8997.02
471.50	9160.86
471.68	8990.00
471.86	9170.22
472.04	9165.54
472.22	9320.01
472.40	9018.08
472.58	9142.13
472.77	9537.68
472.95	9439.38
473.13	9771.74
473.31	9378.53
473.49	9233.41
473.67	9680.46
473.85	9745.99
474.03	9900.47
474.21	9727.27
474.39	9696.84
474.57	9830.25
474.75	9865.36
474.93	9905.15
475.12	10026.86
475.30	9933.23
475.48	10064.30
475.66	10181.33
475.84	10164.95
476.02	10431.77
476.20	10136.86
476.38	10565.18
476.56	10541.77
476.74	10656.46
476.92	10394.32
477.10	10590.92
477.28	10766.46
477.46	10647.10
477.64	10848.38
477.82	11183.08
478.00	11304.79
478.18	11103.50
478.36	11337.56
478.54	11461.60
478.72	11475.65
478.90	11370.32
479.08	11761.19
479.26	11705.02
479.44	11751.83
479.62	11946.09
479.80	12149.72
479.98	11950.78
480.16	12299.52
480.34	12264.41
480.52	12245.68
480.70	12414.20
480.88	12187.17
481.06	12416.54
481.24	12542.93
481.41	12795.71
481.59	12718.47
481.77	12748.90
481.95	12938.48
482.13	13034.44
482.31	13177.22
482.49	13525.96
482.67	13287.22
482.85	13579.79
483.03	13741.29
483.21	13877.04
483.39	13832.57
483.57	13827.88
483.74	14026.83
483.92	14319.40
484.10	13951.93
484.28	14497.28
484.46	14389.61
484.64	14801.55
484.82	14565.15
485.00	14621.33
485.18	15082.41
485.35	15374.98
485.53	14967.73
485.71	15180.71
485.89	15578.61
486.07	15531.80
486.25	15440.51
486.43	15578.61
486.61	15934.37
486.78	15836.06
486.96	16292.47
487.14	16444.60
487.32	16465.67
487.50	16334.60
487.68	16617.80
487.85	16987.61
488.03	17039.10
488.21	17104.64
488.39	17027.40
488.57	17268.47
488.75	17441.67
488.92	17401.88
489.10	17720.20
489.28	17776.37
489.46	17806.80
489.64	17797.43
489.81	18326.39
489.99	18300.65
490.17	18380.23
490.35	18623.64
490.53	18740.67
490.70	18808.54
490.88	18764.07
491.06	19194.73
491.24	19005.15
491.41	19063.66
491.59	19356.23
491.77	19417.08
491.95	19534.11
492.13	19868.81
492.30	19878.17
492.48	19730.72
492.66	20072.43
492.84	20294.79
493.01	20182.44
493.19	20264.36
493.37	20168.40
493.54	20416.49
493.72	20982.90
493.90	21088.23
494.08	20840.13
494.25	21282.49
494.43	20879.92
494.61	21647.61
494.79	21546.97
494.96	21558.67
495.14	21678.04
495.32	21628.89
495.49	22005.72
495.67	22162.53
495.85	22054.87
496.02	22408.29
496.20	22324.03
496.38	22630.64
496.55	22604.89
496.73	23129.17
496.91	23051.94
497.09	23164.28
497.26	22911.50
497.44	23529.41
497.62	23435.78
497.79	23531.75
497.97	23744.73
498.14	23737.71
498.32	23508.34
498.50	23892.19
498.67	24119.22
498.85	23997.51
499.03	24484.34
499.20	24439.87
499.38	24046.66
499.56	24631.80
499.73	24849.47
499.91	24748.82
500.08	24854.15
500.26	24966.49
500.44	24849.47
500.61	24926.71
500.79	25085.86
500.97	25125.65
501.14	25277.79
501.32	25603.12
501.49	25773.98
501.67	25928.45
501.84	25694.40
502.02	25949.52
502.20	25764.62
502.37	25900.37
502.55	25853.56
502.72	25909.73
502.90	26022.08
503.07	26019.74
503.25	26232.72
503.43	26670.40
503.60	26731.26
503.78	26398.90
503.95	26462.10
504.13	26487.84
504.30	26918.50
504.48	27049.57
504.65	26817.86
504.83	27194.68
505.01	27318.73
505.18	27262.56
505.36	27527.04
505.53	27370.22
505.71	27889.82
505.88	27496.61
506.06	27248.52
506.23	27936.63
506.41	27917.91
506.58	28350.91
506.76	28144.94
506.93	28376.66
507.11	28051.32
507.28	28418.78
507.46	28339.21
507.63	28680.92
507.81	28666.88
507.98	28381.34
508.16	28811.99
508.33	29022.64
508.50	28975.83
508.68	28877.53
508.85	29003.92
509.03	29233.29
509.20	29289.46
509.38	29497.77
509.55	29844.17
509.73	29741.19
509.90	29673.31
510.08	29497.77
510.25	29841.83
510.42	29338.62
510.60	30000.99
510.77	30279.51
510.95	30178.87
511.12	30073.54
511.30	30284.19
511.47	30506.54
511.64	30632.93
511.82	30869.33
511.99	30314.62
512.17	30656.34
512.34	30761.66
512.51	31007.42
512.69	31101.04
512.86	31241.47
513.04	31180.62
513.21	30984.01
513.38	31138.49
513.56	31470.84
513.73	31182.96
513.90	31424.03
514.08	31445.10
514.25	31945.97
514.43	31744.69
514.60	31587.87
514.77	31627.66
514.95	32112.15
515.12	32048.96
515.29	31730.64
515.47	32208.11
515.64	32196.41
515.81	31974.06
515.99	32889.21
516.16	32779.20
516.33	32374.29
516.51	32947.72
516.68	32945.38
516.85	32524.08
517.03	33071.77
517.20	32706.65
517.37	32776.86
517.54	32905.59
517.72	33289.44
517.89	33132.62
518.06	33378.38
518.24	33352.63
518.41	33099.86
518.58	33692.01
518.75	33401.79
518.93	33570.30
519.10	33582.01
519.27	33872.23
519.45	33369.02
519.62	33586.69
519.79	34204.59
519.96	34316.93
520.14	34171.82
520.31	33897.98
520.48	34422.26
520.65	34363.75
520.83	34974.63
521.00	34539.29
521.17	34534.60
521.34	34864.62
521.52	34911.43
521.69	35211.02
521.86	34909.09
522.03	35171.23
522.20	34881.00
522.38	35421.67
522.55	35243.79
522.72	35370.18
522.89	35550.40
523.07	35526.99
523.24	35321.02
523.41	35620.61
523.58	35578.48
523.75	35845.30
523.92	35318.68
524.10	35522.31
524.27	35899.14
524.44	36079.36
524.61	36109.78
524.78	36018.50
524.96	36311.07
525.13	36598.96
525.30	36114.47
525.47	36233.83
525.64	36463.21
525.81	36631.72
525.98	36870.46
526.16	36568.53
526.33	36786.20
526.50	36708.96
526.67	36692.58
526.84	36758.11
527.01	36987.49
527.18	36840.03
527.36	37280.05
527.53	37064.72
527.70	37324.52
527.87	37748.16
528.04	37418.14
528.21	37200.47
528.38	37638.15
528.55	37467.30
528.72	37219.20
528.89	37247.29
529.07	37706.03
529.24	37408.78
529.41	38024.34
529.58	37598.37
529.75	37654.54
529.92	38305.21
530.09	38183.50
530.26	37982.21
530.43	38080.52
530.60	37450.91
530.77	38000.94
530.94	38085.20
531.11	38366.06
531.28	38171.80
531.46	38609.48
531.63	38368.40
531.80	38770.97
531.97	39105.67
532.14	38527.56
532.31	38487.77
532.48	39262.49
532.65	38986.30
532.82	39068.22
532.99	38630.54
533.16	38946.51
533.33	39304.62
533.50	39428.66
533.67	38866.94
533.84	39147.80
534.01	39007.37
534.18	39168.87
534.35	39852.30
534.52	39674.42
534.69	39688.46
534.86	39445.05
535.03	39728.25
535.20	39817.19
535.37	40048.91
535.54	39775.06
535.71	39828.90
535.88	40039.54
536.05	39693.15
536.22	40306.37
536.38	40327.43
536.55	39885.07
536.72	40062.95
536.89	39896.77
537.06	40275.94
537.23	40463.18
537.40	40027.84
537.57	39985.71
537.74	40301.68
537.91	40442.12
538.08	40271.26
538.25	40596.59
538.42	40343.81
538.59	41008.53
538.75	40479.57
538.92	41102.15
539.09	41081.08
539.26	40910.22
539.43	40858.73
539.60	40856.39
539.77	40931.29
539.94	41223.86
540.11	40966.40
540.28	41495.36
540.44	41408.76
540.61	41254.28
540.78	41518.76
540.95	41404.08
541.12	40875.12
541.29	41200.45
541.46	41406.42
541.62	41755.16
541.79	41567.91
541.96	40919.59
542.13	41303.43
542.30	41694.30
542.47	41570.25
542.63	41312.80
542.80	41855.80
542.97	42464.34
543.14	42227.95
543.31	42337.95
543.48	41933.04
543.64	42623.50
543.81	42674.99
543.98	42410.51
544.15	42223.26
544.32	42780.31
544.48	43089.26
544.65	42412.85
544.82	43194.59
544.99	42309.86
545.16	42869.25
545.32	42747.54
545.49	43248.42
545.66	42913.72
545.83	42543.92
546.00	42864.57
546.16	42838.83
546.33	42724.14
546.50	42733.50
546.67	42972.24
546.83	42841.17
547.00	43007.34
547.17	42951.17
547.34	43278.85
547.50	43515.24
547.67	43468.43
547.84	42930.11
548.00	43873.34
548.17	43592.48
548.34	43374.81
548.51	43753.97
548.67	43662.69
548.84	43803.13
549.01	43583.12
549.18	43707.16
549.34	44147.18
549.51	43833.55
549.68	43999.73
549.84	43548.01
550.01	43854.62
550.18	43557.37
550.34	44123.78
550.51	44332.09
550.68	44135.48
550.84	43660.35
551.01	44392.94
551.18	43847.60
551.34	44069.95
551.51	44254.85
551.68	44198.68
551.84	44210.38
552.01	44563.80
552.18	44203.36
552.34	44479.54
552.51	44519.33
552.68	44060.58
552.84	44416.35
553.01	44437.41
553.18	44446.77
553.34	44596.57
553.51	44439.75
553.67	44783.81
553.84	44933.60
554.01	44619.97
554.17	44474.86
554.34	44872.75
554.51	45071.70
554.67	44942.97
554.84	44940.63
555.00	44666.78
555.17	45029.57
555.33	45544.48
555.50	44774.45
555.67	44891.48
555.83	45106.80
556.00	45418.10
556.16	45591.30
556.33	45436.82
556.50	45130.21
556.66	45361.92
556.83	45022.54
556.99	45392.35
557.16	45675.55
557.32	45483.63
557.49	45687.26
557.65	45624.06
557.82	44996.80
557.98	45488.31
558.15	45418.10
558.32	45785.56
558.48	45535.12
558.65	45394.69
558.81	45619.38
558.98	45748.11
559.14	45764.49
559.31	45469.59
559.47	45544.48
559.64	45844.07
559.80	45851.09
559.97	45738.75
560.13	45694.28
560.30	45778.54
560.46	45776.20
560.63	45879.18
560.79	46092.17
560.96	46202.18
561.12	46277.07
561.29	45886.20
561.45	45944.72
561.61	46225.58
561.78	45755.13
561.94	46106.21
562.11	46096.85
562.27	46005.57
562.44	45930.67
562.60	46085.15
562.77	46422.19
562.93	45970.46
563.10	46368.35
563.26	46094.51
563.42	46609.43
563.59	46307.50
563.75	46061.74
563.92	46190.47
564.08	46066.42
564.24	46522.83
564.41	46419.84
564.57	46328.56
564.74	46616.45
564.90	45998.55
565.07	46351.97
565.23	46103.87
565.39	46253.67
565.56	46782.63
565.72	46550.91
565.88	46527.51
566.05	46969.87
566.21	46085.15
566.38	46651.56
566.54	46234.94
566.70	46347.29
566.87	46632.83
567.03	46635.17
567.19	46899.65
567.36	46700.71
567.52	46256.01
567.68	46738.16
567.85	46995.62
568.01	46628.15
568.17	46649.22
568.34	47194.56
568.50	46670.28
568.66	46696.03
568.83	46681.98
568.99	46700.71
569.15	46813.05
569.32	46588.36
569.48	47007.32
569.64	47068.17
569.81	46986.25
569.97	47295.21
570.13	47606.50
570.30	47004.98
570.46	46923.06
570.62	46932.42
570.78	46866.89
570.95	47117.32
571.11	47384.15
571.27	47110.30
571.43	46827.10
571.60	47330.31
571.76	46944.12
571.92	47014.34
572.09	46894.97
572.25	47171.16
572.41	46902.00
572.57	47334.99
572.74	47775.02
572.90	47351.38
573.06	47281.16
573.22	47437.98
573.38	47278.82
573.55	47377.12
573.71	47632.24
573.87	47208.61
574.03	47360.74
574.20	47297.55
574.36	47690.76
574.52	47250.74
574.68	47480.11
574.84	47182.86
575.01	47356.06
575.17	47711.82
575.33	47330.31
575.49	47278.82
575.65	47440.32
575.82	47480.11
575.98	47192.22
576.14	47531.60
576.30	47358.40
576.46	47498.83
576.62	47107.96
576.79	46885.61
576.95	47147.75
577.11	47112.64
577.27	47557.35
577.43	47082.22
577.59	47634.58
577.75	47487.13
577.92	47285.84
578.08	47412.23
578.24	47318.61
578.40	47510.53
578.56	47716.50
578.72	47763.31
578.88	47480.11
579.04	47405.21
579.21	47746.93
579.37	47849.91
579.53	47646.29
579.69	47323.29
579.85	47833.53
580.01	47522.24
580.17	47650.97
580.33	47646.29
580.49	47360.74
580.65	47604.16
580.82	47309.25
580.98	47250.74
581.14	47529.26
581.30	47760.97
581.46	47545.64
581.62	47353.72
581.78	47414.57
581.94	47594.79
582.10	47342.02
582.26	47316.27
582.42	47498.83
582.58	47728.20
582.74	47866.30
582.90	47576.07
583.06	47826.51
583.22	47634.58
583.38	47585.43
583.54	47653.31
583.70	47643.94
583.86	48083.97
584.02	48144.82
584.18	47943.53
584.34	47660.33
584.50	47980.98
584.66	48095.67
584.82	47950.56
584.98	47959.92
585.14	47819.49
585.30	47798.42
585.46	47592.45
585.62	47571.39
585.78	47571.39
585.94	47456.70
586.10	47903.74
586.26	47709.48
586.42	47739.91
586.58	47952.90
586.74	47868.64
586.90	47519.90
587.06	47817.14
587.22	47587.77
587.38	47524.58
587.54	47976.30
587.70	48011.41
587.86	48025.45
588.02	47660.33
588.18	47763.31
588.34	47580.75
588.49	47875.66
588.65	47503.51
588.81	47765.65
588.97	47840.55
589.13	47758.63
589.29	47786.72
589.45	47873.32
589.61	48034.81
589.77	48385.89
589.93	48268.87
590.08	47920.13
590.24	48350.79
590.40	48519.31
590.56	48413.98
590.72	48107.37
590.88	47604.16
591.04	47756.29
591.20	48385.89
591.35	48210.35
591.51	48594.20
591.67	48287.59
591.83	48357.81
591.99	48243.12
592.15	48538.03
592.31	48088.65
592.46	47852.25
592.62	48369.51
592.78	48533.35
592.94	48863.36
593.10	48093.33
593.26	48545.05
593.41	48704.21
593.57	48491.22
593.73	48289.93
593.89	48760.38
594.05	48758.04
594.20	48423.34
594.36	48851.66
594.52	48886.77
594.68	48446.75
594.84	48437.39
594.99	48636.33
595.15	48484.20
595.31	48669.10
595.47	48311.00
595.62	48755.70
595.78	48465.47
595.94	48783.79
596.10	48495.90
596.25	48605.91
596.41	48760.38
596.57	48491.22
596.73	48736.98
596.88	48495.90
597.04	48329.72
597.20	48638.67
597.36	48865.70
597.51	48474.84
597.67	48062.90
597.83	48364.83
597.99	48549.73
598.14	48179.93
598.30	48587.18
598.46	48505.26
598.61	48945.28
598.77	48643.35
598.93	48725.27
599.09	48460.79
599.24	49069.33
599.40	48617.61
599.56	48786.13
599.71	48989.75
599.87	49144.23
600.03	48825.92
600.18	48533.35
600.34	48388.24
600.50	48865.70
600.65	48910.17
600.81	48985.07
600.97	48769.74
601.12	48608.25
601.28	48753.36
601.44	48837.62
601.59	48563.78
601.75	48582.50
601.91	49055.29
602.06	48477.18
602.22	48802.51
602.37	48687.82
602.53	48259.51
602.69	49085.72
602.84	48676.12
603.00	48465.47
603.16	48701.87
603.31	48573.14
603.47	48772.08
603.62	48657.40
603.78	49125.50
603.94	48619.95
604.09	48687.82
604.25	48458.45
604.40	48900.81
604.56	48655.06
604.71	49200.40
604.87	48385.89
605.03	48453.77
605.18	48313.34
605.34	48367.17
605.49	48507.60
605.65	48999.12
605.80	48423.34
605.96	48505.26
606.12	48336.74
606.27	48870.39
606.43	48318.02
606.58	48718.25
606.74	48320.36
606.89	48472.49
607.05	48893.79
607.20	48521.65
607.36	48514.62
607.51	48329.72
607.67	48355.47
607.82	48584.84
607.98	48563.78
608.13	48287.59
608.29	48383.55
608.44	48666.76
608.60	48671.44
608.75	48540.37
608.91	48353.13
609.06	48086.31
609.22	48795.49
609.37	48189.29
609.53	48168.22
609.68	48413.98
609.84	48369.51
609.99	48196.31
610.15	48432.71
610.30	48208.01
610.46	48381.21
610.61	48196.31
610.76	48725.27
610.92	48233.76
611.07	48119.07
611.23	48142.48
611.38	48151.84
611.54	48444.41
611.69	48217.38
611.84	48289.93
612.00	48109.71
612.15	48233.76
612.31	48432.71
612.46	47988.00
612.62	47969.28
612.77	48217.38
612.92	48069.92
613.08	48282.91
613.23	47896.72
613.39	48154.18
613.54	48107.37
613.69	48229.08
613.85	48069.92
614.00	48044.18
614.15	47931.83
614.31	47775.02
614.46	48079.28
614.62	48200.99
614.77	47957.58
614.92	48025.45
615.08	48163.54
615.23	48158.86
615.38	47866.30
615.54	47868.64
615.69	48039.50
615.84	47892.04
616.00	48128.44
616.15	48062.90
616.30	48151.84
616.46	47674.37
616.61	47597.13
616.76	47873.32
616.92	47489.47
617.07	47782.04
617.22	47915.45
617.37	47419.25
617.53	47908.43
617.68	47496.49
617.83	47929.49
617.99	47847.57
618.14	47985.66
618.29	47353.72
618.45	47760.97
618.60	47578.41
618.75	47505.85
618.90	47236.69
619.06	47625.22
619.21	47327.97
619.36	47578.41
619.51	47426.28
619.67	47253.08
619.82	46937.10
619.97	47540.96
620.12	47342.02
620.28	46923.06
620.43	47512.88
620.58	46941.78
620.73	47035.41
620.89	47683.73
621.04	47353.72
621.19	47264.78
621.34	47316.27
621.49	47269.46
621.65	47363.08
621.80	47452.02
621.95	47196.90
622.10	47342.02
622.25	46997.96
622.41	46937.10
622.56	47185.20
622.71	47442.66
622.86	46958.17
623.01	46808.37
623.16	47180.52
623.32	46813.05
623.47	46948.81
623.62	47009.66
623.77	46520.49
623.92	46993.28
624.07	46911.36
624.23	46763.90
624.38	46815.40
624.53	47213.29
624.68	46674.96
624.83	46717.09
624.98	46866.89
625.13	46363.67
625.29	46337.93
625.44	46518.15
625.59	46473.68
625.74	46953.49
625.89	46459.63
626.04	46494.74
626.19	46660.92
626.34	46277.07
626.49	46188.13
626.65	45991.53
626.80	46433.89
626.95	45883.86
627.10	46031.32
627.25	46012.59
627.40	46548.57
627.55	46960.51
627.70	46358.99
627.85	46363.67
628.00	46272.39
628.15	46571.98
628.30	45888.54
628.45	45408.73
628.60	45818.33
628.76	46073.45
628.91	46047.70
629.06	45827.69
629.21	45930.67
629.36	45462.57
629.51	45933.01
629.66	46127.28
629.81	45935.35
629.96	45998.55
630.11	45867.48
630.26	45673.21
630.41	45823.01
630.56	46050.04
630.71	45783.22
630.86	45911.95
631.01	45715.34
631.16	45364.26
631.31	45823.01
631.46	45516.40
631.61	46288.77
631.76	45797.26
631.91	46054.72
632.06	45963.44
632.21	45872.16
632.36	45780.88
632.51	45097.44
632.66	46007.91
632.81	44926.58
632.96	45420.44
633.10	45443.84
633.25	45312.77
633.40	45422.78
633.55	45933.01
633.70	45720.02
633.85	45368.94
634.00	44982.76
634.15	45539.80
634.30	44903.18
634.45	44882.11
634.60	45027.23
634.75	45263.62
634.90	45177.02
635.05	45289.37
635.19	45235.53
635.34	45027.23
635.49	45329.16
635.64	45034.25
635.79	45558.53
635.94	44680.83
636.09	44914.88
636.24	44788.49
636.39	44917.22
636.53	45090.42
636.68	45017.86
636.83	44524.01
636.98	44566.14
637.13	45008.50
637.28	44561.46
637.43	44985.10
637.57	44626.99
637.72	44575.50
637.87	44444.43
638.02	44540.39
638.17	44458.48
638.32	44266.55
638.46	44088.67
638.61	44081.65
638.76	44041.86
638.91	44456.14
639.06	44240.81
639.20	44051.22
639.35	44182.29
639.50	44116.76
639.65	44245.49
639.80	44762.75
639.94	44919.56
640.09	44451.45
640.24	44540.39
640.39	43948.24
640.54	44240.81
640.68	44224.42
640.83	43887.39
640.98	44236.12
641.13	43863.98
641.27	44580.18
641.42	43810.15
641.57	43672.06
641.72	43477.79
641.86	44093.35
642.01	43625.25
642.16	43878.02
642.31	43328.00
642.45	43957.60
642.60	43517.58
642.75	43920.15
642.90	43770.36
643.04	43768.02
643.19	44126.12
643.34	43445.02
643.48	43592.48
643.63	43459.07
643.78	43566.73
643.93	43938.88
644.07	43503.54
644.22	43929.51
644.37	43405.23
644.51	43445.02
644.66	43365.45
644.81	43203.95
644.95	43765.68
645.10	43665.03
645.25	43761.00
645.39	43187.56
645.54	43241.40
645.69	43234.38
645.83	42967.55
645.98	43407.58
646.13	43267.14
646.27	43012.02
646.42	43089.26
646.57	43021.39
646.71	43592.48
646.86	43210.97
647.00	43187.56
647.15	43248.42
647.30	43234.38
647.44	42965.21
647.59	43047.13
647.74	42717.12
647.88	43002.66
648.03	43442.68
648.17	43430.98
648.32	43040.11
648.47	42740.52
648.61	42792.01
648.76	43063.52
648.90	42349.65
649.05	42511.15
649.20	43288.21
649.34	42873.93
649.49	42679.67
649.63	43107.99
649.78	43037.77
649.92	42796.70
650.07	43232.04
650.21	42677.33
650.36	42810.74
650.51	42749.88
650.65	42761.59
650.80	43030.75
650.94	42705.41
651.09	42476.04
651.23	42295.82
651.38	42560.30
651.52	42286.46
651.67	42312.20
651.81	42370.72
651.96	42272.42
652.10	42122.62
652.25	41855.80
652.39	42017.30
652.54	42265.39
652.68	42085.17
652.83	41628.77
652.97	42096.88
653.12	42258.37
653.26	41923.68
653.41	42288.80
653.55	41918.99
653.70	42572.00
653.84	42017.30
653.99	42045.38
654.13	41701.32
654.27	42174.11
654.42	41869.84
654.56	41668.56
654.71	42300.50
654.85	42108.58
655.00	41820.69
655.14	42216.24
655.29	41778.56
655.43	42419.87
655.57	41827.71
655.72	41205.13
655.86	41745.80
656.01	41542.17
656.15	41167.68
656.30	41521.10
656.44	41581.96
656.58	41570.25
656.73	41640.47
656.87	41759.84
657.01	41322.16
657.16	41539.83
657.30	41797.29
657.45	41453.23
657.59	41202.79
657.73	40907.88
657.88	41333.86
658.02	41663.88
658.16	41251.94
658.31	41282.37
658.45	41249.60
658.60	40954.69
658.74	40999.16
658.88	41425.14
659.03	40910.22
659.17	40341.47
659.31	40259.55
659.46	40760.43
659.60	40783.83
659.74	40779.15
659.89	40404.67
660.03	40367.22
660.17	40840.01
660.32	40634.04
660.46	40376.58
660.60	40048.91
660.74	40137.85
660.89	40381.26
661.03	40259.55
661.17	40231.47
661.32	39934.22
661.46	40538.08
661.60	39725.91
661.74	40030.18
661.89	39887.41
662.03	39889.75
662.17	39995.07
662.31	39374.83
662.46	40020.82
662.60	39782.09
662.74	39243.76
662.88	39601.86
663.03	39049.50
663.17	39477.82
663.31	38836.51
663.45	39098.65
663.60	39576.12
663.74	39674.42
663.88	39398.24
664.02	38939.49
664.17	39585.48
664.31	38897.36
664.45	39061.20
664.59	39379.51
664.73	38962.90
664.88	38909.07
665.02	38754.59
665.16	38770.97
665.30	38520.54
665.44	38927.79
665.59	37949.45
665.73	38682.03
665.87	37809.01
666.01	38455.00
666.15	38560.33
666.29	38160.09
666.44	38455.00
666.58	38295.85
666.72	37972.85
666.86	38522.88
667.00	37874.55
667.14	37666.24
667.28	37853.48
667.43	38452.66
667.57	37923.70
667.71	37890.93
667.85	38094.56
667.99	38003.28
668.13	37191.11
668.27	37092.81
668.41	37640.50
668.56	36912.59
668.70	37219.20
668.84	36748.75
668.98	36795.56
669.12	37113.87
669.26	37401.76
669.40	37244.94
669.54	36957.06
669.68	37212.18
669.82	36751.09
669.96	36861.10
670.10	36416.40
670.25	36453.84
670.39	36608.32
670.53	36811.95
670.67	36467.89
670.81	36825.99
670.95	36392.99
671.09	36231.49
671.23	36325.11
671.37	36177.66
671.51	36694.92
671.65	36205.75
671.79	35700.19
671.93	36048.93
672.07	36219.79
672.21	35803.17
672.35	35747.00
672.49	35531.67
672.63	35737.64
672.77	35236.77
672.91	35466.14
673.05	35407.62
673.19	35330.39
673.33	35232.08
673.47	35182.93
673.61	35192.30
673.75	34611.84
673.89	34384.81
674.03	34859.94
674.17	34490.13
674.31	34293.53
674.45	34469.07
674.59	34548.65
674.73	34511.20
674.87	34190.55
675.01	34115.65
675.15	33759.89
675.29	33827.76
675.43	33607.75
675.56	34330.98
675.70	33713.08
675.84	33322.21
675.98	32488.98
676.12	33432.21
676.26	33993.94
676.40	33415.83
676.54	33357.32
676.68	32772.18
676.82	32954.74
676.96	32893.89
677.10	32919.63
677.23	32950.06
677.37	32999.21
677.51	32842.40
677.65	32453.87
677.79	32161.30
677.93	32280.67
678.07	31910.86
678.21	31842.99
678.34	31948.31
678.48	31943.63
678.62	31604.25
678.76	31510.63
678.90	31440.42
679.04	31812.56
679.18	31377.22
679.31	31173.60
679.45	30810.81
679.59	31250.83
679.73	31152.53
679.87	31051.89
680.00	31063.59
680.14	31061.25
680.28	30628.25
680.42	30632.93
680.56	30396.54
680.70	30192.91
680.83	30267.81
680.97	30370.79
681.11	30108.65
681.25	29804.38
681.39	29888.64
681.52	29776.30
681.66	29366.70
681.80	29289.46
681.94	29020.30
682.07	29560.97
682.21	28718.37
682.35	28952.43
682.49	29113.92
682.62	28964.13
682.76	29146.69
682.90	28669.22
683.04	28643.48
683.17	28514.75
683.31	28325.16
683.45	28390.70
683.59	28236.22
683.72	28187.07
683.86	27971.74
684.00	28128.56
684.13	28224.52
684.27	27524.70
684.41	27555.13
684.55	27728.33
684.68	27353.84
684.82	27250.86
684.96	27583.21
685.09	27314.05
685.23	27276.60
685.37	27534.06
685.50	27180.64
685.64	26951.27
685.78	26862.33
685.91	26616.57
686.05	26682.11
686.19	26167.19
686.32	26192.94
686.46	26045.48
686.60	26008.03
686.73	25998.67
686.87	25905.05
687.01	25785.68
687.14	25855.90
687.28	25867.60
687.42	25450.99
687.55	25607.80
687.69	25481.41
687.82	25184.16
687.96	25062.46
688.10	24945.43
688.23	25113.95
688.37	25039.05
688.50	25090.54
688.64	25013.31
688.78	24980.54
688.91	24837.76
689.05	24561.58
689.18	24446.90
689.32	23735.37
689.46	23733.03
689.59	24173.05
689.73	23981.13
689.86	24229.23
690.00	23880.49
690.13	23819.63
690.27	23826.65
690.41	23810.27
690.54	23442.81
690.68	23199.39
690.81	23145.56
690.95	22993.42
691.08	23147.90
691.22	22569.79
691.35	22698.52
691.49	22932.57
691.62	22841.29
691.76	22735.96
691.89	22029.12
692.03	22122.74
692.16	22099.34
692.30	22211.68
692.43	22391.91
692.57	22017.42
692.70	21853.58
692.84	21832.52
692.97	21708.47
693.11	21769.32
693.24	21085.89
693.38	21509.52
693.51	21310.58
693.65	21142.06
693.78	21142.06
693.92	20947.79
694.05	20805.02
694.19	21139.72
694.32	20877.58
694.45	21003.97
694.59	20929.07
694.72	20875.24
694.86	20549.90
694.99	20519.48
695.13	20016.26
695.26	20582.67
695.39	20159.03
695.53	19599.65
695.66	19590.28
695.80	19901.58
695.93	19957.75
696.07	19449.85
696.20	19056.64
696.33	19147.92
696.47	19176.01
696.60	19300.06
696.73	19049.62
696.87	19410.06
697.00	19211.12
697.14	19220.48
697.27	18539.38
697.40	18827.27
697.54	18604.92
697.67	18494.91
697.80	18686.84
697.94	18607.26
698.07	18567.47
698.21	18246.82
698.34	18125.11
698.47	18150.85
698.61	17846.58
698.74	17680.41
698.87	17671.04
699.01	17706.15
699.14	17692.11
699.27	17619.55
699.40	17645.30
699.54	17245.07
699.67	17511.89
699.80	17518.91
699.94	17219.32
700.07	16966.54
700.20	17097.61
700.34	16671.64
700.47	17156.13
700.60	16987.61
700.73	16762.92
700.87	16606.10
701.00	16479.71
701.13	16332.26
701.26	16458.65
701.40	16226.93
701.53	16070.12
701.66	15995.22
701.79	16184.80
701.93	15978.84
702.06	15571.58
702.19	15424.13
702.32	16032.67
702.46	15899.26
702.59	15669.89
702.72	15758.83
702.85	15700.31
702.99	15559.88
703.12	15234.55
703.25	15201.78
703.38	15082.41
703.51	15073.05
703.65	14967.73
703.78	15016.88
703.91	14782.82
704.04	14579.20
704.17	14408.34
704.31	14689.20
704.44	14668.14
704.57	14553.45
704.70	14328.76
704.83	14331.10
704.96	14277.27
705.10	14136.84
705.23	14127.47
>>>>>End Processed Spectral Data<<<<<
