SpectraSuite Data File
++++++++++++++++++++++++++++++++++++
Date: Fri Oct 25 10:47:42 EDT 2013
User: price-jones
Dark Spectrum Present: No
Reference Spectrum Present: No
Number of Sampled Component Spectra: 1
Spectrometers: USB2+H05261
Integration Time (usec): 100000 (USB2+H05261)
Spectra Averaged: 1 (USB2+H05261)
Boxcar Smoothing: 0 (USB2+H05261)
Correct for Electrical Dark: No (USB2+H05261)
Strobe/Lamp Enabled: No (USB2+H05261)
Correct for Detector Non-linearity: No (USB2+H05261)
Correct for Stray Light: No (USB2+H05261)
Number of Pixels in Processed Spectrum: 2048
>>>>>Begin Processed Spectral Data<<<<<
365.73	91.28
365.92	91.28
366.12	91.28
366.32	74.90
366.52	67.88
366.72	56.17
366.91	49.15
367.11	53.83
367.31	0.00
367.51	60.85
367.70	25.75
367.90	60.85
368.10	35.11
368.30	72.56
368.49	46.81
368.69	53.83
368.89	35.11
369.09	60.85
369.28	51.49
369.48	95.96
369.68	114.69
369.87	98.30
370.07	72.56
370.27	124.05
370.47	168.52
370.66	365.12
370.86	386.19
371.06	416.62
371.25	447.04
371.45	411.93
371.65	449.38
371.84	505.56
372.04	425.98
372.24	477.47
372.44	496.19
372.63	503.22
372.83	491.51
373.03	437.68
373.22	524.28
373.42	521.94
373.62	528.96
373.81	610.88
374.01	528.96
374.21	545.34
374.40	554.71
374.60	514.92
374.79	505.56
374.99	596.84
375.19	566.41
375.38	580.45
375.58	543.00
375.78	571.09
375.97	550.03
376.17	592.16
376.37	575.77
376.56	568.75
376.76	470.45
376.95	524.28
377.15	587.47
377.35	580.45
377.54	634.29
377.74	510.24
377.93	613.22
378.13	641.31
378.33	564.07
378.52	585.13
378.72	571.09
378.91	662.37
379.11	653.01
379.31	615.56
379.50	601.52
379.70	648.33
379.89	655.35
380.09	636.63
380.28	638.97
380.48	683.44
380.68	636.63
380.87	592.16
381.07	629.60
381.26	739.61
381.46	575.77
381.65	678.76
381.85	779.40
382.04	709.18
382.24	678.76
382.43	690.46
382.63	613.22
382.83	695.14
383.02	741.95
383.22	844.93
383.41	753.65
383.61	634.29
383.80	748.97
384.00	772.38
384.19	753.65
384.39	725.57
384.58	716.20
384.78	723.23
384.97	788.76
385.17	702.16
385.36	751.31
385.56	795.78
385.75	716.20
385.95	713.86
386.14	791.10
386.34	821.53
386.53	751.31
386.72	795.78
386.92	868.34
387.11	786.42
387.31	676.41
387.50	826.21
387.70	788.76
387.89	779.40
388.09	809.83
388.28	751.31
388.48	814.51
388.67	880.04
388.86	840.25
389.06	894.08
389.25	901.11
389.45	856.64
389.64	840.25
389.84	1011.11
390.03	931.53
390.22	929.19
390.42	837.91
390.61	952.60
390.81	952.60
391.00	968.98
391.19	931.53
391.39	931.53
391.58	1025.15
391.78	912.81
391.97	990.05
392.16	983.02
392.36	1011.11
392.55	980.68
392.75	1015.79
392.94	985.37
393.13	952.60
393.33	922.17
393.52	933.87
393.71	980.68
393.91	1071.97
394.10	1020.47
394.29	1076.65
394.49	1018.13
394.68	1053.24
394.88	1179.63
395.07	1132.82
395.26	1102.39
395.46	1043.88
395.65	1149.20
395.84	1116.44
396.04	1090.69
396.23	1095.37
396.42	1156.22
396.62	1109.41
396.81	1153.88
397.00	1109.41
397.19	1165.59
397.39	1235.80
397.58	1095.37
397.77	1128.14
397.97	1287.29
398.16	1275.59
398.35	1299.00
398.55	1200.69
398.74	1334.11
398.93	1296.66
399.12	1284.95
399.32	1282.61
399.51	1317.72
399.70	1397.30
399.90	1373.89
400.09	1373.89
400.28	1387.94
400.47	1352.83
400.67	1357.51
400.86	1430.07
401.05	1472.20
401.24	1418.36
401.44	1542.41
401.63	1441.77
401.82	1441.77
402.01	1430.07
402.21	1504.96
402.40	1610.29
402.59	1561.14
402.78	1533.05
402.97	1549.43
403.17	1535.39
403.36	1589.22
403.55	1549.43
403.74	1570.50
403.93	1650.08
404.13	1624.33
404.32	1603.27
404.51	1624.33
404.70	1706.25
404.89	1682.85
405.09	1703.91
405.28	1626.67
405.47	1696.89
405.66	1762.42
405.85	1680.50
406.05	1746.04
406.24	1832.64
406.43	1863.07
406.62	1778.81
406.81	1799.87
407.00	1813.92
407.20	1771.79
407.39	1816.26
407.58	1884.13
407.77	1926.26
407.96	2008.18
408.15	1998.82
408.34	1851.36
408.54	1975.41
408.73	1923.92
408.92	1973.07
409.11	2101.80
409.30	2036.27
409.49	2012.86
409.68	2031.58
409.87	2108.82
410.07	2008.18
410.26	2069.03
410.45	2146.27
410.64	2090.10
410.83	2106.48
411.02	2211.81
411.21	2260.96
411.40	2221.17
411.59	2218.83
411.78	2183.72
411.98	2319.47
412.17	2249.25
412.36	2352.24
412.55	2359.26
412.74	2375.64
412.93	2293.72
413.12	2340.54
413.31	2532.46
413.50	2436.50
413.69	2485.65
413.88	2502.03
414.07	2504.37
414.26	2548.84
414.45	2544.16
414.64	2502.03
414.83	2541.82
415.02	2576.93
415.22	2668.21
415.41	2656.51
415.60	2705.66
415.79	2794.60
415.98	2874.18
416.17	2813.32
416.36	2883.54
416.55	2782.90
416.74	2773.53
416.93	2857.79
417.12	2939.71
417.31	2864.82
417.50	2942.05
417.69	2970.14
417.88	3054.40
418.07	3096.53
418.26	2925.67
418.45	2984.18
418.64	3157.38
418.83	3063.76
419.02	3061.42
419.21	3192.49
419.39	3190.15
419.58	3141.00
419.77	3152.70
419.96	3108.23
420.15	3281.43
420.34	3353.99
420.53	3251.00
420.72	3365.69
420.91	3197.17
421.10	3335.26
421.29	3330.58
421.48	3311.86
421.67	3227.60
421.86	3353.99
422.05	3302.50
422.24	3358.67
422.43	3314.20
422.61	3501.44
422.80	3468.67
422.99	3398.46
423.18	3536.55
423.37	3492.08
423.56	3431.23
423.75	3552.93
423.94	3536.55
424.13	3297.81
424.32	3433.57
424.50	3548.25
424.69	3599.74
424.88	3571.66
425.07	3459.31
425.26	3365.69
425.45	3496.76
425.64	3520.17
425.83	3501.44
426.01	3571.66
426.20	3559.95
426.39	3585.70
426.58	3506.12
426.77	3449.95
426.96	3562.30
427.15	3606.77
427.33	3531.87
427.52	3634.85
427.71	3595.06
427.90	3669.96
428.09	3583.36
428.28	3824.44
428.46	3559.95
428.65	3747.20
428.84	3838.48
429.03	3906.35
429.22	3702.73
429.40	3719.11
429.59	3721.45
429.78	3651.24
429.97	3559.95
430.16	3719.11
430.34	3754.22
430.53	3871.25
430.72	3789.33
430.91	3950.82
431.10	3777.62
431.28	4046.79
431.47	4093.60
431.66	4264.46
431.85	3873.59
432.03	4081.89
432.22	4210.62
432.41	3983.59
432.60	4142.75
432.79	4114.66
432.97	4147.43
433.16	4313.61
433.35	4093.60
433.54	4203.60
433.72	4304.25
433.91	4168.49
434.10	4344.03
434.28	4299.56
434.47	4381.48
434.66	4428.29
434.85	4362.76
435.03	4285.52
435.22	4440.00
435.41	4475.10
435.59	4489.15
435.78	4634.26
435.97	4526.60
436.16	4566.39
436.34	4322.97
436.53	4421.27
436.72	4641.28
436.90	4643.62
437.09	4624.90
437.28	4463.40
437.46	4594.47
437.65	4648.30
437.84	4578.09
438.02	4535.96
438.21	4713.84
438.40	4636.60
438.58	4739.58
438.77	4865.97
438.96	4901.08
439.14	4903.42
439.33	4957.25
439.52	5048.54
439.70	4933.85
439.89	4957.25
440.08	4966.62
440.26	5149.18
440.45	5163.22
440.63	5254.50
440.82	5184.29
441.01	5284.93
441.19	5270.89
441.38	5305.99
441.57	5327.06
441.75	5481.53
441.94	5621.97
442.12	5589.20
442.31	5490.90
442.50	5689.84
442.68	5558.77
442.87	5703.89
443.05	5509.62
443.24	5734.31
443.43	5631.33
443.61	5652.39
443.80	5865.38
443.98	5636.01
444.17	5521.32
444.35	5767.08
444.54	5954.32
444.73	5806.87
444.91	5788.14
445.10	5708.57
445.28	5708.57
445.47	5696.86
445.65	5823.25
445.84	5717.93
446.02	6001.13
446.21	5837.30
446.39	5792.83
446.58	5872.40
446.77	5856.02
446.95	5689.84
447.14	5799.85
447.32	5914.53
447.51	5921.56
447.69	5879.43
447.88	5949.64
448.06	6001.13
448.25	5895.81
448.43	6080.71
448.62	5935.60
448.80	5968.37
448.99	6083.05
449.17	6148.59
449.36	6005.81
449.54	6087.73
449.73	6033.90
449.91	6169.65
450.10	6193.06
450.28	6424.77
450.46	6300.72
450.65	6314.77
450.83	6443.49
451.02	6263.27
451.20	6291.36
451.39	6406.05
451.57	6235.19
451.76	6363.92
451.94	6277.32
452.13	6473.92
452.31	6555.84
452.49	6347.53
452.68	6429.45
452.86	6406.05
453.05	6464.56
453.23	6513.71
453.42	6244.55
453.60	6548.82
453.78	6710.32
453.97	6516.05
454.15	6497.33
454.34	6497.33
454.52	6581.59
454.70	6651.80
454.89	6750.10
455.07	6841.39
455.26	6832.02
455.44	6923.30
455.62	6935.01
455.81	6640.10
455.99	6869.47
456.17	7019.27
456.36	6846.07
456.54	7222.89
456.73	7075.44
456.91	7208.85
457.09	7178.42
457.28	7187.79
457.46	7206.51
457.64	7089.48
457.83	7150.34
458.01	7227.57
458.19	7297.79
458.38	7222.89
458.56	7426.52
458.74	7337.58
458.93	7307.15
459.11	7250.98
459.29	7265.02
459.48	7356.30
459.66	7393.75
459.84	7456.95
460.03	7527.16
460.21	7609.08
460.39	7442.90
460.57	7683.98
460.76	7496.74
460.94	7552.91
461.12	7655.89
461.31	7683.98
461.49	7585.68
461.67	7566.95
461.85	7810.37
462.04	7702.70
462.22	8276.13
462.40	8018.68
462.59	7957.82
462.77	7728.45
462.95	7868.88
463.13	7880.58
463.32	8002.29
463.50	7981.23
463.68	8025.70
463.86	7889.95
464.05	7981.23
464.23	7929.74
464.41	7929.74
464.59	7864.20
464.78	8484.44
464.96	8119.32
465.14	8006.97
465.32	8201.24
465.50	8074.85
465.69	8194.22
465.87	8187.19
466.05	8393.16
466.23	8390.82
466.41	8341.67
466.60	8404.86
466.78	8336.99
466.96	8238.69
467.14	8201.24
467.32	8353.37
467.51	8505.51
467.69	8290.18
467.87	8465.72
468.05	8540.61
468.23	8650.62
468.41	8636.58
468.60	8521.89
468.78	8580.40
468.96	8667.00
469.14	8706.79
469.32	8622.53
469.50	8659.98
469.69	8769.99
469.87	8840.20
470.05	8777.01
470.23	8631.90
470.41	8732.54
470.59	9029.79
470.77	8837.86
470.95	8877.65
471.14	9177.24
471.32	9006.38
471.50	9172.56
471.68	9067.24
471.86	9219.37
472.04	9163.20
472.22	9542.36
472.40	9200.65
472.58	9334.06
472.77	9287.25
472.95	9298.95
473.13	9708.54
473.31	9390.23
473.49	9231.07
473.67	9633.64
473.85	9603.22
474.03	9755.35
474.21	9870.04
474.39	9762.37
474.57	9834.93
474.75	9907.49
474.93	9919.19
475.12	9912.17
475.30	9966.00
475.48	10118.14
475.66	10244.52
475.84	10057.28
476.02	10106.43
476.20	10244.52
476.38	10736.04
476.56	10850.72
476.74	10499.64
476.92	10448.15
477.10	10813.28
477.28	10560.50
477.46	10691.57
477.64	10934.98
477.82	11183.08
478.00	11283.72
478.18	10930.30
478.36	11190.10
478.54	11234.57
478.72	11482.67
478.90	11487.35
479.08	11925.03
479.26	11798.64
479.44	11894.60
479.62	12028.01
479.80	12020.99
479.98	11903.96
480.16	12484.42
480.34	12081.85
480.52	12353.35
480.70	12210.57
480.88	12238.66
481.06	12514.84
481.24	12496.12
481.41	12849.54
481.59	12636.55
481.77	13160.83
481.95	12959.55
482.13	13011.04
482.31	12989.97
482.49	13467.44
482.67	13362.12
482.85	13392.55
483.03	13654.69
483.21	13790.44
483.39	13893.42
483.57	13947.25
483.74	13900.44
483.92	14342.80
484.10	14143.86
484.28	14125.13
484.46	14506.64
484.64	14668.14
484.82	14427.06
485.00	14923.26
485.18	14878.79
485.35	14927.94
485.53	14937.30
485.71	14787.50
485.89	15094.11
486.07	15077.73
486.25	15297.74
486.43	15543.50
486.61	15501.37
486.78	15775.21
486.96	15929.69
487.14	15971.82
487.32	16077.14
487.50	16161.40
487.68	16493.76
487.85	16702.06
488.03	16861.22
488.21	16704.40
488.39	16858.88
488.57	17172.51
488.75	17055.48
488.92	16919.73
489.10	17411.25
489.28	17809.14
489.46	17816.16
489.64	17902.76
489.81	18183.62
489.99	18012.76
490.17	18284.26
490.35	18504.28
490.53	18391.93
490.70	18572.15
490.88	18326.39
491.06	18965.36
491.24	18869.40
491.41	18948.98
491.59	18822.59
491.77	18878.76
491.95	19428.79
492.13	19468.58
492.30	19995.20
492.48	19786.89
492.66	19913.28
492.84	19609.01
493.01	20072.43
493.19	20102.86
493.37	20128.61
493.54	20280.74
493.72	20587.35
493.90	20692.68
494.08	20868.22
494.25	20999.29
494.43	21078.86
494.61	21177.17
494.79	21163.12
494.96	21324.62
495.14	21312.92
495.32	21490.80
495.49	21736.56
495.67	21603.14
495.85	21823.16
496.02	22398.93
496.20	22150.83
496.38	21876.99
496.55	22522.98
496.73	22672.77
496.91	22291.26
497.09	22794.48
497.26	22913.84
497.44	22855.33
497.62	22794.48
497.79	23171.30
497.97	22878.74
498.14	23316.42
498.32	23552.81
498.50	23466.21
498.67	23903.89
498.85	23812.61
499.03	24194.12
499.20	23716.65
499.38	23784.52
499.56	23934.32
499.73	24474.98
499.91	23936.66
500.08	24203.48
500.26	24215.18
500.44	24430.51
500.61	24341.57
500.79	24687.97
500.97	24671.59
501.14	25165.44
501.32	24865.85
501.49	24570.94
501.67	25198.21
501.84	25170.12
502.02	25102.25
502.20	25202.89
502.37	25502.48
502.55	25663.97
502.72	25350.34
502.90	25560.99
503.07	25642.91
503.25	25373.75
503.43	25865.26
503.60	25820.79
503.78	26094.63
503.95	26033.78
504.13	26183.57
504.30	26480.82
504.48	25902.71
504.65	26298.26
504.83	26850.63
505.01	27040.21
505.18	26611.89
505.36	27075.32
505.53	26824.88
505.71	27290.65
505.88	27133.83
506.06	26944.25
506.23	27103.40
506.41	26801.47
506.58	27477.89
506.76	27372.57
506.93	27143.19
507.11	27564.49
507.28	27810.25
507.46	28006.85
507.63	27852.38
507.81	27695.56
507.98	27901.53
508.16	27955.36
508.33	28343.89
508.50	28215.16
508.68	28229.20
508.85	28570.92
509.03	28376.66
509.20	28601.35
509.38	28629.43
509.55	28992.22
509.73	28950.09
509.90	28723.05
510.08	28807.31
510.25	29113.92
510.42	29106.90
510.60	29294.14
510.77	29521.18
510.95	29436.92
511.12	29146.69
511.30	29249.67
511.47	29837.15
511.64	29979.92
511.82	30031.41
511.99	29874.60
512.17	29745.87
512.34	29612.46
512.51	29905.02
512.69	30246.74
512.86	30071.20
513.04	30373.13
513.21	30113.33
513.38	30202.27
513.56	30258.45
513.73	30274.83
513.90	30546.33
514.08	30689.10
514.25	30775.70
514.43	30331.00
514.60	30539.31
514.77	30684.42
514.95	31021.46
515.12	30824.86
515.29	30862.30
515.47	31040.18
515.64	31328.07
515.81	31061.25
515.99	31573.83
516.16	31292.96
516.33	31550.42
516.51	32034.91
516.68	31152.53
516.85	31330.41
517.03	31868.73
517.20	31655.75
517.37	32060.66
517.54	31955.33
517.72	31929.59
517.89	31761.07
518.06	31580.85
518.24	31744.69
518.41	32147.26
518.58	32430.46
518.75	32128.53
518.93	32137.90
519.10	32636.43
519.27	32573.24
519.45	32837.72
519.62	32879.85
519.79	32666.86
519.96	32947.72
520.14	32989.85
520.31	32758.14
520.48	33078.79
520.65	33214.54
520.83	33401.79
521.00	33497.75
521.17	33790.31
521.34	33251.99
521.52	33694.35
521.69	33420.51
521.86	33619.46
522.03	33586.69
522.20	33839.47
522.38	34082.88
522.55	34316.93
522.72	33865.21
522.89	34197.57
523.07	34209.27
523.24	33942.45
523.41	34043.09
523.58	34288.85
523.75	34522.90
523.92	34419.92
524.10	34665.67
524.27	34684.40
524.44	34387.15
524.61	35021.44
524.78	35117.40
524.96	34986.33
525.13	34998.03
525.30	35037.82
525.47	35505.93
525.64	35030.80
525.81	34962.92
525.98	35093.99
526.16	35496.56
526.33	35033.14
526.50	35220.38
526.67	35044.84
526.84	35421.67
527.01	35047.18
527.18	35639.34
527.36	36032.55
527.53	35536.35
527.70	35812.54
527.87	36334.48
528.04	35693.17
528.21	36121.49
528.38	35854.67
528.55	36044.25
528.72	36383.63
528.89	36095.74
529.07	36158.94
529.24	36378.95
529.41	36254.90
529.58	36205.75
529.75	36432.78
529.92	36432.78
530.09	36488.95
530.26	36624.70
530.43	36584.91
530.60	36385.97
530.77	36437.46
530.94	36989.83
531.11	36914.93
531.28	36823.65
531.46	37083.45
531.63	37209.84
531.80	36818.97
531.97	36959.40
532.14	37120.90
532.31	36772.16
532.48	36830.67
532.65	37254.31
532.82	37237.92
532.99	37479.00
533.16	36933.65
533.33	37134.94
533.50	37696.67
533.67	37525.81
533.84	37408.78
534.01	37897.95
534.18	37474.32
534.35	37738.80
534.52	37860.51
534.69	37759.86
534.86	38129.67
535.03	37834.76
535.20	38169.46
535.37	37921.36
535.54	38684.37
535.71	38115.62
535.88	38124.99
536.05	38120.31
536.22	38136.69
536.38	38314.57
536.55	38403.51
536.72	38653.95
536.89	38003.28
537.06	38445.64
537.23	38813.10
537.40	38012.64
537.57	38466.70
537.74	38693.74
537.91	38904.38
538.08	38815.44
538.25	38415.21
538.42	38457.34
538.59	38866.94
538.75	38354.36
538.92	38897.36
539.09	39206.31
539.26	39232.06
539.43	39414.62
539.60	38803.74
539.77	38876.30
539.94	39267.17
540.11	38541.60
540.28	38883.32
540.44	38623.52
540.61	38930.13
540.78	39412.28
540.95	38850.55
541.12	39426.32
541.29	39360.79
541.46	39456.75
541.62	39473.13
541.79	39742.30
541.96	39407.60
542.13	39115.03
542.30	39791.45
542.47	39875.71
542.63	39524.63
542.80	39505.90
542.97	40095.72
543.14	40837.67
543.31	40512.33
543.48	40533.40
543.64	40802.56
543.81	40381.26
543.98	40432.75
544.15	39892.09
544.32	40411.69
544.48	40542.76
544.65	40449.14
544.82	40355.52
544.99	40140.19
545.16	40250.19
545.32	40664.47
545.49	41153.64
545.66	40772.13
545.83	40772.13
546.00	41038.95
546.16	40758.09
546.33	40910.22
546.50	40315.73
546.67	41191.09
546.83	40315.73
547.00	40896.18
547.17	41151.30
547.34	40832.99
547.50	41413.44
547.67	41736.43
547.84	41024.91
548.00	41268.33
548.17	41624.09
548.34	41394.71
548.51	41399.40
548.67	41490.68
548.84	41478.97
549.01	41146.62
549.18	41698.98
549.34	41413.44
549.51	41443.87
549.68	41605.36
549.84	41553.87
550.01	41659.20
550.18	41638.13
550.34	41542.17
550.51	41577.28
550.68	41972.83
550.84	41312.80
551.01	41937.72
551.18	41628.77
551.34	42103.90
551.51	41947.08
551.68	41556.21
551.84	42286.46
552.01	41902.61
552.18	42068.79
552.34	41937.72
552.51	42351.99
552.68	42103.90
552.84	42426.89
553.01	42169.43
553.18	41982.19
553.34	41834.74
553.51	42024.32
553.67	42082.83
553.84	42167.09
554.01	42775.63
554.17	42536.90
554.34	42693.71
554.51	42625.84
554.67	42759.25
554.84	42366.04
555.00	42340.29
555.17	42443.27
555.33	42036.02
555.50	42768.61
555.67	42588.39
555.83	42621.16
556.00	42450.30
556.16	43227.35
556.33	42710.10
556.50	42724.14
556.66	42787.33
556.83	42478.38
556.99	43061.18
557.16	43005.00
557.32	43269.48
557.49	43159.48
557.65	42925.42
557.82	42902.02
557.98	42590.73
558.15	42983.94
558.32	42887.98
558.48	42918.40
558.65	43285.87
558.81	43058.84
558.98	42611.79
559.14	42817.76
559.31	43044.79
559.47	42820.10
559.64	43210.97
559.80	43515.24
559.97	43302.25
560.13	43353.74
560.30	43576.09
560.46	43203.95
560.63	43379.49
560.79	43246.08
560.96	43725.89
561.12	43405.23
561.29	43079.90
561.45	43075.22
561.61	43320.98
561.78	43601.84
561.94	43110.33
562.11	43470.77
562.27	43093.94
562.44	43405.23
562.60	43697.80
562.77	43374.81
562.93	43192.25
563.10	43969.30
563.26	43447.36
563.42	43194.59
563.59	43482.47
563.75	43468.43
563.92	44039.52
564.08	43545.67
564.24	43721.21
564.41	43491.83
564.57	43861.64
564.74	43508.22
564.90	43772.70
565.07	43643.97
565.23	43487.15
565.39	43496.52
565.56	43650.99
565.72	43746.95
565.88	43824.19
566.05	43889.73
566.21	43381.83
566.38	43550.35
566.54	44079.31
566.70	43800.79
566.87	44027.82
567.03	43800.79
567.19	44182.29
567.36	44112.08
567.52	43700.14
567.68	44163.57
567.85	43676.74
568.01	43791.42
568.17	44091.01
568.34	44325.07
568.50	43772.70
568.66	43959.94
568.83	44404.64
568.99	43124.37
569.15	43728.23
569.32	44240.81
569.48	43676.74
569.64	44495.92
569.81	44397.62
569.97	43679.08
570.13	44224.42
570.30	44086.33
570.46	44210.38
570.62	43899.09
570.78	43945.90
570.95	43906.11
571.11	44341.45
571.27	43990.37
571.43	43765.68
571.60	44236.12
571.76	44116.76
571.92	43938.88
572.09	43819.51
572.25	44023.14
572.41	44006.75
572.57	44041.86
572.74	44626.99
572.90	44301.66
573.06	44289.96
573.22	44149.53
573.38	44428.05
573.55	43721.21
573.71	44313.36
573.87	44383.58
574.03	44177.61
574.20	44100.37
574.36	44030.16
574.52	44442.09
574.68	44437.41
574.84	43889.73
575.01	43627.59
575.17	43838.23
575.33	43924.83
575.49	44030.16
575.65	44362.51
575.82	44062.93
575.98	44381.24
576.14	44414.01
576.30	44807.22
576.46	44362.51
576.62	43746.95
576.79	44217.40
576.95	44119.10
577.11	44378.90
577.27	44332.09
577.43	44383.58
577.59	44648.06
577.75	44631.68
577.92	44198.68
578.08	44086.33
578.24	44236.12
578.40	44240.81
578.56	44287.62
578.72	44266.55
578.88	44425.71
579.04	44498.26
579.21	44514.65
579.37	44346.13
579.53	44072.29
579.69	44231.44
579.85	44390.60
580.01	44210.38
580.17	44622.31
580.33	44456.14
580.49	44481.88
580.65	44737.00
580.82	44409.32
580.98	44261.87
581.14	44191.65
581.30	44488.90
581.46	44446.77
581.62	44835.30
581.78	44545.08
581.94	44959.35
582.10	44786.15
582.26	44334.43
582.42	44135.48
582.58	44753.38
582.74	44397.62
582.90	44624.65
583.06	44514.65
583.22	44605.93
583.38	44804.88
583.54	44626.99
583.70	44421.03
583.86	44552.10
584.02	44126.12
584.18	44968.71
584.34	44343.79
584.50	44879.77
584.66	44549.76
584.82	43831.21
584.98	44589.55
585.14	44662.10
585.30	44208.04
585.46	44435.07
585.62	44030.16
585.78	44568.48
585.94	43950.58
586.10	44404.64
586.26	44315.70
586.42	44514.65
586.58	44655.08
586.74	44907.86
586.90	44526.35
587.06	44079.31
587.22	44428.05
587.38	44376.56
587.54	44516.99
587.70	45006.16
587.86	44519.33
588.02	44540.39
588.18	44711.25
588.34	44264.21
588.49	43901.43
588.65	44170.59
588.81	43885.04
588.97	44378.90
589.13	44589.55
589.29	44737.00
589.45	44596.57
589.61	44737.00
589.77	44744.02
589.93	44697.21
590.08	45001.48
590.24	44524.01
590.40	44954.67
590.56	44954.67
590.72	44577.84
590.88	44678.49
591.04	44498.26
591.20	44619.97
591.35	44928.92
591.51	45221.49
591.67	44762.75
591.83	44872.75
591.99	44547.42
592.15	44760.40
592.31	44987.44
592.46	44612.95
592.62	44549.76
592.78	44933.60
592.94	44676.15
593.10	44610.61
593.26	45074.04
593.41	44996.80
593.57	44748.70
593.73	44795.51
593.89	44563.80
594.05	44795.51
594.20	44865.73
594.36	45078.72
594.52	45071.70
594.68	44935.95
594.84	44535.71
594.99	45219.15
595.15	44690.19
595.31	44971.05
595.47	44545.08
595.62	44774.45
595.78	45268.30
595.94	44968.71
596.10	45371.28
596.25	45055.31
596.41	44605.93
596.57	45375.97
596.73	45174.68
596.88	44706.57
597.04	44545.08
597.20	44940.63
597.36	44996.80
597.51	44928.92
597.67	44957.01
597.83	45202.77
597.99	45390.01
598.14	44851.69
598.30	45127.87
598.46	45034.25
598.61	45333.84
598.77	44397.62
598.93	44975.73
599.09	44566.14
599.24	45296.39
599.40	45502.35
599.56	45378.31
599.71	45067.02
599.87	45298.73
600.03	44556.78
600.18	44994.46
600.34	45137.23
600.50	44865.73
600.65	44882.11
600.81	45474.27
600.97	45591.30
601.12	45254.26
601.28	44971.05
601.44	45008.50
601.59	45446.18
601.75	44821.26
601.91	44776.79
602.06	45102.12
602.22	45045.95
602.37	45017.86
602.53	45113.83
602.69	45322.13
602.84	45167.66
603.00	44985.10
603.16	45043.61
603.31	44898.50
603.47	44933.60
603.62	44814.24
603.78	45027.23
603.94	44994.46
604.09	45263.62
604.25	44928.92
604.40	44975.73
604.56	44758.06
604.71	44601.25
604.87	44552.10
605.03	44839.98
605.18	44678.49
605.34	44573.16
605.49	44685.51
605.65	44786.15
605.80	44781.47
605.96	44699.55
606.12	45394.69
606.27	44856.37
606.43	44788.49
606.58	44961.69
606.74	44774.45
606.89	45020.20
607.05	45223.83
607.20	44987.44
607.36	44851.69
607.51	44830.62
607.67	44818.92
607.82	44641.04
607.98	44500.61
608.13	44612.95
608.29	44477.20
608.44	44428.05
608.60	44388.26
608.75	44355.49
608.91	44301.66
609.06	44348.47
609.22	44821.26
609.37	44545.08
609.53	44818.92
609.68	44423.37
609.84	44882.11
609.99	44449.11
610.15	44369.54
610.30	44086.33
610.46	44325.07
610.61	44467.84
610.76	44488.90
610.92	44163.57
611.07	44268.89
611.23	44432.73
611.38	44809.56
611.54	44325.07
611.69	44135.48
611.84	44217.40
612.00	44414.01
612.15	44252.51
612.31	44062.93
612.46	44198.68
612.62	44332.09
612.77	44332.09
612.92	44425.71
613.08	44083.99
613.23	43999.73
613.39	44130.80
613.54	43988.03
613.69	44023.14
613.85	44140.16
614.00	44509.97
614.15	44320.38
614.31	43985.69
614.46	44219.74
614.62	44081.65
614.77	43536.30
614.92	43945.90
615.08	43789.08
615.23	44261.87
615.38	43941.22
615.54	43723.55
615.69	43571.41
615.84	43290.55
616.00	43709.50
616.15	44189.31
616.30	43995.05
616.46	43503.54
616.61	43800.79
616.76	43711.84
616.92	43358.42
617.07	43491.83
617.22	43253.10
617.37	43587.80
617.53	43737.59
617.68	43438.00
617.83	43648.65
617.99	43885.04
618.14	43056.50
618.29	43543.33
618.45	43178.20
618.60	43559.71
618.75	43796.10
618.90	43447.36
619.06	43459.07
619.21	43192.25
619.36	43372.47
619.51	43056.50
619.67	43328.00
619.82	43363.11
619.97	43634.61
620.12	42997.98
620.28	42749.88
620.43	43278.85
620.58	42920.74
620.73	43173.52
620.89	43084.58
621.04	43168.84
621.19	42883.30
621.34	42965.21
621.49	42906.70
621.65	42660.94
621.80	43096.28
621.95	42801.38
622.10	42831.80
622.25	43143.09
622.41	42555.62
622.56	42766.27
622.71	42876.27
622.86	42862.23
623.01	43278.85
623.16	43023.73
623.32	42869.25
623.47	43173.52
623.62	42714.78
623.77	42494.77
623.92	42916.06
624.07	42183.48
624.23	42405.83
624.38	42534.56
624.53	42321.57
624.68	42698.39
624.83	42829.46
624.98	42422.21
625.13	42583.71
625.29	42497.11
625.44	42569.66
625.59	42122.62
625.74	42202.20
625.89	41827.71
626.04	41982.19
626.19	41989.21
626.34	42478.38
626.49	42314.55
626.65	41825.37
626.80	42206.88
626.95	42398.80
627.10	42202.20
627.25	41766.86
627.40	41773.88
627.55	41708.35
627.70	41591.32
627.85	41890.91
628.00	41862.82
628.15	42302.84
628.30	41724.73
628.45	41635.79
628.60	41610.04
628.76	42129.64
628.91	41820.69
629.06	41289.39
629.21	41851.12
629.36	41729.41
629.51	41151.30
629.66	41273.01
629.81	41148.96
629.96	41621.75
630.11	41146.62
630.26	41612.38
630.41	41801.97
630.56	41645.15
630.71	41486.00
630.86	40900.86
631.01	40975.76
631.16	41200.45
631.31	40863.41
631.46	41001.50
631.61	41378.33
631.76	41123.21
631.91	41518.76
632.06	41170.02
632.21	40959.38
632.36	41312.80
632.51	41071.72
632.66	41324.50
632.81	40875.12
632.96	41184.07
633.10	40704.26
633.25	40320.41
633.40	40739.36
633.55	40734.68
633.70	41275.35
633.85	40896.18
634.00	40570.85
634.15	40650.42
634.30	40673.83
634.45	40896.18
634.60	40591.91
634.75	40479.57
634.90	40343.81
635.05	40456.16
635.19	40645.74
635.34	40832.99
635.49	40624.68
635.64	40177.64
635.79	39948.26
635.94	40474.88
636.09	40395.31
636.24	40594.25
636.39	40109.76
636.53	40215.08
636.68	40032.52
636.83	40460.84
636.98	40252.53
637.13	40126.14
637.28	40465.52
637.43	40514.67
637.57	40563.82
637.72	40109.76
637.87	40058.27
638.02	40126.14
638.17	39931.88
638.32	39941.24
638.46	40142.53
638.61	40102.74
638.76	39849.96
638.91	40121.46
639.06	39908.47
639.20	40313.39
639.35	40161.25
639.50	39573.78
639.65	40264.24
639.80	40112.10
639.94	39999.76
640.09	39945.92
640.24	39770.38
640.39	39683.78
640.54	39496.54
640.68	39468.45
640.83	39679.10
640.98	39381.85
641.13	39812.51
641.27	40240.83
641.42	39269.51
641.57	39732.93
641.72	39526.97
641.86	39100.99
642.01	39283.55
642.16	39007.37
642.31	38998.01
642.45	39306.96
642.60	39281.21
642.75	39044.82
642.90	39363.13
643.04	39299.94
643.19	39274.19
643.34	39622.93
643.48	39079.92
643.63	39248.44
643.78	39260.15
643.93	38775.66
644.07	39016.73
644.22	38569.69
644.37	38525.22
644.51	38895.02
644.66	38780.34
644.81	38967.58
644.95	38885.66
645.10	38705.44
645.25	38768.63
645.39	39321.00
645.54	39175.89
645.69	38508.83
645.83	38593.09
645.98	38621.18
646.13	38492.45
646.27	38543.94
646.42	39005.03
646.57	39108.01
646.71	38302.87
646.86	38986.30
647.00	39358.45
647.15	38728.84
647.30	39047.16
647.44	38349.68
647.59	38356.70
647.74	38536.92
647.88	38586.07
648.03	38309.89
648.17	38199.88
648.32	38366.06
648.47	38349.68
648.61	38438.62
648.76	38380.10
648.90	38532.24
649.05	38190.52
649.20	38312.23
649.34	38279.46
649.49	38347.34
649.63	38391.81
649.78	38211.59
649.92	38518.20
650.07	38497.13
650.21	38146.05
650.36	38213.93
650.51	38099.24
650.65	38911.41
650.80	38565.01
650.94	38300.53
651.09	38405.85
651.23	38417.55
651.38	37886.25
651.52	37467.30
651.67	37937.74
651.81	38319.25
651.96	37340.91
652.10	37881.57
652.25	37792.63
652.39	37684.97
652.54	38150.73
652.68	37528.15
652.83	37261.33
652.97	38110.94
653.12	37560.92
653.26	37879.23
653.41	37612.41
653.55	37600.71
653.70	37179.41
653.84	37490.70
653.99	37429.85
654.13	37464.96
654.27	37708.37
654.42	37022.59
654.56	37230.90
654.71	38010.30
654.85	37455.59
655.00	37413.46
655.14	36957.06
655.29	37120.90
655.43	36980.46
655.57	37062.38
655.72	36744.07
655.86	37085.79
656.01	37055.36
656.15	37191.11
656.30	37071.75
656.44	36835.35
656.58	37013.23
656.73	36769.82
656.87	36744.07
657.01	36659.81
657.16	36395.33
657.30	36442.14
657.45	36378.95
657.59	36453.84
657.73	36208.09
657.88	36779.18
658.02	36025.53
658.16	36725.35
658.31	36458.52
658.45	36816.63
658.60	36540.44
658.74	36077.02
658.88	36678.54
659.03	36236.17
659.17	36172.98
659.31	36184.68
659.46	36020.84
659.60	35913.18
659.74	36545.12
659.89	35889.77
660.03	35969.35
660.17	35999.78
660.32	35959.99
660.46	36467.89
660.60	36147.23
660.74	36231.49
660.89	35903.82
661.03	35711.89
661.17	35938.93
661.32	35112.72
661.46	35538.69
661.60	35491.88
661.74	35782.11
661.89	35826.58
662.03	35409.96
662.17	35353.79
662.31	35243.79
662.46	35622.95
662.60	35175.91
662.74	35227.40
662.88	35260.17
663.03	35267.19
663.17	35274.21
663.31	34593.12
663.45	34888.03
663.60	35143.14
663.74	34396.51
663.88	34794.40
664.02	34763.98
664.17	34946.54
664.31	34628.23
664.45	35033.14
664.59	34787.38
664.73	34623.54
664.88	34462.05
665.02	34010.32
665.16	34288.85
665.30	34749.93
665.44	34665.67
665.59	34082.88
665.73	34298.21
665.87	34017.35
666.01	34270.12
666.15	34223.31
666.29	34380.13
666.44	34244.38
666.58	34103.95
666.72	33666.27
666.86	33886.28
667.00	33893.30
667.14	33586.69
667.28	33869.89
667.43	33883.94
667.57	33827.76
667.71	33565.62
667.85	33027.30
667.99	33549.24
668.13	33228.59
668.27	33481.36
668.41	33743.50
668.56	33076.45
668.70	33205.18
668.84	33259.01
668.98	32800.27
669.12	32987.51
669.26	33294.12
669.40	33071.77
669.54	32828.35
669.68	32751.12
669.82	32828.35
669.96	32835.38
670.10	32283.01
670.25	32994.53
670.39	32811.97
670.53	32751.12
670.67	32470.25
670.81	32327.48
670.95	32472.59
671.09	32556.85
671.23	32723.03
671.37	32582.60
671.51	32414.08
671.65	32268.97
671.79	31674.47
671.93	31880.44
672.07	32093.43
672.21	32233.86
672.35	31796.18
672.49	31702.56
672.63	31473.18
672.77	31700.22
672.91	31566.81
673.05	31744.69
673.19	31512.97
673.33	31377.22
673.47	31339.77
673.61	31431.05
673.75	31164.23
673.89	30836.56
674.03	30719.53
674.17	30735.92
674.31	30764.00
674.45	30684.42
674.59	30733.57
674.73	30965.29
674.87	30785.07
675.01	30504.20
675.15	30642.29
675.29	30724.21
675.43	30689.10
675.56	30309.94
675.70	30380.15
675.84	30433.99
675.98	29495.43
676.12	30499.52
676.26	29500.11
676.40	29792.68
676.54	29589.05
676.68	29642.88
676.82	29202.86
676.96	29582.03
677.10	29284.78
677.23	29310.53
677.37	29436.92
677.51	29116.26
677.65	29289.46
677.79	29027.32
677.93	29041.37
678.07	28678.58
678.21	28950.09
678.34	28819.02
678.48	28589.64
678.62	28383.68
678.76	28442.19
678.90	28072.39
679.04	27936.63
679.18	28294.74
679.31	27683.86
679.45	27667.47
679.59	27901.53
679.73	27725.99
679.87	27601.94
680.00	27543.42
680.14	27321.07
680.28	27344.48
680.42	27435.76
680.56	27463.85
680.70	27014.46
680.83	27098.72
680.97	26771.05
681.11	26604.87
681.25	26822.54
681.39	26855.31
681.52	26724.24
681.66	26838.92
681.80	26623.59
681.94	26478.48
682.07	26441.03
682.21	26239.75
682.35	26143.78
682.49	26267.83
682.62	26455.08
682.76	25834.83
682.90	26075.91
683.04	26045.48
683.17	25692.06
683.31	25792.70
683.45	25642.91
683.59	25624.18
683.72	25123.31
683.86	25092.88
684.00	24844.79
684.13	25181.82
684.27	25247.36
684.41	25348.00
684.55	24987.56
684.68	24863.51
684.82	24727.76
684.96	25025.01
685.09	24723.08
685.23	24102.84
685.37	24748.82
685.50	24264.33
685.64	24156.67
685.78	23997.51
685.91	23985.81
686.05	23913.25
686.19	23496.64
686.32	23779.84
686.46	23391.31
686.60	23513.02
686.73	23438.12
686.87	23585.58
687.01	23442.81
687.14	23253.22
687.28	23091.73
687.42	23147.90
687.55	22857.67
687.69	22831.93
687.82	22782.77
687.96	22738.30
688.10	22761.71
688.23	22824.90
688.37	22366.16
688.50	22134.45
688.64	22132.11
688.78	22263.18
688.91	21933.16
689.05	22291.26
689.18	22134.45
689.32	22115.72
689.46	21781.03
689.59	22122.74
689.73	21930.82
689.86	21619.53
690.00	21799.75
690.13	21467.39
690.27	21345.69
690.41	21303.56
690.54	21289.51
690.68	21238.02
690.81	20655.23
690.95	20985.24
691.08	21095.25
691.22	20634.16
691.35	20751.19
691.49	20748.85
691.62	20814.38
691.76	20779.28
691.89	20854.17
692.03	20367.34
692.16	20208.19
692.30	20250.32
692.43	20168.40
692.57	20149.67
692.70	20039.67
692.84	19896.89
692.97	19819.66
693.11	19632.41
693.24	19543.47
693.38	19707.31
693.51	19419.42
693.65	19557.52
693.78	19618.37
693.92	19438.15
694.05	19183.03
694.19	19243.88
694.32	18984.09
694.45	19290.70
694.59	18991.11
694.72	18750.03
694.86	18876.42
694.99	18628.32
695.13	18494.91
695.26	18396.61
695.39	17994.04
695.53	18258.52
695.66	18185.96
695.80	18225.75
695.93	18293.63
696.07	17980.00
696.20	18157.88
696.33	17888.71
696.47	17954.25
696.60	17706.15
696.73	17598.49
696.87	17631.26
697.00	17722.54
697.14	17446.35
697.27	17532.95
697.40	17268.47
697.54	17212.30
697.67	17015.69
697.80	17020.38
697.94	17256.77
698.07	17018.04
698.21	17142.08
698.34	17041.44
698.47	16720.79
698.61	16402.47
698.74	16439.92
698.87	16570.99
699.01	16589.72
699.14	16297.15
699.27	16217.57
699.40	16353.32
699.54	16046.71
699.67	16161.40
699.80	15908.62
699.94	15992.88
700.07	16065.44
700.20	16053.73
700.34	15775.21
700.47	15606.69
700.60	15779.89
700.73	15861.81
700.87	15529.45
701.00	15360.94
701.13	15367.96
701.26	15353.91
701.40	15414.77
701.53	15417.11
701.66	15049.64
701.79	14988.79
701.93	14925.60
702.06	14815.59
702.19	14595.58
702.32	14827.29
702.46	14618.99
702.59	14789.85
702.72	14682.18
702.85	14707.93
702.99	14588.56
703.12	14576.86
703.25	14555.79
703.38	14473.87
703.51	14345.14
703.65	14211.73
703.78	13973.00
703.91	14080.66
704.04	14031.51
704.17	13954.27
704.31	13944.91
704.44	13640.64
704.57	13631.28
704.70	13729.58
704.83	13598.51
704.96	13441.70
705.10	13745.97
705.23	13745.97
>>>>>End Processed Spectral Data<<<<<
