SpectraSuite Data File
++++++++++++++++++++++++++++++++++++
Date: Fri Oct 25 10:47:38 EDT 2013
User: price-jones
Dark Spectrum Present: No
Reference Spectrum Present: No
Number of Sampled Component Spectra: 1
Spectrometers: USB2+H05261
Integration Time (usec): 100000 (USB2+H05261)
Spectra Averaged: 1 (USB2+H05261)
Boxcar Smoothing: 0 (USB2+H05261)
Correct for Electrical Dark: No (USB2+H05261)
Strobe/Lamp Enabled: No (USB2+H05261)
Correct for Detector Non-linearity: No (USB2+H05261)
Correct for Stray Light: No (USB2+H05261)
Number of Pixels in Processed Spectrum: 2048
>>>>>Begin Processed Spectral Data<<<<<
365.73	156.82
365.92	156.82
366.12	156.82
366.32	32.77
366.52	44.47
366.72	53.83
366.91	0.00
367.11	60.85
367.31	0.00
367.51	79.58
367.70	14.04
367.90	70.22
368.10	98.30
368.30	23.41
368.49	0.00
368.69	81.92
368.89	79.58
369.09	65.54
369.28	51.49
369.48	79.58
369.68	81.92
369.87	140.43
370.07	110.01
370.27	243.42
370.47	149.79
370.66	404.91
370.86	451.72
371.06	454.06
371.25	547.69
371.45	451.72
371.65	383.85
371.84	388.53
372.04	458.74
372.24	437.68
372.44	498.53
372.63	531.30
372.83	540.66
373.03	531.30
373.22	465.77
373.42	472.79
373.62	564.07
373.81	538.32
374.01	566.41
374.21	610.88
374.40	578.11
374.60	545.34
374.79	615.56
374.99	535.98
375.19	585.13
375.38	557.05
375.58	578.11
375.78	643.65
375.97	662.37
376.17	648.33
376.37	554.71
376.56	484.49
376.76	594.50
376.95	592.16
377.15	521.94
377.35	589.82
377.54	643.65
377.74	557.05
377.93	571.09
378.13	631.94
378.33	662.37
378.52	610.88
378.72	631.94
378.91	645.99
379.11	685.78
379.31	624.92
379.50	636.63
379.70	667.05
379.89	720.88
380.09	603.86
380.28	645.99
380.48	692.80
380.68	669.39
380.87	627.26
381.07	713.86
381.26	685.78
381.46	730.25
381.65	622.58
381.85	610.88
382.04	648.33
382.24	716.20
382.43	664.71
382.63	685.78
382.83	552.37
383.02	709.18
383.22	788.76
383.41	781.74
383.61	748.97
383.80	727.91
384.00	660.03
384.19	767.70
384.39	772.38
384.58	706.84
384.78	746.63
384.97	725.57
385.17	758.33
385.36	809.83
385.56	812.17
385.75	730.25
385.95	795.78
386.14	842.59
386.34	767.70
386.53	828.55
386.72	798.12
386.92	931.53
387.11	861.32
387.31	858.98
387.50	772.38
387.70	873.02
387.89	891.74
388.09	940.90
388.28	814.51
388.48	812.17
388.67	866.00
388.86	917.49
389.06	861.32
389.25	882.38
389.45	851.96
389.64	807.48
389.84	910.47
390.03	912.81
390.22	807.48
390.42	849.61
390.61	938.55
390.81	1020.47
391.00	940.90
391.19	1057.92
391.39	1055.58
391.58	966.64
391.78	952.60
391.97	985.37
392.16	985.37
392.36	1018.13
392.55	992.39
392.75	980.68
392.94	929.19
393.13	997.07
393.33	994.73
393.52	938.55
393.71	1057.92
393.91	1093.03
394.10	1039.20
394.29	1132.82
394.49	1053.24
394.68	1135.16
394.88	1109.41
395.07	1186.65
395.26	1149.20
395.46	1071.97
395.65	1170.27
395.84	1167.93
396.04	1200.69
396.23	1125.80
396.42	1100.05
396.62	1123.46
396.81	1160.91
397.00	1055.58
397.19	1142.18
397.39	1158.57
397.58	1284.95
397.77	1221.76
397.97	1287.29
398.16	1315.38
398.35	1383.26
398.55	1249.85
398.74	1385.60
398.93	1322.40
399.12	1369.21
399.32	1315.38
399.51	1465.18
399.70	1416.02
399.90	1329.42
400.09	1437.09
400.28	1423.05
400.47	1404.32
400.67	1369.21
400.86	1371.55
401.05	1479.22
401.24	1544.75
401.44	1500.28
401.63	1558.80
401.82	1598.59
402.01	1441.77
402.21	1540.07
402.40	1523.69
402.59	1561.14
402.78	1603.27
402.97	1650.08
403.17	1537.73
403.36	1626.67
403.55	1624.33
403.74	1762.42
403.93	1687.53
404.13	1729.66
404.32	1748.38
404.51	1610.29
404.70	1668.80
404.89	1577.52
405.09	1825.62
405.28	1685.19
405.47	1839.66
405.66	1783.49
405.85	1687.53
406.05	1764.76
406.24	1809.23
406.43	1860.73
406.62	1849.02
406.81	1884.13
407.00	1956.69
407.20	1863.07
407.39	1893.49
407.58	1823.28
407.77	1926.26
407.96	2071.37
408.15	2040.95
408.34	2118.18
408.54	2003.50
408.73	2015.20
408.92	2083.08
409.11	2047.97
409.30	2115.84
409.49	2106.48
409.68	2038.61
409.87	2113.50
410.07	2101.80
410.26	2136.91
410.45	2162.66
410.64	2211.81
410.83	2214.15
411.02	2223.51
411.21	2382.67
411.40	2377.98
411.59	2282.02
411.78	2389.69
411.98	2352.24
412.17	2392.03
412.36	2583.95
412.55	2380.32
412.74	2511.39
412.93	2473.95
413.12	2434.16
413.31	2525.44
413.50	2532.46
413.69	2588.63
413.88	2574.59
414.07	2466.92
414.26	2644.81
414.45	2654.17
414.64	2724.38
414.83	2750.13
415.02	2885.88
415.22	2792.26
415.41	2857.79
415.60	2818.00
415.79	2916.31
415.98	2862.48
416.17	2902.26
416.36	2876.52
416.55	2897.58
416.74	3023.97
416.93	2923.33
417.12	3038.02
417.31	3023.97
417.50	3077.80
417.69	3075.46
417.88	3131.64
418.07	3164.40
418.26	3143.34
418.45	3206.53
418.64	3276.75
418.83	3344.63
419.02	3145.68
419.21	3335.26
419.39	3269.73
419.58	3197.17
419.77	3148.02
419.96	3349.31
420.15	3419.52
420.34	3375.05
420.53	3328.24
420.72	3382.07
420.91	3426.54
421.10	3414.84
421.29	3506.12
421.48	3349.31
421.67	3641.87
421.86	3468.67
422.05	3506.12
422.24	3456.97
422.43	3672.30
422.61	3468.67
422.80	3609.11
422.99	3578.68
423.18	3604.42
423.37	3606.77
423.56	3543.57
423.75	3585.70
423.94	3536.55
424.13	3361.01
424.32	3403.14
424.50	3529.53
424.69	3674.64
424.88	3749.54
425.07	3501.44
425.26	3623.15
425.45	3613.79
425.64	3634.85
425.83	3515.48
426.01	3641.87
426.20	3548.25
426.39	3700.39
426.58	3730.81
426.77	3609.11
426.96	3733.15
427.15	3641.87
427.33	3669.96
427.52	3728.47
427.71	3854.86
427.90	3730.81
428.09	3794.01
428.28	3796.35
428.46	3808.05
428.65	3852.52
428.84	3850.18
429.03	4021.04
429.22	3770.60
429.40	3892.31
429.59	3934.44
429.78	3866.56
429.97	3667.62
430.16	3693.37
430.34	3925.08
430.53	3803.37
430.72	3985.93
430.91	4030.40
431.10	4184.88
431.28	3969.55
431.47	4159.13
431.66	4264.46
431.85	4159.13
432.03	4287.86
432.22	4465.74
432.41	4311.27
432.60	4219.99
432.79	4238.71
432.97	4482.13
433.16	4435.32
433.35	4222.33
433.54	4290.20
433.72	4369.78
433.91	4168.49
434.10	4259.78
434.28	4322.97
434.47	4416.59
434.66	4397.87
434.85	4744.27
435.03	4613.20
435.22	4444.68
435.41	4629.58
435.59	4641.28
435.78	4493.83
435.97	4657.67
436.16	4772.35
436.34	4788.74
436.53	4725.54
436.72	4884.70
436.90	4711.50
437.09	4779.37
437.28	4734.90
437.46	4697.46
437.65	4601.49
437.84	4786.40
438.02	4730.22
438.21	4751.29
438.40	4709.16
438.58	4889.38
438.77	4943.21
438.96	4891.72
439.14	5135.14
439.33	5057.90
439.52	5195.99
439.70	5062.58
439.89	5240.46
440.08	5174.92
440.26	5231.10
440.45	5298.97
440.63	5476.85
440.82	5460.47
441.01	5423.02
441.19	5554.09
441.38	5521.32
441.57	5624.31
441.75	5722.61
441.94	5696.86
442.12	5816.23
442.31	5769.42
442.50	5813.89
442.68	5682.82
442.87	5872.40
443.05	5804.53
443.24	5954.32
443.43	5830.27
443.61	5949.64
443.80	6122.84
443.98	5722.61
444.17	5715.59
444.35	5905.17
444.54	5867.72
444.73	5930.92
444.91	5769.42
445.10	5975.39
445.28	5881.77
445.47	5837.30
445.65	5942.62
445.84	6061.99
446.02	6078.37
446.21	5891.13
446.39	5902.83
446.58	5977.73
446.77	6019.86
446.95	5961.34
447.14	6099.44
447.32	6282.00
447.51	6024.54
447.69	6078.37
447.88	6059.65
448.06	6150.93
448.25	6092.41
448.43	6003.47
448.62	6073.69
448.80	6101.78
448.99	6092.41
449.17	6200.08
449.36	6122.84
449.54	6452.86
449.73	6450.52
449.91	6410.73
450.10	6579.25
450.28	6574.56
450.46	6413.07
450.65	6530.09
450.83	6675.21
451.02	6403.71
451.20	6656.48
451.39	6478.60
451.57	6616.69
451.76	6485.62
451.94	6572.22
452.13	6621.38
452.31	6581.59
452.49	6537.12
452.68	6787.55
452.86	6616.69
453.05	6530.09
453.23	6633.08
453.42	6569.88
453.60	6808.62
453.78	6750.10
453.97	6621.38
454.15	6710.32
454.34	6644.78
454.52	6754.79
454.70	6808.62
454.89	6867.13
455.07	6970.12
455.26	6813.30
455.44	7084.80
455.62	7040.33
455.81	7012.24
455.99	6979.48
456.17	6974.80
456.36	7255.66
456.54	7225.23
456.73	7445.24
456.91	7393.75
457.09	7300.13
457.28	7606.74
457.46	7478.01
457.64	7431.20
457.83	7433.54
458.01	7351.62
458.19	7328.22
458.38	7548.23
458.56	7536.52
458.74	7658.23
458.93	7562.27
459.11	7634.83
459.29	7723.77
459.48	7826.75
459.66	7499.08
459.84	7723.77
460.03	7793.98
460.21	7878.24
460.39	7896.97
460.57	7693.34
460.76	7866.54
460.94	7829.09
461.12	8004.63
461.31	7927.39
461.49	7915.69
461.67	8030.38
461.85	8086.55
462.04	8065.49
462.22	8444.65
462.40	8236.35
462.59	8121.66
462.77	8322.94
462.95	8194.22
463.13	8142.72
463.32	8060.80
463.50	8070.17
463.68	8304.22
463.86	8346.35
464.05	8032.72
464.23	8018.68
464.41	8400.18
464.59	8397.84
464.78	8376.78
464.96	8430.61
465.14	8278.47
465.32	8327.63
465.50	8528.91
465.69	8669.34
465.87	8388.48
466.05	8524.23
466.23	8578.06
466.41	8477.42
466.60	8713.81
466.78	8533.59
466.96	8484.44
467.14	8650.62
467.32	8671.68
467.51	8744.24
467.69	8468.06
467.87	8608.49
468.05	8650.62
468.23	8657.64
468.41	8669.34
468.60	8819.14
468.78	8833.18
468.96	8872.97
469.14	9001.70
469.32	8982.98
469.50	8732.54
469.69	8894.04
469.87	8992.34
470.05	9064.89
470.23	9025.11
470.41	8950.21
470.59	9174.90
470.77	9092.98
470.95	9233.41
471.14	9369.16
471.32	9158.52
471.50	9226.39
471.68	9336.40
471.86	9425.34
472.04	9586.83
472.22	9813.87
472.40	9474.49
472.58	9525.98
472.77	9715.56
472.95	9671.09
473.13	9886.42
473.31	9926.21
473.49	9673.43
473.67	9975.36
473.85	9797.48
474.03	10059.62
474.21	10061.96
474.39	10375.59
474.57	10024.51
474.75	10368.57
474.93	10380.28
475.12	10029.20
475.30	10422.41
475.48	10347.51
475.66	10286.65
475.84	10284.31
476.02	10661.14
476.20	10628.37
476.38	10740.72
476.56	10902.22
476.74	10764.12
476.92	10700.93
477.10	11122.23
477.28	11145.63
477.46	11281.38
477.64	11487.35
477.82	11344.58
478.00	11510.75
478.18	11587.99
478.36	11330.53
478.54	11913.33
478.72	11992.90
478.90	11976.52
479.08	11981.20
479.26	12208.23
479.44	12037.38
479.62	12306.54
479.80	12236.32
479.98	12315.90
480.16	12566.34
480.34	12442.29
480.52	12659.96
480.70	12751.24
480.88	12606.13
481.06	13181.90
481.24	12713.79
481.41	13125.72
481.59	13256.79
481.77	13317.65
481.95	13336.37
482.13	13280.20
482.31	13640.64
482.49	13745.97
482.67	13631.28
482.85	14061.94
483.03	13736.60
483.21	14249.18
483.39	14288.97
483.57	14160.24
483.74	14338.12
483.92	14537.07
484.10	14305.35
484.28	14834.32
484.46	14941.98
484.64	15264.97
484.82	14993.47
485.00	14892.83
485.18	15281.36
485.35	15433.49
485.53	15073.05
485.71	15358.60
485.89	15538.82
486.07	15548.18
486.25	15611.37
486.43	15882.88
486.61	16095.86
486.78	16205.87
486.96	16149.70
487.14	16325.24
487.32	16145.02
487.50	16816.75
487.68	17207.62
487.85	16910.37
488.03	17247.41
488.21	17319.96
488.39	17261.45
488.57	17275.49
488.75	17551.68
488.92	17678.07
489.10	18087.66
489.28	17937.87
489.46	18415.34
489.64	18164.90
489.81	18764.07
489.99	18703.22
490.17	18771.10
490.35	18925.57
490.53	19014.51
490.70	18970.04
490.88	18993.45
491.06	19316.44
491.24	19386.66
491.41	19477.94
491.59	19632.41
491.77	19431.13
491.95	19501.34
492.13	19772.85
492.30	20105.20
492.48	20306.49
492.66	20119.24
492.84	20369.68
493.01	20671.61
493.19	20465.64
493.37	20648.21
493.54	20823.75
493.72	20844.81
493.90	20781.62
494.08	21500.16
494.25	21369.09
494.43	21633.57
494.61	22059.55
494.79	21860.60
494.96	21825.50
495.14	22092.32
495.32	22120.40
495.49	22417.65
495.67	21902.73
495.85	22621.28
496.02	22499.57
496.20	22794.48
496.38	22506.59
496.55	22981.72
496.73	23463.87
496.91	23164.28
497.09	23407.70
497.26	23349.18
497.44	23506.00
497.62	23527.06
497.79	23939.00
497.97	23541.11
498.14	23779.84
498.32	24037.30
498.50	23688.56
498.67	24212.84
498.85	24320.51
499.03	24608.39
499.20	24261.99
499.38	24482.00
499.56	24840.11
499.73	24992.24
499.91	24772.23
500.08	24910.32
500.26	24812.02
500.44	25202.89
500.61	25076.50
500.79	24872.87
500.97	25593.76
501.14	25661.63
501.32	25806.75
501.49	25319.92
501.67	25750.57
501.84	25832.49
502.02	25614.82
502.20	26169.53
502.37	26204.64
502.55	26122.72
502.72	26270.17
502.90	26190.59
503.07	26270.17
503.25	26560.40
503.43	26340.39
503.60	26410.60
503.78	26590.83
503.95	26609.55
504.13	26693.81
504.30	26932.54
504.48	26759.34
504.65	27002.76
504.83	27353.84
505.01	27405.33
505.18	27508.32
505.36	27370.22
505.53	27154.90
505.71	27569.17
505.88	27770.46
506.06	27693.22
506.23	27882.80
506.41	27875.78
506.58	27791.52
506.76	28184.73
506.93	28222.18
507.11	28004.51
507.28	28109.83
507.46	28416.44
507.63	28421.13
507.81	28587.30
507.98	28381.34
508.16	28346.23
508.33	28694.97
508.50	28947.75
508.68	28905.62
508.85	29455.64
509.03	29088.18
509.20	29137.33
509.38	29216.91
509.55	29575.01
509.73	29404.15
509.90	29851.19
510.08	29422.87
510.25	29663.95
510.42	29628.84
510.60	29977.58
510.77	30045.46
510.95	30115.67
511.12	29804.38
511.30	29780.98
511.47	30431.65
511.64	30202.27
511.82	30295.89
511.99	30632.93
512.17	30499.52
512.34	30333.34
512.51	30506.54
512.69	31140.83
512.86	31087.00
513.04	31056.57
513.21	31377.22
513.38	30829.54
513.56	30976.99
513.73	31164.23
513.90	31016.78
514.08	31393.61
514.25	31262.54
514.43	31381.90
514.60	31475.52
514.77	31527.02
514.95	31931.93
515.12	31592.55
515.29	31812.56
515.47	32140.24
515.64	32128.53
515.81	32121.51
515.99	32130.87
516.16	31824.26
516.33	31878.10
516.51	32119.17
516.68	31908.52
516.85	32070.02
517.03	32158.96
517.20	32161.30
517.37	32634.09
517.54	32610.68
517.72	32730.05
517.89	32474.93
518.06	32402.38
518.24	32453.87
518.41	32755.80
518.58	32926.66
518.75	32903.25
518.93	33223.90
519.10	33537.54
519.27	33256.67
519.45	33188.80
519.62	32985.17
519.79	33551.58
519.96	33647.54
520.14	33970.54
520.31	33411.15
520.48	33839.47
520.65	33827.76
520.83	33961.17
521.00	34321.62
521.17	33940.11
521.34	34227.99
521.52	34401.19
521.69	34080.54
521.86	34710.14
522.03	34464.39
522.20	34625.89
522.38	34710.14
522.55	34740.57
522.72	34742.91
522.89	34909.09
523.07	34845.90
523.24	34670.36
523.41	34972.28
523.58	34684.40
523.75	35896.80
523.92	35438.05
524.10	35267.19
524.27	35543.38
524.44	35632.32
524.61	35337.41
524.78	35693.17
524.96	35585.50
525.13	35971.69
525.30	36088.72
525.47	36224.47
525.64	35997.44
525.81	35690.83
525.98	35875.73
526.16	35688.49
526.33	35585.50
526.50	35997.44
526.67	35646.36
526.84	36247.88
527.01	35948.29
527.18	36400.01
527.36	36449.16
527.53	36364.90
527.70	37170.05
527.87	36795.56
528.04	36538.10
528.21	36498.31
528.38	36435.12
528.55	36811.95
528.72	36711.30
528.89	37034.30
529.07	37247.29
529.24	37074.09
529.41	37228.56
529.58	36790.88
529.75	36554.49
529.92	37525.81
530.09	37125.58
530.26	37542.19
530.43	37479.00
530.60	37198.13
530.77	37193.45
530.94	37600.71
531.11	37380.70
531.28	38096.90
531.46	37947.11
531.63	38012.64
531.80	37385.38
531.97	37502.40
532.14	37591.34
532.31	37453.25
532.48	37539.85
532.65	37748.16
532.82	38227.97
532.99	38211.59
533.16	37954.13
533.33	37820.72
533.50	38040.73
533.67	38639.90
533.84	37989.24
534.01	38171.80
534.18	38134.35
534.35	39023.75
534.52	37998.60
534.69	38550.96
534.86	38656.29
535.03	38068.81
535.20	38815.44
535.37	38667.99
535.54	38897.36
535.71	38831.83
535.88	38827.15
536.05	39218.02
536.22	38857.57
536.38	38607.14
536.55	39000.35
536.72	38969.92
536.89	38684.37
537.06	39040.14
537.23	38885.66
537.40	38876.30
537.57	39306.96
537.74	39498.88
537.91	39452.07
538.08	39840.60
538.25	39007.37
538.42	39171.21
538.59	39606.55
538.75	39484.84
538.92	39541.01
539.09	39887.41
539.26	39971.67
539.43	39477.82
539.60	39414.62
539.77	39892.09
539.94	39433.35
540.11	40165.93
540.28	39459.09
540.44	39957.63
540.61	39484.84
540.78	39852.30
540.95	40222.11
541.12	39782.09
541.29	39840.60
541.46	39924.86
541.62	40322.75
541.79	40629.36
541.96	39903.79
542.13	40322.75
542.30	40683.19
542.47	40346.15
542.63	40449.14
542.80	40648.08
542.97	40968.74
543.14	40697.24
543.31	40975.76
543.48	41003.85
543.64	41715.37
543.81	41247.26
543.98	41326.84
544.15	41008.53
544.32	41081.08
544.48	41060.02
544.65	41240.24
544.82	40961.72
544.99	40655.11
545.16	41392.37
545.32	41326.84
545.49	41469.61
545.66	41635.79
545.83	41588.98
546.00	41635.79
546.16	41799.63
546.33	41607.70
546.50	41280.03
546.67	41579.62
546.83	41214.49
547.00	41345.56
547.17	41354.93
547.34	41670.90
547.50	41778.56
547.67	42078.15
547.84	41801.97
548.00	42213.90
548.17	42391.78
548.34	41839.42
548.51	42141.35
548.67	41661.54
548.84	42117.94
549.01	42429.23
549.18	41869.84
549.34	42410.51
549.51	42518.17
549.68	42511.15
549.84	42614.13
550.01	42733.50
550.18	42019.64
550.34	42366.04
550.51	42370.72
550.68	42122.62
550.84	41937.72
551.01	42719.46
551.18	42679.67
551.34	42141.35
551.51	42656.26
551.68	42628.18
551.84	42576.69
552.01	42733.50
552.18	42672.65
552.34	42679.67
552.51	42679.67
552.68	42918.40
552.84	42721.80
553.01	43040.11
553.18	42700.73
553.34	42787.33
553.51	42649.24
553.67	43007.34
553.84	43107.99
554.01	43461.41
554.17	43276.51
554.34	43091.60
554.51	42801.38
554.67	43215.65
554.84	43545.67
555.00	43269.48
555.17	43306.93
555.33	43068.20
555.50	43288.21
555.67	43035.43
555.83	43576.09
556.00	43753.97
556.16	44039.52
556.33	43889.73
556.50	43447.36
556.66	43246.08
556.83	43171.18
556.99	43810.15
557.16	43426.30
557.32	43442.68
557.49	43428.64
557.65	43213.31
557.82	43274.16
557.98	43985.69
558.15	43622.90
558.32	43800.79
558.48	43620.56
558.65	43585.46
558.81	43555.03
558.98	43540.99
559.14	43784.40
559.31	43578.43
559.47	43735.25
559.64	44051.22
559.80	44156.55
559.97	43896.75
560.13	43648.65
560.30	43856.96
560.46	44313.36
560.63	44158.89
560.79	44320.38
560.96	44135.48
561.12	44133.14
561.29	44264.21
561.45	43929.51
561.61	43770.36
561.78	44175.27
561.94	44147.18
562.11	44013.77
562.27	43973.98
562.44	43995.05
562.60	44168.25
562.77	44458.48
562.93	44086.33
563.10	44657.42
563.26	44074.63
563.42	44554.44
563.59	44254.85
563.75	44421.03
563.92	44369.54
564.08	44128.46
564.24	44444.43
564.41	43995.05
564.57	44226.76
564.74	44112.08
564.90	44456.14
565.07	44191.65
565.23	43934.20
565.39	44130.80
565.56	44715.93
565.72	44081.65
565.88	44308.68
566.05	44098.03
566.21	44149.53
566.38	44294.64
566.54	44493.58
566.70	44245.49
566.87	44940.63
567.03	44652.74
567.19	45013.18
567.36	44477.20
567.52	44179.95
567.68	44790.83
567.85	44442.09
568.01	44769.77
568.17	44367.20
568.34	44378.90
568.50	44563.80
568.66	44296.98
568.83	44559.12
568.99	44329.75
569.15	44655.08
569.32	44545.08
569.48	44554.44
569.64	44928.92
569.81	45111.49
569.97	44690.19
570.13	44893.82
570.30	43985.69
570.46	44774.45
570.62	44369.54
570.78	44409.32
570.95	44706.57
571.11	44755.72
571.27	44832.96
571.43	44823.60
571.60	44594.23
571.76	44432.73
571.92	44671.46
572.09	44418.69
572.25	45174.68
572.41	44348.47
572.57	44411.67
572.74	45071.70
572.90	44830.62
573.06	45123.19
573.22	44584.86
573.38	44428.05
573.55	44577.84
573.71	44739.34
573.87	45228.51
574.03	44903.18
574.20	44783.81
574.36	44626.99
574.52	44659.76
574.68	44959.35
574.84	45504.70
575.01	44828.28
575.17	44744.02
575.33	44776.79
575.49	44732.32
575.65	45179.36
575.82	44924.24
575.98	44746.36
576.14	45155.96
576.30	44788.49
576.46	44624.65
576.62	44727.64
576.79	44516.99
576.95	44325.07
577.11	44669.12
577.27	44528.69
577.43	44767.43
577.59	45186.38
577.75	44828.28
577.92	44388.26
578.08	44596.57
578.24	44926.58
578.40	44596.57
578.56	44847.00
578.72	45111.49
578.88	45001.48
579.04	45148.93
579.21	44919.56
579.37	44697.21
579.53	44629.34
579.69	44825.94
579.85	44727.64
580.01	45560.87
580.17	44992.12
580.33	45251.92
580.49	45179.36
580.65	45343.20
580.82	45350.22
580.98	45319.79
581.14	45099.78
581.30	45237.87
581.46	45034.25
581.62	45287.03
581.78	44832.96
581.94	45399.37
582.10	45521.08
582.26	45104.46
582.42	45270.64
582.58	44886.79
582.74	44767.43
582.90	44694.87
583.06	45265.96
583.22	45418.10
583.38	45214.47
583.54	44821.26
583.70	44992.12
583.86	44755.72
584.02	44327.41
584.18	45322.13
584.34	45050.63
584.50	44877.43
584.66	45006.16
584.82	45052.97
584.98	45577.25
585.14	45125.53
585.30	45083.40
585.46	45425.12
585.62	44978.07
585.78	44699.55
585.94	44767.43
586.10	44872.75
586.26	45034.25
586.42	45017.86
586.58	45116.17
586.74	45092.76
586.90	44755.72
587.06	44964.03
587.22	45230.85
587.38	44933.60
587.54	45141.91
587.70	45226.17
587.86	45359.58
588.02	45209.79
588.18	45340.86
588.34	45069.36
588.49	44821.26
588.65	45071.70
588.81	44996.80
588.97	45088.08
589.13	44634.02
589.29	45097.44
589.45	44949.99
589.61	45265.96
589.77	45134.89
589.93	45120.85
590.08	45422.78
590.24	45237.87
590.40	44854.03
590.56	45656.83
590.72	45340.86
590.88	45408.73
591.04	44912.54
591.20	45172.34
591.35	45441.50
591.51	45895.56
591.67	45317.45
591.83	45532.78
591.99	45364.26
592.15	45294.05
592.31	45282.34
592.46	45720.02
592.62	45172.34
592.78	45481.29
592.94	45652.15
593.10	45303.41
593.26	45598.32
593.41	45223.83
593.57	44996.80
593.73	45343.20
593.89	45759.81
594.05	45347.88
594.20	45350.22
594.36	45677.90
594.52	45511.72
594.68	45291.71
594.84	45558.53
594.99	45610.02
595.15	45340.86
595.31	45703.64
595.47	45684.92
595.62	45530.44
595.78	44935.95
595.94	45752.79
596.10	45500.01
596.25	45446.18
596.41	45563.21
596.57	45544.48
596.73	45640.45
596.88	45303.41
597.04	45352.56
597.20	45614.70
597.36	45453.20
597.51	45560.87
597.67	45806.62
597.83	45710.66
597.99	45925.99
598.14	45397.03
598.30	45457.88
598.46	45280.00
598.61	45427.46
598.77	44926.58
598.93	45118.51
599.09	45500.01
599.24	45478.95
599.40	45502.35
599.56	45621.72
599.71	45804.28
599.87	45720.02
600.03	45242.56
600.18	45507.04
600.34	45659.17
600.50	45694.28
600.65	45354.90
600.81	45975.14
600.97	45736.41
601.12	45970.46
601.28	45696.62
601.44	45813.65
601.59	45401.71
601.75	45366.60
601.91	45354.90
602.06	45272.98
602.22	45382.99
602.37	45525.76
602.53	45312.77
602.69	45600.66
602.84	45532.78
603.00	45137.23
603.16	45420.44
603.31	45535.12
603.47	44973.39
603.62	45450.86
603.78	45689.60
603.94	45933.01
604.09	45345.54
604.25	45640.45
604.40	45144.25
604.56	45446.18
604.71	45343.20
604.87	45371.28
605.03	45450.86
605.18	45420.44
605.34	45127.87
605.49	45429.80
605.65	45380.65
605.80	44879.77
605.96	45270.64
606.12	45612.36
606.27	45595.98
606.43	45558.53
606.58	45848.75
606.74	45233.19
606.89	44903.18
607.05	45235.53
607.20	45345.54
607.36	45282.34
607.51	45633.42
607.67	45174.68
607.82	45481.29
607.98	45296.39
608.13	45502.35
608.29	45420.44
608.44	44552.10
608.60	44739.34
608.75	45118.51
608.91	45003.82
609.06	44680.83
609.22	45635.77
609.37	44940.63
609.53	45038.93
609.68	45462.57
609.84	45240.21
609.99	45055.31
610.15	44776.79
610.30	45167.66
610.46	44650.40
610.61	44694.87
610.76	45130.21
610.92	44732.32
611.07	44818.92
611.23	44982.76
611.38	44552.10
611.54	44582.52
611.69	44755.72
611.84	44926.58
612.00	44399.96
612.15	44875.09
612.31	45195.74
612.46	44549.76
612.62	45179.36
612.77	44676.15
612.92	45265.96
613.08	44533.37
613.23	44390.60
613.39	44442.09
613.54	44018.46
613.69	44271.23
613.85	44758.06
614.00	44357.83
614.15	44760.40
614.31	44430.39
614.46	45284.68
614.62	44507.63
614.77	44421.03
614.92	44481.88
615.08	44465.50
615.23	44793.17
615.38	44261.87
615.54	44002.07
615.69	44219.74
615.84	44179.95
616.00	44217.40
616.15	44224.42
616.30	44411.67
616.46	44025.48
616.61	43786.74
616.76	44165.91
616.92	43803.13
617.07	43966.96
617.22	43988.03
617.37	43969.30
617.53	44163.57
617.68	44278.25
617.83	43969.30
617.99	44388.26
618.14	44102.71
618.29	44254.85
618.45	43922.49
618.60	43786.74
618.75	43702.48
618.90	44194.00
619.06	43995.05
619.21	43744.61
619.36	44318.04
619.51	43634.61
619.67	43777.38
619.82	43636.95
619.97	43714.19
620.12	43805.47
620.28	43452.05
620.43	43426.30
620.58	43498.86
620.73	43819.51
620.89	43379.49
621.04	43793.76
621.19	43599.50
621.34	43620.56
621.49	43229.69
621.65	43213.31
621.80	43697.80
621.95	43365.45
622.10	43475.45
622.25	43461.41
622.41	43227.35
622.56	42925.42
622.71	43625.25
622.86	43037.77
623.01	43173.52
623.16	43161.82
623.32	43557.37
623.47	43391.19
623.62	43248.42
623.77	42986.28
623.92	43133.73
624.07	42759.25
624.23	43012.02
624.38	42738.18
624.53	42841.17
624.68	42951.17
624.83	42845.85
624.98	43414.60
625.13	43206.29
625.29	42815.42
625.44	42873.93
625.59	42700.73
625.74	42368.38
625.89	42429.23
626.04	42253.69
626.19	42651.58
626.34	42799.04
626.49	42307.52
626.65	42373.06
626.80	42829.46
626.95	42251.35
627.10	42267.73
627.25	42375.40
627.40	42096.88
627.55	41851.12
627.70	41364.29
627.85	42188.16
628.00	42546.26
628.15	42462.00
628.30	42459.66
628.45	42410.51
628.60	42543.92
628.76	42195.18
628.91	42241.99
629.06	42094.53
629.21	42312.20
629.36	42038.36
629.51	41846.44
629.66	41823.03
629.81	41806.65
629.96	42220.92
630.11	42223.26
630.26	42251.35
630.41	41820.69
630.56	41792.61
630.71	42148.37
630.86	41521.10
631.01	41858.14
631.16	41579.62
631.31	41581.96
631.46	41556.21
631.61	41989.21
631.76	41488.34
631.91	42174.11
632.06	41528.13
632.21	41652.17
632.36	41689.62
632.51	41537.49
632.66	41579.62
632.81	41097.47
632.96	41577.28
633.10	41198.11
633.25	41146.62
633.40	41345.56
633.55	41729.41
633.70	41336.20
633.85	41207.47
634.00	41209.81
634.15	41387.69
634.30	41029.59
634.45	41310.46
634.60	41329.18
634.75	41209.81
634.90	41331.52
635.05	41153.64
635.19	41338.54
635.34	41670.90
635.49	40961.72
635.64	40811.92
635.79	40924.27
635.94	40477.22
636.09	41043.63
636.24	40418.71
636.39	40774.47
636.53	40790.86
636.68	40451.48
636.83	40952.35
636.98	41177.04
637.13	40690.21
637.28	40437.44
637.43	40479.57
637.57	40917.25
637.72	40304.02
637.87	40762.77
638.02	40385.94
638.17	40341.47
638.32	40495.95
638.46	40231.47
638.61	39903.79
638.76	40177.64
638.91	40598.93
639.06	40374.24
639.20	40463.18
639.35	40627.02
639.50	40219.77
639.65	40957.03
639.80	40273.60
639.94	40016.14
640.09	40212.74
640.24	40507.65
640.39	40289.98
640.54	40172.96
640.68	39959.97
640.83	40107.42
640.98	39978.69
641.13	39964.65
641.27	40119.12
641.42	39714.21
641.57	40201.04
641.72	39985.71
641.86	39798.47
642.01	39594.84
642.16	39688.46
642.31	39496.54
642.45	39690.80
642.60	39503.56
642.75	39709.53
642.90	39721.23
643.04	39477.82
643.19	39489.52
643.34	39880.39
643.48	39306.96
643.63	39744.64
643.78	39409.94
643.93	39346.75
644.07	39398.24
644.22	39714.21
644.37	39328.02
644.51	38565.01
644.66	39311.64
644.81	39730.59
644.95	40011.46
645.10	39676.76
645.25	39470.79
645.39	39239.08
645.54	39189.93
645.69	39639.31
645.83	39096.31
645.98	39122.05
646.13	39489.52
646.27	39400.58
646.42	38925.45
646.57	38883.32
646.71	38967.58
646.86	39318.66
647.00	38974.60
647.15	39166.52
647.30	38972.26
647.44	39225.04
647.59	38803.74
647.74	38976.94
647.88	38941.83
648.03	38794.38
648.17	38890.34
648.32	38291.16
648.47	38843.53
648.61	38792.04
648.76	38986.30
648.90	38712.46
649.05	38719.48
649.20	39126.74
649.34	38939.49
649.49	38565.01
649.63	38483.09
649.78	38756.93
649.92	38281.80
650.07	38876.30
650.21	38485.43
650.36	38700.76
650.51	38363.72
650.65	39037.80
650.80	38848.21
650.94	38831.83
651.09	38714.80
651.23	38260.74
651.38	38330.95
651.52	38398.83
651.67	38518.20
651.81	38295.85
651.96	38244.35
652.10	37977.53
652.25	37605.39
652.39	37897.95
652.54	38007.96
652.68	37940.08
652.83	38419.89
652.97	38513.52
653.12	38373.08
653.26	37991.58
653.41	37907.32
653.55	37734.12
653.70	37684.97
653.84	38031.36
653.99	38192.86
654.13	37762.20
654.27	37797.31
654.42	37907.32
654.56	37743.48
654.71	37890.93
654.85	37839.44
655.00	37462.61
655.14	37385.38
655.29	37296.44
655.43	37310.48
655.57	37223.88
655.72	37137.28
655.86	36971.10
656.01	36952.38
656.15	37240.26
656.30	36957.06
656.44	37008.55
656.58	37083.45
656.73	36896.20
656.87	36982.80
657.01	36704.28
657.16	37287.07
657.30	36453.84
657.45	37340.91
657.59	37331.54
657.73	37165.37
657.88	37233.24
658.02	37046.00
658.16	36999.19
658.31	37319.84
658.45	36755.77
658.60	37053.02
658.74	36624.70
658.88	36746.41
659.03	36519.38
659.17	36765.14
659.31	36655.13
659.46	36311.07
659.60	36587.25
659.74	36814.29
659.89	36060.63
660.03	36252.56
660.17	36765.14
660.32	36734.71
660.46	36744.07
660.60	36196.38
660.74	36631.72
660.89	36383.63
661.03	35978.72
661.17	36133.19
661.32	35543.38
661.46	36023.19
661.60	35761.05
661.74	36051.27
661.89	35405.28
662.03	36004.46
662.17	35688.49
662.31	35370.18
662.46	35466.14
662.60	35842.96
662.74	35882.75
662.88	35641.68
663.03	35651.04
663.17	36093.40
663.31	35152.51
663.45	35559.76
663.60	35321.02
663.74	35276.55
663.88	35105.70
664.02	35093.99
664.17	35480.18
664.31	34962.92
664.45	35131.44
664.59	35538.69
664.73	35154.85
664.88	35239.11
665.02	34597.80
665.16	34501.84
665.30	34897.39
665.44	34993.35
665.59	34415.24
665.73	34359.06
665.87	34354.38
666.01	34073.52
666.15	34698.44
666.29	34377.79
666.44	34567.37
666.58	34094.58
666.72	34539.29
666.86	34560.35
667.00	34469.07
667.14	34136.71
667.28	33553.92
667.43	34068.84
667.57	33593.71
667.71	33839.47
667.85	34066.50
667.99	33989.26
668.13	33362.00
668.27	33818.40
668.41	33722.44
668.56	33633.50
668.70	33542.22
668.84	33570.30
668.98	33247.31
669.12	33666.27
669.26	33429.87
669.40	33439.23
669.54	33254.33
669.68	33170.07
669.82	33193.48
669.96	33139.65
670.10	32641.11
670.25	33083.47
670.39	33113.90
670.53	33024.96
670.67	32699.62
670.81	32488.98
670.95	32790.91
671.09	32676.22
671.23	32886.87
671.37	32554.51
671.51	32453.87
671.65	32437.48
671.79	32290.03
671.93	32149.60
672.07	32655.15
672.21	31782.13
672.35	32039.59
672.49	32095.77
672.63	32477.27
672.77	32091.09
672.91	31889.80
673.05	31803.20
673.19	31711.92
673.33	31557.44
673.47	31278.92
673.61	31702.56
673.75	31307.01
673.89	31220.41
674.03	31309.35
674.17	30920.82
674.31	31082.31
674.45	30766.34
674.59	31140.83
674.73	31023.80
674.87	30859.96
675.01	30895.07
675.15	31082.31
675.29	30944.22
675.43	30806.13
675.56	30551.01
675.70	30497.18
675.84	30412.92
675.98	28933.70
676.12	30277.17
676.26	30045.46
676.40	30321.64
676.54	30012.69
676.68	29900.34
676.82	29720.12
676.96	29656.93
677.10	29670.97
677.23	29401.81
677.37	29755.23
677.51	29294.14
677.65	29525.86
677.79	28999.24
677.93	29130.31
678.07	28814.34
678.21	29109.24
678.34	28783.91
678.48	29111.58
678.62	28900.94
678.76	28720.71
678.90	28257.29
679.04	28278.35
679.18	28772.21
679.31	27948.34
679.45	28051.32
679.59	27974.08
679.73	27845.35
679.87	28025.57
680.00	28400.06
680.14	28322.82
680.28	27772.80
680.42	27447.46
680.56	27571.51
680.70	27730.67
680.83	27204.05
680.97	27208.73
681.11	26848.29
681.25	26892.76
681.39	27026.17
681.52	27218.09
681.66	27323.41
681.80	26986.38
681.94	26829.56
682.07	26829.56
682.21	26214.00
682.35	26333.37
682.49	26534.65
682.62	26375.50
682.76	25809.09
682.90	25853.56
683.04	26281.88
683.17	26134.42
683.31	25888.67
683.45	26284.22
683.59	25621.84
683.72	25675.68
683.86	25450.99
684.00	25064.80
684.13	25378.43
684.27	25591.42
684.41	25631.21
684.55	25184.16
684.68	24865.85
684.82	24903.30
684.96	24989.90
685.09	24849.47
685.23	24596.69
685.37	24622.44
685.50	24444.56
685.64	24416.47
685.78	24191.78
685.91	24271.36
686.05	24304.12
686.19	23922.62
686.32	24170.71
686.46	23995.17
686.60	23700.26
686.73	23735.37
686.87	23133.86
687.01	23232.16
687.14	23447.49
687.28	23173.64
687.42	23105.77
687.55	22801.50
687.69	23271.95
687.82	23061.30
687.96	22686.81
688.10	22515.95
688.23	22848.31
688.37	22298.28
688.50	22288.92
688.64	22256.15
688.78	22668.09
688.91	22057.21
689.05	22153.17
689.18	22471.48
689.32	21563.36
689.46	22328.71
689.59	22080.61
689.73	22265.52
689.86	21846.56
690.00	21888.69
690.13	21912.10
690.27	21656.98
690.41	21596.12
690.54	21628.89
690.68	21326.96
690.81	21219.30
690.95	21083.55
691.08	21125.68
691.22	20999.29
691.35	20940.77
691.49	20943.11
691.62	20802.68
691.76	21006.31
691.89	20755.87
692.03	20809.70
692.16	20617.78
692.30	20783.96
692.43	20329.89
692.57	19929.66
692.70	20084.14
692.84	20236.27
692.97	19793.91
693.11	19784.55
693.24	19726.04
693.38	19803.27
693.51	19524.75
693.65	19960.09
693.78	19761.14
693.92	19601.99
694.05	19288.35
694.19	19391.34
694.32	19372.61
694.45	19077.71
694.59	19323.46
694.72	19164.31
694.86	19070.68
694.99	18686.84
695.13	18953.66
695.26	18567.47
695.39	18270.22
695.53	18471.51
695.66	18424.70
695.80	18333.42
695.93	18160.22
696.07	18298.31
696.20	18487.89
696.33	18092.34
696.47	17977.65
696.60	18038.51
696.73	18190.64
696.87	17689.77
697.00	18125.11
697.14	17680.41
697.27	17645.30
697.40	17539.97
697.54	17678.07
697.67	17144.42
697.80	17397.20
697.94	17209.96
698.07	17156.13
698.21	16844.84
698.34	17319.96
698.47	16723.13
698.61	16608.44
698.74	16538.23
698.87	16655.25
699.01	16439.92
699.14	16542.91
699.27	16444.60
699.40	16381.41
699.54	16304.17
699.67	16245.66
699.80	16065.44
699.94	16208.21
700.07	15908.62
700.20	15950.75
700.34	15693.29
700.47	15704.99
700.60	15796.28
700.73	16070.12
700.87	15667.55
701.00	15510.73
701.13	15499.03
701.26	15587.97
701.40	15442.85
701.53	15232.21
701.66	15339.87
701.79	15517.75
701.93	15152.63
702.06	14963.04
702.19	14974.75
702.32	15047.30
702.46	14855.38
702.59	14698.56
702.72	14743.03
702.85	14672.82
702.99	14867.08
703.12	14808.57
703.25	14686.86
703.38	14644.73
703.51	14295.99
703.65	14324.08
703.78	14544.09
703.91	14223.44
704.04	14181.31
704.17	14029.17
704.31	13942.57
704.44	13760.01
704.57	13532.98
704.70	13582.13
704.83	13635.96
704.96	13940.23
705.10	13998.74
705.23	13802.14
>>>>>End Processed Spectral Data<<<<<
