SpectraSuite Data File
++++++++++++++++++++++++++++++++++++
Date: Fri Oct 25 10:47:04 EDT 2013
User: price-jones
Dark Spectrum Present: No
Reference Spectrum Present: No
Number of Sampled Component Spectra: 1
Spectrometers: USB2+H05261
Integration Time (usec): 100000 (USB2+H05261)
Spectra Averaged: 1 (USB2+H05261)
Boxcar Smoothing: 0 (USB2+H05261)
Correct for Electrical Dark: No (USB2+H05261)
Strobe/Lamp Enabled: No (USB2+H05261)
Correct for Detector Non-linearity: No (USB2+H05261)
Correct for Stray Light: No (USB2+H05261)
Number of Pixels in Processed Spectrum: 2048
>>>>>Begin Processed Spectral Data<<<<<
365.73	177.88
365.92	177.88
366.12	177.88
366.32	58.51
366.52	58.51
366.72	60.85
366.91	81.92
367.11	60.85
367.31	9.36
367.51	72.56
367.70	86.60
367.90	56.17
368.10	56.17
368.30	91.28
368.49	16.38
368.69	25.75
368.89	98.30
369.09	58.51
369.28	88.94
369.48	145.11
369.68	74.90
369.87	170.86
370.07	114.69
370.27	210.65
370.47	205.97
370.66	285.55
370.86	339.38
371.06	496.19
371.25	498.53
371.45	390.87
371.65	531.30
371.84	447.04
372.04	421.30
372.24	477.47
372.44	418.96
372.63	543.00
372.83	484.49
373.03	498.53
373.22	482.15
373.42	547.69
373.62	543.00
373.81	528.96
374.01	561.73
374.21	543.00
374.40	601.52
374.60	573.43
374.79	533.64
374.99	547.69
375.19	554.71
375.38	615.56
375.58	575.77
375.78	655.35
375.97	624.92
376.17	676.41
376.37	627.26
376.56	613.22
376.76	578.11
376.95	634.29
377.15	603.86
377.35	674.07
377.54	578.11
377.74	610.88
377.93	596.84
378.13	669.39
378.33	575.77
378.52	657.69
378.72	667.05
378.91	648.33
379.11	585.13
379.31	587.47
379.50	610.88
379.70	603.86
379.89	699.82
380.09	667.05
380.28	671.73
380.48	681.10
380.68	664.71
380.87	653.01
381.07	678.76
381.26	727.91
381.46	620.24
381.65	725.57
381.85	730.25
382.04	636.63
382.24	681.10
382.43	690.46
382.63	727.91
382.83	664.71
383.02	674.07
383.22	739.61
383.41	667.05
383.61	751.31
383.80	779.40
384.00	725.57
384.19	730.25
384.39	751.31
384.58	812.17
384.78	863.66
384.97	837.91
385.17	716.20
385.36	772.38
385.56	800.46
385.75	737.27
385.95	713.86
386.14	800.46
386.34	788.76
386.53	755.99
386.72	753.65
386.92	868.34
387.11	765.36
387.31	861.32
387.50	898.77
387.70	819.19
387.89	889.40
388.09	828.55
388.28	793.44
388.48	849.61
388.67	828.55
388.86	840.25
389.06	830.89
389.25	851.96
389.45	922.17
389.64	908.13
389.84	905.79
390.03	919.83
390.22	861.32
390.42	957.28
390.61	823.87
390.81	912.81
391.00	929.19
391.19	992.39
391.39	1008.77
391.58	1048.56
391.78	931.53
391.97	945.58
392.16	950.26
392.36	992.39
392.55	926.85
392.75	1029.84
392.94	1008.77
393.13	966.64
393.33	1046.22
393.52	1043.88
393.71	1015.79
393.91	1139.84
394.10	1057.92
394.29	1004.09
394.49	1071.97
394.68	1146.86
394.88	1135.16
395.07	1144.52
395.26	1078.99
395.46	1050.90
395.65	1128.14
395.84	1188.99
396.04	1203.04
396.23	1076.65
396.42	1158.57
396.62	1172.61
396.81	1011.11
397.00	1121.12
397.19	1153.88
397.39	1198.35
397.58	1252.19
397.77	1270.91
397.97	1291.98
398.16	1369.21
398.35	1273.25
398.55	1263.89
398.74	1294.32
398.93	1355.17
399.12	1320.06
399.32	1406.66
399.51	1338.79
399.70	1427.73
399.90	1427.73
400.09	1397.30
400.28	1479.22
400.47	1411.34
400.67	1476.88
400.86	1493.26
401.05	1390.28
401.24	1575.18
401.44	1535.39
401.63	1650.08
401.82	1507.30
402.01	1544.75
402.21	1523.69
402.40	1675.82
402.59	1586.88
402.78	1556.46
402.97	1633.69
403.17	1619.65
403.36	1633.69
403.55	1664.12
403.74	1720.29
403.93	1629.01
404.13	1678.16
404.32	1755.40
404.51	1713.27
404.70	1703.91
404.89	1607.95
405.09	1823.28
405.28	1790.51
405.47	1739.02
405.66	1743.70
405.85	1928.60
406.05	1851.36
406.24	1832.64
406.43	1884.13
406.62	1849.02
406.81	1912.22
407.00	1863.07
407.20	1877.11
407.39	1816.26
407.58	1895.83
407.77	1952.01
407.96	1977.75
408.15	1909.88
408.34	2003.50
408.54	2181.38
408.73	2092.44
408.92	2073.71
409.11	2015.20
409.30	2066.69
409.49	1989.46
409.68	2139.25
409.87	2181.38
410.07	2209.47
410.26	2090.10
410.45	2293.72
410.64	2218.83
410.83	2321.81
411.02	2129.89
411.21	2317.13
411.40	2401.39
411.59	2387.35
411.78	2394.37
411.98	2352.24
412.17	2480.97
412.36	2436.50
412.55	2492.67
412.74	2509.05
412.93	2534.80
413.12	2499.69
413.31	2609.70
413.50	2569.91
413.69	2663.53
413.88	2665.87
414.07	2698.64
414.26	2649.49
414.45	2722.04
414.64	2635.44
414.83	2733.75
415.02	2731.41
415.22	2867.16
415.41	2876.52
415.60	2864.82
415.79	2752.47
415.98	2972.48
416.17	2899.92
416.36	2895.24
416.55	2946.73
416.74	2963.12
416.93	2953.76
417.12	3035.67
417.31	3021.63
417.50	2963.12
417.69	3141.00
417.88	3185.47
418.07	3150.36
418.26	3220.58
418.45	3091.85
418.64	3267.39
418.83	3220.58
419.02	3213.56
419.21	3272.07
419.39	3361.01
419.58	3131.64
419.77	3173.77
419.96	3412.50
420.15	3311.86
420.34	3365.69
420.53	3346.97
420.72	3485.06
420.91	3365.69
421.10	3396.12
421.29	3611.45
421.48	3501.44
421.67	3691.02
421.86	3590.38
422.05	3454.63
422.24	3445.27
422.43	3403.14
422.61	3562.30
422.80	3644.21
422.99	3515.48
423.18	3559.95
423.37	3665.28
423.56	3639.53
423.75	3653.58
423.94	3545.91
424.13	3442.93
424.32	3440.59
424.50	3653.58
424.69	3534.21
424.88	3632.51
425.07	3557.61
425.26	3592.72
425.45	3585.70
425.64	3618.47
425.83	3611.45
426.01	3707.41
426.20	3641.87
426.39	3737.84
426.58	3613.79
426.77	3684.00
426.96	3651.24
427.15	3508.46
427.33	3674.64
427.52	3721.45
427.71	3831.46
427.90	3819.75
428.09	4023.38
428.28	3798.69
428.46	3784.65
428.65	3815.07
428.84	3957.85
429.03	3922.74
429.22	3932.10
429.40	3957.85
429.59	3798.69
429.78	3726.13
429.97	3805.71
430.16	3782.31
430.34	3875.93
430.53	3978.91
430.72	4007.00
430.91	4023.38
431.10	3906.35
431.28	4028.06
431.47	4236.37
431.66	4306.59
431.85	4156.79
432.03	4030.40
432.22	4292.54
432.41	4278.50
432.60	4308.93
432.79	4278.50
432.97	4311.27
433.16	4241.05
433.35	4367.44
433.54	4369.78
433.72	4484.47
433.91	4180.20
434.10	4465.74
434.28	4369.78
434.47	4505.53
434.66	4449.36
434.85	4411.91
435.03	4514.89
435.22	4636.60
435.41	4688.09
435.59	4580.43
435.78	4681.07
435.97	4706.82
436.16	4744.27
436.34	4667.03
436.53	4840.23
436.72	4929.17
436.90	4587.45
437.09	4858.95
437.28	4709.16
437.46	4685.75
437.65	4821.50
437.84	4807.46
438.02	4819.16
438.21	4877.68
438.40	4821.50
438.58	4943.21
438.77	5011.09
438.96	4983.00
439.14	5032.15
439.33	5135.14
439.52	5191.31
439.70	5153.86
439.89	5345.78
440.08	5329.40
440.26	5350.46
440.45	5151.52
440.63	5284.93
440.82	5554.09
441.01	5418.34
441.19	5418.34
441.38	5781.12
441.57	5577.50
441.75	5504.94
441.94	5647.71
442.12	5612.60
442.31	5748.36
442.50	5738.99
442.68	5778.78
442.87	5619.63
443.05	5841.98
443.24	5820.91
443.43	6010.50
443.61	5863.04
443.80	5996.45
443.98	5884.11
444.17	5673.46
444.35	5909.85
444.54	5912.19
444.73	5947.30
444.91	5769.42
445.10	5921.56
445.28	5877.09
445.47	5973.05
445.65	5902.83
445.84	6026.88
446.02	6029.22
446.21	6012.84
446.39	5944.96
446.58	6244.55
446.77	6078.37
446.95	6129.86
447.14	6010.50
447.32	6265.61
447.51	6108.80
447.69	6186.04
447.88	6195.40
448.06	6141.57
448.25	6207.10
448.43	6218.80
448.62	6087.73
448.80	6118.16
448.99	6274.98
449.17	6352.21
449.36	6291.36
449.54	6509.03
449.73	6375.62
449.91	6539.46
450.10	6345.19
450.28	6518.39
450.46	6427.11
450.65	6558.18
450.83	6476.26
451.02	6443.49
451.20	6614.35
451.39	6471.58
451.57	6621.38
451.76	6607.33
451.94	6637.76
452.13	6658.82
452.31	6677.55
452.49	6504.35
452.68	6764.15
452.86	6715.00
453.05	6832.02
453.23	6937.35
453.42	6740.74
453.60	6595.63
453.78	6836.70
453.97	6743.08
454.15	6705.63
454.34	6817.98
454.52	6902.24
454.70	6937.35
454.89	6820.32
455.07	6871.81
455.26	6913.94
455.44	6850.75
455.62	7063.74
455.81	6979.48
455.99	6991.18
456.17	7073.10
456.36	7248.64
456.54	7112.89
456.73	7227.57
456.91	7623.12
457.09	7494.40
457.28	7473.33
457.46	7398.43
457.64	7470.99
457.83	7400.77
458.01	7215.87
458.19	7707.38
458.38	7475.67
458.56	7793.98
458.74	7538.87
458.93	7592.70
459.11	7644.19
459.29	7585.68
459.48	7662.91
459.66	7489.71
459.84	7740.15
460.03	7854.84
460.21	7866.54
460.39	7728.45
460.57	7709.72
460.76	7845.48
460.94	7920.37
461.12	7941.44
461.31	7824.41
461.49	8025.70
461.67	7735.47
461.85	8135.70
462.04	7962.50
462.22	8601.47
462.40	8161.45
462.59	8203.58
462.77	7922.71
462.95	8278.47
463.13	8119.32
463.32	8304.22
463.50	8231.66
463.68	8390.82
463.86	8353.37
464.05	8259.75
464.23	8294.86
464.41	8280.82
464.59	8264.43
464.78	8439.97
464.96	8365.07
465.14	8332.31
465.32	8613.17
465.50	8510.19
465.69	8620.19
465.87	8533.59
466.05	8659.98
466.23	8442.31
466.41	8456.36
466.60	8627.21
466.78	8608.49
466.96	8442.31
467.14	8503.17
467.32	8587.43
467.51	8798.07
467.69	8533.59
467.87	8727.86
468.05	8713.81
468.23	8777.01
468.41	8711.47
468.60	8805.10
468.78	8898.72
468.96	8821.48
469.14	9006.38
469.32	8912.76
469.50	8725.52
469.69	9104.68
469.87	9050.85
470.05	9174.90
470.23	9207.67
470.41	8908.08
470.59	9004.04
470.77	9139.79
470.95	9221.71
471.14	9540.02
471.32	9352.78
471.50	9699.18
471.68	9373.85
471.86	9568.11
472.04	9458.10
472.22	9628.96
472.40	9441.72
472.58	9565.77
472.77	9790.46
472.95	9753.01
473.13	9982.38
473.31	9682.80
473.49	9598.54
473.67	9764.72
473.85	9963.66
474.03	10127.50
474.21	10068.98
474.39	10136.86
474.57	10216.44
474.75	10211.76
474.93	10281.97
475.12	10382.62
475.30	10560.50
475.48	10459.85
475.66	10354.53
475.84	10396.66
476.02	10630.71
476.20	10572.20
476.38	10490.28
476.56	10972.43
476.74	11068.39
476.92	10785.19
477.10	10817.96
477.28	11119.89
477.46	11316.49
477.64	11363.30
477.82	11335.21
478.00	11742.47
478.18	11730.76
478.36	11611.40
478.54	11669.91
478.72	11999.93
478.90	11786.94
479.08	11995.25
479.26	12208.23
479.44	12325.26
479.62	12030.35
479.80	12336.96
479.98	12489.10
480.16	12788.69
480.34	12549.95
480.52	12753.58
480.70	12720.81
480.88	12571.02
481.06	12844.86
481.24	12961.89
481.41	12989.97
481.59	13179.56
481.77	13352.76
481.95	13387.86
482.13	13490.85
482.31	13612.56
482.49	13874.70
482.67	13860.65
482.85	13989.38
483.03	13776.39
483.21	14310.04
483.39	14359.19
483.57	14164.92
483.74	14623.67
483.92	14572.18
484.10	14436.42
484.28	14705.59
484.46	15096.46
484.64	15286.04
484.82	14855.38
485.00	15157.31
485.18	15300.08
485.35	15367.96
485.53	15218.16
485.71	15358.60
485.89	15805.64
486.07	15506.05
486.25	15515.41
486.43	15934.37
486.61	16276.09
486.78	16299.49
486.96	16166.08
487.14	16664.61
487.32	16535.88
487.50	16706.74
487.68	16915.05
487.85	17422.95
488.03	17139.74
488.21	17242.73
488.39	17425.29
488.57	17535.29
488.75	17549.34
488.92	17762.33
489.10	17965.95
489.28	18136.81
489.46	18396.61
489.64	18368.52
489.81	18773.44
489.99	18850.67
490.17	18867.06
490.35	18860.04
490.53	18640.03
490.70	19147.92
490.88	19126.86
491.06	19405.38
491.24	19468.58
491.41	19548.15
491.59	19499.00
491.77	19503.68
491.95	19679.22
492.13	20121.59
492.30	20004.56
492.48	20004.56
492.66	20292.44
492.84	20297.13
493.01	20725.44
493.19	20311.17
493.37	20917.37
493.54	20795.66
493.72	21060.14
493.90	20968.86
494.08	21488.46
494.25	21539.95
494.43	21706.13
494.61	21998.70
494.79	21811.45
494.96	21818.47
495.14	21837.20
495.32	22368.50
495.49	22244.45
495.67	22291.26
495.85	22675.11
496.02	22757.03
496.20	22918.53
496.38	22911.50
496.55	22913.84
496.73	23197.05
496.91	23152.58
497.09	23620.69
497.26	23349.18
497.44	23412.38
497.62	23459.19
497.79	23873.46
497.97	23349.18
498.14	23765.80
498.32	24163.69
498.50	24297.10
498.67	23960.06
498.85	24301.78
499.03	24566.26
499.20	24606.05
499.38	24680.95
499.56	24683.29
499.73	24596.69
499.91	24980.54
500.08	24772.23
500.26	24938.41
500.44	25170.12
500.61	25280.13
500.79	25015.65
500.97	25624.18
501.14	25771.64
501.32	25809.09
501.49	25600.78
501.67	25715.47
501.84	25961.22
502.02	25280.13
502.20	25809.09
502.37	26265.49
502.55	26066.55
502.72	26242.09
502.90	26307.62
503.07	25986.97
503.25	26436.35
503.43	26349.75
503.60	26733.60
503.78	26766.37
503.95	26698.49
504.13	27005.10
504.30	26792.11
504.48	27051.91
504.65	27227.45
504.83	27126.81
505.01	27166.60
505.18	27365.54
505.36	28027.92
505.53	27859.40
505.71	27817.27
505.88	27742.37
506.06	27695.56
506.23	28070.04
506.41	27807.90
506.58	27866.42
506.76	27864.08
506.93	28353.25
507.11	28119.20
507.28	28070.04
507.46	28334.53
507.63	28432.83
507.81	28657.52
507.98	28472.62
508.16	28645.82
508.33	28638.80
508.50	28945.41
508.68	29266.06
508.85	29394.79
509.03	29411.17
509.20	29212.23
509.38	29670.97
509.55	29584.37
509.73	29373.72
509.90	29785.66
510.08	29663.95
510.25	29373.72
510.42	30047.80
510.60	29947.15
510.77	30153.12
510.95	30712.51
511.12	30043.12
511.30	30033.75
511.47	30309.94
511.64	30462.07
511.82	30511.22
511.99	30469.09
512.17	30710.17
512.34	30410.58
512.51	31096.36
512.69	30939.54
512.86	30768.68
513.04	31297.64
513.21	30845.92
513.38	31070.61
513.56	31271.90
513.73	30485.48
513.90	31459.14
514.08	31585.53
514.25	31145.51
514.43	31641.70
514.60	31732.98
514.77	31952.99
514.95	31981.08
515.12	31922.57
515.29	31735.32
515.47	32236.20
515.64	32669.20
515.81	32088.74
515.99	32051.30
516.16	32121.51
516.33	32299.39
516.51	32245.56
516.68	32002.14
516.85	32123.85
517.03	32334.50
517.20	32390.67
517.37	32603.66
517.54	32821.33
517.72	32704.31
517.89	32589.62
518.06	32636.43
518.24	32985.17
518.41	32594.30
518.58	32692.60
518.75	32694.94
518.93	33141.99
519.10	33549.24
519.27	32987.51
519.45	33530.51
519.62	33649.88
519.79	33865.21
519.96	33731.80
520.14	33813.72
520.31	33839.47
520.48	33837.12
520.65	33996.28
520.83	33984.58
521.00	34368.43
521.17	34691.42
521.34	34284.17
521.52	34625.89
521.69	34614.18
521.86	34134.37
522.03	34204.59
522.20	34543.97
522.38	34733.55
522.55	34724.19
522.72	34471.41
522.89	34871.64
523.07	34845.90
523.24	34785.04
523.41	35187.61
523.58	35138.46
523.75	35517.63
523.92	35129.10
524.10	35777.43
524.27	35395.92
524.44	35321.02
524.61	35894.46
524.78	36023.19
524.96	35978.72
525.13	35761.05
525.30	36086.38
525.47	36369.58
525.64	35803.17
525.81	36058.29
525.98	35714.23
526.16	35761.05
526.33	35637.00
526.50	36081.70
526.67	35615.93
526.84	35920.20
527.01	35718.92
527.18	36189.36
527.36	36332.14
527.53	36833.01
527.70	36467.89
527.87	36734.71
528.04	36889.18
528.21	37010.89
528.38	36666.83
528.55	37003.87
528.72	36994.51
528.89	37034.30
529.07	36638.75
529.24	37008.55
529.41	37249.63
529.58	36905.57
529.75	36680.88
529.92	37156.00
530.09	37457.93
530.26	37476.66
530.43	37523.47
530.60	37467.30
530.77	37317.50
530.94	37764.54
531.11	37684.97
531.28	37640.50
531.46	37806.67
531.63	37858.17
531.80	37759.86
531.97	37661.56
532.14	38450.32
532.31	37621.77
532.48	37764.54
532.65	38323.93
532.82	37773.91
532.99	37827.74
533.16	38141.37
533.33	38195.20
533.50	38384.79
533.67	38220.95
533.84	38335.63
534.01	38597.77
534.18	38665.65
534.35	38768.63
534.52	38747.57
534.69	38632.88
534.86	38600.12
535.03	38307.55
535.20	39246.10
535.37	38731.18
535.54	39325.68
535.71	39269.51
535.88	38958.22
536.05	39126.74
536.22	38848.21
536.38	38778.00
536.55	39199.29
536.72	39026.09
536.89	39222.70
537.06	39047.16
537.23	39866.34
537.40	39370.15
537.57	39019.07
537.74	39440.37
537.91	39576.12
538.08	39463.77
538.25	39363.13
538.42	39578.46
538.59	39435.69
538.75	39267.17
538.92	39936.56
539.09	39765.70
539.26	39732.93
539.43	39732.93
539.60	39791.45
539.77	39784.43
539.94	39999.76
540.11	39859.32
540.28	40128.48
540.44	39889.75
540.61	40093.38
540.78	39812.51
540.95	39847.62
541.12	39629.95
541.29	39941.24
541.46	40095.72
541.62	40100.40
541.79	40247.85
541.96	40360.20
542.13	40147.21
542.30	40240.83
542.47	40421.05
542.63	40479.57
542.80	40790.86
542.97	41036.61
543.14	41170.02
543.31	41031.93
543.48	40978.10
543.64	41233.22
543.81	41354.93
543.98	41303.43
544.15	41326.84
544.32	41205.13
544.48	41848.78
544.65	41614.72
544.82	41404.08
544.99	41102.15
545.16	41235.56
545.32	40889.16
545.49	41429.82
545.66	41710.69
545.83	41659.20
546.00	41926.02
546.16	41324.50
546.33	41530.47
546.50	40945.33
546.67	41893.25
546.83	40935.97
547.00	41528.13
547.17	41986.87
547.34	41813.67
547.50	41565.57
547.67	42096.88
547.84	42073.47
548.00	42036.02
548.17	42445.62
548.34	42178.79
548.51	42239.65
548.67	42412.85
548.84	42359.02
549.01	42586.05
549.18	42553.28
549.34	42178.79
549.51	42511.15
549.68	42169.43
549.84	42209.22
550.01	42476.04
550.18	41940.06
550.34	42883.30
550.51	42223.26
550.68	42206.88
550.84	41940.06
551.01	42642.22
551.18	42625.84
551.34	42176.45
551.51	42555.62
551.68	42656.26
551.84	42707.76
552.01	42646.90
552.18	42784.99
552.34	42763.93
552.51	42864.57
552.68	42822.44
552.84	42890.32
553.01	43093.94
553.18	43096.28
553.34	42761.59
553.51	42855.21
553.67	42988.62
553.84	43428.64
554.01	43285.87
554.17	43536.30
554.34	43199.27
554.51	43388.85
554.67	43229.69
554.84	43452.05
555.00	43133.73
555.17	43246.08
555.33	43320.98
555.50	43540.99
555.67	43360.76
555.83	43115.01
556.00	43447.36
556.16	43910.79
556.33	43325.66
556.50	43452.05
556.66	43587.80
556.83	43707.16
556.99	43981.01
557.16	43594.82
557.32	43840.57
557.49	43903.77
557.65	43533.96
557.82	43768.02
557.98	43655.67
558.15	43793.76
558.32	43845.26
558.48	43732.91
558.65	44121.44
558.81	43852.28
558.98	43927.17
559.14	43791.42
559.31	43672.06
559.47	43599.50
559.64	44184.63
559.80	44170.59
559.97	43997.39
560.13	43564.39
560.30	43583.12
560.46	43833.55
560.63	43913.13
560.79	44081.65
560.96	43845.26
561.12	44009.09
561.29	44399.96
561.45	44004.41
561.61	43793.76
561.78	43913.13
561.94	44086.33
562.11	44116.76
562.27	44208.04
562.44	43943.56
562.60	44168.25
562.77	44425.71
562.93	43997.39
563.10	44079.31
563.26	44098.03
563.42	44786.15
563.59	44058.24
563.75	43896.75
563.92	44596.57
564.08	44619.97
564.24	44837.64
564.41	44949.99
564.57	44552.10
564.74	44306.34
564.90	44603.59
565.07	44765.09
565.23	44414.01
565.39	44493.58
565.56	44266.55
565.72	44362.51
565.88	44425.71
566.05	44346.13
566.21	44376.56
566.38	44308.68
566.54	44765.09
566.70	44856.37
566.87	45071.70
567.03	45132.55
567.19	45296.39
567.36	44605.93
567.52	44839.98
567.68	44886.79
567.85	44332.09
568.01	44952.33
568.17	44430.39
568.34	44505.29
568.50	44926.58
568.66	44243.15
568.83	44882.11
568.99	44587.21
569.15	44725.30
569.32	44987.44
569.48	44788.49
569.64	45024.89
569.81	45525.76
569.97	44793.17
570.13	44954.67
570.30	44430.39
570.46	44514.65
570.62	44378.90
570.78	44690.19
570.95	44842.32
571.11	45155.96
571.27	44601.25
571.43	44900.84
571.60	44868.07
571.76	44645.72
571.92	44191.65
572.09	44315.70
572.25	44872.75
572.41	44758.06
572.57	44573.16
572.74	44947.65
572.90	44872.75
573.06	44818.92
573.22	44919.56
573.38	44807.22
573.55	44739.34
573.71	45015.52
573.87	44875.09
574.03	44762.75
574.20	44910.20
574.36	44839.98
574.52	45188.72
574.68	45235.53
574.84	44774.45
575.01	44905.52
575.17	45067.02
575.33	44825.94
575.49	45228.51
575.65	44971.05
575.82	45216.81
575.98	44739.34
576.14	45275.32
576.30	44987.44
576.46	44816.58
576.62	44746.36
576.79	44828.28
576.95	44748.70
577.11	44811.90
577.27	45626.40
577.43	45162.98
577.59	44896.16
577.75	44769.77
577.92	45064.67
578.08	45162.98
578.24	44563.80
578.40	44776.79
578.56	45017.86
578.72	44470.18
578.88	44949.99
579.04	45155.96
579.21	44722.96
579.37	44914.88
579.53	44903.18
579.69	44428.05
579.85	45109.14
580.01	45045.95
580.17	44926.58
580.33	45661.51
580.49	45340.86
580.65	45071.70
580.82	45572.57
580.98	44907.86
581.14	44699.55
581.30	44949.99
581.46	44854.03
581.62	44999.14
581.78	44858.71
581.94	45174.68
582.10	44816.58
582.26	45249.58
582.42	45280.00
582.58	45249.58
582.74	44694.87
582.90	44718.28
583.06	45139.57
583.22	45390.01
583.38	45464.91
583.54	45745.77
583.70	45265.96
583.86	45010.84
584.02	44722.96
584.18	45177.02
584.34	45282.34
584.50	45153.62
584.66	44783.81
584.82	44917.22
584.98	45399.37
585.14	45336.18
585.30	44774.45
585.46	44952.33
585.62	45151.27
585.78	45099.78
585.94	44711.25
586.10	45366.60
586.26	44533.37
586.42	44912.54
586.58	45116.17
586.74	45418.10
586.90	44727.64
587.06	45027.23
587.22	45057.65
587.38	45006.16
587.54	45226.17
587.70	45488.31
587.86	45666.19
588.02	45457.88
588.18	45500.01
588.34	45045.95
588.49	45048.29
588.65	44215.06
588.81	44919.56
588.97	45064.67
589.13	44493.58
589.29	45202.77
589.45	44725.30
589.61	44861.05
589.77	45429.80
589.93	45413.41
590.08	45319.79
590.24	45879.18
590.40	45544.48
590.56	45382.99
590.72	45347.88
590.88	45008.50
591.04	45420.44
591.20	45263.62
591.35	45588.95
591.51	45729.39
591.67	45614.70
591.83	45172.34
591.99	45207.45
592.15	45198.09
592.31	45394.69
592.46	45155.96
592.62	45153.62
592.78	45586.61
592.94	45507.04
593.10	45645.13
593.26	45713.00
593.41	45275.32
593.57	45474.27
593.73	45338.52
593.89	45413.41
594.05	45368.94
594.20	44837.64
594.36	45523.42
594.52	45242.56
594.68	45654.49
594.84	45673.21
594.99	45619.38
595.15	45717.68
595.31	45996.21
595.47	45797.26
595.62	45305.75
595.78	45301.07
595.94	45993.87
596.10	45677.90
596.25	45867.48
596.41	45897.91
596.57	45294.05
596.73	45394.69
596.88	45277.66
597.04	45570.23
597.20	45645.13
597.36	45392.35
597.51	45652.15
597.67	45825.35
597.83	45661.51
597.99	46021.95
598.14	46017.27
598.30	45579.59
598.46	45778.54
598.61	45361.92
598.77	45162.98
598.93	45549.17
599.09	45546.82
599.24	45858.12
599.40	45638.11
599.56	45909.61
599.71	45911.95
599.87	46014.93
600.03	45773.86
600.18	45521.08
600.34	45663.85
600.50	45762.15
600.65	45553.85
600.81	46040.68
600.97	45804.28
601.12	45815.99
601.28	46033.66
601.44	45858.12
601.59	45720.02
601.75	45380.65
601.91	45516.40
602.06	45502.35
602.22	45918.97
602.37	45301.07
602.53	45462.57
602.69	45883.86
602.84	45432.14
603.00	45682.58
603.16	44959.35
603.31	45619.38
603.47	45401.71
603.62	45144.25
603.78	45603.00
603.94	45792.58
604.09	45729.39
604.25	45603.00
604.40	45923.65
604.56	45565.55
604.71	45652.15
604.87	45432.14
605.03	45301.07
605.18	45162.98
605.34	45390.01
605.49	45474.27
605.65	45509.38
605.80	45284.68
605.96	45647.47
606.12	45600.66
606.27	45397.03
606.43	45588.95
606.58	45429.80
606.74	45280.00
606.89	44952.33
607.05	45705.98
607.20	45282.34
607.36	45265.96
607.51	45598.32
607.67	45109.14
607.82	45268.30
607.98	45371.28
608.13	45284.68
608.29	45109.14
608.44	44882.11
608.60	44648.06
608.75	44818.92
608.91	45111.49
609.06	44945.31
609.22	45193.40
609.37	45048.29
609.53	45432.14
609.68	45081.06
609.84	45132.55
609.99	45041.27
610.15	45081.06
610.30	44685.51
610.46	44678.49
610.61	45340.86
610.76	44992.12
610.92	45034.25
611.07	45020.20
611.23	44676.15
611.38	45102.12
611.54	44842.32
611.69	44961.69
611.84	44531.03
612.00	44896.16
612.15	45106.80
612.31	45151.27
612.46	44978.07
612.62	44442.09
612.77	44804.88
612.92	44999.14
613.08	44727.64
613.23	44725.30
613.39	44830.62
613.54	44559.12
613.69	44432.73
613.85	44839.98
614.00	44194.00
614.15	44886.79
614.31	45027.23
614.46	45315.11
614.62	44737.00
614.77	44477.20
614.92	44121.44
615.08	44650.40
615.23	44449.11
615.38	44161.23
615.54	44205.70
615.69	44137.82
615.84	44231.44
616.00	44247.83
616.15	44318.04
616.30	44561.46
616.46	44083.99
616.61	44163.57
616.76	44390.60
616.92	44231.44
617.07	44453.79
617.22	43695.46
617.37	43922.49
617.53	44163.57
617.68	44093.35
617.83	44102.71
617.99	44194.00
618.14	44355.49
618.29	43536.30
618.45	43856.96
618.60	44102.71
618.75	44069.95
618.90	43819.51
619.06	44432.73
619.21	44074.63
619.36	43672.06
619.51	43859.30
619.67	43739.93
619.82	43756.32
619.97	44034.84
620.12	43627.59
620.28	43470.77
620.43	43349.06
620.58	43580.78
620.73	43871.00
620.89	43484.81
621.04	43878.02
621.19	43360.76
621.34	43646.31
621.49	43407.58
621.65	43421.62
621.80	43491.83
621.95	43419.28
622.10	43590.14
622.25	43129.05
622.41	43353.74
622.56	43374.81
622.71	43391.19
622.86	43320.98
623.01	43328.00
623.16	43335.02
623.32	43421.62
623.47	43079.90
623.62	43405.23
623.77	42890.32
623.92	42923.08
624.07	42616.47
624.23	43210.97
624.38	43124.37
624.53	42644.56
624.68	43023.73
624.83	43079.90
624.98	42948.83
625.13	42850.53
625.29	43009.68
625.44	42738.18
625.59	42965.21
625.74	42469.02
625.89	42197.52
626.04	42206.88
626.19	43019.05
626.34	42738.18
626.49	42852.87
626.65	42717.12
626.80	42801.38
626.95	42454.98
627.10	42490.09
627.25	42405.83
627.40	42508.81
627.55	42007.94
627.70	41846.44
627.85	41991.55
628.00	42450.30
628.15	42410.51
628.30	42148.37
628.45	42548.60
628.60	42298.16
628.76	42768.61
628.91	42476.04
629.06	42117.94
629.21	42038.36
629.36	42183.48
629.51	42075.81
629.66	41785.58
629.81	41476.63
629.96	42003.25
630.11	42141.35
630.26	42494.77
630.41	42277.10
630.56	41855.80
630.71	42263.05
630.86	42216.24
631.01	42061.77
631.16	42504.13
631.31	41958.78
631.46	41509.40
631.61	41741.11
631.76	41886.23
631.91	42183.48
632.06	41368.97
632.21	41539.83
632.36	42227.95
632.51	41350.24
632.66	41858.14
632.81	41015.55
632.96	41581.96
633.10	41507.06
633.25	41118.53
633.40	41666.22
633.55	41263.64
633.70	41078.74
633.85	41523.44
634.00	40985.12
634.15	41619.41
634.30	41181.73
634.45	41312.80
634.60	41038.95
634.75	41432.16
634.90	41518.76
635.05	41455.57
635.19	40910.22
635.34	41064.70
635.49	41006.19
635.64	40830.65
635.79	40882.14
635.94	40989.80
636.09	41010.87
636.24	40797.88
636.39	40411.69
636.53	40657.45
636.68	40348.50
636.83	40828.30
636.98	41219.17
637.13	40559.14
637.28	40561.48
637.43	40683.19
637.57	40954.69
637.72	40788.52
637.87	40528.72
638.02	40854.05
638.17	40519.35
638.32	39959.97
638.46	40177.64
638.61	40339.13
638.76	40329.77
638.91	40055.93
639.06	40744.05
639.20	40657.45
639.35	40814.26
639.50	40247.85
639.65	40477.22
639.80	40889.16
639.94	40254.87
640.09	40161.25
640.24	40229.13
640.39	39889.75
640.54	40325.09
640.68	40191.68
640.83	39955.29
640.98	39974.01
641.13	39482.50
641.27	39952.94
641.42	39966.99
641.57	40231.47
641.72	40018.48
641.86	39742.30
642.01	39669.74
642.16	39974.01
642.31	39171.21
642.45	39971.67
642.60	39431.01
642.75	39388.88
642.90	39468.45
643.04	39938.90
643.19	39927.20
643.34	39929.54
643.48	39510.58
643.63	39735.27
643.78	39480.16
643.93	39079.92
644.07	39192.27
644.22	39234.40
644.37	39508.24
644.51	39136.10
644.66	38862.26
644.81	39159.50
644.95	39758.68
645.10	39271.85
645.25	39545.69
645.39	39559.73
645.54	39496.54
645.69	39611.23
645.83	39056.52
645.98	38876.30
646.13	39367.81
646.27	39299.94
646.42	39222.70
646.57	39257.81
646.71	39063.54
646.86	39400.58
647.00	39367.81
647.15	39246.10
647.30	39136.10
647.44	39318.66
647.59	38785.02
647.74	39166.52
647.88	38770.97
648.03	39367.81
648.17	39115.03
648.32	38665.65
648.47	38803.74
648.61	38574.37
648.76	38824.81
648.90	38733.53
649.05	38911.41
649.20	39058.86
649.34	38876.30
649.49	38284.14
649.63	38611.82
649.78	38794.38
649.92	38136.69
650.07	38789.70
650.21	38658.63
650.36	38422.23
650.51	38642.24
650.65	38770.97
650.80	38714.80
650.94	38597.77
651.09	38836.51
651.23	38464.36
651.38	38403.51
651.52	38249.03
651.67	38494.79
651.81	38148.39
651.96	38019.66
652.10	38316.91
652.25	37855.82
652.39	37991.58
652.54	38078.18
652.68	38096.90
652.83	38106.26
652.97	38759.27
653.12	38501.81
653.26	38089.88
653.41	37734.12
653.55	38319.25
653.70	37926.04
653.84	37961.15
653.99	38272.44
654.13	38017.32
654.27	38251.38
654.42	37986.89
654.56	37776.25
654.71	38190.52
654.85	37827.74
655.00	37890.93
655.14	37727.10
655.29	37273.03
655.43	37177.07
655.57	37301.12
655.72	37621.77
655.86	37277.71
656.01	37404.10
656.15	37008.55
656.30	37457.93
656.44	37010.89
656.58	37223.88
656.73	36837.69
656.87	37415.80
657.01	36999.19
657.16	36964.08
657.30	37088.13
657.45	37062.38
657.59	37270.69
657.73	36882.16
657.88	37144.30
658.02	36893.86
658.16	36430.44
658.31	37336.23
658.45	37132.60
658.60	36797.90
658.74	37401.76
658.88	36772.16
659.03	36940.68
659.17	36673.85
659.31	36439.80
659.46	36498.31
659.60	36723.01
659.74	36552.15
659.89	36306.39
660.03	36407.03
660.17	36643.43
660.32	36524.06
660.46	36975.78
660.60	36526.40
660.74	36240.86
660.89	36123.83
661.03	36154.26
661.17	36006.80
661.32	35826.58
661.46	36086.38
661.60	35648.70
661.74	36135.53
661.89	36119.15
662.03	36149.57
662.17	36037.23
662.31	35805.52
662.46	35899.14
662.60	35983.40
662.74	35866.37
662.88	35878.07
663.03	35819.56
663.17	35573.80
663.31	35585.50
663.45	35328.05
663.60	35761.05
663.74	34902.07
663.88	35381.88
664.02	34911.43
664.17	35543.38
664.31	34813.13
664.45	35119.74
664.59	34911.43
664.73	35182.93
664.88	35239.11
665.02	34466.73
665.16	34604.82
665.30	35255.49
665.44	34534.60
665.59	34202.25
665.73	34242.04
665.87	34366.09
666.01	34675.04
666.15	34756.96
666.29	34394.17
666.44	34934.84
666.58	34211.61
666.72	34588.44
666.86	34693.76
667.00	34642.27
667.14	33921.38
667.28	34197.57
667.43	33914.36
667.57	34174.16
667.71	33790.31
667.85	33624.14
667.99	33909.68
668.13	33937.77
668.27	33532.86
668.41	33954.15
668.56	33385.40
668.70	33860.53
668.84	33343.27
668.98	33425.19
669.12	33422.85
669.26	33219.22
669.40	33525.83
669.54	33296.46
669.68	33170.07
669.82	32870.48
669.96	32884.53
670.10	33237.95
670.25	33008.58
670.39	33200.50
670.53	32919.63
670.67	33102.20
670.81	32835.38
670.95	32957.08
671.09	32938.36
671.23	32987.51
671.37	33041.34
671.51	32615.37
671.65	32329.82
671.79	32416.42
671.93	32566.21
672.07	32437.48
672.21	32165.98
672.35	32449.19
672.49	32079.38
672.63	32456.21
672.77	32070.02
672.91	31819.58
673.05	31789.16
673.19	31637.02
673.33	31585.53
673.47	31358.50
673.61	31608.93
673.75	31576.17
673.89	31182.96
674.03	31084.65
674.17	31608.93
674.31	31318.71
674.45	31166.57
674.59	31304.67
674.73	31283.60
674.87	31122.10
675.01	31171.25
675.15	31140.83
675.29	31054.23
675.43	30890.39
675.56	30778.04
675.70	30899.75
675.84	30190.57
675.98	29563.31
676.12	30195.25
676.26	29998.65
676.40	30134.40
676.54	30251.42
676.68	29912.05
676.82	29193.50
676.96	29874.60
677.10	29373.72
677.23	29572.67
677.37	29673.31
677.51	30026.73
677.65	29792.68
677.79	29113.92
677.93	29830.13
678.07	28669.22
678.21	28940.72
678.34	28968.81
678.48	29116.26
678.62	28634.11
678.76	28814.34
678.90	28538.15
679.04	28713.69
679.18	28563.90
679.31	28201.11
679.45	28327.50
679.59	28140.26
679.73	28041.96
679.87	27901.53
680.00	27840.67
680.14	27770.46
680.28	27480.23
680.42	27754.07
680.56	27639.39
680.70	27491.93
680.83	27253.20
680.97	27414.69
681.11	26885.73
681.25	26953.61
681.39	27365.54
681.52	27227.45
681.66	26969.99
681.80	26574.44
681.94	26785.09
682.07	26422.31
682.21	26473.80
682.35	26768.71
682.49	26703.17
682.62	26295.92
682.76	26429.33
682.90	25951.86
683.04	25986.97
683.17	26183.57
683.31	25951.86
683.45	26316.98
683.59	26075.91
683.72	25497.80
683.86	25493.12
684.00	25411.20
684.13	25350.34
684.27	26036.12
684.41	25308.21
684.55	25411.20
684.68	25303.53
684.82	24985.22
684.96	24865.85
685.09	25017.99
685.23	24793.29
685.37	24776.91
685.50	24393.06
685.64	24865.85
685.78	24210.50
685.91	24149.65
686.05	24379.02
686.19	24046.66
686.32	24091.13
686.46	23814.95
686.60	23754.10
686.73	24175.39
686.87	23655.79
687.01	23592.60
687.14	23520.04
687.28	23278.97
687.42	23367.91
687.55	22878.74
687.69	23044.91
687.82	22824.90
687.96	23026.19
688.10	22862.35
688.23	22731.28
688.37	22466.80
688.50	22494.89
688.64	22499.57
688.78	22171.89
688.91	21736.56
689.05	22427.01
689.18	22265.52
689.32	21598.46
689.46	22183.60
689.59	22075.93
689.73	22195.30
689.86	21841.88
690.00	21626.55
690.13	21923.80
690.27	22029.12
690.41	21762.30
690.54	21153.76
690.68	21125.68
690.81	21177.17
690.95	21022.69
691.08	20952.48
691.22	21069.50
691.35	20823.75
691.49	21116.31
691.62	20900.98
691.76	20720.76
691.89	20847.15
692.03	20727.78
692.16	20453.94
692.30	20245.63
692.43	20276.06
692.57	20224.57
692.70	19957.75
692.84	20290.10
692.97	19838.38
693.11	19653.48
693.24	19337.51
693.38	19719.01
693.51	19260.27
693.65	19726.04
693.78	19658.16
693.92	19714.33
694.05	19374.95
694.19	19358.57
694.32	19239.20
694.45	19147.92
694.59	19138.56
694.72	19063.66
694.86	18801.52
694.99	18775.78
695.13	18773.44
695.26	18471.51
695.39	18560.45
695.53	18387.25
695.66	18382.57
695.80	18684.50
695.93	18169.58
696.07	18150.85
696.20	18108.72
696.33	18246.82
696.47	18218.73
696.60	17867.65
696.73	17996.38
696.87	17982.34
697.00	17535.29
697.14	17823.18
697.27	17720.20
697.40	17525.93
697.54	17626.57
697.67	17303.58
697.80	17736.58
697.94	17305.92
698.07	17076.55
698.21	17163.15
698.34	17046.12
698.47	17191.23
698.61	16723.13
698.74	16683.34
698.87	16582.70
699.01	16585.04
699.14	16552.27
699.27	16386.09
699.40	16367.37
699.54	16245.66
699.67	16161.40
699.80	16187.14
699.94	16231.62
700.07	16229.27
700.20	16025.65
700.34	15866.49
700.47	15901.60
700.60	15990.54
700.73	15925.00
700.87	15955.43
701.00	15644.14
701.13	15826.70
701.26	15391.36
701.40	15632.44
701.53	15290.72
701.66	15384.34
701.79	15115.18
701.93	15028.58
702.06	14958.36
702.19	14970.07
702.32	14941.98
702.46	14995.81
702.59	14895.17
702.72	14834.32
702.85	14846.02
702.99	14576.86
703.12	14443.45
703.25	14647.07
703.38	14787.50
703.51	14443.45
703.65	14256.20
703.78	14307.69
703.91	14190.67
704.04	14284.29
704.17	14080.66
704.31	14005.77
704.44	14043.21
704.57	13462.76
704.70	13671.07
704.83	13642.98
704.96	13858.31
705.10	13628.94
705.23	13785.76
>>>>>End Processed Spectral Data<<<<<
