SpectraSuite Data File
++++++++++++++++++++++++++++++++++++
Date: Fri Oct 25 10:43:24 EDT 2013
User: price-jones
Dark Spectrum Present: No
Reference Spectrum Present: No
Number of Sampled Component Spectra: 1
Spectrometers: USB2+H05261
Integration Time (usec): 100000 (USB2+H05261)
Spectra Averaged: 1 (USB2+H05261)
Boxcar Smoothing: 0 (USB2+H05261)
Correct for Electrical Dark: No (USB2+H05261)
Strobe/Lamp Enabled: No (USB2+H05261)
Correct for Detector Non-linearity: No (USB2+H05261)
Correct for Stray Light: No (USB2+H05261)
Number of Pixels in Processed Spectrum: 2048
>>>>>Begin Processed Spectral Data<<<<<
365.73	91.28
365.92	91.28
366.12	91.28
366.32	79.58
366.52	0.00
366.72	65.54
366.91	42.13
367.11	0.00
367.31	18.72
367.51	60.85
367.70	58.51
367.90	37.45
368.10	74.90
368.30	23.41
368.49	46.81
368.69	9.36
368.89	67.88
369.09	7.02
369.28	65.54
369.48	7.02
369.68	53.83
369.87	121.71
370.07	51.49
370.27	145.11
370.47	215.33
370.66	372.15
370.86	484.49
371.06	451.72
371.25	456.40
371.45	437.68
371.65	491.51
371.84	503.22
372.04	393.21
372.24	386.19
372.44	425.98
372.63	554.71
372.83	526.62
373.03	440.02
373.22	461.09
373.42	489.17
373.62	475.13
373.81	559.39
374.01	594.50
374.21	561.73
374.40	512.58
374.60	601.52
374.79	561.73
374.99	566.41
375.19	589.82
375.38	585.13
375.58	568.75
375.78	624.92
375.97	580.45
376.17	688.12
376.37	596.84
376.56	603.86
376.76	561.73
376.95	615.56
377.15	643.65
377.35	575.77
377.54	587.47
377.74	653.01
377.93	610.88
378.13	589.82
378.33	610.88
378.52	575.77
378.72	676.41
378.91	517.26
379.11	599.18
379.31	758.33
379.50	603.86
379.70	716.20
379.89	730.25
380.09	692.80
380.28	674.07
380.48	674.07
380.68	784.08
380.87	631.94
381.07	655.35
381.26	676.41
381.46	697.48
381.65	725.57
381.85	697.48
382.04	711.52
382.24	688.12
382.43	669.39
382.63	744.29
382.83	699.82
383.02	723.23
383.22	676.41
383.41	732.59
383.61	748.97
383.80	781.74
384.00	678.76
384.19	753.65
384.39	837.91
384.58	763.01
384.78	727.91
384.97	819.19
385.17	741.95
385.36	805.14
385.56	798.12
385.75	830.89
385.95	800.46
386.14	765.36
386.34	823.87
386.53	856.64
386.72	779.40
386.92	840.25
387.11	788.76
387.31	915.15
387.50	828.55
387.70	816.85
387.89	889.40
388.09	898.77
388.28	821.53
388.48	926.85
388.67	940.90
388.86	870.68
389.06	978.34
389.25	985.37
389.45	922.17
389.64	994.73
389.84	978.34
390.03	929.19
390.22	1015.79
390.42	957.28
390.61	931.53
390.81	983.02
391.00	1032.18
391.19	1076.65
391.39	1053.24
391.58	1086.01
391.78	980.68
391.97	1001.75
392.16	999.41
392.36	987.71
392.55	1064.94
392.75	992.39
392.94	1055.58
393.13	959.62
393.33	964.30
393.52	959.62
393.71	1048.56
393.91	1050.90
394.10	1050.90
394.29	1104.73
394.49	1174.95
394.68	1158.57
394.88	1245.16
395.07	1313.04
395.26	1256.87
395.46	1205.38
395.65	1233.46
395.84	1205.38
396.04	1376.24
396.23	1132.82
396.42	1100.05
396.62	1158.57
396.81	1261.55
397.00	1266.23
397.19	1336.45
397.39	1270.91
397.58	1390.28
397.77	1263.89
397.97	1352.83
398.16	1411.34
398.35	1434.75
398.55	1371.55
398.74	1423.05
398.93	1507.30
399.12	1465.18
399.32	1439.43
399.51	1521.35
399.70	1554.12
399.90	1460.49
400.09	1565.82
400.28	1451.13
400.47	1547.09
400.67	1685.19
400.86	1633.69
401.05	1694.55
401.24	1631.35
401.44	1668.80
401.63	1710.93
401.82	1717.95
402.01	1813.92
402.21	1689.87
402.40	1750.72
402.59	1685.19
402.78	1652.42
402.97	1703.91
403.17	1830.30
403.36	1823.28
403.55	1832.64
403.74	1865.41
403.93	1834.98
404.13	1893.49
404.32	1839.66
404.51	1893.49
404.70	1886.47
404.89	1820.94
405.09	2026.90
405.28	1881.79
405.47	1952.01
405.66	1879.45
405.85	1968.39
406.05	2015.20
406.24	1961.37
406.43	1921.58
406.62	2099.46
406.81	2062.01
407.00	2050.31
407.20	2045.63
407.39	2129.89
407.58	2097.12
407.77	2097.12
407.96	2211.81
408.15	2237.55
408.34	2179.04
408.54	2188.40
408.73	2218.83
408.92	2284.36
409.11	2232.87
409.30	2284.36
409.49	2275.00
409.68	2289.04
409.87	2188.40
410.07	2202.44
410.26	2312.45
410.45	2284.36
410.64	2352.24
410.83	2499.69
411.02	2445.86
411.21	2466.92
411.40	2478.63
411.59	2712.68
411.78	2605.02
411.98	2588.63
412.17	2640.12
412.36	2612.04
412.55	2752.47
412.74	2794.60
412.93	2738.43
413.12	2724.38
413.31	2818.00
413.50	2878.86
413.69	2895.24
413.88	2846.09
414.07	2909.29
414.26	2869.50
414.45	2883.54
414.64	2878.86
414.83	3077.80
415.02	2984.18
415.22	2986.52
415.41	3030.99
415.60	3115.25
415.79	3234.62
415.98	3258.03
416.17	3197.17
416.36	3262.71
416.55	3243.98
416.74	3325.90
416.93	3236.96
417.12	3290.79
417.31	3328.24
417.50	3335.26
417.69	3506.12
417.88	3361.01
418.07	3356.33
418.26	3466.33
418.45	3290.79
418.64	3487.40
418.83	3564.64
419.02	3597.40
419.21	3613.79
419.39	3578.68
419.58	3581.02
419.77	3487.40
419.96	3569.32
420.15	3707.41
420.34	3618.47
420.53	3653.58
420.72	3831.46
420.91	3824.44
421.10	3730.81
421.29	3859.54
421.48	3768.26
421.67	3936.78
421.86	3744.86
422.05	3698.05
422.24	3786.99
422.43	3634.85
422.61	3726.13
422.80	3868.91
422.99	3967.21
423.18	3882.95
423.37	3941.46
423.56	3967.21
423.75	3896.99
423.94	3838.48
424.13	3618.47
424.32	3712.09
424.50	3967.21
424.69	4032.74
424.88	4039.76
425.07	3950.82
425.26	3798.69
425.45	3985.93
425.64	3887.63
425.83	3882.95
426.01	3981.25
426.20	3941.46
426.39	3929.76
426.58	4060.83
426.77	3925.08
426.96	3976.57
427.15	3819.75
427.33	3974.23
427.52	4131.05
427.71	4070.19
427.90	4018.70
428.09	4107.64
428.28	4147.43
428.46	4067.85
428.65	4166.15
428.84	4191.90
429.03	4210.62
429.22	4037.42
429.40	4044.45
429.59	3974.23
429.78	3880.61
429.97	3885.29
430.16	4011.68
430.34	4105.30
430.53	4217.65
430.72	4147.43
430.91	4194.24
431.10	4227.01
431.28	4465.74
431.47	4634.26
431.66	4702.14
431.85	4346.37
432.03	4461.06
432.22	4496.17
432.41	4493.83
432.60	4582.77
432.79	4641.28
432.97	4779.37
433.16	4571.07
433.35	4582.77
433.54	4496.17
433.72	4620.22
433.91	4762.99
434.10	4758.31
434.28	4479.79
434.47	4753.63
434.66	4795.76
434.85	4992.36
435.03	4791.08
435.22	4933.85
435.41	4973.64
435.59	4966.62
435.78	5004.07
435.97	5013.43
436.16	5107.05
436.34	5116.41
436.53	5055.56
436.72	5174.92
436.90	4873.00
437.09	5060.24
437.28	4992.36
437.46	5069.60
437.65	5020.45
437.84	5100.03
438.02	5022.79
438.21	5165.56
438.40	5064.92
438.58	5284.93
438.77	5336.42
438.96	5254.50
439.14	5593.88
439.33	5465.15
439.52	5584.52
439.70	5568.13
439.89	5547.07
440.08	5561.11
440.26	5762.40
440.45	5659.42
440.63	5760.06
440.82	5767.08
441.01	5874.74
441.19	5947.30
441.38	6022.20
441.57	6047.94
441.75	6094.76
441.94	6284.34
442.12	6204.76
442.31	6368.60
442.50	6244.55
442.68	6277.32
442.87	6214.12
443.05	6274.98
443.24	6387.32
443.43	6298.38
443.61	6338.17
443.80	6492.65
443.98	6326.47
444.17	6228.17
444.35	6504.35
444.54	6576.91
444.73	6490.31
444.91	6396.68
445.10	6370.94
445.28	6445.84
445.47	6326.47
445.65	6253.91
445.84	6628.40
446.02	6370.94
446.21	6417.75
446.39	6567.54
446.58	6572.22
446.77	6677.55
446.95	6415.41
447.14	6633.08
447.32	6801.60
447.51	6661.16
447.69	6518.39
447.88	6719.68
448.06	6647.12
448.25	6640.10
448.43	6546.48
448.62	6612.01
448.80	6626.06
448.99	6752.45
449.17	6817.98
449.36	6794.58
449.54	6848.41
449.73	6979.48
449.91	7157.36
450.10	7084.80
450.28	7101.19
450.46	7054.37
450.65	7007.56
450.83	7250.98
451.02	7045.01
451.20	7131.61
451.39	7206.51
451.57	7091.82
451.76	7103.53
451.94	7185.44
452.13	7236.94
452.31	7213.53
452.49	6970.12
452.68	6906.92
452.86	7323.54
453.05	7314.17
453.23	7192.47
453.42	7173.74
453.60	7148.00
453.78	7379.71
453.97	7250.98
454.15	7246.30
454.34	7241.62
454.52	7239.28
454.70	7517.80
454.89	7524.82
455.07	7274.38
455.26	7578.65
455.44	7590.36
455.62	7534.18
455.81	7672.28
455.99	7573.97
456.17	7707.38
456.36	7798.66
456.54	7761.22
456.73	7796.32
456.91	7939.10
457.09	8002.29
457.28	8219.96
457.46	7822.07
457.64	7929.74
457.83	7983.57
458.01	7733.13
458.19	8060.80
458.38	8042.08
458.56	8116.98
458.74	8114.64
458.93	8327.63
459.11	8175.49
459.29	8259.75
459.48	8168.47
459.66	8210.60
459.84	8280.82
460.03	8482.10
460.21	8468.06
460.39	8386.14
460.57	8304.22
460.76	8601.47
460.94	8713.81
461.12	8451.67
461.31	8620.19
461.49	8514.87
461.67	8709.13
461.85	8741.90
462.04	8573.38
462.22	9062.55
462.40	8849.57
462.59	8940.85
462.77	8739.56
462.95	8884.67
463.13	8821.48
463.32	8830.84
463.50	8816.80
463.68	8936.17
463.86	8879.99
464.05	8950.21
464.23	8809.78
464.41	8840.20
464.59	8695.09
464.78	8943.19
464.96	8926.80
465.14	8917.44
465.32	9090.64
465.50	9198.31
465.69	9128.09
465.87	8945.53
466.05	9048.51
466.23	8919.78
466.41	9088.30
466.60	9270.86
466.78	9202.99
466.96	9125.75
467.14	9160.86
467.32	9212.35
467.51	9242.78
467.69	9083.62
467.87	9284.91
468.05	9242.78
468.23	9160.86
468.41	9263.84
468.60	9425.34
468.78	9462.79
468.96	9614.92
469.14	9521.30
469.32	9614.92
469.50	9320.01
469.69	9544.70
469.87	9912.17
470.05	9671.09
470.23	9757.69
470.41	9689.82
470.59	9799.82
470.77	9621.94
470.95	9785.78
471.14	9916.85
471.32	9874.72
471.50	10272.61
471.68	10031.54
471.86	10293.68
472.04	10188.35
472.22	10232.82
472.40	10237.50
472.58	10188.35
472.77	10242.18
472.95	10356.87
473.13	10548.79
473.31	10359.21
473.49	10560.50
473.67	10511.35
473.85	10649.44
474.03	10736.04
474.21	10815.62
474.39	10942.00
474.57	10761.78
474.75	10853.06
474.93	11042.65
475.12	11021.58
475.30	11061.37
475.48	11162.01
475.66	10979.45
475.84	11379.68
476.02	11150.31
476.20	11248.61
476.38	11461.60
476.56	11632.46
476.74	11613.74
476.92	11548.20
477.10	11644.17
477.28	11875.88
477.46	11948.43
477.64	12194.19
477.82	12170.79
478.00	12648.26
478.18	12329.94
478.36	12446.97
478.54	12613.15
478.72	12486.76
478.90	12727.83
479.08	13006.36
479.26	13011.04
479.44	12975.93
479.62	12912.74
479.80	13078.91
479.98	13167.85
480.16	13387.86
480.34	13448.72
480.52	13528.30
480.70	13610.22
480.88	13322.33
481.06	13760.01
481.24	13858.31
481.41	14209.39
481.59	14150.88
481.77	14146.20
481.95	14251.52
482.13	14352.16
482.31	14436.42
482.49	14698.56
482.67	14572.18
482.85	14862.40
483.03	14773.46
483.21	15372.64
483.39	15030.92
483.57	15124.54
483.74	15426.47
483.92	15449.88
484.10	15283.70
484.28	15672.23
484.46	15871.17
484.64	16250.34
484.82	15964.79
485.00	16016.29
485.18	16250.34
485.35	16163.74
485.53	15946.07
485.71	15861.81
485.89	16198.85
486.07	16006.92
486.25	16311.19
486.43	16580.36
486.61	16812.07
486.78	16989.95
486.96	17123.36
487.14	17434.65
487.32	17359.75
487.50	17778.71
487.68	17848.93
487.85	18265.54
488.03	18230.43
488.21	18064.25
488.39	18263.20
488.57	18548.75
488.75	18625.98
488.92	18841.31
489.10	18948.98
489.28	19117.50
489.46	19487.30
489.64	19274.31
489.81	20203.50
489.99	19875.83
490.17	19737.74
490.35	20065.41
490.53	19831.36
490.70	20425.86
490.88	20208.19
491.06	20524.16
491.24	20465.64
491.41	20563.95
491.59	20407.13
491.77	20500.75
491.95	20636.50
492.13	21116.31
492.30	21294.19
492.48	21544.63
492.66	21584.42
492.84	21479.10
493.01	21647.61
493.19	21420.58
493.37	21855.92
493.54	21652.30
493.72	22097.00
493.90	22419.99
494.08	22904.48
494.25	22841.29
494.43	22965.34
494.61	23246.20
494.79	23321.10
494.96	23351.52
495.14	23168.96
495.32	23484.94
495.49	23190.03
495.67	23419.40
495.85	23674.52
496.02	23704.95
496.20	24107.52
496.38	24304.12
496.55	24283.06
496.73	24943.09
496.91	24519.45
497.09	24793.29
497.26	24631.80
497.44	24793.29
497.62	24652.86
497.79	24702.01
497.97	24690.31
498.14	25048.41
498.32	25579.71
498.50	25308.21
498.67	25954.20
498.85	25671.00
499.03	25975.27
499.20	25982.29
499.38	26064.21
499.56	26066.55
499.73	25914.41
499.91	26462.10
500.08	26153.15
500.26	26286.56
500.44	26492.52
500.61	26431.67
500.79	26466.78
500.97	26569.76
501.14	26661.04
501.32	26714.87
501.49	27058.93
501.67	26944.25
501.84	27166.60
502.02	27257.88
502.20	27323.41
502.37	27318.73
502.55	27110.43
502.72	27665.13
502.90	27707.26
503.07	27576.19
503.25	27833.65
503.43	27491.93
503.60	27917.91
503.78	28137.92
503.95	28187.07
504.13	27864.08
504.30	28219.84
504.48	28350.91
504.65	29102.22
504.83	28800.29
505.01	28524.11
505.18	29022.64
505.36	29200.52
505.53	29275.42
505.71	29343.30
505.88	29322.23
506.06	29132.65
506.23	29125.63
506.41	29378.40
506.58	29432.24
506.76	29502.45
506.93	29750.55
507.11	29507.13
507.28	29551.60
507.46	29982.26
507.63	29909.71
507.81	29914.39
507.98	29745.87
508.16	29865.24
508.33	30370.79
508.50	30082.91
508.68	30408.24
508.85	30841.24
509.03	31009.76
509.20	30944.22
509.38	30742.94
509.55	31002.74
509.73	30953.58
509.90	30962.95
510.08	30595.48
510.25	31295.30
510.42	31239.13
510.60	31489.57
510.77	31328.07
510.95	31599.57
511.12	31805.54
511.30	31999.80
511.47	32208.11
511.64	32081.72
511.82	32018.53
511.99	31880.44
512.17	32299.39
512.34	31583.19
512.51	32184.71
512.69	32388.33
512.86	32582.60
513.04	32783.88
513.21	32573.24
513.38	32460.89
513.56	32584.94
513.73	32254.92
513.90	32531.11
514.08	33015.60
514.25	32701.96
514.43	32570.90
514.60	32711.33
514.77	32823.67
514.95	33088.15
515.12	33062.41
515.29	33097.52
515.47	33486.04
515.64	33799.68
515.81	33455.62
515.99	33436.89
516.16	33434.55
516.33	32917.29
516.51	33268.37
516.68	32954.74
516.85	33102.20
517.03	33067.09
517.20	33324.55
517.37	33692.01
517.54	34075.86
517.72	33553.92
517.89	33647.54
518.06	33589.03
518.24	33897.98
518.41	33792.65
518.58	34389.49
518.75	34195.23
518.93	34576.73
519.10	34431.62
519.27	34490.13
519.45	34747.59
519.62	35115.06
519.79	34976.97
519.96	35126.76
520.14	35108.04
520.31	34569.71
520.48	34822.49
520.65	34972.28
520.83	35269.53
521.00	35414.65
521.17	35503.59
521.34	35594.87
521.52	35805.52
521.69	35924.88
521.86	35756.36
522.03	35611.25
522.20	35847.64
522.38	35990.42
522.55	36039.57
522.72	35983.40
522.89	35978.72
523.07	36629.38
523.24	36107.44
523.41	36388.31
523.58	36755.77
523.75	36807.26
523.92	36914.93
524.10	36730.03
524.27	36910.25
524.44	37083.45
524.61	37078.77
524.78	36870.46
524.96	37069.40
525.13	36919.61
525.30	37109.19
525.47	37324.52
525.64	37338.57
525.81	37235.58
525.98	36924.29
526.16	37031.96
526.33	37092.81
526.50	37043.66
526.67	36816.63
526.84	36957.06
527.01	37237.92
527.18	37340.91
527.36	37521.13
527.53	37907.32
527.70	38490.11
527.87	38136.69
528.04	37720.07
528.21	38319.25
528.38	38117.96
528.55	38080.52
528.72	38129.67
528.89	38490.11
529.07	38464.36
529.24	37893.27
529.41	38410.53
529.58	38494.79
529.75	38618.84
529.92	38724.16
530.09	38740.55
530.26	38457.34
530.43	38557.99
530.60	38775.66
530.77	38691.40
530.94	39262.49
531.11	38876.30
531.28	39129.08
531.46	39019.07
531.63	39196.95
531.80	39047.16
531.97	38876.30
532.14	38611.82
532.31	38621.18
532.48	38988.64
532.65	39283.55
532.82	39049.50
532.99	39014.39
533.16	39512.92
533.33	39365.47
533.50	39620.59
533.67	39447.39
533.84	39154.82
534.01	40076.99
534.18	39632.29
534.35	39887.41
534.52	39276.53
534.69	39950.60
534.86	40067.63
535.03	40381.26
535.20	40596.59
535.37	40465.52
535.54	40500.63
535.71	40617.66
535.88	40224.45
536.05	40149.55
536.22	40196.36
536.38	40566.16
536.55	40034.86
536.72	40755.75
536.89	40067.63
537.06	40184.66
537.23	40573.19
537.40	40360.20
537.57	41057.68
537.74	40449.14
537.91	40912.56
538.08	40935.97
538.25	40495.95
538.42	40973.42
538.59	40849.37
538.75	40278.28
538.92	40938.31
539.09	41092.79
539.26	40713.62
539.43	41036.61
539.60	40708.94
539.77	40713.62
539.94	40982.78
540.11	40842.35
540.28	41242.58
540.44	41364.29
540.61	41446.21
540.78	40942.99
540.95	41013.21
541.12	41130.23
541.29	41488.34
541.46	41195.77
541.62	41656.85
541.79	42047.72
541.96	41340.88
542.13	41305.77
542.30	41539.83
542.47	41221.52
542.63	41888.57
542.80	41542.17
542.97	41890.91
543.14	42445.62
543.31	41933.04
543.48	42050.06
543.64	42515.83
543.81	42820.10
543.98	42080.49
544.15	42087.51
544.32	42078.15
544.48	42726.48
544.65	42508.81
544.82	42567.32
544.99	41844.10
545.16	42777.97
545.32	42267.73
545.49	43061.18
545.66	42934.79
545.83	43077.56
546.00	42749.88
546.16	42829.46
546.33	42644.56
546.50	42403.49
546.67	43091.60
546.83	42272.42
547.00	42843.51
547.17	43028.41
547.34	42782.65
547.50	43196.93
547.67	43559.71
547.84	43335.02
548.00	42965.21
548.17	43613.54
548.34	43192.25
548.51	43283.53
548.67	43285.87
548.84	43117.35
549.01	42920.74
549.18	43093.94
549.34	43533.96
549.51	43082.24
549.68	43737.59
549.84	43409.92
550.01	43510.56
550.18	43515.24
550.34	43342.04
550.51	43264.80
550.68	43686.10
550.84	43016.71
551.01	43695.46
551.18	43517.58
551.34	43763.34
551.51	43922.49
551.68	43777.38
551.84	44112.08
552.01	43882.70
552.18	43690.78
552.34	43283.53
552.51	44175.27
552.68	44069.95
552.84	43945.90
553.01	44163.57
553.18	43758.66
553.34	43950.58
553.51	44027.82
553.67	44175.27
553.84	44320.38
554.01	44509.97
554.17	44215.06
554.34	43861.64
554.51	44135.48
554.67	44507.63
554.84	43962.28
555.00	44275.91
555.17	44292.30
555.33	44439.75
555.50	44210.38
555.67	44444.43
555.83	44123.78
556.00	44402.30
556.16	44507.63
556.33	44376.56
556.50	44149.53
556.66	44453.79
556.83	44039.52
556.99	44795.51
557.16	44568.48
557.32	44540.39
557.49	44673.81
557.65	44631.68
557.82	44374.22
557.98	44477.20
558.15	44596.57
558.32	44905.52
558.48	44549.76
558.65	44783.81
558.81	44196.34
558.98	44350.81
559.14	44067.61
559.31	44245.49
559.47	44549.76
559.64	44790.83
559.80	44718.28
559.97	44849.35
560.13	44776.79
560.30	44404.64
560.46	45001.48
560.63	45165.32
560.79	45219.15
560.96	44933.60
561.12	44982.76
561.29	44645.72
561.45	44851.69
561.61	45441.50
561.78	45092.76
561.94	44980.42
562.11	45006.16
562.27	44893.82
562.44	44839.98
562.60	45212.13
562.77	45263.62
562.93	45062.33
563.10	45308.09
563.26	44753.38
563.42	45261.28
563.59	45067.02
563.75	45045.95
563.92	45469.59
564.08	45371.28
564.24	45092.76
564.41	44793.17
564.57	45118.51
564.74	45425.12
564.90	45542.14
565.07	44949.99
565.23	45525.76
565.39	45237.87
565.56	45015.52
565.72	45258.94
565.88	44919.56
566.05	45048.29
566.21	45111.49
566.38	45492.99
566.54	45268.30
566.70	45619.38
566.87	45851.09
567.03	45373.63
567.19	45808.96
567.36	45750.45
567.52	45373.63
567.68	45537.46
567.85	45193.40
568.01	45394.69
568.17	45233.19
568.34	45544.48
568.50	45368.94
568.66	45352.56
568.83	45633.42
568.99	45010.84
569.15	45223.83
569.32	45287.03
569.48	45975.14
569.64	45970.46
569.81	45799.60
569.97	45478.95
570.13	45357.24
570.30	45024.89
570.46	45354.90
570.62	45446.18
570.78	44847.00
570.95	45247.24
571.11	45563.21
571.27	45031.91
571.43	45361.92
571.60	45357.24
571.76	45258.94
571.92	45553.85
572.09	45504.70
572.25	45675.55
572.41	45638.11
572.57	45518.74
572.74	45713.00
572.90	45729.39
573.06	45457.88
573.22	45380.65
573.38	45930.67
573.55	45237.87
573.71	45614.70
573.87	45523.42
574.03	45661.51
574.20	45579.59
574.36	45448.52
574.52	45429.80
574.68	45553.85
574.84	45806.62
575.01	45258.94
575.17	45619.38
575.33	45390.01
575.49	45399.37
575.65	45734.07
575.82	45460.23
575.98	45418.10
576.14	45827.69
576.30	45652.15
576.46	45970.46
576.62	45535.12
576.79	45287.03
576.95	45581.93
577.11	45647.47
577.27	46040.68
577.43	45605.34
577.59	45298.73
577.75	45497.67
577.92	45518.74
578.08	45146.59
578.24	45118.51
578.40	45469.59
578.56	45577.25
578.72	45745.77
578.88	46377.72
579.04	45708.32
579.21	45336.18
579.37	45876.84
579.53	45572.57
579.69	45256.60
579.85	45663.85
580.01	45909.61
580.17	45509.38
580.33	46040.68
580.49	45617.04
580.65	45593.64
580.82	45378.31
580.98	45762.15
581.14	45263.62
581.30	45710.66
581.46	45902.59
581.62	45584.27
581.78	45038.93
581.94	46312.18
582.10	45813.65
582.26	45827.69
582.42	45680.24
582.58	45521.08
582.74	46050.04
582.90	45701.30
583.06	45954.08
583.22	45778.54
583.38	45708.32
583.54	45893.22
583.70	45811.31
583.86	45846.41
584.02	45354.90
584.18	45476.61
584.34	45560.87
584.50	45839.39
584.66	45937.69
584.82	45427.46
584.98	46199.83
585.14	46052.38
585.30	45593.64
585.46	45427.46
585.62	45638.11
585.78	45832.37
585.94	45158.30
586.10	45698.96
586.26	45235.53
586.42	45918.97
586.58	45942.38
586.74	45867.48
586.90	45212.13
587.06	45897.91
587.22	45743.43
587.38	45897.91
587.54	46099.19
587.70	45979.82
587.86	45736.41
588.02	45350.22
588.18	45645.13
588.34	45567.89
588.49	45593.64
588.65	45170.00
588.81	45198.09
588.97	45368.94
589.13	45221.49
589.29	45359.58
589.45	45371.28
589.61	45535.12
589.77	46113.23
589.93	45624.06
590.08	45469.59
590.24	45837.05
590.40	45804.28
590.56	46307.50
590.72	46061.74
590.88	45916.63
591.04	46080.47
591.20	45991.53
591.35	46052.38
591.51	46323.88
591.67	45584.27
591.83	45689.60
591.99	45399.37
592.15	45268.30
592.31	45982.16
592.46	45954.08
592.62	45727.05
592.78	46199.83
592.94	45799.60
593.10	45993.87
593.26	46040.68
593.41	46391.76
593.57	45694.28
593.73	45670.87
593.89	46288.77
594.05	46045.36
594.20	45862.80
594.36	45895.56
594.52	46019.61
594.68	45918.97
594.84	45757.47
594.99	45572.57
595.15	45783.22
595.31	46153.02
595.47	46424.53
595.62	46099.19
595.78	46010.25
595.94	46136.64
596.10	45989.19
596.25	45771.52
596.41	46274.73
596.57	45738.75
596.73	45972.80
596.88	45869.82
597.04	45904.93
597.20	45872.16
597.36	46000.89
597.51	46122.60
597.67	45780.88
597.83	45624.06
597.99	46204.52
598.14	45663.85
598.30	45918.97
598.46	45951.74
598.61	46150.68
598.77	45837.05
598.93	45963.44
599.09	46047.70
599.24	46698.37
599.40	45991.53
599.56	45907.27
599.71	46195.15
599.87	46113.23
600.03	46342.61
600.18	45724.71
600.34	46157.70
600.50	46059.40
600.65	45603.00
600.81	46164.73
600.97	46260.69
601.12	46291.12
601.28	45909.61
601.44	45467.25
601.59	45930.67
601.75	45713.00
601.91	45947.06
602.06	45820.67
602.22	45844.07
602.37	46223.24
602.53	46026.63
602.69	45942.38
602.84	45837.05
603.00	45776.20
603.16	46113.23
603.31	45081.06
603.47	46080.47
603.62	46021.95
603.78	46000.89
603.94	45951.74
604.09	45851.09
604.25	46014.93
604.40	45713.00
604.56	45977.48
604.71	45839.39
604.87	46078.13
605.03	45574.91
605.18	45689.60
605.34	45933.01
605.49	45296.39
605.65	46089.83
605.80	45471.93
605.96	45858.12
606.12	45495.33
606.27	46143.66
606.43	45600.66
606.58	46155.36
606.74	45708.32
606.89	45640.45
607.05	45635.77
607.20	45610.02
607.36	45673.21
607.51	46169.41
607.67	45591.30
607.82	45701.30
607.98	45464.91
608.13	45488.31
608.29	45530.44
608.44	45448.52
608.60	45088.08
608.75	45574.91
608.91	45610.02
609.06	45179.36
609.22	45525.76
609.37	45448.52
609.53	45462.57
609.68	45715.34
609.84	45542.14
609.99	45382.99
610.15	45326.81
610.30	45291.71
610.46	45359.58
610.61	45024.89
610.76	45523.42
610.92	45518.74
611.07	45626.40
611.23	45319.79
611.38	45490.65
611.54	45233.19
611.69	44921.90
611.84	44896.16
612.00	45146.59
612.15	45076.38
612.31	45607.68
612.46	44741.68
612.62	45251.92
612.77	45055.31
612.92	44858.71
613.08	44823.60
613.23	44865.73
613.39	44945.31
613.54	44458.48
613.69	44673.81
613.85	45174.68
614.00	44690.19
614.15	44790.83
614.31	44839.98
614.46	45237.87
614.62	44854.03
614.77	44825.94
614.92	44638.70
615.08	44774.45
615.23	44900.84
615.38	44678.49
615.54	44416.35
615.69	44390.60
615.84	44329.75
616.00	44385.92
616.15	44442.09
616.30	44821.26
616.46	44467.84
616.61	44444.43
616.76	44610.61
616.92	43723.55
617.07	44348.47
617.22	44156.55
617.37	44100.37
617.53	44659.76
617.68	44767.43
617.83	44659.76
617.99	44060.58
618.14	44531.03
618.29	44378.90
618.45	44023.14
618.60	44013.77
618.75	43981.01
618.90	43847.60
619.06	44109.74
619.21	44236.12
619.36	44201.02
619.51	43873.34
619.67	43887.39
619.82	43842.92
619.97	44048.88
620.12	43585.46
620.28	43339.70
620.43	44020.80
620.58	43885.04
620.73	43761.00
620.89	43658.01
621.04	43910.79
621.19	43966.96
621.34	43873.34
621.49	43555.03
621.65	43667.37
621.80	43604.18
621.95	43583.12
622.10	43880.36
622.25	43784.40
622.41	43540.99
622.56	43775.04
622.71	43861.64
622.86	43089.26
623.01	43122.03
623.16	43283.53
623.32	43442.68
623.47	43473.11
623.62	43332.68
623.77	43026.07
623.92	43430.98
624.07	43110.33
624.23	43014.37
624.38	42927.77
624.53	43255.44
624.68	43208.63
624.83	43407.58
624.98	43545.67
625.13	42602.43
625.29	42930.11
625.44	42258.37
625.59	42735.84
625.74	42618.81
625.89	42829.46
626.04	42674.99
626.19	42876.27
626.34	42532.22
626.49	43030.75
626.65	42873.93
626.80	42674.99
626.95	42546.26
627.10	42139.00
627.25	42391.78
627.40	42178.79
627.55	42429.23
627.70	42195.18
627.85	42927.77
628.00	42286.46
628.15	42820.10
628.30	42234.97
628.45	42024.32
628.60	42616.47
628.76	42129.64
628.91	42293.48
629.06	41792.61
629.21	42202.20
629.36	42113.26
629.51	42150.71
629.66	42068.79
629.81	42089.85
629.96	41869.84
630.11	42195.18
630.26	41965.81
630.41	42188.16
630.56	41792.61
630.71	41876.86
630.86	41771.54
631.01	41930.70
631.16	41752.82
631.31	41776.22
631.46	41556.21
631.61	42014.96
631.76	41586.64
631.91	41893.25
632.06	42101.56
632.21	41888.57
632.36	41921.34
632.51	41284.71
632.66	41411.10
632.81	41134.92
632.96	41553.87
633.10	41626.43
633.25	41462.59
633.40	41696.64
633.55	41663.88
633.70	41324.50
633.85	41401.74
634.00	41626.43
634.15	41659.20
634.30	41062.36
634.45	40994.48
634.60	40889.16
634.75	41144.28
634.90	41280.03
635.05	41366.63
635.19	40989.80
635.34	41111.51
635.49	41317.48
635.64	41497.70
635.79	40910.22
635.94	40980.44
636.09	41167.68
636.24	40804.90
636.39	40025.50
636.53	40914.90
636.68	40945.33
636.83	40973.42
636.98	40863.41
637.13	40947.67
637.28	41017.89
637.43	40945.33
637.57	41130.23
637.72	40774.47
637.87	40605.95
638.02	40598.93
638.17	40519.35
638.32	40502.97
638.46	40236.15
638.61	39988.05
638.76	40570.85
638.91	40151.89
639.06	40435.10
639.20	40456.16
639.35	40774.47
639.50	40018.48
639.65	40252.53
639.80	40009.12
639.94	40170.61
640.09	40306.37
640.24	40170.61
640.39	40116.78
640.54	40018.48
640.68	40037.20
640.83	40315.73
640.98	39791.45
641.13	39555.05
641.27	40107.42
641.42	40023.16
641.57	40219.77
641.72	39906.13
641.86	39835.92
642.01	39707.19
642.16	39648.68
642.31	40023.16
642.45	40201.04
642.60	39257.81
642.75	40215.08
642.90	39824.22
643.04	39868.69
643.19	39728.25
643.34	39431.01
643.48	39412.28
643.63	39842.94
643.78	39543.35
643.93	39636.97
644.07	39063.54
644.22	39131.42
644.37	38972.26
644.51	39182.91
644.66	39751.66
644.81	39477.82
644.95	39246.10
645.10	39194.61
645.25	39367.81
645.39	39346.75
645.54	39468.45
645.69	39000.35
645.83	39126.74
645.98	39016.73
646.13	38808.42
646.27	39227.38
646.42	38754.59
646.57	39110.35
646.71	39047.16
646.86	39243.76
647.00	39150.14
647.15	38653.95
647.30	39295.25
647.44	39234.40
647.59	38483.09
647.74	38469.04
647.88	39005.03
648.03	38700.76
648.17	38925.45
648.32	38579.05
648.47	38677.35
648.61	38534.58
648.76	39033.11
648.90	38857.57
649.05	38387.13
649.20	38838.85
649.34	38618.84
649.49	38024.34
649.63	38403.51
649.78	38721.82
649.92	38595.43
650.07	38513.52
650.21	38419.89
650.36	38433.94
650.51	38171.80
650.65	38775.66
650.80	38848.21
650.94	38431.60
651.09	38550.96
651.23	38330.95
651.38	38263.08
651.52	38122.65
651.67	37841.78
651.81	38033.71
651.96	38213.93
652.10	37748.16
652.25	38108.60
652.39	38024.34
652.54	38471.39
652.68	38110.94
652.83	38216.27
652.97	38623.52
653.12	38368.40
653.26	37993.92
653.41	37635.81
653.55	37567.94
653.70	38075.84
653.84	37794.97
653.99	37769.22
654.13	37734.12
654.27	37509.43
654.42	37900.29
654.56	37827.74
654.71	37799.65
654.85	37460.27
655.00	38218.61
655.14	37366.65
655.29	37366.65
655.43	37294.10
655.57	37258.99
655.72	37022.59
655.86	37427.51
656.01	36786.20
656.15	36800.24
656.30	36479.59
656.44	37088.13
656.58	37195.79
656.73	37139.62
656.87	36994.51
657.01	36664.49
657.16	36816.63
657.30	36519.38
657.45	36802.58
657.59	36807.26
657.73	36765.14
657.88	37137.28
658.02	36809.61
658.16	37153.66
658.31	36804.92
658.45	37104.51
658.60	37343.25
658.74	36615.34
658.88	37418.14
659.03	36898.55
659.17	36610.66
659.31	36254.90
659.46	36531.08
659.60	36769.82
659.74	36327.45
659.89	36060.63
660.03	35959.99
660.17	36781.52
660.32	36327.45
660.46	36290.01
660.60	35894.46
660.74	36460.87
660.89	36250.22
661.03	35931.90
661.17	36060.63
661.32	35828.92
661.46	35686.15
661.60	35859.35
661.74	35688.49
661.89	35931.90
662.03	35793.81
662.17	35592.53
662.31	35922.54
662.46	35599.55
662.60	35941.27
662.74	35461.46
662.88	35426.35
663.03	35051.86
663.17	35431.03
663.31	35482.52
663.45	35529.33
663.60	35658.06
663.74	35178.25
663.88	35243.79
664.02	34843.56
664.17	35412.31
664.31	34866.96
664.45	34782.70
664.59	35306.98
664.73	34658.65
664.88	35075.27
665.02	34476.09
665.16	34763.98
665.30	34330.98
665.44	34466.73
665.59	34590.78
665.73	34728.87
665.87	33928.41
666.01	34384.81
666.15	34593.12
666.29	34286.51
666.44	34483.11
666.58	34080.54
666.72	34560.35
666.86	34237.36
667.00	34139.05
667.14	33996.28
667.28	33914.36
667.43	33841.81
667.57	34007.98
667.71	33743.50
667.85	33883.94
667.99	34169.48
668.13	33586.69
668.27	33881.60
668.41	33406.47
668.56	33357.32
668.70	33537.54
668.84	33046.02
668.98	33209.86
669.12	33202.84
669.26	33251.99
669.40	32858.78
669.54	32975.81
669.68	32931.34
669.82	33099.86
669.96	32645.79
670.10	32835.38
670.25	32861.12
670.39	33013.26
670.53	32774.52
670.67	32435.14
670.81	32505.36
670.95	32809.63
671.09	32374.29
671.23	32245.56
671.37	32477.27
671.51	32343.86
671.65	32107.47
671.79	32037.25
671.93	32334.50
672.07	31683.83
672.21	31803.20
672.35	32023.21
672.49	31779.79
672.63	31985.76
672.77	31831.29
672.91	31569.15
673.05	31150.19
673.19	31747.03
673.33	31620.64
673.47	31236.79
673.61	31548.08
673.75	30986.35
673.89	30698.47
674.03	31108.06
674.17	30988.69
674.31	31255.51
674.45	31103.38
674.59	31669.79
674.73	30719.53
674.87	30813.15
675.01	30541.65
675.15	30843.58
675.29	30728.89
675.43	30328.66
675.56	30590.80
675.70	30752.30
675.84	30359.09
675.98	29195.84
676.12	30017.37
676.26	30078.22
676.40	30080.56
676.54	30106.31
676.68	29340.96
676.82	29242.65
676.96	29495.43
677.10	30059.50
677.23	29699.06
677.37	29380.74
677.51	29310.53
677.65	28973.49
677.79	28910.30
677.93	28620.07
678.07	28769.86
678.21	28524.11
678.34	28596.67
678.48	28341.55
678.62	28294.74
678.76	28222.18
678.90	28151.96
679.04	28231.54
679.18	28219.84
679.31	27854.72
679.45	27669.81
679.59	27901.53
679.73	27992.81
679.87	27353.84
680.00	27704.92
680.14	27669.81
680.28	27522.36
680.42	27035.53
680.56	27072.98
680.70	27377.25
680.83	27185.32
680.97	27239.15
681.11	27138.51
681.25	27269.58
681.39	26874.03
681.52	27023.83
681.66	26590.83
681.80	26654.02
681.94	26597.85
682.07	26375.50
682.21	26436.35
682.35	26281.88
682.49	26288.90
682.62	25888.67
682.76	25769.30
682.90	26024.42
683.04	25743.55
683.17	25795.04
683.31	25628.87
683.45	25675.68
683.59	25628.87
683.72	25303.53
683.86	25359.70
684.00	24830.74
684.13	25085.86
684.27	24861.17
684.41	24854.15
684.55	24744.14
684.68	24709.04
684.82	24807.34
684.96	24610.73
685.09	24446.90
685.23	24383.70
685.37	24601.37
685.50	24372.00
685.64	24577.97
685.78	24215.18
685.91	24238.59
686.05	23683.88
686.19	23859.42
686.32	23850.06
686.46	23367.91
686.60	23225.14
686.73	23175.98
686.87	23084.70
687.01	23215.77
687.14	22782.77
687.28	22876.40
687.42	22611.92
687.55	22792.14
687.69	23126.83
687.82	22806.18
687.96	22888.10
688.10	22366.16
688.23	22656.39
688.37	22349.78
688.50	22574.47
688.64	22593.19
688.78	22256.15
688.91	21928.48
689.05	22115.72
689.18	21556.33
689.32	21776.34
689.46	21923.80
689.59	21907.41
689.73	21989.33
689.86	21607.83
690.00	21310.58
690.13	21710.81
690.27	21366.75
690.41	20900.98
690.54	21165.46
690.68	21090.57
690.81	21242.70
690.95	21050.78
691.08	20772.25
691.22	20599.05
691.35	20781.62
691.49	20730.12
691.62	20467.98
691.76	20638.84
691.89	20409.47
692.03	20505.43
692.16	20531.18
692.30	20168.40
692.43	20086.48
692.57	19719.01
692.70	19463.90
692.84	19941.36
692.97	19447.51
693.11	19503.68
693.24	19534.11
693.38	19304.74
693.51	19410.06
693.65	19365.59
693.78	18979.40
693.92	19438.15
694.05	19138.56
694.19	18923.23
694.32	19276.65
694.45	18775.78
694.59	19150.26
694.72	18771.10
694.86	18857.70
694.99	18541.72
695.13	18513.64
695.26	18541.72
695.39	18450.44
695.53	18412.99
695.66	18551.09
695.80	18494.91
695.93	18150.85
696.07	18059.57
696.20	18443.42
696.33	17940.21
696.47	17933.18
696.60	17984.68
696.73	17881.69
696.87	17685.09
697.00	17638.28
697.14	17294.22
697.27	17013.35
697.40	17326.99
697.54	17369.12
697.67	17479.12
697.80	17029.74
697.94	16996.97
698.07	16723.13
698.21	17088.25
698.34	17228.68
698.47	16840.15
698.61	16720.79
698.74	16617.80
698.87	16542.91
699.01	16496.10
699.14	16350.98
699.27	16198.85
699.40	16203.53
699.54	16201.19
699.67	15992.88
699.80	16095.86
699.94	15871.17
700.07	15974.16
700.20	16231.62
700.34	15765.85
700.47	15777.55
700.60	15782.23
700.73	15941.39
700.87	15592.65
701.00	15311.78
701.13	15227.53
701.26	15454.56
701.40	15000.49
701.53	15145.61
701.66	15417.11
701.79	14981.77
701.93	15002.83
702.06	14834.32
702.19	14815.59
702.32	14595.58
702.46	14857.72
702.59	14686.86
702.72	14541.75
702.85	14918.57
702.99	14389.61
703.12	14431.74
703.25	14349.82
703.38	14492.60
703.51	14551.11
703.65	14469.19
703.78	13968.32
703.91	13710.86
704.04	14061.94
704.17	13701.50
704.31	13689.79
704.44	13802.14
704.57	13612.56
704.70	13504.89
704.83	13504.89
704.96	13605.53
705.10	13668.73
705.23	13207.64
>>>>>End Processed Spectral Data<<<<<
