SpectraSuite Data File
++++++++++++++++++++++++++++++++++++
Date: Fri Oct 25 11:33:12 EDT 2013
User: price-jones
Dark Spectrum Present: No
Reference Spectrum Present: No
Number of Sampled Component Spectra: 1
Spectrometers: USB2+H05261
Integration Time (usec): 100000 (USB2+H05261)
Spectra Averaged: 1 (USB2+H05261)
Boxcar Smoothing: 0 (USB2+H05261)
Correct for Electrical Dark: No (USB2+H05261)
Strobe/Lamp Enabled: No (USB2+H05261)
Correct for Detector Non-linearity: No (USB2+H05261)
Correct for Stray Light: No (USB2+H05261)
Number of Pixels in Processed Spectrum: 2048
>>>>>Begin Processed Spectral Data<<<<<
365.73	322.99
365.92	322.99
366.12	322.99
366.32	222.35
366.52	203.63
366.72	201.29
366.91	163.84
367.11	88.94
367.31	163.84
367.51	149.79
367.70	201.29
367.90	210.65
368.10	184.90
368.30	191.92
368.49	177.88
368.69	196.60
368.89	212.99
369.09	245.76
369.28	126.39
369.48	180.22
369.68	159.16
369.87	294.91
370.07	201.29
370.27	236.39
370.47	339.38
370.66	421.30
370.86	414.27
371.06	472.79
371.25	620.24
371.45	540.66
371.65	507.90
371.84	601.52
372.04	533.64
372.24	550.03
372.44	524.28
372.63	641.31
372.83	631.94
373.03	638.97
373.22	580.45
373.42	561.73
373.62	662.37
373.81	636.63
374.01	702.16
374.21	690.46
374.40	608.54
374.60	617.90
374.79	596.84
374.99	627.26
375.19	627.26
375.38	706.84
375.58	734.93
375.78	690.46
375.97	699.82
376.17	692.80
376.37	732.59
376.56	706.84
376.76	763.01
376.95	645.99
377.15	636.63
377.35	653.01
377.54	676.41
377.74	557.05
377.93	662.37
378.13	685.78
378.33	695.14
378.52	706.84
378.72	732.59
378.91	709.18
379.11	716.20
379.31	744.29
379.50	730.25
379.70	725.57
379.89	774.72
380.09	713.86
380.28	765.36
380.48	711.52
380.68	784.08
380.87	772.38
381.07	730.25
381.26	772.38
381.46	702.16
381.65	781.74
381.85	784.08
382.04	849.61
382.24	791.10
382.43	779.40
382.63	807.48
382.83	770.04
383.02	814.51
383.22	830.89
383.41	833.23
383.61	814.51
383.80	781.74
384.00	826.21
384.19	798.12
384.39	805.14
384.58	826.21
384.78	814.51
384.97	842.59
385.17	830.89
385.36	798.12
385.56	800.46
385.75	837.91
385.95	870.68
386.14	929.19
386.34	814.51
386.53	833.23
386.72	851.96
386.92	880.04
387.11	882.38
387.31	866.00
387.50	894.08
387.70	894.08
387.89	924.51
388.09	873.02
388.28	826.21
388.48	903.45
388.67	835.57
388.86	917.49
389.06	1032.18
389.25	980.68
389.45	954.94
389.64	959.62
389.84	954.94
390.03	933.87
390.22	1053.24
390.42	997.07
390.61	847.27
390.81	931.53
391.00	1020.47
391.19	1029.84
391.39	966.64
391.58	999.41
391.78	1039.20
391.97	1050.90
392.16	1046.22
392.36	1116.44
392.55	1053.24
392.75	1114.10
392.94	1081.33
393.13	1137.50
393.33	1088.35
393.52	1093.03
393.71	1050.90
393.91	1043.88
394.10	1074.31
394.29	1015.79
394.49	1158.57
394.68	1121.12
394.88	1097.71
395.07	1217.08
395.26	994.73
395.46	1074.31
395.65	1086.01
395.84	1226.44
396.04	1348.15
396.23	1240.48
396.42	1158.57
396.62	1188.99
396.81	1270.91
397.00	1212.40
397.19	1196.01
397.39	1306.02
397.58	1301.34
397.77	1170.27
397.97	1291.98
398.16	1282.61
398.35	1404.32
398.55	1207.72
398.74	1287.29
398.93	1315.38
399.12	1289.64
399.32	1362.19
399.51	1313.04
399.70	1310.70
399.90	1380.92
400.09	1341.13
400.28	1383.26
400.47	1376.24
400.67	1399.64
400.86	1441.77
401.05	1441.77
401.24	1418.36
401.44	1472.20
401.63	1401.98
401.82	1490.92
402.01	1460.49
402.21	1474.54
402.40	1476.88
402.59	1444.11
402.78	1551.78
402.97	1493.26
403.17	1631.35
403.36	1647.74
403.55	1514.33
403.74	1666.46
403.93	1657.10
404.13	1586.88
404.32	1624.33
404.51	1638.38
404.70	1645.40
404.89	1710.93
405.09	1668.80
405.28	1682.85
405.47	1629.01
405.66	1767.10
405.85	1771.79
406.05	1657.10
406.24	1729.66
406.43	1724.97
406.62	1858.39
406.81	1893.49
407.00	1820.94
407.20	1734.34
407.39	1809.23
407.58	1888.81
407.77	1942.64
407.96	1895.83
408.15	1884.13
408.34	1893.49
408.54	1942.64
408.73	1909.88
408.92	2010.52
409.11	1916.90
409.30	2026.90
409.49	1959.03
409.68	2057.33
409.87	1984.77
410.07	2038.61
410.26	2001.16
410.45	2115.84
410.64	1989.46
410.83	2153.29
411.02	2143.93
411.21	2190.74
411.40	2186.06
411.59	2256.28
411.78	2176.70
411.98	2286.70
412.17	2310.11
412.36	2380.32
412.55	2349.90
412.74	2359.26
412.93	2431.82
413.12	2349.90
413.31	2539.48
413.50	2471.61
413.69	2462.24
413.88	2366.28
414.07	2558.21
414.26	2544.16
414.45	2530.12
414.64	2630.76
414.83	2534.80
415.02	2670.55
415.22	2703.32
415.41	2757.15
415.60	2658.85
415.79	2796.94
415.98	2757.15
416.17	2810.98
416.36	2794.60
416.55	2743.11
416.74	2698.64
416.93	2794.60
417.12	2949.08
417.31	2832.05
417.50	3042.70
417.69	3035.67
417.88	3028.65
418.07	2920.99
418.26	2942.05
418.45	2960.78
418.64	3009.93
418.83	3180.79
419.02	2991.20
419.21	3197.17
419.39	3124.62
419.58	3293.13
419.77	3201.85
419.96	3080.14
420.15	3136.32
420.34	3187.81
420.53	3185.47
420.72	3407.82
420.91	3297.81
421.10	3325.90
421.29	3281.43
421.48	3246.32
421.67	3258.03
421.86	3346.97
422.05	3346.97
422.24	3342.28
422.43	3396.12
422.61	3419.52
422.80	3375.05
422.99	3417.18
423.18	3302.50
423.37	3609.11
423.56	3384.41
423.75	3449.95
423.94	3239.30
424.13	3215.90
424.32	3243.98
424.50	3548.25
424.69	3389.10
424.88	3564.64
425.07	3456.97
425.26	3407.82
425.45	3494.42
425.64	3508.46
425.83	3515.48
426.01	3571.66
426.20	3639.53
426.39	3414.84
426.58	3667.62
426.77	3454.63
426.96	3524.85
427.15	3510.80
427.33	3611.45
427.52	3655.92
427.71	3588.04
427.90	3669.96
428.09	3597.40
428.28	3698.05
428.46	3747.20
428.65	3599.74
428.84	3861.88
429.03	3866.56
429.22	3686.34
429.40	3894.65
429.59	3817.41
429.78	3709.75
429.97	3794.01
430.16	3775.28
430.34	3868.91
430.53	3950.82
430.72	3857.20
430.91	3838.48
431.10	3859.54
431.28	3983.59
431.47	4007.00
431.66	4030.40
431.85	4023.38
432.03	4095.94
432.22	4245.73
432.41	3995.29
432.60	4112.32
432.79	4156.79
432.97	4243.39
433.16	4149.77
433.35	4142.75
433.54	4229.35
433.72	4217.65
433.91	4156.79
434.10	4304.25
434.28	4198.92
434.47	4346.37
434.66	4301.90
434.85	4290.20
435.03	4271.48
435.22	4397.87
435.41	4521.92
435.59	4311.27
435.78	4603.83
435.97	4507.87
436.16	4355.74
436.34	4425.95
436.53	4397.87
436.72	4676.39
436.90	4573.41
437.09	4526.60
437.28	4461.06
437.46	4500.85
437.65	4554.68
437.84	4709.16
438.02	4702.14
438.21	4652.98
438.40	4568.73
438.58	4739.58
438.77	4961.94
438.96	4985.34
439.14	4926.83
439.33	4924.49
439.52	4889.38
439.70	4994.70
439.89	4973.64
440.08	4945.55
440.26	5151.52
440.45	5088.32
440.63	5018.11
440.82	5310.68
441.01	5310.68
441.19	5338.76
441.38	5331.74
441.57	5359.83
441.75	5324.72
441.94	5446.43
442.12	5509.62
442.31	5434.72
442.50	5558.77
442.68	5476.85
442.87	5596.22
443.05	5692.18
443.24	5631.33
443.43	5570.48
443.61	5526.00
443.80	5825.59
443.98	5586.86
444.17	5404.30
444.35	5561.11
444.54	5778.78
444.73	5628.99
444.91	5610.26
445.10	5748.36
445.28	5657.07
445.47	5582.18
445.65	5685.16
445.84	5703.89
446.02	5694.52
446.21	5720.27
446.39	5654.73
446.58	5771.76
446.77	5774.10
446.95	5664.10
447.14	5755.38
447.32	5792.83
447.51	5750.70
447.69	5849.00
447.88	5647.71
448.06	5884.11
448.25	5930.92
448.43	5827.93
448.62	5877.09
448.80	5881.77
448.99	6059.65
449.17	5933.26
449.36	5881.77
449.54	6134.54
449.73	6127.52
449.91	6050.28
450.10	6363.92
450.28	6186.04
450.46	6085.39
450.65	6122.84
450.83	6134.54
451.02	6349.87
451.20	6338.17
451.39	6356.90
451.57	6377.96
451.76	6214.12
451.94	6389.66
452.13	6361.58
452.31	6413.07
452.49	6333.49
452.68	6368.60
452.86	6193.06
453.05	6518.39
453.23	6494.99
453.42	6392.00
453.60	6333.49
453.78	6546.48
453.97	6492.65
454.15	6396.68
454.34	6579.25
454.52	6604.99
454.70	6506.69
454.89	6658.82
455.07	6825.00
455.26	6661.16
455.44	6616.69
455.62	6836.70
455.81	6836.70
455.99	6773.51
456.17	6665.85
456.36	6825.00
456.54	6951.39
456.73	6911.60
456.91	7110.55
457.09	7023.95
457.28	7180.76
457.46	6979.48
457.64	7206.51
457.83	7119.91
458.01	7152.68
458.19	7269.70
458.38	7133.95
458.56	7311.83
458.74	7080.12
458.93	7220.55
459.11	7253.32
459.29	7304.81
459.48	7316.51
459.66	7531.84
459.84	7391.41
460.03	7496.74
460.21	7522.48
460.39	7339.92
460.57	7508.44
460.76	7602.06
460.94	7581.00
461.12	7573.97
461.31	7669.94
461.49	7576.31
461.67	7597.38
461.85	7875.90
462.04	7838.45
462.22	8093.57
462.40	7744.83
462.59	7892.29
462.77	7950.80
462.95	7936.76
463.13	7878.24
463.32	7824.41
463.50	7999.95
463.68	7852.50
463.86	8037.40
464.05	7857.18
464.23	7985.91
464.41	8229.32
464.59	8060.80
464.78	8140.38
464.96	8023.36
465.14	8018.68
465.32	8126.34
465.50	8332.31
465.69	8409.54
465.87	8116.98
466.05	8112.30
466.23	8236.35
466.41	8170.81
466.60	8329.97
466.78	8259.75
466.96	8203.58
467.14	8388.48
467.32	8411.89
467.51	8313.58
467.69	8245.71
467.87	8521.89
468.05	8486.78
468.23	8407.20
468.41	8421.25
468.60	8650.62
468.78	8699.77
468.96	8542.96
469.14	8631.90
469.32	8702.11
469.50	8547.64
469.69	8582.74
469.87	9039.15
470.05	8805.10
470.23	8849.57
470.41	8943.19
470.59	9151.49
470.77	8849.57
470.95	8877.65
471.14	9048.51
471.32	8968.93
471.50	9125.75
471.68	9263.84
471.86	9221.71
472.04	9226.39
472.22	9277.88
472.40	9282.56
472.58	9338.74
472.77	9327.03
472.95	9572.79
473.13	9844.29
473.31	9455.76
473.49	9603.22
473.67	9640.67
473.85	9540.02
474.03	9760.03
474.21	9923.87
474.39	10078.35
474.57	9989.41
474.75	10078.35
474.93	9977.70
475.12	10200.05
475.30	10066.64
475.48	10284.31
475.66	10204.74
475.84	10127.50
476.02	10148.56
476.20	10389.64
476.38	10712.63
476.56	10635.39
476.74	10703.27
476.92	10551.14
477.10	10679.86
477.28	10736.04
477.46	10960.73
477.64	11012.22
477.82	11140.95
478.00	11152.65
478.18	11283.72
478.36	11272.02
478.54	11173.72
478.72	11332.87
478.90	11707.36
479.08	11679.27
479.26	11899.28
479.44	11662.89
479.62	12049.08
479.80	12212.92
479.98	12149.72
480.16	12308.88
480.34	12241.00
480.52	12575.70
480.70	12451.65
480.88	12432.93
481.06	12723.15
481.24	12510.16
481.41	12674.00
481.59	12776.98
481.77	13095.30
481.95	12793.37
482.13	13083.59
482.31	13109.34
482.49	13319.99
482.67	13429.99
482.85	13706.18
483.03	13701.50
483.21	13771.71
483.39	14057.26
483.57	13879.38
483.74	14113.43
483.92	14277.27
484.10	14267.91
484.28	14714.95
484.46	14600.26
484.64	14949.00
484.82	14640.05
485.00	14876.44
485.18	15262.63
485.35	15253.27
485.53	15232.21
485.71	15353.91
485.89	15573.92
486.07	15557.54
486.25	15660.52
486.43	15667.55
486.61	15660.52
486.78	16020.97
486.96	15843.09
487.14	16638.87
487.32	16542.91
487.50	16669.30
487.68	16524.18
487.85	16617.80
488.03	16666.95
488.21	17200.60
488.39	17132.72
488.57	17191.23
488.75	17359.75
488.92	17729.56
489.10	17558.70
489.28	17717.86
489.46	17869.99
489.64	18204.69
489.81	18342.78
489.99	18466.83
490.17	18523.00
490.35	18513.64
490.53	18677.48
490.70	18803.86
490.88	18604.92
491.06	19126.86
491.24	19229.84
491.41	19199.41
491.59	19690.93
491.77	19274.31
491.95	19447.51
492.13	19604.33
492.30	19822.00
492.48	19903.92
492.66	20032.65
492.84	20273.72
493.01	20299.47
493.19	20503.09
493.37	20542.88
493.54	20622.46
493.72	20851.83
493.90	20856.51
494.08	21137.38
494.25	21139.72
494.43	20954.82
494.61	21362.07
494.79	21654.64
494.96	21745.92
495.14	21724.85
495.32	21907.41
495.49	21947.20
495.67	21956.57
495.85	22223.39
496.02	22391.91
496.20	22389.56
496.38	22628.30
496.55	22490.21
496.73	23166.62
496.91	23372.59
497.09	22892.78
497.26	23293.01
497.44	23129.17
497.62	23403.02
497.79	23648.77
497.97	23770.48
498.14	24133.26
498.32	23995.17
498.50	24428.17
498.67	24151.99
498.85	24226.89
499.03	24023.26
499.20	24561.58
499.38	24486.68
499.56	24577.97
499.73	24767.55
499.91	24833.08
500.08	24856.49
500.26	25069.48
500.44	24893.94
500.61	25305.87
500.79	25039.05
500.97	25542.27
501.14	25645.25
501.32	25834.83
501.49	25603.12
501.67	25752.91
501.84	26326.35
502.02	25537.59
502.20	25825.47
502.37	26139.10
502.55	26096.97
502.72	26047.82
502.90	26239.75
503.07	26178.89
503.25	26316.98
503.43	26202.30
503.60	26647.00
503.78	26649.34
503.95	26810.84
504.13	26817.86
504.30	26958.29
504.48	26871.69
504.65	27122.13
504.83	27414.69
505.01	27388.95
505.18	27559.81
505.36	27531.72
505.53	27669.81
505.71	27861.74
505.88	27440.44
506.06	27728.33
506.23	27845.35
506.41	27821.95
506.58	27974.08
506.76	28058.34
506.93	28456.23
507.11	28285.37
507.28	28074.73
507.46	28376.66
507.63	28610.71
507.81	28830.72
507.98	28762.84
508.16	29001.58
508.33	28804.97
508.50	29177.12
508.68	28819.02
508.85	29015.62
509.03	29146.69
509.20	29944.81
509.38	29991.62
509.55	29310.53
509.73	29596.07
509.90	29881.62
510.08	29790.34
510.25	29823.11
510.42	30188.23
510.60	30319.30
510.77	30387.18
510.95	30391.86
511.12	30452.71
511.30	30314.62
511.47	30714.85
511.64	30450.37
511.82	30895.07
511.99	30941.88
512.17	30728.89
512.34	30808.47
512.51	31147.85
512.69	31152.53
512.86	31241.47
513.04	31262.54
513.21	31297.64
513.38	31269.56
513.56	31426.37
513.73	31328.07
513.90	31723.62
514.08	31562.12
514.25	31585.53
514.43	31833.63
514.60	31850.01
514.77	32175.34
514.95	32107.47
515.12	32395.35
515.29	31910.86
515.47	32687.92
515.64	32610.68
515.81	32025.55
515.99	32177.68
516.16	33081.13
516.33	32947.72
516.51	32811.97
516.68	32701.96
516.85	32664.52
517.03	32830.69
517.20	32769.84
517.37	32856.44
517.54	33132.62
517.72	32929.00
517.89	33074.11
518.06	33387.74
518.24	33296.46
518.41	32891.55
518.58	33151.35
518.75	33464.98
518.93	33441.57
519.10	33933.09
519.27	33820.74
519.45	33984.58
519.62	34050.11
519.79	34274.80
519.96	34274.80
520.14	34146.08
520.31	34176.50
520.48	34668.02
520.65	34459.71
520.83	34794.40
521.00	34848.24
521.17	34384.81
521.34	34923.13
521.52	34780.36
521.69	35204.00
521.86	35278.89
522.03	35131.44
522.20	35442.73
522.38	35557.42
522.55	35201.66
522.72	35360.81
522.89	35704.87
523.07	35852.33
523.24	35559.76
523.41	35587.85
523.58	35473.16
523.75	36046.59
523.92	35578.48
524.10	36018.50
524.27	35967.01
524.44	36236.17
524.61	36290.01
524.78	36287.67
524.96	36140.21
525.13	36280.64
525.30	36816.63
525.47	36610.66
525.64	36259.58
525.81	36800.24
525.98	36774.50
526.16	36734.71
526.33	36582.57
526.50	37156.00
526.67	36664.49
526.84	37214.52
527.01	36968.76
527.18	37116.22
527.36	37350.27
527.53	37167.71
527.70	37687.31
527.87	37198.13
528.04	37600.71
528.21	37720.07
528.38	37722.41
528.55	37338.57
528.72	38010.30
528.89	37708.37
529.07	37584.32
529.24	38405.85
529.41	38099.24
529.58	38064.13
529.75	37741.14
529.92	38024.34
530.09	37954.13
530.26	38330.95
530.43	38387.13
530.60	38096.90
530.77	38220.95
530.94	38326.27
531.11	38480.75
531.28	38249.03
531.46	38642.24
531.63	38651.61
531.80	38380.10
531.97	38700.76
532.14	39056.52
532.31	38244.35
532.48	39475.48
532.65	39257.81
532.82	38780.34
532.99	38829.49
533.16	39129.08
533.33	39571.44
533.50	39580.80
533.67	39496.54
533.84	39175.89
534.01	39342.06
534.18	39349.09
534.35	40084.01
534.52	39295.25
534.69	40133.17
534.86	39651.02
535.03	39849.96
535.20	40039.54
535.37	39693.15
535.54	39807.83
535.71	39871.03
535.88	40322.75
536.05	39978.69
536.22	40378.92
536.38	40502.97
536.55	40311.05
536.72	40133.17
536.89	39866.34
537.06	40273.60
537.23	40203.38
537.40	40257.21
537.57	40088.70
537.74	40151.89
537.91	40662.13
538.08	40594.25
538.25	40472.54
538.42	40479.57
538.59	41104.49
538.75	40652.76
538.92	41069.38
539.09	40692.55
539.26	40952.35
539.43	40996.82
539.60	41179.39
539.77	41067.04
539.94	41476.63
540.11	41179.39
540.28	41706.01
540.44	41544.51
540.61	41256.62
540.78	40596.59
540.95	41596.00
541.12	41633.45
541.29	41361.95
541.46	41567.91
541.62	41184.07
541.79	41841.76
541.96	41460.25
542.13	41228.54
542.30	41902.61
542.47	41888.57
542.63	41862.82
542.80	41841.76
542.97	42000.91
543.14	42642.22
543.31	41951.76
543.48	42375.40
543.64	43009.68
543.81	42438.59
543.98	42775.63
544.15	42195.18
544.32	42745.20
544.48	42787.33
544.65	42827.12
544.82	42485.40
544.99	42469.02
545.16	42522.85
545.32	42995.64
545.49	42969.90
545.66	43297.57
545.83	43166.50
546.00	43372.47
546.16	43054.15
546.33	42948.83
546.50	42838.83
546.67	43573.75
546.83	42171.77
547.00	43552.69
547.17	43484.81
547.34	43344.38
547.50	43508.22
547.67	43863.98
547.84	43335.02
548.00	43863.98
548.17	44020.80
548.34	43856.96
548.51	43945.90
548.67	43370.13
548.84	43927.17
549.01	43440.34
549.18	43566.73
549.34	43971.64
549.51	43892.07
549.68	44343.79
549.84	43606.52
550.01	44165.91
550.18	43906.11
550.34	43704.82
550.51	44296.98
550.68	44135.48
550.84	44126.12
551.01	44034.84
551.18	43690.78
551.34	44114.42
551.51	44320.38
551.68	44786.15
551.84	44306.34
552.01	44177.61
552.18	44432.73
552.34	44236.12
552.51	44849.35
552.68	44222.08
552.84	44765.09
553.01	44744.02
553.18	44594.23
553.34	44491.24
553.51	44928.92
553.67	44774.45
553.84	44690.19
554.01	45195.74
554.17	44797.85
554.34	45294.05
554.51	45137.23
554.67	45106.80
554.84	45495.33
555.00	44928.92
555.17	44868.07
555.33	45329.16
555.50	45453.20
555.67	45120.85
555.83	45347.88
556.00	45113.83
556.16	45610.02
556.33	45223.83
556.50	45464.91
556.66	45689.60
556.83	44987.44
556.99	45734.07
557.16	45954.08
557.32	45689.60
557.49	45347.88
557.65	45481.29
557.82	45556.19
557.98	45954.08
558.15	45523.42
558.32	45783.22
558.48	45837.05
558.65	45888.54
558.81	45640.45
558.98	45619.38
559.14	45422.78
559.31	45556.19
559.47	45776.20
559.64	45663.85
559.80	46031.32
559.97	45745.77
560.13	46232.60
560.30	46007.91
560.46	45790.24
560.63	46216.22
560.79	45844.07
560.96	46412.82
561.12	46234.94
561.29	46366.01
561.45	46309.84
561.61	46183.45
561.78	46148.34
561.94	46092.17
562.11	46103.87
562.27	46115.58
562.44	46375.37
562.60	46548.57
562.77	46579.00
562.93	46487.72
563.10	46080.47
563.26	46225.58
563.42	46574.32
563.59	46239.62
563.75	46478.36
563.92	46698.37
564.08	46543.89
564.24	46834.12
564.41	46220.90
564.57	46742.84
564.74	46557.94
564.90	46370.69
565.07	46677.30
565.23	46164.73
565.39	46686.67
565.56	46902.00
565.72	46438.57
565.88	46665.60
566.05	46469.00
566.21	46635.17
566.38	46616.45
566.54	46852.84
566.70	46925.40
566.87	47072.85
567.03	46515.81
567.19	47019.02
567.36	46810.71
567.52	47098.60
567.68	47269.46
567.85	46827.10
568.01	47098.60
568.17	46948.81
568.34	47173.50
568.50	46857.52
568.66	46696.03
568.83	46763.90
568.99	46976.89
569.15	46548.57
569.32	46831.78
569.48	47007.32
569.64	47674.37
569.81	47360.74
569.97	46876.25
570.13	47440.32
570.30	46829.44
570.46	47248.39
570.62	47084.56
570.78	47531.60
570.95	47260.10
571.11	47107.96
571.27	46962.85
571.43	47114.98
571.60	47412.23
571.76	47065.83
571.92	47044.77
572.09	47000.30
572.25	47171.16
572.41	46937.10
572.57	47129.03
572.74	47870.98
572.90	46969.87
573.06	47899.06
573.22	47428.62
573.38	47374.78
573.55	47437.98
573.71	47934.17
573.87	47583.09
574.03	47290.52
574.20	47758.63
574.36	47241.37
574.52	47126.69
574.68	47540.96
574.84	47648.63
575.01	47650.97
575.17	47491.81
575.33	47416.91
575.49	47613.52
575.65	47470.75
575.82	47826.51
575.98	47524.58
576.14	47606.50
576.30	47377.12
576.46	47285.84
576.62	47400.53
576.79	47779.70
576.95	47285.84
577.11	47650.97
577.27	47641.60
577.43	47767.99
577.59	47388.83
577.75	47250.74
577.92	47091.58
578.08	47688.42
578.24	47695.44
578.40	47618.20
578.56	47714.16
578.72	47498.83
578.88	47648.63
579.04	47627.56
579.21	47543.30
579.37	47653.31
579.53	47835.87
579.69	47224.99
579.85	47587.77
580.01	47988.00
580.17	47569.05
580.33	47524.58
580.49	47414.57
580.65	47466.06
580.82	47767.99
580.98	47323.29
581.14	47203.92
581.30	47545.64
581.46	47627.56
581.62	47234.35
581.78	47430.96
581.94	47861.61
582.10	47838.21
582.26	47945.87
582.42	47459.04
582.58	47959.92
582.74	47428.62
582.90	47571.39
583.06	47924.81
583.22	47885.02
583.38	47695.44
583.54	48512.28
583.70	47604.16
583.86	47756.29
584.02	47412.23
584.18	48163.54
584.34	47849.91
584.50	48037.16
584.66	48018.43
584.82	47915.45
584.98	48313.34
585.14	47880.34
585.30	47683.73
585.46	47700.12
585.62	47260.10
585.78	47997.37
585.94	47760.97
586.10	47416.91
586.26	47964.60
586.42	47913.11
586.58	47873.32
586.74	47707.14
586.90	47700.12
587.06	47910.77
587.22	48055.88
587.38	47653.31
587.54	48320.36
587.70	48711.23
587.86	47765.65
588.02	47934.17
588.18	47838.21
588.34	48062.90
588.49	47955.24
588.65	47899.06
588.81	47838.21
588.97	47988.00
589.13	48388.24
589.29	47779.70
589.45	48336.74
589.61	48147.16
589.77	48044.18
589.93	47840.55
590.08	48140.14
590.24	48406.96
590.40	48671.44
590.56	48348.45
590.72	48163.54
590.88	48163.54
591.04	47985.66
591.20	48399.94
591.35	48322.70
591.51	48514.62
591.67	48205.67
591.83	48378.87
591.99	48516.96
592.15	48371.85
592.31	48409.30
592.46	47835.87
592.62	48428.02
592.78	48753.36
592.94	48858.68
593.10	48793.15
593.26	48554.41
593.41	48552.07
593.57	48385.89
593.73	48650.38
593.89	48767.40
594.05	48711.23
594.20	48432.71
594.36	48861.02
594.52	48446.75
594.68	48261.85
594.84	48383.55
594.99	48830.60
595.15	48406.96
595.31	48877.41
595.47	48158.86
595.62	48914.86
595.78	48378.87
595.94	48807.19
596.10	48481.86
596.25	48322.70
596.41	48711.23
596.57	48409.30
596.73	48636.33
596.88	48769.74
597.04	48215.04
597.20	48505.26
597.36	48718.25
597.51	48535.69
597.67	48350.79
597.83	48725.27
597.99	48697.19
598.14	48729.95
598.30	48718.25
598.46	48683.14
598.61	48699.53
598.77	48481.86
598.93	48528.67
599.09	49006.14
599.24	48844.64
599.40	48839.96
599.56	48900.81
599.71	48896.13
599.87	49017.84
600.03	49169.97
600.18	49179.34
600.34	48694.85
600.50	49064.65
600.65	48732.29
600.81	49127.84
600.97	48961.67
601.12	48992.09
601.28	48882.09
601.44	48816.55
601.59	48622.29
601.75	48580.16
601.91	49130.19
602.06	48987.41
602.22	48601.22
602.37	48816.55
602.53	48657.40
602.69	48751.02
602.84	48774.42
603.00	48898.47
603.16	48580.16
603.31	48811.87
603.47	49184.02
603.62	48968.69
603.78	49027.20
603.94	48678.46
604.09	48971.03
604.25	48725.27
604.40	48645.69
604.56	48912.52
604.71	48898.47
604.87	48720.59
605.03	48533.35
605.18	48465.47
605.34	48652.72
605.49	48495.90
605.65	48821.23
605.80	48385.89
605.96	48374.19
606.12	48538.03
606.27	48753.36
606.43	48385.89
606.58	48751.02
606.74	48720.59
606.89	48353.13
607.05	48966.35
607.20	49024.86
607.36	48694.85
607.51	48451.43
607.67	48542.71
607.82	48526.33
607.98	48540.37
608.13	48577.82
608.29	48505.26
608.44	48657.40
608.60	48533.35
608.75	48598.88
608.91	48502.92
609.06	48488.88
609.22	48629.31
609.37	48481.86
609.53	48783.79
609.68	48774.42
609.84	48477.18
609.99	48437.39
610.15	48603.56
610.30	48528.67
610.46	48442.07
610.61	48219.72
610.76	48374.19
610.92	48568.46
611.07	48123.75
611.23	48402.28
611.38	47985.66
611.54	48589.52
611.69	48474.84
611.84	48589.52
612.00	48011.41
612.15	48116.73
612.31	48350.79
612.46	47480.11
612.62	48425.68
612.77	48465.47
612.92	48643.35
613.08	47742.25
613.23	48095.67
613.39	48364.83
613.54	48231.42
613.69	48561.44
613.85	47938.85
614.00	48203.33
614.15	48240.78
614.31	47875.66
614.46	48109.71
614.62	48025.45
614.77	48107.37
614.92	48046.52
615.08	47955.24
615.23	48250.14
615.38	48264.19
615.54	48032.47
615.69	48280.57
615.84	48346.11
616.00	47889.70
616.15	48210.35
616.30	48264.19
616.46	48156.52
616.61	47695.44
616.76	48133.12
616.92	47831.19
617.07	48072.26
617.22	47543.30
617.37	47576.07
617.53	47660.33
617.68	47227.33
617.83	47791.40
617.99	47796.08
618.14	47793.74
618.29	47203.92
618.45	47489.47
618.60	48032.47
618.75	47222.65
618.90	47461.38
619.06	47330.31
619.21	47318.61
619.36	47922.47
619.51	47140.73
619.67	47037.75
619.82	47739.91
619.97	47531.60
620.12	47784.38
620.28	47267.12
620.43	47702.46
620.58	47196.90
620.73	47767.99
620.89	47604.16
621.04	47735.23
621.19	47377.12
621.34	47334.99
621.49	47122.01
621.65	46880.93
621.80	47391.17
621.95	47054.13
622.10	47290.52
622.25	47222.65
622.41	47189.88
622.56	47079.88
622.71	47196.90
622.86	47224.99
623.01	47370.10
623.16	47578.41
623.32	47320.95
623.47	47290.52
623.62	47061.15
623.77	47091.58
623.92	47285.84
624.07	47241.37
624.23	47203.92
624.38	47112.64
624.53	46724.11
624.68	46873.91
624.83	46740.50
624.98	46981.57
625.13	46553.26
625.29	46241.96
625.44	46763.90
625.59	46813.05
625.74	46681.98
625.89	46066.42
626.04	46621.13
626.19	46478.36
626.34	46447.93
626.49	46197.49
626.65	46354.31
626.80	46796.67
626.95	46204.52
627.10	46389.42
627.25	46499.42
627.40	46642.20
627.55	46571.98
627.70	46637.51
627.85	46593.04
628.00	46476.02
628.15	46518.15
628.30	45785.56
628.45	46080.47
628.60	45476.61
628.76	46248.99
628.91	46054.72
629.06	46038.34
629.21	45687.26
629.36	46127.28
629.51	45869.82
629.66	46284.09
629.81	46021.95
629.96	46146.00
630.11	45935.35
630.26	45160.64
630.41	46028.98
630.56	45617.04
630.71	45907.27
630.86	45731.73
631.01	45708.32
631.16	45598.32
631.31	45916.63
631.46	46005.57
631.61	46232.60
631.76	45993.87
631.91	45862.80
632.06	45874.50
632.21	46080.47
632.36	46080.47
632.51	45488.31
632.66	46040.68
632.81	45446.18
632.96	45544.48
633.10	45460.23
633.25	45462.57
633.40	45387.67
633.55	45633.42
633.70	45385.33
633.85	45581.93
634.00	45233.19
634.15	45177.02
634.30	45310.43
634.45	45139.57
634.60	45546.82
634.75	45132.55
634.90	45467.25
635.05	45359.58
635.19	45148.93
635.34	45469.59
635.49	45546.82
635.64	45198.09
635.79	45181.70
635.94	45287.03
636.09	45193.40
636.24	45106.80
636.39	44935.95
636.53	45537.46
636.68	44755.72
636.83	44669.12
636.98	44514.65
637.13	44715.93
637.28	44788.49
637.43	44957.01
637.57	44734.66
637.72	44561.46
637.87	44687.85
638.02	44725.30
638.17	44978.07
638.32	44575.50
638.46	44502.95
638.61	44739.34
638.76	44493.58
638.91	44505.29
639.06	44542.74
639.20	44399.96
639.35	44385.92
639.50	44002.07
639.65	44069.95
639.80	44477.20
639.94	44156.55
640.09	44439.75
640.24	44634.02
640.39	44339.11
640.54	44039.52
640.68	44025.48
640.83	44294.64
640.98	44453.79
641.13	43892.07
641.27	44247.83
641.42	44388.26
641.57	44374.22
641.72	44224.42
641.86	44219.74
642.01	44072.29
642.16	43927.17
642.31	43927.17
642.45	44184.63
642.60	43529.28
642.75	43714.19
642.90	44336.77
643.04	44041.86
643.19	43952.92
643.34	43700.14
643.48	43548.01
643.63	43452.05
643.78	43658.01
643.93	43920.15
644.07	43430.98
644.22	43718.87
644.37	43758.66
644.51	43391.19
644.66	43772.70
644.81	44158.89
644.95	44135.48
645.10	43210.97
645.25	43344.38
645.39	43454.39
645.54	43721.21
645.69	43374.81
645.83	42986.28
645.98	43159.48
646.13	42803.72
646.27	43512.90
646.42	43028.41
646.57	43145.44
646.71	43414.60
646.86	43498.86
647.00	43555.03
647.15	43164.16
647.30	43571.41
647.44	43452.05
647.59	43007.34
647.74	42845.85
647.88	43276.51
648.03	43643.97
648.17	43337.36
648.32	43423.96
648.47	43288.21
648.61	42689.03
648.76	43023.73
648.90	42564.98
649.05	42906.70
649.20	42887.98
649.34	43140.75
649.49	42918.40
649.63	43115.01
649.78	42965.21
649.92	42976.92
650.07	43473.11
650.21	42904.36
650.36	43210.97
650.51	42948.83
650.65	42897.34
650.80	42469.02
650.94	42892.66
651.09	42754.57
651.23	42305.18
651.38	42597.75
651.52	42256.03
651.67	42440.93
651.81	42447.96
651.96	42347.31
652.10	42330.93
652.25	41844.10
652.39	42169.43
652.54	42700.73
652.68	42506.47
652.83	42017.30
652.97	42543.92
653.12	42307.52
653.26	42099.22
653.41	42167.09
653.55	41862.82
653.70	42370.72
653.84	42333.27
653.99	42803.72
654.13	42366.04
654.27	42281.78
654.42	41600.68
654.56	42204.54
654.71	42316.89
654.85	41722.39
655.00	42225.60
655.14	42270.08
655.29	42232.63
655.43	42036.02
655.57	41977.51
655.72	41467.27
655.86	41975.17
656.01	41315.14
656.15	41195.77
656.30	41556.21
656.44	41474.29
656.58	41904.95
656.73	41621.75
656.87	41368.97
657.01	41614.72
657.16	41532.81
657.30	41628.77
657.45	41261.30
657.59	41701.32
657.73	41254.28
657.88	41102.15
658.02	41614.72
658.16	41736.43
658.31	41549.19
658.45	41212.15
658.60	40884.48
658.74	41130.23
658.88	41375.99
659.03	41062.36
659.17	40666.81
659.31	40676.17
659.46	40840.01
659.60	40863.41
659.74	41223.86
659.89	40594.25
660.03	40416.37
660.17	40528.72
660.32	40914.90
660.46	40786.18
660.60	40304.02
660.74	40437.44
660.89	40615.32
661.03	40208.06
661.17	40182.32
661.32	40184.66
661.46	40659.79
661.60	39817.19
661.74	40093.38
661.89	40051.25
662.03	40055.93
662.17	39864.00
662.31	40177.64
662.46	40060.61
662.60	39929.54
662.74	39786.77
662.88	39545.69
663.03	39335.04
663.17	39784.43
663.31	39515.26
663.45	39208.65
663.60	39665.06
663.74	39665.06
663.88	39615.91
664.02	39119.71
664.17	39599.52
664.31	39597.18
664.45	38979.28
664.59	39054.18
664.73	38794.38
664.88	39721.23
665.02	38321.59
665.16	38859.91
665.30	39049.50
665.44	38888.00
665.59	38621.18
665.73	38658.63
665.87	38384.79
666.01	38719.48
666.15	38689.06
666.29	38574.37
666.44	38485.43
666.58	38576.71
666.72	38099.24
666.86	38164.78
667.00	37886.25
667.14	38101.58
667.28	38218.61
667.43	37916.68
667.57	38108.60
667.71	38082.86
667.85	38068.81
667.99	38223.29
668.13	37684.97
668.27	37504.74
668.41	36989.83
668.56	36985.15
668.70	37195.79
668.84	36893.86
668.98	37191.11
669.12	37687.31
669.26	37469.64
669.40	37535.17
669.54	37565.60
669.68	37479.00
669.82	36835.35
669.96	36924.29
670.10	36580.23
670.25	36650.45
670.39	36437.46
670.53	36613.00
670.67	36692.58
670.81	36854.08
670.95	36278.30
671.09	36273.62
671.23	36304.05
671.37	36407.03
671.51	36236.17
671.65	36222.13
671.79	35962.33
671.93	36334.48
672.07	36149.57
672.21	36261.92
672.35	35412.31
672.49	35924.88
672.63	35967.01
672.77	35428.69
672.91	35672.10
673.05	35304.64
673.19	35283.58
673.33	35318.68
673.47	35435.71
673.61	35098.67
673.75	35065.91
673.89	34920.79
674.03	34883.34
674.17	34696.10
674.31	34546.31
674.45	34342.68
674.59	34616.52
674.73	34160.12
674.87	34237.36
675.01	34335.66
675.15	34096.92
675.29	33912.02
675.43	33764.57
675.56	33752.87
675.70	33900.32
675.84	34178.84
675.98	32446.85
676.12	33553.92
676.26	34242.04
676.40	33181.77
676.54	33282.42
676.68	33261.35
676.82	32591.96
676.96	32985.17
677.10	33284.76
677.23	33092.83
677.37	33216.88
677.51	32491.32
677.65	33022.62
677.79	32226.84
677.93	32800.27
678.07	32570.90
678.21	32378.97
678.34	31887.46
678.48	32175.34
678.62	31716.60
678.76	31793.84
678.90	31489.57
679.04	31690.85
679.18	31800.86
679.31	31625.32
679.45	30984.01
679.59	30937.20
679.73	31047.21
679.87	31091.68
680.00	31140.83
680.14	30546.33
680.28	30848.26
680.42	31096.36
680.56	30445.69
680.70	30277.17
680.83	30562.72
680.97	30057.16
681.11	30237.38
681.25	30059.50
681.39	30190.57
681.52	29570.33
681.66	29769.27
681.80	29027.32
681.94	29200.52
682.07	29207.55
682.21	29446.28
682.35	29261.38
682.49	29331.59
682.62	29078.82
682.76	29252.02
682.90	28914.98
683.04	28797.95
683.17	28341.55
683.31	28212.82
683.45	28669.22
683.59	28240.90
683.72	28308.78
683.86	27962.38
684.00	28114.52
684.13	27917.91
684.27	27840.67
684.41	27889.82
684.55	27676.83
684.68	27737.69
684.82	27332.78
684.96	27440.44
685.09	27351.50
685.23	27332.78
685.37	27969.40
685.50	27901.53
685.64	27136.17
685.78	26916.16
685.91	26993.40
686.05	26616.57
686.19	25902.71
686.32	26228.04
686.46	26478.48
686.60	25937.82
686.73	26256.13
686.87	25928.45
687.01	26281.88
687.14	26143.78
687.28	25568.01
687.42	25708.44
687.55	25408.86
687.69	25497.80
687.82	25429.92
687.96	25551.63
688.10	25153.74
688.23	25212.25
688.37	25235.66
688.50	25542.27
688.64	24893.94
688.78	25081.18
688.91	24641.16
689.05	24697.33
689.18	24116.88
689.32	24079.43
689.46	24018.58
689.59	24191.78
689.73	24137.94
689.86	24336.89
690.00	23995.17
690.13	23826.65
690.27	23728.35
690.41	23793.89
690.54	23171.30
690.68	23473.23
690.81	23543.45
690.95	23330.46
691.08	22726.60
691.22	23033.21
691.35	23309.40
691.49	23054.28
691.62	22827.24
691.76	22963.00
691.89	22324.03
692.03	22207.00
692.16	22089.98
692.30	22221.05
692.43	22284.24
692.57	21837.20
692.70	21715.49
692.84	22001.04
692.97	21654.64
693.11	21418.24
693.24	21792.73
693.38	21708.47
693.51	21535.27
693.65	21261.43
693.78	21200.57
693.92	21039.08
694.05	21326.96
694.19	21003.97
694.32	21015.67
694.45	21032.05
694.59	21188.87
694.72	20854.17
694.86	20479.69
694.99	20365.00
695.13	20374.36
695.26	20182.44
695.39	19915.62
695.53	19850.08
695.66	20383.73
695.80	19501.34
695.93	19653.48
696.07	19609.01
696.20	19278.99
696.33	19033.24
696.47	19110.47
696.60	19234.52
696.73	19204.10
696.87	19241.54
697.00	19234.52
697.14	18649.39
697.27	18743.01
697.40	18686.84
697.54	18766.42
697.67	18799.18
697.80	18693.86
697.94	18328.74
698.07	18333.42
698.21	18272.56
698.34	18279.58
698.47	18169.58
698.61	17678.07
698.74	17942.55
698.87	17898.08
699.01	17514.23
699.14	17682.75
699.27	17776.37
699.40	17472.10
699.54	17294.22
699.67	17383.16
699.80	17603.17
699.94	17242.73
700.07	17273.15
700.20	17160.81
700.34	17015.69
700.47	16996.97
700.60	16854.20
700.73	17064.85
700.87	16681.00
701.00	16617.80
701.13	16339.28
701.26	16332.26
701.40	16456.31
701.53	16177.78
701.66	15997.56
701.79	16053.73
701.93	15864.15
702.06	15510.73
702.19	15850.11
702.32	15815.00
702.46	15704.99
702.59	15688.61
702.72	15871.17
702.85	15840.75
702.99	15587.97
703.12	15487.32
703.25	15225.18
703.38	15066.03
703.51	15026.24
703.65	15159.65
703.78	14780.48
703.91	14817.93
704.04	14857.72
704.17	14504.30
704.31	14768.78
704.44	14670.48
704.57	14616.65
704.70	14452.81
704.83	14256.20
704.96	14349.82
705.10	14127.47
705.23	14209.39
>>>>>End Processed Spectral Data<<<<<
