SpectraSuite Data File
++++++++++++++++++++++++++++++++++++
Date: Fri Oct 25 10:43:33 EDT 2013
User: price-jones
Dark Spectrum Present: No
Reference Spectrum Present: No
Number of Sampled Component Spectra: 1
Spectrometers: USB2+H05261
Integration Time (usec): 100000 (USB2+H05261)
Spectra Averaged: 1 (USB2+H05261)
Boxcar Smoothing: 0 (USB2+H05261)
Correct for Electrical Dark: No (USB2+H05261)
Strobe/Lamp Enabled: No (USB2+H05261)
Correct for Detector Non-linearity: No (USB2+H05261)
Correct for Stray Light: No (USB2+H05261)
Number of Pixels in Processed Spectrum: 2048
>>>>>Begin Processed Spectral Data<<<<<
365.73	112.35
365.92	112.35
366.12	112.35
366.32	37.45
366.52	0.00
366.72	79.58
366.91	107.66
367.11	7.02
367.31	4.68
367.51	18.72
367.70	21.06
367.90	53.83
368.10	9.36
368.30	18.72
368.49	63.19
368.69	0.00
368.89	9.36
369.09	32.77
369.28	74.90
369.48	121.71
369.68	37.45
369.87	98.30
370.07	98.30
370.27	133.41
370.47	189.58
370.66	418.96
370.86	423.64
371.06	454.06
371.25	491.51
371.45	418.96
371.65	454.06
371.84	435.34
372.04	433.00
372.24	510.24
372.44	489.17
372.63	547.69
372.83	587.47
373.03	517.26
373.22	447.04
373.42	503.22
373.62	489.17
373.81	606.20
374.01	596.84
374.21	596.84
374.40	559.39
374.60	655.35
374.79	545.34
374.99	533.64
375.19	545.34
375.38	624.92
375.58	545.34
375.78	641.31
375.97	615.56
376.17	624.92
376.37	624.92
376.56	573.43
376.76	606.20
376.95	622.58
377.15	613.22
377.35	692.80
377.54	755.99
377.74	617.90
377.93	643.65
378.13	697.48
378.33	713.86
378.52	695.14
378.72	645.99
378.91	725.57
379.11	634.29
379.31	690.46
379.50	608.54
379.70	770.04
379.89	725.57
380.09	674.07
380.28	788.76
380.48	704.50
380.68	655.35
380.87	791.10
381.07	767.70
381.26	674.07
381.46	711.52
381.65	702.16
381.85	662.37
382.04	692.80
382.24	688.12
382.43	746.63
382.63	709.18
382.83	709.18
383.02	711.52
383.22	816.85
383.41	734.93
383.61	704.50
383.80	737.27
384.00	732.59
384.19	753.65
384.39	784.08
384.58	863.66
384.78	858.98
384.97	856.64
385.17	847.27
385.36	795.78
385.56	800.46
385.75	725.57
385.95	835.57
386.14	910.47
386.34	854.30
386.53	812.17
386.72	753.65
386.92	877.70
387.11	898.77
387.31	929.19
387.50	943.24
387.70	828.55
387.89	889.40
388.09	887.06
388.28	891.74
388.48	922.17
388.67	957.28
388.86	936.21
389.06	943.24
389.25	947.92
389.45	931.53
389.64	959.62
389.84	1006.43
390.03	1015.79
390.22	931.53
390.42	1015.79
390.61	957.28
390.81	1104.73
391.00	929.19
391.19	1111.75
391.39	1006.43
391.58	1121.12
391.78	1067.28
391.97	1111.75
392.16	1020.47
392.36	1069.62
392.55	1062.60
392.75	950.26
392.94	1022.81
393.13	1027.50
393.33	945.58
393.52	1032.18
393.71	1139.84
393.91	1132.82
394.10	1116.44
394.29	1118.78
394.49	1132.82
394.68	1188.99
394.88	1181.97
395.07	1261.55
395.26	1299.00
395.46	1289.64
395.65	1203.04
395.84	1188.99
396.04	1362.19
396.23	1130.48
396.42	1111.75
396.62	1076.65
396.81	1210.06
397.00	1261.55
397.19	1322.40
397.39	1308.36
397.58	1355.17
397.77	1343.47
397.97	1406.66
398.16	1467.52
398.35	1481.56
398.55	1409.00
398.74	1533.05
398.93	1537.73
399.12	1439.43
399.32	1462.83
399.51	1556.46
399.70	1607.95
399.90	1561.14
400.09	1631.35
400.28	1671.14
400.47	1570.50
400.67	1633.69
400.86	1675.82
401.05	1717.95
401.24	1692.21
401.44	1748.38
401.63	1717.95
401.82	1703.91
402.01	1732.00
402.21	1678.16
402.40	1860.73
402.59	1774.13
402.78	1839.66
402.97	1806.89
403.17	1834.98
403.36	1842.00
403.55	1877.11
403.74	1874.77
403.93	1891.15
404.13	1987.11
404.32	1884.13
404.51	1844.34
404.70	1900.52
404.89	1820.94
405.09	1923.92
405.28	1937.96
405.47	1923.92
405.66	1980.09
405.85	1937.96
406.05	1966.05
406.24	2043.29
406.43	2040.95
406.62	2176.70
406.81	2092.44
407.00	2012.86
407.20	2031.58
407.39	2005.84
407.58	2139.25
407.77	2303.09
407.96	2195.42
408.15	2253.94
408.34	2125.21
408.54	2342.88
408.73	2174.36
408.92	2221.17
409.11	2319.47
409.30	2284.36
409.49	2312.45
409.68	2251.60
409.87	2244.57
410.07	2375.64
410.26	2441.18
410.45	2438.84
410.64	2445.86
410.83	2396.71
411.02	2424.80
411.21	2574.59
411.40	2562.89
411.59	2572.25
411.78	2668.21
411.98	2630.76
412.17	2708.00
412.36	2785.24
412.55	2654.17
412.74	2757.15
412.93	2775.88
413.12	2684.59
413.31	2853.11
413.50	2832.05
413.69	2818.00
413.88	2932.69
414.07	2883.54
414.26	2944.39
414.45	3070.78
414.64	3016.95
414.83	3126.96
415.02	3110.57
415.22	3110.57
415.41	3112.91
415.60	3129.30
415.79	3110.57
415.98	3232.28
416.17	3213.56
416.36	3220.58
416.55	3300.16
416.74	3361.01
416.93	3253.34
417.12	3241.64
417.31	3293.13
417.50	3517.83
417.69	3651.24
417.88	3346.97
418.07	3393.78
418.26	3440.59
418.45	3585.70
418.64	3524.85
418.83	3641.87
419.02	3637.19
419.21	3555.27
419.39	3501.44
419.58	3552.93
419.77	3496.76
419.96	3691.02
420.15	3658.26
420.34	3655.92
420.53	3833.80
420.72	3805.71
420.91	3894.65
421.10	3763.58
421.29	3906.35
421.48	3742.52
421.67	3871.25
421.86	3808.05
422.05	3721.45
422.24	3728.47
422.43	3882.95
422.61	3857.20
422.80	3803.37
422.99	3960.19
423.18	3880.61
423.37	4023.38
423.56	4088.92
423.75	3953.16
423.94	3894.65
424.13	3676.98
424.32	3723.79
424.50	3866.56
424.69	4053.81
424.88	4007.00
425.07	3810.39
425.26	3864.22
425.45	3908.69
425.64	3957.85
425.83	3941.46
426.01	4093.60
426.20	3882.95
426.39	4077.21
426.58	3833.80
426.77	3990.61
426.96	4060.83
427.15	4002.32
427.33	4014.02
427.52	4203.60
427.71	4159.13
427.90	4201.26
428.09	4182.54
428.28	4205.94
428.46	4065.51
428.65	4173.18
428.84	4301.90
429.03	4269.14
429.22	4023.38
429.40	4168.49
429.59	4124.02
429.78	3999.98
429.97	3894.65
430.16	4016.36
430.34	3950.82
430.53	4102.96
430.72	4159.13
430.91	4290.20
431.10	4227.01
431.28	4566.39
431.47	4683.41
431.66	4716.18
431.85	4599.15
432.03	4533.62
432.22	4683.41
432.41	4615.54
432.60	4631.92
432.79	4557.02
432.97	4858.95
433.16	4690.43
433.35	4657.67
433.54	4671.71
433.72	4674.05
433.91	4627.24
434.10	4856.61
434.28	4805.12
434.47	4798.10
434.66	4936.19
434.85	4915.12
435.03	4957.25
435.22	5055.56
435.41	5085.98
435.59	5163.22
435.78	5011.09
435.97	5224.08
436.16	5247.48
436.34	5050.88
436.53	5156.20
436.72	5366.85
436.90	5111.73
437.09	5156.20
437.28	5181.95
437.46	5406.64
437.65	5191.31
437.84	5172.58
438.02	5114.07
438.21	5118.75
438.40	5226.42
438.58	5329.40
438.77	5378.55
438.96	5383.23
439.14	5518.98
439.33	5549.41
439.52	5570.48
439.70	5661.76
439.89	5682.82
440.08	5825.59
440.26	5694.52
440.45	5640.69
440.63	5863.04
440.82	6029.22
441.01	5977.73
441.19	5987.09
441.38	6244.55
441.57	6090.07
441.75	6157.95
441.94	6326.47
442.12	6214.12
442.31	6523.07
442.50	6356.90
442.68	6401.37
442.87	6073.69
443.05	6366.26
443.24	6544.14
443.43	6380.30
443.61	6403.71
443.80	6628.40
443.98	6265.61
444.17	6305.40
444.35	6565.20
444.54	6623.72
444.73	6581.59
444.91	6562.86
445.10	6532.44
445.28	6431.79
445.47	6293.70
445.65	6331.15
445.84	6614.35
446.02	6597.97
446.21	6614.35
446.39	6616.69
446.58	6569.88
446.77	6656.48
446.95	6532.44
447.14	6677.55
447.32	6623.72
447.51	6612.01
447.69	6604.99
447.88	6745.42
448.06	6733.72
448.25	6654.14
448.43	6888.20
448.62	6719.68
448.80	6729.04
448.99	6745.42
449.17	6825.00
449.36	6686.91
449.54	7007.56
449.73	7030.97
449.91	7063.74
450.10	7164.38
450.28	7363.33
450.46	7030.97
450.65	7279.07
450.83	7321.20
451.02	7103.53
451.20	7368.01
451.39	7239.28
451.57	7307.15
451.76	7222.89
451.94	7148.00
452.13	7211.19
452.31	7262.68
452.49	7283.75
452.68	7218.21
452.86	7239.28
453.05	7337.58
453.23	7293.11
453.42	7253.32
453.60	7262.68
453.78	7597.38
453.97	7204.17
454.15	7520.14
454.34	7360.98
454.52	7581.00
454.70	7435.88
454.89	7576.31
455.07	7644.19
455.26	7665.25
455.44	7793.98
455.62	7772.92
455.81	7801.01
455.99	7861.86
456.17	7889.95
456.36	7840.79
456.54	7962.50
456.73	8105.28
456.91	8177.83
457.09	8126.34
457.28	8229.32
457.46	8145.06
457.64	8271.45
457.83	8049.10
458.01	7981.23
458.19	8231.66
458.38	8032.72
458.56	8243.37
458.74	8292.52
458.93	8299.54
459.11	8308.90
459.29	8182.51
459.48	8432.95
459.66	8463.38
459.84	8329.97
460.03	8573.38
460.21	8318.26
460.39	8449.33
460.57	8458.70
460.76	8549.98
460.94	8695.09
461.12	8498.49
461.31	8638.92
461.49	8704.45
461.67	8823.82
461.85	8896.38
462.04	8641.26
462.22	9500.23
462.40	8999.36
462.59	9111.71
462.77	8828.50
462.95	8978.30
463.13	8884.67
463.32	8966.59
463.50	8938.51
463.68	9022.77
463.86	9062.55
464.05	8978.30
464.23	8933.82
464.41	9085.96
464.59	8971.27
464.78	9177.24
464.96	9109.36
465.14	9128.09
465.32	9170.22
465.50	9025.11
465.69	9504.92
465.87	9327.03
466.05	9287.25
466.23	9224.05
466.41	9074.26
466.60	9383.21
466.78	9177.24
466.96	9132.77
467.14	9238.09
467.32	9392.57
467.51	9439.38
467.69	9149.15
467.87	9554.07
468.05	9483.85
468.23	9310.65
468.41	9352.78
468.60	9668.75
468.78	9671.09
468.96	9610.24
469.14	9797.48
469.32	9717.90
469.50	9394.91
469.69	9650.03
469.87	9701.52
470.05	9837.27
470.23	9715.56
470.41	9879.40
470.59	9982.38
470.77	9722.59
470.95	9951.96
471.14	10209.42
471.32	9867.70
471.50	10216.44
471.68	10122.82
471.86	10246.87
472.04	10427.09
472.22	10576.88
472.40	9956.64
472.58	10445.81
472.77	10459.85
472.95	10534.75
473.13	11014.56
473.31	10352.19
473.49	10551.14
473.67	10677.52
473.85	10565.18
474.03	10977.11
474.21	11030.94
474.39	11162.01
474.57	11248.61
474.75	11098.82
474.93	11316.49
475.12	11384.37
475.30	11096.48
475.48	11145.63
475.66	11424.15
475.84	11103.50
476.02	11405.43
476.20	11529.48
476.38	11452.24
476.56	11686.29
476.74	11880.56
476.92	11817.36
477.10	12079.50
477.28	12025.67
477.46	12131.00
477.64	12353.35
477.82	12695.07
478.00	12711.45
478.18	12556.97
478.36	12631.87
478.54	12688.04
478.72	12674.00
478.90	13069.55
479.08	13193.60
479.26	13092.96
479.44	12994.65
479.62	13298.92
479.80	13373.82
479.98	13525.96
480.16	13563.40
480.34	13717.88
480.52	13689.79
480.70	13851.29
480.88	13783.41
481.06	13973.00
481.24	13893.42
481.41	14340.46
481.59	14466.85
481.77	14193.01
481.95	14401.32
482.13	14626.01
482.31	14485.58
482.49	14628.35
482.67	14710.27
482.85	14956.02
483.03	15061.35
483.21	15143.27
483.39	15749.46
483.57	15501.37
483.74	15332.85
483.92	15646.48
484.10	15592.65
484.28	15913.30
484.46	16259.70
484.64	16238.64
484.82	16060.76
485.00	16030.33
485.18	16819.09
485.35	16304.17
485.53	15997.56
485.71	16292.47
485.89	16606.10
486.07	16496.10
486.25	16676.32
486.43	16821.43
486.61	17137.40
486.78	17263.79
486.96	17467.42
487.14	17579.76
487.32	17776.37
487.50	18038.51
487.68	18523.00
487.85	18263.20
488.03	18310.01
488.21	18764.07
488.39	18670.45
488.57	18698.54
488.75	18909.19
488.92	19342.19
489.10	19283.67
489.28	19351.55
489.46	19566.88
489.64	19770.51
489.81	20046.69
489.99	20030.30
490.17	20077.12
490.35	20526.50
490.53	20442.24
490.70	20725.44
490.88	20395.43
491.06	20882.26
491.24	20641.18
491.41	20456.28
491.59	20943.11
491.77	20847.15
491.95	20922.05
492.13	21149.08
492.30	21369.09
492.48	21937.84
492.66	21837.20
492.84	21809.11
493.01	22342.75
493.19	22183.60
493.37	22281.90
493.54	22382.54
493.72	22342.75
493.90	22530.00
494.08	22852.99
494.25	23129.17
494.43	23410.04
494.61	23175.98
494.79	23351.52
494.96	23620.69
495.14	23618.35
495.32	23545.79
495.49	23669.84
495.67	23880.49
495.85	24034.96
496.02	24240.93
496.20	23852.40
496.38	24444.56
496.55	24552.22
496.73	25036.71
496.91	24790.95
497.09	25212.25
497.26	24879.89
497.44	24816.70
497.62	25167.78
497.79	25755.26
497.97	25383.11
498.14	25727.17
498.32	25427.58
498.50	25834.83
498.67	26281.88
498.85	26258.47
499.03	26298.26
499.20	26277.19
499.38	26169.53
499.56	26569.76
499.73	26305.28
499.91	26644.66
500.08	26693.81
500.26	26265.49
500.44	26630.62
500.61	26450.39
500.79	26665.72
500.97	26981.70
501.14	27194.68
501.32	26944.25
501.49	27056.59
501.67	27171.28
501.84	27386.61
502.02	27754.07
502.20	27407.67
502.37	27716.62
502.55	27623.00
502.72	27871.10
502.90	28002.17
503.07	27768.12
503.25	27964.72
503.43	28025.57
503.60	28114.52
503.78	28184.73
503.95	28491.34
504.13	28343.89
504.30	28669.22
504.48	28622.41
504.65	28720.71
504.83	29289.46
505.01	29144.35
505.18	28723.05
505.36	29177.12
505.53	29230.95
505.71	29427.56
505.88	30000.99
506.06	29256.70
506.23	29771.61
506.41	29418.19
506.58	29745.87
506.76	30064.18
506.93	29912.05
507.11	29689.70
507.28	29975.24
507.46	30190.57
507.63	30096.95
507.81	30099.29
507.98	30277.17
508.16	30508.88
508.33	30930.18
508.50	30300.58
508.68	30698.47
508.85	30904.43
509.03	30871.67
509.20	30696.13
509.38	31267.22
509.55	31260.20
509.73	31370.20
509.90	31641.70
510.08	31496.59
510.25	31182.96
510.42	31330.41
510.60	31431.05
510.77	31915.54
510.95	32505.36
511.12	31840.65
511.30	32393.01
511.47	32390.67
511.64	32407.06
511.82	32283.01
511.99	32449.19
512.17	32470.25
512.34	32257.26
512.51	32755.80
512.69	32708.99
512.86	32795.59
513.04	32804.95
513.21	33003.89
513.38	32737.07
513.56	33270.72
513.73	32465.57
513.90	32980.49
514.08	32741.75
514.25	33408.81
514.43	33172.41
514.60	33359.66
514.77	33661.58
514.95	33413.49
515.12	33516.47
515.29	33109.22
515.47	34150.76
515.64	34438.64
515.81	33876.91
515.99	33977.56
516.16	33652.22
516.33	33638.18
516.51	33954.15
516.68	33205.18
516.85	33432.21
517.03	33357.32
517.20	34321.62
517.37	34195.23
517.54	34569.71
517.72	34242.04
517.89	33949.47
518.06	33961.17
518.24	33965.85
518.41	34452.69
518.58	34288.85
518.75	35072.93
518.93	35014.41
519.10	34466.73
519.27	34948.88
519.45	34923.13
519.62	35637.00
519.79	35491.88
519.96	35314.00
520.14	35592.53
520.31	35192.30
520.48	35496.56
520.65	35494.22
520.83	36018.50
521.00	35463.80
521.17	36044.25
521.34	35679.13
521.52	36034.89
521.69	36137.87
521.86	36332.14
522.03	36327.45
522.20	36158.94
522.38	36503.00
522.55	36374.27
522.72	36348.52
522.89	36282.98
523.07	36741.73
523.24	36493.63
523.41	36730.03
523.58	37200.47
523.75	37153.66
523.92	37469.64
524.10	37287.07
524.27	36992.17
524.44	37270.69
524.61	36863.44
524.78	37055.36
524.96	37322.18
525.13	37357.29
525.30	37673.26
525.47	38059.45
525.64	37429.85
525.81	37256.65
525.98	37368.99
526.16	37031.96
526.33	37333.89
526.50	37270.69
526.67	37350.27
526.84	37738.80
527.01	37825.40
527.18	37832.42
527.36	37893.27
527.53	38115.62
527.70	38431.60
527.87	38319.25
528.04	38361.38
528.21	38401.17
528.38	38562.67
528.55	38693.74
528.72	39037.80
528.89	39143.12
529.07	38799.06
529.24	38864.60
529.41	39248.44
529.58	38684.37
529.75	38873.96
529.92	39431.01
530.09	38897.36
530.26	39356.11
530.43	39203.97
530.60	38820.13
530.77	39421.64
530.94	39269.51
531.11	39503.56
531.28	39367.81
531.46	39323.34
531.63	40170.61
531.80	38974.60
531.97	39260.15
532.14	39269.51
532.31	39063.54
532.48	39454.41
532.65	39501.22
532.82	39405.26
532.99	39601.86
533.16	39555.05
533.33	39838.26
533.50	40016.14
533.67	39849.96
533.84	40311.05
534.01	39620.59
534.18	39751.66
534.35	40428.07
534.52	39772.72
534.69	40463.18
534.86	40458.50
535.03	40247.85
535.20	40760.43
535.37	41177.04
535.54	41069.38
535.71	40744.05
535.88	41251.94
536.05	40048.91
536.22	40896.18
536.38	40596.59
536.55	40332.11
536.72	40821.28
536.89	40201.04
537.06	40577.87
537.23	40975.76
537.40	40622.34
537.57	41010.87
537.74	41017.89
537.91	41652.17
538.08	41010.87
538.25	41050.66
538.42	41347.90
538.59	41570.25
538.75	40994.48
538.92	41132.57
539.09	41123.21
539.26	41422.80
539.43	41460.25
539.60	41411.10
539.77	40734.68
539.94	41137.26
540.11	41060.02
540.28	41701.32
540.44	41053.00
540.61	41345.56
540.78	41343.22
540.95	41703.67
541.12	41532.81
541.29	42249.01
541.46	41642.81
541.62	41738.77
541.79	41977.51
541.96	41666.22
542.13	41696.64
542.30	41509.40
542.47	41560.89
542.63	41748.14
542.80	42490.09
542.97	42550.94
543.14	42717.12
543.31	42857.55
543.48	42529.87
543.64	42871.59
543.81	42899.68
543.98	42536.90
544.15	42864.57
544.32	42752.23
544.48	43110.33
544.65	42976.92
544.82	43063.52
544.99	42511.15
545.16	42831.80
545.32	42473.70
545.49	42923.08
545.66	43049.47
545.83	42866.91
546.00	43129.05
546.16	42995.64
546.33	42967.55
546.50	42579.03
546.67	43196.93
546.83	42761.59
547.00	42845.85
547.17	43115.01
547.34	43213.31
547.50	43213.31
547.67	43533.96
547.84	43615.88
548.00	43531.62
548.17	43887.39
548.34	43636.95
548.51	43803.13
548.67	43833.55
548.84	43489.49
549.01	43793.76
549.18	43489.49
549.34	43889.73
549.51	43826.53
549.68	43922.49
549.84	43559.71
550.01	44137.82
550.18	43604.18
550.34	43995.05
550.51	43744.61
550.68	43871.00
550.84	43564.39
551.01	44215.06
551.18	43906.11
551.34	43746.95
551.51	44374.22
551.68	44240.81
551.84	44051.22
552.01	43828.87
552.18	44172.93
552.34	44083.99
552.51	44011.43
552.68	44259.53
552.84	44397.62
553.01	44624.65
553.18	44655.08
553.34	44605.93
553.51	44343.79
553.67	44809.56
553.84	45198.09
554.01	45148.93
554.17	44416.35
554.34	44648.06
554.51	44608.27
554.67	44598.91
554.84	44556.78
555.00	44163.57
555.17	44318.04
555.33	44774.45
555.50	44868.07
555.67	44694.87
555.83	44657.42
556.00	44884.45
556.16	45031.91
556.33	44800.19
556.50	44809.56
556.66	44741.68
556.83	44348.47
556.99	44673.81
557.16	45048.29
557.32	44659.76
557.49	45193.40
557.65	44519.33
557.82	45141.91
557.98	45160.64
558.15	44811.90
558.32	44680.83
558.48	44783.81
558.65	44704.23
558.81	44762.75
558.98	44559.12
559.14	44868.07
559.31	44760.40
559.47	45195.74
559.64	45085.74
559.80	44989.78
559.97	45139.57
560.13	45010.84
560.30	45155.96
560.46	45193.40
560.63	45048.29
560.79	45408.73
560.96	45439.16
561.12	44994.46
561.29	45078.72
561.45	45371.28
561.61	45455.54
561.78	45102.12
561.94	44746.36
562.11	45268.30
562.27	45237.87
562.44	45514.06
562.60	45478.95
562.77	45525.76
562.93	45132.55
563.10	46120.26
563.26	45425.12
563.42	45436.82
563.59	45827.69
563.75	45631.08
563.92	45617.04
564.08	45397.03
564.24	45677.90
564.41	45666.19
564.57	45642.79
564.74	45511.72
564.90	45694.28
565.07	45598.32
565.23	45666.19
565.39	44968.71
565.56	45464.91
565.72	45476.61
565.88	45301.07
566.05	45226.17
566.21	45216.81
566.38	45897.91
566.54	45420.44
566.70	45675.55
566.87	46115.58
567.03	45579.59
567.19	46073.45
567.36	45673.21
567.52	45647.47
567.68	45832.37
567.85	45539.80
568.01	45951.74
568.17	45687.26
568.34	45757.47
568.50	45684.92
568.66	45354.90
568.83	46108.55
568.99	45570.23
569.15	45677.90
569.32	45675.55
569.48	45713.00
569.64	46014.93
569.81	46080.47
569.97	45570.23
570.13	45797.26
570.30	45710.66
570.46	45144.25
570.62	45270.64
570.78	45591.30
570.95	45205.11
571.11	45593.64
571.27	45319.79
571.43	45408.73
571.60	45902.59
571.76	45502.35
571.92	45940.04
572.09	45947.06
572.25	45713.00
572.41	45916.63
572.57	45773.86
572.74	46230.26
572.90	46225.58
573.06	46256.01
573.22	45507.04
573.38	46040.68
573.55	45951.74
573.71	46265.37
573.87	46284.09
574.03	46096.85
574.20	46019.61
574.36	45928.33
574.52	46227.92
574.68	45949.40
574.84	45886.20
575.01	45954.08
575.17	46005.57
575.33	46007.91
575.49	45984.51
575.65	45993.87
575.82	45890.88
575.98	45673.21
576.14	46115.58
576.30	45687.26
576.46	45715.34
576.62	45874.50
576.79	45539.80
576.95	46237.28
577.11	46003.23
577.27	46007.91
577.43	45839.39
577.59	45549.17
577.75	45911.95
577.92	45439.16
578.08	45331.50
578.24	45745.77
578.40	45673.21
578.56	45907.27
578.72	45794.92
578.88	46113.23
579.04	46239.62
579.21	45886.20
579.37	46204.52
579.53	45830.03
579.69	45785.56
579.85	45729.39
580.01	46157.70
580.17	45806.62
580.33	45787.90
580.49	46087.49
580.65	45705.98
580.82	46043.02
580.98	45675.55
581.14	45088.08
581.30	46019.61
581.46	45930.67
581.62	46326.22
581.78	46384.74
581.94	46426.87
582.10	46576.66
582.26	46628.15
582.42	46124.94
582.58	46134.30
582.74	45661.51
582.90	46246.65
583.06	46492.40
583.22	46244.30
583.38	46375.37
583.54	46415.16
583.70	46141.32
583.86	45972.80
584.02	46260.69
584.18	45989.19
584.34	46136.64
584.50	46167.07
584.66	46106.21
584.82	45996.21
584.98	46108.55
585.14	46220.90
585.30	45734.07
585.46	46223.24
585.62	45886.20
585.78	45624.06
585.94	45544.48
586.10	46094.51
586.26	45858.12
586.42	46452.61
586.58	45638.11
586.74	46078.13
586.90	45757.47
587.06	45846.41
587.22	45869.82
587.38	46391.76
587.54	46068.76
587.70	46410.48
587.86	45874.50
588.02	45867.48
588.18	46335.59
588.34	46099.19
588.49	45656.83
588.65	45401.71
588.81	45474.27
588.97	45514.06
589.13	45172.34
589.29	45357.24
589.45	46513.47
589.61	45799.60
589.77	46319.20
589.93	46323.88
590.08	46335.59
590.24	46632.83
590.40	46396.44
590.56	46195.15
590.72	46323.88
590.88	46094.51
591.04	46206.86
591.20	46829.44
591.35	46340.27
591.51	46412.82
591.67	46101.53
591.83	46244.30
591.99	46337.93
592.15	46033.66
592.31	46380.06
592.46	46373.03
592.62	45942.38
592.78	46106.21
592.94	46529.85
593.10	45900.25
593.26	46440.91
593.41	46256.01
593.57	45984.51
593.73	45956.42
593.89	46571.98
594.05	46321.54
594.20	46127.28
594.36	46305.16
594.52	46611.77
594.68	46522.83
594.84	45911.95
594.99	46316.86
595.15	46188.13
595.31	46312.18
595.47	46382.40
595.62	46497.08
595.78	46293.46
595.94	46639.86
596.10	46450.27
596.25	46143.66
596.41	46043.02
596.57	46099.19
596.73	46265.37
596.88	45928.33
597.04	46522.83
597.20	46340.27
597.36	46298.14
597.51	46150.68
597.67	46211.54
597.83	46192.81
597.99	46520.49
598.14	46286.43
598.30	46384.74
598.46	46309.84
598.61	46571.98
598.77	46000.89
598.93	46351.97
599.09	46373.03
599.24	46527.51
599.40	46635.17
599.56	46614.11
599.71	46036.00
599.87	46663.26
600.03	46806.03
600.18	46225.58
600.34	46195.15
600.50	46401.12
600.65	46115.58
600.81	46466.66
600.97	45921.31
601.12	46459.63
601.28	46300.48
601.44	46054.72
601.59	46061.74
601.75	45865.14
601.91	45890.88
602.06	45715.34
602.22	46384.74
602.37	46199.83
602.53	46094.51
602.69	46300.48
602.84	45961.10
603.00	46134.30
603.16	46209.20
603.31	46115.58
603.47	46169.41
603.62	45450.86
603.78	46501.76
603.94	46473.68
604.09	46494.74
604.25	46225.58
604.40	46354.31
604.56	45783.22
604.71	46225.58
604.87	46328.56
605.03	46099.19
605.18	45727.05
605.34	46333.24
605.49	46195.15
605.65	46263.03
605.80	46131.96
605.96	46251.33
606.12	46124.94
606.27	45804.28
606.43	45687.26
606.58	46181.11
606.74	45989.19
606.89	46157.70
607.05	46195.15
607.20	46520.49
607.36	46155.36
607.51	46373.03
607.67	45944.72
607.82	45968.12
607.98	45825.35
608.13	46073.45
608.29	45848.75
608.44	45191.06
608.60	45411.07
608.75	45677.90
608.91	45874.50
609.06	45734.07
609.22	46192.81
609.37	45207.45
609.53	46169.41
609.68	45785.56
609.84	45628.74
609.99	45563.21
610.15	45600.66
610.30	45530.44
610.46	45361.92
610.61	45904.93
610.76	45282.34
610.92	45970.46
611.07	45982.16
611.23	45827.69
611.38	45804.28
611.54	45542.14
611.69	44978.07
611.84	45310.43
612.00	45497.67
612.15	45036.59
612.31	45556.19
612.46	45434.48
612.62	45743.43
612.77	45120.85
612.92	45668.53
613.08	45078.72
613.23	45022.54
613.39	44856.37
613.54	44687.85
613.69	45200.43
613.85	44357.83
614.00	45361.92
614.15	45471.93
614.31	45483.63
614.46	45237.87
614.62	45067.02
614.77	45603.00
614.92	45081.06
615.08	44987.44
615.23	44877.43
615.38	44692.53
615.54	44421.03
615.69	44289.96
615.84	45074.04
616.00	45045.95
616.15	44891.48
616.30	44924.24
616.46	45057.65
616.61	44643.38
616.76	44500.61
616.92	44261.87
617.07	44374.22
617.22	44364.85
617.37	44708.91
617.53	44776.79
617.68	44533.37
617.83	44505.29
617.99	44552.10
618.14	44376.56
618.29	44435.07
618.45	44472.52
618.60	44210.38
618.75	43833.55
618.90	43962.28
619.06	44189.31
619.21	44027.82
619.36	44308.68
619.51	44112.08
619.67	44289.96
619.82	44222.08
619.97	44219.74
620.12	44023.14
620.28	43854.62
620.43	44175.27
620.58	44182.29
620.73	44107.40
620.89	44004.41
621.04	43807.81
621.19	43969.30
621.34	44023.14
621.49	43962.28
621.65	43707.16
621.80	43917.81
621.95	43587.80
622.10	43894.41
622.25	43793.76
622.41	43585.46
622.56	43721.21
622.71	43885.04
622.86	43660.35
623.01	43894.41
623.16	43742.27
623.32	43608.86
623.47	43882.70
623.62	43658.01
623.77	43615.88
623.92	43646.31
624.07	43147.78
624.23	43517.58
624.38	43351.40
624.53	43365.45
624.68	43360.76
624.83	43526.94
624.98	43412.26
625.13	43056.50
625.29	43428.64
625.44	43538.65
625.59	42920.74
625.74	43447.36
625.89	42391.78
626.04	43353.74
626.19	43005.00
626.34	43005.00
626.49	43047.13
626.65	42742.86
626.80	43012.02
626.95	42883.30
627.10	42913.72
627.25	42848.19
627.40	42808.40
627.55	42300.50
627.70	42192.84
627.85	42731.16
628.00	42684.35
628.15	42480.72
628.30	42462.00
628.45	42576.69
628.60	42609.45
628.76	42878.61
628.91	42731.16
629.06	41806.65
629.21	42197.52
629.36	42415.19
629.51	42218.58
629.66	42618.81
629.81	41989.21
629.96	42164.75
630.11	42351.99
630.26	42417.53
630.41	42864.57
630.56	41923.68
630.71	42230.29
630.86	42321.57
631.01	41823.03
631.16	42052.41
631.31	41418.12
631.46	41703.67
631.61	41872.18
631.76	41731.75
631.91	41926.02
632.06	41933.04
632.21	42146.03
632.36	42010.28
632.51	42010.28
632.66	41633.45
632.81	41521.10
632.96	41715.37
633.10	41673.24
633.25	41544.51
633.40	41682.60
633.55	41975.17
633.70	41830.05
633.85	41406.42
634.00	41783.24
634.15	41755.16
634.30	41495.36
634.45	41193.43
634.60	41291.73
634.75	41518.76
634.90	40900.86
635.05	41493.02
635.19	41378.33
635.34	41153.64
635.49	41078.74
635.64	41481.31
635.79	41214.49
635.94	40959.38
636.09	41528.13
636.24	40627.02
636.39	40914.90
636.53	41413.44
636.68	41282.37
636.83	40952.35
636.98	41078.74
637.13	41163.00
637.28	41296.41
637.43	41663.88
637.57	41067.04
637.72	40587.23
637.87	40814.26
638.02	41322.16
638.17	41209.81
638.32	40793.20
638.46	41015.55
638.61	40765.11
638.76	40706.60
638.91	40453.82
639.06	40840.01
639.20	41275.35
639.35	40751.07
639.50	40554.46
639.65	40374.24
639.80	40505.31
639.94	40308.71
640.09	40479.57
640.24	40465.52
640.39	40245.51
640.54	40030.18
640.68	40165.93
640.83	40013.80
640.98	40512.33
641.13	40081.67
641.27	40727.66
641.42	40430.41
641.57	40598.93
641.72	40467.86
641.86	40062.95
642.01	39864.00
642.16	39978.69
642.31	40179.98
642.45	40151.89
642.60	39672.08
642.75	39962.31
642.90	40074.65
643.04	40212.74
643.19	40025.50
643.34	40044.23
643.48	39983.37
643.63	39674.42
643.78	40018.48
643.93	40074.65
644.07	39744.64
644.22	39541.01
644.37	39646.33
644.51	39292.91
644.66	39826.56
644.81	39688.46
644.95	39929.54
645.10	39505.90
645.25	39847.62
645.39	39548.03
645.54	39643.99
645.69	39592.50
645.83	39274.19
645.98	39552.71
646.13	39297.59
646.27	39559.73
646.42	39133.76
646.57	39098.65
646.71	39342.06
646.86	39545.69
647.00	39047.16
647.15	39178.23
647.30	39138.44
647.44	39068.22
647.59	38778.00
647.74	38689.06
647.88	38897.36
648.03	39033.11
648.17	38506.49
648.32	39040.14
648.47	38820.13
648.61	38794.38
648.76	39166.52
648.90	38904.38
649.05	39349.09
649.20	39342.06
649.34	38728.84
649.49	38487.77
649.63	38590.75
649.78	38899.70
649.92	39126.74
650.07	38635.22
650.21	38878.64
650.36	38712.46
650.51	38464.36
650.65	38803.74
650.80	39002.69
650.94	38948.85
651.09	38892.68
651.23	38197.54
651.38	38366.06
651.52	38515.86
651.67	38129.67
651.81	38120.31
651.96	38293.50
652.10	38527.56
652.25	38590.75
652.39	38314.57
652.54	38639.90
652.68	38494.79
652.83	38155.41
652.97	38553.30
653.12	38181.16
653.26	37921.36
653.41	38033.71
653.55	37928.38
653.70	38595.43
653.84	38307.55
653.99	37998.60
654.13	37776.25
654.27	37750.50
654.42	37919.02
654.56	38085.20
654.71	37970.51
654.85	37635.81
655.00	37720.07
655.14	37923.70
655.29	37750.50
655.43	37343.25
655.57	37055.36
655.72	36851.73
655.86	37219.20
656.01	37055.36
656.15	37053.02
656.30	37179.41
656.44	37352.61
656.58	37584.32
656.73	37378.36
656.87	37347.93
657.01	36938.33
657.16	37003.87
657.30	36741.73
657.45	37198.13
657.59	37160.69
657.73	37357.29
657.88	37537.51
658.02	37116.22
658.16	37294.10
658.31	37312.82
658.45	36683.22
658.60	36788.54
658.74	36814.29
658.88	36898.55
659.03	36973.44
659.17	37008.55
659.31	36395.33
659.46	36395.33
659.60	37170.05
659.74	36835.35
659.89	36343.84
660.03	36624.70
660.17	36762.79
660.32	36573.21
660.46	37003.87
660.60	36140.21
660.74	36360.22
660.89	36437.46
661.03	36067.66
661.17	36081.70
661.32	36210.43
661.46	36196.38
661.60	35889.77
661.74	35817.22
661.89	36215.11
662.03	35962.33
662.17	35627.63
662.31	36191.70
662.46	36240.86
662.60	36563.85
662.74	36070.00
662.88	36409.37
663.03	35999.78
663.17	35412.31
663.31	35321.02
663.45	35864.03
663.60	35391.24
663.74	35421.67
663.88	35505.93
664.02	35351.45
664.17	35297.62
664.31	34789.72
664.45	35187.61
664.59	35105.70
664.73	35098.67
664.88	34738.23
665.02	34574.39
665.16	34836.53
665.30	34361.40
665.44	34628.23
665.59	34796.74
665.73	34988.67
665.87	34204.59
666.01	34469.07
666.15	34728.87
666.29	34448.00
666.44	35065.91
666.58	34529.92
666.72	34314.59
666.86	34550.99
667.00	34284.17
667.14	34099.26
667.28	33972.88
667.43	34223.31
667.57	34064.16
667.71	34190.55
667.85	33998.62
667.99	34094.58
668.13	34335.66
668.27	33942.45
668.41	34199.91
668.56	33640.52
668.70	33766.91
668.84	33460.30
668.98	33415.83
669.12	33352.63
669.26	33427.53
669.40	33102.20
669.54	33497.75
669.68	33153.69
669.82	32950.06
669.96	33043.68
670.10	33106.88
670.25	32849.42
670.39	32886.87
670.53	32533.45
670.67	32982.83
670.81	33067.09
670.95	32577.92
671.09	32491.32
671.23	32606.00
671.37	32814.31
671.51	32526.42
671.65	32765.16
671.79	31903.84
671.93	32130.87
672.07	32191.73
672.21	32341.52
672.35	32154.28
672.49	31889.80
672.63	31866.39
672.77	31611.28
672.91	31831.29
673.05	31618.30
673.19	31749.37
673.33	31288.28
673.47	31817.24
673.61	31447.44
673.75	30890.39
673.89	31302.32
674.03	31232.11
674.17	31136.15
674.31	31157.21
674.45	31108.06
674.59	31400.63
674.73	31166.57
674.87	31005.08
675.01	30691.44
675.15	30785.07
675.29	30567.40
675.43	30689.10
675.56	30623.57
675.70	30700.81
675.84	30394.20
675.98	29305.85
676.12	30228.02
676.26	30302.92
676.40	30522.93
676.54	30534.63
676.68	30265.47
676.82	29642.88
676.96	29638.20
677.10	29425.22
677.23	29635.86
677.37	29773.95
677.51	29282.44
677.65	29167.76
677.79	29006.26
677.93	28994.56
678.07	29055.41
678.21	28727.74
678.34	28821.36
678.48	28889.23
678.62	28407.08
678.76	28631.77
678.90	28254.95
679.04	28393.04
679.18	28542.83
679.31	27824.29
679.45	27967.06
679.59	27466.19
679.73	28161.33
679.87	28196.43
680.00	27786.84
680.14	27997.49
680.28	27761.09
680.42	27623.00
680.56	27438.10
680.70	27714.28
680.83	27871.10
680.97	27122.13
681.11	27321.07
681.25	27391.29
681.39	27129.15
681.52	26855.31
681.66	26871.69
681.80	26848.29
681.94	26384.86
682.07	26628.27
682.21	26366.13
682.35	26656.36
682.49	26436.35
682.62	26246.77
682.76	26059.52
682.90	26181.23
683.04	26415.29
683.17	26010.37
683.31	25551.63
683.45	25408.86
683.59	25546.95
683.72	25790.36
683.86	25427.58
684.00	25315.23
684.13	25036.71
684.27	24987.56
684.41	25090.54
684.55	25025.01
684.68	24882.24
684.82	24973.52
684.96	24957.13
685.09	24996.92
685.23	24833.08
685.37	24570.94
685.50	24666.91
685.64	24659.88
685.78	24327.53
685.91	24425.83
686.05	23974.11
686.19	23445.15
686.32	23924.96
686.46	23564.51
686.60	23225.14
686.73	23056.62
686.87	23070.66
687.01	23332.80
687.14	22775.75
687.28	22881.08
687.42	22621.28
687.55	22532.34
687.69	23208.75
687.82	22778.09
687.96	23087.04
688.10	22544.04
688.23	22284.24
688.37	22644.68
688.50	22567.45
688.64	22485.53
688.78	22560.42
688.91	21994.01
689.05	22022.10
689.18	21853.58
689.32	21682.72
689.46	22427.01
689.59	21951.88
689.73	22195.30
689.86	21811.45
690.00	21664.00
690.13	21605.49
690.27	21326.96
690.41	21610.17
690.54	21259.09
690.68	21542.29
690.81	21223.98
690.95	21205.25
691.08	20924.39
691.22	20889.28
691.35	20992.26
691.49	21298.88
691.62	20952.48
691.76	20769.91
691.89	20755.87
692.03	20533.52
692.16	20299.47
692.30	20112.22
692.43	20201.16
692.57	20100.52
692.70	19599.65
692.84	19889.87
692.97	19873.49
693.11	19971.79
693.24	19410.06
693.38	19440.49
693.51	19562.20
693.65	19625.39
693.78	19178.35
693.92	19274.31
694.05	19321.12
694.19	19161.97
694.32	19154.94
694.45	18916.21
694.59	19178.35
694.72	19005.15
694.86	18822.59
694.99	18684.50
695.13	18623.64
695.26	18398.95
695.39	18501.93
695.53	18897.49
695.66	18560.45
695.80	18155.54
695.93	18384.91
696.07	18260.86
696.20	18377.89
696.33	17933.18
696.47	18207.03
696.60	18052.55
696.73	17848.93
696.87	17907.44
697.00	17666.36
697.14	17544.66
697.27	17408.90
697.40	17261.45
697.54	17102.29
697.67	17130.38
697.80	17535.29
697.94	17003.99
698.07	17135.06
698.21	17277.83
698.34	17284.86
698.47	16973.56
698.61	16875.26
698.74	16816.75
698.87	16779.30
699.01	16311.19
699.14	16395.45
699.27	15969.48
699.40	16585.04
699.54	16093.52
699.67	15733.08
699.80	15985.86
699.94	15936.71
700.07	16212.89
700.20	16116.93
700.34	16121.61
700.47	16042.03
700.60	15878.19
700.73	15807.98
700.87	15503.71
701.00	15445.20
701.13	15470.94
701.26	15400.72
701.40	15194.76
701.53	15187.74
701.66	15241.57
701.79	15241.57
701.93	14967.73
702.06	14981.77
702.19	14871.76
702.32	14881.13
702.46	14843.68
702.59	14958.36
702.72	14913.89
702.85	14747.72
702.99	14520.68
703.12	14445.79
703.25	14326.42
703.38	14373.23
703.51	14150.88
703.65	13991.72
703.78	14125.13
703.91	14108.75
704.04	13900.44
704.17	14073.64
704.31	14029.17
704.44	13778.73
704.57	13708.52
704.70	13530.64
704.83	13619.58
704.96	13511.91
705.10	13603.19
705.23	13610.22
>>>>>End Processed Spectral Data<<<<<
