SpectraSuite Data File
++++++++++++++++++++++++++++++++++++
Date: Fri Oct 25 10:43:42 EDT 2013
User: price-jones
Dark Spectrum Present: No
Reference Spectrum Present: No
Number of Sampled Component Spectra: 1
Spectrometers: USB2+H05261
Integration Time (usec): 100000 (USB2+H05261)
Spectra Averaged: 1 (USB2+H05261)
Boxcar Smoothing: 0 (USB2+H05261)
Correct for Electrical Dark: No (USB2+H05261)
Strobe/Lamp Enabled: No (USB2+H05261)
Correct for Detector Non-linearity: No (USB2+H05261)
Correct for Stray Light: No (USB2+H05261)
Number of Pixels in Processed Spectrum: 2048
>>>>>Begin Processed Spectral Data<<<<<
365.73	105.32
365.92	105.32
366.12	105.32
366.32	53.83
366.52	4.68
366.72	53.83
366.91	95.96
367.11	49.15
367.31	9.36
367.51	9.36
367.70	42.13
367.90	53.83
368.10	0.00
368.30	0.00
368.49	70.22
368.69	44.47
368.89	18.72
369.09	32.77
369.28	117.03
369.48	70.22
369.68	16.38
369.87	91.28
370.07	142.77
370.27	119.37
370.47	161.50
370.66	390.87
370.86	423.64
371.06	428.32
371.25	477.47
371.45	447.04
371.65	433.00
371.84	479.81
372.04	489.17
372.24	489.17
372.44	479.81
372.63	510.24
372.83	493.85
373.03	456.40
373.22	479.81
373.42	507.90
373.62	552.37
373.81	526.62
374.01	594.50
374.21	688.12
374.40	526.62
374.60	589.82
374.79	561.73
374.99	557.05
375.19	599.18
375.38	678.76
375.58	601.52
375.78	613.22
375.97	596.84
376.17	596.84
376.37	599.18
376.56	550.03
376.76	624.92
376.95	578.11
377.15	657.69
377.35	634.29
377.54	653.01
377.74	617.90
377.93	702.16
378.13	662.37
378.33	683.44
378.52	683.44
378.72	664.71
378.91	615.56
379.11	690.46
379.31	641.31
379.50	685.78
379.70	716.20
379.89	744.29
380.09	676.41
380.28	657.69
380.48	730.25
380.68	741.95
380.87	667.05
381.07	720.88
381.26	720.88
381.46	702.16
381.65	711.52
381.85	739.61
382.04	634.29
382.24	711.52
382.43	709.18
382.63	648.33
382.83	734.93
383.02	688.12
383.22	805.14
383.41	739.61
383.61	692.80
383.80	814.51
384.00	739.61
384.19	699.82
384.39	723.23
384.58	765.36
384.78	812.17
384.97	821.53
385.17	809.83
385.36	842.59
385.56	870.68
385.75	814.51
385.95	819.19
386.14	833.23
386.34	798.12
386.53	814.51
386.72	779.40
386.92	901.11
387.11	849.61
387.31	849.61
387.50	891.74
387.70	908.13
387.89	866.00
388.09	884.72
388.28	997.07
388.48	868.34
388.67	919.83
388.86	947.92
389.06	901.11
389.25	966.64
389.45	971.32
389.64	1001.75
389.84	1093.03
390.03	985.37
390.22	1018.13
390.42	947.92
390.61	1036.86
390.81	959.62
391.00	1102.39
391.19	1167.93
391.39	1118.78
391.58	1083.67
391.78	994.73
391.97	1036.86
392.16	952.60
392.36	1088.35
392.55	1018.13
392.75	1018.13
392.94	957.28
393.13	1053.24
393.33	1107.07
393.52	1062.60
393.71	1083.67
393.91	1071.97
394.10	1081.33
394.29	1210.06
394.49	1273.25
394.68	1107.07
394.88	1259.21
395.07	1249.85
395.26	1242.82
395.46	1186.65
395.65	1324.74
395.84	1240.48
396.04	1221.76
396.23	1151.54
396.42	1121.12
396.62	1149.20
396.81	1226.44
397.00	1329.42
397.19	1287.29
397.39	1329.42
397.58	1315.38
397.77	1448.79
397.97	1413.68
398.16	1355.17
398.35	1530.71
398.55	1514.33
398.74	1554.12
398.93	1629.01
399.12	1565.82
399.32	1521.35
399.51	1582.20
399.70	1619.65
399.90	1521.35
400.09	1614.97
400.28	1650.08
400.47	1678.16
400.67	1741.36
400.86	1675.82
401.05	1717.95
401.24	1689.87
401.44	1727.32
401.63	1687.53
401.82	1729.66
402.01	1703.91
402.21	1706.25
402.40	1739.02
402.59	1715.61
402.78	1713.27
402.97	1858.39
403.17	1839.66
403.36	1811.57
403.55	1895.83
403.74	1893.49
403.93	1846.68
404.13	1888.81
404.32	1872.43
404.51	1872.43
404.70	2008.18
404.89	1947.33
405.09	1991.80
405.28	1921.58
405.47	2043.29
405.66	2033.93
405.85	1984.77
406.05	1942.64
406.24	2003.50
406.43	1947.33
406.62	2141.59
406.81	2202.44
407.00	2195.42
407.20	2008.18
407.39	2064.35
407.58	2054.99
407.77	2172.02
407.96	2195.42
408.15	2235.21
408.34	2239.89
408.54	2279.68
408.73	2455.22
408.92	2286.70
409.11	2415.43
409.30	2333.51
409.49	2284.36
409.68	2307.77
409.87	2352.24
410.07	2335.85
410.26	2506.71
410.45	2485.65
410.64	2377.98
410.83	2548.84
411.02	2459.90
411.21	2485.65
411.40	2626.08
411.59	2719.70
411.78	2633.10
411.98	2691.62
412.17	2689.28
412.36	2672.89
412.55	2684.59
412.74	2752.47
412.93	2696.30
413.12	2888.22
413.31	2897.58
413.50	2792.26
413.69	2902.26
413.88	2953.76
414.07	2916.31
414.26	2909.29
414.45	2965.46
414.64	2986.52
414.83	3119.93
415.02	3089.51
415.22	3110.57
415.41	3201.85
415.60	3173.77
415.79	3236.96
415.98	3211.22
416.17	3239.30
416.36	3342.28
416.55	3368.03
416.74	3229.94
416.93	3318.88
417.12	3302.50
417.31	3403.14
417.50	3307.18
417.69	3508.46
417.88	3403.14
418.07	3574.00
418.26	3361.01
418.45	3543.57
418.64	3524.85
418.83	3660.60
419.02	3508.46
419.21	3625.49
419.39	3616.13
419.58	3669.96
419.77	3574.00
419.96	3527.19
420.15	3768.26
420.34	3737.84
420.53	3822.09
420.72	3964.87
420.91	3913.38
421.10	3932.10
421.29	3962.53
421.48	3836.14
421.67	3833.80
421.86	3885.29
422.05	3789.33
422.24	3824.44
422.43	3854.86
422.61	3960.19
422.80	3920.40
422.99	3889.97
423.18	4138.07
423.37	4074.87
423.56	4023.38
423.75	3999.98
423.94	3875.93
424.13	3679.32
424.32	3859.54
424.50	3976.57
424.69	3962.53
424.88	4091.26
425.07	3873.59
425.26	4030.40
425.45	3992.95
425.64	3852.52
425.83	3985.93
426.01	4070.19
426.20	4088.92
426.39	4133.39
426.58	3960.19
426.77	3904.01
426.96	3999.98
427.15	3969.55
427.33	4049.13
427.52	4112.32
427.71	4124.02
427.90	4205.94
428.09	4255.09
428.28	4194.24
428.46	4156.79
428.65	4140.41
428.84	4205.94
429.03	4299.56
429.22	4084.23
429.40	4322.97
429.59	4189.56
429.78	3985.93
429.97	3915.72
430.16	4077.21
430.34	4086.58
430.53	4133.39
430.72	4374.46
430.91	4325.31
431.10	4538.30
431.28	4358.08
431.47	4713.84
431.66	4751.29
431.85	4645.96
432.03	4636.60
432.22	4685.75
432.41	4615.54
432.60	4894.06
432.79	4713.84
432.97	4807.46
433.16	4777.03
433.35	4606.17
433.54	4800.44
433.72	4765.33
433.91	4655.33
434.10	4816.82
434.28	4634.26
434.47	4894.06
434.66	4945.55
434.85	4978.32
435.03	5060.24
435.22	5055.56
435.41	5151.52
435.59	5057.90
435.78	5109.39
435.97	5186.63
436.16	5273.23
436.34	5153.86
436.53	5195.99
436.72	5289.61
436.90	5228.76
437.09	5130.45
437.28	5296.63
437.46	5163.22
437.65	5179.61
437.84	5298.97
438.02	5067.26
438.21	5107.05
438.40	5184.29
438.58	5226.42
438.77	5338.76
438.96	5565.79
439.14	5715.59
439.33	5678.14
439.52	5708.57
439.70	5472.17
439.89	5715.59
440.08	5717.93
440.26	5654.73
440.45	5778.78
440.63	5856.02
440.82	6155.61
441.01	5858.36
441.19	6026.88
441.38	6221.14
441.57	6181.35
441.75	6134.54
441.94	6242.21
442.12	6551.16
442.31	6277.32
442.50	6319.45
442.68	6370.94
442.87	6406.05
443.05	6326.47
443.24	6698.61
443.43	6483.28
443.61	6560.52
443.80	6675.21
443.98	6441.15
444.17	6413.07
444.35	6541.80
444.54	6820.32
444.73	6778.19
444.91	6614.35
445.10	6700.95
445.28	6609.67
445.47	6459.88
445.65	6546.48
445.84	6602.65
446.02	6738.40
446.21	6626.06
446.39	6590.95
446.58	6707.98
446.77	6597.97
446.95	6764.15
447.14	6782.87
447.32	6932.67
447.51	6649.46
447.69	6682.23
447.88	6698.61
448.06	6677.55
448.25	6670.53
448.43	6862.45
448.62	6855.43
448.80	6848.41
448.99	6813.30
449.17	6839.05
449.36	6899.90
449.54	6932.67
449.73	7089.48
449.91	7293.11
450.10	7080.12
450.28	7316.51
450.46	7323.54
450.65	7328.22
450.83	7279.07
451.02	7337.58
451.20	7213.53
451.39	7529.50
451.57	7330.56
451.76	7169.06
451.94	7218.21
452.13	7344.60
452.31	7358.64
452.49	6897.56
452.68	7258.00
452.86	7131.61
453.05	7302.47
453.23	7344.60
453.42	7250.98
453.60	7564.61
453.78	7538.87
453.97	7520.14
454.15	7431.20
454.34	7384.39
454.52	7772.92
454.70	7639.51
454.89	7555.25
455.07	7576.31
455.26	7557.59
455.44	7880.58
455.62	7829.09
455.81	7836.11
455.99	7868.88
456.17	8004.63
456.36	7925.05
456.54	7981.23
456.73	8077.19
456.91	8250.39
457.09	8203.58
457.28	8252.73
457.46	8163.79
457.64	8226.98
457.83	8180.17
458.01	8105.28
458.19	8514.87
458.38	8301.88
458.56	8278.47
458.74	8292.52
458.93	8430.61
459.11	8313.58
459.29	8278.47
459.48	8215.28
459.66	8400.18
459.84	8407.20
460.03	8587.43
460.21	8479.76
460.39	8397.84
460.57	8566.36
460.76	8709.13
460.94	8753.60
461.12	8821.48
461.31	8697.43
461.49	8606.15
461.67	8709.13
461.85	8933.82
462.04	8945.53
462.22	9451.08
462.40	9039.15
462.59	8954.89
462.77	9111.71
462.95	9013.40
463.13	9034.47
463.32	8985.32
463.50	9064.89
463.68	9270.86
463.86	8990.00
464.05	8957.23
464.23	8982.98
464.41	9205.33
464.59	9074.26
464.78	9195.96
464.96	9198.31
465.14	9188.94
465.32	9476.83
465.50	9366.82
465.69	9612.58
465.87	9392.57
466.05	9289.59
466.23	9226.39
466.41	9181.92
466.60	9343.42
466.78	8940.85
466.96	9554.07
467.14	9472.15
467.32	9467.47
467.51	9518.96
467.69	9495.55
467.87	9563.43
468.05	9685.14
468.23	9310.65
468.41	9493.21
468.60	9654.71
468.78	9643.01
468.96	9696.84
469.14	9720.24
469.32	9923.87
469.50	9556.41
469.69	9795.14
469.87	9720.24
470.05	9914.51
470.23	9937.91
470.41	9923.87
470.59	10017.49
470.77	10005.79
470.95	10008.13
471.14	10317.08
471.32	9905.15
471.50	10167.29
471.68	10356.87
471.86	10251.55
472.04	10429.43
472.22	10572.20
472.40	10326.44
472.58	10555.82
472.77	10651.78
472.95	10672.84
473.13	11077.76
473.31	10551.14
473.49	10506.66
473.67	10630.71
473.85	10729.02
474.03	11070.73
474.21	11066.05
474.39	11293.08
474.57	11154.99
474.75	11169.04
474.93	11225.21
475.12	11325.85
475.30	11424.15
475.48	11033.29
475.66	11499.05
475.84	11552.88
476.02	11419.47
476.20	11421.81
476.38	11805.66
476.56	12049.08
476.74	12093.55
476.92	11660.55
477.10	11878.22
477.28	12095.89
477.46	12299.52
477.64	12362.71
477.82	12479.74
478.00	12690.38
478.18	12706.77
478.36	12594.42
478.54	12882.31
478.72	13008.70
478.90	13006.36
479.08	13364.46
479.26	13334.03
479.44	13319.99
479.62	13638.30
479.80	13406.59
479.98	13486.17
480.16	13937.89
480.34	13797.46
480.52	13949.59
480.70	14012.79
480.88	13507.23
481.06	14078.32
481.24	13893.42
481.41	14494.94
481.59	14544.09
481.77	14525.36
481.95	14672.82
482.13	14480.89
482.31	14937.30
482.49	15262.63
482.67	15033.26
482.85	15222.84
483.03	15169.01
483.21	15302.42
483.39	15342.21
483.57	15208.80
483.74	15623.08
483.92	15765.85
484.10	15477.96
484.28	16133.31
484.46	16130.97
484.64	16531.20
484.82	15976.50
485.00	16315.87
485.18	16669.30
485.35	16741.85
485.53	16152.04
485.71	16170.76
485.89	16486.73
486.07	16786.32
486.25	16882.28
486.43	16833.13
486.61	17088.25
486.78	17291.88
486.96	17640.62
487.14	17914.46
487.32	17975.31
487.50	18249.16
487.68	18258.52
487.85	18434.06
488.03	18735.99
488.21	18581.51
488.39	18555.77
488.57	18831.95
488.75	18930.25
488.92	19482.62
489.10	19449.85
489.28	19566.88
489.46	19929.66
489.64	19625.39
489.81	20294.79
489.99	20430.54
490.17	20290.10
490.35	20313.51
490.53	20100.52
490.70	20695.02
490.88	20863.54
491.06	21184.19
491.24	20954.82
491.41	21181.85
491.59	20800.34
491.77	20908.01
491.95	21345.69
492.13	21539.95
492.30	21568.04
492.48	22071.25
492.66	22022.10
492.84	22008.06
493.01	22075.93
493.19	22260.84
493.37	22263.18
493.54	22530.00
493.72	23117.47
493.90	22740.64
494.08	23138.54
494.25	23424.08
494.43	23377.27
494.61	23601.96
494.79	23948.36
494.96	23545.79
495.14	23754.10
495.32	23833.68
495.49	23833.68
495.67	24269.01
495.85	24121.56
496.02	24678.61
496.20	24538.18
496.38	24734.78
496.55	24779.25
496.73	25259.06
496.91	24957.13
497.09	25230.98
497.26	25350.34
497.44	25270.76
497.62	25249.70
497.79	25593.76
497.97	25469.71
498.14	25647.59
498.32	25525.88
498.50	25666.31
498.67	26324.01
498.85	26167.19
499.03	26483.16
499.20	26162.51
499.38	26562.74
499.56	26630.62
499.73	26691.47
499.91	26647.00
500.08	26719.56
500.26	26457.42
500.44	26876.37
500.61	26885.73
500.79	26881.05
500.97	26946.59
501.14	27623.00
501.32	27412.35
501.49	27508.32
501.67	27234.47
501.84	27653.43
502.02	27843.01
502.20	27924.93
502.37	28147.28
502.55	28023.23
502.72	28388.36
502.90	28489.00
503.07	28489.00
503.25	28472.62
503.43	28093.45
503.60	28151.96
503.78	28018.55
503.95	28341.55
504.13	28704.33
504.30	28929.02
504.48	28823.70
504.65	29015.62
504.83	29305.85
505.01	29556.28
505.18	29076.48
505.36	29848.85
505.53	29771.61
505.71	29989.28
505.88	29844.17
506.06	29380.74
506.23	30213.98
506.41	29905.02
506.58	30026.73
506.76	30424.62
506.93	29865.24
507.11	30204.61
507.28	30274.83
507.46	30190.57
507.63	30141.42
507.81	30473.78
507.98	30546.33
508.16	30820.17
508.33	30993.37
508.50	30771.02
508.68	31012.10
508.85	31365.52
509.03	31290.62
509.20	31428.71
509.38	31344.45
509.55	31103.38
509.73	31688.51
509.90	31693.19
510.08	31604.25
510.25	31424.03
510.42	32081.72
510.60	31814.90
510.77	31842.99
510.95	31931.93
511.12	31969.38
511.30	32063.00
511.47	32657.49
511.64	32697.28
511.82	32849.42
511.99	32002.14
512.17	32540.47
512.34	32460.89
512.51	32711.33
512.69	32835.38
512.86	33186.46
513.04	33291.78
513.21	33013.26
513.38	32821.33
513.56	33308.16
513.73	32727.71
513.90	33525.83
514.08	33312.84
514.25	33563.28
514.43	33319.87
514.60	33649.88
514.77	33677.97
514.95	34162.46
515.12	33673.29
515.29	33853.51
515.47	34087.56
515.64	34356.72
515.81	34253.74
515.99	34312.25
516.16	33787.97
516.33	33783.29
516.51	34227.99
516.68	33427.53
516.85	33802.02
517.03	34361.40
517.20	34040.75
517.37	34314.59
517.54	34785.04
517.72	34745.25
517.89	34213.95
518.06	34443.32
518.24	34487.79
518.41	34511.20
518.58	34794.40
518.75	34541.63
518.93	35292.94
519.10	35033.14
519.27	35182.93
519.45	35108.04
519.62	35842.96
519.79	35363.15
519.96	35866.37
520.14	35683.81
520.31	35838.28
520.48	35545.72
520.65	35674.45
520.83	36060.63
521.00	36030.21
521.17	36081.70
521.34	36154.26
521.52	36346.18
521.69	36180.00
521.86	36594.28
522.03	36634.06
522.20	36723.01
522.38	36514.70
522.55	36449.16
522.72	36828.33
522.89	36877.48
523.07	36699.60
523.24	36980.46
523.41	36919.61
523.58	37015.57
523.75	37818.38
523.92	37195.79
524.10	37460.27
524.27	37144.30
524.44	37689.65
524.61	37886.25
524.78	37570.28
524.96	37493.04
525.13	37986.89
525.30	37907.32
525.47	38061.79
525.64	37972.85
525.81	38036.05
525.98	37467.30
526.16	37691.99
526.33	37156.00
526.50	37773.91
526.67	37460.27
526.84	37270.69
527.01	37598.37
527.18	37954.13
527.36	38436.28
527.53	38813.10
527.70	38775.66
527.87	38930.13
528.04	38768.63
528.21	38834.17
528.38	39063.54
528.55	38885.66
528.72	39187.59
528.89	39384.19
529.07	39311.64
529.24	39000.35
529.41	39084.61
529.58	38848.21
529.75	38972.26
529.92	39288.23
530.09	39735.27
530.26	39889.75
530.43	39746.98
530.60	38946.51
530.77	39466.11
530.94	39557.39
531.11	39505.90
531.28	39583.14
531.46	39983.37
531.63	40032.52
531.80	39770.38
531.97	39761.02
532.14	39688.46
532.31	39129.08
532.48	39548.03
532.65	39864.00
532.82	40215.08
532.99	40526.38
533.16	40074.65
533.33	39999.76
533.50	40278.28
533.67	40439.78
533.84	40208.06
534.01	40266.58
534.18	40474.88
534.35	41109.17
534.52	40605.95
534.69	40737.02
534.86	40620.00
535.03	40678.51
535.20	40751.07
535.37	41380.67
535.54	41425.14
535.71	40638.72
535.88	40994.48
536.05	40947.67
536.22	41069.38
536.38	40921.93
536.55	41298.75
536.72	40877.46
536.89	40556.80
537.06	40825.96
537.23	41404.08
537.40	41088.10
537.57	41132.57
537.74	41516.42
537.91	41848.78
538.08	41825.37
538.25	41273.01
538.42	41078.74
538.59	41673.24
538.75	41467.27
538.92	41584.30
539.09	41687.28
539.26	41619.41
539.43	41638.13
539.60	41745.80
539.77	41614.72
539.94	41385.35
540.11	41689.62
540.28	41668.56
540.44	41717.71
540.61	41652.17
540.78	41792.61
540.95	42029.00
541.12	41469.61
541.29	42059.43
541.46	42043.04
541.62	42316.89
541.79	42555.62
541.96	42010.28
542.13	42190.50
542.30	42288.80
542.47	42012.62
542.63	41820.69
542.80	42412.85
542.97	42602.43
543.14	42431.57
543.31	42653.92
543.48	42689.03
543.64	43260.12
543.81	43332.68
543.98	43325.66
544.15	42822.44
544.32	43222.67
544.48	43473.11
544.65	43761.00
544.82	43229.69
544.99	42838.83
545.16	43182.88
545.32	42953.51
545.49	43510.56
545.66	43955.26
545.83	43721.21
546.00	43332.68
546.16	43299.91
546.33	43194.59
546.50	43122.03
546.67	43693.12
546.83	42864.57
547.00	43828.87
547.17	43330.34
547.34	43454.39
547.50	43475.45
547.67	43388.85
547.84	43910.79
548.00	43906.11
548.17	44119.10
548.34	44095.69
548.51	44086.33
548.67	44414.01
548.84	43957.60
549.01	44289.96
549.18	43812.49
549.34	44161.23
549.51	44240.81
549.68	44308.68
549.84	43955.26
550.01	44264.21
550.18	43938.88
550.34	44210.38
550.51	44002.07
550.68	43973.98
550.84	43896.75
551.01	44367.20
551.18	44076.97
551.34	44144.84
551.51	44612.95
551.68	44488.90
551.84	44570.82
552.01	44062.93
552.18	44959.35
552.34	44247.83
552.51	44456.14
552.68	44339.11
552.84	45029.57
553.01	44456.14
553.18	44357.83
553.34	44673.81
553.51	44673.81
553.67	45029.57
553.84	45352.56
554.01	44713.59
554.17	45151.27
554.34	45223.83
554.51	44744.02
554.67	45153.62
554.84	45071.70
555.00	45048.29
555.17	44914.88
555.33	45425.12
555.50	44854.03
555.67	45059.99
555.83	45036.59
556.00	45071.70
556.16	45062.33
556.33	45251.92
556.50	44985.10
556.66	45394.69
556.83	44395.28
556.99	45368.94
557.16	45464.91
557.32	45624.06
557.49	45305.75
557.65	45265.96
557.82	44797.85
557.98	45427.46
558.15	45373.63
558.32	45148.93
558.48	45097.44
558.65	45219.15
558.81	45324.47
558.98	45303.41
559.14	45556.19
559.31	45160.64
559.47	45294.05
559.64	45280.00
559.80	45172.34
559.97	45205.11
560.13	45006.16
560.30	45052.97
560.46	45462.57
560.63	45787.90
560.79	45736.41
560.96	45773.86
561.12	44882.11
561.29	45261.28
561.45	45422.78
561.61	45741.09
561.78	45766.84
561.94	45305.75
562.11	45497.67
562.27	45511.72
562.44	45469.59
562.60	45918.97
562.77	45659.17
562.93	45888.54
563.10	46068.76
563.26	45448.52
563.42	46199.83
563.59	45696.62
563.75	45478.95
563.92	45715.34
564.08	45928.33
564.24	46014.93
564.41	45502.35
564.57	46010.25
564.74	45993.87
564.90	45673.21
565.07	45474.27
565.23	45954.08
565.39	45661.51
565.56	45794.92
565.72	45406.39
565.88	45940.04
566.05	45535.12
566.21	45614.70
566.38	45502.35
566.54	45722.37
566.70	46230.26
566.87	46358.99
567.03	46014.93
567.19	46410.48
567.36	45923.65
567.52	46005.57
567.68	46202.18
567.85	45865.14
568.01	46209.20
568.17	46003.23
568.34	46529.85
568.50	45947.06
568.66	45823.01
568.83	45989.19
568.99	46068.76
569.15	46394.10
569.32	45984.51
569.48	45647.47
569.64	46373.03
569.81	45993.87
569.97	46068.76
570.13	46258.35
570.30	45883.86
570.46	45727.05
570.62	45799.60
570.78	45925.99
570.95	45975.14
571.11	46064.08
571.27	46024.29
571.43	45879.18
571.60	45759.81
571.76	46202.18
571.92	46457.29
572.09	46487.72
572.25	45918.97
572.41	46611.77
572.57	46405.80
572.74	46555.60
572.90	46239.62
573.06	46349.63
573.22	46026.63
573.38	46405.80
573.55	46021.95
573.71	46513.47
573.87	46480.70
574.03	46213.88
574.20	46171.75
574.36	46073.45
574.52	46305.16
574.68	46033.66
574.84	46288.77
575.01	45989.19
575.17	46504.10
575.33	45876.84
575.49	46284.09
575.65	46279.41
575.82	46197.49
575.98	46405.80
576.14	46731.14
576.30	46581.34
576.46	46403.46
576.62	46387.08
576.79	46251.33
576.95	46038.34
577.11	46157.70
577.27	46246.65
577.43	46291.12
577.59	46256.01
577.75	46131.96
577.92	45619.38
578.08	45837.05
578.24	46185.79
578.40	46272.39
578.56	46405.80
578.72	46253.67
578.88	46520.49
579.04	46190.47
579.21	46087.49
579.37	46223.24
579.53	46410.48
579.69	45869.82
579.85	46316.86
580.01	46101.53
580.17	46181.11
580.33	46464.32
580.49	46527.51
580.65	46321.54
580.82	46403.46
580.98	46440.91
581.14	46064.08
581.30	46555.60
581.46	46071.10
581.62	46087.49
581.78	46351.97
581.94	46593.04
582.10	46216.22
582.26	46443.25
582.42	46749.86
582.58	46536.87
582.74	46459.63
582.90	46593.04
583.06	46658.58
583.22	46548.57
583.38	46731.14
583.54	46387.08
583.70	46248.99
583.86	46515.81
584.02	46244.30
584.18	46436.23
584.34	46466.66
584.50	46127.28
584.66	46347.29
584.82	46284.09
584.98	46328.56
585.14	46656.24
585.30	46075.79
585.46	46646.88
585.62	46007.91
585.78	46017.27
585.94	46136.64
586.10	46185.79
586.26	46045.36
586.42	46796.67
586.58	46536.87
586.74	46436.23
586.90	46490.06
587.06	46354.31
587.22	46197.49
587.38	46316.86
587.54	46700.71
587.70	46916.04
587.86	46511.13
588.02	46323.88
588.18	46394.10
588.34	46693.69
588.49	46050.04
588.65	45998.55
588.81	46190.47
588.97	46204.52
589.13	45865.14
589.29	46080.47
589.45	46351.97
589.61	46103.87
589.77	46794.33
589.93	47098.60
590.08	46843.48
590.24	46866.89
590.40	46499.42
590.56	46808.37
590.72	46499.42
590.88	46003.23
591.04	46241.96
591.20	46820.08
591.35	47004.98
591.51	47028.38
591.67	46419.84
591.83	46398.78
591.99	46555.60
592.15	46590.70
592.31	46511.13
592.46	46443.25
592.62	46803.69
592.78	46637.51
592.94	46876.25
593.10	46972.21
593.26	46447.93
593.41	46527.51
593.57	46511.13
593.73	46571.98
593.89	46602.41
594.05	46878.59
594.20	46511.13
594.36	46696.03
594.52	46366.01
594.68	46548.57
594.84	46515.81
594.99	46459.63
595.15	46230.26
595.31	46642.20
595.47	47157.11
595.62	46543.89
595.78	46246.65
595.94	46452.61
596.10	46511.13
596.25	46461.97
596.41	46611.77
596.57	46913.70
596.73	46717.09
596.88	46466.66
597.04	46691.35
597.20	46700.71
597.36	46316.86
597.51	46712.41
597.67	46398.78
597.83	46576.66
597.99	46670.28
598.14	46476.02
598.30	46560.28
598.46	46787.31
598.61	46855.18
598.77	46485.38
598.93	46616.45
599.09	46873.91
599.24	47040.09
599.40	46899.65
599.56	46897.31
599.71	46389.42
599.87	46293.46
600.03	46529.85
600.18	46394.10
600.34	46635.17
600.50	46604.75
600.65	46618.79
600.81	46754.54
600.97	47070.51
601.12	47063.49
601.28	46375.37
601.44	46178.77
601.59	46485.38
601.75	46529.85
601.91	46461.97
602.06	46583.68
602.22	46621.13
602.37	46712.41
602.53	46497.08
602.69	46527.51
602.84	46136.64
603.00	46267.71
603.16	46494.74
603.31	46520.49
603.47	46909.02
603.62	46256.01
603.78	46721.77
603.94	46515.81
604.09	46667.94
604.25	46906.68
604.40	46562.62
604.56	46485.38
604.71	46424.53
604.87	46747.52
605.03	46665.60
605.18	46302.82
605.34	46277.07
605.49	46010.25
605.65	46822.42
605.80	46171.75
605.96	46398.78
606.12	46382.40
606.27	46375.37
606.43	46429.21
606.58	46546.23
606.74	46426.87
606.89	46810.71
607.05	46813.05
607.20	46419.84
607.36	46363.67
607.51	46604.75
607.67	46398.78
607.82	46134.30
607.98	45937.69
608.13	46092.17
608.29	46117.92
608.44	45759.81
608.60	45783.22
608.75	46162.39
608.91	46064.08
609.06	45785.56
609.22	46281.75
609.37	45949.40
609.53	46377.72
609.68	45984.51
609.84	45876.84
609.99	45923.65
610.15	46050.04
610.30	45799.60
610.46	45530.44
610.61	46024.29
610.76	46028.98
610.92	46183.45
611.07	45647.47
611.23	45631.08
611.38	45677.90
611.54	45694.28
611.69	45420.44
611.84	45450.86
612.00	45780.88
612.15	45666.19
612.31	45841.73
612.46	46150.68
612.62	45787.90
612.77	45844.07
612.92	45212.13
613.08	45769.18
613.23	45717.68
613.39	45291.71
613.54	45404.05
613.69	45064.67
613.85	45425.12
614.00	45801.94
614.15	45382.99
614.31	45617.04
614.46	45787.90
614.62	45518.74
614.77	45160.64
614.92	45249.58
615.08	45195.74
615.23	44947.65
615.38	45144.25
615.54	45249.58
615.69	45600.66
615.84	45170.00
616.00	45209.79
616.15	45359.58
616.30	45043.61
616.46	45617.04
616.61	45179.36
616.76	44737.00
616.92	44718.28
617.07	44732.32
617.22	45216.81
617.37	44928.92
617.53	45553.85
617.68	45106.80
617.83	45052.97
617.99	44982.76
618.14	45069.36
618.29	44678.49
618.45	44729.98
618.60	44271.23
618.75	44264.21
618.90	44280.60
619.06	44573.16
619.21	44832.96
619.36	44355.49
619.51	44589.55
619.67	44641.04
619.82	44416.35
619.97	44811.90
620.12	44531.03
620.28	44210.38
620.43	44086.33
620.58	44458.48
620.73	44659.76
620.89	44608.27
621.04	44591.89
621.19	44657.42
621.34	44509.97
621.49	44060.58
621.65	44123.78
621.80	44112.08
621.95	44102.71
622.10	44325.07
622.25	44037.18
622.41	44016.11
622.56	43863.98
622.71	44287.62
622.86	44067.61
623.01	43934.20
623.16	44210.38
623.32	43936.54
623.47	44030.16
623.62	44130.80
623.77	44231.44
623.92	43903.77
624.07	44074.63
624.23	43299.91
624.38	43807.81
624.53	43695.46
624.68	43913.13
624.83	43824.19
624.98	43863.98
625.13	43320.98
625.29	43428.64
625.44	42981.60
625.59	43253.10
625.74	43290.55
625.89	43096.28
626.04	43580.78
626.19	43054.15
626.34	43133.73
626.49	43800.79
626.65	43419.28
626.80	43665.03
626.95	43267.14
627.10	42965.21
627.25	42862.23
627.40	42749.88
627.55	42712.44
627.70	42738.18
627.85	42918.40
628.00	42810.74
628.15	43042.45
628.30	42923.08
628.45	43201.61
628.60	42789.67
628.76	43070.54
628.91	43330.34
629.06	42408.17
629.21	42684.35
629.36	42206.88
629.51	42827.12
629.66	42752.23
629.81	42260.71
629.96	42913.72
630.11	43049.47
630.26	43021.39
630.41	42827.12
630.56	42478.38
630.71	42593.07
630.86	42377.74
631.01	42309.86
631.16	42380.08
631.31	41979.85
631.46	41673.24
631.61	42429.23
631.76	42424.55
631.91	42660.94
632.06	42005.59
632.21	42202.20
632.36	42288.80
632.51	42026.66
632.66	41904.95
632.81	42014.96
632.96	42288.80
633.10	41675.58
633.25	42237.31
633.40	42204.54
633.55	41935.38
633.70	42007.94
633.85	41816.01
634.00	42284.12
634.15	42092.19
634.30	41413.44
634.45	41694.30
634.60	42043.04
634.75	41951.76
634.90	41698.98
635.05	41663.88
635.19	41474.29
635.34	41916.65
635.49	41415.78
635.64	41956.44
635.79	41619.41
635.94	41081.08
636.09	41387.69
636.24	41617.07
636.39	40701.92
636.53	41579.62
636.68	41062.36
636.83	41476.63
636.98	41207.47
637.13	41354.93
637.28	41439.18
637.43	41914.31
637.57	41390.03
637.72	41003.85
637.87	40935.97
638.02	41141.94
638.17	41170.02
638.32	41127.89
638.46	41251.94
638.61	41099.81
638.76	40746.39
638.91	41188.75
639.06	40924.27
639.20	41029.59
639.35	41127.89
639.50	40807.24
639.65	41228.54
639.80	40620.00
639.94	40917.25
640.09	40746.39
640.24	40861.07
640.39	40484.25
640.54	40575.53
640.68	40587.23
640.83	40730.00
640.98	40683.19
641.13	40187.00
641.27	40800.22
641.42	40231.47
641.57	40545.10
641.72	40388.28
641.86	40575.53
642.01	40144.87
642.16	40467.86
642.31	39763.36
642.45	40102.74
642.60	39803.15
642.75	39938.90
642.90	40294.66
643.04	39847.62
643.19	40084.01
643.34	40378.92
643.48	40133.17
643.63	40315.73
643.78	39622.93
643.93	40144.87
644.07	39931.88
644.22	39882.73
644.37	39782.09
644.51	39852.30
644.66	39917.84
644.81	40086.36
644.95	40053.59
645.10	40055.93
645.25	39636.97
645.39	39732.93
645.54	40088.70
645.69	40278.28
645.83	39201.63
645.98	39632.29
646.13	39964.65
646.27	39594.84
646.42	39569.10
646.57	39426.32
646.71	39405.26
646.86	39482.50
647.00	39686.12
647.15	39810.17
647.30	39344.41
647.44	39381.85
647.59	39571.44
647.74	39222.70
647.88	39215.68
648.03	39173.55
648.17	39768.04
648.32	39091.63
648.47	39201.63
648.61	39021.41
648.76	39569.10
648.90	39124.40
649.05	39510.58
649.20	39239.08
649.34	39108.01
649.49	38890.34
649.63	39033.11
649.78	39702.51
649.92	39159.50
650.07	39281.21
650.21	39292.91
650.36	39007.37
650.51	38888.00
650.65	39136.10
650.80	39065.88
650.94	39023.75
651.09	38944.17
651.23	38972.26
651.38	38614.16
651.52	38506.49
651.67	38199.88
651.81	38401.17
651.96	38813.10
652.10	38864.60
652.25	38653.95
652.39	38782.68
652.54	38824.81
652.68	38436.28
652.83	38548.62
652.97	39072.90
653.12	38609.48
653.26	38176.48
653.41	38260.74
653.55	38557.99
653.70	38583.73
653.84	38394.15
653.99	38061.79
654.13	38394.15
654.27	38309.89
654.42	37581.98
654.56	38003.28
654.71	38204.56
654.85	38043.07
655.00	38094.56
655.14	38010.30
655.29	37916.68
655.43	37773.91
655.57	37783.27
655.72	37462.61
655.86	37352.61
656.01	37249.63
656.15	37092.81
656.30	37397.08
656.44	37537.51
656.58	37553.90
656.73	37649.86
656.87	37132.60
657.01	37790.29
657.16	37816.04
657.30	37284.73
657.45	37106.85
657.59	37324.52
657.73	37223.88
657.88	37177.07
658.02	37406.44
658.16	38045.41
658.31	37787.95
658.45	37745.82
658.60	37408.78
658.74	37596.03
658.88	37378.36
659.03	37127.92
659.17	36842.37
659.31	36664.49
659.46	37001.53
659.60	37364.31
659.74	36945.36
659.89	36898.55
660.03	36968.76
660.17	36891.52
660.32	37212.18
660.46	37139.62
660.60	36704.28
660.74	36449.16
660.89	36652.79
661.03	36598.96
661.17	36374.27
661.32	36643.43
661.46	36865.78
661.60	36222.13
661.74	36140.21
661.89	36746.41
662.03	36470.23
662.17	36498.31
662.31	36552.15
662.46	36659.81
662.60	36156.60
662.74	36212.77
662.88	36037.23
663.03	35826.58
663.17	35845.30
663.31	35667.42
663.45	35950.63
663.60	35594.87
663.74	35948.29
663.88	35260.17
664.02	35473.16
664.17	35889.77
664.31	35332.73
664.45	35587.85
664.59	35199.32
664.73	35426.35
664.88	35349.11
665.02	34663.33
665.16	35227.40
665.30	34771.00
665.44	35140.80
665.59	34532.26
665.73	34993.35
665.87	34548.65
666.01	34930.16
666.15	35016.75
666.29	35215.70
666.44	34799.08
666.58	34649.29
666.72	34841.21
666.86	34597.80
667.00	34747.59
667.14	34574.39
667.28	34195.23
667.43	34405.88
667.57	34499.50
667.71	34106.29
667.85	34211.61
667.99	34529.92
668.13	34263.10
668.27	34473.75
668.41	34274.80
668.56	33853.51
668.70	33979.90
668.84	33919.04
668.98	33818.40
669.12	33923.72
669.26	33530.51
669.40	33263.69
669.54	33338.59
669.68	33476.68
669.82	33275.40
669.96	33317.53
670.10	33474.34
670.25	33013.26
670.39	33060.07
670.53	32828.35
670.67	33050.70
670.81	33446.26
670.95	32699.62
671.09	32968.79
671.23	32701.96
671.37	32594.30
671.51	32547.49
671.65	32584.94
671.79	32348.54
671.93	33041.34
672.07	32425.78
672.21	32318.12
672.35	32690.26
672.49	32451.53
672.63	32173.00
672.77	32027.89
672.91	32086.40
673.05	32355.57
673.19	32002.14
673.33	31557.44
673.47	31885.12
673.61	31529.36
673.75	31409.99
673.89	31398.29
674.03	31772.77
674.17	31309.35
674.31	31424.03
674.45	31314.03
674.59	31473.18
674.73	31459.14
674.87	31159.55
675.01	31019.12
675.15	30981.67
675.29	30925.50
675.43	31058.91
675.56	30803.79
675.70	30728.89
675.84	30937.20
675.98	29834.81
676.12	30419.94
676.26	30604.84
676.40	30359.09
676.54	30274.83
676.68	30181.21
676.82	30019.71
676.96	30110.99
677.10	29743.53
677.23	29982.26
677.37	29886.30
677.51	29479.05
677.65	29921.41
677.79	29050.73
677.93	29352.66
678.07	28912.64
678.21	28556.88
678.34	29280.10
678.48	28947.75
678.62	28760.50
678.76	28233.88
678.90	28503.04
679.04	28294.74
679.18	28704.33
679.31	28339.21
679.45	28198.77
679.59	28519.43
679.73	28261.97
679.87	28100.47
680.00	27763.43
680.14	28002.17
680.28	28105.15
680.42	27686.20
680.56	27990.47
680.70	27758.75
680.83	27728.33
680.97	27344.48
681.11	27292.99
681.25	27395.97
681.39	27119.79
681.52	27491.93
681.66	27072.98
681.80	27143.19
681.94	26934.88
682.07	26808.50
682.21	26651.68
682.35	26628.27
682.49	26576.78
682.62	26555.72
682.76	25923.77
682.90	26637.64
683.04	26167.19
683.17	26089.95
683.31	25940.16
683.45	26008.03
683.59	25511.84
683.72	26118.04
683.86	25771.64
684.00	25809.09
684.13	25432.26
684.27	25186.50
684.41	25317.57
684.55	25263.74
684.68	25172.46
684.82	25116.29
684.96	24746.48
685.09	25032.03
685.23	24788.61
685.37	24868.19
685.50	24732.44
685.64	24690.31
685.78	24313.48
685.91	24381.36
686.05	24404.77
686.19	23999.85
686.32	24037.30
686.46	24023.26
686.60	23405.36
686.73	23229.82
686.87	23131.51
687.01	23335.14
687.14	23445.15
687.28	23058.96
687.42	23122.15
687.55	23105.77
687.69	23194.71
687.82	23208.75
687.96	23255.56
688.10	22764.05
688.23	22607.23
688.37	22738.30
688.50	22696.17
688.64	22356.80
688.78	22431.69
688.91	22387.22
689.05	22253.81
689.18	22359.14
689.32	22071.25
689.46	22349.78
689.59	22199.98
689.73	22391.91
689.86	22361.48
690.00	21680.38
690.13	21888.69
690.27	21458.03
690.41	21331.64
690.54	21165.46
690.68	21333.98
690.81	21345.69
690.95	21362.07
691.08	21235.68
691.22	20938.43
691.35	20795.66
691.49	21149.08
691.62	20769.91
691.76	20945.45
691.89	21006.31
692.03	20662.25
692.16	20716.08
692.30	20552.24
692.43	20402.45
692.57	19962.43
692.70	20320.53
692.84	20077.12
692.97	19709.65
693.11	19786.89
693.24	19627.73
693.38	19152.60
693.51	19749.44
693.65	19805.61
693.78	19454.53
693.92	19302.40
694.05	19194.73
694.19	19318.78
694.32	19318.78
694.45	19197.07
694.59	19199.41
694.72	19176.01
694.86	18881.10
694.99	18845.99
695.13	18867.06
695.26	18824.93
695.39	18520.66
695.53	18714.92
695.66	18759.39
695.80	18576.83
695.93	18551.09
696.07	18354.48
696.20	18684.50
696.33	18162.56
696.47	18415.34
696.60	17972.97
696.73	18071.28
696.87	17738.92
697.00	17778.71
697.14	17804.46
697.27	17610.19
697.40	17483.80
697.54	17488.48
697.67	17294.22
697.80	17256.77
697.94	17074.21
698.07	17104.64
698.21	17165.49
698.34	17289.54
698.47	17156.13
698.61	16739.51
698.74	16898.67
698.87	16875.26
699.01	16683.34
699.14	16704.40
699.27	16365.03
699.40	16460.99
699.54	16306.51
699.67	16306.51
699.80	16205.87
699.94	15761.17
700.07	16044.37
700.20	15969.48
700.34	16224.59
700.47	16198.85
700.60	15997.56
700.73	16163.74
700.87	15695.63
701.00	15555.20
701.13	15534.14
701.26	15545.84
701.40	15580.95
701.53	15199.44
701.66	15311.78
701.79	14965.39
701.93	14946.66
702.06	14672.82
702.19	14909.21
702.32	15066.03
702.46	15021.56
702.59	15051.99
702.72	14792.19
702.85	14780.48
702.99	14623.67
703.12	14707.93
703.25	14541.75
703.38	14560.47
703.51	14476.21
703.65	14684.52
703.78	14218.75
703.91	13837.25
704.04	14183.65
704.17	13778.73
704.31	14160.24
704.44	13832.57
704.57	13745.97
704.70	13561.06
704.83	13727.24
704.96	13724.90
705.10	13975.34
705.23	13525.96
>>>>>End Processed Spectral Data<<<<<
