SpectraSuite Data File
++++++++++++++++++++++++++++++++++++
Date: Fri Oct 25 11:34:41 EDT 2013
User: price-jones
Dark Spectrum Present: No
Reference Spectrum Present: No
Number of Sampled Component Spectra: 1
Spectrometers: USB2+H05261
Integration Time (usec): 100000 (USB2+H05261)
Spectra Averaged: 1 (USB2+H05261)
Boxcar Smoothing: 0 (USB2+H05261)
Correct for Electrical Dark: No (USB2+H05261)
Strobe/Lamp Enabled: No (USB2+H05261)
Correct for Detector Non-linearity: No (USB2+H05261)
Correct for Stray Light: No (USB2+H05261)
Number of Pixels in Processed Spectrum: 2048
>>>>>Begin Processed Spectral Data<<<<<
365.73	325.33
365.92	325.33
366.12	325.33
366.32	229.37
366.52	201.29
366.72	175.54
366.91	140.43
367.11	184.90
367.31	163.84
367.51	166.18
367.70	196.60
367.90	163.84
368.10	189.58
368.30	189.58
368.49	170.86
368.69	215.33
368.89	241.08
369.09	154.48
369.28	203.63
369.48	212.99
369.68	170.86
369.87	234.05
370.07	245.76
370.27	306.61
370.47	313.63
370.66	526.62
370.86	454.06
371.06	608.54
371.25	505.56
371.45	477.47
371.65	531.30
371.84	545.34
372.04	477.47
372.24	580.45
372.44	547.69
372.63	561.73
372.83	545.34
373.03	550.03
373.22	580.45
373.42	580.45
373.62	664.71
373.81	648.33
374.01	648.33
374.21	599.18
374.40	559.39
374.60	674.07
374.79	645.99
374.99	596.84
375.19	650.67
375.38	631.94
375.58	638.97
375.78	688.12
375.97	645.99
376.17	674.07
376.37	657.69
376.56	617.90
376.76	690.46
376.95	660.03
377.15	688.12
377.35	711.52
377.54	702.16
377.74	676.41
377.93	702.16
378.13	716.20
378.33	674.07
378.52	791.10
378.72	706.84
378.91	739.61
379.11	741.95
379.31	695.14
379.50	662.37
379.70	643.65
379.89	734.93
380.09	671.73
380.28	739.61
380.48	674.07
380.68	667.05
380.87	755.99
381.07	763.01
381.26	807.48
381.46	763.01
381.65	758.33
381.85	812.17
382.04	774.72
382.24	730.25
382.43	866.00
382.63	760.67
382.83	746.63
383.02	884.72
383.22	809.83
383.41	847.27
383.61	765.36
383.80	793.44
384.00	772.38
384.19	760.67
384.39	844.93
384.58	791.10
384.78	809.83
384.97	763.01
385.17	800.46
385.36	784.08
385.56	819.19
385.75	800.46
385.95	786.42
386.14	821.53
386.34	896.43
386.53	847.27
386.72	807.48
386.92	821.53
387.11	842.59
387.31	870.68
387.50	870.68
387.70	819.19
387.89	854.30
388.09	887.06
388.28	896.43
388.48	910.47
388.67	844.93
388.86	947.92
389.06	880.04
389.25	870.68
389.45	976.00
389.64	849.61
389.84	994.73
390.03	940.90
390.22	931.53
390.42	854.30
390.61	901.11
390.81	940.90
391.00	959.62
391.19	1029.84
391.39	903.45
391.58	957.28
391.78	933.87
391.97	1006.43
392.16	997.07
392.36	1050.90
392.55	954.94
392.75	1078.99
392.94	1055.58
393.13	1020.47
393.33	1043.88
393.52	1064.94
393.71	1048.56
393.91	1039.20
394.10	1043.88
394.29	1015.79
394.49	1118.78
394.68	1132.82
394.88	1128.14
395.07	1186.65
395.26	1053.24
395.46	1034.52
395.65	1144.52
395.84	1107.07
396.04	1128.14
396.23	1121.12
396.42	1076.65
396.62	1259.21
396.81	1174.95
397.00	1193.67
397.19	1217.08
397.39	1210.06
397.58	1219.42
397.77	1219.42
397.97	1256.87
398.16	1203.04
398.35	1193.67
398.55	1160.91
398.74	1275.59
398.93	1256.87
399.12	1268.57
399.32	1261.55
399.51	1299.00
399.70	1275.59
399.90	1289.64
400.09	1320.06
400.28	1277.93
400.47	1343.47
400.67	1359.85
400.86	1324.74
401.05	1334.11
401.24	1376.24
401.44	1394.96
401.63	1378.58
401.82	1409.00
402.01	1420.71
402.21	1348.15
402.40	1437.09
402.59	1462.83
402.78	1359.85
402.97	1399.64
403.17	1472.20
403.36	1462.83
403.55	1406.66
403.74	1624.33
403.93	1554.12
404.13	1582.20
404.32	1610.29
404.51	1549.43
404.70	1500.28
404.89	1584.54
405.09	1586.88
405.28	1551.78
405.47	1582.20
405.66	1659.44
405.85	1591.56
406.05	1633.69
406.24	1650.08
406.43	1708.59
406.62	1771.79
406.81	1760.08
407.00	1781.15
407.20	1694.55
407.39	1785.83
407.58	1774.13
407.77	1750.72
407.96	1788.17
408.15	1856.04
408.34	1809.23
408.54	1813.92
408.73	1830.30
408.92	1811.57
409.11	1952.01
409.30	1863.07
409.49	1813.92
409.68	1942.64
409.87	1860.73
410.07	2099.46
410.26	1973.07
410.45	1907.54
410.64	1933.28
410.83	2040.95
411.02	2017.54
411.21	2005.84
411.40	1877.11
411.59	2073.71
411.78	2125.21
411.98	2050.31
412.17	2155.63
412.36	2200.10
412.55	2207.13
412.74	2249.25
412.93	2335.85
413.12	2260.96
413.31	2298.41
413.50	2293.72
413.69	2167.34
413.88	2300.75
414.07	2298.41
414.26	2380.32
414.45	2279.68
414.64	2422.45
414.83	2427.14
415.02	2445.86
415.22	2492.67
415.41	2513.74
415.60	2471.61
415.79	2602.68
415.98	2593.31
416.17	2602.68
416.36	2616.72
416.55	2595.65
416.74	2651.83
416.93	2623.74
417.12	2612.04
417.31	2836.73
417.50	2813.32
417.69	2787.58
417.88	2654.17
418.07	2752.47
418.26	2813.32
418.45	2757.15
418.64	2906.95
418.83	2925.67
419.02	2860.13
419.21	2970.14
419.39	2888.22
419.58	2895.24
419.77	2855.45
419.96	2965.46
420.15	3002.91
420.34	3002.91
420.53	3023.97
420.72	3152.70
420.91	3030.99
421.10	3016.95
421.29	3087.17
421.48	3023.97
421.67	3192.49
421.86	3063.76
422.05	3187.81
422.24	3208.87
422.43	3082.49
422.61	3272.07
422.80	3281.43
422.99	3260.37
423.18	3166.74
423.37	3297.81
423.56	3246.32
423.75	3281.43
423.94	3201.85
424.13	3119.93
424.32	3103.55
424.50	3262.71
424.69	3318.88
424.88	3372.71
425.07	3311.86
425.26	3187.81
425.45	3286.11
425.64	3171.43
425.83	3314.20
426.01	3321.22
426.20	3304.84
426.39	3288.45
426.58	3307.18
426.77	3344.63
426.96	3368.03
427.15	3363.35
427.33	3344.63
427.52	3384.41
427.71	3297.81
427.90	3442.93
428.09	3466.33
428.28	3604.42
428.46	3421.86
428.65	3433.57
428.84	3534.21
429.03	3543.57
429.22	3499.10
429.40	3618.47
429.59	3571.66
429.78	3646.55
429.97	3351.65
430.16	3447.61
430.34	3719.11
430.53	3705.07
430.72	3744.86
430.91	3712.09
431.10	3747.20
431.28	3801.03
431.47	3779.97
431.66	3695.71
431.85	3684.00
432.03	3791.67
432.22	3857.20
432.41	3782.31
432.60	3801.03
432.79	3730.81
432.97	3908.69
433.16	3831.46
433.35	3873.59
433.54	3969.55
433.72	3932.10
433.91	3829.12
434.10	4025.72
434.28	3922.74
434.47	4142.75
434.66	4102.96
434.85	4173.18
435.03	4007.00
435.22	4147.43
435.41	4189.56
435.59	4222.33
435.78	4262.12
435.97	4269.14
436.16	4248.07
436.34	4109.98
436.53	4285.52
436.72	4285.52
436.90	4262.12
437.09	4227.01
437.28	4128.70
437.46	4428.29
437.65	4264.46
437.84	4475.10
438.02	4388.50
438.21	4369.78
438.40	4374.46
438.58	4622.56
438.77	4575.75
438.96	4493.83
439.14	4557.02
439.33	4662.35
439.52	4636.60
439.70	4767.67
439.89	4753.63
440.08	4929.17
440.26	4837.89
440.45	4709.16
440.63	4730.22
440.82	4943.21
441.01	4807.46
441.19	4877.68
441.38	5114.07
441.57	4891.72
441.75	5039.17
441.94	5039.17
442.12	5078.96
442.31	5256.84
442.50	5076.62
442.68	5174.92
442.87	5268.55
443.05	5266.21
443.24	5273.23
443.43	5266.21
443.61	5149.18
443.80	5476.85
443.98	5100.03
444.17	5139.82
444.35	5193.65
444.54	5380.89
444.73	5270.89
444.91	5371.53
445.10	5336.42
445.28	5329.40
445.47	5392.59
445.65	5359.83
445.84	5399.62
446.02	5458.13
446.21	5408.98
446.39	5280.25
446.58	5451.11
446.77	5507.28
446.95	5404.30
447.14	5408.98
447.32	5432.38
447.51	5619.63
447.69	5469.83
447.88	5483.88
448.06	5551.75
448.25	5453.45
448.43	5584.52
448.62	5434.72
448.80	5455.79
448.99	5511.96
449.17	5537.71
449.36	5586.86
449.54	5621.97
449.73	5614.95
449.91	5542.39
450.10	5839.64
450.28	5865.38
450.46	5961.34
450.65	5865.38
450.83	5628.99
451.02	5935.60
451.20	5879.43
451.39	5867.72
451.57	5860.70
451.76	6031.56
451.94	5996.45
452.13	5916.87
452.31	5970.71
452.49	5956.66
452.68	5973.05
452.86	5825.59
453.05	6258.59
453.23	6094.76
453.42	5928.58
453.60	6043.26
453.78	6186.04
453.97	6279.66
454.15	6001.13
454.34	5914.53
454.52	6099.44
454.70	6300.72
454.89	6286.68
455.07	6291.36
455.26	6239.87
455.44	6239.87
455.62	6382.64
455.81	6225.82
455.99	6347.53
456.17	6403.71
456.36	6431.79
456.54	6553.50
456.73	6740.74
456.91	6637.76
457.09	6717.34
457.28	6766.49
457.46	6668.19
457.64	6745.42
457.83	6771.17
458.01	6579.25
458.19	6899.90
458.38	6932.67
458.56	6808.62
458.74	6766.49
458.93	6822.66
459.11	6857.77
459.29	6988.84
459.48	7000.54
459.66	6949.05
459.84	6920.96
460.03	7101.19
460.21	7000.54
460.39	6925.65
460.57	6895.22
460.76	7023.95
460.94	7115.23
461.12	7112.89
461.31	7082.46
461.49	7124.59
461.67	7014.59
461.85	7274.38
462.04	7070.76
462.22	7606.74
462.40	7370.35
462.59	7459.29
462.77	7274.38
462.95	7412.48
463.13	7360.98
463.32	7442.90
463.50	7342.26
463.68	7318.86
463.86	7463.97
464.05	7506.10
464.23	7545.89
464.41	7644.19
464.59	7253.32
464.78	7658.23
464.96	7569.29
465.14	7566.95
465.32	7602.06
465.50	7744.83
465.69	7590.36
465.87	7707.38
466.05	7749.51
466.23	7609.08
466.41	7658.23
466.60	7861.86
466.78	7801.01
466.96	7810.37
467.14	7775.26
467.32	7772.92
467.51	7887.61
467.69	7693.34
467.87	7955.48
468.05	7908.67
468.23	7934.42
468.41	7845.48
468.60	7946.12
468.78	8079.53
468.96	8009.31
469.14	8147.40
469.32	8194.22
469.50	8060.80
469.69	8128.68
469.87	8304.22
470.05	8177.83
470.23	8280.82
470.41	8297.20
470.59	8435.29
470.77	8414.23
470.95	8496.14
471.14	8484.44
471.32	8287.84
471.50	8692.75
471.68	8622.53
471.86	8585.08
472.04	8746.58
472.22	8851.91
472.40	8812.12
472.58	8767.65
472.77	8854.25
472.95	8947.87
473.13	9121.07
473.31	8793.39
473.49	8908.08
473.67	8905.74
473.85	8943.19
474.03	9181.92
474.21	9212.35
474.39	9210.01
474.57	9174.90
474.75	9296.61
474.93	9338.74
475.12	9289.59
475.30	9518.96
475.48	9617.26
475.66	9392.57
475.84	9415.98
476.02	9743.65
476.20	9774.08
476.38	10050.26
476.56	10045.58
476.74	9886.42
476.92	9762.37
477.10	9863.02
477.28	10160.27
477.46	10141.54
477.64	10457.51
477.82	10525.39
478.00	10611.99
478.18	10466.88
478.36	10485.60
478.54	10799.23
478.72	10750.08
478.90	10920.94
479.08	11103.50
479.26	11068.39
479.44	11152.65
479.62	11176.06
479.80	11335.21
479.98	11496.71
480.16	11396.07
480.34	11372.66
480.52	11435.86
480.70	11508.41
480.88	11648.85
481.06	11901.62
481.24	11772.89
481.41	11927.37
481.59	12168.45
481.77	12243.34
481.95	12332.28
482.13	12126.32
482.31	12126.32
482.49	12608.47
482.67	12397.82
482.85	12924.44
483.03	12746.56
483.21	12854.22
483.39	13036.78
483.57	12943.16
483.74	12968.91
483.92	13184.24
484.10	13107.00
484.28	13640.64
484.46	13664.05
484.64	13781.07
484.82	13502.55
485.00	13965.98
485.18	14256.20
485.35	14221.10
485.53	14279.61
485.71	14553.45
485.89	14672.82
486.07	14441.11
486.25	14511.32
486.43	14398.98
486.61	14452.81
486.78	14888.15
486.96	14920.92
487.14	15356.25
487.32	15122.20
487.50	15154.97
487.68	15669.89
487.85	15854.79
488.03	15960.11
488.21	15920.32
488.39	15852.45
488.57	16037.35
488.75	16067.78
488.92	16444.60
489.10	16435.24
489.28	16760.58
489.46	16950.16
489.64	16879.94
489.81	17125.70
489.99	16985.27
490.17	17036.76
490.35	17476.78
490.53	17537.63
490.70	17891.06
490.88	17425.29
491.06	17841.90
491.24	17752.96
491.41	18204.69
491.59	18052.55
491.77	17947.23
491.95	18405.97
492.13	18314.69
492.30	18244.48
492.48	18750.03
492.66	18710.24
492.84	18853.02
493.01	19000.47
493.19	18750.03
493.37	19168.99
493.54	19049.62
493.72	19768.16
493.90	19372.61
494.08	19386.66
494.25	19943.70
494.43	19803.27
494.61	20121.59
494.79	20470.33
494.96	19974.13
495.14	20283.08
495.32	20470.33
495.49	20428.20
495.67	20411.81
495.85	20814.38
496.02	20870.56
496.20	21128.02
496.38	20912.69
496.55	21254.40
496.73	21715.49
496.91	21289.51
497.09	21701.45
497.26	21474.42
497.44	21530.59
497.62	21867.63
497.79	22466.80
497.97	21937.84
498.14	22370.84
498.32	22288.92
498.50	22522.98
498.67	22319.35
498.85	22541.70
499.03	22717.24
499.20	22822.56
499.38	22658.73
499.56	23089.38
499.73	22991.08
499.91	23211.09
500.08	23117.47
500.26	23215.77
500.44	23335.14
500.61	23506.00
500.79	23578.56
500.97	23936.66
501.14	23864.10
501.32	23950.70
501.49	23548.13
501.67	23871.12
501.84	24037.30
502.02	24250.29
502.20	24027.94
502.37	24442.21
502.55	24201.14
502.72	24322.85
502.90	24788.61
503.07	24367.32
503.25	24283.06
503.43	24641.16
503.60	24531.15
503.78	24996.92
503.95	24823.72
504.13	25123.31
504.30	25165.44
504.48	25275.45
504.65	25408.86
504.83	25333.96
505.01	25539.93
505.18	25486.09
505.36	25834.83
505.53	25661.63
505.71	25860.58
505.88	26174.21
506.06	25799.73
506.23	26012.71
506.41	26085.27
506.58	26073.57
506.76	26162.51
506.93	26401.24
507.11	26354.43
507.28	26522.95
507.46	26625.93
507.63	26686.79
507.81	26995.74
507.98	26731.26
508.16	26927.86
508.33	27311.71
508.50	27054.25
508.68	27089.36
508.85	27407.67
509.03	27410.01
509.20	27733.01
509.38	27679.18
509.55	27721.30
509.73	27559.81
509.90	27756.41
510.08	27515.34
510.25	27803.22
510.42	27878.12
510.60	28189.41
510.77	28276.01
510.95	28638.80
511.12	28371.97
511.30	28170.69
511.47	28294.74
511.64	28231.54
511.82	28556.88
511.99	28343.89
512.17	28503.04
512.34	28739.44
512.51	28996.90
512.69	29041.37
512.86	29032.00
513.04	28933.70
513.21	29207.55
513.38	29212.23
513.56	29675.65
513.73	29167.76
513.90	29193.50
514.08	29720.12
514.25	29647.57
514.43	29839.49
514.60	29893.32
514.77	29612.46
514.95	29928.43
515.12	30136.74
515.29	30019.71
515.47	30490.16
515.64	30050.14
515.81	29926.09
515.99	30239.72
516.16	30588.46
516.33	30525.27
516.51	30642.29
516.68	30551.01
516.85	30546.33
517.03	30927.84
517.20	31005.08
517.37	31028.48
517.54	31079.97
517.72	31379.56
517.89	30904.43
518.06	31152.53
518.24	31281.26
518.41	30923.16
518.58	31356.16
518.75	31042.53
518.93	31510.63
519.10	31431.05
519.27	31913.20
519.45	31299.98
519.62	31967.04
519.79	31679.15
519.96	31459.14
520.14	31910.86
520.31	32149.60
520.48	32100.45
520.65	32023.21
520.83	32456.21
521.00	32233.86
521.17	32531.11
521.34	32275.99
521.52	32177.68
521.69	32133.21
521.86	32414.08
522.03	32538.13
522.20	32837.72
522.38	33212.20
522.55	32840.06
522.72	32868.14
522.89	32577.92
523.07	33057.73
523.24	33060.07
523.41	33317.53
523.58	33085.81
523.75	33303.48
523.92	33226.24
524.10	33408.81
524.27	33436.89
524.44	33570.30
524.61	33780.95
524.78	33729.46
524.96	33589.03
525.13	33991.60
525.30	34164.80
525.47	33769.25
525.64	33802.02
525.81	34300.55
525.98	34249.06
526.16	34356.72
526.33	33769.25
526.50	34157.78
526.67	34384.81
526.84	34455.03
527.01	34150.76
527.18	34473.75
527.36	34761.64
527.53	34888.03
527.70	35288.26
527.87	35070.59
528.04	34700.78
528.21	34806.11
528.38	34906.75
528.55	35325.71
528.72	34756.96
528.89	35402.94
529.07	35501.25
529.24	35213.36
529.41	35452.09
529.58	35290.60
529.75	35402.94
529.92	35531.67
530.09	35452.09
530.26	35721.26
530.43	35412.31
530.60	35510.61
530.77	35597.21
530.94	35931.90
531.11	35711.89
531.28	35866.37
531.46	36002.12
531.63	36194.04
531.80	35952.97
531.97	35786.79
532.14	36282.98
532.31	36486.61
532.48	36208.09
532.65	36444.48
532.82	36376.61
532.99	36507.68
533.16	36147.23
533.33	36568.53
533.50	36524.06
533.67	36486.61
533.84	36280.64
534.01	36498.31
534.18	36458.52
534.35	36816.63
534.52	36814.29
534.69	37081.11
534.86	37441.55
535.03	36659.81
535.20	37205.16
535.37	37188.77
535.54	37127.92
535.71	37310.48
535.88	37017.91
536.05	37275.37
536.22	37441.55
536.38	37476.66
536.55	37570.28
536.72	37350.27
536.89	37202.82
537.06	37654.54
537.23	37607.73
537.40	37308.14
537.57	37715.39
537.74	37699.01
537.91	37574.96
538.08	37708.37
538.25	37418.14
538.42	37684.97
538.59	37930.72
538.75	38384.79
538.92	38101.58
539.09	38307.55
539.26	38139.03
539.43	38312.23
539.60	38239.67
539.77	38110.94
539.94	38476.07
540.11	38675.01
540.28	38696.08
540.44	38494.79
540.61	38747.57
540.78	38270.10
540.95	38192.86
541.12	38497.13
541.29	38499.47
541.46	38728.84
541.62	38782.68
541.79	38724.16
541.96	38859.91
542.13	38616.50
542.30	38822.47
542.47	38630.54
542.63	38974.60
542.80	39438.03
542.97	39651.02
543.14	39917.84
543.31	39351.43
543.48	39330.36
543.64	39737.62
543.81	39845.28
543.98	39653.36
544.15	39484.84
544.32	39990.39
544.48	40067.63
544.65	39976.35
544.82	40217.43
544.99	39274.19
545.16	39732.93
545.32	39969.33
545.49	40130.83
545.66	40294.66
545.83	40364.88
546.00	40357.86
546.16	40201.04
546.33	40053.59
546.50	40048.91
546.67	40175.30
546.83	39882.73
547.00	40692.55
547.17	40594.25
547.34	40261.90
547.50	40355.52
547.67	40872.78
547.84	40486.59
548.00	40540.42
548.17	40985.12
548.34	40999.16
548.51	40921.93
548.67	40711.28
548.84	41191.09
549.01	40535.74
549.18	40692.55
549.34	40935.97
549.51	40938.31
549.68	41022.57
549.84	41298.75
550.01	41525.78
550.18	40863.41
550.34	41120.87
550.51	41118.53
550.68	41366.63
550.84	40699.58
551.01	41256.62
551.18	41579.62
551.34	41434.50
551.51	41544.51
551.68	41331.52
551.84	41287.05
552.01	41581.96
552.18	41581.96
552.34	41247.26
552.51	41668.56
552.68	41411.10
552.84	41654.51
553.01	41689.62
553.18	41574.94
553.34	41659.20
553.51	41216.83
553.67	41977.51
553.84	41984.53
554.01	42157.73
554.17	42108.58
554.34	42337.95
554.51	42176.45
554.67	42197.52
554.84	42120.28
555.00	42096.88
555.17	42326.25
555.33	42499.45
555.50	42068.79
555.67	42672.65
555.83	41991.55
556.00	42307.52
556.16	42665.63
556.33	41982.19
556.50	42340.29
556.66	42328.59
556.83	42426.89
556.99	42429.23
557.16	42478.38
557.32	42560.30
557.49	42623.50
557.65	42007.94
557.82	42340.29
557.98	42581.37
558.15	42342.63
558.32	42775.63
558.48	42710.10
558.65	42862.23
558.81	42829.46
558.98	43009.68
559.14	42766.27
559.31	42869.25
559.47	42909.04
559.64	43000.32
559.80	42646.90
559.97	42925.42
560.13	42958.19
560.30	43016.71
560.46	43285.87
560.63	43159.48
560.79	43344.38
560.96	43157.14
561.12	43505.88
561.29	43241.40
561.45	43407.58
561.61	43311.61
561.78	43168.84
561.94	43306.93
562.11	43512.90
562.27	43295.23
562.44	43634.61
562.60	43098.62
562.77	43456.73
562.93	42969.90
563.10	43737.59
563.26	43283.53
563.42	43618.22
563.59	43002.66
563.75	43236.72
563.92	43409.92
564.08	43452.05
564.24	43805.47
564.41	43639.29
564.57	43335.02
564.74	43620.56
564.90	43063.52
565.07	43569.07
565.23	43269.48
565.39	43873.34
565.56	43873.34
565.72	43531.62
565.88	43711.84
566.05	43770.36
566.21	43559.71
566.38	43796.10
566.54	43716.53
566.70	43875.68
566.87	43459.07
567.03	43494.18
567.19	43978.67
567.36	43531.62
567.52	44362.51
567.68	44065.27
567.85	43962.28
568.01	44254.85
568.17	43859.30
568.34	44020.80
568.50	44046.54
568.66	43620.56
568.83	44053.56
568.99	43356.08
569.15	44041.86
569.32	43796.10
569.48	43896.75
569.64	44158.89
569.81	44252.51
569.97	43959.94
570.13	44477.20
570.30	43590.14
570.46	44137.82
570.62	43997.39
570.78	43969.30
570.95	43983.35
571.11	44100.37
571.27	43983.35
571.43	43819.51
571.60	43899.09
571.76	44175.27
571.92	44423.37
572.09	44128.46
572.25	44367.20
572.41	44051.22
572.57	44381.24
572.74	44715.93
572.90	43948.24
573.06	44498.26
573.22	44444.43
573.38	44554.44
573.55	44273.57
573.71	45064.67
573.87	44610.61
574.03	44079.31
574.20	44535.71
574.36	44474.86
574.52	44802.53
574.68	44479.54
574.84	44697.21
575.01	44425.71
575.17	44467.84
575.33	44355.49
575.49	44634.02
575.65	44074.63
575.82	44758.06
575.98	44067.61
576.14	44591.89
576.30	44533.37
576.46	44877.43
576.62	44287.62
576.79	44402.30
576.95	44231.44
577.11	44002.07
577.27	44313.36
577.43	44648.06
577.59	44285.28
577.75	44683.17
577.92	44081.65
578.08	44631.68
578.24	44313.36
578.40	45067.02
578.56	44596.57
578.72	44285.28
578.88	44861.05
579.04	44315.70
579.21	44575.50
579.37	44561.46
579.53	44776.79
579.69	44619.97
579.85	44648.06
580.01	44685.51
580.17	44563.80
580.33	44652.74
580.49	45095.10
580.65	45085.74
580.82	44552.10
580.98	44238.47
581.14	44385.92
581.30	44486.56
581.46	44507.63
581.62	44711.25
581.78	44762.75
581.94	45001.48
582.10	44795.51
582.26	44348.47
582.42	44942.97
582.58	45134.89
582.74	44982.76
582.90	44542.74
583.06	45132.55
583.22	44659.76
583.38	44755.72
583.54	44818.92
583.70	44954.67
583.86	44643.38
584.02	44729.98
584.18	45160.64
584.34	44814.24
584.50	44671.46
584.66	45284.68
584.82	45106.80
584.98	45242.56
585.14	44678.49
585.30	44765.09
585.46	44996.80
585.62	44631.68
585.78	44676.15
585.94	44821.26
586.10	44622.31
586.26	44683.17
586.42	44687.85
586.58	44676.15
586.74	44601.25
586.90	44486.56
587.06	44847.00
587.22	45303.41
587.38	44699.55
587.54	45022.54
587.70	45188.72
587.86	44875.09
588.02	44720.62
588.18	45469.59
588.34	44868.07
588.49	45174.68
588.65	44858.71
588.81	44748.70
588.97	45064.67
589.13	45106.80
589.29	45090.42
589.45	45769.18
589.61	45289.37
589.77	45198.09
589.93	44807.22
590.08	45081.06
590.24	45191.06
590.40	45235.53
590.56	45420.44
590.72	45394.69
590.88	44999.14
591.04	45490.65
591.20	45263.62
591.35	45226.17
591.51	45144.25
591.67	45677.90
591.83	45628.74
591.99	45443.84
592.15	45170.00
592.31	45174.68
592.46	45099.78
592.62	45069.36
592.78	45392.35
592.94	45783.22
593.10	45598.32
593.26	45806.62
593.41	45581.93
593.57	45591.30
593.73	45514.06
593.89	45801.94
594.05	45703.64
594.20	45605.34
594.36	45366.60
594.52	45535.12
594.68	45757.47
594.84	45315.11
594.99	45750.45
595.15	45303.41
595.31	45907.27
595.47	45748.11
595.62	45483.63
595.78	45373.63
595.94	45312.77
596.10	45401.71
596.25	46075.79
596.41	45933.01
596.57	45542.14
596.73	46064.08
596.88	45338.52
597.04	45635.77
597.20	45865.14
597.36	45502.35
597.51	45928.33
597.67	45832.37
597.83	45282.34
597.99	45577.25
598.14	45317.45
598.30	45544.48
598.46	45617.04
598.61	45907.27
598.77	45647.47
598.93	46160.05
599.09	45766.84
599.24	46291.12
599.40	45591.30
599.56	46019.61
599.71	45954.08
599.87	46518.15
600.03	46101.53
600.18	46031.32
600.34	45916.63
600.50	45750.45
600.65	45635.77
600.81	46155.36
600.97	46089.83
601.12	45799.60
601.28	45986.85
601.44	45930.67
601.59	45652.15
601.75	45858.12
601.91	46178.77
602.06	45961.10
602.22	45783.22
602.37	45881.52
602.53	45923.65
602.69	45834.71
602.84	45357.24
603.00	45855.78
603.16	45972.80
603.31	45815.99
603.47	46057.06
603.62	45916.63
603.78	46174.09
603.94	45766.84
604.09	45696.62
604.25	45586.61
604.40	45610.02
604.56	46213.88
604.71	46153.02
604.87	45631.08
605.03	45359.58
605.18	45570.23
605.34	45942.38
605.49	45492.99
605.65	45502.35
605.80	45148.93
605.96	45457.88
606.12	45869.82
606.27	45813.65
606.43	45113.83
606.58	45834.71
606.74	45446.18
606.89	45677.90
607.05	45937.69
607.20	45818.33
607.36	45500.01
607.51	45633.42
607.67	45331.50
607.82	45642.79
607.98	45478.95
608.13	45778.54
608.29	45738.75
608.44	45235.53
608.60	44865.73
608.75	45794.92
608.91	45497.67
609.06	45226.17
609.22	45708.32
609.37	45146.59
609.53	45640.45
609.68	45401.71
609.84	45209.79
609.99	45605.34
610.15	44996.80
610.30	45462.57
610.46	45462.57
610.61	45563.21
610.76	45656.83
610.92	45181.70
611.07	45155.96
611.23	45256.60
611.38	45469.59
611.54	45640.45
611.69	45528.10
611.84	45546.82
612.00	45125.53
612.15	45364.26
612.31	45347.88
612.46	45155.96
612.62	45078.72
612.77	45343.20
612.92	45504.70
613.08	45270.64
613.23	44980.42
613.39	45158.30
613.54	45202.77
613.69	45055.31
613.85	44828.28
614.00	45308.09
614.15	44566.14
614.31	45155.96
614.46	45041.27
614.62	44996.80
614.77	44713.59
614.92	44973.39
615.08	45092.76
615.23	45055.31
615.38	45401.71
615.54	45481.29
615.69	45226.17
615.84	44795.51
616.00	45132.55
616.15	45036.59
616.30	44734.66
616.46	44643.38
616.61	44954.67
616.76	45024.89
616.92	44519.33
617.07	44744.02
617.22	44638.70
617.37	44552.10
617.53	44868.07
617.68	44921.90
617.83	44425.71
617.99	45296.39
618.14	44795.51
618.29	44453.79
618.45	44439.75
618.60	44109.74
618.75	44205.70
618.90	44266.55
619.06	44119.10
619.21	44713.59
619.36	44790.83
619.51	44390.60
619.67	44208.04
619.82	44706.57
619.97	44655.08
620.12	44505.29
620.28	44261.87
620.43	44978.07
620.58	44421.03
620.73	44437.41
620.89	44135.48
621.04	44591.89
621.19	44306.34
621.34	44428.05
621.49	44095.69
621.65	43950.58
621.80	44538.05
621.95	44339.11
622.10	44626.99
622.25	44446.77
622.41	44095.69
622.56	44191.65
622.71	44009.09
622.86	43995.05
623.01	44189.31
623.16	44383.58
623.32	44315.70
623.47	43915.47
623.62	43686.10
623.77	43772.70
623.92	44289.96
624.07	43962.28
624.23	44161.23
624.38	44282.94
624.53	43882.70
624.68	43660.35
624.83	43793.76
624.98	43606.52
625.13	43571.41
625.29	43306.93
625.44	43585.46
625.59	43386.51
625.74	43536.30
625.89	43409.92
626.04	43540.99
626.19	43409.92
626.34	43519.92
626.49	43393.53
626.65	43246.08
626.80	43681.42
626.95	43379.49
627.10	43077.56
627.25	43653.33
627.40	43335.02
627.55	43274.16
627.70	43667.37
627.85	43438.00
628.00	43257.78
628.15	43210.97
628.30	42663.28
628.45	42981.60
628.60	43140.75
628.76	43084.58
628.91	43227.35
629.06	43040.11
629.21	42370.72
629.36	43075.22
629.51	42906.70
629.66	43161.82
629.81	42789.67
629.96	43063.52
630.11	42838.83
630.26	42658.60
630.41	43545.67
630.56	42698.39
630.71	42728.82
630.86	42597.75
631.01	42515.83
631.16	42609.45
631.31	42724.14
631.46	42499.45
631.61	42604.77
631.76	42614.13
631.91	42831.80
632.06	43189.91
632.21	42703.07
632.36	42794.36
632.51	42391.78
632.66	42593.07
632.81	42469.02
632.96	42862.23
633.10	42541.58
633.25	42639.88
633.40	42745.20
633.55	42614.13
633.70	42473.70
633.85	42302.84
634.00	42000.91
634.15	42103.90
634.30	42698.39
634.45	41593.66
634.60	42253.69
634.75	42328.59
634.90	42307.52
635.05	42012.62
635.19	41979.85
635.34	42206.88
635.49	41954.10
635.64	42148.37
635.79	42443.27
635.94	41895.59
636.09	42380.08
636.24	41764.52
636.39	42043.04
636.53	42139.00
636.68	41427.48
636.83	41972.83
636.98	41415.78
637.13	41188.75
637.28	41574.94
637.43	41766.86
637.57	41911.97
637.72	41940.06
637.87	41406.42
638.02	41862.82
638.17	41144.28
638.32	41528.13
638.46	42148.37
638.61	41343.22
638.76	41200.45
638.91	41448.55
639.06	41434.50
639.20	41008.53
639.35	40978.10
639.50	41230.88
639.65	41326.84
639.80	41628.77
639.94	41640.47
640.09	41104.49
640.24	41198.11
640.39	41179.39
640.54	41010.87
640.68	41230.88
640.83	41450.89
640.98	41109.17
641.13	41163.00
641.27	41071.72
641.42	41003.85
641.57	41411.10
641.72	41226.20
641.86	40680.85
642.01	40863.41
642.16	41106.83
642.31	40832.99
642.45	41139.60
642.60	40664.47
642.75	40631.70
642.90	41097.47
643.04	40687.87
643.19	40694.89
643.34	40568.51
643.48	40198.70
643.63	40444.46
643.78	40802.56
643.93	41062.36
644.07	40893.84
644.22	40680.85
644.37	40708.94
644.51	40105.08
644.66	40458.50
644.81	39941.24
644.95	40559.14
645.10	40734.68
645.25	40477.22
645.39	40093.38
645.54	40287.64
645.69	40285.30
645.83	40301.68
645.98	40325.09
646.13	40084.01
646.27	39964.65
646.42	40189.34
646.57	40011.46
646.71	40617.66
646.86	40641.06
647.00	40636.38
647.15	40133.17
647.30	40196.36
647.44	40107.42
647.59	39943.58
647.74	40172.96
647.88	40093.38
648.03	39903.79
648.17	40507.65
648.32	40240.83
648.47	40222.11
648.61	39754.00
648.76	39749.32
648.90	39768.04
649.05	39744.64
649.20	39948.26
649.34	40016.14
649.49	39908.47
649.63	39737.62
649.78	39756.34
649.92	39655.70
650.07	40224.45
650.21	40392.97
650.36	39810.17
650.51	39580.80
650.65	40067.63
650.80	39964.65
650.94	39896.77
651.09	39674.42
651.23	39438.03
651.38	39695.49
651.52	39374.83
651.67	39625.27
651.81	39674.42
651.96	39548.03
652.10	39126.74
652.25	39313.98
652.39	39264.83
652.54	39634.63
652.68	39330.36
652.83	39559.73
652.97	39477.82
653.12	39253.12
653.26	39054.18
653.41	39316.32
653.55	39058.86
653.70	39335.04
653.84	39056.52
653.99	39328.02
654.13	39510.58
654.27	39178.23
654.42	39173.55
654.56	39000.35
654.71	39339.72
654.85	38733.53
655.00	39225.04
655.14	39145.46
655.29	39173.55
655.43	39580.80
655.57	38651.61
655.72	38714.80
655.86	38859.91
656.01	38684.37
656.15	38443.30
656.30	38803.74
656.44	39122.05
656.58	38948.85
656.73	38590.75
656.87	38115.62
657.01	37991.58
657.16	39070.56
657.30	38429.26
657.45	38473.73
657.59	38169.46
657.73	38667.99
657.88	38307.55
658.02	38377.76
658.16	38665.65
658.31	38314.57
658.45	38438.62
658.60	37954.13
658.74	38199.88
658.88	38646.93
659.03	37900.29
659.17	37909.66
659.31	37830.08
659.46	38150.73
659.60	38043.07
659.74	37766.88
659.89	37542.19
660.03	37668.58
660.17	37397.08
660.32	37619.43
660.46	37757.52
660.60	37151.32
660.74	37474.32
660.89	37352.61
661.03	37446.23
661.17	36903.23
661.32	36751.09
661.46	37654.54
661.60	37184.09
661.74	37446.23
661.89	37275.37
662.03	37308.14
662.17	36921.95
662.31	37214.52
662.46	36868.12
662.60	36727.69
662.74	36868.12
662.88	36514.70
663.03	36730.03
663.17	36563.85
663.31	36648.11
663.45	36561.51
663.60	37251.97
663.74	36535.76
663.88	36671.51
664.02	36610.66
664.17	36685.56
664.31	36308.73
664.45	36135.53
664.59	36320.43
664.73	36184.68
664.88	36383.63
665.02	35831.26
665.16	36161.28
665.30	36257.24
665.44	35732.96
665.59	35632.32
665.73	35985.74
665.87	35433.37
666.01	35943.61
666.15	35896.80
666.29	35356.13
666.44	35915.52
666.58	36215.11
666.72	35409.96
666.86	35019.10
667.00	35409.96
667.14	35002.71
667.28	35218.04
667.43	35110.38
667.57	35271.87
667.71	34976.97
667.85	35180.59
667.99	35222.72
668.13	35386.56
668.27	34871.64
668.41	35159.53
668.56	34501.84
668.70	34731.21
668.84	34218.63
668.98	34209.27
669.12	34600.14
669.26	34284.17
669.40	34387.15
669.54	34696.10
669.68	34483.11
669.82	34309.91
669.96	34022.03
670.10	33188.80
670.25	33802.02
670.39	33783.29
670.53	34089.90
670.67	33802.02
670.81	33937.77
670.95	34022.03
671.09	34010.32
671.23	33411.15
671.37	33237.95
671.51	33181.77
671.65	33357.32
671.79	33418.17
671.93	34005.64
672.07	33422.85
672.21	33233.27
672.35	33111.56
672.49	33090.49
672.63	32652.81
672.77	32870.48
672.91	32851.76
673.05	32706.65
673.19	32121.51
673.33	32432.80
673.47	32460.89
673.61	32362.59
673.75	32247.90
673.89	31899.16
674.03	31723.62
674.17	31653.40
674.31	31842.99
674.45	31644.04
674.59	32102.79
674.73	31529.36
674.87	31185.30
675.01	31433.39
675.15	31440.42
675.29	31356.16
675.43	31576.17
675.56	31150.19
675.70	31447.44
675.84	31405.31
675.98	30394.20
676.12	30962.95
676.26	31358.50
676.40	31028.48
676.54	30792.09
676.68	30485.48
676.82	30354.41
676.96	30473.78
677.10	30515.90
677.23	30349.73
677.37	30429.30
677.51	30342.70
677.65	30197.59
677.79	29780.98
677.93	29923.75
678.07	29834.81
678.21	29806.72
678.34	29420.53
678.48	29603.10
678.62	29340.96
678.76	29638.20
678.90	29181.80
679.04	29282.44
679.18	29041.37
679.31	29050.73
679.45	28879.87
679.59	28842.42
679.73	28690.29
679.87	28517.09
680.00	28746.46
680.14	28655.18
680.28	28411.76
680.42	28088.77
680.56	28379.00
680.70	28009.19
680.83	27910.89
680.97	27962.38
681.11	27920.25
681.25	27601.94
681.39	27688.54
681.52	27370.22
681.66	27358.52
681.80	27061.27
681.94	27026.17
682.07	26881.05
682.21	27098.72
682.35	26862.33
682.49	26555.72
682.62	26600.19
682.76	27005.10
682.90	26824.88
683.04	26920.84
683.17	26574.44
683.31	26164.85
683.45	26302.94
683.59	26167.19
683.72	25614.82
683.86	25727.17
684.00	25883.98
684.13	26061.87
684.27	25476.73
684.41	25741.21
684.55	25537.59
684.68	25415.88
684.82	25324.60
684.96	25333.96
685.09	24954.79
685.23	25181.82
685.37	25188.85
685.50	25577.37
685.64	25235.66
685.78	25198.21
685.91	24425.83
686.05	24493.71
686.19	24381.36
686.32	24271.36
686.46	24243.27
686.60	24095.82
686.73	24130.92
686.87	23840.70
687.01	24269.01
687.14	24100.50
687.28	23707.29
687.42	23536.43
687.55	23716.65
687.69	23597.28
687.82	23215.77
687.96	23381.95
688.10	23590.26
688.23	23590.26
688.37	23054.28
688.50	23194.71
688.64	22771.07
688.78	23147.90
688.91	22836.61
689.05	22780.43
689.18	22466.80
689.32	22087.64
689.46	22253.81
689.59	22328.71
689.73	22782.77
689.86	22684.47
690.00	22380.20
690.13	22256.15
690.27	22104.02
690.41	22207.00
690.54	21563.36
690.68	21748.26
690.81	21441.65
690.95	21315.26
691.08	21273.13
691.22	21312.92
691.35	21020.35
691.49	21249.72
691.62	21333.98
691.76	20711.40
691.89	20900.98
692.03	20608.42
692.16	20517.14
692.30	20533.52
692.43	20252.66
692.57	20128.61
692.70	20187.12
692.84	20046.69
692.97	19946.05
693.11	20044.35
693.24	19777.53
693.38	19674.54
693.51	19995.20
693.65	19606.67
693.78	19522.41
693.92	19447.51
694.05	19374.95
694.19	19260.27
694.32	19634.75
694.45	19632.41
694.59	19470.92
694.72	19424.11
694.86	18965.36
694.99	18897.49
695.13	18656.41
695.26	18527.68
695.39	18373.21
695.53	18448.10
695.66	18450.44
695.80	18235.11
695.93	18253.84
696.07	18265.54
696.20	17724.88
696.33	17874.67
696.47	17469.76
696.60	17862.97
696.73	17841.90
696.87	17715.51
697.00	17977.65
697.14	17642.96
697.27	17532.95
697.40	17451.03
697.54	17275.49
697.67	17355.07
697.80	17181.87
697.94	17207.62
698.07	16943.14
698.21	16629.51
698.34	16922.07
698.47	16751.21
698.61	16184.80
698.74	16620.14
698.87	16343.96
699.01	16278.43
699.14	16444.60
699.27	16283.11
699.40	16042.03
699.54	15992.88
699.67	16086.50
699.80	16081.82
699.94	15885.22
700.07	15765.85
700.20	15854.79
700.34	15768.19
700.47	15545.84
700.60	15798.62
700.73	15917.98
700.87	15545.84
701.00	15454.56
701.13	15138.58
701.26	15066.03
701.40	15012.20
701.53	14965.39
701.66	15080.07
701.79	14829.63
701.93	14745.38
702.06	14588.56
702.19	14485.58
702.32	14679.84
702.46	14574.52
702.59	14621.33
702.72	14562.81
702.85	14773.46
702.99	14106.41
703.12	14017.47
703.25	14125.13
703.38	14008.11
703.51	14001.08
703.65	13933.21
703.78	13701.50
703.91	13645.32
704.04	13973.00
704.17	13610.22
704.31	13652.34
704.44	13535.32
704.57	13462.76
704.70	13282.54
704.83	13238.07
704.96	13067.21
705.10	12901.03
705.23	13153.81
>>>>>End Processed Spectral Data<<<<<
