SpectraSuite Data File
++++++++++++++++++++++++++++++++++++
Date: Fri Oct 25 10:43:51 EDT 2013
User: price-jones
Dark Spectrum Present: No
Reference Spectrum Present: No
Number of Sampled Component Spectra: 1
Spectrometers: USB2+H05261
Integration Time (usec): 100000 (USB2+H05261)
Spectra Averaged: 1 (USB2+H05261)
Boxcar Smoothing: 0 (USB2+H05261)
Correct for Electrical Dark: No (USB2+H05261)
Strobe/Lamp Enabled: No (USB2+H05261)
Correct for Detector Non-linearity: No (USB2+H05261)
Correct for Stray Light: No (USB2+H05261)
Number of Pixels in Processed Spectrum: 2048
>>>>>Begin Processed Spectral Data<<<<<
365.73	124.05
365.92	124.05
366.12	124.05
366.32	114.69
366.52	46.81
366.72	46.81
366.91	0.00
367.11	32.77
367.31	0.00
367.51	23.41
367.70	0.00
367.90	65.54
368.10	23.41
368.30	65.54
368.49	0.00
368.69	121.71
368.89	0.00
369.09	9.36
369.28	16.38
369.48	14.04
369.68	53.83
369.87	30.43
370.07	135.75
370.27	84.26
370.47	173.20
370.66	358.10
370.86	411.93
371.06	510.24
371.25	498.53
371.45	458.74
371.65	454.06
371.84	456.40
372.04	416.62
372.24	468.11
372.44	440.02
372.63	479.81
372.83	465.77
373.03	451.72
373.22	578.11
373.42	507.90
373.62	519.60
373.81	519.60
374.01	493.85
374.21	557.05
374.40	526.62
374.60	568.75
374.79	624.92
374.99	622.58
375.19	660.03
375.38	524.28
375.58	554.71
375.78	585.13
375.97	533.64
376.17	580.45
376.37	645.99
376.56	610.88
376.76	631.94
376.95	571.09
377.15	692.80
377.35	657.69
377.54	683.44
377.74	638.97
377.93	582.79
378.13	643.65
378.33	660.03
378.52	641.31
378.72	655.35
378.91	606.20
379.11	660.03
379.31	599.18
379.50	671.73
379.70	734.93
379.89	706.84
380.09	678.76
380.28	706.84
380.48	681.10
380.68	676.41
380.87	730.25
381.07	718.54
381.26	751.31
381.46	734.93
381.65	641.31
381.85	713.86
382.04	725.57
382.24	744.29
382.43	718.54
382.63	702.16
382.83	723.23
383.02	760.67
383.22	716.20
383.41	755.99
383.61	688.12
383.80	727.91
384.00	802.80
384.19	812.17
384.39	760.67
384.58	781.74
384.78	730.25
384.97	828.55
385.17	835.57
385.36	816.85
385.56	779.40
385.75	805.14
385.95	847.27
386.14	866.00
386.34	814.51
386.53	767.70
386.72	758.33
386.92	847.27
387.11	835.57
387.31	873.02
387.50	814.51
387.70	922.17
387.89	891.74
388.09	884.72
388.28	910.47
388.48	954.94
388.67	983.02
388.86	964.30
389.06	851.96
389.25	966.64
389.45	983.02
389.64	966.64
389.84	961.96
390.03	957.28
390.22	1064.94
390.42	1069.62
390.61	908.13
390.81	994.73
391.00	964.30
391.19	1050.90
391.39	1008.77
391.58	1121.12
391.78	997.07
391.97	1043.88
392.16	1013.45
392.36	1053.24
392.55	1083.67
392.75	1032.18
392.94	1039.20
393.13	997.07
393.33	978.34
393.52	1041.54
393.71	1048.56
393.91	1146.86
394.10	1160.91
394.29	1165.59
394.49	1128.14
394.68	1266.23
394.88	1226.44
395.07	1205.38
395.26	1203.04
395.46	1142.18
395.65	1266.23
395.84	1196.01
396.04	1284.95
396.23	1177.29
396.42	1151.54
396.62	1228.78
396.81	1170.27
397.00	1188.99
397.19	1231.12
397.39	1369.21
397.58	1425.39
397.77	1317.72
397.97	1425.39
398.16	1394.96
398.35	1479.22
398.55	1420.71
398.74	1500.28
398.93	1533.05
399.12	1575.18
399.32	1511.99
399.51	1591.56
399.70	1652.42
399.90	1575.18
400.09	1624.33
400.28	1706.25
400.47	1689.87
400.67	1769.44
400.86	1753.06
401.05	1638.38
401.24	1610.29
401.44	1722.63
401.63	1689.87
401.82	1746.04
402.01	1776.47
402.21	1806.89
402.40	1797.53
402.59	1753.06
402.78	1741.36
402.97	1743.70
403.17	1771.79
403.36	1820.94
403.55	1947.33
403.74	1706.25
403.93	1802.21
404.13	1916.90
404.32	1870.09
404.51	1893.49
404.70	1935.62
404.89	1914.56
405.09	2054.99
405.28	1923.92
405.47	1994.14
405.66	2017.54
405.85	1977.75
406.05	2054.99
406.24	2113.50
406.43	2057.33
406.62	2092.44
406.81	2064.35
407.00	2052.65
407.20	2087.76
407.39	2146.27
407.58	2162.66
407.77	2211.81
407.96	2202.44
408.15	2244.57
408.34	2136.91
408.54	2368.62
408.73	2267.98
408.92	2172.02
409.11	2406.07
409.30	2286.70
409.49	2246.91
409.68	2270.32
409.87	2275.00
410.07	2303.09
410.26	2340.54
410.45	2464.58
410.64	2525.44
410.83	2471.61
411.02	2499.69
411.21	2595.65
411.40	2607.36
411.59	2651.83
411.78	2635.44
411.98	2647.15
412.17	2712.68
412.36	2743.11
412.55	2724.38
412.74	2745.45
412.93	2731.41
413.12	2710.34
413.31	2743.11
413.50	2855.45
413.69	2932.69
413.88	2920.99
414.07	2916.31
414.26	2977.16
414.45	2848.43
414.64	3148.02
414.83	3038.02
415.02	3105.89
415.22	3119.93
415.41	3220.58
415.60	3162.06
415.79	3047.38
415.98	3258.03
416.17	3349.31
416.36	3243.98
416.55	3190.15
416.74	3314.20
416.93	3382.07
417.12	3279.09
417.31	3358.67
417.50	3400.80
417.69	3421.86
417.88	3363.35
418.07	3461.65
418.26	3489.74
418.45	3468.67
418.64	3583.36
418.83	3574.00
419.02	3632.51
419.21	3627.83
419.39	3665.28
419.58	3684.00
419.77	3529.53
419.96	3775.28
420.15	3627.83
420.34	3674.64
420.53	3763.58
420.72	3847.84
420.91	3866.56
421.10	3868.91
421.29	3882.95
421.48	3777.62
421.67	3885.29
421.86	3861.88
422.05	3810.39
422.24	3777.62
422.43	3768.26
422.61	3873.59
422.80	3971.89
422.99	3999.98
423.18	3868.91
423.37	4109.98
423.56	3925.08
423.75	3906.35
423.94	3913.38
424.13	3779.97
424.32	3730.81
424.50	4056.15
424.69	4021.04
424.88	4044.45
425.07	3927.42
425.26	4070.19
425.45	3922.74
425.64	3882.95
425.83	3992.95
426.01	4058.49
426.20	4046.79
426.39	4046.79
426.58	3864.22
426.77	4009.34
426.96	4072.53
427.15	3941.46
427.33	4091.26
427.52	3915.72
427.71	4007.00
427.90	4227.01
428.09	4140.41
428.28	4175.52
428.46	3981.25
428.65	4161.47
428.84	4269.14
429.03	4315.95
429.22	4180.20
429.40	4140.41
429.59	4163.81
429.78	3749.54
429.97	3875.93
430.16	3953.16
430.34	3969.55
430.53	4334.67
430.72	4222.33
430.91	4255.09
431.10	4409.57
431.28	4540.64
431.47	4456.38
431.66	4760.65
431.85	4638.94
432.03	4535.96
432.22	4748.95
432.41	4737.24
432.60	4751.29
432.79	4795.76
432.97	4709.16
433.16	4748.95
433.35	4681.07
433.54	4732.56
433.72	4734.90
433.91	4608.51
434.10	4739.58
434.28	4781.71
434.47	4945.55
434.66	4926.83
434.85	4966.62
435.03	4910.44
435.22	4849.59
435.41	5254.50
435.59	5109.39
435.78	5212.37
435.97	5163.22
436.16	5132.79
436.34	5322.38
436.53	5158.54
436.72	5268.55
436.90	5156.20
437.09	5254.50
437.28	5046.20
437.46	5203.01
437.65	5174.92
437.84	5191.31
438.02	5291.95
438.21	5212.37
438.40	5268.55
438.58	5107.05
438.77	5406.64
438.96	5500.26
439.14	5460.47
439.33	5565.79
439.52	5621.97
439.70	5813.89
439.89	5731.97
440.08	5717.93
440.26	5760.06
440.45	5856.02
440.63	5956.66
440.82	5977.73
441.01	5884.11
441.19	5916.87
441.38	6340.51
441.57	6293.70
441.75	6239.87
441.94	6399.02
442.12	6396.68
442.31	6544.14
442.50	6590.95
442.68	6335.83
442.87	6392.00
443.05	6340.51
443.24	6612.01
443.43	6399.02
443.61	6595.63
443.80	6654.14
443.98	6445.84
444.17	6244.55
444.35	6628.40
444.54	6782.87
444.73	6691.59
444.91	6544.14
445.10	6551.16
445.28	6438.81
445.47	6494.99
445.65	6431.79
445.84	6602.65
446.02	6586.27
446.21	6684.57
446.39	6703.29
446.58	6679.89
446.77	6810.96
446.95	6754.79
447.14	6548.82
447.32	6806.28
447.51	6743.08
447.69	6614.35
447.88	6527.75
448.06	6874.15
448.25	6778.19
448.43	6656.48
448.62	6850.75
448.80	6726.70
448.99	6871.81
449.17	6864.79
449.36	6867.13
449.54	7138.63
449.73	7129.27
449.91	6991.18
450.10	7063.74
450.28	7243.96
450.46	7185.44
450.65	7302.47
450.83	7283.75
451.02	7236.94
451.20	7335.24
451.39	7288.43
451.57	7281.41
451.76	7258.00
451.94	7218.21
452.13	7229.91
452.31	7330.56
452.49	7403.11
452.68	7339.92
452.86	7276.73
453.05	7438.22
453.23	7522.48
453.42	7243.96
453.60	7258.00
453.78	7552.91
453.97	7396.09
454.15	7328.22
454.34	7449.93
454.52	7660.57
454.70	7499.08
454.89	7672.28
455.07	7632.49
455.26	7744.83
455.44	7707.38
455.62	7985.91
455.81	8088.89
455.99	7772.92
456.17	7885.26
456.36	7943.78
456.54	7857.18
456.73	7939.10
456.91	8145.06
457.09	8276.13
457.28	8374.44
457.46	8189.53
457.64	8280.82
457.83	8280.82
458.01	8177.83
458.19	8215.28
458.38	8205.92
458.56	8250.39
458.74	8304.22
458.93	8311.24
459.11	8430.61
459.29	8339.33
459.48	8409.54
459.66	8379.12
459.84	8416.57
460.03	8479.76
460.21	8531.25
460.39	8470.40
460.57	8442.31
460.76	8571.04
460.94	8720.84
461.12	8561.68
461.31	8865.95
461.49	8826.16
461.67	8585.08
461.85	8940.85
462.04	8655.30
462.22	9097.66
462.40	9092.98
462.59	8760.63
462.77	8987.66
462.95	8999.36
463.13	8978.30
463.32	9039.15
463.50	8966.59
463.68	9062.55
463.86	9142.13
464.05	9055.53
464.23	8994.68
464.41	8964.25
464.59	8840.20
464.78	9352.78
464.96	9207.67
465.14	9160.86
465.32	9252.14
465.50	9460.45
465.69	9547.05
465.87	9350.44
466.05	9263.84
466.23	9334.06
466.41	9291.93
466.60	9479.17
466.78	9233.41
466.96	9303.63
467.14	9266.18
467.32	9053.19
467.51	9352.78
467.69	9153.84
467.87	9509.60
468.05	9425.34
468.23	9657.05
468.41	9645.35
468.60	9621.94
468.78	9619.60
468.96	9518.96
469.14	9916.85
469.32	9881.74
469.50	9430.02
469.69	9659.39
469.87	9731.95
470.05	9989.41
470.23	9851.31
470.41	9860.68
470.59	10064.30
470.77	9853.66
470.95	10139.20
471.14	10232.82
471.32	10045.58
471.50	10321.76
471.68	10424.75
471.86	10363.89
472.04	10176.65
472.22	10298.36
472.40	10230.48
472.58	10504.32
472.77	10534.75
472.95	10560.50
473.13	10864.77
473.31	10593.26
473.49	10497.30
473.67	10633.05
473.85	10834.34
474.03	11082.44
474.21	11061.37
474.39	11136.27
474.57	11281.38
474.75	11234.57
474.93	11054.35
475.12	11117.54
475.30	11192.44
475.48	11211.17
475.66	11566.93
475.84	11379.68
476.02	11644.17
476.20	11339.90
476.38	11829.07
476.56	12102.91
476.74	11927.37
476.92	11896.94
477.10	11929.71
477.28	12208.23
477.46	12063.12
477.64	12175.47
477.82	12414.20
478.00	12437.61
478.18	12482.08
478.36	12507.82
478.54	12587.40
478.72	12751.24
478.90	13139.77
479.08	13092.96
479.26	13298.92
479.44	13324.67
479.62	13490.85
479.80	13465.10
479.98	13530.64
480.16	13743.63
480.34	14038.53
480.52	13968.32
480.70	13926.19
480.88	13696.82
481.06	13830.23
481.24	14052.58
481.41	14436.42
481.59	14663.46
481.77	14597.92
481.95	14452.81
482.13	14628.35
482.31	14443.45
482.49	14995.81
482.67	14979.43
482.85	15007.52
483.03	15213.48
483.21	15536.48
483.39	15501.37
483.57	15323.49
483.74	15658.18
483.92	15679.25
484.10	15515.41
484.28	15946.07
484.46	16025.65
484.64	16671.64
484.82	16255.02
485.00	16159.06
485.18	16678.66
485.35	16439.92
485.53	16362.69
485.71	16500.78
485.89	16563.97
486.07	16570.99
486.25	16718.45
486.43	17102.29
486.61	17387.84
486.78	17392.52
486.96	17336.35
487.14	18017.44
487.32	17708.49
487.50	17998.72
487.68	18001.06
487.85	18604.92
488.03	18731.31
488.21	18897.49
488.39	18546.40
488.57	18845.99
488.75	18883.44
488.92	19227.50
489.10	19510.71
489.28	19578.58
489.46	19927.32
489.64	19838.38
489.81	20023.28
489.99	20196.48
490.17	20266.70
490.35	20390.75
490.53	20659.91
490.70	20706.72
490.88	20891.62
491.06	20870.56
491.24	20999.29
491.41	20790.98
491.59	20943.11
491.77	20954.82
491.95	21266.11
492.13	21544.63
492.30	21699.11
492.48	21844.22
492.66	21865.28
492.84	21738.90
493.01	22073.59
493.19	22209.34
493.37	22195.30
493.54	22427.01
493.72	22560.42
493.90	22932.57
494.08	23314.08
494.25	23002.78
494.43	23257.90
494.61	23796.23
494.79	23597.28
494.96	23545.79
495.14	23660.48
495.32	23782.18
495.49	23850.06
495.67	23866.44
495.85	24053.69
496.02	24744.14
496.20	24479.66
496.38	24542.86
496.55	24432.85
496.73	25254.38
496.91	24812.02
497.09	24973.52
497.26	25039.05
497.44	24959.47
497.62	25280.13
497.79	25434.60
497.97	25207.57
498.14	25738.87
498.32	25858.24
498.50	26122.72
498.67	26246.77
498.85	26377.84
499.03	25930.80
499.20	26480.82
499.38	26431.67
499.56	26274.85
499.73	26560.40
499.91	26541.68
500.08	26768.71
500.26	26742.96
500.44	26794.45
500.61	26925.52
500.79	26883.39
500.97	27222.77
501.14	27370.22
501.32	27381.93
501.49	27229.79
501.67	27548.11
501.84	27278.94
502.02	27559.81
502.20	27962.38
502.37	27915.57
502.55	28175.37
502.72	27920.25
502.90	28018.55
503.07	28121.54
503.25	28196.43
503.43	27754.07
503.60	28519.43
503.78	28226.86
503.95	28453.89
504.13	28528.79
504.30	28849.44
504.48	29142.01
504.65	28882.21
504.83	29479.05
505.01	29439.26
505.18	29221.59
505.36	29392.45
505.53	29750.55
505.71	29762.25
505.88	30000.99
506.06	29783.32
506.23	29652.25
506.41	29797.36
506.58	30068.86
506.76	30089.93
506.93	30022.05
507.11	30202.27
507.28	30122.69
507.46	30232.70
507.63	30265.47
507.81	30513.56
507.98	30305.26
508.16	30740.60
508.33	31075.29
508.50	31049.55
508.68	30958.27
508.85	31115.08
509.03	31452.12
509.20	31267.22
509.38	31381.90
509.55	31412.33
509.73	31122.10
509.90	31826.60
510.08	31587.87
510.25	31491.91
510.42	31747.03
510.60	31754.05
510.77	32032.57
510.95	31964.70
511.12	32006.83
511.30	31978.74
511.47	32165.98
511.64	32720.69
511.82	32533.45
511.99	32154.28
512.17	32283.01
512.34	32620.05
512.51	32730.05
512.69	32989.85
512.86	32809.63
513.04	33102.20
513.21	33167.73
513.38	32947.72
513.56	33046.02
513.73	33132.62
513.90	33029.64
514.08	33055.39
514.25	33291.78
514.43	33493.07
514.60	33326.89
514.77	33764.57
514.95	33474.34
515.12	34064.16
515.29	34071.18
515.47	34146.08
515.64	34185.86
515.81	34171.82
515.99	33867.55
516.16	34270.12
516.33	34000.96
516.51	34022.03
516.68	33385.40
516.85	33457.96
517.03	33474.34
517.20	34188.21
517.37	34443.32
517.54	34621.20
517.72	34431.62
517.89	34054.79
518.06	34270.12
518.24	34136.71
518.41	34117.99
518.58	34714.83
518.75	34370.77
518.93	34700.78
519.10	35049.52
519.27	35023.78
519.45	35545.72
519.62	35435.71
519.79	35644.02
519.96	35959.99
520.14	35974.03
520.31	35337.41
520.48	35632.32
520.65	35693.17
520.83	36079.36
521.00	36421.08
521.17	36259.58
521.34	36065.31
521.52	36381.29
521.69	36151.91
521.86	36259.58
522.03	36304.05
522.20	36046.59
522.38	36442.14
522.55	36877.48
522.72	36503.00
522.89	36704.28
523.07	37013.23
523.24	36699.60
523.41	37216.86
523.58	37116.22
523.75	37518.79
523.92	37584.32
524.10	37364.31
524.27	37589.00
524.44	37771.57
524.61	37691.99
524.78	37048.34
524.96	37661.56
525.13	37645.18
525.30	37951.79
525.47	37909.66
525.64	37624.11
525.81	37902.64
525.98	37460.27
526.16	37757.52
526.33	37413.46
526.50	37799.65
526.67	37642.84
526.84	37289.42
527.01	37247.29
527.18	38164.78
527.36	38146.05
527.53	38579.05
527.70	38630.54
527.87	38677.35
528.04	38359.04
528.21	38602.46
528.38	39082.27
528.55	39051.84
528.72	39192.27
528.89	39271.85
529.07	38707.78
529.24	38918.43
529.41	39299.94
529.58	38834.17
529.75	38801.40
529.92	39276.53
530.09	39498.88
530.26	39552.71
530.43	39690.80
530.60	39040.14
530.77	39276.53
530.94	39732.93
531.11	39791.45
531.28	39690.80
531.46	39309.30
531.63	39957.63
531.80	39250.78
531.97	39821.87
532.14	39643.99
532.31	39225.04
532.48	39222.70
532.65	39594.84
532.82	39583.14
532.99	40236.15
533.16	40126.14
533.33	40332.11
533.50	40072.31
533.67	40074.65
533.84	39971.67
534.01	40006.78
534.18	40133.17
534.35	40315.73
534.52	40191.68
534.69	40666.81
534.86	40547.44
535.03	40748.73
535.20	41067.04
535.37	41158.32
535.54	41275.35
535.71	40765.11
535.88	40718.30
536.05	40556.80
536.22	40935.97
536.38	40912.56
536.55	40758.09
536.72	40966.40
536.89	40669.15
537.06	41106.83
537.23	41450.89
537.40	41247.26
537.57	41420.46
537.74	41567.91
537.91	41439.18
538.08	41649.83
538.25	41324.50
538.42	41132.57
538.59	41282.37
538.75	41312.80
538.92	41132.57
539.09	41759.84
539.26	41134.92
539.43	41380.67
539.60	41404.08
539.77	41460.25
539.94	41596.00
540.11	41584.30
540.28	41511.74
540.44	41869.84
540.61	42117.94
540.78	41647.49
540.95	41724.73
541.12	42092.19
541.29	41846.44
541.46	42031.34
541.62	42124.96
541.79	42052.41
541.96	41614.72
542.13	42026.66
542.30	42059.43
542.47	42340.29
542.63	42635.20
542.80	42190.50
542.97	42555.62
543.14	42920.74
543.31	42705.41
543.48	42667.97
543.64	42672.65
543.81	43461.41
543.98	42745.20
544.15	43138.41
544.32	42878.61
544.48	43274.16
544.65	43306.93
544.82	43243.74
544.99	42976.92
545.16	43250.76
545.32	43126.71
545.49	43365.45
545.66	43559.71
545.83	43583.12
546.00	43590.14
546.16	43129.05
546.33	43129.05
546.50	43288.21
546.67	43529.28
546.83	43164.16
547.00	43501.20
547.17	43388.85
547.34	43477.79
547.50	43889.73
547.67	43047.13
547.84	43452.05
548.00	43622.90
548.17	43721.21
548.34	43608.86
548.51	44299.32
548.67	43929.51
548.84	43835.89
549.01	43784.40
549.18	43667.37
549.34	43798.44
549.51	44289.96
549.68	44102.71
549.84	43842.92
550.01	44287.62
550.18	43665.03
550.34	44025.48
550.51	43976.33
550.68	44048.88
550.84	43695.46
551.01	44093.35
551.18	44189.31
551.34	44252.51
551.51	44474.86
551.68	44444.43
551.84	44722.96
552.01	44130.80
552.18	44229.10
552.34	43842.92
552.51	44694.87
552.68	44507.63
552.84	45099.78
553.01	44795.51
553.18	44439.75
553.34	44322.72
553.51	44406.98
553.67	44289.96
553.84	44861.05
554.01	45017.86
554.17	44741.68
554.34	44912.54
554.51	44629.34
554.67	45237.87
554.84	45106.80
555.00	44428.05
555.17	44861.05
555.33	44839.98
555.50	44814.24
555.67	45160.64
555.83	45062.33
556.00	44617.63
556.16	45368.94
556.33	45043.61
556.50	44830.62
556.66	45333.84
556.83	44825.94
556.99	45464.91
557.16	44877.43
557.32	45048.29
557.49	45771.52
557.65	45216.81
557.82	45006.16
557.98	45340.86
558.15	45322.13
558.32	45560.87
558.48	45139.57
558.65	45371.28
558.81	45331.50
558.98	45394.69
559.14	45085.74
559.31	45294.05
559.47	45474.27
559.64	45574.91
559.80	45394.69
559.97	45729.39
560.13	45116.17
560.30	44825.94
560.46	45340.86
560.63	45694.28
560.79	45516.40
560.96	45567.89
561.12	45626.40
561.29	45436.82
561.45	45411.07
561.61	45436.82
561.78	45272.98
561.94	45448.52
562.11	45296.39
562.27	45647.47
562.44	45869.82
562.60	45530.44
562.77	45729.39
562.93	45638.11
563.10	45766.84
563.26	45532.78
563.42	45801.94
563.59	45610.02
563.75	45612.36
563.92	45855.78
564.08	45895.56
564.24	45523.42
564.41	45921.31
564.57	45713.00
564.74	45301.07
564.90	45624.06
565.07	45923.65
565.23	46150.68
565.39	45944.72
565.56	45745.77
565.72	45649.81
565.88	45935.35
566.05	45331.50
566.21	45448.52
566.38	45755.13
566.54	45525.76
566.70	46223.24
566.87	46153.02
567.03	46174.09
567.19	46272.39
567.36	46174.09
567.52	45841.73
567.68	45975.14
567.85	45972.80
568.01	46057.06
568.17	45663.85
568.34	46337.93
568.50	45792.58
568.66	45942.38
568.83	46244.30
568.99	45965.78
569.15	45907.27
569.32	46047.70
569.48	45572.57
569.64	46440.91
569.81	45385.33
569.97	46033.66
570.13	45792.58
570.30	45762.15
570.46	45694.28
570.62	45811.31
570.78	45514.06
570.95	45717.68
571.11	45893.22
571.27	45886.20
571.43	45780.88
571.60	45921.31
571.76	46059.40
571.92	46050.04
572.09	45958.76
572.25	45982.16
572.41	45883.86
572.57	46461.97
572.74	46457.29
572.90	45736.41
573.06	46298.14
573.22	46522.83
573.38	45815.99
573.55	46038.34
573.71	46298.14
573.87	46351.97
574.03	46319.20
574.20	46445.59
574.36	46225.58
574.52	46368.35
574.68	46597.73
574.84	46342.61
575.01	46188.13
575.17	46185.79
575.33	46153.02
575.49	46078.13
575.65	46007.91
575.82	46000.89
575.98	46244.30
576.14	46286.43
576.30	46277.07
576.46	45942.38
576.62	46197.49
576.79	46141.32
576.95	45757.47
577.11	46522.83
577.27	46368.35
577.43	45942.38
577.59	46017.27
577.75	46028.98
577.92	45621.72
578.08	46155.36
578.24	46284.09
578.40	45418.10
578.56	45956.42
578.72	46480.70
578.88	46122.60
579.04	45890.88
579.21	45968.12
579.37	45928.33
579.53	46597.73
579.69	46162.39
579.85	46155.36
580.01	46005.57
580.17	46251.33
580.33	46408.14
580.49	46333.24
580.65	46155.36
580.82	45713.00
580.98	45792.58
581.14	46398.78
581.30	46534.53
581.46	46333.24
581.62	46600.07
581.78	46347.29
581.94	46742.84
582.10	46204.52
582.26	46237.28
582.42	46389.42
582.58	46181.11
582.74	46260.69
582.90	45909.61
583.06	46642.20
583.22	46244.30
583.38	46483.04
583.54	46663.26
583.70	46560.28
583.86	46461.97
584.02	46176.43
584.18	46344.95
584.34	46227.92
584.50	46333.24
584.66	46614.11
584.82	46136.64
584.98	46543.89
585.14	46527.51
585.30	45911.95
585.46	45977.48
585.62	45904.93
585.78	45914.29
585.94	46218.56
586.10	46148.34
586.26	46167.07
586.42	46550.91
586.58	46553.26
586.74	46375.37
586.90	46171.75
587.06	46052.38
587.22	46291.12
587.38	46340.27
587.54	46122.60
587.70	46539.21
587.86	46366.01
588.02	45825.35
588.18	46335.59
588.34	46108.55
588.49	46157.70
588.65	45696.62
588.81	45717.68
588.97	46024.29
589.13	46012.59
589.29	45790.24
589.45	46284.09
589.61	46342.61
589.77	46539.21
589.93	46344.95
590.08	46476.02
590.24	46405.80
590.40	46813.05
590.56	46703.05
590.72	46642.20
590.88	46394.10
591.04	46689.01
591.20	46822.42
591.35	46546.23
591.51	47075.19
591.67	46354.31
591.83	46515.81
591.99	45993.87
592.15	46389.42
592.31	46288.77
592.46	46464.32
592.62	46541.55
592.78	46810.71
592.94	46419.84
593.10	46344.95
593.26	46742.84
593.41	46349.63
593.57	46410.48
593.73	46417.50
593.89	46391.76
594.05	46457.29
594.20	46387.08
594.36	46281.75
594.52	46344.95
594.68	46377.72
594.84	46567.30
594.99	46586.02
595.15	46497.08
595.31	46679.64
595.47	46454.95
595.62	46134.30
595.78	46113.23
595.94	46951.15
596.10	46693.69
596.25	46569.64
596.41	46197.49
596.57	46157.70
596.73	46368.35
596.88	46134.30
597.04	46150.68
597.20	46604.75
597.36	46447.93
597.51	46534.53
597.67	46653.90
597.83	46302.82
597.99	46852.84
598.14	46330.90
598.30	46401.12
598.46	46138.98
598.61	46593.04
598.77	45867.48
598.93	46440.91
599.09	46265.37
599.24	46602.41
599.40	47058.81
599.56	46658.58
599.71	46356.65
599.87	46885.61
600.03	46483.04
600.18	46387.08
600.34	46429.21
600.50	46595.38
600.65	46209.20
600.81	46731.14
600.97	46801.35
601.12	47105.62
601.28	46550.91
601.44	46223.24
601.59	46103.87
601.75	46059.40
601.91	46541.55
602.06	46328.56
602.22	46635.17
602.37	46555.60
602.53	46263.03
602.69	46370.69
602.84	46609.43
603.00	46433.89
603.16	46700.71
603.31	46096.85
603.47	46401.12
603.62	46082.81
603.78	46625.81
603.94	46351.97
604.09	46923.06
604.25	46487.72
604.40	46384.74
604.56	46520.49
604.71	46698.37
604.87	46686.67
605.03	45921.31
605.18	46099.19
605.34	46424.53
605.49	46080.47
605.65	46366.01
605.80	46464.32
605.96	46340.27
606.12	46490.06
606.27	46583.68
606.43	46216.22
606.58	46113.23
606.74	46073.45
606.89	46270.05
607.05	46237.28
607.20	46483.04
607.36	46300.48
607.51	46120.26
607.67	46087.49
607.82	46497.08
607.98	45984.51
608.13	46155.36
608.29	46150.68
608.44	46024.29
608.60	45815.99
608.75	45731.73
608.91	46071.10
609.06	46579.00
609.22	46124.94
609.37	46085.15
609.53	46349.63
609.68	46103.87
609.84	46251.33
609.99	45963.44
610.15	46202.18
610.30	45579.59
610.46	45474.27
610.61	45633.42
610.76	46066.42
610.92	46073.45
611.07	46253.67
611.23	46204.52
611.38	45876.84
611.54	45691.94
611.69	45640.45
611.84	45450.86
612.00	45640.45
612.15	45289.37
612.31	45446.18
612.46	45308.09
612.62	45591.30
612.77	45331.50
612.92	45631.08
613.08	45495.33
613.23	45565.55
613.39	45118.51
613.54	45228.51
613.69	45132.55
613.85	45567.89
614.00	45436.82
614.15	45336.18
614.31	45455.54
614.46	45764.49
614.62	45673.21
614.77	45186.38
614.92	45483.63
615.08	45294.05
615.23	44631.68
615.38	45057.65
615.54	44968.71
615.69	45006.16
615.84	45258.94
616.00	44727.64
616.15	45446.18
616.30	45387.67
616.46	45141.91
616.61	44926.58
616.76	44669.12
616.92	44357.83
617.07	44809.56
617.22	44320.38
617.37	44907.86
617.53	45064.67
617.68	45216.81
617.83	45188.72
617.99	45130.21
618.14	44706.57
618.29	44559.12
618.45	44744.02
618.60	44144.84
618.75	44383.58
618.90	44313.36
619.06	44172.93
619.21	44334.43
619.36	44832.96
619.51	45076.38
619.67	44460.82
619.82	44552.10
619.97	44683.17
620.12	44238.47
620.28	43885.04
620.43	44652.74
620.58	44531.03
620.73	44685.51
620.89	43973.98
621.04	44605.93
621.19	44615.29
621.34	44170.59
621.49	44079.31
621.65	44170.59
621.80	44411.67
621.95	43807.81
622.10	44411.67
622.25	43665.03
622.41	44065.27
622.56	44182.29
622.71	43873.34
622.86	43908.45
623.01	44123.78
623.16	43739.93
623.32	43648.65
623.47	43660.35
623.62	43650.99
623.77	43887.39
623.92	43997.39
624.07	43302.25
624.23	43718.87
624.38	43559.71
624.53	43655.67
624.68	43739.93
624.83	43679.08
624.98	43753.97
625.13	43358.42
625.29	43496.52
625.44	43445.02
625.59	43288.21
625.74	43739.93
625.89	43318.64
626.04	43040.11
626.19	43765.68
626.34	43241.40
626.49	43423.96
626.65	43346.72
626.80	43358.42
626.95	43290.55
627.10	43054.15
627.25	42876.27
627.40	42721.80
627.55	42401.14
627.70	43217.99
627.85	42775.63
628.00	42733.50
628.15	43063.52
628.30	42658.60
628.45	42986.28
628.60	43082.24
628.76	43056.50
628.91	43070.54
629.06	42270.08
629.21	42588.39
629.36	42169.43
629.51	42347.31
629.66	42515.83
629.81	42597.75
629.96	42880.95
630.11	42693.71
630.26	42962.87
630.41	42604.77
630.56	42637.54
630.71	42408.17
630.86	42190.50
631.01	42649.24
631.16	42768.61
631.31	42155.39
631.46	41748.14
631.61	42689.03
631.76	41851.12
631.91	42464.34
632.06	42387.10
632.21	42127.30
632.36	42600.09
632.51	42307.52
632.66	42082.83
632.81	42249.01
632.96	42019.64
633.10	41785.58
633.25	42085.17
633.40	42384.76
633.55	42117.94
633.70	41904.95
633.85	42108.58
634.00	42110.92
634.15	42127.30
634.30	41649.83
634.45	41539.83
634.60	41605.36
634.75	42153.05
634.90	41998.57
635.05	41565.57
635.19	41394.71
635.34	41942.40
635.49	41816.01
635.64	41478.97
635.79	41528.13
635.94	41132.57
636.09	41106.83
636.24	41467.27
636.39	41001.50
636.53	41642.81
636.68	41095.13
636.83	41233.22
636.98	41542.17
637.13	41125.55
637.28	41581.96
637.43	41439.18
637.57	41418.12
637.72	41345.56
637.87	41137.26
638.02	41230.88
638.17	41572.60
638.32	41240.24
638.46	41247.26
638.61	41294.07
638.76	40802.56
638.91	41200.45
639.06	40844.69
639.20	40802.56
639.35	40971.08
639.50	40856.39
639.65	40989.80
639.80	41085.76
639.94	40563.82
640.09	40940.65
640.24	40652.76
640.39	40334.45
640.54	40608.29
640.68	40100.40
640.83	41013.21
640.98	40250.19
641.13	40198.70
641.27	40678.51
641.42	40287.64
641.57	40488.93
641.72	40580.21
641.86	40170.61
642.01	40133.17
642.16	40332.11
642.31	40222.11
642.45	40020.82
642.60	40222.11
642.75	39908.47
642.90	40477.22
643.04	40205.72
643.19	40130.83
643.34	40313.39
643.48	39906.13
643.63	39842.94
643.78	39889.75
643.93	40107.42
644.07	40219.77
644.22	40011.46
644.37	39948.26
644.51	40163.59
644.66	40210.40
644.81	39901.45
644.95	40306.37
645.10	39697.83
645.25	40163.59
645.39	39847.62
645.54	39913.16
645.69	39845.28
645.83	39819.53
645.98	39105.67
646.13	39948.26
646.27	40264.24
646.42	39049.50
646.57	39643.99
646.71	39583.14
646.86	39714.21
647.00	39878.05
647.15	39641.65
647.30	39313.98
647.44	39515.26
647.59	39683.78
647.74	39267.17
647.88	38988.64
648.03	39318.66
648.17	39278.87
648.32	39267.17
648.47	38733.53
648.61	39264.83
648.76	39178.23
648.90	39201.63
649.05	39159.50
649.20	39005.03
649.34	38880.98
649.49	38609.48
649.63	39030.77
649.78	39236.74
649.92	38843.53
650.07	39587.82
650.21	38946.51
650.36	38944.17
650.51	38696.08
650.65	39533.99
650.80	39405.26
650.94	39019.07
651.09	38731.18
651.23	39185.25
651.38	38373.08
651.52	38831.83
651.67	38555.64
651.81	38609.48
651.96	38883.32
652.10	38490.11
652.25	38557.99
652.39	38925.45
652.54	38548.62
652.68	38714.80
652.83	38873.96
652.97	38471.39
653.12	38513.52
653.26	38192.86
653.41	38181.16
653.55	38054.77
653.70	38508.83
653.84	37853.48
653.99	38380.10
654.13	38270.10
654.27	38188.18
654.42	37684.97
654.56	38312.23
654.71	38560.33
654.85	37841.78
655.00	37771.57
655.14	37979.87
655.29	37752.84
655.43	37778.59
655.57	37750.50
655.72	37319.84
655.86	37502.40
656.01	37581.98
656.15	37008.55
656.30	37282.39
656.44	37134.94
656.58	37383.04
656.73	37886.25
656.87	37642.84
657.01	37109.19
657.16	37607.73
657.30	36790.88
657.45	37422.83
657.59	37181.75
657.73	37347.93
657.88	37404.10
658.02	37612.41
658.16	37823.06
658.31	37614.75
658.45	37287.07
658.60	36837.69
658.74	37476.66
658.88	37303.46
659.03	37106.85
659.17	37383.04
659.31	37010.89
659.46	37013.23
659.60	36879.82
659.74	36683.22
659.89	37099.83
660.03	36608.32
660.17	37378.36
660.32	36828.33
660.46	37064.72
660.60	36708.96
660.74	36519.38
660.89	36751.09
661.03	36395.33
661.17	36631.72
661.32	36135.53
661.46	36556.83
661.60	36140.21
661.74	36662.15
661.89	36084.04
662.03	36070.00
662.17	36428.10
662.31	36107.44
662.46	36662.15
662.60	36519.38
662.74	36292.35
662.88	36332.14
663.03	35765.73
663.17	36016.16
663.31	35597.21
663.45	36144.89
663.60	35454.44
663.74	35728.28
663.88	35421.67
664.02	35419.33
664.17	35725.94
664.31	35562.10
664.45	35089.31
664.59	35421.67
664.73	35040.16
664.88	35578.48
665.02	35051.86
665.16	34913.77
665.30	35051.86
665.44	35257.83
665.59	34490.13
665.73	34925.47
665.87	34864.62
666.01	34988.67
666.15	34553.33
666.29	34834.19
666.44	34572.05
666.58	34834.19
666.72	34843.56
666.86	34286.51
667.00	34719.51
667.14	34644.61
667.28	34188.21
667.43	33902.66
667.57	34698.44
667.71	34457.37
667.85	34590.78
667.99	34396.51
668.13	34263.10
668.27	34185.86
668.41	34338.00
668.56	34148.42
668.70	34120.33
668.84	33745.84
668.98	33228.59
669.12	33277.74
669.26	33397.10
669.40	33717.76
669.54	33486.04
669.68	33551.58
669.82	33427.53
669.96	33097.52
670.10	33425.19
670.25	33090.49
670.39	33275.40
670.53	32914.95
670.67	33102.20
670.81	33387.74
670.95	32882.19
671.09	32889.21
671.23	32793.25
671.37	32418.76
671.51	32655.15
671.65	32613.02
671.79	32587.28
671.93	32718.35
672.07	32601.32
672.21	32425.78
672.35	31995.12
672.49	32549.83
672.63	32449.19
672.77	32341.52
672.91	32430.46
673.05	32547.49
673.19	32037.25
673.33	31414.67
673.47	31910.86
673.61	31716.60
673.75	31269.56
673.89	30944.22
674.03	31538.72
674.17	31498.93
674.31	31243.81
674.45	31241.47
674.59	31084.65
674.73	31672.13
674.87	31119.76
675.01	31199.34
675.15	30822.51
675.29	30859.96
675.43	30885.71
675.56	30993.37
675.70	30349.73
675.84	30824.86
675.98	29638.20
676.12	30801.45
676.26	30820.17
676.40	30583.78
676.54	30609.53
676.68	30780.39
676.82	29656.93
676.96	30232.70
677.10	30375.47
677.23	30015.03
677.37	29645.23
677.51	29862.90
677.65	29598.41
677.79	28879.87
677.93	29219.25
678.07	29163.08
678.21	28865.83
678.34	28755.82
678.48	28844.76
678.62	28601.35
678.76	28809.65
678.90	28580.28
679.04	28484.32
679.18	28716.03
679.31	28149.62
679.45	28379.00
679.59	28177.71
679.73	28320.48
679.87	28060.68
680.00	27981.10
680.14	28114.52
680.28	27714.28
680.42	27545.76
680.56	27957.70
680.70	27644.07
680.83	27800.88
680.97	27246.18
681.11	27094.04
681.25	27325.75
681.39	27391.29
681.52	27395.97
681.66	27016.80
681.80	26885.73
681.94	26808.50
682.07	26824.88
682.21	26639.98
682.35	26693.81
682.49	26801.47
682.62	26408.26
682.76	26515.93
682.90	26326.35
683.04	26309.96
683.17	25970.58
683.31	26075.91
683.45	26148.46
683.59	25876.96
683.72	25570.35
683.86	25558.65
684.00	25802.07
684.13	25443.96
684.27	25488.43
684.41	25420.56
684.55	25113.95
684.68	25242.68
684.82	25319.92
684.96	24996.92
685.09	24704.35
685.23	24704.35
685.37	24872.87
685.50	24467.96
685.64	24709.04
685.78	24641.16
685.91	24018.58
686.05	24395.40
686.19	23805.59
686.32	23878.15
686.46	23772.82
686.60	23342.16
686.73	23304.71
686.87	23538.77
687.01	23487.28
687.14	23246.20
687.28	23021.51
687.42	23185.35
687.55	23131.51
687.69	23138.54
687.82	22799.16
687.96	22918.53
688.10	22721.92
688.23	22654.05
688.37	22745.33
688.50	22324.03
688.64	22068.91
688.78	22644.68
688.91	22419.99
689.05	22211.68
689.18	22270.20
689.32	21848.90
689.46	22272.54
689.59	22015.08
689.73	22618.94
689.86	22253.81
690.00	22089.98
690.13	21736.56
690.27	21575.06
690.41	21745.92
690.54	21280.15
690.68	21104.61
690.81	21465.05
690.95	21181.85
691.08	21214.62
691.22	21273.13
691.35	21123.33
691.49	21343.35
691.62	20945.45
691.76	20938.43
691.89	21336.32
692.03	20690.34
692.16	20851.83
692.30	20444.58
692.43	20437.56
692.57	20004.56
692.70	20294.79
692.84	19985.83
692.97	20030.30
693.11	19672.20
693.24	19810.29
693.38	19829.02
693.51	19864.13
693.65	19583.26
693.78	19686.25
693.92	19548.15
694.05	19421.77
694.19	19424.11
694.32	19262.61
694.45	19080.05
694.59	19042.60
694.72	18836.63
694.86	18773.44
694.99	18820.25
695.13	18883.44
695.26	18410.65
695.39	18302.99
695.53	18731.31
695.66	18658.75
695.80	18476.19
695.93	18703.22
696.07	17975.31
696.20	18265.54
696.33	18270.22
696.47	18476.19
696.60	18101.70
696.73	18132.13
696.87	17867.65
697.00	18141.49
697.14	17535.29
697.27	17455.72
697.40	17296.56
697.54	17324.65
697.67	17418.27
697.80	17366.78
697.94	17015.69
698.07	17064.85
698.21	17104.64
698.34	16973.56
698.47	17263.79
698.61	16968.88
698.74	16931.44
698.87	17067.19
699.01	16369.71
699.14	16432.90
699.27	16362.69
699.40	16369.71
699.54	16435.24
699.67	16329.92
699.80	16271.40
699.94	15859.47
700.07	16142.67
700.20	15920.32
700.34	16065.44
700.47	15981.18
700.60	16098.20
700.73	16301.83
700.87	15950.75
701.00	15714.36
701.13	15758.83
701.26	15279.02
701.40	15346.89
701.53	15389.02
701.66	15351.57
701.79	15211.14
701.93	15103.48
702.06	14850.70
702.19	14611.96
702.32	15068.37
702.46	14979.43
702.59	15077.73
702.72	14934.96
702.85	14717.29
702.99	14913.89
703.12	14462.17
703.25	14448.13
703.38	14326.42
703.51	14452.81
703.65	14373.23
703.78	14202.37
703.91	14094.71
704.04	14015.13
704.17	13891.08
704.31	14230.46
704.44	13825.54
704.57	13736.60
704.70	13781.07
704.83	13666.39
704.96	13376.16
705.10	13760.01
705.23	13619.58
>>>>>End Processed Spectral Data<<<<<
