SpectraSuite Data File
++++++++++++++++++++++++++++++++++++
Date: Fri Oct 25 10:48:09 EDT 2013
User: price-jones
Dark Spectrum Present: No
Reference Spectrum Present: No
Number of Sampled Component Spectra: 1
Spectrometers: USB2+H05261
Integration Time (usec): 100000 (USB2+H05261)
Spectra Averaged: 1 (USB2+H05261)
Boxcar Smoothing: 0 (USB2+H05261)
Correct for Electrical Dark: No (USB2+H05261)
Strobe/Lamp Enabled: No (USB2+H05261)
Correct for Detector Non-linearity: No (USB2+H05261)
Correct for Stray Light: No (USB2+H05261)
Number of Pixels in Processed Spectrum: 2048
>>>>>Begin Processed Spectral Data<<<<<
365.73	110.01
365.92	110.01
366.12	110.01
366.32	51.49
366.52	0.00
366.72	18.72
366.91	147.45
367.11	107.66
367.31	28.09
367.51	53.83
367.70	18.72
367.90	112.35
368.10	98.30
368.30	65.54
368.49	46.81
368.69	93.62
368.89	102.98
369.09	79.58
369.28	100.64
369.48	102.98
369.68	105.32
369.87	170.86
370.07	126.39
370.27	135.75
370.47	234.05
370.66	362.78
370.86	458.74
371.06	425.98
371.25	543.00
371.45	421.30
371.65	475.13
371.84	554.71
372.04	517.26
372.24	545.34
372.44	421.30
372.63	550.03
372.83	491.51
373.03	484.49
373.22	533.64
373.42	519.60
373.62	449.38
373.81	472.79
374.01	545.34
374.21	596.84
374.40	571.09
374.60	613.22
374.79	535.98
374.99	493.85
375.19	517.26
375.38	561.73
375.58	514.92
375.78	613.22
375.97	561.73
376.17	606.20
376.37	587.47
376.56	552.37
376.76	545.34
376.95	547.69
377.15	561.73
377.35	622.58
377.54	608.54
377.74	603.86
377.93	685.78
378.13	650.67
378.33	627.26
378.52	613.22
378.72	667.05
378.91	606.20
379.11	641.31
379.31	592.16
379.50	634.29
379.70	580.45
379.89	671.73
380.09	688.12
380.28	615.56
380.48	671.73
380.68	676.41
380.87	573.43
381.07	664.71
381.26	727.91
381.46	627.26
381.65	671.73
381.85	674.07
382.04	720.88
382.24	643.65
382.43	692.80
382.63	709.18
382.83	648.33
383.02	763.01
383.22	727.91
383.41	653.01
383.61	688.12
383.80	732.59
384.00	784.08
384.19	709.18
384.39	704.50
384.58	746.63
384.78	725.57
384.97	777.06
385.17	805.14
385.36	744.29
385.56	791.10
385.75	748.97
385.95	795.78
386.14	748.97
386.34	725.57
386.53	753.65
386.72	821.53
386.92	823.87
387.11	793.44
387.31	807.48
387.50	732.59
387.70	805.14
387.89	795.78
388.09	828.55
388.28	877.70
388.48	858.98
388.67	873.02
388.86	795.78
389.06	802.80
389.25	866.00
389.45	837.91
389.64	866.00
389.84	905.79
390.03	945.58
390.22	990.05
390.42	891.74
390.61	919.83
390.81	987.71
391.00	945.58
391.19	987.71
391.39	945.58
391.58	1043.88
391.78	957.28
391.97	919.83
392.16	999.41
392.36	1015.79
392.55	1008.77
392.75	915.15
392.94	959.62
393.13	940.90
393.33	957.28
393.52	987.71
393.71	1060.26
393.91	971.32
394.10	980.68
394.29	997.07
394.49	1053.24
394.68	1057.92
394.88	1114.10
395.07	1174.95
395.26	1090.69
395.46	1053.24
395.65	1163.25
395.84	1095.37
396.04	1100.05
396.23	1114.10
396.42	1114.10
396.62	1107.07
396.81	1071.97
397.00	1198.35
397.19	1205.38
397.39	1193.67
397.58	1245.16
397.77	1200.69
397.97	1149.20
398.16	1135.16
398.35	1284.95
398.55	1191.33
398.74	1315.38
398.93	1378.58
399.12	1266.23
399.32	1235.80
399.51	1287.29
399.70	1387.94
399.90	1291.98
400.09	1401.98
400.28	1411.34
400.47	1430.07
400.67	1380.92
400.86	1441.77
401.05	1474.54
401.24	1404.32
401.44	1446.45
401.63	1437.09
401.82	1483.90
402.01	1479.22
402.21	1416.02
402.40	1474.54
402.59	1497.94
402.78	1486.24
402.97	1437.09
403.17	1533.05
403.36	1521.35
403.55	1589.22
403.74	1593.90
403.93	1558.80
404.13	1551.78
404.32	1575.18
404.51	1621.99
404.70	1612.63
404.89	1535.39
405.09	1732.00
405.28	1678.16
405.47	1746.04
405.66	1689.87
405.85	1701.57
406.05	1778.81
406.24	1802.21
406.43	1792.85
406.62	1778.81
406.81	1799.87
407.00	1790.51
407.20	1671.14
407.39	1895.83
407.58	1863.07
407.77	1865.41
407.96	1982.43
408.15	1872.43
408.34	1891.15
408.54	1980.09
408.73	2003.50
408.92	2047.97
409.11	2012.86
409.30	1982.43
409.49	2043.29
409.68	2071.37
409.87	2080.74
410.07	2111.16
410.26	2097.12
410.45	2111.16
410.64	2024.56
410.83	2040.95
411.02	2157.97
411.21	2289.04
411.40	2200.10
411.59	2223.51
411.78	2186.06
411.98	2207.13
412.17	2296.07
412.36	2319.47
412.55	2492.67
412.74	2321.81
412.93	2385.01
413.12	2431.82
413.31	2480.97
413.50	2443.52
413.69	2518.42
413.88	2457.56
414.07	2480.97
414.26	2654.17
414.45	2537.14
414.64	2597.99
414.83	2740.77
415.02	2719.70
415.22	2637.78
415.41	2787.58
415.60	2679.91
415.79	2782.90
415.98	2752.47
416.17	2827.37
416.36	2906.95
416.55	2995.89
416.74	2827.37
416.93	2801.62
417.12	2853.11
417.31	2960.78
417.50	2965.46
417.69	3033.33
417.88	3047.38
418.07	2892.90
418.26	2991.20
418.45	2958.44
418.64	3122.27
418.83	3087.17
419.02	3112.91
419.21	3131.64
419.39	3281.43
419.58	3162.06
419.77	3143.34
419.96	3222.92
420.15	3431.23
420.34	3281.43
420.53	3276.75
420.72	3234.62
420.91	3309.52
421.10	3403.14
421.29	3435.91
421.48	3405.48
421.67	3337.60
421.86	3253.34
422.05	3339.94
422.24	3403.14
422.43	3466.33
422.61	3438.25
422.80	3466.33
422.99	3487.40
423.18	3417.18
423.37	3557.61
423.56	3471.01
423.75	3552.93
423.94	3454.63
424.13	3199.51
424.32	3227.60
424.50	3426.54
424.69	3471.01
424.88	3541.23
425.07	3424.20
425.26	3342.28
425.45	3494.42
425.64	3545.91
425.83	3576.34
426.01	3606.77
426.20	3613.79
426.39	3595.06
426.58	3482.72
426.77	3517.83
426.96	3618.47
427.15	3524.85
427.33	3669.96
427.52	3599.74
427.71	3688.68
427.90	3728.47
428.09	3602.08
428.28	3705.07
428.46	3882.95
428.65	3707.41
428.84	3833.80
429.03	3847.84
429.22	3679.32
429.40	3669.96
429.59	3611.45
429.78	3648.90
429.97	3571.66
430.16	3618.47
430.34	3768.26
430.53	3740.18
430.72	3899.33
430.91	3812.73
431.10	3873.59
431.28	4011.68
431.47	4084.23
431.66	4187.22
431.85	3765.92
432.03	3990.61
432.22	4175.52
432.41	4147.43
432.60	4114.66
432.79	4184.88
432.97	4177.86
433.16	4301.90
433.35	4070.19
433.54	4166.15
433.72	4112.32
433.91	4227.01
434.10	4329.99
434.28	4241.05
434.47	4301.90
434.66	4269.14
434.85	4428.29
435.03	4449.36
435.22	4318.29
435.41	4505.53
435.59	4491.49
435.78	4456.38
435.97	4475.10
436.16	4360.42
436.34	4447.02
436.53	4606.17
436.72	4643.62
436.90	4472.76
437.09	4664.69
437.28	4596.81
437.46	4608.51
437.65	4674.05
437.84	4655.33
438.02	4559.36
438.21	4739.58
438.40	4568.73
438.58	4772.35
438.77	4706.82
438.96	4713.84
439.14	4873.00
439.33	5008.75
439.52	4901.08
439.70	4924.49
439.89	5060.24
440.08	5097.69
440.26	5027.47
440.45	5078.96
440.63	5146.84
440.82	5224.08
441.01	5256.84
441.19	5291.95
441.38	5423.02
441.57	5210.03
441.75	5504.94
441.94	5509.62
442.12	5544.73
442.31	5504.94
442.50	5603.24
442.68	5486.22
442.87	5652.39
443.05	5652.39
443.24	5736.65
443.43	5598.56
443.61	5692.18
443.80	5717.93
443.98	5504.94
444.17	5614.95
444.35	5774.10
444.54	5956.66
444.73	5703.89
444.91	5694.52
445.10	5680.48
445.28	5724.95
445.47	5675.80
445.65	5624.31
445.84	5729.63
446.02	5846.66
446.21	5933.26
446.39	5909.85
446.58	5907.51
446.77	5757.72
446.95	5874.74
447.14	5804.53
447.32	5839.64
447.51	5811.55
447.69	5858.36
447.88	5863.04
448.06	5914.53
448.25	5966.03
448.43	6008.16
448.62	5977.73
448.80	5849.00
448.99	5982.41
449.17	6052.63
449.36	6017.52
449.54	6162.63
449.73	6204.76
449.91	6366.26
450.10	6293.70
450.28	6125.18
450.46	6363.92
450.65	6321.79
450.83	6352.21
451.02	6033.90
451.20	6406.05
451.39	6422.43
451.57	6319.45
451.76	6181.35
451.94	6370.94
452.13	6401.37
452.31	6382.64
452.49	6303.06
452.68	6422.43
452.86	6289.02
453.05	6408.39
453.23	6511.37
453.42	6387.32
453.60	6443.49
453.78	6597.97
453.97	6586.27
454.15	6520.73
454.34	6445.84
454.52	6614.35
454.70	6696.27
454.89	6637.76
455.07	6729.04
455.26	6841.39
455.44	6724.36
455.62	6801.60
455.81	6876.49
455.99	6843.73
456.17	7012.24
456.36	6768.83
456.54	6895.22
456.73	6991.18
456.91	7272.04
457.09	7108.21
457.28	7183.10
457.46	7115.23
457.64	7283.75
457.83	7241.62
458.01	7183.10
458.19	7295.45
458.38	7201.83
458.56	7297.79
458.74	7538.87
458.93	7131.61
459.11	7510.78
459.29	7187.79
459.48	7377.37
459.66	7363.33
459.84	7396.09
460.03	7609.08
460.21	7496.74
460.39	7630.15
460.57	7407.80
460.76	7674.62
460.94	7522.48
461.12	7531.84
461.31	7630.15
461.49	7576.31
461.67	7510.78
461.85	7836.11
462.04	7709.72
462.22	8229.32
462.40	7698.02
462.59	7789.30
462.77	7822.07
462.95	7840.79
463.13	7971.86
463.32	7793.98
463.50	8039.74
463.68	7939.10
463.86	8088.89
464.05	7751.85
464.23	7854.84
464.41	8079.53
464.59	7758.88
464.78	8114.64
464.96	8086.55
465.14	7901.65
465.32	8147.40
465.50	8269.11
465.69	8116.98
465.87	8255.07
466.05	8140.38
466.23	8205.92
466.41	8131.02
466.60	8489.12
466.78	8159.11
466.96	8163.79
467.14	8231.66
467.32	8374.44
467.51	8601.47
467.69	8243.37
467.87	8306.56
468.05	8451.67
468.23	8393.16
468.41	8257.41
468.60	8353.37
468.78	8482.10
468.96	8645.94
469.14	8807.44
469.32	8704.45
469.50	8411.89
469.69	8669.34
469.87	8711.47
470.05	8837.86
470.23	8926.80
470.41	8830.84
470.59	8854.25
470.77	8723.18
470.95	8816.80
471.14	8861.27
471.32	8865.95
471.50	9242.78
471.68	9273.20
471.86	9151.49
472.04	9317.67
472.22	9359.80
472.40	9111.71
472.58	9357.46
472.77	9352.78
472.95	9432.36
473.13	9724.93
473.31	9369.16
473.49	9397.25
473.67	9586.83
473.85	9469.81
474.03	9699.18
474.21	9834.93
474.39	9748.33
474.57	9944.94
474.75	9977.70
474.93	9888.76
475.12	10036.22
475.30	10232.82
475.48	10015.15
475.66	10024.51
475.84	9977.70
476.02	10094.73
476.20	10113.45
476.38	10527.73
476.56	10726.68
476.74	10576.88
476.92	10642.42
477.10	10698.59
477.28	10731.36
477.46	10611.99
477.64	11105.84
477.82	11243.93
478.00	11272.02
478.18	11122.23
478.36	11300.11
478.54	11370.32
478.72	11414.79
478.90	11524.80
479.08	11487.35
479.26	11618.42
479.44	11838.43
479.62	11962.48
479.80	11747.15
479.98	12013.97
480.16	12226.96
480.34	12360.37
480.52	12285.47
480.70	12123.98
480.88	12194.19
481.06	12241.00
481.24	12435.27
481.41	12556.97
481.59	12727.83
481.77	12629.53
481.95	12830.82
482.13	12978.27
482.31	12931.46
482.49	13287.22
482.67	13165.51
482.85	13455.74
483.03	13605.53
483.21	13867.67
483.39	13792.78
483.57	13965.98
483.74	13877.04
483.92	13980.02
484.10	13907.46
484.28	14417.70
484.46	14534.73
484.64	14670.48
484.82	14134.50
485.00	14427.06
485.18	14499.62
485.35	15019.22
485.53	14764.10
485.71	14850.70
485.89	15187.74
486.07	14775.80
486.25	15119.86
486.43	15283.70
486.61	15520.09
486.78	15332.85
486.96	15910.96
487.14	16109.91
487.32	16290.13
487.50	16603.76
487.68	16449.28
487.85	16517.16
488.03	16465.67
488.21	16865.90
488.39	16922.07
488.57	16947.82
488.75	17249.75
488.92	17090.59
489.10	17830.20
489.28	17572.74
489.46	17788.07
489.64	17495.50
489.81	18029.15
489.99	18064.25
490.17	18225.75
490.35	18291.29
490.53	18164.90
490.70	18429.38
490.88	18382.57
491.06	19058.98
491.24	18560.45
491.41	18719.60
491.59	18941.96
491.77	19056.64
491.95	19344.53
492.13	19248.57
492.30	19557.52
492.48	19658.16
492.66	19683.91
492.84	19707.31
493.01	19831.36
493.19	20020.94
493.37	20404.79
493.54	20177.76
493.72	20556.93
493.90	20566.29
494.08	20826.09
494.25	21050.78
494.43	21003.97
494.61	21256.75
494.79	21207.59
494.96	20952.48
495.14	20826.09
495.32	21212.28
495.49	21528.25
495.67	21830.18
495.85	21776.34
496.02	22094.66
496.20	22085.30
496.38	22398.93
496.55	22239.77
496.73	22824.90
496.91	22293.60
497.09	22530.00
497.26	22581.49
497.44	22927.89
497.62	22691.49
497.79	23271.95
497.97	23005.13
498.14	23220.45
498.32	23419.40
498.50	23393.65
498.67	23515.36
498.85	23833.68
499.03	23758.78
499.20	24095.82
499.38	23730.69
499.56	24112.20
499.73	23981.13
499.91	24168.37
500.08	24545.20
500.26	23999.85
500.44	24259.65
500.61	24692.65
500.79	24386.04
500.97	24849.47
501.14	24723.08
501.32	24910.32
501.49	24856.49
501.67	24826.06
501.84	24905.64
502.02	24847.13
502.20	25296.51
502.37	25366.73
502.55	25268.42
502.72	25352.68
502.90	25415.88
503.07	25565.67
503.25	25598.44
503.43	25722.49
503.60	25818.45
503.78	25979.95
503.95	26122.72
504.13	25811.43
504.30	26223.36
504.48	26085.27
504.65	26469.12
504.83	26525.29
505.01	26682.11
505.18	26668.06
505.36	27056.59
505.53	26593.17
505.71	27042.55
505.88	26904.46
506.06	26934.88
506.23	26960.63
506.41	27185.32
506.58	27157.24
506.76	27477.89
506.93	27658.11
507.11	27332.78
507.28	27775.14
507.46	27658.11
507.63	27721.30
507.81	27871.10
507.98	27637.05
508.16	27889.82
508.33	27644.07
508.50	28229.20
508.68	27651.09
508.85	28250.27
509.03	28460.91
509.20	28673.90
509.38	28713.69
509.55	28896.25
509.73	28404.74
509.90	28992.22
510.08	28716.03
510.25	29022.64
510.42	28811.99
510.60	29099.88
510.77	29401.81
510.95	29565.65
511.12	29118.60
511.30	29249.67
511.47	29582.03
511.64	29586.71
511.82	29345.64
511.99	29502.45
512.17	29734.17
512.34	29626.50
512.51	29844.17
512.69	30307.60
512.86	30000.99
513.04	30401.22
513.21	30405.90
513.38	30197.59
513.56	30216.32
513.73	30291.21
513.90	30543.99
514.08	30766.34
514.25	30895.07
514.43	30829.54
514.60	30789.75
514.77	30780.39
514.95	30731.23
515.12	31016.78
515.29	31143.17
515.47	31164.23
515.64	31180.62
515.81	30913.80
515.99	30850.60
516.16	31559.78
516.33	31442.76
516.51	31630.00
516.68	31651.06
516.85	31470.84
517.03	31524.68
517.20	31543.40
517.37	31796.18
517.54	31632.34
517.72	31873.42
517.89	31864.05
518.06	32402.38
518.24	31730.64
518.41	31910.86
518.58	32177.68
518.75	32004.49
518.93	32182.37
519.10	32378.97
519.27	32814.31
519.45	32580.26
519.62	32664.52
519.79	32950.06
519.96	32617.71
520.14	33158.37
520.31	32926.66
520.48	33036.66
520.65	32961.76
520.83	32975.81
521.00	33237.95
521.17	33322.21
521.34	33624.14
521.52	33394.76
521.69	33483.70
521.86	33816.06
522.03	34029.05
522.20	33773.93
522.38	33785.63
522.55	34019.69
522.72	34019.69
522.89	33745.84
523.07	34160.12
523.24	34373.11
523.41	34192.89
523.58	33947.13
523.75	34616.52
523.92	34295.87
524.10	34529.92
524.27	34621.20
524.44	34778.02
524.61	34658.65
524.78	34656.31
524.96	35040.16
525.13	34920.79
525.30	35138.46
525.47	35299.96
525.64	34944.20
525.81	35171.23
525.98	35056.54
526.16	35356.13
526.33	34976.97
526.50	35646.36
526.67	34906.75
526.84	35285.92
527.01	35126.76
527.18	35346.77
527.36	35442.73
527.53	35578.48
527.70	35945.95
527.87	35920.20
528.04	35615.93
528.21	35878.07
528.38	36114.47
528.55	36130.85
528.72	36268.94
528.89	36458.52
529.07	35894.46
529.24	36182.34
529.41	36507.68
529.58	36477.25
529.75	36297.03
529.92	36121.49
530.09	36247.88
530.26	36795.56
530.43	36664.49
530.60	36137.87
530.77	36631.72
530.94	36954.72
531.11	36734.71
531.28	36905.57
531.46	36711.30
531.63	37081.11
531.80	37010.89
531.97	37156.00
532.14	37099.83
532.31	37148.98
532.48	37212.18
532.65	37085.79
532.82	37230.90
532.99	36978.12
533.16	37221.54
533.33	37209.84
533.50	37912.00
533.67	37544.53
533.84	37502.40
534.01	37771.57
534.18	37443.89
534.35	37727.10
534.52	37523.47
534.69	37621.77
534.86	37640.50
535.03	37834.76
535.20	38321.59
535.37	38436.28
535.54	38476.07
535.71	37879.23
535.88	37684.97
536.05	37937.74
536.22	38321.59
536.38	38127.33
536.55	38480.75
536.72	38703.10
536.89	37989.24
537.06	38265.42
537.23	38284.14
537.40	38356.70
537.57	38337.98
537.74	38323.93
537.91	38691.40
538.08	38752.25
538.25	38447.98
538.42	38628.20
538.59	39129.08
538.75	38586.07
538.92	38405.85
539.09	39096.31
539.26	38801.40
539.43	38990.98
539.60	39070.56
539.77	39147.80
539.94	39325.68
540.11	39122.05
540.28	39313.98
540.44	39126.74
540.61	38602.46
540.78	39100.99
540.95	39157.16
541.12	39133.76
541.29	39608.89
541.46	39152.48
541.62	39381.85
541.79	39845.28
541.96	39061.20
542.13	39285.89
542.30	39585.48
542.47	39571.44
542.63	39690.80
542.80	39749.32
542.97	40011.46
543.14	40397.65
543.31	39995.07
543.48	40343.81
543.64	40732.34
543.81	40685.53
543.98	40524.04
544.15	40259.55
544.32	40308.71
544.48	40423.39
544.65	40622.34
544.82	40584.89
544.99	39924.86
545.16	40636.38
545.32	40334.45
545.49	40900.86
545.66	40739.36
545.83	40711.28
546.00	41097.47
546.16	40825.96
546.33	40575.53
546.50	40430.41
546.67	41158.32
546.83	40236.15
547.00	40837.67
547.17	40893.84
547.34	41055.34
547.50	40933.63
547.67	41340.88
547.84	40882.14
548.00	40912.56
548.17	41556.21
548.34	41345.56
548.51	41390.03
548.67	42010.28
548.84	41474.29
549.01	41303.43
549.18	41184.07
549.34	41223.86
549.51	41375.99
549.68	41645.15
549.84	41436.84
550.01	41792.61
550.18	41371.31
550.34	41446.21
550.51	41303.43
550.68	41432.16
550.84	41771.54
551.01	41954.10
551.18	41654.51
551.34	42038.36
551.51	42005.59
551.68	41647.49
551.84	41881.55
552.01	41710.69
552.18	41888.57
552.34	41448.55
552.51	42003.25
552.68	42396.46
552.84	42525.19
553.01	42462.00
553.18	41750.48
553.34	41963.46
553.51	41830.05
553.67	42017.30
553.84	42529.87
554.01	42693.71
554.17	42583.71
554.34	42384.76
554.51	42962.87
554.67	42389.44
554.84	42710.10
555.00	42426.89
555.17	42412.85
555.33	42445.62
555.50	42663.28
555.67	42246.67
555.83	42497.11
556.00	42724.14
556.16	42904.36
556.33	42653.92
556.50	43133.73
556.66	42663.28
556.83	42382.42
556.99	42782.65
557.16	43412.26
557.32	42784.99
557.49	42717.12
557.65	42808.40
557.82	43065.86
557.98	42703.07
558.15	42663.28
558.32	42670.31
558.48	42913.72
558.65	43225.01
558.81	42836.48
558.98	43016.71
559.14	42855.21
559.31	43189.91
559.47	43164.16
559.64	43501.20
559.80	43262.46
559.97	43765.68
560.13	42930.11
560.30	43435.66
560.46	43484.81
560.63	43161.82
560.79	43515.24
560.96	43229.69
561.12	43353.74
561.29	43386.51
561.45	43475.45
561.61	43210.97
561.78	43445.02
561.94	43196.93
562.11	43213.31
562.27	43100.97
562.44	43550.35
562.60	43215.65
562.77	43756.32
562.93	43770.36
563.10	43988.03
563.26	43311.61
563.42	43639.29
563.59	43821.85
563.75	43482.47
563.92	43325.66
564.08	43545.67
564.24	43931.86
564.41	43922.49
564.57	43356.08
564.74	43966.96
564.90	43985.69
565.07	43693.12
565.23	43765.68
565.39	43835.89
565.56	44098.03
565.72	43676.74
565.88	43646.31
566.05	43505.88
566.21	43714.19
566.38	43594.82
566.54	43964.62
566.70	43913.13
566.87	44030.16
567.03	43910.79
567.19	44226.76
567.36	44037.18
567.52	44437.41
567.68	43824.19
567.85	43835.89
568.01	43924.83
568.17	43414.60
568.34	43744.61
568.50	43964.62
568.66	43690.78
568.83	43922.49
568.99	43847.60
569.15	43473.11
569.32	44065.27
569.48	43718.87
569.64	44172.93
569.81	44437.41
569.97	43756.32
570.13	44186.97
570.30	44280.60
570.46	43784.40
570.62	43866.32
570.78	43407.58
570.95	43990.37
571.11	44226.76
571.27	44020.80
571.43	44186.97
571.60	44201.02
571.76	44058.24
571.92	44020.80
572.09	43847.60
572.25	43814.83
572.41	43723.55
572.57	44334.43
572.74	44945.31
572.90	44638.70
573.06	44201.02
573.22	44542.74
573.38	44301.66
573.55	44100.37
573.71	44060.58
573.87	44083.99
574.03	43906.11
574.20	44147.18
574.36	44105.06
574.52	44404.64
574.68	44112.08
574.84	44545.08
575.01	44088.67
575.17	44355.49
575.33	44252.51
575.49	43938.88
575.65	44329.75
575.82	44430.39
575.98	44107.40
576.14	44266.55
576.30	44278.25
576.46	44002.07
576.62	44091.01
576.79	44163.57
576.95	43997.39
577.11	44308.68
577.27	44189.31
577.43	44615.29
577.59	44289.96
577.75	44603.59
577.92	43859.30
578.08	44182.29
578.24	44140.16
578.40	44098.03
578.56	44500.61
578.72	44542.74
578.88	44404.64
579.04	44329.75
579.21	44238.47
579.37	44278.25
579.53	44554.44
579.69	44182.29
579.85	44811.90
580.01	44437.41
580.17	44355.49
580.33	44404.64
580.49	44559.12
580.65	44823.60
580.82	44378.90
580.98	43838.23
581.14	44617.63
581.30	44493.58
581.46	44130.80
581.62	44392.94
581.78	44685.51
581.94	44570.82
582.10	44416.35
582.26	44395.28
582.42	44233.78
582.58	44383.58
582.74	44210.38
582.90	44708.91
583.06	44893.82
583.22	44788.49
583.38	44641.04
583.54	44479.54
583.70	43908.45
583.86	44217.40
584.02	43849.94
584.18	44645.72
584.34	44514.65
584.50	44467.84
584.66	44098.03
584.82	44055.90
584.98	44779.13
585.14	45092.76
585.30	44067.61
585.46	44414.01
585.62	44175.27
585.78	44533.37
585.94	44023.14
586.10	44240.81
586.26	44266.55
586.42	44828.28
586.58	44879.77
586.74	44215.06
586.90	44296.98
587.06	44453.79
587.22	44573.16
587.38	44493.58
587.54	44737.00
587.70	44502.95
587.86	44622.31
588.02	44854.03
588.18	44823.60
588.34	44631.68
588.49	44350.81
588.65	44535.71
588.81	44254.85
588.97	44701.89
589.13	44168.25
589.29	44229.10
589.45	44615.29
589.61	44807.22
589.77	45017.86
589.93	44914.88
590.08	44610.61
590.24	44779.13
590.40	44973.39
590.56	45153.62
590.72	44669.12
590.88	44278.25
591.04	44435.07
591.20	45071.70
591.35	44954.67
591.51	45127.87
591.67	44701.89
591.83	44631.68
591.99	44671.46
592.15	44617.63
592.31	44992.12
592.46	45186.38
592.62	44322.72
592.78	44928.92
592.94	44889.13
593.10	45116.17
593.26	44779.13
593.41	45099.78
593.57	44725.30
593.73	44659.76
593.89	44739.34
594.05	44746.36
594.20	45188.72
594.36	45123.19
594.52	44559.12
594.68	44973.39
594.84	45134.89
594.99	45240.21
595.15	44804.88
595.31	45067.02
595.47	44924.24
595.62	44582.52
595.78	44577.84
595.94	44945.31
596.10	45027.23
596.25	45233.19
596.41	44734.66
596.57	44926.58
596.73	44626.99
596.88	44858.71
597.04	45265.96
597.20	45088.08
597.36	44830.62
597.51	44816.58
597.67	45095.10
597.83	44907.86
597.99	45263.62
598.14	45301.07
598.30	44856.37
598.46	44940.63
598.61	45453.20
598.77	44800.19
598.93	44989.78
599.09	44781.47
599.24	45102.12
599.40	45167.66
599.56	45549.17
599.71	44835.30
599.87	45003.82
600.03	44886.79
600.18	45282.34
600.34	44673.81
600.50	44964.03
600.65	44699.55
600.81	44748.70
600.97	45371.28
601.12	44863.39
601.28	45387.67
601.44	45301.07
601.59	44989.78
601.75	44573.16
601.91	45235.53
602.06	44825.94
602.22	45095.10
602.37	44868.07
602.53	44973.39
602.69	45095.10
602.84	45045.95
603.00	44903.18
603.16	45127.87
603.31	44910.20
603.47	45139.57
603.62	44949.99
603.78	45247.24
603.94	44992.12
604.09	44842.32
604.25	45106.80
604.40	44573.16
604.56	44706.57
604.71	44985.10
604.87	44989.78
605.03	44914.88
605.18	44769.77
605.34	44807.22
605.49	44465.50
605.65	44811.90
605.80	45015.52
605.96	44858.71
606.12	45057.65
606.27	45125.53
606.43	44830.62
606.58	45170.00
606.74	44751.04
606.89	44753.38
607.05	44753.38
607.20	44732.32
607.36	44744.02
607.51	44809.56
607.67	44847.00
607.82	44680.83
607.98	44919.56
608.13	44395.28
608.29	44505.29
608.44	44521.67
608.60	44116.76
608.75	44704.23
608.91	44554.44
609.06	44566.14
609.22	44921.90
609.37	44350.81
609.53	44634.02
609.68	44495.92
609.84	44348.47
609.99	44842.32
610.15	44428.05
610.30	44495.92
610.46	44367.20
610.61	44526.35
610.76	44362.51
610.92	44746.36
611.07	44460.82
611.23	44376.56
611.38	44289.96
611.54	44364.85
611.69	44053.56
611.84	44182.29
612.00	44392.94
612.15	44215.06
612.31	44325.07
612.46	44456.14
612.62	44734.66
612.77	44540.39
612.92	44201.02
613.08	44149.53
613.23	44074.63
613.39	43641.63
613.54	44088.67
613.69	43892.07
613.85	44500.61
614.00	44385.92
614.15	44142.50
614.31	44301.66
614.46	44282.94
614.62	44170.59
614.77	44116.76
614.92	43948.24
615.08	43679.08
615.23	43758.66
615.38	43920.15
615.54	43536.30
615.69	43714.19
615.84	43707.16
616.00	43730.57
616.15	44067.61
616.30	44023.14
616.46	43374.81
616.61	43536.30
616.76	43285.87
616.92	43459.07
617.07	43466.09
617.22	43833.55
617.37	43407.58
617.53	43501.20
617.68	43746.95
617.83	43735.25
617.99	43896.75
618.14	43611.20
618.29	43854.62
618.45	42962.87
618.60	43445.02
618.75	43681.42
618.90	43744.61
619.06	43531.62
619.21	43423.96
619.36	43650.99
619.51	43061.18
619.67	43739.93
619.82	43236.72
619.97	43608.86
620.12	43136.07
620.28	42635.20
620.43	43009.68
620.58	43103.31
620.73	42733.50
620.89	43239.06
621.04	43194.59
621.19	43187.56
621.34	43196.93
621.49	42632.86
621.65	42831.80
621.80	43217.99
621.95	43002.66
622.10	42976.92
622.25	42560.30
622.41	42356.67
622.56	42632.86
622.71	42719.46
622.86	43234.38
623.01	42756.91
623.16	42682.01
623.32	42574.34
623.47	43182.88
623.62	42656.26
623.77	42656.26
623.92	42747.54
624.07	42349.65
624.23	42354.33
624.38	42539.24
624.53	42302.84
624.68	42426.89
624.83	42808.40
624.98	42902.02
625.13	42616.47
625.29	42148.37
625.44	42674.99
625.59	42192.84
625.74	42089.85
625.89	42136.66
626.04	41937.72
626.19	42426.89
626.34	41862.82
626.49	42197.52
626.65	42199.86
626.80	42216.24
626.95	42113.26
627.10	41834.74
627.25	41816.01
627.40	41523.44
627.55	41338.54
627.70	41420.46
627.85	41827.71
628.00	41937.72
628.15	41965.81
628.30	41654.51
628.45	42082.83
628.60	41755.16
628.76	41825.37
628.91	41998.57
629.06	41921.34
629.21	41867.50
629.36	41797.29
629.51	41301.09
629.66	41277.69
629.81	41661.54
629.96	41605.36
630.11	41979.85
630.26	41577.28
630.41	41567.91
630.56	41326.84
630.71	41277.69
630.86	41411.10
631.01	40851.71
631.16	41455.57
631.31	41081.08
631.46	41109.17
631.61	41347.90
631.76	41490.68
631.91	41331.52
632.06	41366.63
632.21	41577.28
632.36	41214.49
632.51	41092.79
632.66	41390.03
632.81	40886.82
632.96	40837.67
633.10	41202.79
633.25	40832.99
633.40	41141.94
633.55	40959.38
633.70	40760.43
633.85	40598.93
634.00	40701.92
634.15	41029.59
634.30	40732.34
634.45	40877.46
634.60	40863.41
634.75	40421.05
634.90	40404.67
635.05	40722.98
635.19	40886.82
635.34	40704.26
635.49	41146.62
635.64	40318.07
635.79	40233.81
635.94	40687.87
636.09	40687.87
636.24	40076.99
636.39	40102.74
636.53	40706.60
636.68	40437.44
636.83	40149.55
636.98	40638.72
637.13	39969.33
637.28	40343.81
637.43	40229.13
637.57	40488.93
637.72	40432.75
637.87	40407.01
638.02	40388.28
638.17	40570.85
638.32	39999.76
638.46	39906.13
638.61	40456.16
638.76	40233.81
638.91	39871.03
639.06	39800.81
639.20	39864.00
639.35	40088.70
639.50	39976.35
639.65	39938.90
639.80	40088.70
639.94	39618.25
640.09	39917.84
640.24	39021.41
640.39	39901.45
640.54	39934.22
640.68	39445.05
640.83	39882.73
640.98	39866.34
641.13	39557.39
641.27	40175.30
641.42	39742.30
641.57	39426.32
641.72	39592.50
641.86	39267.17
642.01	39208.65
642.16	39550.37
642.31	38660.97
642.45	39271.85
642.60	39328.02
642.75	39295.25
642.90	39161.84
643.04	38993.32
643.19	39203.97
643.34	39496.54
643.48	39292.91
643.63	38902.04
643.78	38869.28
643.93	38845.87
644.07	38892.68
644.22	39164.18
644.37	38822.47
644.51	39201.63
644.66	39164.18
644.81	39201.63
644.95	38518.20
645.10	38815.44
645.25	39225.04
645.39	39379.51
645.54	38979.28
645.69	39063.54
645.83	38770.97
645.98	38834.17
646.13	38958.22
646.27	38810.76
646.42	38384.79
646.57	39112.69
646.71	38799.06
646.86	39285.89
647.00	38497.13
647.15	38733.53
647.30	38932.47
647.44	39061.20
647.59	38471.39
647.74	38543.94
647.88	38389.47
648.03	38394.15
648.17	38501.81
648.32	38312.23
648.47	38588.41
648.61	38536.92
648.76	38576.71
648.90	38731.18
649.05	38485.43
649.20	38216.27
649.34	38600.12
649.49	38185.84
649.63	38373.08
649.78	38677.35
649.92	37977.53
650.07	38476.07
650.21	37827.74
650.36	37820.72
650.51	38202.22
650.65	38387.13
650.80	38384.79
650.94	38408.19
651.09	38237.33
651.23	37797.31
651.38	37813.70
651.52	38017.32
651.67	37528.15
651.81	38190.52
651.96	37649.86
652.10	37813.70
652.25	37666.24
652.39	37696.67
652.54	37628.79
652.68	38340.32
652.83	37916.68
652.97	37816.04
653.12	37818.38
653.26	37406.44
653.41	37865.19
653.55	37315.16
653.70	37354.95
653.84	37713.05
653.99	37500.06
654.13	37631.13
654.27	37263.67
654.42	37301.12
654.56	37460.27
654.71	37532.83
654.85	37137.28
655.00	37230.90
655.14	37301.12
655.29	37181.75
655.43	37277.71
655.57	37139.62
655.72	36842.37
655.86	36809.61
656.01	36966.42
656.15	36980.46
656.30	36921.95
656.44	37055.36
656.58	36634.06
656.73	36657.47
656.87	36807.26
657.01	36624.70
657.16	36683.22
657.30	36694.92
657.45	36863.44
657.59	36844.71
657.73	36318.09
657.88	36510.02
658.02	36854.08
658.16	36711.30
658.31	36615.34
658.45	36926.63
658.60	36774.50
658.74	36795.56
658.88	36697.26
659.03	36484.27
659.17	36369.58
659.31	36437.46
659.46	36032.55
659.60	36149.57
659.74	36266.60
659.89	36402.35
660.03	35913.18
660.17	36102.76
660.32	36016.16
660.46	36336.82
660.60	36273.62
660.74	36020.84
660.89	36018.50
661.03	35751.68
661.17	35742.32
661.32	35393.58
661.46	35477.84
661.60	35522.31
661.74	35629.98
661.89	35681.47
662.03	35948.29
662.17	35447.41
662.31	35253.15
662.46	35695.51
662.60	35421.67
662.74	35328.05
662.88	35175.91
663.03	35016.75
663.17	35248.47
663.31	34995.69
663.45	35164.21
663.60	35337.41
663.74	34513.54
663.88	34855.26
664.02	34721.85
664.17	34803.77
664.31	34771.00
664.45	34724.19
664.59	35072.93
664.73	34871.64
664.88	35267.19
665.02	34424.60
665.16	34218.63
665.30	34565.03
665.44	34436.30
665.59	33907.34
665.73	34396.51
665.87	33895.64
666.01	34464.39
666.15	34155.44
666.29	34230.33
666.44	34494.82
666.58	33886.28
666.72	34155.44
666.86	34600.14
667.00	34265.44
667.14	33673.29
667.28	33975.22
667.43	33619.46
667.57	33336.25
667.71	33820.74
667.85	33614.77
667.99	33523.49
668.13	33256.67
668.27	33673.29
668.41	33453.28
668.56	33123.26
668.70	33549.24
668.84	33322.21
668.98	32978.15
669.12	33120.92
669.26	33055.39
669.40	32840.06
669.54	32989.85
669.68	33116.24
669.82	32716.01
669.96	32325.14
670.10	32788.56
670.25	32826.01
670.39	33303.48
670.53	32620.05
670.67	32524.08
670.81	32793.25
670.95	32690.26
671.09	32793.25
671.23	32650.47
671.37	32451.53
671.51	32173.00
671.65	32163.64
671.79	32063.00
671.93	32018.53
672.07	32137.90
672.21	31807.88
672.35	32154.28
672.49	31796.18
672.63	31931.93
672.77	31637.02
672.91	31735.32
673.05	31559.78
673.19	31480.21
673.33	31737.66
673.47	31349.14
673.61	30979.33
673.75	31122.10
673.89	30754.64
674.03	30693.79
674.17	30895.07
674.31	30611.87
674.45	30724.21
674.59	30951.24
674.73	31061.25
674.87	30820.17
675.01	31061.25
675.15	30766.34
675.29	30642.29
675.43	30611.87
675.56	30654.00
675.70	30092.27
675.84	30555.69
675.98	29373.72
676.12	30251.42
676.26	29937.79
676.40	29537.56
676.54	29509.47
676.68	29820.77
676.82	29252.02
676.96	29764.59
677.10	29226.27
677.23	29369.04
677.37	29326.91
677.51	29420.53
677.65	28933.70
677.79	28929.02
677.93	29362.02
678.07	28783.91
678.21	28467.94
678.34	28545.17
678.48	28584.96
678.62	28407.08
678.76	28437.51
678.90	28472.62
679.04	28109.83
679.18	28379.00
679.31	27648.75
679.45	27988.13
679.59	27749.39
679.73	28128.56
679.87	27814.93
680.00	27473.21
680.14	27864.08
680.28	27360.86
680.42	27405.33
680.56	27335.12
680.70	27374.91
680.83	27243.84
680.97	27136.17
681.11	26890.41
681.25	26623.59
681.39	26782.75
681.52	27346.82
681.66	26506.57
681.80	27007.44
681.94	26544.02
682.07	26335.71
682.21	26485.50
682.35	26206.98
682.49	26164.85
682.62	26307.62
682.76	26094.63
682.90	25853.56
683.04	25921.43
683.17	25851.22
683.31	25633.55
683.45	25568.01
683.59	25514.18
683.72	25207.57
683.86	25153.74
684.00	25216.93
684.13	25125.65
684.27	25315.23
684.41	25230.98
684.55	24812.02
684.68	24861.17
684.82	24858.83
684.96	24402.43
685.09	24641.16
685.23	24409.45
685.37	24563.92
685.50	24388.38
685.64	24353.27
685.78	24528.81
685.91	24159.01
686.05	23880.49
686.19	23995.17
686.32	23992.83
686.46	23913.25
686.60	23388.97
686.73	23587.92
686.87	23281.31
687.01	23515.36
687.14	22995.76
687.28	22934.91
687.42	22974.70
687.55	22925.55
687.69	22927.89
687.82	22867.03
687.96	22740.64
688.10	22895.12
688.23	22530.00
688.37	22267.86
688.50	22251.47
688.64	22324.03
688.78	22003.38
688.91	21926.14
689.05	21834.86
689.18	22022.10
689.32	21846.56
689.46	21998.70
689.59	21986.99
689.73	21818.47
689.86	21570.38
690.00	21603.14
690.13	21832.52
690.27	21549.31
690.41	21469.73
690.54	21619.53
690.68	21338.66
690.81	21177.17
690.95	21130.36
691.08	20938.43
691.22	21001.63
691.35	20753.53
691.49	20622.46
691.62	21172.49
691.76	20755.87
691.89	20807.36
692.03	20535.86
692.16	20467.98
692.30	20379.04
692.43	20032.65
692.57	20032.65
692.70	19999.88
692.84	19864.13
692.97	19969.45
693.11	19744.76
693.24	19857.10
693.38	19805.61
693.51	19789.23
693.65	19293.04
693.78	19435.81
693.92	19255.59
694.05	19168.99
694.19	19171.33
694.32	19208.78
694.45	18794.50
694.59	18857.70
694.72	18663.43
694.86	18684.50
694.99	18618.96
695.13	18317.03
695.26	18441.08
695.39	18504.28
695.53	18625.98
695.66	18508.96
695.80	18235.11
695.93	18279.58
696.07	18071.28
696.20	17877.01
696.33	18349.80
696.47	17942.55
696.60	17764.67
696.73	17607.85
696.87	17872.33
697.00	17539.97
697.14	17586.79
697.27	17539.97
697.40	17474.44
697.54	17577.42
697.67	17458.06
697.80	17099.95
697.94	16978.25
698.07	16931.44
698.21	16943.14
698.34	17088.25
698.47	16758.24
698.61	16608.44
698.74	16856.54
698.87	16589.72
699.01	16428.22
699.14	16346.30
699.27	16011.60
699.40	16479.71
699.54	16063.10
699.67	16102.89
699.80	15969.48
699.94	16137.99
700.07	16023.31
700.20	15719.04
700.34	15688.61
700.47	15712.02
700.60	15929.69
700.73	15697.97
700.87	15639.46
701.00	15625.42
701.13	15604.35
701.26	15499.03
701.40	15241.57
701.53	15470.94
701.66	15150.29
701.79	14789.85
701.93	14862.40
702.06	14656.43
702.19	14618.99
702.32	14682.18
702.46	14710.27
702.59	14686.86
702.72	14757.08
702.85	14600.26
702.99	14848.36
703.12	14899.85
703.25	14679.84
703.38	14658.78
703.51	14312.38
703.65	14239.82
703.78	14410.68
703.91	14139.18
704.04	14209.39
704.17	14031.51
704.31	13687.45
704.44	13600.85
704.57	13806.82
704.70	13350.42
704.83	13666.39
704.96	13699.16
705.10	13631.28
705.23	13797.46
>>>>>End Processed Spectral Data<<<<<
