SpectraSuite Data File
++++++++++++++++++++++++++++++++++++
Date: Fri Oct 25 10:44:33 EDT 2013
User: price-jones
Dark Spectrum Present: No
Reference Spectrum Present: No
Number of Sampled Component Spectra: 1
Spectrometers: USB2+H05261
Integration Time (usec): 100000 (USB2+H05261)
Spectra Averaged: 1 (USB2+H05261)
Boxcar Smoothing: 0 (USB2+H05261)
Correct for Electrical Dark: No (USB2+H05261)
Strobe/Lamp Enabled: No (USB2+H05261)
Correct for Detector Non-linearity: No (USB2+H05261)
Correct for Stray Light: No (USB2+H05261)
Number of Pixels in Processed Spectrum: 2048
>>>>>Begin Processed Spectral Data<<<<<
365.73	119.37
365.92	119.37
366.12	119.37
366.32	72.56
366.52	0.00
366.72	37.45
366.91	0.00
367.11	21.06
367.31	0.00
367.51	28.09
367.70	98.30
367.90	84.26
368.10	0.00
368.30	39.79
368.49	79.58
368.69	32.77
368.89	51.49
369.09	79.58
369.28	46.81
369.48	60.85
369.68	58.51
369.87	168.52
370.07	72.56
370.27	163.84
370.47	182.56
370.66	372.15
370.86	386.19
371.06	395.55
371.25	533.64
371.45	540.66
371.65	411.93
371.84	491.51
372.04	393.21
372.24	449.38
372.44	505.56
372.63	482.15
372.83	433.00
373.03	505.56
373.22	519.60
373.42	561.73
373.62	470.45
373.81	554.71
374.01	493.85
374.21	521.94
374.40	526.62
374.60	566.41
374.79	531.30
374.99	587.47
375.19	580.45
375.38	514.92
375.58	594.50
375.78	585.13
375.97	559.39
376.17	620.24
376.37	594.50
376.56	610.88
376.76	557.05
376.95	575.77
377.15	575.77
377.35	641.31
377.54	643.65
377.74	552.37
377.93	538.32
378.13	655.35
378.33	692.80
378.52	662.37
378.72	627.26
378.91	643.65
379.11	650.67
379.31	564.07
379.50	592.16
379.70	582.79
379.89	690.46
380.09	589.82
380.28	634.29
380.48	688.12
380.68	660.03
380.87	655.35
381.07	657.69
381.26	634.29
381.46	643.65
381.65	650.67
381.85	681.10
382.04	685.78
382.24	662.37
382.43	648.33
382.63	657.69
382.83	648.33
383.02	730.25
383.22	650.67
383.41	725.57
383.61	732.59
383.80	863.66
384.00	723.23
384.19	723.23
384.39	695.14
384.58	821.53
384.78	784.08
384.97	755.99
385.17	774.72
385.36	777.06
385.56	758.33
385.75	753.65
385.95	702.16
386.14	727.91
386.34	805.14
386.53	779.40
386.72	851.96
386.92	800.46
387.11	779.40
387.31	821.53
387.50	770.04
387.70	851.96
387.89	875.36
388.09	812.17
388.28	802.80
388.48	861.32
388.67	856.64
388.86	891.74
389.06	912.81
389.25	922.17
389.45	915.15
389.64	823.87
389.84	917.49
390.03	964.30
390.22	1018.13
390.42	875.36
390.61	950.26
390.81	919.83
391.00	947.92
391.19	940.90
391.39	917.49
391.58	903.45
391.78	994.73
391.97	957.28
392.16	1050.90
392.36	1074.31
392.55	924.51
392.75	950.26
392.94	954.94
393.13	1001.75
393.33	898.77
393.52	1008.77
393.71	1071.97
393.91	957.28
394.10	1029.84
394.29	1109.41
394.49	1032.18
394.68	1100.05
394.88	1118.78
395.07	1163.25
395.26	1132.82
395.46	1139.84
395.65	1100.05
395.84	1043.88
396.04	1109.41
396.23	1062.60
396.42	1083.67
396.62	1121.12
396.81	1118.78
397.00	1146.86
397.19	1118.78
397.39	1273.25
397.58	1240.48
397.77	1198.35
397.97	1238.14
398.16	1306.02
398.35	1345.81
398.55	1235.80
398.74	1334.11
398.93	1371.55
399.12	1376.24
399.32	1345.81
399.51	1355.17
399.70	1317.72
399.90	1418.36
400.09	1397.30
400.28	1551.78
400.47	1467.52
400.67	1469.86
400.86	1462.83
401.05	1502.62
401.24	1479.22
401.44	1521.35
401.63	1654.76
401.82	1650.08
402.01	1504.96
402.21	1584.54
402.40	1584.54
402.59	1638.38
402.78	1540.07
402.97	1661.78
403.17	1629.01
403.36	1593.90
403.55	1558.80
403.74	1701.57
403.93	1624.33
404.13	1748.38
404.32	1699.23
404.51	1706.25
404.70	1640.72
404.89	1760.08
405.09	1790.51
405.28	1809.23
405.47	1813.92
405.66	1811.57
405.85	1760.08
406.05	1720.29
406.24	1834.98
406.43	1923.92
406.62	1919.24
406.81	1944.99
407.00	1853.70
407.20	1802.21
407.39	1881.79
407.58	1921.58
407.77	1935.62
407.96	2026.90
408.15	1933.28
408.34	2012.86
408.54	2066.69
408.73	1980.09
408.92	1975.41
409.11	2085.42
409.30	2239.89
409.49	2080.74
409.68	2057.33
409.87	2111.16
410.07	2104.14
410.26	2132.23
410.45	2132.23
410.64	2047.97
410.83	2293.72
411.02	2237.55
411.21	2331.17
411.40	2284.36
411.59	2317.13
411.78	2326.49
411.98	2361.60
412.17	2459.90
412.36	2282.02
412.55	2345.22
412.74	2537.14
412.93	2581.61
413.12	2527.78
413.31	2612.04
413.50	2569.91
413.69	2612.04
413.88	2576.93
414.07	2495.01
414.26	2764.17
414.45	2724.38
414.64	2764.17
414.83	2750.13
415.02	2679.91
415.22	2836.73
415.41	2951.42
415.60	2902.26
415.79	2902.26
415.98	2909.29
416.17	3002.91
416.36	2925.67
416.55	2899.92
416.74	2946.73
416.93	2892.90
417.12	2977.16
417.31	3021.63
417.50	3112.91
417.69	3122.27
417.88	3157.38
418.07	3075.46
418.26	3119.93
418.45	3176.11
418.64	3248.66
418.83	3363.35
419.02	3302.50
419.21	3337.60
419.39	3351.65
419.58	3274.41
419.77	3269.73
419.96	3398.46
420.15	3449.95
420.34	3321.22
420.53	3396.12
420.72	3590.38
420.91	3442.93
421.10	3482.72
421.29	3417.18
421.48	3473.36
421.67	3478.04
421.86	3499.10
422.05	3543.57
422.24	3499.10
422.43	3578.68
422.61	3545.91
422.80	3623.15
422.99	3684.00
423.18	3583.36
423.37	3672.30
423.56	3667.62
423.75	3646.55
423.94	3478.04
424.13	3480.38
424.32	3494.42
424.50	3730.81
424.69	3723.79
424.88	3730.81
425.07	3536.55
425.26	3438.25
425.45	3632.51
425.64	3468.67
425.83	3562.30
426.01	3777.62
426.20	3597.40
426.39	3742.52
426.58	3653.58
426.77	3637.19
426.96	3728.47
427.15	3740.18
427.33	3737.84
427.52	3779.97
427.71	3707.41
427.90	3847.84
428.09	3805.71
428.28	3810.39
428.46	3847.84
428.65	3850.18
428.84	3953.16
429.03	3873.59
429.22	3728.47
429.40	3803.37
429.59	3892.31
429.78	3705.07
429.97	3817.41
430.16	3794.01
430.34	3859.54
430.53	3929.76
430.72	3953.16
430.91	3868.91
431.10	4007.00
431.28	4187.22
431.47	4273.82
431.66	4294.88
431.85	4173.18
432.03	4332.33
432.22	4390.84
432.41	4166.15
432.60	4219.99
432.79	4285.52
432.97	4276.16
433.16	4447.02
433.35	4290.20
433.54	4327.65
433.72	4470.42
433.91	4182.54
434.10	4468.08
434.28	4285.52
434.47	4437.66
434.66	4470.42
434.85	4475.10
435.03	4470.42
435.22	4699.80
435.41	4685.75
435.59	4688.09
435.78	4725.54
435.97	4657.67
436.16	4732.56
436.34	4681.07
436.53	4671.71
436.72	4739.58
436.90	4681.07
437.09	4753.63
437.28	4842.57
437.46	4814.48
437.65	4688.09
437.84	4784.06
438.02	4795.76
438.21	4779.37
438.40	4779.37
438.58	4997.04
438.77	5093.01
438.96	5039.17
439.14	5076.62
439.33	5320.04
439.52	5203.01
439.70	5095.35
439.89	5313.02
440.08	5270.89
440.26	5289.61
440.45	5294.29
440.63	5378.55
440.82	5458.13
441.01	5493.24
441.19	5540.05
441.38	5591.54
441.57	5533.03
441.75	5746.02
441.94	5731.97
442.12	5713.25
442.31	5678.14
442.50	5753.04
442.68	5844.32
442.87	5956.66
443.05	5980.07
443.24	5968.37
443.43	5853.68
443.61	5720.27
443.80	6054.97
443.98	5753.04
444.17	5591.54
444.35	5916.87
444.54	5975.39
444.73	6022.20
444.91	5930.92
445.10	6010.50
445.28	5963.68
445.47	5783.46
445.65	5837.30
445.84	5959.00
446.02	6057.31
446.21	5975.39
446.39	6064.33
446.58	6157.95
446.77	6207.10
446.95	6045.60
447.14	6104.12
447.32	6256.25
447.51	6012.84
447.69	5954.32
447.88	6181.35
448.06	6321.79
448.25	6139.23
448.43	6197.74
448.62	6146.25
448.80	6160.29
448.99	6303.06
449.17	6300.72
449.36	6282.00
449.54	6349.87
449.73	6436.47
449.91	6576.91
450.10	6502.01
450.28	6602.65
450.46	6604.99
450.65	6562.86
450.83	6392.00
451.02	6438.81
451.20	6668.19
451.39	6410.73
451.57	6609.67
451.76	6595.63
451.94	6581.59
452.13	6609.67
452.31	6633.08
452.49	6422.43
452.68	6670.53
452.86	6534.78
453.05	6590.95
453.23	6736.06
453.42	6888.20
453.60	6670.53
453.78	6892.88
453.97	6743.08
454.15	6740.74
454.34	6850.75
454.52	6890.54
454.70	6967.77
454.89	7068.42
455.07	7023.95
455.26	7033.31
455.44	6974.80
455.62	6944.37
455.81	7030.97
455.99	7295.45
456.17	7028.63
456.36	7180.76
456.54	7063.74
456.73	7185.44
456.91	7454.61
457.09	7391.41
457.28	7330.56
457.46	7487.37
457.64	7550.57
457.83	7478.01
458.01	7424.18
458.19	7588.02
458.38	7398.43
458.56	7662.91
458.74	7623.12
458.93	7578.65
459.11	7548.23
459.29	7740.15
459.48	7702.70
459.66	7623.12
459.84	7861.86
460.03	7913.35
460.21	7735.47
460.39	7852.50
460.57	7571.63
460.76	7847.82
460.94	8152.09
461.12	8006.97
461.31	8018.68
461.49	7969.52
461.67	7964.84
461.85	8189.53
462.04	8229.32
462.22	8152.09
462.40	8248.05
462.59	8299.54
462.77	8191.88
462.95	8116.98
463.13	7992.93
463.32	8084.21
463.50	8313.58
463.68	8348.69
463.86	8205.92
464.05	8133.36
464.23	8276.13
464.41	8243.37
464.59	8175.49
464.78	8486.78
464.96	8428.27
465.14	8458.70
465.32	8388.48
465.50	8615.51
465.69	8755.94
465.87	8596.79
466.05	8517.21
466.23	8325.29
466.41	8538.27
466.60	8568.70
466.78	8648.28
466.96	8505.51
467.14	8601.47
467.32	8704.45
467.51	8692.75
467.69	8402.52
467.87	8667.00
468.05	8858.93
468.23	8854.25
468.41	8833.18
468.60	8947.87
468.78	8854.25
468.96	8896.38
469.14	9006.38
469.32	9048.51
469.50	8968.93
469.69	9069.58
469.87	8936.17
470.05	9027.45
470.23	9053.19
470.41	8915.10
470.59	9074.26
470.77	9008.72
470.95	9202.99
471.14	9373.85
471.32	9067.24
471.50	9540.02
471.68	9469.81
471.86	9418.32
472.04	9750.67
472.22	10057.28
472.40	9687.48
472.58	9511.94
472.77	9685.14
472.95	9771.74
473.13	9966.00
473.31	9668.75
473.49	9582.15
473.67	9872.38
473.85	9823.23
474.03	9940.26
474.21	10249.21
474.39	10333.47
474.57	10321.76
474.75	10459.85
474.93	10324.10
475.12	10384.96
475.30	10389.64
475.48	10249.21
475.66	10661.14
475.84	10548.79
476.02	10623.69
476.20	10579.22
476.38	10597.95
476.56	11185.42
476.74	10920.94
476.92	10991.16
477.10	11070.73
477.28	11330.53
477.46	10923.28
477.64	11342.24
477.82	11342.24
478.00	11583.31
478.18	11709.70
478.36	11726.08
478.54	11660.55
478.72	11749.49
478.90	11758.85
479.08	12051.42
479.26	12241.00
479.44	12404.84
479.62	11985.88
479.80	12306.54
479.98	12601.44
480.16	12533.57
480.34	12561.66
480.52	12514.84
480.70	12711.45
480.88	12664.64
481.06	13013.38
481.24	12856.56
481.41	13163.17
481.59	13537.66
481.77	13324.67
481.95	13446.38
482.13	13586.81
482.31	13373.82
482.49	13774.05
482.67	13724.90
482.85	13706.18
483.03	14195.35
483.21	14015.13
483.39	14368.55
483.57	14202.37
483.74	14403.66
483.92	14457.49
484.10	14480.89
484.28	14537.07
484.46	14707.93
484.64	15042.62
484.82	14672.82
485.00	14937.30
485.18	15264.97
485.35	15473.28
485.53	15094.11
485.71	15548.18
485.89	15419.45
486.07	15510.73
486.25	15896.92
486.43	16039.69
486.61	15983.52
486.78	16002.24
486.96	16306.51
487.14	16851.86
487.32	16578.01
487.50	16606.10
487.68	16968.88
487.85	16833.13
488.03	17039.10
488.21	17287.20
488.39	17165.49
488.57	17233.36
488.75	17628.92
488.92	17509.55
489.10	17930.84
489.28	17781.05
489.46	18621.30
489.64	18487.89
489.81	18618.96
489.99	18885.78
490.17	18867.06
490.35	18920.89
490.53	18827.27
490.70	19363.25
490.88	19075.37
491.06	19302.40
491.24	19047.28
491.41	19330.48
491.59	19693.27
491.77	19487.30
491.95	19726.04
492.13	20011.58
492.30	20243.29
492.48	20201.16
492.66	20276.06
492.84	20311.17
493.01	20711.40
493.19	20580.33
493.37	21135.04
493.54	20966.52
493.72	21156.10
493.90	21050.78
494.08	21106.95
494.25	21336.32
494.43	21572.72
494.61	21853.58
494.79	21888.69
494.96	21781.03
495.14	21961.25
495.32	22089.98
495.49	22029.12
495.67	22314.67
495.85	22270.20
496.02	22654.05
496.20	22803.84
496.38	22803.84
496.55	23056.62
496.73	23555.15
496.91	22876.40
497.09	23152.58
497.26	23824.31
497.44	23073.00
497.62	23669.84
497.79	23934.32
497.97	23440.47
498.14	23929.64
498.32	23941.34
498.50	24231.57
498.67	24322.85
498.85	24297.10
499.03	24702.01
499.20	24479.66
499.38	24343.91
499.56	24755.85
499.73	25039.05
499.91	24931.39
500.08	25261.40
500.26	24477.32
500.44	24884.58
500.61	24992.24
500.79	25135.01
500.97	25223.95
501.14	25818.45
501.32	25558.65
501.49	25479.07
501.67	25422.90
501.84	25949.52
502.02	25778.66
502.20	26106.34
502.37	26096.97
502.55	26139.10
502.72	26185.91
502.90	26279.54
503.07	26536.99
503.25	26307.62
503.43	26192.94
503.60	26747.64
503.78	26728.92
503.95	26888.07
504.13	27166.60
504.30	27026.17
504.48	26988.72
504.65	26782.75
504.83	27292.99
505.01	27363.20
505.18	27307.03
505.36	27433.42
505.53	27536.40
505.71	27845.35
505.88	28046.64
506.06	27520.02
506.23	27793.86
506.41	27967.06
506.58	27892.16
506.76	28088.77
506.93	28147.28
507.11	27999.83
507.28	28276.01
507.46	28067.70
507.63	28421.13
507.81	28765.18
507.98	28407.08
508.16	28559.22
508.33	28989.88
508.50	28765.18
508.68	28919.66
508.85	29071.79
509.03	29364.36
509.20	29413.51
509.38	29298.83
509.55	29493.09
509.73	28830.72
509.90	29612.46
510.08	29689.70
510.25	29771.61
510.42	29687.36
510.60	29823.11
510.77	30038.44
510.95	30235.04
511.12	30260.79
511.30	30490.16
511.47	30452.71
511.64	30909.11
511.82	30452.71
511.99	30340.36
512.17	30331.00
512.34	30267.81
512.51	30782.73
512.69	31037.84
512.86	30979.33
513.04	31276.58
513.21	31311.69
513.38	31047.21
513.56	31033.16
513.73	30986.35
513.90	31292.96
514.08	31323.39
514.25	31101.04
514.43	31449.78
514.60	31754.05
514.77	31700.22
514.95	31512.97
515.12	31723.62
515.29	31894.48
515.47	32446.85
515.64	32100.45
515.81	31817.24
515.99	32259.60
516.16	31967.04
516.33	32067.68
516.51	32388.33
516.68	32060.66
516.85	32088.74
517.03	32208.11
517.20	32173.00
517.37	32521.74
517.54	32613.02
517.72	32596.64
517.89	32500.68
518.06	32402.38
518.24	32584.94
518.41	32716.01
518.58	32769.84
518.75	32718.35
518.93	32989.85
519.10	32683.24
519.27	32917.29
519.45	32994.53
519.62	33439.23
519.79	33425.19
519.96	33387.74
520.14	33668.61
520.31	33635.84
520.48	33837.12
520.65	33347.95
520.83	33872.23
521.00	34218.63
521.17	34108.63
521.34	34309.91
521.52	34478.43
521.69	34614.18
521.86	34635.25
522.03	34403.53
522.20	34462.05
522.38	34220.97
522.55	34991.01
522.72	34553.33
522.89	34609.50
523.07	34660.99
523.24	34298.21
523.41	35278.89
523.58	34829.51
523.75	35246.13
523.92	35098.67
524.10	35117.40
524.27	35747.00
524.44	34976.97
524.61	35133.78
524.78	35622.95
524.96	35248.47
525.13	35782.11
525.30	35531.67
525.47	35637.00
525.64	36311.07
525.81	36252.56
525.98	35285.92
526.16	36041.91
526.33	35885.09
526.50	35887.43
526.67	35983.40
526.84	35749.34
527.01	35770.41
527.18	36325.11
527.36	36130.85
527.53	36514.70
527.70	36769.82
527.87	36404.69
528.04	36451.50
528.21	36442.14
528.38	36514.70
528.55	37008.55
528.72	36968.76
528.89	37172.39
529.07	36753.43
529.24	36699.60
529.41	36500.65
529.58	36847.05
529.75	36605.98
529.92	37067.06
530.09	37097.49
530.26	37479.00
530.43	37333.89
530.60	36938.33
530.77	37663.90
530.94	37558.58
531.11	37153.66
531.28	37413.46
531.46	37755.18
531.63	37865.19
531.80	37273.03
531.97	37509.43
532.14	37874.55
532.31	37361.97
532.48	37844.12
532.65	37642.84
532.82	37720.07
532.99	38352.02
533.16	37581.98
533.33	38087.54
533.50	38312.23
533.67	38110.94
533.84	38284.14
534.01	38391.81
534.18	37989.24
534.35	38492.45
534.52	38316.91
534.69	38808.42
534.86	38593.09
535.03	38607.14
535.20	39016.73
535.37	39105.67
535.54	38707.78
535.71	38892.68
535.88	38703.10
536.05	38223.29
536.22	38960.56
536.38	39089.29
536.55	38972.26
536.72	38850.55
536.89	39323.34
537.06	39089.29
537.23	39063.54
537.40	39365.47
537.57	39164.18
537.74	39098.65
537.91	39725.91
538.08	39342.06
538.25	38876.30
538.42	39208.65
538.59	39395.90
538.75	39213.34
538.92	39318.66
539.09	39461.43
539.26	39875.71
539.43	39667.40
539.60	39864.00
539.77	39599.52
539.94	39725.91
540.11	39594.84
540.28	39531.65
540.44	39817.19
540.61	39515.26
540.78	39864.00
540.95	39840.60
541.12	39594.84
541.29	39831.24
541.46	40032.52
541.62	39714.21
541.79	40226.79
541.96	39990.39
542.13	40025.50
542.30	40189.34
542.47	40268.92
542.63	40154.23
542.80	40470.20
542.97	41060.02
543.14	41038.95
543.31	40374.24
543.48	40687.87
543.64	41610.04
543.81	40655.11
543.98	41247.26
544.15	40858.73
544.32	41251.94
544.48	41383.01
544.65	41235.56
544.82	41230.88
544.99	40987.46
545.16	41090.44
545.32	41584.30
545.49	41586.64
545.66	41659.20
545.83	41240.24
546.00	41720.05
546.16	41193.43
546.33	41432.16
546.50	41090.44
546.67	41500.04
546.83	41350.24
547.00	41319.82
547.17	41703.67
547.34	41394.71
547.50	41668.56
547.67	41853.46
547.84	42057.09
548.00	41764.52
548.17	41897.93
548.34	42139.00
548.51	42021.98
548.67	41970.49
548.84	41874.52
549.01	42024.32
549.18	41928.36
549.34	41778.56
549.51	42178.79
549.68	42122.62
549.84	42183.48
550.01	42707.76
550.18	42234.97
550.34	42618.81
550.51	42396.46
550.68	42445.62
550.84	42232.63
551.01	42344.97
551.18	42536.90
551.34	42237.31
551.51	42550.94
551.68	42485.40
551.84	42859.89
552.01	42487.74
552.18	42225.60
552.34	42408.17
552.51	42820.10
552.68	42424.55
552.84	43206.29
553.01	42677.33
553.18	42794.36
553.34	42965.21
553.51	42403.49
553.67	42997.98
553.84	43187.56
554.01	43185.22
554.17	43122.03
554.34	43014.37
554.51	42958.19
554.67	43442.68
554.84	43182.88
555.00	43201.61
555.17	42824.78
555.33	43119.69
555.50	43189.91
555.67	43461.41
555.83	43086.92
556.00	43159.48
556.16	43573.75
556.33	43374.81
556.50	43452.05
556.66	43138.41
556.83	43297.57
556.99	43480.13
557.16	43452.05
557.32	43655.67
557.49	43901.43
557.65	43084.58
557.82	43473.11
557.98	43658.01
558.15	43023.73
558.32	43566.73
558.48	43533.96
558.65	43564.39
558.81	43344.38
558.98	43325.66
559.14	43662.69
559.31	43426.30
559.47	43735.25
559.64	43901.43
559.80	44304.00
559.97	43320.98
560.13	43295.23
560.30	43449.70
560.46	43519.92
560.63	43945.90
560.79	43934.20
560.96	43494.18
561.12	43510.56
561.29	44041.86
561.45	43782.06
561.61	44060.58
561.78	43863.98
561.94	43636.95
562.11	43985.69
562.27	44095.69
562.44	44091.01
562.60	44114.42
562.77	44315.70
562.93	43803.13
563.10	44018.46
563.26	43901.43
563.42	44271.23
563.59	44058.24
563.75	44233.78
563.92	44542.74
564.08	44414.01
564.24	44542.74
564.41	44053.56
564.57	44065.27
564.74	43995.05
564.90	44194.00
565.07	43927.17
565.23	44304.00
565.39	43840.57
565.56	44093.35
565.72	44252.51
565.88	44334.43
566.05	44128.46
566.21	44037.18
566.38	44140.16
566.54	44179.95
566.70	44711.25
566.87	44715.93
567.03	44404.64
567.19	44924.24
567.36	44430.39
567.52	44758.06
567.68	44449.11
567.85	44126.12
568.01	44201.02
568.17	44058.24
568.34	44404.64
568.50	44105.06
568.66	44245.49
568.83	44577.84
568.99	44016.11
569.15	44086.33
569.32	44343.79
569.48	44392.94
569.64	44411.67
569.81	44608.27
569.97	44645.72
570.13	44392.94
570.30	44329.75
570.46	44067.61
570.62	44584.86
570.78	44514.65
570.95	44158.89
571.11	44449.11
571.27	44100.37
571.43	44332.09
571.60	44568.48
571.76	44612.95
571.92	44460.82
572.09	44540.39
572.25	44542.74
572.41	44524.01
572.57	44994.46
572.74	44926.58
572.90	44498.26
573.06	44666.78
573.22	44900.84
573.38	44701.89
573.55	44505.29
573.71	44741.68
573.87	44383.58
574.03	44734.66
574.20	44573.16
574.36	44184.63
574.52	44151.87
574.68	44655.08
574.84	44619.97
575.01	44741.68
575.17	44580.18
575.33	44257.19
575.49	44189.31
575.65	44982.76
575.82	44917.22
575.98	44678.49
576.14	45015.52
576.30	44643.38
576.46	44814.24
576.62	44423.37
576.79	44371.88
576.95	44526.35
577.11	44662.10
577.27	44823.60
577.43	44797.85
577.59	44715.93
577.75	44423.37
577.92	44271.23
578.08	44240.81
578.24	44631.68
578.40	44432.73
578.56	44556.78
578.72	44725.30
578.88	44823.60
579.04	45027.23
579.21	44821.26
579.37	44636.36
579.53	45088.08
579.69	44519.33
579.85	44844.66
580.01	44442.09
580.17	44945.31
580.33	45132.55
580.49	44907.86
580.65	45123.19
580.82	44973.39
580.98	45195.74
581.14	44729.98
581.30	44935.95
581.46	44694.87
581.62	44949.99
581.78	44788.49
581.94	44987.44
582.10	44596.57
582.26	44659.76
582.42	44357.83
582.58	44458.48
582.74	44643.38
582.90	45258.94
583.06	44861.05
583.22	44959.35
583.38	45223.83
583.54	45263.62
583.70	45001.48
583.86	44603.59
584.02	44708.91
584.18	45123.19
584.34	44910.20
584.50	44921.90
584.66	44940.63
584.82	44664.44
584.98	45434.48
585.14	45249.58
585.30	44554.44
585.46	44889.13
585.62	44348.47
585.78	45022.54
585.94	44514.65
586.10	45181.70
586.26	44725.30
586.42	45200.43
586.58	44905.52
586.74	44758.06
586.90	44535.71
587.06	44863.39
587.22	44870.41
587.38	44479.54
587.54	44978.07
587.70	44938.29
587.86	45085.74
588.02	44856.37
588.18	44947.65
588.34	45043.61
588.49	44685.51
588.65	44280.60
588.81	44411.67
588.97	44732.32
589.13	44758.06
589.29	44491.24
589.45	44795.51
589.61	45038.93
589.77	45401.71
589.93	45223.83
590.08	45134.89
590.24	44868.07
590.40	45350.22
590.56	45268.30
590.72	45059.99
590.88	45200.43
591.04	44917.22
591.20	45539.80
591.35	45277.66
591.51	45581.93
591.67	44896.16
591.83	45221.49
591.99	44868.07
592.15	44863.39
592.31	44652.74
592.46	44985.10
592.62	45263.62
592.78	45240.21
592.94	45794.92
593.10	45282.34
593.26	45125.53
593.41	45312.77
593.57	44985.10
593.73	45167.66
593.89	45099.78
594.05	45172.34
594.20	45010.84
594.36	45207.45
594.52	45467.25
594.68	44905.52
594.84	44844.66
594.99	45696.62
595.15	44832.96
595.31	45336.18
595.47	45099.78
595.62	44781.47
595.78	45244.90
595.94	45502.35
596.10	45490.65
596.25	45556.19
596.41	45694.28
596.57	45153.62
596.73	45717.68
596.88	44896.16
597.04	45448.52
597.20	44851.69
597.36	45134.89
597.51	45705.98
597.67	45708.32
597.83	45291.71
597.99	45198.09
598.14	45340.86
598.30	45141.91
598.46	44926.58
598.61	45268.30
598.77	45001.48
598.93	45001.48
599.09	45153.62
599.24	45832.37
599.40	45572.57
599.56	45184.04
599.71	45155.96
599.87	45560.87
600.03	45277.66
600.18	45226.17
600.34	45170.00
600.50	45322.13
600.65	45268.30
600.81	45492.99
600.97	45855.78
601.12	45256.60
601.28	45347.88
601.44	44772.11
601.59	45181.70
601.75	44959.35
601.91	45170.00
602.06	45123.19
602.22	45067.02
602.37	45397.03
602.53	45361.92
602.69	45682.58
602.84	45102.12
603.00	44788.49
603.16	44978.07
603.31	45291.71
603.47	45254.26
603.62	45172.34
603.78	45228.51
603.94	45450.86
604.09	45443.84
604.25	45488.31
604.40	45464.91
604.56	44996.80
604.71	45221.49
604.87	45291.71
605.03	45254.26
605.18	44666.78
605.34	44722.96
605.49	45027.23
605.65	45132.55
605.80	44772.11
605.96	45319.79
606.12	44952.33
606.27	45329.16
606.43	45036.59
606.58	45125.53
606.74	45071.70
606.89	44502.95
607.05	45036.59
607.20	45109.14
607.36	45059.99
607.51	45233.19
607.67	44837.64
607.82	45081.06
607.98	45296.39
608.13	44879.77
608.29	44985.10
608.44	44390.60
608.60	44636.36
608.75	44428.05
608.91	44765.09
609.06	44914.88
609.22	45368.94
609.37	44732.32
609.53	44554.44
609.68	44479.54
609.84	44327.41
609.99	44729.98
610.15	44439.75
610.30	44463.16
610.46	44598.91
610.61	44655.08
610.76	44989.78
610.92	44664.44
611.07	44573.16
611.23	44692.53
611.38	44624.65
611.54	44395.28
611.69	44442.09
611.84	44264.21
612.00	44311.02
612.15	43908.45
612.31	44514.65
612.46	44308.68
612.62	44460.82
612.77	44737.00
612.92	44879.77
613.08	44385.92
613.23	44128.46
613.39	44549.76
613.54	44275.91
613.69	44175.27
613.85	44367.20
614.00	44233.78
614.15	44491.24
614.31	44327.41
614.46	44306.34
614.62	44395.28
614.77	44329.75
614.92	44346.13
615.08	43920.15
615.23	43622.90
615.38	43969.30
615.54	43768.02
615.69	43484.81
615.84	43641.63
616.00	43583.12
616.15	44034.84
616.30	43826.53
616.46	43917.81
616.61	43552.69
616.76	43456.73
616.92	43583.12
617.07	43400.55
617.22	43833.55
617.37	43524.60
617.53	43828.87
617.68	43927.17
617.83	43779.72
617.99	44163.57
618.14	43421.62
618.29	43976.33
618.45	43639.29
618.60	43281.19
618.75	43430.98
618.90	43459.07
619.06	43477.79
619.21	43667.37
619.36	44240.81
619.51	43557.37
619.67	43400.55
619.82	43817.17
619.97	43742.27
620.12	43419.28
620.28	42941.81
620.43	43533.96
620.58	43269.48
620.73	43232.04
620.89	43438.00
621.04	43239.06
621.19	43164.16
621.34	43248.42
621.49	43210.97
621.65	43028.41
621.80	43217.99
621.95	42787.33
622.10	42562.64
622.25	42735.84
622.41	42759.25
622.56	42394.12
622.71	43009.68
622.86	42761.59
623.01	42700.73
623.16	43058.84
623.32	42831.80
623.47	42871.59
623.62	42639.88
623.77	42754.57
623.92	42878.61
624.07	42061.77
624.23	42351.99
624.38	42824.78
624.53	42169.43
624.68	42480.72
624.83	42705.41
624.98	42937.13
625.13	42471.36
625.29	42562.64
625.44	42401.14
625.59	42244.33
625.74	42265.39
625.89	41989.21
626.04	42288.80
626.19	42223.26
626.34	42361.36
626.49	42190.50
626.65	42305.18
626.80	42244.33
626.95	42230.29
627.10	42066.45
627.25	42021.98
627.40	41961.12
627.55	41897.93
627.70	41467.27
627.85	42139.00
628.00	41668.56
628.15	41682.60
628.30	41897.93
628.45	42328.59
628.60	41797.29
628.76	42263.05
628.91	41869.84
629.06	41727.07
629.21	41446.21
629.36	41947.08
629.51	41656.85
629.66	41411.10
629.81	41247.26
629.96	41476.63
630.11	41696.64
630.26	41764.52
630.41	41572.60
630.56	41743.45
630.71	41481.31
630.86	41357.27
631.01	40617.66
631.16	41329.18
631.31	40910.22
631.46	41022.57
631.61	41221.52
631.76	41099.81
631.91	41390.03
632.06	41060.02
632.21	41553.87
632.36	41738.77
632.51	41312.80
632.66	41322.16
632.81	40722.98
632.96	40699.58
633.10	40753.41
633.25	41179.39
633.40	41074.06
633.55	41109.17
633.70	40737.02
633.85	40615.32
634.00	40790.86
634.15	41181.73
634.30	41179.39
634.45	41031.93
634.60	40926.61
634.75	40858.73
634.90	40594.25
635.05	40924.27
635.19	40360.20
635.34	40655.11
635.49	40610.64
635.64	40404.67
635.79	40673.83
635.94	40690.21
636.09	40680.85
636.24	40442.12
636.39	40006.78
636.53	40364.88
636.68	40442.12
636.83	40362.54
636.98	40203.38
637.13	40259.55
637.28	40430.41
637.43	40636.38
637.57	40584.89
637.72	40257.21
637.87	39922.52
638.02	40233.81
638.17	40182.32
638.32	40058.27
638.46	39814.85
638.61	40048.91
638.76	40137.85
638.91	40439.78
639.06	40280.62
639.20	39831.24
639.35	40371.90
639.50	40084.01
639.65	40301.68
639.80	40170.61
639.94	40268.92
640.09	40102.74
640.24	39800.81
640.39	39459.09
640.54	39711.87
640.68	39735.27
640.83	40114.44
640.98	39880.39
641.13	39328.02
641.27	39927.20
641.42	39643.99
641.57	39906.13
641.72	39618.25
641.86	39173.55
642.01	39159.50
642.16	39791.45
642.31	39023.75
642.45	39641.65
642.60	39426.32
642.75	39276.53
642.90	39253.12
643.04	39475.48
643.19	39007.37
643.34	39428.66
643.48	39260.15
643.63	39189.93
643.78	38885.66
643.93	38387.13
644.07	38862.26
644.22	38714.80
644.37	38785.02
644.51	39182.91
644.66	39510.58
644.81	39613.57
644.95	38920.77
645.10	39363.13
645.25	39276.53
645.39	38892.68
645.54	39318.66
645.69	38616.50
645.83	38625.86
645.98	38967.58
646.13	38911.41
646.27	38878.64
646.42	38845.87
646.57	38761.61
646.71	38813.10
646.86	38539.26
647.00	38363.72
647.15	38904.38
647.30	38337.98
647.44	38195.20
647.59	38684.37
647.74	38298.19
647.88	38117.96
648.03	38684.37
648.17	39014.39
648.32	38565.01
648.47	38204.56
648.61	37794.97
648.76	38469.04
648.90	38244.35
649.05	38312.23
649.20	38487.77
649.34	38366.06
649.49	38178.82
649.63	38253.72
649.78	37766.88
649.92	37963.49
650.07	38473.73
650.21	38522.88
650.36	38150.73
650.51	37659.22
650.65	38611.82
650.80	38625.86
650.94	38522.88
651.09	38508.83
651.23	38108.60
651.38	38178.82
651.52	37792.63
651.67	37483.68
651.81	37684.97
651.96	37694.33
652.10	37853.48
652.25	37333.89
652.39	38029.02
652.54	37668.58
652.68	37888.59
652.83	37982.21
652.97	37633.47
653.12	37640.50
653.26	37518.79
653.41	37656.88
653.55	37322.18
653.70	37488.36
653.84	37567.94
653.99	37516.45
654.13	37605.39
654.27	37441.55
654.42	37296.44
654.56	37383.04
654.71	37535.17
654.85	37326.86
655.00	37549.21
655.14	37046.00
655.29	37427.51
655.43	37193.45
655.57	36893.86
655.72	36486.61
655.86	36388.31
656.01	37006.21
656.15	36741.73
656.30	36772.16
656.44	37148.98
656.58	36790.88
656.73	36491.29
656.87	36582.57
657.01	36809.61
657.16	36715.98
657.30	36844.71
657.45	36786.20
657.59	36540.44
657.73	36692.58
657.88	37111.53
658.02	36973.44
658.16	37085.79
658.31	36783.86
658.45	36641.09
658.60	36526.40
658.74	36833.01
658.88	36142.55
659.03	36194.04
659.17	36442.14
659.31	36088.72
659.46	36123.83
659.60	36336.82
659.74	36077.02
659.89	36355.54
660.03	36273.62
660.17	36196.38
660.32	36493.63
660.46	36254.90
660.60	35817.22
660.74	35702.53
660.89	36175.32
661.03	35852.33
661.17	35526.99
661.32	35409.96
661.46	35737.64
661.60	35899.14
661.74	35658.06
661.89	35470.82
662.03	35702.53
662.17	35545.72
662.31	35023.78
662.46	35402.94
662.60	35419.33
662.74	35622.95
662.88	35161.87
663.03	34768.66
663.17	34998.03
663.31	34707.80
663.45	34806.11
663.60	35056.54
663.74	35260.17
663.88	34850.58
664.02	34836.53
664.17	34995.69
664.31	34789.72
664.45	34951.22
664.59	34539.29
664.73	34691.42
664.88	34611.84
665.02	34710.14
665.16	34635.25
665.30	34763.98
665.44	34478.43
665.59	34478.43
665.73	34354.38
665.87	34370.77
666.01	34302.89
666.15	34286.51
666.29	33958.83
666.44	34108.63
666.58	34153.10
666.72	34005.64
666.86	33935.43
667.00	33970.54
667.14	33593.71
667.28	33558.60
667.43	33795.00
667.57	33488.38
667.71	33422.85
667.85	33654.56
667.99	33680.31
668.13	33586.69
668.27	33422.85
668.41	33359.66
668.56	33223.90
668.70	33614.77
668.84	33577.33
668.98	33088.15
669.12	32807.29
669.26	32863.46
669.40	32804.95
669.54	33130.28
669.68	32584.94
669.82	32774.52
669.96	32486.64
670.10	32751.12
670.25	32957.08
670.39	32559.19
670.53	32549.83
670.67	32662.18
670.81	32397.70
670.95	32708.99
671.09	32180.03
671.23	32680.90
671.37	32257.26
671.51	32194.07
671.65	31796.18
671.79	31880.44
671.93	31625.32
672.07	32093.43
672.21	31765.75
672.35	31662.77
672.49	31985.76
672.63	31835.97
672.77	31845.33
672.91	31428.71
673.05	31152.53
673.19	31641.70
673.33	31342.11
673.47	31288.28
673.61	31402.97
673.75	30675.06
673.89	30871.67
674.03	30803.79
674.17	31243.81
674.31	30618.89
674.45	30551.01
674.59	30885.71
674.73	30984.01
674.87	30637.61
675.01	30646.97
675.15	30490.16
675.29	30235.04
675.43	30665.70
675.56	30185.89
675.70	30281.85
675.84	29940.13
675.98	29319.89
676.12	29860.55
676.26	30050.14
676.40	29493.09
676.54	29577.35
676.68	29944.81
676.82	29158.39
676.96	29841.83
677.10	29858.21
677.23	29572.67
677.37	29336.27
677.51	29303.51
677.65	28929.02
677.79	28606.03
677.93	29048.39
678.07	28648.16
678.21	28425.81
678.34	28290.06
678.48	28400.06
678.62	28355.59
678.76	27915.57
678.90	27999.83
679.04	28238.56
679.18	28079.41
679.31	27983.44
679.45	27948.34
679.59	27330.44
679.73	27281.28
679.87	27300.01
680.00	27578.53
680.14	27082.34
680.28	27248.52
680.42	27290.65
680.56	27257.88
680.70	27295.33
680.83	27178.30
680.97	26946.59
681.11	27309.37
681.25	26647.00
681.39	26565.08
681.52	26902.12
681.66	26867.01
681.80	26295.92
681.94	26651.68
682.07	26443.37
682.21	26298.26
682.35	26324.01
682.49	26403.58
682.62	26253.79
682.76	26164.85
682.90	25989.31
683.04	25778.66
683.17	25687.38
683.31	25511.84
683.45	25687.38
683.59	25163.10
683.72	25174.80
683.86	25025.01
684.00	25303.53
684.13	25032.03
684.27	24863.51
684.41	24884.58
684.55	24819.04
684.68	24273.70
684.82	24758.19
684.96	24577.97
685.09	24641.16
685.23	24577.97
685.37	24545.20
685.50	24229.23
685.64	24444.56
685.78	24116.88
685.91	24056.03
686.05	23789.20
686.19	23630.05
686.32	23648.77
686.46	23126.83
686.60	22817.88
686.73	23360.89
686.87	23325.78
687.01	23138.54
687.14	22970.02
687.28	22979.38
687.42	22923.21
687.55	22864.69
687.69	22817.88
687.82	22909.16
687.96	22817.88
688.10	22869.37
688.23	22801.50
688.37	22504.25
688.50	22108.70
688.64	22216.36
688.78	22176.58
688.91	22094.66
689.05	22389.56
689.18	22438.72
689.32	21947.20
689.46	21750.60
689.59	21685.06
689.73	21984.65
689.86	22178.92
690.00	21228.66
690.13	21425.26
690.27	21486.12
690.41	21635.91
690.54	21125.68
690.68	20945.45
690.81	20833.11
690.95	20992.26
691.08	20837.79
691.22	20709.06
691.35	20856.51
691.49	20900.98
691.62	20755.87
691.76	20484.37
691.89	20163.72
692.03	20226.91
692.16	20219.89
692.30	20011.58
692.43	20198.82
692.57	19976.47
692.70	20119.24
692.84	19578.58
692.97	19594.96
693.11	19873.49
693.24	19665.18
693.38	19466.24
693.51	19449.85
693.65	19374.95
693.78	19370.27
693.92	19775.19
694.05	19260.27
694.19	19353.89
694.32	18927.91
694.45	18801.52
694.59	18506.62
694.72	18951.32
694.86	18731.31
694.99	18630.66
695.13	18635.35
695.26	18693.86
695.39	18635.35
695.53	18443.42
695.66	18647.05
695.80	18356.82
695.93	18375.55
696.07	17865.31
696.20	18216.39
696.33	18047.87
696.47	18104.04
696.60	17888.71
696.73	17685.09
696.87	17869.99
697.00	17827.86
697.14	17617.21
697.27	17385.50
697.40	17635.94
697.54	17547.00
697.67	17158.47
697.80	17228.68
697.94	16964.20
698.07	16992.29
698.21	17034.42
698.34	16872.92
698.47	16517.16
698.61	16556.95
698.74	16486.73
698.87	16367.37
699.01	16121.61
699.14	16102.89
699.27	16013.95
699.40	15985.86
699.54	16060.76
699.67	16257.36
699.80	16142.67
699.94	16102.89
700.07	15995.22
700.20	15782.23
700.34	15903.94
700.47	15777.55
700.60	15625.42
700.73	15824.36
700.87	15704.99
701.00	15290.72
701.13	15269.66
701.26	15606.69
701.40	15351.57
701.53	15145.61
701.66	15030.92
701.79	14998.15
701.93	14881.13
702.06	14897.51
702.19	14799.21
702.32	14789.85
702.46	14717.29
702.59	14473.87
702.72	14614.30
702.85	14796.87
702.99	14579.20
703.12	14527.71
703.25	14115.77
703.38	14429.40
703.51	14092.37
703.65	14108.75
703.78	14059.60
703.91	13881.72
704.04	13973.00
704.17	13788.10
704.31	13682.77
704.44	13867.67
704.57	13673.41
704.70	13579.79
704.83	13453.40
704.96	13708.52
705.10	13647.66
705.23	13448.72
>>>>>End Processed Spectral Data<<<<<
