SpectraSuite Data File
++++++++++++++++++++++++++++++++++++
Date: Fri Oct 25 10:47:24 EDT 2013
User: price-jones
Dark Spectrum Present: No
Reference Spectrum Present: No
Number of Sampled Component Spectra: 1
Spectrometers: USB2+H05261
Integration Time (usec): 100000 (USB2+H05261)
Spectra Averaged: 1 (USB2+H05261)
Boxcar Smoothing: 0 (USB2+H05261)
Correct for Electrical Dark: No (USB2+H05261)
Strobe/Lamp Enabled: No (USB2+H05261)
Correct for Detector Non-linearity: No (USB2+H05261)
Correct for Stray Light: No (USB2+H05261)
Number of Pixels in Processed Spectrum: 2048
>>>>>Begin Processed Spectral Data<<<<<
365.73	170.86
365.92	170.86
366.12	170.86
366.32	67.88
366.52	18.72
366.72	42.13
366.91	4.68
367.11	63.19
367.31	16.38
367.51	4.68
367.70	0.00
367.90	39.79
368.10	49.15
368.30	93.62
368.49	53.83
368.69	95.96
368.89	0.00
369.09	32.77
369.28	147.45
369.48	25.75
369.68	102.98
369.87	58.51
370.07	117.03
370.27	142.77
370.47	140.43
370.66	379.17
370.86	404.91
371.06	442.36
371.25	484.49
371.45	463.43
371.65	465.77
371.84	479.81
372.04	493.85
372.24	475.13
372.44	500.87
372.63	517.26
372.83	418.96
373.03	437.68
373.22	421.30
373.42	486.83
373.62	484.49
373.81	491.51
374.01	451.72
374.21	552.37
374.40	512.58
374.60	547.69
374.79	552.37
374.99	622.58
375.19	543.00
375.38	507.90
375.58	568.75
375.78	585.13
375.97	559.39
376.17	627.26
376.37	535.98
376.56	547.69
376.76	573.43
376.95	606.20
377.15	601.52
377.35	580.45
377.54	606.20
377.74	594.50
377.93	594.50
378.13	641.31
378.33	685.78
378.52	543.00
378.72	561.73
378.91	690.46
379.11	624.92
379.31	634.29
379.50	636.63
379.70	638.97
379.89	664.71
380.09	685.78
380.28	636.63
380.48	667.05
380.68	636.63
380.87	648.33
381.07	587.47
381.26	713.86
381.46	697.48
381.65	606.20
381.85	669.39
382.04	660.03
382.24	671.73
382.43	650.67
382.63	676.41
382.83	697.48
383.02	744.29
383.22	667.05
383.41	648.33
383.61	674.07
383.80	716.20
384.00	683.44
384.19	720.88
384.39	702.16
384.58	779.40
384.78	737.27
384.97	795.78
385.17	781.74
385.36	624.92
385.56	760.67
385.75	695.14
385.95	833.23
386.14	746.63
386.34	798.12
386.53	758.33
386.72	842.59
386.92	795.78
387.11	781.74
387.31	814.51
387.50	781.74
387.70	847.27
387.89	767.70
388.09	814.51
388.28	739.61
388.48	805.14
388.67	880.04
388.86	880.04
389.06	929.19
389.25	915.15
389.45	929.19
389.64	905.79
389.84	908.13
390.03	863.66
390.22	894.08
390.42	915.15
390.61	917.49
390.81	976.00
391.00	917.49
391.19	964.30
391.39	964.30
391.58	990.05
391.78	954.94
391.97	1006.43
392.16	1006.43
392.36	1088.35
392.55	997.07
392.75	924.51
392.94	947.92
393.13	961.96
393.33	945.58
393.52	1060.26
393.71	961.96
393.91	999.41
394.10	1069.62
394.29	1060.26
394.49	1041.54
394.68	1198.35
394.88	1050.90
395.07	1226.44
395.26	1088.35
395.46	1125.80
395.65	1224.10
395.84	1156.22
396.04	1184.31
396.23	1242.82
396.42	1137.50
396.62	1188.99
396.81	1109.41
397.00	1125.80
397.19	1142.18
397.39	1177.29
397.58	1303.68
397.77	1259.21
397.97	1303.68
398.16	1345.81
398.35	1275.59
398.55	1259.21
398.74	1336.45
398.93	1401.98
399.12	1366.87
399.32	1273.25
399.51	1303.68
399.70	1334.11
399.90	1394.96
400.09	1423.05
400.28	1423.05
400.47	1364.53
400.67	1453.47
400.86	1390.28
401.05	1453.47
401.24	1563.48
401.44	1507.30
401.63	1411.34
401.82	1500.28
402.01	1437.09
402.21	1504.96
402.40	1563.48
402.59	1603.27
402.78	1516.67
402.97	1535.39
403.17	1563.48
403.36	1593.90
403.55	1563.48
403.74	1565.82
403.93	1685.19
404.13	1701.57
404.32	1547.09
404.51	1612.63
404.70	1743.70
404.89	1699.23
405.09	1703.91
405.28	1694.55
405.47	1647.74
405.66	1797.53
405.85	1806.89
406.05	1769.44
406.24	1884.13
406.43	1884.13
406.62	1944.99
406.81	1942.64
407.00	1860.73
407.20	1884.13
407.39	1842.00
407.58	1907.54
407.77	1867.75
407.96	1996.48
408.15	2026.90
408.34	1961.37
408.54	2005.84
408.73	1956.69
408.92	2118.18
409.11	2085.42
409.30	2008.18
409.49	2127.55
409.68	1956.69
409.87	2031.58
410.07	2069.03
410.26	2118.18
410.45	1989.46
410.64	2106.48
410.83	2228.19
411.02	2122.87
411.21	2335.85
411.40	2310.11
411.59	2331.17
411.78	2359.26
411.98	2190.74
412.17	2317.13
412.36	2373.30
412.55	2392.03
412.74	2469.27
412.93	2448.20
413.12	2441.18
413.31	2450.54
413.50	2504.37
413.69	2527.78
413.88	2708.00
414.07	2705.66
414.26	2640.12
414.45	2684.59
414.64	2663.53
414.83	2649.49
415.02	2789.92
415.22	2705.66
415.41	2810.98
415.60	2658.85
415.79	2808.64
415.98	2825.03
416.17	2972.48
416.36	2944.39
416.55	2738.43
416.74	2932.69
416.93	2909.29
417.12	2942.05
417.31	2946.73
417.50	2944.39
417.69	3115.25
417.88	3073.12
418.07	3042.70
418.26	3094.19
418.45	3066.10
418.64	3145.68
418.83	3243.98
419.02	3122.27
419.21	3321.22
419.39	3255.69
419.58	3124.62
419.77	3201.85
419.96	3265.05
420.15	3297.81
420.34	3227.60
420.53	3407.82
420.72	3417.18
420.91	3398.46
421.10	3510.80
421.29	3426.54
421.48	3461.65
421.67	3515.48
421.86	3393.78
422.05	3503.78
422.24	3410.16
422.43	3555.27
422.61	3583.36
422.80	3442.93
422.99	3520.17
423.18	3447.61
423.37	3487.40
423.56	3555.27
423.75	3412.50
423.94	3534.21
424.13	3279.09
424.32	3309.52
424.50	3716.77
424.69	3648.90
424.88	3571.66
425.07	3510.80
425.26	3471.01
425.45	3637.19
425.64	3538.89
425.83	3611.45
426.01	3606.77
426.20	3583.36
426.39	3564.64
426.58	3681.66
426.77	3538.89
426.96	3667.62
427.15	3728.47
427.33	3520.17
427.52	3686.34
427.71	3679.32
427.90	3761.24
428.09	3808.05
428.28	3698.05
428.46	3775.28
428.65	3763.58
428.84	3908.69
429.03	3826.78
429.22	3646.55
429.40	3744.86
429.59	3861.88
429.78	3714.43
429.97	3506.12
430.16	3747.20
430.34	3861.88
430.53	3864.22
430.72	3857.20
430.91	3805.71
431.10	3899.33
431.28	4039.76
431.47	4060.83
431.66	4320.63
431.85	4170.83
432.03	4290.20
432.22	4383.82
432.41	4311.27
432.60	4236.37
432.79	4135.73
432.97	4208.28
433.16	4224.67
433.35	4168.49
433.54	4306.59
433.72	4297.22
433.91	4205.94
434.10	4287.86
434.28	4276.16
434.47	4374.46
434.66	4571.07
434.85	4353.40
435.03	4308.93
435.22	4365.10
435.41	4550.00
435.59	4470.42
435.78	4571.07
435.97	4636.60
436.16	4503.19
436.34	4692.77
436.53	4580.43
436.72	4678.73
436.90	4512.55
437.09	4706.82
437.28	4681.07
437.46	4711.50
437.65	4667.03
437.84	4723.20
438.02	4734.90
438.21	4716.18
438.40	4643.62
438.58	4751.29
438.77	5004.07
438.96	4943.21
439.14	4891.72
439.33	5071.94
439.52	5078.96
439.70	4973.64
439.89	5254.50
440.08	5130.45
440.26	5240.46
440.45	5259.18
440.63	5191.31
440.82	5411.32
441.01	5231.10
441.19	5502.60
441.38	5294.29
441.57	5472.17
441.75	5596.22
441.94	5762.40
442.12	5568.13
442.31	5659.42
442.50	5673.46
442.68	5731.97
442.87	5685.16
443.05	5696.86
443.24	5820.91
443.43	5685.16
443.61	5746.02
443.80	5975.39
443.98	5640.69
444.17	5600.90
444.35	5820.91
444.54	5961.34
444.73	5926.24
444.91	6008.16
445.10	5771.76
445.28	5825.59
445.47	5746.02
445.65	5813.89
445.84	5933.26
446.02	5893.47
446.21	5867.72
446.39	5731.97
446.58	5898.15
446.77	6040.92
446.95	5949.64
447.14	6059.65
447.32	6003.47
447.51	6017.52
447.69	6120.50
447.88	5902.83
448.06	5949.64
448.25	6141.57
448.43	6066.67
448.62	6012.84
448.80	5980.07
448.99	6111.14
449.17	6019.86
449.36	6134.54
449.54	6162.63
449.73	6298.38
449.91	6289.02
450.10	6370.94
450.28	6469.24
450.46	6473.92
450.65	6370.94
450.83	6310.08
451.02	6452.86
451.20	6445.84
451.39	6567.54
451.57	6443.49
451.76	6359.24
451.94	6534.78
452.13	6579.25
452.31	6340.51
452.49	6347.53
452.68	6452.86
452.86	6612.01
453.05	6579.25
453.23	6640.10
453.42	6574.56
453.60	6399.02
453.78	6593.29
453.97	6600.31
454.15	6883.52
454.34	6738.40
454.52	6876.49
454.70	6843.73
454.89	6808.62
455.07	6785.21
455.26	6899.90
455.44	6813.30
455.62	7094.16
455.81	6993.52
455.99	6883.52
456.17	6937.35
456.36	7133.95
456.54	7087.14
456.73	7073.10
456.91	7283.75
457.09	7316.51
457.28	7466.31
457.46	7281.41
457.64	7454.61
457.83	7243.96
458.01	7232.26
458.19	7470.99
458.38	7428.86
458.56	7527.16
458.74	7520.14
458.93	7454.61
459.11	7269.70
459.29	7641.85
459.48	7609.08
459.66	7496.74
459.84	7536.52
460.03	7674.62
460.21	7730.79
460.39	7578.65
460.57	7644.19
460.76	7700.36
460.94	7735.47
461.12	7801.01
461.31	7716.75
461.49	7901.65
461.67	7716.75
461.85	7981.23
462.04	7913.35
462.22	8379.12
462.40	8315.92
462.59	8070.17
462.77	7969.52
462.95	8102.93
463.13	8283.16
463.32	7983.57
463.50	8119.32
463.68	8191.88
463.86	8166.13
464.05	7887.61
464.23	8168.47
464.41	8170.81
464.59	8114.64
464.78	8430.61
464.96	8346.35
465.14	8219.96
465.32	8294.86
465.50	8297.20
465.69	8344.01
465.87	8124.00
466.05	8341.67
466.23	8306.56
466.41	8287.84
466.60	8500.83
466.78	8458.70
466.96	8332.31
467.14	8444.65
467.32	8648.28
467.51	8737.22
467.69	8374.44
467.87	8432.95
468.05	8711.47
468.23	8339.33
468.41	8606.15
468.60	8568.70
468.78	8634.24
468.96	8777.01
469.14	8732.54
469.32	8769.99
469.50	8652.96
469.69	8730.20
469.87	8952.55
470.05	8919.78
470.23	9067.24
470.41	8950.21
470.59	8826.16
470.77	8901.06
470.95	9069.58
471.14	9139.79
471.32	8872.97
471.50	9397.25
471.68	9287.25
471.86	9221.71
472.04	9401.93
472.22	9696.84
472.40	9317.67
472.58	9303.63
472.77	9533.00
472.95	9628.96
473.13	9680.46
473.31	9689.82
473.49	9767.06
473.67	9640.67
473.85	9652.37
474.03	9830.25
474.21	10026.86
474.39	10097.07
474.57	10099.41
474.75	10382.62
474.93	10169.63
475.12	10047.92
475.30	10146.22
475.48	10284.31
475.66	10333.47
475.84	10125.16
476.02	10361.55
476.20	10574.54
476.38	10607.31
476.56	10726.68
476.74	10867.11
476.92	10930.30
477.10	10736.04
477.28	11073.07
477.46	11044.99
477.64	11239.25
477.82	11318.83
478.00	11356.28
478.18	11461.60
478.36	11473.31
478.54	11520.12
478.72	11573.95
478.90	11730.76
479.08	11805.66
479.26	11960.14
479.44	11934.39
479.62	11992.90
479.80	12308.88
479.98	12091.21
480.16	12416.54
480.34	12264.41
480.52	12432.93
480.70	12512.50
480.88	12311.22
481.06	12561.66
481.24	12758.26
481.41	13036.78
481.59	13181.90
481.77	13018.06
481.95	13249.77
482.13	13191.26
482.31	13228.71
482.49	13481.49
482.67	13614.90
482.85	13694.47
483.03	13900.44
483.21	13893.42
483.39	13792.78
483.57	14001.08
483.74	14279.61
483.92	14293.65
484.10	14169.60
484.28	14595.58
484.46	14604.94
484.64	15070.71
484.82	14853.04
485.00	14895.17
485.18	15119.86
485.35	15042.62
485.53	14874.10
485.71	14846.02
485.89	15150.29
486.07	15449.88
486.25	15557.54
486.43	15548.18
486.61	15992.88
486.78	15967.13
486.96	16039.69
487.14	16163.74
487.32	16407.16
487.50	16627.17
487.68	16702.06
487.85	17071.87
488.03	16929.09
488.21	16982.93
488.39	16854.20
488.57	17242.73
488.75	17462.74
488.92	17495.50
489.10	17900.42
489.28	17837.22
489.46	18066.60
489.64	18321.71
489.81	18225.75
489.99	18621.30
490.17	18450.44
490.35	18799.18
490.53	18597.90
490.70	19101.11
490.88	18941.96
491.06	19021.53
491.24	19154.94
491.41	19126.86
491.59	19234.52
491.77	19300.06
491.95	19580.92
492.13	19896.89
492.30	19969.45
492.48	19859.45
492.66	19915.62
492.84	20264.36
493.01	20423.51
493.19	20355.64
493.37	20400.11
493.54	20849.49
493.72	20678.63
493.90	20702.04
494.08	21043.76
494.25	21130.36
494.43	21411.22
494.61	21563.36
494.79	21553.99
494.96	21432.29
495.14	21818.47
495.32	21727.19
495.49	21963.59
495.67	22171.89
495.85	22057.21
496.02	22270.20
496.20	22192.96
496.38	22457.44
496.55	22742.99
496.73	23185.35
496.91	22602.55
497.09	22838.95
497.26	22925.55
497.44	23119.81
497.62	23293.01
497.79	23396.00
497.97	23253.22
498.14	23665.16
498.32	23669.84
498.50	23601.96
498.67	23608.98
498.85	24161.35
499.03	24285.40
499.20	23955.38
499.38	24484.34
499.56	24196.46
499.73	24535.84
499.91	24650.52
500.08	24687.97
500.26	24556.90
500.44	24847.13
500.61	24781.59
500.79	24912.66
500.97	24863.51
501.14	25013.31
501.32	25392.47
501.49	25291.83
501.67	25399.49
501.84	25472.05
502.02	25893.35
502.20	25752.91
502.37	25752.91
502.55	26029.10
502.72	25773.98
502.90	26019.74
503.07	25769.30
503.25	26192.94
503.43	25781.00
503.60	26059.52
503.78	26253.79
503.95	26401.24
504.13	26649.34
504.30	26625.93
504.48	26572.10
504.65	26752.32
504.83	27117.45
505.01	26988.72
505.18	26972.33
505.36	27541.08
505.53	27367.88
505.71	27798.54
505.88	27967.06
506.06	27405.33
506.23	27363.20
506.41	27459.16
506.58	27358.52
506.76	27646.41
506.93	27789.18
507.11	27908.55
507.28	28247.93
507.46	27997.49
507.63	27974.08
507.81	28357.93
507.98	27943.66
508.16	28470.28
508.33	28379.00
508.50	28826.04
508.68	28388.36
508.85	29263.72
509.03	29127.97
509.20	28833.06
509.38	29132.65
509.55	29083.50
509.73	29092.86
509.90	29221.59
510.08	29067.11
510.25	29032.00
510.42	29343.30
510.60	29736.51
510.77	29390.11
510.95	30129.72
511.12	29364.36
511.30	29687.36
511.47	30363.77
511.64	30000.99
511.82	30389.52
511.99	29841.83
512.17	30586.12
512.34	30230.36
512.51	30267.81
512.69	30876.35
512.86	30429.30
513.04	30789.75
513.21	30590.80
513.38	30824.86
513.56	30778.04
513.73	30340.36
513.90	30995.71
514.08	31136.15
514.25	30967.63
514.43	30876.35
514.60	31152.53
514.77	31021.46
514.95	31615.96
515.12	31236.79
515.29	31580.85
515.47	32009.17
515.64	32098.11
515.81	31377.22
515.99	31498.93
516.16	31653.40
516.33	31693.19
516.51	31887.46
516.68	31587.87
516.85	31562.12
517.03	31878.10
517.20	32137.90
517.37	31873.42
517.54	32315.78
517.72	32318.12
517.89	32208.11
518.06	32531.11
518.24	31952.99
518.41	32606.00
518.58	32453.87
518.75	32414.08
518.93	32606.00
519.10	32720.69
519.27	32664.52
519.45	32929.00
519.62	33230.93
519.79	33649.88
519.96	32945.38
520.14	33654.56
520.31	32898.57
520.48	33574.98
520.65	33537.54
520.83	33113.90
521.00	34094.58
521.17	33464.98
521.34	33661.58
521.52	33963.51
521.69	33865.21
521.86	34078.20
522.03	33717.76
522.20	33919.04
522.38	34323.96
522.55	34253.74
522.72	34497.16
522.89	34541.63
523.07	34253.74
523.24	34527.58
523.41	34532.26
523.58	34515.88
523.75	34892.71
523.92	34883.34
524.10	35290.60
524.27	34806.11
524.44	34979.31
524.61	35028.46
524.78	35288.26
524.96	35395.92
525.13	34958.24
525.30	35814.88
525.47	35321.02
525.64	35981.06
525.81	35288.26
525.98	35557.42
526.16	35086.97
526.33	35491.88
526.50	35992.76
526.67	35391.24
526.84	35447.41
527.01	35302.30
527.18	35969.35
527.36	36030.21
527.53	36119.15
527.70	36601.30
527.87	36243.20
528.04	35917.86
528.21	36147.23
528.38	35983.40
528.55	36458.52
528.72	36779.18
528.89	36671.51
529.07	36706.62
529.24	36666.83
529.41	36535.76
529.58	36306.39
529.75	36500.65
529.92	36996.85
530.09	36982.80
530.26	36994.51
530.43	36825.99
530.60	36818.97
530.77	37062.38
530.94	37340.91
531.11	37031.96
531.28	37413.46
531.46	37347.93
531.63	36975.78
531.80	37127.92
531.97	37336.23
532.14	37326.86
532.31	37528.15
532.48	37481.34
532.65	37589.00
532.82	37717.73
532.99	37886.25
533.16	37509.43
533.33	37610.07
533.50	37963.49
533.67	37975.19
533.84	37937.74
534.01	38050.09
534.18	37696.67
534.35	38253.72
534.52	37895.61
534.69	38312.23
534.86	37890.93
535.03	38110.94
535.20	38309.89
535.37	38836.51
535.54	39124.40
535.71	38513.52
535.88	38281.80
536.05	38782.68
536.22	38801.40
536.38	38546.28
536.55	38061.79
536.72	38780.34
536.89	38541.60
537.06	38487.77
537.23	38574.37
537.40	38471.39
537.57	39009.71
537.74	39049.50
537.91	39201.63
538.08	39079.92
538.25	38946.51
538.42	38939.49
538.59	39285.89
538.75	39164.18
538.92	39440.37
539.09	39894.43
539.26	39283.55
539.43	39246.10
539.60	39835.92
539.77	39250.78
539.94	39667.40
540.11	39875.71
540.28	39470.79
540.44	39601.86
540.61	39625.27
540.78	39297.59
540.95	39978.69
541.12	39335.04
541.29	39255.46
541.46	39871.03
541.62	39842.94
541.79	39880.39
541.96	39625.27
542.13	39971.67
542.30	39889.75
542.47	39969.33
542.63	40081.67
542.80	39828.90
542.97	40746.39
543.14	41003.85
543.31	40734.68
543.48	40627.02
543.64	41085.76
543.81	40741.71
543.98	40957.03
544.15	40683.19
544.32	40830.65
544.48	41354.93
544.65	40603.61
544.82	40882.14
544.99	40577.87
545.16	40959.38
545.32	40587.23
545.49	40959.38
545.66	41083.42
545.83	41212.15
546.00	41762.18
546.16	41390.03
546.33	41148.96
546.50	40992.14
546.67	41067.04
546.83	41081.08
547.00	41181.73
547.17	41237.90
547.34	41125.55
547.50	41762.18
547.67	41605.36
547.84	41631.11
548.00	41804.31
548.17	41841.76
548.34	41839.42
548.51	41619.41
548.67	41914.31
548.84	42066.45
549.01	41626.43
549.18	42043.04
549.34	41844.10
549.51	42370.72
549.68	42057.09
549.84	42169.43
550.01	42239.65
550.18	41921.34
550.34	41975.17
550.51	41642.81
550.68	42216.24
550.84	41731.75
551.01	42146.03
551.18	42342.63
551.34	42291.14
551.51	42579.03
551.68	42323.91
551.84	42298.16
552.01	42621.16
552.18	42520.51
552.34	42199.86
552.51	42284.12
552.68	42354.33
552.84	42213.90
553.01	42693.71
553.18	42469.02
553.34	42300.50
553.51	42223.26
553.67	42440.93
553.84	42792.01
554.01	42644.56
554.17	42892.66
554.34	43220.33
554.51	42986.28
554.67	42527.53
554.84	42740.52
555.00	42483.06
555.17	42834.14
555.33	42546.26
555.50	42972.24
555.67	42850.53
555.83	43320.98
556.00	43117.35
556.16	43005.00
556.33	43194.59
556.50	42396.46
556.66	43409.92
556.83	43260.12
556.99	42927.77
557.16	43187.56
557.32	43236.72
557.49	43271.82
557.65	43035.43
557.82	43421.62
557.98	43456.73
558.15	43739.93
558.32	43735.25
558.48	43178.20
558.65	43229.69
558.81	43363.11
558.98	43557.37
559.14	43618.22
559.31	43056.50
559.47	43543.33
559.64	43627.59
559.80	43863.98
559.97	43648.65
560.13	43384.17
560.30	43054.15
560.46	43620.56
560.63	43388.85
560.79	43831.21
560.96	43693.12
561.12	43325.66
561.29	43863.98
561.45	43519.92
561.61	43805.47
561.78	43110.33
561.94	43587.80
562.11	43601.84
562.27	43543.33
562.44	43470.77
562.60	43847.60
562.77	44334.43
562.93	43770.36
563.10	44135.48
563.26	43648.65
563.42	43695.46
563.59	43866.32
563.75	43496.52
563.92	43908.45
564.08	44046.54
564.24	44259.53
564.41	44266.55
564.57	43913.13
564.74	44058.24
564.90	44231.44
565.07	44528.69
565.23	43803.13
565.39	44002.07
565.56	44383.58
565.72	44079.31
565.88	43929.51
566.05	43786.74
566.21	44156.55
566.38	43409.92
566.54	43983.35
566.70	44456.14
566.87	44596.57
567.03	44079.31
567.19	44903.18
567.36	44378.90
567.52	43981.01
567.68	44449.11
567.85	44058.24
568.01	44385.92
568.17	44189.31
568.34	44287.62
568.50	44238.47
568.66	44072.29
568.83	44552.10
568.99	44163.57
569.15	44378.90
569.32	44292.30
569.48	44048.88
569.64	44105.06
569.81	44311.02
569.97	44430.39
570.13	44030.16
570.30	43896.75
570.46	44165.91
570.62	44163.57
570.78	44296.98
570.95	44151.87
571.11	44421.03
571.27	44329.75
571.43	44126.12
571.60	44741.68
571.76	44364.85
571.92	44566.14
572.09	44608.27
572.25	44528.69
572.41	44067.61
572.57	44638.70
572.74	44896.16
572.90	44240.81
573.06	44701.89
573.22	44629.34
573.38	44437.41
573.55	44486.56
573.71	44854.03
573.87	44624.65
574.03	44076.97
574.20	44072.29
574.36	44641.04
574.52	44907.86
574.68	45010.84
574.84	44404.64
575.01	44786.15
575.17	44608.27
575.33	44002.07
575.49	44514.65
575.65	44603.59
575.82	44655.08
575.98	44566.14
576.14	45095.10
576.30	44449.11
576.46	44264.21
576.62	44332.09
576.79	44516.99
576.95	44425.71
577.11	44582.52
577.27	44411.67
577.43	44891.48
577.59	44788.49
577.75	45057.65
577.92	44425.71
578.08	44245.49
578.24	44727.64
578.40	44657.42
578.56	44559.12
578.72	44741.68
578.88	44676.15
579.04	44844.66
579.21	44470.18
579.37	44231.44
579.53	44732.32
579.69	44430.39
579.85	44793.17
580.01	45287.03
580.17	44168.25
580.33	45315.11
580.49	44769.77
580.65	44825.94
580.82	44865.73
580.98	45099.78
581.14	44486.56
581.30	44921.90
581.46	44884.45
581.62	44442.09
581.78	44498.26
581.94	44954.67
582.10	44858.71
582.26	44479.54
582.42	44837.64
582.58	45024.89
582.74	44699.55
582.90	44835.30
583.06	44524.01
583.22	44825.94
583.38	45392.35
583.54	44465.50
583.70	44463.16
583.86	44467.84
584.02	44453.79
584.18	45048.29
584.34	44891.48
584.50	44540.39
584.66	44561.46
584.82	44683.17
584.98	44982.76
585.14	44975.73
585.30	44636.36
585.46	44516.99
585.62	44493.58
585.78	44318.04
585.94	44161.23
586.10	44519.33
586.26	44615.29
586.42	44629.34
586.58	45151.27
586.74	45134.89
586.90	44514.65
587.06	44596.57
587.22	44872.75
587.38	44687.85
587.54	45048.29
587.70	44842.32
587.86	44863.39
588.02	44624.65
588.18	44849.35
588.34	44868.07
588.49	44570.82
588.65	44109.74
588.81	44102.71
588.97	44432.73
589.13	44355.49
589.29	44701.89
589.45	45172.34
589.61	44582.52
589.77	45254.26
589.93	44577.84
590.08	45303.41
590.24	45226.17
590.40	44828.28
590.56	45207.45
590.72	44917.22
590.88	44889.13
591.04	44685.51
591.20	45226.17
591.35	45291.71
591.51	45411.07
591.67	45280.00
591.83	44900.84
591.99	44893.82
592.15	44708.91
592.31	45088.08
592.46	45361.92
592.62	45074.04
592.78	45219.15
592.94	45577.25
593.10	45439.16
593.26	44889.13
593.41	45055.31
593.57	45099.78
593.73	45055.31
593.89	45240.21
594.05	45067.02
594.20	45319.79
594.36	45280.00
594.52	45319.79
594.68	44823.60
594.84	45017.86
594.99	45462.57
595.15	44992.12
595.31	45144.25
595.47	45434.48
595.62	45296.39
595.78	45319.79
595.94	45731.73
596.10	46012.59
596.25	44942.97
596.41	45434.48
596.57	45172.34
596.73	45743.43
596.88	44699.55
597.04	45357.24
597.20	45429.80
597.36	45345.54
597.51	45605.34
597.67	45205.11
597.83	44959.35
597.99	45659.17
598.14	45329.16
598.30	45413.41
598.46	45464.91
598.61	45305.75
598.77	44760.40
598.93	45076.38
599.09	45162.98
599.24	45930.67
599.40	45317.45
599.56	45574.91
599.71	45361.92
599.87	45490.65
600.03	45088.08
600.18	45551.51
600.34	45373.63
600.50	45544.48
600.65	45055.31
600.81	45797.26
600.97	45387.67
601.12	45813.65
601.28	45717.68
601.44	45074.04
601.59	45202.77
601.75	44919.56
601.91	45102.12
602.06	44935.95
602.22	45230.85
602.37	44886.79
602.53	45209.79
602.69	45270.64
602.84	45057.65
603.00	45052.97
603.16	45010.84
603.31	44928.92
603.47	44961.69
603.62	45081.06
603.78	45069.36
603.94	45074.04
604.09	45495.33
604.25	45361.92
604.40	45336.18
604.56	45205.11
604.71	45055.31
604.87	45495.33
605.03	45282.34
605.18	45109.14
605.34	44849.35
605.49	45160.64
605.65	45212.13
605.80	44952.33
605.96	44952.33
606.12	45507.04
606.27	45408.73
606.43	45305.75
606.58	45092.76
606.74	44968.71
606.89	45104.46
607.05	44919.56
607.20	45003.82
607.36	45256.60
607.51	45055.31
607.67	45181.70
607.82	45322.13
607.98	44605.93
608.13	45132.55
608.29	44980.42
608.44	44516.99
608.60	44224.42
608.75	44442.09
608.91	44832.96
609.06	44807.22
609.22	45284.68
609.37	44687.85
609.53	45184.04
609.68	44758.06
609.84	44865.73
609.99	44676.15
610.15	44556.78
610.30	44797.85
610.46	44423.37
610.61	44619.97
610.76	44807.22
610.92	44591.89
611.07	44699.55
611.23	44495.92
611.38	44657.42
611.54	44451.45
611.69	44339.11
611.84	44161.23
612.00	44236.12
612.15	44472.52
612.31	44673.81
612.46	44439.75
612.62	44437.41
612.77	43899.09
612.92	44374.22
613.08	44479.54
613.23	44451.45
613.39	43896.75
613.54	44179.95
613.69	44306.34
613.85	44472.52
614.00	44186.97
614.15	44650.40
614.31	44271.23
614.46	44650.40
614.62	44076.97
614.77	44425.71
614.92	44114.42
615.08	44067.61
615.23	44355.49
615.38	43831.21
615.54	43838.23
615.69	43714.19
615.84	43356.08
616.00	44072.29
616.15	44205.70
616.30	44074.63
616.46	43988.03
616.61	43508.22
616.76	44093.35
616.92	43943.56
617.07	44102.71
617.22	43901.43
617.37	43604.18
617.53	44114.42
617.68	44198.68
617.83	43739.93
617.99	44079.31
618.14	43559.71
618.29	43468.43
618.45	43335.02
618.60	43199.27
618.75	43585.46
618.90	43449.70
619.06	43772.70
619.21	43969.30
619.36	43793.76
619.51	43264.80
619.67	43765.68
619.82	43559.71
619.97	43363.11
620.12	43491.83
620.28	43079.90
620.43	42827.12
620.58	43487.15
620.73	43468.43
620.89	42892.66
621.04	43594.82
621.19	43288.21
621.34	43475.45
621.49	43042.45
621.65	43384.17
621.80	43449.70
621.95	43232.04
622.10	42979.26
622.25	43267.14
622.41	42749.88
622.56	42499.45
622.71	43309.27
622.86	42983.94
623.01	43449.70
623.16	43391.19
623.32	42932.45
623.47	43217.99
623.62	42689.03
623.77	42555.62
623.92	43100.97
624.07	42700.73
624.23	42866.91
624.38	42366.04
624.53	42506.47
624.68	42483.06
624.83	42759.25
624.98	42885.64
625.13	42319.23
625.29	42621.16
625.44	42408.17
625.59	42614.13
625.74	42588.39
625.89	42033.68
626.04	42122.62
626.19	41677.92
626.34	42433.91
626.49	42373.06
626.65	41933.04
626.80	42520.51
626.95	42405.83
627.10	42478.38
627.25	42209.22
627.40	42047.72
627.55	42099.22
627.70	41408.76
627.85	41951.76
628.00	42209.22
628.15	42667.97
628.30	42178.79
628.45	42309.86
628.60	41488.34
628.76	42134.32
628.91	42122.62
629.06	41989.21
629.21	41944.74
629.36	41502.38
629.51	41504.72
629.66	41818.35
629.81	41584.30
629.96	41827.71
630.11	41963.46
630.26	41741.11
630.41	42101.56
630.56	41713.03
630.71	41413.44
630.86	41345.56
631.01	41876.86
631.16	41488.34
631.31	41518.76
631.46	41036.61
631.61	41645.15
631.76	41675.58
631.91	41696.64
632.06	41588.98
632.21	41200.45
632.36	41464.93
632.51	41060.02
632.66	41305.77
632.81	40573.19
632.96	41177.04
633.10	41404.08
633.25	41151.30
633.40	41186.41
633.55	41383.01
633.70	40793.20
633.85	41088.10
634.00	41455.57
634.15	41179.39
634.30	40828.30
634.45	40793.20
634.60	41132.57
634.75	40591.91
634.90	40985.12
635.05	40818.94
635.19	40858.73
635.34	41298.75
635.49	40940.65
635.64	40842.35
635.79	40701.92
635.94	40727.66
636.09	41120.87
636.24	40313.39
636.39	39814.85
636.53	40655.11
636.68	40362.54
636.83	40311.05
636.98	40678.51
637.13	40402.33
637.28	40484.25
637.43	40531.06
637.57	40835.33
637.72	40612.98
637.87	40556.80
638.02	40453.82
638.17	40041.88
638.32	40339.13
638.46	40254.87
638.61	40095.72
638.76	40273.60
638.91	40088.70
639.06	40339.13
639.20	40252.53
639.35	40350.84
639.50	40231.47
639.65	40484.25
639.80	40112.10
639.94	39840.60
640.09	40240.83
640.24	39746.98
640.39	39929.54
640.54	39887.41
640.68	40105.08
640.83	39723.57
640.98	39702.51
641.13	39704.85
641.27	39866.34
641.42	39856.98
641.57	39751.66
641.72	39768.04
641.86	39482.50
642.01	39676.76
642.16	39473.13
642.31	39274.19
642.45	40133.17
642.60	39253.12
642.75	39203.97
642.90	39318.66
643.04	39288.23
643.19	39515.26
643.34	39945.92
643.48	39529.31
643.63	38974.60
643.78	39246.10
643.93	38693.74
644.07	38857.57
644.22	39164.18
644.37	38920.77
644.51	39009.71
644.66	39213.34
644.81	39337.38
644.95	39342.06
645.10	39440.37
645.25	39257.81
645.39	39145.46
645.54	39365.47
645.69	39271.85
645.83	39007.37
645.98	38768.63
646.13	39154.82
646.27	39220.36
646.42	38761.61
646.57	39016.73
646.71	39164.18
646.86	38604.80
647.00	39124.40
647.15	39023.75
647.30	39065.88
647.44	39210.99
647.59	38586.07
647.74	38721.82
647.88	38806.08
648.03	38387.13
648.17	38256.06
648.32	38345.00
648.47	38391.81
648.61	38408.19
648.76	38717.14
648.90	38815.44
649.05	38515.86
649.20	38525.22
649.34	38710.12
649.49	38799.06
649.63	38569.69
649.78	38803.74
649.92	38543.94
650.07	38873.96
650.21	38396.49
650.36	38462.02
650.51	38209.25
650.65	38398.83
650.80	38220.95
650.94	38394.15
651.09	38408.19
651.23	37900.29
651.38	38522.88
651.52	37963.49
651.67	38319.25
651.81	38176.48
651.96	38022.00
652.10	37406.44
652.25	37907.32
652.39	37610.07
652.54	38277.12
652.68	38085.20
652.83	37975.19
652.97	38141.37
653.12	38022.00
653.26	37979.87
653.41	38092.22
653.55	37532.83
653.70	37893.27
653.84	37738.80
653.99	37373.67
654.13	37542.19
654.27	37645.18
654.42	37663.90
654.56	37406.44
654.71	37663.90
654.85	37530.49
655.00	37420.48
655.14	37549.21
655.29	37067.06
655.43	36999.19
655.57	37474.32
655.72	37305.80
655.86	37359.63
656.01	36992.17
656.15	37006.21
656.30	36954.72
656.44	36811.95
656.58	36896.20
656.73	36992.17
656.87	37053.02
657.01	36795.56
657.16	37076.43
657.30	36898.55
657.45	36725.35
657.59	36727.69
657.73	36311.07
657.88	37205.16
658.02	36542.78
658.16	37088.13
658.31	37013.23
658.45	36652.79
658.60	36715.98
658.74	36753.43
658.88	36825.99
659.03	36364.90
659.17	36484.27
659.31	36437.46
659.46	36357.88
659.60	36250.22
659.74	36154.26
659.89	36259.58
660.03	36456.18
660.17	36596.62
660.32	36020.84
660.46	36418.74
660.60	36023.19
660.74	36222.13
660.89	36369.58
661.03	35505.93
661.17	35536.35
661.32	35587.85
661.46	35604.23
661.60	35718.92
661.74	35639.34
661.89	35754.02
662.03	36175.32
662.17	35388.90
662.31	35419.33
662.46	35854.67
662.60	35538.69
662.74	35306.98
662.88	35529.33
663.03	35374.86
663.17	35208.68
663.31	34934.84
663.45	35349.11
663.60	35070.59
663.74	34768.66
663.88	34941.86
664.02	35096.33
664.17	35091.65
664.31	34927.81
664.45	34457.37
664.59	34838.87
664.73	35243.79
664.88	34705.46
665.02	34593.12
665.16	34792.06
665.30	34686.74
665.44	34696.10
665.59	34253.74
665.73	34443.32
665.87	34251.40
666.01	34045.43
666.15	34174.16
666.29	34492.47
666.44	34644.61
666.58	34087.56
666.72	34480.77
666.86	34263.10
667.00	34047.77
667.14	33869.89
667.28	33518.81
667.43	33579.67
667.57	33771.59
667.71	33780.95
667.85	33584.35
667.99	33806.70
668.13	33165.39
668.27	33282.42
668.41	33586.69
668.56	33584.35
668.70	33460.30
668.84	33324.55
668.98	33006.23
669.12	33111.56
669.26	33268.37
669.40	33046.02
669.54	33116.24
669.68	33118.58
669.82	33013.26
669.96	32842.40
670.10	32889.21
670.25	32842.40
670.39	33118.58
670.53	32727.71
670.67	33151.35
670.81	32573.24
670.95	32847.08
671.09	32570.90
671.23	32673.88
671.37	32437.48
671.51	32556.85
671.65	32095.77
671.79	32079.38
671.93	32210.45
672.07	32224.50
672.21	32374.29
672.35	31833.63
672.49	31974.06
672.63	32081.72
672.77	31454.46
672.91	31372.54
673.05	31679.15
673.19	31473.18
673.33	31658.09
673.47	31255.51
673.61	31391.26
673.75	31028.48
673.89	30895.07
674.03	31091.68
674.17	30993.37
674.31	30815.49
674.45	30661.02
674.59	30902.09
674.73	30932.52
674.87	30859.96
675.01	30827.20
675.15	31307.01
675.29	31035.50
675.43	30885.71
675.56	30574.42
675.70	30677.40
675.84	30452.71
675.98	29326.91
676.12	30096.95
676.26	30513.56
676.40	29898.00
676.54	29764.59
676.68	29900.34
676.82	29362.02
676.96	29362.02
677.10	29654.59
677.23	29034.35
677.37	29404.15
677.51	29549.26
677.65	29064.77
677.79	28683.27
677.93	28634.11
678.07	28804.97
678.21	28608.37
678.34	28652.84
678.48	28463.25
678.62	28861.15
678.76	28250.27
678.90	28397.72
679.04	28367.29
679.18	28732.42
679.31	28173.03
679.45	28032.60
679.59	27725.99
679.73	27665.13
679.87	28011.53
680.00	27885.14
680.14	27613.64
680.28	27665.13
680.42	27529.38
680.56	27440.44
680.70	27723.65
680.83	27161.92
680.97	26909.14
681.11	26738.28
681.25	26551.04
681.39	26806.16
681.52	27119.79
681.66	26728.92
681.80	26686.79
681.94	26747.64
682.07	26389.54
682.21	26567.42
682.35	25965.90
682.49	26260.81
682.62	26419.97
682.76	26237.41
682.90	25839.51
683.04	25914.41
683.17	25895.69
683.31	25979.95
683.45	26113.36
683.59	25724.83
683.72	25275.45
683.86	25343.32
684.00	25025.01
684.13	24840.11
684.27	25380.77
684.41	25200.55
684.55	25076.50
684.68	25017.99
684.82	24786.27
684.96	24783.93
685.09	24498.39
685.23	24444.56
685.37	24507.75
685.50	24706.70
685.64	24542.86
685.78	24027.94
685.91	24144.97
686.05	24538.18
686.19	23782.18
686.32	23854.74
686.46	23885.17
686.60	23358.55
686.73	23632.39
686.87	23250.88
687.01	23405.36
687.14	23098.75
687.28	22974.70
687.42	23145.56
687.55	22719.58
687.69	23173.64
687.82	22979.38
687.96	22881.08
688.10	22654.05
688.23	22670.43
688.37	21909.75
688.50	22050.19
688.64	22225.73
688.78	22263.18
688.91	22127.42
689.05	22473.82
689.18	22139.13
689.32	21799.75
689.46	21729.53
689.59	21979.97
689.73	22059.55
689.86	22057.21
690.00	21668.68
690.13	21666.34
690.27	21642.93
690.41	21640.59
690.54	21172.49
690.68	21186.53
690.81	21282.49
690.95	21067.16
691.08	20922.05
691.22	20828.43
691.35	21128.02
691.49	21036.74
691.62	21146.74
691.76	20570.97
691.89	20772.25
692.03	20290.10
692.16	20554.58
692.30	20170.74
692.43	20280.74
692.57	19941.36
692.70	20060.73
692.84	20002.22
692.97	19878.17
693.11	19686.25
693.24	19356.23
693.38	19573.90
693.51	19674.54
693.65	19903.92
693.78	19578.58
693.92	19548.15
694.05	19440.49
694.19	19068.34
694.32	19002.81
694.45	19190.05
694.59	18909.19
694.72	19014.51
694.86	18787.48
694.99	18696.20
695.13	18394.27
695.26	18228.09
695.39	18562.79
695.53	18621.30
695.66	18267.88
695.80	18258.52
695.93	18272.56
696.07	18209.37
696.20	18359.16
696.33	18047.87
696.47	17715.51
696.60	17767.01
696.73	17860.63
696.87	17731.90
697.00	17834.88
697.14	17727.22
697.27	17425.29
697.40	17397.20
697.54	17687.43
697.67	17401.88
697.80	17359.75
697.94	17067.19
698.07	17158.47
698.21	16999.31
698.34	17165.49
698.47	16685.68
698.61	16568.65
698.74	16744.19
698.87	16456.31
699.01	16299.49
699.14	16582.70
699.27	16545.25
699.40	16563.97
699.54	16025.65
699.67	15964.79
699.80	16147.36
699.94	16032.67
700.07	16046.71
700.20	16081.82
700.34	15819.68
700.47	15648.82
700.60	15786.91
700.73	15892.24
700.87	15501.37
701.00	15578.61
701.13	15761.17
701.26	15651.16
701.40	15410.09
701.53	15421.79
701.66	15466.26
701.79	15068.37
701.93	15044.96
702.06	14785.16
702.19	14707.93
702.32	14888.15
702.46	14981.77
702.59	14492.60
702.72	14789.85
702.85	14747.72
702.99	14728.99
703.12	14693.88
703.25	14485.58
703.38	14356.85
703.51	14356.85
703.65	14143.86
703.78	14338.12
703.91	14125.13
704.04	14038.53
704.17	14036.19
704.31	14026.83
704.44	13762.35
704.57	13720.22
704.70	13675.75
704.83	13514.25
704.96	13673.41
705.10	13699.16
705.23	13668.73
>>>>>End Processed Spectral Data<<<<<
