SpectraSuite Data File
++++++++++++++++++++++++++++++++++++
Date: Fri Oct 25 10:46:58 EDT 2013
User: price-jones
Dark Spectrum Present: No
Reference Spectrum Present: No
Number of Sampled Component Spectra: 1
Spectrometers: USB2+H05261
Integration Time (usec): 100000 (USB2+H05261)
Spectra Averaged: 1 (USB2+H05261)
Boxcar Smoothing: 0 (USB2+H05261)
Correct for Electrical Dark: No (USB2+H05261)
Strobe/Lamp Enabled: No (USB2+H05261)
Correct for Detector Non-linearity: No (USB2+H05261)
Correct for Stray Light: No (USB2+H05261)
Number of Pixels in Processed Spectrum: 2048
>>>>>Begin Processed Spectral Data<<<<<
365.73	105.32
365.92	105.32
366.12	105.32
366.32	86.60
366.52	0.00
366.72	88.94
366.91	105.32
367.11	39.79
367.31	0.00
367.51	63.19
367.70	44.47
367.90	7.02
368.10	23.41
368.30	0.00
368.49	51.49
368.69	28.09
368.89	112.35
369.09	0.00
369.28	114.69
369.48	102.98
369.68	100.64
369.87	124.05
370.07	117.03
370.27	189.58
370.47	154.48
370.66	365.12
370.86	456.40
371.06	444.70
371.25	365.12
371.45	428.32
371.65	505.56
371.84	500.87
372.04	456.40
372.24	526.62
372.44	489.17
372.63	461.09
372.83	496.19
373.03	489.17
373.22	519.60
373.42	543.00
373.62	557.05
373.81	533.64
374.01	608.54
374.21	470.45
374.40	496.19
374.60	545.34
374.79	622.58
374.99	606.20
375.19	620.24
375.38	638.97
375.58	615.56
375.78	568.75
375.97	589.82
376.17	671.73
376.37	606.20
376.56	538.32
376.76	594.50
376.95	564.07
377.15	599.18
377.35	634.29
377.54	676.41
377.74	580.45
377.93	645.99
378.13	538.32
378.33	674.07
378.52	678.76
378.72	718.54
378.91	667.05
379.11	620.24
379.31	636.63
379.50	674.07
379.70	641.31
379.89	648.33
380.09	585.13
380.28	704.50
380.48	727.91
380.68	697.48
380.87	674.07
381.07	702.16
381.26	723.23
381.46	620.24
381.65	732.59
381.85	620.24
382.04	676.41
382.24	744.29
382.43	603.86
382.63	688.12
382.83	690.46
383.02	716.20
383.22	760.67
383.41	725.57
383.61	720.88
383.80	767.70
384.00	770.04
384.19	753.65
384.39	809.83
384.58	809.83
384.78	760.67
384.97	777.06
385.17	685.78
385.36	784.08
385.56	777.06
385.75	739.61
385.95	781.74
386.14	849.61
386.34	868.34
386.53	908.13
386.72	795.78
386.92	809.83
387.11	863.66
387.31	861.32
387.50	840.25
387.70	882.38
387.89	877.70
388.09	844.93
388.28	901.11
388.48	903.45
388.67	976.00
388.86	919.83
389.06	910.47
389.25	968.98
389.45	957.28
389.64	908.13
389.84	985.37
390.03	938.55
390.22	922.17
390.42	919.83
390.61	936.21
390.81	896.43
391.00	1048.56
391.19	966.64
391.39	973.66
391.58	1022.81
391.78	1062.60
391.97	1153.88
392.16	985.37
392.36	1053.24
392.55	987.71
392.75	950.26
392.94	961.96
393.13	1069.62
393.33	929.19
393.52	1102.39
393.71	1100.05
393.91	1116.44
394.10	1137.50
394.29	1149.20
394.49	1135.16
394.68	1102.39
394.88	1196.01
395.07	1238.14
395.26	1153.88
395.46	1224.10
395.65	1139.84
395.84	1214.74
396.04	1268.57
396.23	1123.46
396.42	1158.57
396.62	1200.69
396.81	1212.40
397.00	1160.91
397.19	1287.29
397.39	1301.34
397.58	1380.92
397.77	1329.42
397.97	1406.66
398.16	1355.17
398.35	1427.73
398.55	1364.53
398.74	1495.60
398.93	1486.24
399.12	1420.71
399.32	1444.11
399.51	1418.36
399.70	1467.52
399.90	1409.00
400.09	1497.94
400.28	1638.38
400.47	1537.73
400.67	1575.18
400.86	1586.88
401.05	1586.88
401.24	1554.12
401.44	1570.50
401.63	1561.14
401.82	1624.33
402.01	1636.03
402.21	1661.78
402.40	1715.61
402.59	1685.19
402.78	1680.50
402.97	1682.85
403.17	1785.83
403.36	1659.44
403.55	1774.13
403.74	1816.26
403.93	1724.97
404.13	1710.93
404.32	1746.04
404.51	1762.42
404.70	1877.11
404.89	1834.98
405.09	1961.37
405.28	1888.81
405.47	1813.92
405.66	1961.37
405.85	1877.11
406.05	1799.87
406.24	1947.33
406.43	1905.20
406.62	2017.54
406.81	1895.83
407.00	1937.96
407.20	1973.07
407.39	1966.05
407.58	2092.44
407.77	2003.50
407.96	2108.82
408.15	2167.34
408.34	2054.99
408.54	2113.50
408.73	2122.87
408.92	2176.70
409.11	2244.57
409.30	2155.63
409.49	2232.87
409.68	2160.31
409.87	2335.85
410.07	2345.22
410.26	2265.64
410.45	2314.79
410.64	2293.72
410.83	2314.79
411.02	2473.95
411.21	2396.71
411.40	2434.16
411.59	2370.96
411.78	2492.67
411.98	2431.82
412.17	2541.82
412.36	2572.25
412.55	2518.42
412.74	2518.42
412.93	2691.62
413.12	2579.27
413.31	2693.96
413.50	2712.68
413.69	2745.45
413.88	2752.47
414.07	2724.38
414.26	2775.88
414.45	2686.94
414.64	2834.39
414.83	2918.65
415.02	2881.20
415.22	2963.12
415.41	2911.63
415.60	2939.71
415.79	3087.17
415.98	3112.91
416.17	3103.55
416.36	3019.29
416.55	3152.70
416.74	3117.59
416.93	3141.00
417.12	3105.89
417.31	3222.92
417.50	3150.36
417.69	3276.75
417.88	3274.41
418.07	3283.77
418.26	3356.33
418.45	3311.86
418.64	3445.27
418.83	3344.63
419.02	3368.03
419.21	3480.38
419.39	3564.64
419.58	3262.71
419.77	3433.57
419.96	3379.73
420.15	3531.87
420.34	3459.31
420.53	3604.42
420.72	3616.13
420.91	3723.79
421.10	3812.73
421.29	3686.34
421.48	3487.40
421.67	3688.68
421.86	3616.13
422.05	3630.17
422.24	3496.76
422.43	3716.77
422.61	3691.02
422.80	3597.40
422.99	3702.73
423.18	3695.71
423.37	3754.22
423.56	3707.41
423.75	3758.90
423.94	3688.68
424.13	3480.38
424.32	3646.55
424.50	3847.84
424.69	3684.00
424.88	3824.44
425.07	3812.73
425.26	3698.05
425.45	3772.94
425.64	3726.13
425.83	3775.28
426.01	3812.73
426.20	3747.20
426.39	3906.35
426.58	3885.29
426.77	3819.75
426.96	3887.63
427.15	3779.97
427.33	3911.04
427.52	3922.74
427.71	3915.72
427.90	3765.92
428.09	4011.68
428.28	3974.23
428.46	4014.02
428.65	3927.42
428.84	3990.61
429.03	4037.42
429.22	3999.98
429.40	3971.89
429.59	4084.23
429.78	3810.39
429.97	3892.31
430.16	3953.16
430.34	4044.45
430.53	4175.52
430.72	4058.49
430.91	4126.36
431.10	4159.13
431.28	4313.61
431.47	4451.70
431.66	4416.59
431.85	4325.31
432.03	4404.89
432.22	4397.87
432.41	4278.50
432.60	4451.70
432.79	4547.66
432.97	4575.75
433.16	4683.41
433.35	4486.81
433.54	4468.08
433.72	4472.76
433.91	4461.06
434.10	4615.54
434.28	4533.62
434.47	4648.30
434.66	4718.52
434.85	4812.14
435.03	4727.88
435.22	4688.09
435.41	4807.46
435.59	4688.09
435.78	4856.61
435.97	5011.09
436.16	5048.54
436.34	4748.95
436.53	4905.76
436.72	5100.03
436.90	4748.95
437.09	4961.94
437.28	4950.23
437.46	4877.68
437.65	4910.44
437.84	5074.28
438.02	4887.04
438.21	5081.30
438.40	4917.47
438.58	5139.82
438.77	5203.01
438.96	5132.79
439.14	5317.70
439.33	5352.81
439.52	5397.28
439.70	5277.91
439.89	5416.00
440.08	5345.78
440.26	5371.53
440.45	5376.21
440.63	5479.19
440.82	5832.62
441.01	5673.46
441.19	5626.65
441.38	5832.62
441.57	5743.67
441.75	5785.80
441.94	5989.43
442.12	5860.70
442.31	6141.57
442.50	5991.77
442.68	6054.97
442.87	6092.41
443.05	6232.85
443.24	6153.27
443.43	6003.47
443.61	6120.50
443.80	6335.83
443.98	6033.90
444.17	5961.34
444.35	6153.27
444.54	6277.32
444.73	6223.48
444.91	6204.76
445.10	6218.80
445.28	6312.42
445.47	6176.67
445.65	6080.71
445.84	6118.16
446.02	6274.98
446.21	6148.59
446.39	6239.87
446.58	6331.15
446.77	6345.19
446.95	6239.87
447.14	6377.96
447.32	6445.84
447.51	6403.71
447.69	6494.99
447.88	6530.09
448.06	6544.14
448.25	6361.58
448.43	6445.84
448.62	6443.49
448.80	6335.83
448.99	6443.49
449.17	6581.59
449.36	6469.24
449.54	6579.25
449.73	6722.02
449.91	6764.15
450.10	6623.72
450.28	6897.56
450.46	6766.49
450.65	6892.88
450.83	6736.06
451.02	6825.00
451.20	6923.30
451.39	6839.05
451.57	6698.61
451.76	6780.53
451.94	6817.98
452.13	6958.41
452.31	6960.75
452.49	6719.68
452.68	6836.70
452.86	7030.97
453.05	7021.61
453.23	6927.99
453.42	6944.37
453.60	6937.35
453.78	7187.79
453.97	6913.94
454.15	7185.44
454.34	7030.97
454.52	7288.43
454.70	7239.28
454.89	7157.36
455.07	7148.00
455.26	7293.11
455.44	7487.37
455.62	7279.07
455.81	7258.00
455.99	7470.99
456.17	7339.92
456.36	7454.61
456.54	7632.49
456.73	7534.18
456.91	7578.65
457.09	7740.15
457.28	7751.85
457.46	7737.81
457.64	7733.13
457.83	7784.62
458.01	7590.36
458.19	7784.62
458.38	8002.29
458.56	7882.92
458.74	7840.79
458.93	7934.42
459.11	7948.46
459.29	7967.18
459.48	8049.10
459.66	7990.59
459.84	7934.42
460.03	8159.11
460.21	7941.44
460.39	8046.76
460.57	8194.22
460.76	8095.91
460.94	8163.79
461.12	8257.41
461.31	8315.92
461.49	8241.03
461.67	8376.78
461.85	8470.40
462.04	8292.52
462.22	8968.93
462.40	8442.31
462.59	8400.18
462.77	8517.21
462.95	8449.33
463.13	8521.89
463.32	8454.02
463.50	8690.41
463.68	8528.91
463.86	8664.66
464.05	8435.29
464.23	8620.19
464.41	8821.48
464.59	8542.96
464.78	8758.28
464.96	8755.94
465.14	8676.37
465.32	8748.92
465.50	8713.81
465.69	8971.27
465.87	8851.91
466.05	8865.95
466.23	8762.97
466.41	9048.51
466.60	9057.87
466.78	8849.57
466.96	8999.36
467.14	8999.36
467.32	8985.32
467.51	9078.94
467.69	8889.35
467.87	9118.73
468.05	9181.92
468.23	9015.74
468.41	9095.32
468.60	9266.18
468.78	9298.95
468.96	9034.47
469.14	9355.12
469.32	9362.14
469.50	8999.36
469.69	9158.52
469.87	9210.01
470.05	9399.59
470.23	9231.07
470.41	9444.06
470.59	9490.87
470.77	9598.54
470.95	9713.22
471.14	9811.53
471.32	9645.35
471.50	9841.95
471.68	9757.69
471.86	9687.48
472.04	9865.36
472.22	10104.09
472.40	9703.86
472.58	9912.17
472.77	10024.51
472.95	10080.69
473.13	10427.09
473.31	10022.17
473.49	10101.75
473.67	10246.87
473.85	10366.23
474.03	10487.94
474.21	10380.28
474.39	10558.16
474.57	10473.90
474.75	10726.68
474.93	10670.50
475.12	10654.12
475.30	10967.75
475.48	10780.51
475.66	11145.63
475.84	10796.89
476.02	10960.73
476.20	11089.46
476.38	11178.40
476.56	11307.13
476.74	11236.91
476.92	11318.83
477.10	11573.95
477.28	11698.00
477.46	11562.25
477.64	11648.85
477.82	11927.37
478.00	12086.53
478.18	11983.54
478.36	12051.42
478.54	12168.45
478.72	12201.21
478.90	12578.04
479.08	12439.95
479.26	12580.38
479.44	12676.34
479.62	12856.56
479.80	12610.81
479.98	12982.95
480.16	13013.38
480.34	12891.67
480.52	13369.14
480.70	13062.53
480.88	13172.54
481.06	13385.52
481.24	13589.15
481.41	13497.87
481.59	13715.54
481.77	13895.76
481.95	13657.03
482.13	14075.98
482.31	13944.91
482.49	14244.50
482.67	14298.33
482.85	14581.54
483.03	14523.02
483.21	14572.18
483.39	14827.29
483.57	14881.13
483.74	14824.95
483.92	14930.28
484.10	15136.24
484.28	15059.01
484.46	15585.63
484.64	15782.23
484.82	15440.51
485.00	15625.42
485.18	15988.20
485.35	15758.83
485.53	15590.31
485.71	15662.86
485.89	15702.65
486.07	15861.81
486.25	16248.00
486.43	16706.74
486.61	16673.98
486.78	16772.28
486.96	17092.93
487.14	16863.56
487.32	17317.62
487.50	17188.89
487.68	17715.51
487.85	17612.53
488.03	17813.82
488.21	17989.36
488.39	17830.20
488.57	18099.36
488.75	18176.60
488.92	18211.71
489.10	18731.31
489.28	18864.72
489.46	18845.99
489.64	18913.87
489.81	19154.94
489.99	19302.40
490.17	19548.15
490.35	19527.09
490.53	19765.82
490.70	19719.01
490.88	19782.21
491.06	20002.22
491.24	20130.95
491.41	20156.69
491.59	20088.82
491.77	20051.37
491.95	20472.67
492.13	20709.06
492.30	20732.47
492.48	21167.80
492.66	20994.61
492.84	21046.10
493.01	21359.73
493.19	21411.22
493.37	21551.65
493.54	21507.18
493.72	21804.43
493.90	21851.24
494.08	22029.12
494.25	22450.42
494.43	22293.60
494.61	22537.02
494.79	22408.29
494.96	22623.62
495.14	22448.08
495.32	22803.84
495.49	22562.76
495.67	23147.90
495.85	22965.34
496.02	23634.73
496.20	23328.12
496.38	23295.35
496.55	23770.48
496.73	24070.07
496.91	23721.33
497.09	24189.44
497.26	24566.26
497.44	24168.37
497.62	24283.06
497.79	24489.03
497.97	24482.00
498.14	24582.65
498.32	24917.34
498.50	24861.17
498.67	24601.37
498.85	25282.47
499.03	25132.67
499.20	25425.24
499.38	25097.56
499.56	25631.21
499.73	25479.07
499.91	25507.16
500.08	25834.83
500.26	25458.01
500.44	25937.82
500.61	26001.01
500.79	25766.96
500.97	25965.90
501.14	26560.40
501.32	26298.26
501.49	26181.23
501.67	26005.69
501.84	26518.27
502.02	26565.08
502.20	26799.13
502.37	27129.15
502.55	26960.63
502.72	26916.16
502.90	27084.68
503.07	27091.70
503.25	27061.27
503.43	27269.58
503.60	27576.19
503.78	27300.01
503.95	27398.31
504.13	27950.68
504.30	27927.27
504.48	27971.74
504.65	28191.75
504.83	28189.41
505.01	28198.77
505.18	28166.01
505.36	28463.25
505.53	28638.80
505.71	28814.34
505.88	28891.57
506.06	28582.62
506.23	28755.82
506.41	28919.66
506.58	29048.39
506.76	28790.93
506.93	28982.85
507.11	29195.84
507.28	29237.97
507.46	29127.97
507.63	29551.60
507.81	29331.59
507.98	29055.41
508.16	29589.05
508.33	29827.79
508.50	29830.13
508.68	29921.41
508.85	30408.24
509.03	30335.68
509.20	29907.37
509.38	30717.19
509.55	30305.26
509.73	30384.83
509.90	30466.75
510.08	30368.45
510.25	30188.23
510.42	30738.26
510.60	30960.61
510.77	31119.76
510.95	30976.99
511.12	30866.98
511.30	31143.17
511.47	31438.08
511.64	31543.40
511.82	31630.00
511.99	31257.85
512.17	31714.26
512.34	31407.65
512.51	31667.45
512.69	32238.54
512.86	31845.33
513.04	31974.06
513.21	32285.35
513.38	31988.10
513.56	32053.64
513.73	31826.60
513.90	32032.57
514.08	32135.56
514.25	32430.46
514.43	32098.11
514.60	32121.51
514.77	32428.12
514.95	32861.12
515.12	32711.33
515.29	32479.61
515.47	33235.61
515.64	33116.24
515.81	33046.02
515.99	32737.07
516.16	33125.60
516.33	32744.09
516.51	33317.53
516.68	32788.56
516.85	32638.77
517.03	32950.06
517.20	33167.73
517.37	33298.80
517.54	33273.06
517.72	33408.81
517.89	33223.90
518.06	33490.73
518.24	33582.01
518.41	33759.89
518.58	33525.83
518.75	33790.31
518.93	34199.91
519.10	34515.88
519.27	34190.55
519.45	34197.57
519.62	34721.85
519.79	34183.52
519.96	34855.26
520.14	34756.96
520.31	34403.53
520.48	34635.25
520.65	34588.44
520.83	35054.20
521.00	34948.88
521.17	34953.56
521.34	34682.06
521.52	35292.94
521.69	35154.85
521.86	35131.44
522.03	35449.75
522.20	35484.86
522.38	35557.42
522.55	35524.65
522.72	35517.63
522.89	35859.35
523.07	36161.28
523.24	35463.80
523.41	35702.53
523.58	35878.07
523.75	36814.29
523.92	36177.66
524.10	36362.56
524.27	36821.31
524.44	36388.31
524.61	36624.70
524.78	36928.97
524.96	36552.15
525.13	36898.55
525.30	36744.07
525.47	36891.52
525.64	36699.60
525.81	36786.20
525.98	36687.90
526.16	37022.59
526.33	36851.73
526.50	37340.91
526.67	36531.08
526.84	36769.82
527.01	36825.99
527.18	37219.20
527.36	37397.08
527.53	37326.86
527.70	37755.18
527.87	37546.87
528.04	37603.05
528.21	37497.72
528.38	37752.84
528.55	38394.15
528.72	38057.11
528.89	37635.81
529.07	38258.40
529.24	37469.64
529.41	37792.63
529.58	37626.45
529.75	38101.58
529.92	38291.16
530.09	38415.21
530.26	38368.40
530.43	38309.89
530.60	37991.58
530.77	38139.03
530.94	38265.42
531.11	38190.52
531.28	38670.33
531.46	38890.34
531.63	38787.36
531.80	38506.49
531.97	38988.64
532.14	38616.50
532.31	38579.05
532.48	38581.39
532.65	38979.28
532.82	38782.68
532.99	39180.57
533.16	38822.47
533.33	38829.49
533.50	39358.45
533.67	39426.32
533.84	38728.84
534.01	39344.41
534.18	39126.74
534.35	39618.25
534.52	39468.45
534.69	39405.26
534.86	39697.83
535.03	39749.32
535.20	40137.85
535.37	39901.45
535.54	40165.93
535.71	40062.95
535.88	40144.87
536.05	39438.03
536.22	39763.36
536.38	39917.84
536.55	40158.91
536.72	40151.89
536.89	39777.40
537.06	39686.12
537.23	40236.15
537.40	39889.75
537.57	40203.38
537.74	39938.90
537.91	40404.67
538.08	40514.67
538.25	40273.60
538.42	40137.85
538.59	40362.54
538.75	40095.72
538.92	40559.14
539.09	40718.30
539.26	40147.21
539.43	40959.38
539.60	40919.59
539.77	40706.60
539.94	40837.67
540.11	40842.35
540.28	40554.46
540.44	40933.63
540.61	40814.26
540.78	40552.12
540.95	40870.43
541.12	40582.55
541.29	41228.54
541.46	41062.36
541.62	40985.12
541.79	40926.61
541.96	41081.08
542.13	41003.85
542.30	41338.54
542.47	41486.00
542.63	41174.70
542.80	41876.86
542.97	41881.55
543.14	41975.17
543.31	42237.31
543.48	41717.71
543.64	42389.44
543.81	42298.16
543.98	42143.69
544.15	42160.07
544.32	42131.98
544.48	42349.65
544.65	42169.43
544.82	42401.14
544.99	41462.59
545.16	42012.62
545.32	42347.31
545.49	42511.15
545.66	42391.78
545.83	42408.17
546.00	42267.73
546.16	42417.53
546.33	42555.62
546.50	42169.43
546.67	42515.83
546.83	42085.17
547.00	42700.73
547.17	42478.38
547.34	42529.87
547.50	42909.04
547.67	42906.70
547.84	42829.46
548.00	43014.37
548.17	43220.33
548.34	42895.00
548.51	43002.66
548.67	42976.92
548.84	43098.62
549.01	42997.98
549.18	42691.37
549.34	43009.68
549.51	43264.80
549.68	43297.57
549.84	43246.08
550.01	43398.21
550.18	43842.92
550.34	43353.74
550.51	43178.20
550.68	42934.79
550.84	42609.45
551.01	43461.41
551.18	43351.40
551.34	43143.09
551.51	43562.05
551.68	43896.75
551.84	44025.48
552.01	43695.46
552.18	43915.47
552.34	43409.92
552.51	44142.50
552.68	43805.47
552.84	43770.36
553.01	43990.37
553.18	43800.79
553.34	43784.40
553.51	43901.43
553.67	44105.06
553.84	44416.35
554.01	43831.21
554.17	44285.28
554.34	44100.37
554.51	44208.04
554.67	44264.21
554.84	44046.54
555.00	43927.17
555.17	43957.60
555.33	44027.82
555.50	43929.51
555.67	43770.36
555.83	43976.33
556.00	44126.12
556.16	44722.96
556.33	44252.51
556.50	44151.87
556.66	44458.48
556.83	44278.25
556.99	44692.53
557.16	43941.22
557.32	44289.96
557.49	44402.30
557.65	44327.41
557.82	43983.35
557.98	44081.65
558.15	44369.54
558.32	44863.39
558.48	44222.08
558.65	44474.86
558.81	44285.28
558.98	44573.16
559.14	44662.10
559.31	44137.82
559.47	44706.57
559.64	44765.09
559.80	45340.86
559.97	44659.76
560.13	44678.49
560.30	44793.17
560.46	44706.57
560.63	44648.06
560.79	44917.22
560.96	45099.78
561.12	45186.38
561.29	45076.38
561.45	44999.14
561.61	44868.07
561.78	44676.15
561.94	44760.40
562.11	44832.96
562.27	44683.17
562.44	45186.38
562.60	45198.09
562.77	44823.60
562.93	44931.26
563.10	44971.05
563.26	44495.92
563.42	45139.57
563.59	45174.68
563.75	44753.38
563.92	45406.39
564.08	45233.19
564.24	45443.84
564.41	45200.43
564.57	45305.75
564.74	44975.73
564.90	45064.67
565.07	45315.11
565.23	45312.77
565.39	45160.64
565.56	45441.50
565.72	44832.96
565.88	45490.65
566.05	45298.73
566.21	45675.55
566.38	44851.69
566.54	45127.87
566.70	45352.56
566.87	45626.40
567.03	45577.25
567.19	45343.20
567.36	45338.52
567.52	45296.39
567.68	45635.77
567.85	45294.05
568.01	45181.70
568.17	45235.53
568.34	45610.02
568.50	45294.05
568.66	45509.38
568.83	45509.38
568.99	45258.94
569.15	45610.02
569.32	45338.52
569.48	45069.36
569.64	45855.78
569.81	45102.12
569.97	45289.37
570.13	45684.92
570.30	45361.92
570.46	45233.19
570.62	45366.60
570.78	45167.66
570.95	45574.91
571.11	45120.85
571.27	45144.25
571.43	45235.53
571.60	45626.40
571.76	45560.87
571.92	45380.65
572.09	45289.37
572.25	45153.62
572.41	45481.29
572.57	45635.77
572.74	45954.08
572.90	45837.05
573.06	45277.66
573.22	45310.43
573.38	45111.49
573.55	45085.74
573.71	45331.50
573.87	45387.67
574.03	45598.32
574.20	45312.77
574.36	45357.24
574.52	45595.98
574.68	45525.76
574.84	45446.18
575.01	45605.34
575.17	45500.01
575.33	45251.92
575.49	45514.06
575.65	45792.58
575.82	45937.69
575.98	45490.65
576.14	46068.76
576.30	45951.74
576.46	45478.95
576.62	45516.40
576.79	45591.30
576.95	45511.72
577.11	45689.60
577.27	46047.70
577.43	45862.80
577.59	45773.86
577.75	45951.74
577.92	45289.37
578.08	45425.12
578.24	45415.76
578.40	45525.76
578.56	45918.97
578.72	45705.98
578.88	46026.63
579.04	45780.88
579.21	45656.83
579.37	45427.46
579.53	45738.75
579.69	45467.25
579.85	45567.89
580.01	45942.38
580.17	45607.68
580.33	45539.80
580.49	45535.12
580.65	45750.45
580.82	45858.12
580.98	45750.45
581.14	45577.25
581.30	45743.43
581.46	45982.16
581.62	45750.45
581.78	45762.15
581.94	45813.65
582.10	45572.57
582.26	45940.04
582.42	46047.70
582.58	45595.98
582.74	45626.40
582.90	45588.95
583.06	46113.23
583.22	46033.66
583.38	46248.99
583.54	45918.97
583.70	45687.26
583.86	45502.35
584.02	45518.74
584.18	45902.59
584.34	46085.15
584.50	45893.22
584.66	46232.60
584.82	45689.60
584.98	45844.07
585.14	45914.29
585.30	45282.34
585.46	46019.61
585.62	45399.37
585.78	45375.97
585.94	45359.58
586.10	45764.49
586.26	45766.84
586.42	46012.59
586.58	46092.17
586.74	45890.88
586.90	45993.87
587.06	45982.16
587.22	45628.74
587.38	45500.01
587.54	45799.60
587.70	46115.58
587.86	45965.78
588.02	46164.73
588.18	46220.90
588.34	45539.80
588.49	45254.26
588.65	45507.04
588.81	45525.76
588.97	45368.94
589.13	45516.40
589.29	45670.87
589.45	46010.25
589.61	45825.35
589.77	46115.58
589.93	45818.33
590.08	45837.05
590.24	46244.30
590.40	46204.52
590.56	45883.86
590.72	45998.55
590.88	45556.19
591.04	45991.53
591.20	46213.88
591.35	46178.77
591.51	46174.09
591.67	46302.82
591.83	45827.69
591.99	45958.76
592.15	46068.76
592.31	46314.52
592.46	46040.68
592.62	45900.25
592.78	46459.63
592.94	46293.46
593.10	45610.02
593.26	46148.34
593.41	45930.67
593.57	46197.49
593.73	46082.81
593.89	46164.73
594.05	45551.51
594.20	46017.27
594.36	45916.63
594.52	46033.66
594.68	45811.31
594.84	45991.53
594.99	46183.45
595.15	46195.15
595.31	46398.78
595.47	46288.77
595.62	46028.98
595.78	46403.46
595.94	46476.02
596.10	46422.19
596.25	46234.94
596.41	46131.96
596.57	46218.56
596.73	46300.48
596.88	45811.31
597.04	46017.27
597.20	45996.21
597.36	46167.07
597.51	46206.86
597.67	45862.80
597.83	46007.91
597.99	46241.96
598.14	46138.98
598.30	45900.25
598.46	45876.84
598.61	46127.28
598.77	46445.59
598.93	46457.29
599.09	45825.35
599.24	46333.24
599.40	46363.67
599.56	46398.78
599.71	46225.58
599.87	46593.04
600.03	46787.31
600.18	46368.35
600.34	46562.62
600.50	46057.06
600.65	46047.70
600.81	46443.25
600.97	46625.81
601.12	46731.14
601.28	46312.18
601.44	46103.87
601.59	46066.42
601.75	46050.04
601.91	46157.70
602.06	45783.22
602.22	46174.09
602.37	46190.47
602.53	46134.30
602.69	46520.49
602.84	46178.77
603.00	46071.10
603.16	46230.26
603.31	45911.95
603.47	45918.97
603.62	45930.67
603.78	46106.21
603.94	45879.18
604.09	45893.22
604.25	46174.09
604.40	46457.29
604.56	46010.25
604.71	46078.13
604.87	46171.75
605.03	46490.06
605.18	46000.89
605.34	45918.97
605.49	46047.70
605.65	46220.90
605.80	46260.69
605.96	45851.09
606.12	46361.33
606.27	46373.03
606.43	45677.90
606.58	46244.30
606.74	45785.56
606.89	45581.93
607.05	46052.38
607.20	45923.65
607.36	45841.73
607.51	46043.02
607.67	45851.09
607.82	45727.05
607.98	45705.98
608.13	45478.95
608.29	46028.98
608.44	45258.94
608.60	45434.48
608.75	45392.35
608.91	45256.60
609.06	45509.38
609.22	46028.98
609.37	45469.59
609.53	45603.00
609.68	45656.83
609.84	45724.71
609.99	45542.14
610.15	45729.39
610.30	45687.26
610.46	45640.45
610.61	45729.39
610.76	45574.91
610.92	45577.25
611.07	45710.66
611.23	45727.05
611.38	45689.60
611.54	45682.58
611.69	45193.40
611.84	45427.46
612.00	45385.33
612.15	45165.32
612.31	45352.56
612.46	45631.08
612.62	45287.03
612.77	45808.96
612.92	46387.08
613.08	45155.96
613.23	45347.88
613.39	45174.68
613.54	45059.99
613.69	44933.60
613.85	45071.70
614.00	45083.40
614.15	45567.89
614.31	45450.86
614.46	45350.22
614.62	45181.70
614.77	45022.54
614.92	45132.55
615.08	45158.30
615.23	44460.82
615.38	45191.06
615.54	44289.96
615.69	44814.24
615.84	45144.25
616.00	44811.90
616.15	44629.34
616.30	44729.98
616.46	44486.56
616.61	44605.93
616.76	44783.81
616.92	44524.01
617.07	44737.00
617.22	44109.74
617.37	44793.17
617.53	44884.45
617.68	44847.00
617.83	44891.48
617.99	44772.11
618.14	44875.09
618.29	44519.33
618.45	44154.21
618.60	44830.62
618.75	44662.10
618.90	44610.61
619.06	44285.28
619.21	44184.63
619.36	44748.70
619.51	44542.74
619.67	44587.21
619.82	44114.42
619.97	44849.35
620.12	44463.16
620.28	44432.73
620.43	43798.44
620.58	44320.38
620.73	44079.31
620.89	44203.36
621.04	44151.87
621.19	43997.39
621.34	43819.51
621.49	43966.96
621.65	43871.00
621.80	43674.40
621.95	43599.50
622.10	43969.30
622.25	43885.04
622.41	43716.53
622.56	43386.51
622.71	43548.01
622.86	43945.90
623.01	43679.08
623.16	43910.79
623.32	43842.92
623.47	44018.46
623.62	43632.27
623.77	43461.41
623.92	43477.79
624.07	43763.34
624.23	43615.88
624.38	43613.54
624.53	43239.06
624.68	43129.05
624.83	43906.11
624.98	43892.07
625.13	43412.26
625.29	43571.41
625.44	43253.10
625.59	42754.57
625.74	42897.34
625.89	43388.85
626.04	43168.84
626.19	43185.22
626.34	43328.00
626.49	42965.21
626.65	42806.06
626.80	43110.33
626.95	43168.84
627.10	43112.67
627.25	42995.64
627.40	42752.23
627.55	42574.34
627.70	42183.48
627.85	42436.25
628.00	42321.57
628.15	42581.37
628.30	42817.76
628.45	42637.54
628.60	42443.27
628.76	43395.87
628.91	42462.00
629.06	42693.71
629.21	42763.93
629.36	42572.00
629.51	42239.65
629.66	42464.34
629.81	42153.05
629.96	42356.67
630.11	42532.22
630.26	42382.42
630.41	42775.63
630.56	42478.38
630.71	42223.26
630.86	42508.81
631.01	42230.29
631.16	41816.01
631.31	41766.86
631.46	41804.31
631.61	41918.99
631.76	42087.51
631.91	42031.34
632.06	42139.00
632.21	42225.60
632.36	42204.54
632.51	42054.75
632.66	41968.15
632.81	41743.45
632.96	41991.55
633.10	41752.82
633.25	41874.52
633.40	41982.19
633.55	42253.69
633.70	42260.71
633.85	41717.71
634.00	41956.44
634.15	41584.30
634.30	41490.68
634.45	41909.63
634.60	41441.53
634.75	41694.30
634.90	41408.76
635.05	41603.02
635.19	41715.37
635.34	41273.01
635.49	41490.68
635.64	41544.51
635.79	41331.52
635.94	40856.39
636.09	41347.90
636.24	41067.04
636.39	41137.26
636.53	40882.14
636.68	40832.99
636.83	41235.56
636.98	41106.83
637.13	41001.50
637.28	41006.19
637.43	41006.19
637.57	41226.20
637.72	41095.13
637.87	41504.72
638.02	41551.53
638.17	41303.43
638.32	41244.92
638.46	40741.71
638.61	41212.15
638.76	40631.70
638.91	40694.89
639.06	40999.16
639.20	41289.39
639.35	41097.47
639.50	40746.39
639.65	40931.29
639.80	40961.72
639.94	40699.58
640.09	40385.94
640.24	40669.15
640.39	40409.35
640.54	40889.16
640.68	40910.22
640.83	40521.69
640.98	40514.67
641.13	40526.38
641.27	40781.49
641.42	40690.21
641.57	40603.61
641.72	40659.79
641.86	40395.31
642.01	40500.63
642.16	40416.37
642.31	39952.94
642.45	40238.49
642.60	40004.44
642.75	40004.44
642.90	39908.47
643.04	40472.54
643.19	39871.03
643.34	39861.66
643.48	40051.25
643.63	40252.53
643.78	40128.48
643.93	39728.25
644.07	39711.87
644.22	40030.18
644.37	40156.57
644.51	40048.91
644.66	39943.58
644.81	39735.27
644.95	40009.12
645.10	39885.07
645.25	40404.67
645.39	39908.47
645.54	39566.76
645.69	39559.73
645.83	39351.43
645.98	39611.23
646.13	40055.93
646.27	39564.42
646.42	40046.57
646.57	39643.99
646.71	39433.35
646.86	39831.24
647.00	39672.08
647.15	39400.58
647.30	39651.02
647.44	39433.35
647.59	39374.83
647.74	39082.27
647.88	39276.53
648.03	39328.02
648.17	39255.46
648.32	38932.47
648.47	39416.96
648.61	38902.04
648.76	39166.52
648.90	39386.54
649.05	39180.57
649.20	39311.64
649.34	39548.03
649.49	39019.07
649.63	39459.09
649.78	38988.64
649.92	38773.31
650.07	39428.66
650.21	38925.45
650.36	39199.29
650.51	38787.36
650.65	39335.04
650.80	39199.29
650.94	39110.35
651.09	38806.08
651.23	38660.97
651.38	38862.26
651.52	38370.74
651.67	38419.89
651.81	38850.55
651.96	38553.30
652.10	38476.07
652.25	38611.82
652.39	38473.73
652.54	38899.70
652.68	38754.59
652.83	38976.94
652.97	38576.71
653.12	38705.44
653.26	38466.70
653.41	38822.47
653.55	37865.19
653.70	38251.38
653.84	38707.78
653.99	38239.67
654.13	38675.01
654.27	38387.13
654.42	38614.16
654.56	38476.07
654.71	38450.32
654.85	38174.14
655.00	37830.08
655.14	38155.41
655.29	37841.78
655.43	38089.88
655.57	37518.79
655.72	37441.55
655.86	37521.13
656.01	37584.32
656.15	37511.77
656.30	37612.41
656.44	37619.43
656.58	37116.22
656.73	37258.99
656.87	37390.06
657.01	37869.87
657.16	37457.93
657.30	37390.06
657.45	37312.82
657.59	37139.62
657.73	37366.65
657.88	37610.07
658.02	37146.64
658.16	37483.68
658.31	37481.34
658.45	37743.48
658.60	37116.22
658.74	37764.54
658.88	37015.57
659.03	37251.97
659.17	37064.72
659.31	36797.90
659.46	36739.39
659.60	36833.01
659.74	36526.40
659.89	36851.73
660.03	36046.59
660.17	36884.50
660.32	36847.05
660.46	36896.20
660.60	36683.22
660.74	36486.61
660.89	36882.16
661.03	36481.93
661.17	36290.01
661.32	36507.68
661.46	36385.97
661.60	36311.07
661.74	36439.80
661.89	36067.66
662.03	36182.34
662.17	36336.82
662.31	35793.81
662.46	36500.65
662.60	36559.17
662.74	36350.86
662.88	36128.51
663.03	35999.78
663.17	35845.30
663.31	35655.72
663.45	35779.77
663.60	35990.42
663.74	35793.81
663.88	35779.77
664.02	35285.92
664.17	35501.25
664.31	35557.42
664.45	35346.77
664.59	35873.39
664.73	35309.32
664.88	35548.06
665.02	35236.77
665.16	35229.74
665.30	35194.64
665.44	34969.94
665.59	34560.35
665.73	34873.98
665.87	34871.64
666.01	35267.19
666.15	34352.04
666.29	34642.27
666.44	34597.80
666.58	34630.57
666.72	34635.25
666.86	34660.99
667.00	34888.03
667.14	34265.44
667.28	34597.80
667.43	34256.08
667.57	33928.41
667.71	33895.64
667.85	34075.86
667.99	34181.18
668.13	34288.85
668.27	34089.90
668.41	34134.37
668.56	33464.98
668.70	34082.88
668.84	34108.63
668.98	34012.66
669.12	33525.83
669.26	34132.03
669.40	33661.58
669.54	33677.97
669.68	33855.85
669.82	33596.05
669.96	33228.59
670.10	33422.85
670.25	33900.32
670.39	33373.70
670.53	33380.72
670.67	33074.11
670.81	33291.78
670.95	33338.59
671.09	33099.86
671.23	33448.60
671.37	33289.44
671.51	32818.99
671.65	32219.81
671.79	32407.06
671.93	32856.44
672.07	32559.19
672.21	32542.81
672.35	32840.06
672.49	32446.85
672.63	32491.32
672.77	32411.74
672.91	32432.80
673.05	31962.36
673.19	31864.05
673.33	31686.17
673.47	31779.79
673.61	31732.98
673.75	31433.39
673.89	31414.67
674.03	31290.62
674.17	31527.02
674.31	31672.13
674.45	31201.68
674.59	31337.43
674.73	31047.21
674.87	31101.04
675.01	31519.99
675.15	30937.20
675.29	31218.07
675.43	30663.36
675.56	30696.13
675.70	30787.41
675.84	30607.19
675.98	30075.88
676.12	30836.56
676.26	30670.38
676.40	30497.18
676.54	30120.35
676.68	30197.59
676.82	28919.66
676.96	29890.98
677.10	29589.05
677.23	29954.18
677.37	29663.95
677.51	29780.98
677.65	29640.54
677.79	29654.59
677.93	29689.70
678.07	29542.24
678.21	29350.32
678.34	29163.08
678.48	29200.52
678.62	28893.91
678.76	28973.49
678.90	28833.06
679.04	28964.13
679.18	28999.24
679.31	28575.60
679.45	28397.72
679.59	28140.26
679.73	28409.42
679.87	28318.14
680.00	27875.78
680.14	27662.79
680.28	27967.06
680.42	27821.95
680.56	27896.85
680.70	27847.69
680.83	27555.13
680.97	27494.27
681.11	27824.29
681.25	27335.12
681.39	27232.13
681.52	27262.56
681.66	27119.79
681.80	27157.24
681.94	27482.57
682.07	26923.18
682.21	26960.63
682.35	26501.89
682.49	26843.60
682.62	26637.64
682.76	26609.55
682.90	26380.18
683.04	26281.88
683.17	26199.96
683.31	26171.87
683.45	26029.10
683.59	26022.08
683.72	25729.51
683.86	25366.73
684.00	25500.14
684.13	25851.22
684.27	25518.86
684.41	25322.26
684.55	25289.49
684.68	25673.34
684.82	25233.32
684.96	25191.19
685.09	25432.26
685.23	25055.43
685.37	24694.99
685.50	24861.17
685.64	24807.34
685.78	24556.90
685.91	24559.24
686.05	24418.81
686.19	24032.62
686.32	24442.21
686.46	23695.58
686.60	23791.55
686.73	24191.78
686.87	23576.22
687.01	23445.15
687.14	23281.31
687.28	23513.02
687.42	23473.23
687.55	23403.02
687.69	23180.67
687.82	22988.74
687.96	23524.72
688.10	23124.49
688.23	23117.47
688.37	22993.42
688.50	22827.24
688.64	22822.56
688.78	22635.32
688.91	22464.46
689.05	22569.79
689.18	22267.86
689.32	21823.16
689.46	22258.49
689.59	22565.10
689.73	22204.66
689.86	22225.73
690.00	21867.63
690.13	21937.84
690.27	21933.16
690.41	21673.36
690.54	21523.57
690.68	21596.12
690.81	21490.80
690.95	21275.47
691.08	21128.02
691.22	21305.90
691.35	21343.35
691.49	21682.72
691.62	21284.83
691.76	20776.94
691.89	20854.17
692.03	20769.91
692.16	20737.15
692.30	20713.74
692.43	20524.16
692.57	20121.59
692.70	20556.93
692.84	20105.20
692.97	20365.00
693.11	20027.96
693.24	20081.80
693.38	20081.80
693.51	19915.62
693.65	19829.02
693.78	19985.83
693.92	19793.91
694.05	19644.12
694.19	19690.93
694.32	19206.44
694.45	19138.56
694.59	19344.53
694.72	19222.82
694.86	19126.86
694.99	18995.79
695.13	19145.58
695.26	18883.44
695.39	18775.78
695.53	18668.11
695.66	18588.53
695.80	18686.84
695.93	18452.78
696.07	18148.51
696.20	18267.88
696.33	18214.05
696.47	18108.72
696.60	18132.13
696.73	17769.35
696.87	17727.22
697.00	17701.47
697.14	17722.54
697.27	17862.97
697.40	17752.96
697.54	17752.96
697.67	17579.76
697.80	17547.00
697.94	17359.75
698.07	17413.59
698.21	17242.73
698.34	17514.23
698.47	17268.47
698.61	16737.17
698.74	16704.40
698.87	16912.71
699.01	16760.58
699.14	16615.46
699.27	16547.59
699.40	16711.42
699.54	16477.37
699.67	16128.63
699.80	16535.88
699.94	16362.69
700.07	16439.92
700.20	15981.18
700.34	16184.80
700.47	15859.47
700.60	16152.04
700.73	16329.92
700.87	15934.37
701.00	15503.71
701.13	15606.69
701.26	15702.65
701.40	15597.33
701.53	15672.23
701.66	15059.01
701.79	15131.56
701.93	15398.38
702.06	14934.96
702.19	14970.07
702.32	14970.07
702.46	15089.43
702.59	14853.04
702.72	14871.76
702.85	15007.52
702.99	15087.09
703.12	14731.33
703.25	14651.75
703.38	14892.83
703.51	14679.84
703.65	14497.28
703.78	14375.57
703.91	14228.12
704.04	14480.89
704.17	14352.16
704.31	14141.52
704.44	13916.83
704.57	13947.25
704.70	14118.11
704.83	13874.70
704.96	13724.90
705.10	14026.83
705.23	14101.73
>>>>>End Processed Spectral Data<<<<<
