SpectraSuite Data File
++++++++++++++++++++++++++++++++++++
Date: Fri Oct 25 10:47:47 EDT 2013
User: price-jones
Dark Spectrum Present: No
Reference Spectrum Present: No
Number of Sampled Component Spectra: 1
Spectrometers: USB2+H05261
Integration Time (usec): 100000 (USB2+H05261)
Spectra Averaged: 1 (USB2+H05261)
Boxcar Smoothing: 0 (USB2+H05261)
Correct for Electrical Dark: No (USB2+H05261)
Strobe/Lamp Enabled: No (USB2+H05261)
Correct for Detector Non-linearity: No (USB2+H05261)
Correct for Stray Light: No (USB2+H05261)
Number of Pixels in Processed Spectrum: 2048
>>>>>Begin Processed Spectral Data<<<<<
365.73	107.66
365.92	107.66
366.12	107.66
366.32	67.88
366.52	0.00
366.72	46.81
366.91	0.00
367.11	51.49
367.31	21.06
367.51	77.24
367.70	79.58
367.90	49.15
368.10	79.58
368.30	25.75
368.49	37.45
368.69	79.58
368.89	102.98
369.09	14.04
369.28	51.49
369.48	23.41
369.68	77.24
369.87	156.82
370.07	112.35
370.27	72.56
370.47	168.52
370.66	376.83
370.86	435.34
371.06	435.34
371.25	468.11
371.45	374.49
371.65	421.30
371.84	393.21
372.04	390.87
372.24	470.45
372.44	409.59
372.63	540.66
372.83	622.58
373.03	496.19
373.22	407.25
373.42	528.96
373.62	568.75
373.81	514.92
374.01	610.88
374.21	519.60
374.40	514.92
374.60	517.26
374.79	528.96
374.99	528.96
375.19	578.11
375.38	610.88
375.58	559.39
375.78	531.30
375.97	571.09
376.17	629.60
376.37	634.29
376.56	545.34
376.76	589.82
376.95	634.29
377.15	594.50
377.35	547.69
377.54	683.44
377.74	624.92
377.93	580.45
378.13	596.84
378.33	648.33
378.52	608.54
378.72	685.78
378.91	608.54
379.11	580.45
379.31	578.11
379.50	599.18
379.70	709.18
379.89	662.37
380.09	617.90
380.28	585.13
380.48	629.60
380.68	620.24
380.87	681.10
381.07	620.24
381.26	699.82
381.46	573.43
381.65	671.73
381.85	695.14
382.04	711.52
382.24	720.88
382.43	655.35
382.63	615.56
382.83	688.12
383.02	617.90
383.22	779.40
383.41	613.22
383.61	699.82
383.80	767.70
384.00	702.16
384.19	744.29
384.39	791.10
384.58	709.18
384.78	716.20
384.97	709.18
385.17	772.38
385.36	697.48
385.56	763.01
385.75	697.48
385.95	781.74
386.14	819.19
386.34	777.06
386.53	772.38
386.72	851.96
386.92	793.44
387.11	823.87
387.31	868.34
387.50	828.55
387.70	777.06
387.89	781.74
388.09	805.14
388.28	788.76
388.48	758.33
388.67	884.72
388.86	851.96
389.06	891.74
389.25	870.68
389.45	940.90
389.64	954.94
389.84	922.17
390.03	866.00
390.22	919.83
390.42	987.71
390.61	887.06
390.81	940.90
391.00	990.05
391.19	1036.86
391.39	1001.75
391.58	1027.50
391.78	985.37
391.97	922.17
392.16	952.60
392.36	1097.71
392.55	954.94
392.75	985.37
392.94	924.51
393.13	933.87
393.33	973.66
393.52	964.30
393.71	994.73
393.91	1060.26
394.10	1053.24
394.29	1074.31
394.49	1034.52
394.68	1111.75
394.88	1153.88
395.07	1074.31
395.26	1193.67
395.46	1006.43
395.65	1144.52
395.84	1116.44
396.04	1160.91
396.23	1217.08
396.42	1165.59
396.62	1107.07
396.81	1078.99
397.00	1146.86
397.19	1221.76
397.39	1191.33
397.58	1315.38
397.77	1282.61
397.97	1270.91
398.16	1299.00
398.35	1320.06
398.55	1362.19
398.74	1235.80
398.93	1270.91
399.12	1371.55
399.32	1268.57
399.51	1355.17
399.70	1371.55
399.90	1355.17
400.09	1472.20
400.28	1387.94
400.47	1420.71
400.67	1511.99
400.86	1348.15
401.05	1416.02
401.24	1462.83
401.44	1572.84
401.63	1511.99
401.82	1481.56
402.01	1439.43
402.21	1509.65
402.40	1495.60
402.59	1568.16
402.78	1570.50
402.97	1537.73
403.17	1603.27
403.36	1563.48
403.55	1621.99
403.74	1586.88
403.93	1668.80
404.13	1713.27
404.32	1629.01
404.51	1636.03
404.70	1631.35
404.89	1605.61
405.09	1741.36
405.28	1657.10
405.47	1771.79
405.66	1699.23
405.85	1762.42
406.05	1760.08
406.24	1830.30
406.43	1856.04
406.62	1872.43
406.81	1996.48
407.00	1853.70
407.20	1842.00
407.39	1722.63
407.58	1916.90
407.77	1858.39
407.96	2062.01
408.15	1811.57
408.34	1795.19
408.54	1998.82
408.73	1982.43
408.92	2038.61
409.11	2085.42
409.30	2099.46
409.49	2057.33
409.68	2050.31
409.87	2080.74
410.07	2045.63
410.26	2066.69
410.45	2136.91
410.64	2127.55
410.83	2197.76
411.02	2225.85
411.21	2228.19
411.40	2214.15
411.59	2370.96
411.78	2312.45
411.98	2328.83
412.17	2279.68
412.36	2382.67
412.55	2415.43
412.74	2420.11
412.93	2370.96
413.12	2363.94
413.31	2593.31
413.50	2518.42
413.69	2502.03
413.88	2567.57
414.07	2553.52
414.26	2649.49
414.45	2647.15
414.64	2572.25
414.83	2642.46
415.02	2775.88
415.22	2693.96
415.41	2960.78
415.60	2785.24
415.79	2930.35
415.98	2913.97
416.17	2937.37
416.36	2885.88
416.55	2923.33
416.74	2860.13
416.93	2932.69
417.12	2874.18
417.31	2979.50
417.50	2878.86
417.69	3145.68
417.88	3103.55
418.07	3014.61
418.26	2928.01
418.45	3157.38
418.64	3276.75
418.83	3169.09
419.02	3110.57
419.21	3265.05
419.39	3171.43
419.58	2991.20
419.77	3103.55
419.96	3424.20
420.15	3337.60
420.34	3290.79
420.53	3253.34
420.72	3405.48
420.91	3304.84
421.10	3463.99
421.29	3503.78
421.48	3485.06
421.67	3400.80
421.86	3386.76
422.05	3407.82
422.24	3391.44
422.43	3379.73
422.61	3414.84
422.80	3574.00
422.99	3480.38
423.18	3604.42
423.37	3644.21
423.56	3431.23
423.75	3536.55
423.94	3461.65
424.13	3389.10
424.32	3318.88
424.50	3459.31
424.69	3676.98
424.88	3590.38
425.07	3449.95
425.26	3562.30
425.45	3583.36
425.64	3440.59
425.83	3459.31
426.01	3637.19
426.20	3496.76
426.39	3515.48
426.58	3665.28
426.77	3576.34
426.96	3566.98
427.15	3581.02
427.33	3566.98
427.52	3765.92
427.71	3592.72
427.90	3684.00
428.09	3768.26
428.28	3709.75
428.46	3819.75
428.65	3719.11
428.84	3798.69
429.03	3967.21
429.22	3721.45
429.40	3756.56
429.59	3826.78
429.78	3637.19
429.97	3609.11
430.16	3637.19
430.34	3906.35
430.53	4002.32
430.72	3971.89
430.91	3901.67
431.10	4042.11
431.28	3969.55
431.47	4234.03
431.66	4152.11
431.85	4074.87
432.03	4140.41
432.22	4133.39
432.41	4250.41
432.60	4238.71
432.79	4304.25
432.97	4264.46
433.16	4205.94
433.35	4135.73
433.54	4212.96
433.72	4327.65
433.91	4184.88
434.10	4238.71
434.28	4315.95
434.47	4367.44
434.66	4346.37
434.85	4402.55
435.03	4493.83
435.22	4493.83
435.41	4575.75
435.59	4561.70
435.78	4498.51
435.97	4535.96
436.16	4561.70
436.34	4599.15
436.53	4636.60
436.72	4870.65
436.90	4608.51
437.09	4648.30
437.28	4585.11
437.46	4671.71
437.65	4636.60
437.84	4669.37
438.02	4784.06
438.21	4755.97
438.40	4411.91
438.58	4997.04
438.77	4770.01
438.96	4856.61
439.14	4884.70
439.33	4889.38
439.52	4943.21
439.70	4957.25
439.89	5078.96
440.08	5078.96
440.26	5083.64
440.45	5144.50
440.63	5207.69
440.82	5427.70
441.01	5277.91
441.19	5469.83
441.38	5317.70
441.57	5376.21
441.75	5589.20
441.94	5598.56
442.12	5621.97
442.31	5607.92
442.50	5764.74
442.68	5659.42
442.87	5518.98
443.05	5657.07
443.24	5612.60
443.43	5785.80
443.61	5675.80
443.80	5914.53
443.98	5886.45
444.17	5626.65
444.35	5921.56
444.54	5949.64
444.73	5944.96
444.91	5849.00
445.10	5762.40
445.28	5771.76
445.47	5650.05
445.65	5722.61
445.84	5799.85
446.02	5933.26
446.21	5959.00
446.39	5694.52
446.58	5919.21
446.77	6045.60
446.95	5846.66
447.14	5860.70
447.32	6003.47
447.51	6024.54
447.69	5872.40
447.88	5982.41
448.06	6061.99
448.25	5968.37
448.43	5973.05
448.62	5947.30
448.80	6008.16
448.99	5968.37
449.17	6186.04
449.36	6146.25
449.54	6373.28
449.73	6324.13
449.91	6417.75
450.10	6370.94
450.28	6516.05
450.46	6298.38
450.65	6420.09
450.83	6413.07
451.02	6251.57
451.20	6413.07
451.39	6352.21
451.57	6441.15
451.76	6506.69
451.94	6480.94
452.13	6539.46
452.31	6396.68
452.49	6232.85
452.68	6445.84
452.86	6387.32
453.05	6443.49
453.23	6649.46
453.42	6356.90
453.60	6581.59
453.78	6630.74
453.97	6525.41
454.15	6506.69
454.34	6600.31
454.52	6867.13
454.70	6771.17
454.89	6679.89
455.07	6792.23
455.26	6892.88
455.44	6956.07
455.62	7105.87
455.81	6935.01
455.99	6918.62
456.17	7021.61
456.36	6991.18
456.54	7005.22
456.73	7138.63
456.91	7351.62
457.09	7286.09
457.28	7414.82
457.46	7204.17
457.64	7379.71
457.83	7492.05
458.01	7045.01
458.19	7461.63
458.38	7321.20
458.56	7564.61
458.74	7360.98
458.93	7440.56
459.11	7281.41
459.29	7543.55
459.48	7522.48
459.66	7414.82
459.84	7442.90
460.03	7648.87
460.21	7679.30
460.39	7639.51
460.57	7611.42
460.76	7646.53
460.94	7803.35
461.12	7873.56
461.31	7894.63
461.49	7557.59
461.67	7679.30
461.85	7929.74
462.04	7815.05
462.22	8276.13
462.40	8002.29
462.59	8124.00
462.77	8077.19
462.95	7999.95
463.13	8149.75
463.32	8030.38
463.50	8098.25
463.68	8107.62
463.86	8241.03
464.05	8079.53
464.23	8074.85
464.41	8105.28
464.59	8224.64
464.78	8421.25
464.96	8292.52
465.14	8128.68
465.32	8264.43
465.50	8358.05
465.69	8484.44
465.87	8346.35
466.05	8358.05
466.23	8374.44
466.41	8564.02
466.60	8634.24
466.78	8276.13
466.96	8381.46
467.14	8477.42
467.32	8418.91
467.51	8711.47
467.69	8482.10
467.87	8528.91
468.05	8423.59
468.23	8486.78
468.41	8294.86
468.60	8585.08
468.78	8739.56
468.96	8702.11
469.14	8868.29
469.32	8772.33
469.50	8540.61
469.69	9006.38
469.87	8924.46
470.05	8945.53
470.23	8959.57
470.41	8840.20
470.59	9041.49
470.77	8943.19
470.95	9041.49
471.14	9221.71
471.32	9107.02
471.50	9184.26
471.68	8978.30
471.86	9226.39
472.04	9430.02
472.22	9514.28
472.40	9357.46
472.58	9427.68
472.77	9521.30
472.95	9741.31
473.13	9851.31
473.31	9664.07
473.49	9607.90
473.67	9633.64
473.85	9633.64
474.03	10015.15
474.21	9811.53
474.39	10129.84
474.57	9937.91
474.75	10005.79
474.93	10326.44
475.12	10169.63
475.30	10076.01
475.48	10183.67
475.66	10349.85
475.84	10377.94
476.02	10471.56
476.20	10441.13
476.38	10511.35
476.56	10834.34
476.74	10714.97
476.92	10698.59
477.10	10965.41
477.28	10951.37
477.46	10836.68
477.64	11073.07
477.82	11246.27
478.00	11438.20
478.18	11206.48
478.36	11367.98
478.54	11627.78
478.72	11578.63
478.90	11651.19
479.08	11978.86
479.26	11892.26
479.44	12147.38
479.62	11976.52
479.80	12201.21
479.98	11978.86
480.16	12475.06
480.34	12280.79
480.52	12273.77
480.70	12390.80
480.88	12463.35
481.06	12446.97
481.24	12779.32
481.41	12929.12
481.59	13149.13
481.77	13132.75
481.95	13226.37
482.13	13284.88
482.31	13336.37
482.49	13692.13
482.67	13654.69
482.85	13600.85
483.03	13935.55
483.21	13975.34
483.39	13933.21
483.57	14092.37
483.74	14249.18
483.92	14434.08
484.10	13991.72
484.28	14609.62
484.46	14532.39
484.64	15140.93
484.82	15122.20
485.00	14853.04
485.18	14998.15
485.35	14998.15
485.53	14885.81
485.71	15049.64
485.89	15344.55
486.07	15391.36
486.25	15276.68
486.43	15662.86
486.61	15604.35
486.78	15686.27
486.96	15906.28
487.14	16194.17
487.32	16156.72
487.50	16477.37
487.68	16739.51
487.85	16683.34
488.03	16819.09
488.21	16975.91
488.39	17013.35
488.57	17097.61
488.75	17238.05
488.92	17619.55
489.10	17687.43
489.28	17516.57
489.46	17867.65
489.64	17846.58
489.81	18354.48
489.99	18015.10
490.17	18246.82
490.35	18546.40
490.53	18621.30
490.70	18595.56
490.88	18771.10
491.06	19321.12
491.24	18941.96
491.41	19403.04
491.59	19005.15
491.77	19105.79
491.95	19510.71
492.13	19477.94
492.30	19749.44
492.48	20002.22
492.66	19899.23
492.84	19964.77
493.01	20156.69
493.19	20177.76
493.37	20259.68
493.54	20407.13
493.72	20608.42
493.90	20809.70
494.08	21153.76
494.25	21289.51
494.43	21418.24
494.61	21132.70
494.79	21371.43
494.96	21348.03
495.14	21486.12
495.32	21589.10
495.49	21898.05
495.67	21982.31
495.85	22148.49
496.02	22223.39
496.20	22469.14
496.38	22473.82
496.55	22602.55
496.73	23094.07
496.91	22583.83
497.09	22745.33
497.26	23087.04
497.44	22902.14
497.62	23023.85
497.79	23618.35
497.97	23131.51
498.14	23435.78
498.32	23805.59
498.50	23936.66
498.67	23896.87
498.85	24217.52
499.03	23990.49
499.20	23847.72
499.38	24231.57
499.56	24467.96
499.73	24346.25
499.91	24526.47
500.08	24746.48
500.26	24283.06
500.44	24936.07
500.61	24643.50
500.79	24837.76
500.97	25010.96
501.14	25427.58
501.32	25022.67
501.49	25338.64
501.67	24985.22
501.84	25275.45
502.02	25111.61
502.20	25415.88
502.37	25851.22
502.55	25577.37
502.72	25586.74
502.90	25876.96
503.07	25907.39
503.25	26082.93
503.43	25668.66
503.60	26120.38
503.78	26160.17
503.95	26101.65
504.13	26424.65
504.30	26927.86
504.48	26754.66
504.65	26546.36
504.83	27058.93
505.01	26745.30
505.18	26820.20
505.36	27257.88
505.53	27119.79
505.71	27318.73
505.88	27426.40
506.06	26906.80
506.23	27456.82
506.41	27431.08
506.58	27711.94
506.76	27566.83
506.93	27810.25
507.11	27489.59
507.28	27742.37
507.46	27566.83
507.63	27864.08
507.81	28236.22
507.98	27997.49
508.16	27892.16
508.33	28283.03
508.50	28500.70
508.68	28409.42
508.85	28755.82
509.03	28837.74
509.20	28975.83
509.38	29179.46
509.55	29153.71
509.73	29195.84
509.90	28938.38
510.08	28910.30
510.25	29404.15
510.42	29223.93
510.60	29692.04
510.77	29741.19
510.95	29549.26
511.12	29507.13
511.30	29764.59
511.47	29907.37
511.64	29928.43
511.82	30059.50
511.99	30139.08
512.17	30146.10
512.34	29818.42
512.51	30569.74
512.69	30794.43
512.86	30541.65
513.04	30675.06
513.21	30513.56
513.38	30838.90
513.56	30525.27
513.73	30536.97
513.90	30918.48
514.08	30639.95
514.25	30969.97
514.43	31070.61
514.60	30843.58
514.77	30609.53
514.95	31639.36
515.12	30848.26
515.29	31002.74
515.47	31658.09
515.64	31737.66
515.81	31470.84
515.99	31786.82
516.16	31852.35
516.33	31353.82
516.51	31915.54
516.68	31307.01
516.85	31276.58
517.03	31835.97
517.20	32037.25
517.37	32041.93
517.54	32376.63
517.72	32629.41
517.89	32259.60
518.06	32112.15
518.24	32016.19
518.41	32196.41
518.58	32287.69
518.75	32308.76
518.93	32271.31
519.10	32966.45
519.27	32954.74
519.45	32687.92
519.62	33132.62
519.79	33254.33
519.96	33104.54
520.14	33345.61
520.31	33322.21
520.48	33462.64
520.65	33298.80
520.83	33663.93
521.00	34043.09
521.17	33319.87
521.34	33921.38
521.52	33429.87
521.69	34197.57
521.86	33930.75
522.03	34199.91
522.20	34087.56
522.38	34050.11
522.55	34026.71
522.72	34682.06
522.89	34139.05
523.07	34682.06
523.24	34106.29
523.41	34448.00
523.58	34927.81
523.75	34714.83
523.92	34948.88
524.10	34836.53
524.27	34815.47
524.44	34761.64
524.61	34843.56
524.78	35173.57
524.96	35424.01
525.13	35115.06
525.30	35461.46
525.47	35370.18
525.64	35065.91
525.81	35227.40
525.98	35442.73
526.16	35271.87
526.33	35201.66
526.50	35845.30
526.67	35477.84
526.84	35250.81
527.01	35431.03
527.18	35447.41
527.36	36151.91
527.53	35826.58
527.70	36481.93
527.87	36128.51
528.04	36004.46
528.21	36044.25
528.38	36128.51
528.55	36034.89
528.72	36233.83
528.89	36364.90
529.07	36435.12
529.24	36168.30
529.41	36795.56
529.58	36685.56
529.75	36552.15
529.92	36540.44
530.09	37071.75
530.26	36374.27
530.43	36928.97
530.60	36444.48
530.77	36795.56
530.94	37338.57
531.11	37191.11
531.28	37411.12
531.46	37427.51
531.63	37570.28
531.80	36933.65
531.97	37266.01
532.14	37226.22
532.31	36971.10
532.48	37387.72
532.65	37876.89
532.82	37418.14
532.99	37799.65
533.16	37186.43
533.33	38012.64
533.50	37729.44
533.67	37801.99
533.84	37579.64
534.01	37762.20
534.18	37937.74
534.35	38052.43
534.52	37940.08
534.69	37993.92
534.86	38040.73
535.03	37860.51
535.20	38403.51
535.37	38375.42
535.54	38888.00
535.71	38632.88
535.88	38579.05
536.05	38487.77
536.22	38466.70
536.38	38803.74
536.55	38909.07
536.72	38352.02
536.89	38288.82
537.06	38302.87
537.23	38703.10
537.40	38597.77
537.57	39100.99
537.74	38651.61
537.91	38866.94
538.08	38862.26
538.25	38787.36
538.42	39433.35
538.59	39248.44
538.75	38988.64
538.92	39192.27
539.09	39503.56
539.26	39253.12
539.43	39627.61
539.60	39187.59
539.77	39232.06
539.94	39365.47
540.11	39533.99
540.28	39431.01
540.44	39662.72
540.61	39583.14
540.78	39377.17
540.95	39679.10
541.12	39512.92
541.29	39290.57
541.46	39281.21
541.62	39838.26
541.79	40121.46
541.96	39241.42
542.13	39952.94
542.30	39732.93
542.47	40151.89
542.63	40074.65
542.80	39856.98
542.97	40002.10
543.14	40465.52
543.31	40133.17
543.48	40526.38
543.64	40971.08
543.81	40774.47
543.98	40362.54
544.15	40680.85
544.32	40725.32
544.48	40994.48
544.65	40570.85
544.82	40800.22
544.99	40488.93
545.16	40673.83
545.32	41045.97
545.49	41008.53
545.66	41111.51
545.83	41099.81
546.00	41446.21
546.16	41223.86
546.33	41151.30
546.50	40690.21
546.67	41116.19
546.83	40992.14
547.00	41191.09
547.17	41120.87
547.34	41167.68
547.50	41167.68
547.67	41219.17
547.84	41373.65
548.00	41476.63
548.17	41645.15
548.34	41291.73
548.51	41645.15
548.67	41668.56
548.84	41715.37
549.01	41450.89
549.18	41560.89
549.34	41628.77
549.51	41825.37
549.68	41869.84
549.84	41474.29
550.01	42038.36
550.18	42071.13
550.34	41989.21
550.51	41867.50
550.68	41670.90
550.84	41687.28
551.01	42342.63
551.18	41972.83
551.34	42256.03
551.51	42185.82
551.68	41984.53
551.84	42260.71
552.01	41897.93
552.18	42040.70
552.34	42160.07
552.51	42384.76
552.68	42316.89
552.84	42356.67
553.01	42522.85
553.18	42422.21
553.34	42230.29
553.51	42466.68
553.67	42469.02
553.84	42689.03
554.01	43075.22
554.17	42796.70
554.34	42836.48
554.51	42611.79
554.67	43166.50
554.84	42543.92
555.00	42082.83
555.17	42597.75
555.33	43136.07
555.50	42623.50
555.67	43047.13
555.83	42820.10
556.00	42754.57
556.16	43012.02
556.33	42993.30
556.50	43042.45
556.66	43049.47
556.83	42773.29
556.99	43068.20
557.16	43124.37
557.32	43012.02
557.49	43030.75
557.65	42827.12
557.82	43070.54
557.98	42960.53
558.15	43344.38
558.32	43503.54
558.48	43356.08
558.65	43386.51
558.81	42974.58
558.98	43435.66
559.14	43349.06
559.31	43482.47
559.47	43557.37
559.64	43498.86
559.80	43325.66
559.97	43543.33
560.13	43473.11
560.30	43510.56
560.46	43695.46
560.63	43175.86
560.79	43875.68
560.96	43807.81
561.12	43606.52
561.29	43962.28
561.45	43267.14
561.61	43805.47
561.78	43182.88
561.94	43122.03
562.11	43360.76
562.27	43494.18
562.44	43384.17
562.60	43878.02
562.77	43875.68
562.93	43658.01
563.10	44198.68
563.26	43381.83
563.42	43599.50
563.59	43922.49
563.75	43786.74
563.92	44095.69
564.08	43711.84
564.24	44107.40
564.41	44037.18
564.57	43583.12
564.74	43721.21
564.90	43679.08
565.07	43639.29
565.23	43840.57
565.39	43810.15
565.56	44409.32
565.72	43796.10
565.88	43686.10
566.05	43936.54
566.21	44037.18
566.38	43992.71
566.54	43789.08
566.70	44020.80
566.87	44418.69
567.03	44179.95
567.19	44835.30
567.36	44105.06
567.52	43957.60
567.68	44362.51
567.85	44392.94
568.01	44624.65
568.17	44364.85
568.34	44109.74
568.50	44383.58
568.66	44259.53
568.83	44273.57
568.99	44044.20
569.15	44402.30
569.32	44165.91
569.48	44446.77
569.64	44346.13
569.81	44081.65
569.97	44451.45
570.13	43985.69
570.30	44004.41
570.46	44189.31
570.62	43892.07
570.78	44287.62
570.95	43966.96
571.11	44053.56
571.27	44243.15
571.43	44477.20
571.60	44266.55
571.76	44587.21
571.92	44278.25
572.09	44339.11
572.25	44406.98
572.41	44287.62
572.57	44751.04
572.74	44807.22
572.90	44626.99
573.06	44584.86
573.22	44669.12
573.38	44636.36
573.55	43782.06
573.71	44561.46
573.87	44669.12
574.03	44493.58
574.20	44751.04
574.36	44395.28
574.52	44748.70
574.68	44194.00
574.84	44603.59
575.01	44439.75
575.17	44472.52
575.33	44495.92
575.49	44692.53
575.65	44751.04
575.82	44823.60
575.98	44212.72
576.14	44762.75
576.30	44641.04
576.46	44163.57
576.62	44453.79
576.79	44313.36
576.95	44140.16
577.11	44573.16
577.27	44739.34
577.43	44645.72
577.59	44306.34
577.75	44788.49
577.92	43997.39
578.08	44130.80
578.24	44016.11
578.40	44556.78
578.56	44673.81
578.72	44334.43
578.88	44744.02
579.04	44594.23
579.21	44847.00
579.37	44601.25
579.53	44500.61
579.69	44575.50
579.85	44449.11
580.01	44376.56
580.17	44645.72
580.33	44563.80
580.49	45010.84
580.65	45055.31
580.82	44680.83
580.98	44381.24
581.14	44655.08
581.30	44746.36
581.46	44680.83
581.62	44889.13
581.78	44683.17
581.94	44863.39
582.10	44795.51
582.26	45029.57
582.42	44744.02
582.58	44582.52
582.74	44713.59
582.90	44765.09
583.06	44961.69
583.22	44924.24
583.38	44994.46
583.54	44638.70
583.70	44751.04
583.86	44870.41
584.02	44470.18
584.18	44779.13
584.34	44507.63
584.50	45144.25
584.66	44795.51
584.82	44233.78
584.98	44870.41
585.14	44931.26
585.30	44673.81
585.46	44390.60
585.62	44612.95
585.78	44772.11
585.94	44411.67
586.10	44755.72
586.26	44652.74
586.42	44556.78
586.58	45247.24
586.74	44818.92
586.90	44617.63
587.06	44793.17
587.22	44666.78
587.38	44662.10
587.54	45120.85
587.70	45167.66
587.86	44954.67
588.02	44999.14
588.18	44987.44
588.34	44605.93
588.49	44690.19
588.65	44671.46
588.81	44081.65
588.97	44664.44
589.13	44587.21
589.29	44978.07
589.45	44746.36
589.61	44711.25
589.77	45380.65
589.93	44596.57
590.08	45092.76
590.24	44924.24
590.40	44737.00
590.56	45336.18
590.72	44996.80
590.88	44561.46
591.04	45022.54
591.20	45277.66
591.35	45228.51
591.51	45542.14
591.67	45062.33
591.83	45155.96
591.99	45010.84
592.15	44774.45
592.31	45038.93
592.46	45010.84
592.62	45137.23
592.78	45001.48
592.94	45177.02
593.10	44837.64
593.26	45209.79
593.41	44959.35
593.57	44868.07
593.73	44872.75
593.89	44631.68
594.05	45029.57
594.20	44875.09
594.36	45050.63
594.52	45162.98
594.68	45233.19
594.84	44926.58
594.99	45371.28
595.15	45329.16
595.31	45375.97
595.47	44910.20
595.62	45132.55
595.78	45027.23
595.94	45371.28
596.10	45170.00
596.25	45404.05
596.41	45010.84
596.57	45017.86
596.73	45141.91
596.88	44905.52
597.04	45179.36
597.20	45240.21
597.36	45127.87
597.51	45413.41
597.67	45071.70
597.83	45120.85
597.99	45450.86
598.14	45090.42
598.30	45034.25
598.46	44987.44
598.61	45242.56
598.77	44940.63
598.93	44802.53
599.09	45097.44
599.24	45605.34
599.40	45411.07
599.56	45310.43
599.71	45333.84
599.87	45502.35
600.03	45298.73
600.18	45165.32
600.34	45188.72
600.50	45160.64
600.65	44662.10
600.81	45312.77
600.97	45682.58
601.12	45572.57
601.28	45588.95
601.44	45198.09
601.59	45214.47
601.75	45308.09
601.91	45256.60
602.06	45090.42
602.22	44849.35
602.37	45067.02
602.53	45059.99
602.69	45109.14
602.84	44921.90
603.00	45399.37
603.16	44863.39
603.31	44854.03
603.47	45162.98
603.62	44999.14
603.78	45127.87
603.94	45277.66
604.09	45301.07
604.25	44959.35
604.40	44875.09
604.56	44835.30
604.71	45202.77
604.87	44713.59
605.03	45305.75
605.18	45137.23
605.34	45212.13
605.49	44718.28
605.65	45010.84
605.80	44851.69
605.96	44949.99
606.12	45380.65
606.27	45198.09
606.43	44893.82
606.58	45132.55
606.74	45034.25
606.89	45134.89
607.05	45193.40
607.20	44634.02
607.36	45422.78
607.51	45319.79
607.67	45193.40
607.82	45469.59
607.98	44776.79
608.13	44964.03
608.29	44484.22
608.44	44559.12
608.60	44027.82
608.75	45055.31
608.91	44797.85
609.06	44435.07
609.22	45162.98
609.37	44444.43
609.53	45062.33
609.68	44886.79
609.84	44818.92
609.99	45038.93
610.15	44388.26
610.30	44755.72
610.46	44547.42
610.61	44655.08
610.76	44304.00
610.92	44238.47
611.07	44322.72
611.23	44308.68
611.38	44659.76
611.54	43856.96
611.69	44168.25
611.84	44296.98
612.00	44608.27
612.15	44493.58
612.31	44790.83
612.46	44343.79
612.62	44605.93
612.77	44383.58
612.92	44849.35
613.08	44292.30
613.23	44275.91
613.39	43871.00
613.54	44058.24
613.69	44519.33
613.85	44278.25
614.00	44575.50
614.15	44549.76
614.31	44439.75
614.46	44376.56
614.62	44395.28
614.77	44147.18
614.92	43901.43
615.08	44374.22
615.23	43831.21
615.38	43936.54
615.54	44175.27
615.69	43718.87
615.84	43831.21
616.00	43449.70
616.15	43796.10
616.30	44053.56
616.46	43597.16
616.61	43831.21
616.76	43945.90
616.92	43723.55
617.07	43487.15
617.22	43828.87
617.37	43924.83
617.53	43990.37
617.68	44231.44
617.83	44016.11
617.99	43807.81
618.14	43648.65
618.29	43313.95
618.45	43405.23
618.60	43742.27
618.75	44179.95
618.90	43716.53
619.06	43538.65
619.21	43676.74
619.36	43295.23
619.51	43510.56
619.67	43096.28
619.82	43728.23
619.97	44018.46
620.12	42979.26
620.28	42927.77
620.43	43489.49
620.58	43718.87
620.73	43594.82
620.89	43274.16
621.04	43622.90
621.19	43201.61
621.34	43335.02
621.49	43079.90
621.65	43016.71
621.80	43084.58
621.95	42738.18
622.10	43065.86
622.25	42777.97
622.41	42637.54
622.56	42705.41
622.71	43402.89
622.86	42747.54
623.01	43129.05
623.16	43044.79
623.32	42976.92
623.47	43267.14
623.62	42677.33
623.77	42911.38
623.92	42920.74
624.07	42731.16
624.23	42375.40
624.38	42642.22
624.53	42457.32
624.68	42670.31
624.83	42953.51
624.98	42986.28
625.13	42691.37
625.29	42932.45
625.44	42642.22
625.59	42333.27
625.74	42351.99
625.89	42256.03
626.04	41911.97
626.19	42403.49
626.34	42230.29
626.49	42401.14
626.65	42335.61
626.80	42373.06
626.95	42249.01
627.10	41745.80
627.25	41839.42
627.40	42174.11
627.55	42066.45
627.70	41827.71
627.85	41897.93
628.00	41794.95
628.15	42113.26
628.30	41600.68
628.45	41900.27
628.60	41982.19
628.76	41673.24
628.91	42080.49
629.06	41715.37
629.21	41949.42
629.36	41846.44
629.51	41720.05
629.66	41507.06
629.81	41701.32
629.96	41493.02
630.11	41654.51
630.26	41600.68
630.41	42553.28
630.56	41434.50
630.71	41914.31
630.86	41649.83
631.01	41523.44
631.16	41567.91
631.31	41165.34
631.46	41006.19
631.61	41567.91
631.76	41682.60
631.91	41811.33
632.06	41720.05
632.21	40816.60
632.36	41507.06
632.51	41029.59
632.66	41474.29
632.81	40886.82
632.96	41240.24
633.10	41074.06
633.25	41015.55
633.40	41240.24
633.55	41123.21
633.70	41010.87
633.85	41130.23
634.00	40762.77
634.15	41158.32
634.30	41113.85
634.45	41074.06
634.60	40931.29
634.75	40870.43
634.90	41031.93
635.05	40914.90
635.19	40786.18
635.34	41027.25
635.49	40563.82
635.64	40648.08
635.79	40533.40
635.94	40584.89
636.09	40683.19
636.24	40634.04
636.39	40048.91
636.53	40584.89
636.68	40226.79
636.83	40065.29
636.98	40273.60
637.13	40093.38
637.28	40678.51
637.43	40481.91
637.57	40407.01
637.72	40498.29
637.87	40481.91
638.02	40208.06
638.17	40360.20
638.32	39856.98
638.46	40062.95
638.61	40098.06
638.76	39955.29
638.91	39920.18
639.06	40076.99
639.20	40259.55
639.35	40369.56
639.50	39789.11
639.65	41036.61
639.80	40261.90
639.94	40037.20
640.09	39571.44
640.24	39934.22
640.39	39842.94
640.54	39651.02
640.68	39779.74
640.83	40086.36
640.98	39611.23
641.13	39538.67
641.27	40144.87
641.42	39693.15
641.57	39838.26
641.72	39658.04
641.86	40044.23
642.01	39316.32
642.16	39714.21
642.31	39522.29
642.45	39714.21
642.60	39075.24
642.75	38920.77
642.90	39351.43
643.04	39093.97
643.19	39063.54
643.34	39192.27
643.48	39683.78
643.63	39264.83
643.78	38859.91
643.93	39262.49
644.07	39484.84
644.22	39203.97
644.37	39082.27
644.51	39033.11
644.66	39529.31
644.81	39342.06
644.95	39185.25
645.10	39253.12
645.25	39129.08
645.39	39026.09
645.54	39569.10
645.69	39056.52
645.83	38735.87
645.98	38888.00
646.13	39070.56
646.27	38932.47
646.42	38883.32
646.57	39098.65
646.71	39196.95
646.86	38808.42
647.00	38911.41
647.15	39077.58
647.30	38852.89
647.44	38843.53
647.59	38838.85
647.74	38892.68
647.88	38593.09
648.03	38389.47
648.17	38911.41
648.32	38560.33
648.47	38642.24
648.61	38321.59
648.76	38820.13
648.90	38263.08
649.05	38340.32
649.20	38609.48
649.34	38745.23
649.49	38272.44
649.63	38363.72
649.78	38382.45
649.92	37935.40
650.07	38642.24
650.21	38246.69
650.36	38597.77
650.51	37958.81
650.65	38574.37
650.80	38698.42
650.94	38473.73
651.09	38717.14
651.23	38583.73
651.38	38157.75
651.52	37916.68
651.67	37820.72
651.81	38368.40
651.96	37766.88
652.10	37799.65
652.25	38239.67
652.39	37839.44
652.54	37797.31
652.68	37825.40
652.83	37729.44
652.97	38216.27
653.12	37631.13
653.26	37841.78
653.41	37720.07
653.55	37528.15
653.70	37249.63
653.84	37570.28
653.99	37834.76
654.13	37797.31
654.27	38033.71
654.42	37813.70
654.56	37600.71
654.71	37308.14
654.85	37600.71
655.00	37151.32
655.14	36800.24
655.29	37048.34
655.43	37319.84
655.57	37333.89
655.72	37301.12
655.86	37134.94
656.01	37113.87
656.15	36828.33
656.30	37141.96
656.44	37081.11
656.58	36975.78
656.73	36547.47
656.87	37156.00
657.01	36355.54
657.16	36793.22
657.30	36793.22
657.45	36685.56
657.59	36989.83
657.73	36751.09
657.88	37226.22
658.02	36790.88
658.16	36807.26
658.31	37085.79
658.45	36898.55
658.60	36959.40
658.74	36828.33
658.88	36526.40
659.03	36715.98
659.17	36168.30
659.31	36084.04
659.46	36060.63
659.60	36208.09
659.74	36505.34
659.89	36215.11
660.03	35988.08
660.17	36280.64
660.32	36385.97
660.46	36596.62
660.60	35920.20
660.74	36039.57
660.89	36053.61
661.03	35756.36
661.17	36177.66
661.32	35566.78
661.46	35115.06
661.60	35756.36
661.74	35873.39
661.89	35976.37
662.03	35739.98
662.17	35367.84
662.31	35548.06
662.46	35943.61
662.60	35288.26
662.74	35264.85
662.88	35311.66
663.03	34913.77
663.17	35285.92
663.31	35213.36
663.45	35218.04
663.60	35274.21
663.74	34850.58
663.88	35021.44
664.02	35302.30
664.17	35697.85
664.31	34555.67
664.45	34817.81
664.59	35005.05
664.73	34843.56
664.88	34628.23
665.02	34445.66
665.16	34726.53
665.30	34792.06
665.44	34511.20
665.59	34209.27
665.73	34047.77
665.87	34202.25
666.01	34094.58
666.15	33823.08
666.29	34153.10
666.44	34452.69
666.58	34349.70
666.72	34274.80
666.86	34338.00
667.00	34361.40
667.14	33596.05
667.28	34029.05
667.43	33610.09
667.57	33736.48
667.71	33748.18
667.85	33677.97
667.99	33659.24
668.13	33141.99
668.27	33525.83
668.41	33511.79
668.56	33584.35
668.70	33254.33
668.84	33256.67
668.98	33390.08
669.12	33329.23
669.26	32891.55
669.40	33340.93
669.54	32851.76
669.68	33008.58
669.82	32840.06
669.96	32797.93
670.10	32910.27
670.25	33015.60
670.39	32795.59
670.53	32301.73
670.67	32376.63
670.81	32596.64
670.95	32723.03
671.09	32748.78
671.23	32627.07
671.37	32561.53
671.51	32275.99
671.65	32114.49
671.79	32198.75
671.93	32187.05
672.07	32086.40
672.21	32070.02
672.35	31896.82
672.49	31878.10
672.63	32063.00
672.77	32041.93
672.91	31672.13
673.05	31899.16
673.19	31117.42
673.33	31346.79
673.47	31480.21
673.61	31487.23
673.75	31276.58
673.89	30986.35
674.03	30649.32
674.17	31087.00
674.31	31049.55
674.45	30878.69
674.59	31173.60
674.73	31033.16
674.87	31033.16
675.01	30450.37
675.15	30890.39
675.29	30911.46
675.43	30733.57
675.56	30714.85
675.70	30167.16
675.84	30263.13
675.98	29378.40
676.12	30298.23
676.26	30066.52
676.40	29703.74
676.54	29752.89
676.68	29685.01
676.82	29560.97
676.96	29724.80
677.10	29631.18
677.23	29263.72
677.37	29687.36
677.51	29048.39
677.65	29448.62
677.79	29001.58
677.93	28905.62
678.07	29015.62
678.21	28421.13
678.34	28781.57
678.48	28505.38
678.62	28467.94
678.76	28411.76
678.90	28584.96
679.04	28739.44
679.18	28287.71
679.31	28196.43
679.45	28205.80
679.59	27674.49
679.73	27817.27
679.87	27765.78
680.00	27791.52
680.14	27587.89
680.28	27421.72
680.42	27126.81
680.56	27498.95
680.70	27583.21
680.83	27278.94
680.97	27075.32
681.11	26768.71
681.25	26824.88
681.39	26630.62
681.52	26955.95
681.66	26876.37
681.80	26679.77
681.94	26328.69
682.07	26754.66
682.21	26279.54
682.35	26445.71
682.49	26202.30
682.62	26412.95
682.76	26059.52
682.90	26150.81
683.04	26324.01
683.17	26024.42
683.31	25656.95
683.45	25940.16
683.59	25788.02
683.72	25745.89
683.86	25343.32
684.00	25146.72
684.13	25390.13
684.27	25701.42
684.41	25256.72
684.55	24936.07
684.68	24961.81
684.82	24699.67
684.96	24687.97
685.09	24800.32
685.23	24510.09
685.37	24599.03
685.50	24334.55
685.64	24201.14
685.78	24474.98
685.91	24301.78
686.05	24215.18
686.19	23763.46
686.32	23824.31
686.46	23555.15
686.60	23049.60
686.73	23410.04
686.87	23529.41
687.01	23236.84
687.14	23798.57
687.28	22927.89
687.42	23044.91
687.55	22836.61
687.69	22963.00
687.82	22946.61
687.96	22953.63
688.10	22878.74
688.23	22939.59
688.37	22511.27
688.50	22001.04
688.64	22232.75
688.78	22216.36
688.91	22026.78
689.05	21799.75
689.18	21886.35
689.32	21699.11
689.46	21736.56
689.59	21886.35
689.73	22146.15
689.86	21743.58
690.00	21652.30
690.13	21830.18
690.27	21441.65
690.41	21446.33
690.54	21280.15
690.68	21310.58
690.81	21039.08
690.95	21172.49
691.08	20957.16
691.22	21043.76
691.35	20985.24
691.49	20875.24
691.62	20491.39
691.76	20954.82
691.89	20938.43
692.03	20463.30
692.16	20528.84
692.30	20592.03
692.43	20262.02
692.57	20011.58
692.70	20098.18
692.84	20091.16
692.97	19548.15
693.11	19807.95
693.24	19592.62
693.38	19822.00
693.51	19529.43
693.65	19564.54
693.78	19487.30
693.92	19506.02
694.05	19424.11
694.19	19400.70
694.32	19255.59
694.45	19442.83
694.59	18948.98
694.72	18902.17
694.86	18970.04
694.99	18609.60
695.13	18710.24
695.26	18171.92
695.39	18441.08
695.53	18843.65
695.66	18490.23
695.80	18305.33
695.93	18108.72
696.07	17874.67
696.20	18310.01
696.33	17830.20
696.47	18134.47
696.60	17769.35
696.73	17919.14
696.87	17722.54
697.00	17680.41
697.14	17591.47
697.27	17453.37
697.40	17289.54
697.54	17535.29
697.67	17116.34
697.80	17277.83
697.94	17193.58
698.07	17170.17
698.21	16954.84
698.34	17043.78
698.47	16716.11
698.61	16463.33
698.74	16468.01
698.87	16444.60
699.01	16301.83
699.14	16196.51
699.27	16058.42
699.40	16240.98
699.54	16194.17
699.67	15613.71
699.80	16170.76
699.94	16053.73
700.07	16201.19
700.20	15861.81
700.34	15704.99
700.47	15499.03
700.60	15660.52
700.73	15894.58
700.87	15690.95
701.00	15555.20
701.13	15571.58
701.26	15227.53
701.40	15433.49
701.53	15152.63
701.66	14958.36
701.79	14944.32
701.93	14757.08
702.06	14820.27
702.19	14808.57
702.32	14850.70
702.46	15012.20
702.59	14693.88
702.72	14663.46
702.85	14853.04
702.99	14562.81
703.12	14705.59
703.25	14647.07
703.38	14434.08
703.51	14295.99
703.65	14202.37
703.78	14387.27
703.91	14073.64
704.04	13970.66
704.17	13928.53
704.31	13818.52
704.44	13411.27
704.57	13795.12
704.70	13558.72
704.83	13591.49
704.96	13486.17
705.10	13823.20
705.23	13729.58
>>>>>End Processed Spectral Data<<<<<
