SpectraSuite Data File
++++++++++++++++++++++++++++++++++++
Date: Fri Oct 25 11:34:27 EDT 2013
User: price-jones
Dark Spectrum Present: No
Reference Spectrum Present: No
Number of Sampled Component Spectra: 1
Spectrometers: USB2+H05261
Integration Time (usec): 100000 (USB2+H05261)
Spectra Averaged: 1 (USB2+H05261)
Boxcar Smoothing: 0 (USB2+H05261)
Correct for Electrical Dark: No (USB2+H05261)
Strobe/Lamp Enabled: No (USB2+H05261)
Correct for Detector Non-linearity: No (USB2+H05261)
Correct for Stray Light: No (USB2+H05261)
Number of Pixels in Processed Spectrum: 2048
>>>>>Begin Processed Spectral Data<<<<<
365.73	304.27
365.92	304.27
366.12	304.27
366.32	156.82
366.52	194.26
366.72	180.22
366.91	156.82
367.11	215.33
367.31	201.29
367.51	243.42
367.70	173.20
367.90	229.37
368.10	110.01
368.30	191.92
368.49	194.26
368.69	194.26
368.89	112.35
369.09	222.35
369.28	131.07
369.48	212.99
369.68	315.97
369.87	262.14
370.07	222.35
370.27	280.86
370.47	379.17
370.66	409.59
370.86	585.13
371.06	514.92
371.25	601.52
371.45	507.90
371.65	599.18
371.84	535.98
372.04	468.11
372.24	603.86
372.44	566.41
372.63	638.97
372.83	667.05
373.03	650.67
373.22	547.69
373.42	566.41
373.62	655.35
373.81	657.69
374.01	587.47
374.21	566.41
374.40	629.60
374.60	702.16
374.79	624.92
374.99	641.31
375.19	704.50
375.38	643.65
375.58	676.41
375.78	695.14
375.97	692.80
376.17	739.61
376.37	671.73
376.56	669.39
376.76	678.76
376.95	734.93
377.15	730.25
377.35	608.54
377.54	706.84
377.74	711.52
377.93	643.65
378.13	627.26
378.33	660.03
378.52	667.05
378.72	741.95
378.91	732.59
379.11	655.35
379.31	718.54
379.50	720.88
379.70	758.33
379.89	772.38
380.09	791.10
380.28	671.73
380.48	678.76
380.68	741.95
380.87	770.04
381.07	653.01
381.26	716.20
381.46	725.57
381.65	760.67
381.85	741.95
382.04	739.61
382.24	723.23
382.43	727.91
382.63	786.42
382.83	720.88
383.02	746.63
383.22	793.44
383.41	802.80
383.61	777.06
383.80	809.83
384.00	765.36
384.19	812.17
384.39	802.80
384.58	898.77
384.78	779.40
384.97	821.53
385.17	826.21
385.36	779.40
385.56	809.83
385.75	760.67
385.95	840.25
386.14	777.06
386.34	866.00
386.53	894.08
386.72	835.57
386.92	873.02
387.11	903.45
387.31	828.55
387.50	851.96
387.70	875.36
387.89	814.51
388.09	858.98
388.28	947.92
388.48	837.91
388.67	795.78
388.86	976.00
389.06	891.74
389.25	858.98
389.45	922.17
389.64	926.85
389.84	997.07
390.03	882.38
390.22	938.55
390.42	915.15
390.61	929.19
390.81	987.71
391.00	999.41
391.19	976.00
391.39	997.07
391.58	983.02
391.78	943.24
391.97	950.26
392.16	1022.81
392.36	999.41
392.55	987.71
392.75	976.00
392.94	1041.54
393.13	1043.88
393.33	1025.15
393.52	992.39
393.71	954.94
393.91	1060.26
394.10	1034.52
394.29	1078.99
394.49	994.73
394.68	1078.99
394.88	1135.16
395.07	1153.88
395.26	1083.67
395.46	1097.71
395.65	1076.65
395.84	1153.88
396.04	1125.80
396.23	1165.59
396.42	1167.93
396.62	1149.20
396.81	1296.66
397.00	1172.61
397.19	1261.55
397.39	1231.12
397.58	1247.51
397.77	1174.95
397.97	1179.63
398.16	1196.01
398.35	1256.87
398.55	1270.91
398.74	1287.29
398.93	1231.12
399.12	1256.87
399.32	1273.25
399.51	1242.82
399.70	1238.14
399.90	1263.89
400.09	1273.25
400.28	1423.05
400.47	1322.40
400.67	1294.32
400.86	1334.11
401.05	1303.68
401.24	1317.72
401.44	1343.47
401.63	1364.53
401.82	1352.83
402.01	1277.93
402.21	1296.66
402.40	1327.08
402.59	1451.13
402.78	1479.22
402.97	1434.75
403.17	1554.12
403.36	1481.56
403.55	1572.84
403.74	1502.62
403.93	1425.39
404.13	1509.65
404.32	1521.35
404.51	1600.93
404.70	1511.99
404.89	1488.58
405.09	1636.03
405.28	1535.39
405.47	1533.05
405.66	1722.63
405.85	1556.46
406.05	1673.48
406.24	1699.23
406.43	1710.93
406.62	1734.34
406.81	1696.89
407.00	1736.68
407.20	1764.76
407.39	1792.85
407.58	1696.89
407.77	1795.19
407.96	1722.63
408.15	1809.23
408.34	1799.87
408.54	1846.68
408.73	1788.17
408.92	1874.77
409.11	1872.43
409.30	1867.75
409.49	1893.49
409.68	1912.22
409.87	1980.09
410.07	1914.56
410.26	1802.21
410.45	1944.99
410.64	1914.56
410.83	2031.58
411.02	2090.10
411.21	2024.56
411.40	2122.87
411.59	2136.91
411.78	2209.47
411.98	2134.57
412.17	2040.95
412.36	2062.01
412.55	2188.40
412.74	2115.84
412.93	2195.42
413.12	2134.57
413.31	2347.56
413.50	2340.54
413.69	2305.43
413.88	2363.94
414.07	2408.41
414.26	2373.30
414.45	2361.60
414.64	2450.54
414.83	2347.56
415.02	2546.50
415.22	2457.56
415.41	2518.42
415.60	2518.42
415.79	2495.01
415.98	2621.40
416.17	2551.18
416.36	2626.08
416.55	2661.19
416.74	2649.49
416.93	2658.85
417.12	2691.62
417.31	2700.98
417.50	2876.52
417.69	2864.82
417.88	2810.98
418.07	2752.47
418.26	2848.43
418.45	2803.96
418.64	2956.10
418.83	2888.22
419.02	2939.71
419.21	2974.82
419.39	2951.42
419.58	2923.33
419.77	2864.82
419.96	3007.59
420.15	3014.61
420.34	3012.27
420.53	3056.74
420.72	3096.53
420.91	3091.85
421.10	3213.56
421.29	3152.70
421.48	3038.02
421.67	3215.90
421.86	3162.06
422.05	3183.13
422.24	3148.02
422.43	3194.83
422.61	3225.26
422.80	3211.22
422.99	3276.75
423.18	3335.26
423.37	3222.92
423.56	3295.47
423.75	3229.94
423.94	3213.56
424.13	3145.68
424.32	3157.38
424.50	3260.37
424.69	3323.56
424.88	3461.65
425.07	3295.47
425.26	3243.98
425.45	3363.35
425.64	3279.09
425.83	3290.79
426.01	3482.72
426.20	3267.39
426.39	3330.58
426.58	3363.35
426.77	3346.97
426.96	3463.99
427.15	3400.80
427.33	3426.54
427.52	3449.95
427.71	3466.33
427.90	3414.84
428.09	3548.25
428.28	3609.11
428.46	3599.74
428.65	3435.91
428.84	3660.60
429.03	3658.26
429.22	3522.51
429.40	3552.93
429.59	3527.19
429.78	3536.55
429.97	3585.70
430.16	3641.87
430.34	3756.56
430.53	3843.16
430.72	3726.13
430.91	3653.58
431.10	3665.28
431.28	3786.99
431.47	3906.35
431.66	3920.40
431.85	3873.59
432.03	3908.69
432.22	3943.80
432.41	3798.69
432.60	3861.88
432.79	3871.25
432.97	3866.56
433.16	3934.44
433.35	3929.76
433.54	4131.05
433.72	4035.08
433.91	4004.66
434.10	3978.91
434.28	4039.76
434.47	4170.83
434.66	4107.64
434.85	4088.92
435.03	4210.62
435.22	4212.96
435.41	4212.96
435.59	4159.13
435.78	4100.62
435.97	4191.90
436.16	4290.20
436.34	4222.33
436.53	4292.54
436.72	4114.66
436.90	4257.43
437.09	4248.07
437.28	4313.61
437.46	4224.67
437.65	4229.35
437.84	4432.97
438.02	4304.25
438.21	4444.68
438.40	4381.48
438.58	4470.42
438.77	4636.60
438.96	4517.23
439.14	4798.10
439.33	4734.90
439.52	4692.77
439.70	4823.84
439.89	4727.88
440.08	4781.71
440.26	4798.10
440.45	4755.97
440.63	4887.04
440.82	5022.79
441.01	4844.91
441.19	5050.88
441.38	5081.30
441.57	5102.37
441.75	5015.77
441.94	5210.03
442.12	5029.81
442.31	5137.48
442.50	5156.20
442.68	5179.61
442.87	5125.77
443.05	5170.24
443.24	5336.42
443.43	5313.02
443.61	5336.42
443.80	5509.62
443.98	5284.93
444.17	5104.71
444.35	5221.74
444.54	5401.96
444.73	5383.23
444.91	5310.68
445.10	5558.77
445.28	5488.56
445.47	5371.53
445.65	5376.21
445.84	5542.39
446.02	5352.81
446.21	5497.92
446.39	5411.32
446.58	5530.69
446.77	5518.98
446.95	5348.12
447.14	5549.41
447.32	5453.45
447.51	5369.19
447.69	5568.13
447.88	5380.89
448.06	5575.16
448.25	5444.09
448.43	5598.56
448.62	5591.54
448.80	5523.66
448.99	5699.20
449.17	5846.66
449.36	5598.56
449.54	5755.38
449.73	5666.44
449.91	5820.91
450.10	5731.97
450.28	5755.38
450.46	6010.50
450.65	5891.13
450.83	5832.62
451.02	5715.59
451.20	5832.62
451.39	5977.73
451.57	6010.50
451.76	5996.45
451.94	5963.68
452.13	6015.18
452.31	5963.68
452.49	5877.09
452.68	6071.35
452.86	5912.19
453.05	6001.13
453.23	6197.74
453.42	6069.01
453.60	6256.25
453.78	6195.40
453.97	6017.52
454.15	6113.48
454.34	5970.71
454.52	6242.21
454.70	6202.42
454.89	6267.95
455.07	6300.72
455.26	6303.06
455.44	6569.88
455.62	6413.07
455.81	6392.00
455.99	6586.27
456.17	6537.12
456.36	6487.96
456.54	6464.56
456.73	6600.31
456.91	6715.00
457.09	6609.67
457.28	6815.64
457.46	6665.85
457.64	7000.54
457.83	6799.26
458.01	6682.23
458.19	6806.28
458.38	6853.09
458.56	6738.40
458.74	6773.51
458.93	6775.85
459.11	7047.35
459.29	6902.24
459.48	7089.48
459.66	7049.69
459.84	6942.03
460.03	7187.79
460.21	7213.53
460.39	7098.84
460.57	7091.82
460.76	7005.22
460.94	7206.51
461.12	7173.74
461.31	7197.15
461.49	7037.99
461.67	7241.62
461.85	7199.49
462.04	7353.96
462.22	7829.09
462.40	7431.20
462.59	7164.38
462.77	7428.86
462.95	7485.03
463.13	7463.97
463.32	7454.61
463.50	7606.74
463.68	7487.37
463.86	7606.74
464.05	7531.84
464.23	7499.08
464.41	7784.62
464.59	7496.74
464.78	7714.41
464.96	7735.47
465.14	7665.25
465.32	7803.35
465.50	7592.70
465.69	7747.17
465.87	7740.15
466.05	7716.75
466.23	7686.32
466.41	7831.43
466.60	7845.48
466.78	7674.62
466.96	7791.64
467.14	7707.38
467.32	8006.97
467.51	8009.31
467.69	7892.29
467.87	8182.51
468.05	8074.85
468.23	7840.79
468.41	8049.10
468.60	8088.89
468.78	8107.62
468.96	8032.72
469.14	8353.37
469.32	8374.44
469.50	8156.77
469.69	8372.10
469.87	8252.73
470.05	8423.59
470.23	8596.79
470.41	8238.69
470.59	8411.89
470.77	8463.38
470.95	8578.06
471.14	8748.92
471.32	8313.58
471.50	8821.48
471.68	8678.71
471.86	8716.16
472.04	8746.58
472.22	8882.33
472.40	8681.05
472.58	8830.84
472.77	8898.72
472.95	8788.71
473.13	9320.01
473.31	8936.17
473.49	8992.34
473.67	9055.53
473.85	9118.73
474.03	9383.21
474.21	9331.72
474.39	9355.12
474.57	9474.49
474.75	9458.10
474.93	9418.32
475.12	9434.70
475.30	9575.13
475.48	9472.15
475.66	9640.67
475.84	9680.46
476.02	9638.33
476.20	9905.15
476.38	10036.22
476.56	10209.42
476.74	10113.45
476.92	10155.58
477.10	10214.10
477.28	10150.90
477.46	10197.71
477.64	10080.69
477.82	10431.77
478.00	10775.83
478.18	10626.03
478.36	10787.53
478.54	10956.05
478.72	10824.98
478.90	10864.77
479.08	11096.48
479.26	11101.16
479.44	10864.77
479.62	11220.53
479.80	11185.42
479.98	11459.26
480.16	11712.04
480.34	11569.27
480.52	11726.08
480.70	11653.53
480.88	11552.88
481.06	11918.01
481.24	11826.73
481.41	11873.54
481.59	12297.17
481.77	12091.21
481.95	12233.98
482.13	12423.56
482.31	12671.66
482.49	12896.35
482.67	12704.43
482.85	12823.80
483.03	12924.44
483.21	13053.17
483.39	13252.11
483.57	13167.85
483.74	13458.08
483.92	13348.08
484.10	13383.18
484.28	13717.88
484.46	13661.71
484.64	14108.75
484.82	13973.00
485.00	14277.27
485.18	14317.06
485.35	14492.60
485.53	14518.34
485.71	14384.93
485.89	14672.82
486.07	14607.28
486.25	14684.52
486.43	14726.65
486.61	15009.86
486.78	15208.80
486.96	15262.63
487.14	15218.16
487.32	15297.74
487.50	15475.62
487.68	15693.29
487.85	15936.71
488.03	16018.63
488.21	16306.51
488.39	16311.19
488.57	16479.71
488.75	16468.01
488.92	16540.57
489.10	16652.91
489.28	16659.93
489.46	17043.78
489.64	17078.89
489.81	17462.74
489.99	16973.56
490.17	17198.26
490.35	17612.53
490.53	17577.42
490.70	17706.15
490.88	17762.33
491.06	17914.46
491.24	18192.98
491.41	18347.46
491.59	18434.06
491.77	18321.71
491.95	18642.37
492.13	18867.06
492.30	18640.03
492.48	18822.59
492.66	19129.20
492.84	18967.70
493.01	19154.94
493.19	18831.95
493.37	19129.20
493.54	19300.06
493.72	19564.54
493.90	19648.80
494.08	19887.53
494.25	19854.76
494.43	20144.99
494.61	20271.38
494.79	20294.79
494.96	20388.41
495.14	20521.82
495.32	20861.19
495.49	20547.56
495.67	20854.17
495.85	21116.31
496.02	21261.43
496.20	21275.47
496.38	21525.91
496.55	21095.25
496.73	21593.78
496.91	21186.53
497.09	21476.76
497.26	21830.18
497.44	21834.86
497.62	21855.92
497.79	22382.54
497.97	22012.74
498.14	22370.84
498.32	22691.49
498.50	22628.30
498.67	22796.82
498.85	22661.07
499.03	23255.56
499.20	22757.03
499.38	23166.62
499.56	23040.23
499.73	23391.31
499.91	23344.50
500.08	23496.64
500.26	23199.39
500.44	23452.17
500.61	23616.01
500.79	23587.92
500.97	24058.37
501.14	24041.98
501.32	24100.50
501.49	23971.77
501.67	24081.77
501.84	24269.01
502.02	24077.09
502.20	24584.99
502.37	24519.45
502.55	24819.04
502.72	24748.82
502.90	24650.52
503.07	24697.33
503.25	25111.61
503.43	24783.93
503.60	24940.75
503.78	25163.10
503.95	25172.46
504.13	25212.25
504.30	25465.03
504.48	25500.14
504.65	25642.91
504.83	25757.60
505.01	25832.49
505.18	25563.33
505.36	26183.57
505.53	26040.80
505.71	26232.72
505.88	26291.24
506.06	25930.80
506.23	26448.05
506.41	26300.60
506.58	26473.80
506.76	26647.00
506.93	26759.34
507.11	26749.98
507.28	26815.52
507.46	26735.94
507.63	26724.24
507.81	27243.84
507.98	27239.15
508.16	26775.73
508.33	27295.33
508.50	27178.30
508.68	27381.93
508.85	27576.19
509.03	27398.31
509.20	27686.20
509.38	27833.65
509.55	27524.70
509.73	28034.94
509.90	27969.40
510.08	27899.19
510.25	27955.36
510.42	28217.50
510.60	28210.48
510.77	28561.56
510.95	28655.18
511.12	28606.03
511.30	28711.35
511.47	28720.71
511.64	28404.74
511.82	28926.68
511.99	28751.14
512.17	28875.19
512.34	29076.48
512.51	29242.65
512.69	29282.44
512.86	29411.17
513.04	29635.86
513.21	29858.21
513.38	29315.21
513.56	29436.92
513.73	29771.61
513.90	29806.72
514.08	29689.70
514.25	29947.15
514.43	30335.68
514.60	30249.08
514.77	29762.25
514.95	30249.08
515.12	30455.05
515.29	30328.66
515.47	30672.72
515.64	30850.60
515.81	30387.18
515.99	30349.73
516.16	31058.91
516.33	30670.38
516.51	30969.97
516.68	30700.81
516.85	31101.04
517.03	30696.13
517.20	31241.47
517.37	31346.79
517.54	31112.74
517.72	31117.42
517.89	31353.82
518.06	31208.70
518.24	31381.90
518.41	31159.55
518.58	31667.45
518.75	31527.02
518.93	31580.85
519.10	31646.38
519.27	32149.60
519.45	32018.53
519.62	32486.64
519.79	32528.77
519.96	32435.14
520.14	32196.41
520.31	31943.63
520.48	32275.99
520.65	32844.74
520.83	32844.74
521.00	32737.07
521.17	32624.73
521.34	32786.22
521.52	32786.22
521.69	32788.56
521.86	33046.02
522.03	33369.02
522.20	33132.62
522.38	33413.49
522.55	33315.19
522.72	33418.17
522.89	33780.95
523.07	33759.89
523.24	33565.62
523.41	33708.40
523.58	33853.51
523.75	33677.97
523.92	33893.30
524.10	33963.51
524.27	34220.97
524.44	34150.76
524.61	34073.52
524.78	34183.52
524.96	34366.09
525.13	34368.43
525.30	34691.42
525.47	34160.12
525.64	34562.69
525.81	34445.66
525.98	34733.55
526.16	34607.16
526.33	34838.87
526.50	34862.28
526.67	35082.29
526.84	34574.39
527.01	35161.87
527.18	34960.58
527.36	34995.69
527.53	35353.79
527.70	35424.01
527.87	35306.98
528.04	35232.08
528.21	35538.69
528.38	35407.62
528.55	35335.07
528.72	35309.32
528.89	35466.14
529.07	35517.63
529.24	35545.72
529.41	35906.16
529.58	36137.87
529.75	35964.67
529.92	35800.83
530.09	36210.43
530.26	35938.93
530.43	35974.03
530.60	35585.50
530.77	35974.03
530.94	36217.45
531.11	35927.22
531.28	36198.73
531.46	35826.58
531.63	36533.42
531.80	36521.72
531.97	37078.77
532.14	36596.62
532.31	36364.90
532.48	36584.91
532.65	36730.03
532.82	36917.27
532.99	37050.68
533.16	36772.16
533.33	36893.86
533.50	36945.36
533.67	37099.83
533.84	36821.31
534.01	37034.30
534.18	37191.11
534.35	37661.56
534.52	37345.59
534.69	37617.09
534.86	37734.12
535.03	37244.94
535.20	37148.98
535.37	37359.63
535.54	37783.27
535.71	37818.38
535.88	37895.61
536.05	37801.99
536.22	37963.49
536.38	37855.82
536.55	38094.56
536.72	37537.51
536.89	38157.75
537.06	38403.51
537.23	38033.71
537.40	37823.06
537.57	37724.75
537.74	38038.39
537.91	38419.89
538.08	38000.94
538.25	38279.46
538.42	38316.91
538.59	38632.88
538.75	38476.07
538.92	38426.92
539.09	38766.29
539.26	38703.10
539.43	38838.85
539.60	38557.99
539.77	38560.33
539.94	38838.85
540.11	38815.44
540.28	38969.92
540.44	38927.79
540.61	39281.21
540.78	38995.67
540.95	39112.69
541.12	39084.61
541.29	38990.98
541.46	39299.94
541.62	38995.67
541.79	39466.11
541.96	39522.29
542.13	39112.69
542.30	39131.42
542.47	39445.05
542.63	39466.11
542.80	39983.37
542.97	39533.99
543.14	40236.15
543.31	39845.28
543.48	39807.83
543.64	40196.36
543.81	40161.25
543.98	40154.23
544.15	40423.39
544.32	40212.74
544.48	40643.40
544.65	40605.95
544.82	40629.36
544.99	39866.34
545.16	40346.15
545.32	40392.97
545.49	40648.08
545.66	40973.42
545.83	40512.33
546.00	40739.36
546.16	41034.27
546.33	40505.31
546.50	40346.15
546.67	40999.16
546.83	40362.54
547.00	40687.87
547.17	40416.37
547.34	40809.58
547.50	40921.93
547.67	41083.42
547.84	41050.66
548.00	41263.64
548.17	41729.41
548.34	41354.93
548.51	41432.16
548.67	41170.02
548.84	41350.24
549.01	41174.70
549.18	41460.25
549.34	41493.02
549.51	41577.28
549.68	41635.79
549.84	41614.72
550.01	41841.76
550.18	41282.37
550.34	41331.52
550.51	41881.55
550.68	41661.54
550.84	41759.84
551.01	41659.20
551.18	42096.88
551.34	41736.43
551.51	41816.01
551.68	41851.12
551.84	42031.34
552.01	41956.44
552.18	42246.67
552.34	42014.96
552.51	42366.04
552.68	41865.16
552.84	41830.05
553.01	42218.58
553.18	41701.32
553.34	42068.79
553.51	42103.90
553.67	42440.93
553.84	42321.57
554.01	42120.28
554.17	42419.87
554.34	42546.26
554.51	42766.27
554.67	42721.80
554.84	42916.06
555.00	42576.69
555.17	43023.73
555.33	42855.21
555.50	42485.40
555.67	42511.15
555.83	42389.44
556.00	42902.02
556.16	43438.00
556.33	43276.51
556.50	43119.69
556.66	42873.93
556.83	42871.59
556.99	43320.98
557.16	43421.62
557.32	43243.74
557.49	43306.93
557.65	42653.92
557.82	43210.97
557.98	43091.60
558.15	43316.29
558.32	43320.98
558.48	43274.16
558.65	43234.38
558.81	43243.74
558.98	43302.25
559.14	43075.22
559.31	43459.07
559.47	43150.12
559.64	43519.92
559.80	43386.51
559.97	43377.15
560.13	43309.27
560.30	43264.80
560.46	43892.07
560.63	43922.49
560.79	43777.38
560.96	43639.29
561.12	43941.22
561.29	43878.02
561.45	43868.66
561.61	43899.09
561.78	44009.09
561.94	43435.66
562.11	43920.15
562.27	43618.22
562.44	43592.48
562.60	44093.35
562.77	44032.50
562.93	43454.39
563.10	44287.62
563.26	43826.53
563.42	44343.79
563.59	43744.61
563.75	43943.56
563.92	43810.15
564.08	43999.73
564.24	43943.56
564.41	43973.98
564.57	44163.57
564.74	44088.67
564.90	44339.11
565.07	43849.94
565.23	43983.35
565.39	43908.45
565.56	44355.49
565.72	44233.78
565.88	44306.34
566.05	44114.42
566.21	44100.37
566.38	44596.57
566.54	44306.34
566.70	44816.58
566.87	44463.16
567.03	44526.35
567.19	44083.99
567.36	44591.89
567.52	44299.32
567.68	44437.41
567.85	44196.34
568.01	44669.12
568.17	44133.14
568.34	44598.91
568.50	44507.63
568.66	44437.41
568.83	44664.44
568.99	44201.02
569.15	44322.72
569.32	44339.11
569.48	44832.96
569.64	44680.83
569.81	44495.92
569.97	44568.48
570.13	44392.94
570.30	44191.65
570.46	44348.47
570.62	44566.14
570.78	44917.22
570.95	44376.56
571.11	44966.37
571.27	44989.78
571.43	44055.90
571.60	44697.21
571.76	44722.96
571.92	44643.38
572.09	44690.19
572.25	44498.26
572.41	44856.37
572.57	44828.28
572.74	45111.49
572.90	44856.37
573.06	44624.65
573.22	44865.73
573.38	44634.02
573.55	44847.00
573.71	45170.00
573.87	44903.18
574.03	45083.40
574.20	45331.50
574.36	44739.34
574.52	45045.95
574.68	45055.31
574.84	44989.78
575.01	45448.52
575.17	45478.95
575.33	44762.75
575.49	44751.04
575.65	45268.30
575.82	44985.10
575.98	44264.21
576.14	45085.74
576.30	45432.14
576.46	45170.00
576.62	45151.27
576.79	45102.12
576.95	44671.46
577.11	44809.56
577.27	44928.92
577.43	44971.05
577.59	44917.22
577.75	45104.46
577.92	44807.22
578.08	45193.40
578.24	44947.65
578.40	45298.73
578.56	45382.99
578.72	45298.73
578.88	44938.29
579.04	44788.49
579.21	44968.71
579.37	45270.64
579.53	45703.64
579.69	44821.26
579.85	44783.81
580.01	45139.57
580.17	45022.54
580.33	45034.25
580.49	45006.16
580.65	45144.25
580.82	44823.60
580.98	45263.62
581.14	45373.63
581.30	45076.38
581.46	45174.68
581.62	45310.43
581.78	45172.34
581.94	45319.79
582.10	45511.72
582.26	45425.12
582.42	45549.17
582.58	45455.54
582.74	45258.94
582.90	45214.47
583.06	45368.94
583.22	45291.71
583.38	44891.48
583.54	45265.96
583.70	45298.73
583.86	45588.95
584.02	45050.63
584.18	45736.41
584.34	45380.65
584.50	45593.64
584.66	45404.05
584.82	45155.96
584.98	45474.27
585.14	45502.35
585.30	45350.22
585.46	45544.48
585.62	44746.36
585.78	45553.85
585.94	44992.12
586.10	45148.93
586.26	45511.72
586.42	45331.50
586.58	45390.01
586.74	45228.51
586.90	45511.72
587.06	45467.25
587.22	45251.92
587.38	45418.10
587.54	45584.27
587.70	45572.57
587.86	45713.00
588.02	45179.36
588.18	45071.70
588.34	45425.12
588.49	45640.45
588.65	45413.41
588.81	45975.14
588.97	45558.53
589.13	45427.46
589.29	45617.04
589.45	45794.92
589.61	45570.23
589.77	45574.91
589.93	45502.35
590.08	45682.58
590.24	45848.75
590.40	46281.75
590.56	45469.59
590.72	46146.00
590.88	45638.11
591.04	45401.71
591.20	46192.81
591.35	45549.17
591.51	46541.55
591.67	45855.78
591.83	46429.21
591.99	45904.93
592.15	46085.15
592.31	45858.12
592.46	45675.55
592.62	46199.83
592.78	46218.56
592.94	45886.20
593.10	46183.45
593.26	46211.54
593.41	46487.72
593.57	45855.78
593.73	46031.32
593.89	46476.02
594.05	45963.44
594.20	45928.33
594.36	46417.50
594.52	46192.81
594.68	46239.62
594.84	46251.33
594.99	46611.77
595.15	45881.52
595.31	46307.50
595.47	46010.25
595.62	45933.01
595.78	46026.63
595.94	46153.02
596.10	45909.61
596.25	46438.57
596.41	46759.22
596.57	46272.39
596.73	46043.02
596.88	45930.67
597.04	46237.28
597.20	46211.54
597.36	46129.62
597.51	46061.74
597.67	45652.15
597.83	46078.13
597.99	46192.81
598.14	46160.05
598.30	46401.12
598.46	46277.07
598.61	46658.58
598.77	46206.86
598.93	46202.18
599.09	46143.66
599.24	46401.12
599.40	45900.25
599.56	46075.79
599.71	46309.84
599.87	46459.63
600.03	46583.68
600.18	46836.46
600.34	46478.36
600.50	46052.38
600.65	46281.75
600.81	46677.30
600.97	46564.96
601.12	46511.13
601.28	46424.53
601.44	46555.60
601.59	46347.29
601.75	46256.01
601.91	46171.75
602.06	46157.70
602.22	46593.04
602.37	46506.44
602.53	46789.65
602.69	46770.93
602.84	46349.63
603.00	46106.21
603.16	46305.16
603.31	46681.98
603.47	46586.02
603.62	46506.44
603.78	46328.56
603.94	46436.23
604.09	46288.77
604.25	46220.90
604.40	46122.60
604.56	46515.81
604.71	46735.82
604.87	45689.60
605.03	46293.46
605.18	46225.58
605.34	46506.44
605.49	46113.23
605.65	46775.61
605.80	46141.32
605.96	45759.81
606.12	46237.28
606.27	46260.69
606.43	45865.14
606.58	46244.30
606.74	46340.27
606.89	46480.70
607.05	45968.12
607.20	46087.49
607.36	46574.32
607.51	46567.30
607.67	46162.39
607.82	46120.26
607.98	46000.89
608.13	45734.07
608.29	45972.80
608.44	46096.85
608.60	46167.07
608.75	46438.57
608.91	45879.18
609.06	46141.32
609.22	45986.85
609.37	45982.16
609.53	46431.55
609.68	46279.41
609.84	46033.66
609.99	46160.05
610.15	46087.49
610.30	46192.81
610.46	45469.59
610.61	45701.30
610.76	46279.41
610.92	45375.97
611.07	45593.64
611.23	45897.91
611.38	46012.59
611.54	45544.48
611.69	45937.69
611.84	45642.79
612.00	45825.35
612.15	46202.18
612.31	45979.82
612.46	45462.57
612.62	45502.35
612.77	45930.67
612.92	45769.18
613.08	45820.67
613.23	45773.86
613.39	45764.49
613.54	45525.76
613.69	45579.59
613.85	45652.15
614.00	45478.95
614.15	45439.16
614.31	45207.45
614.46	45319.79
614.62	45532.78
614.77	45523.42
614.92	45565.55
615.08	45518.74
615.23	45687.26
615.38	46354.31
615.54	45621.72
615.69	45694.28
615.84	45612.36
616.00	46017.27
616.15	45684.92
616.30	45734.07
616.46	45212.13
616.61	45425.12
616.76	45841.73
616.92	45216.81
617.07	45492.99
617.22	45432.14
617.37	45167.66
617.53	45420.44
617.68	45305.75
617.83	45113.83
617.99	45460.23
618.14	45757.47
618.29	45277.66
618.45	45001.48
618.60	45003.82
618.75	44905.52
618.90	45280.00
619.06	45111.49
619.21	44776.79
619.36	45235.53
619.51	45050.63
619.67	44524.01
619.82	44828.28
619.97	44849.35
620.12	44746.36
620.28	44994.46
620.43	45310.43
620.58	45263.62
620.73	44673.81
620.89	44858.71
621.04	45097.44
621.19	45024.89
621.34	44463.16
621.49	44790.83
621.65	44999.14
621.80	45368.94
621.95	44725.30
622.10	45144.25
622.25	44734.66
622.41	44657.42
622.56	44659.76
622.71	44376.56
622.86	45008.50
623.01	44430.39
623.16	44676.15
623.32	44156.55
623.47	44116.76
623.62	44751.04
623.77	45118.51
623.92	44533.37
624.07	44519.33
624.23	44491.24
624.38	44971.05
624.53	44598.91
624.68	44463.16
624.83	44273.57
624.98	44355.49
625.13	43833.55
625.29	44215.06
625.44	43917.81
625.59	44208.04
625.74	44322.72
625.89	44194.00
626.04	44311.02
626.19	43763.34
626.34	44243.15
626.49	44067.61
626.65	44083.99
626.80	44259.53
626.95	44002.07
627.10	44018.46
627.25	44023.14
627.40	43856.96
627.55	43831.21
627.70	43826.53
627.85	44133.14
628.00	43746.95
628.15	44002.07
628.30	43526.94
628.45	43475.45
628.60	43356.08
628.76	43466.09
628.91	43590.14
629.06	43639.29
629.21	43360.76
629.36	43456.73
629.51	43482.47
629.66	43761.00
629.81	43421.62
629.96	43283.53
630.11	43611.20
630.26	43442.68
630.41	43494.18
630.56	43217.99
630.71	43618.22
630.86	43154.80
631.01	42906.70
631.16	43157.14
631.31	43077.56
631.46	42909.04
631.61	43435.66
631.76	43576.09
631.91	43393.53
632.06	43487.15
632.21	43693.12
632.36	43676.74
632.51	42902.02
632.66	43154.80
632.81	42934.79
632.96	43122.03
633.10	43171.18
633.25	42939.47
633.40	42986.28
633.55	43234.38
633.70	43002.66
633.85	42672.65
634.00	42916.06
634.15	42256.03
634.30	43030.75
634.45	42534.56
634.60	43014.37
634.75	43105.65
634.90	42635.20
635.05	42581.37
635.19	42576.69
635.34	42462.00
635.49	42649.24
635.64	42775.63
635.79	42567.32
635.94	42712.44
636.09	42923.08
636.24	42569.66
636.39	42014.96
636.53	42583.71
636.68	42422.21
636.83	41958.78
636.98	42511.15
637.13	42085.17
637.28	42066.45
637.43	42281.78
637.57	42417.53
637.72	42277.10
637.87	42192.84
638.02	42209.22
638.17	42220.92
638.32	42115.60
638.46	41947.08
638.61	41949.42
638.76	42071.13
638.91	41933.04
639.06	41961.12
639.20	41813.67
639.35	41867.50
639.50	41844.10
639.65	42157.73
639.80	42199.86
639.94	41881.55
640.09	41923.68
640.24	42277.10
640.39	41628.77
640.54	41729.41
640.68	41844.10
640.83	42054.75
640.98	41918.99
641.13	41326.84
641.27	42061.77
641.42	41471.95
641.57	41607.70
641.72	41797.29
641.86	41441.53
642.01	41233.22
642.16	41153.64
642.31	41045.97
642.45	41647.49
642.60	41429.82
642.75	41488.34
642.90	41858.14
643.04	41226.20
643.19	41127.89
643.34	41174.70
643.48	40840.01
643.63	41221.52
643.78	41240.24
643.93	41198.11
644.07	41577.28
644.22	41457.91
644.37	41186.41
644.51	41251.94
644.66	41198.11
644.81	41031.93
644.95	41219.17
645.10	41137.26
645.25	41151.30
645.39	40783.83
645.54	40751.07
645.69	40706.60
645.83	40954.69
645.98	40907.88
646.13	40961.72
646.27	40631.70
646.42	40865.75
646.57	40931.29
646.71	41067.04
646.86	40893.84
647.00	40996.82
647.15	41036.61
647.30	40484.25
647.44	40809.58
647.59	40603.61
647.74	40631.70
647.88	40744.05
648.03	40879.80
648.17	40905.54
648.32	40755.75
648.47	40823.62
648.61	40680.85
648.76	40069.97
648.90	40320.41
649.05	40399.99
649.20	40463.18
649.34	40458.50
649.49	40769.79
649.63	40313.39
649.78	40247.85
649.92	40137.85
650.07	40741.71
650.21	40556.80
650.36	40107.42
650.51	39927.20
650.65	40725.32
650.80	40273.60
650.94	40495.95
651.09	40240.83
651.23	39988.05
651.38	39578.46
651.52	39807.83
651.67	39505.90
651.81	40292.32
651.96	39934.22
652.10	39885.07
652.25	39681.44
652.39	40004.44
652.54	40025.50
652.68	39456.75
652.83	40158.91
652.97	39962.31
653.12	39639.31
653.26	39709.53
653.41	39735.27
653.55	39758.68
653.70	39936.56
653.84	40009.12
653.99	39974.01
654.13	39999.76
654.27	39349.09
654.42	39505.90
654.56	39452.07
654.71	39477.82
654.85	39704.85
655.00	39606.55
655.14	39489.52
655.29	40041.88
655.43	39770.38
655.57	39592.50
655.72	39428.66
655.86	39342.06
656.01	39339.72
656.15	39349.09
656.30	39817.19
656.44	39061.20
656.58	39793.79
656.73	39126.74
656.87	38983.96
657.01	38859.91
657.16	39147.80
657.30	39084.61
657.45	39157.16
657.59	38728.84
657.73	38766.29
657.88	39054.18
658.02	39126.74
658.16	39236.74
658.31	38586.07
658.45	38632.88
658.60	38785.02
658.74	38841.19
658.88	38806.08
659.03	38342.66
659.17	38242.01
659.31	38361.38
659.46	38347.34
659.60	38462.02
659.74	38410.53
659.89	38029.02
660.03	38120.31
660.17	38370.74
660.32	38447.98
660.46	38181.16
660.60	37745.82
660.74	38263.08
660.89	38328.61
661.03	37865.19
661.17	37577.30
661.32	37804.33
661.46	37844.12
661.60	37591.34
661.74	37495.38
661.89	37476.66
662.03	37839.44
662.17	37394.74
662.31	37675.60
662.46	37846.46
662.60	36720.66
662.74	37392.40
662.88	37411.12
663.03	36879.82
663.17	37076.43
663.31	37184.09
663.45	37383.04
663.60	37273.03
663.74	36898.55
663.88	37287.07
664.02	37326.86
664.17	37148.98
664.31	36959.40
664.45	36261.92
664.59	36187.02
664.73	36334.48
664.88	37165.37
665.02	36465.55
665.16	36252.56
665.30	36594.28
665.44	36528.74
665.59	36507.68
665.73	35943.61
665.87	35742.32
666.01	36304.05
666.15	36140.21
666.29	36142.55
666.44	36273.62
666.58	36046.59
666.72	36027.87
666.86	35936.59
667.00	35896.80
667.14	35615.93
667.28	35962.33
667.43	35704.87
667.57	35714.23
667.71	35480.18
667.85	36098.08
667.99	35639.34
668.13	35433.37
668.27	35346.77
668.41	34962.92
668.56	35360.81
668.70	34939.52
668.84	34902.07
668.98	35084.63
669.12	35138.46
669.26	35105.70
669.40	34684.40
669.54	35030.80
669.68	34801.43
669.82	34492.47
669.96	34117.99
670.10	34157.78
670.25	34546.31
670.39	34719.51
670.53	34380.13
670.67	34466.73
670.81	34684.40
670.95	34054.79
671.09	34293.53
671.23	33926.07
671.37	34211.61
671.51	33741.16
671.65	34026.71
671.79	34211.61
671.93	33921.38
672.07	33820.74
672.21	33628.82
672.35	33193.48
672.49	33596.05
672.63	33977.56
672.77	33291.78
672.91	33720.10
673.05	33109.22
673.19	33539.88
673.33	32840.06
673.47	32964.10
673.61	33123.26
673.75	32760.48
673.89	32713.67
674.03	32559.19
674.17	32629.41
674.31	32465.57
674.45	32343.86
674.59	32170.66
674.73	32268.97
674.87	31988.10
675.01	31850.01
675.15	31672.13
675.29	32053.64
675.43	32041.93
675.56	32107.47
675.70	31761.07
675.84	31601.91
675.98	30995.71
676.12	31138.49
676.26	31711.92
676.40	31026.14
676.54	31426.37
676.68	31344.45
676.82	30810.81
676.96	31005.08
677.10	31197.00
677.23	30749.96
677.37	30754.64
677.51	30401.22
677.65	30728.89
677.79	30157.80
677.93	30466.75
678.07	30525.27
678.21	29944.81
678.34	29820.77
678.48	29898.00
678.62	30024.39
678.76	29654.59
678.90	29921.41
679.04	29710.76
679.18	29773.95
679.31	29017.96
679.45	29329.25
679.59	29123.29
679.73	29095.20
679.87	28999.24
680.00	28889.23
680.14	29322.23
680.28	29099.88
680.42	28755.82
680.56	28044.30
680.70	28144.94
680.83	28355.59
680.97	28435.17
681.11	28863.49
681.25	27962.38
681.39	27655.77
681.52	28151.96
681.66	27735.35
681.80	27665.13
681.94	27405.33
682.07	27323.41
682.21	27222.77
682.35	27613.64
682.49	27026.17
682.62	27321.07
682.76	27084.68
682.90	27194.68
683.04	27178.30
683.17	27145.53
683.31	26841.26
683.45	26829.56
683.59	26251.45
683.72	26249.11
683.86	26340.39
684.00	26026.76
684.13	26195.28
684.27	26066.55
684.41	26022.08
684.55	26249.11
684.68	25551.63
684.82	25495.46
684.96	25345.66
685.09	25256.72
685.23	25614.82
685.37	25411.20
685.50	25930.80
685.64	25668.66
685.78	25340.98
685.91	25071.82
686.05	24697.33
686.19	24465.62
686.32	24638.82
686.46	24285.40
686.60	24266.67
686.73	24559.24
686.87	24177.73
687.01	23936.66
687.14	24329.87
687.28	24219.86
687.42	23754.10
687.55	23852.40
687.69	24182.42
687.82	23845.38
687.96	23571.54
688.10	23941.34
688.23	23524.72
688.37	23594.94
688.50	23601.96
688.64	23501.32
688.78	23173.64
688.91	22782.77
689.05	22787.46
689.18	22733.62
689.32	22204.66
689.46	22548.72
689.59	22845.97
689.73	22724.26
689.86	22792.14
690.00	22174.24
690.13	22405.95
690.27	22160.19
690.41	22218.71
690.54	21947.20
690.68	22089.98
690.81	21823.16
690.95	21879.33
691.08	21621.87
691.22	21544.63
691.35	21511.86
691.49	21729.53
691.62	21397.18
691.76	21104.61
691.89	20870.56
692.03	21008.65
692.16	20882.26
692.30	20498.41
692.43	20973.54
692.57	20336.91
692.70	20559.27
692.84	20297.13
692.97	20496.07
693.11	20624.80
693.24	20175.42
693.38	20072.43
693.51	20037.33
693.65	20154.35
693.78	19784.55
693.92	19814.98
694.05	19681.56
694.19	19655.82
694.32	19524.75
694.45	19613.69
694.59	19613.69
694.72	19550.49
694.86	19009.83
694.99	19278.99
695.13	18916.21
695.26	19023.87
695.39	18520.66
695.53	18979.40
695.66	18845.99
695.80	18515.98
695.93	18696.20
696.07	18452.78
696.20	18242.14
696.33	18052.55
696.47	17642.96
696.60	18082.98
696.73	17994.04
696.87	18001.06
697.00	17961.27
697.14	17591.47
697.27	17568.06
697.40	17649.98
697.54	17673.39
697.67	17713.17
697.80	17664.02
697.94	17298.90
698.07	17226.34
698.21	17259.11
698.34	17088.25
698.47	17125.70
698.61	16545.25
698.74	16779.30
698.87	16788.66
699.01	16402.47
699.14	16519.50
699.27	16608.44
699.40	16442.26
699.54	16276.09
699.67	16404.81
699.80	16505.46
699.94	16142.67
700.07	16276.09
700.20	15906.28
700.34	15978.84
700.47	15917.98
700.60	16112.25
700.73	15688.61
700.87	15800.96
701.00	15494.35
701.13	15236.89
701.26	15564.56
701.40	15171.35
701.53	15211.14
701.66	15243.91
701.79	15040.28
701.93	15014.54
702.06	15201.78
702.19	14897.51
702.32	14846.02
702.46	14780.48
702.59	14630.69
702.72	15014.54
702.85	14773.46
702.99	14658.78
703.12	14527.71
703.25	14223.44
703.38	14237.48
703.51	14162.58
703.65	14068.96
703.78	14150.88
703.91	13951.93
704.04	13970.66
704.17	13790.44
704.31	13621.92
704.44	13650.00
704.57	13635.96
704.70	13528.30
704.83	13441.70
704.96	13460.42
705.10	13022.74
705.23	13317.65
>>>>>End Processed Spectral Data<<<<<
