SpectraSuite Data File
++++++++++++++++++++++++++++++++++++
Date: Fri Oct 25 11:33:51 EDT 2013
User: price-jones
Dark Spectrum Present: No
Reference Spectrum Present: No
Number of Sampled Component Spectra: 1
Spectrometers: USB2+H05261
Integration Time (usec): 100000 (USB2+H05261)
Spectra Averaged: 1 (USB2+H05261)
Boxcar Smoothing: 0 (USB2+H05261)
Correct for Electrical Dark: No (USB2+H05261)
Strobe/Lamp Enabled: No (USB2+H05261)
Correct for Detector Non-linearity: No (USB2+H05261)
Correct for Stray Light: No (USB2+H05261)
Number of Pixels in Processed Spectrum: 2048
>>>>>Begin Processed Spectral Data<<<<<
365.73	320.65
365.92	320.65
366.12	320.65
366.32	191.92
366.52	208.31
366.72	238.73
366.91	238.73
367.11	224.69
367.31	203.63
367.51	102.98
367.70	131.07
367.90	234.05
368.10	208.31
368.30	182.56
368.49	142.77
368.69	238.73
368.89	105.32
369.09	133.41
369.28	227.03
369.48	210.65
369.68	259.80
369.87	301.93
370.07	217.67
370.27	264.48
370.47	334.70
370.66	475.13
370.86	564.07
371.06	596.84
371.25	566.41
371.45	550.03
371.65	552.37
371.84	543.00
372.04	526.62
372.24	512.58
372.44	617.90
372.63	608.54
372.83	638.97
373.03	613.22
373.22	662.37
373.42	573.43
373.62	615.56
373.81	653.01
374.01	643.65
374.21	653.01
374.40	589.82
374.60	627.26
374.79	706.84
374.99	631.94
375.19	643.65
375.38	671.73
375.58	664.71
375.78	718.54
375.97	683.44
376.17	727.91
376.37	660.03
376.56	608.54
376.76	690.46
376.95	688.12
377.15	631.94
377.35	645.99
377.54	734.93
377.74	709.18
377.93	669.39
378.13	770.04
378.33	748.97
378.52	685.78
378.72	741.95
378.91	688.12
379.11	636.63
379.31	751.31
379.50	653.01
379.70	753.65
379.89	723.23
380.09	716.20
380.28	727.91
380.48	805.14
380.68	744.29
380.87	739.61
381.07	770.04
381.26	753.65
381.46	779.40
381.65	800.46
381.85	840.25
382.04	781.74
382.24	814.51
382.43	760.67
382.63	692.80
382.83	791.10
383.02	795.78
383.22	763.01
383.41	653.01
383.61	877.70
383.80	795.78
384.00	809.83
384.19	784.08
384.39	861.32
384.58	863.66
384.78	826.21
384.97	814.51
385.17	830.89
385.36	868.34
385.56	805.14
385.75	854.30
385.95	849.61
386.14	873.02
386.34	870.68
386.53	828.55
386.72	884.72
386.92	922.17
387.11	983.02
387.31	884.72
387.50	912.81
387.70	936.21
387.89	844.93
388.09	863.66
388.28	931.53
388.48	880.04
388.67	966.64
388.86	936.21
389.06	936.21
389.25	922.17
389.45	987.71
389.64	973.66
389.84	1013.45
390.03	901.11
390.22	938.55
390.42	1008.77
390.61	952.60
390.81	880.04
391.00	973.66
391.19	1004.09
391.39	1036.86
391.58	1067.28
391.78	1011.11
391.97	1039.20
392.16	1032.18
392.36	1100.05
392.55	1011.11
392.75	1015.79
392.94	1027.50
393.13	954.94
393.33	1071.97
393.52	1107.07
393.71	1118.78
393.91	1095.37
394.10	1067.28
394.29	1071.97
394.49	1144.52
394.68	1090.69
394.88	1069.62
395.07	1067.28
395.26	1121.12
395.46	1078.99
395.65	1144.52
395.84	1174.95
396.04	1299.00
396.23	1231.12
396.42	1324.74
396.62	1240.48
396.81	1266.23
397.00	1153.88
397.19	1196.01
397.39	1181.97
397.58	1294.32
397.77	1226.44
397.97	1186.65
398.16	1301.34
398.35	1315.38
398.55	1301.34
398.74	1231.12
398.93	1296.66
399.12	1352.83
399.32	1296.66
399.51	1343.47
399.70	1287.29
399.90	1338.79
400.09	1329.42
400.28	1420.71
400.47	1392.62
400.67	1343.47
400.86	1411.34
401.05	1390.28
401.24	1397.30
401.44	1409.00
401.63	1444.11
401.82	1418.36
402.01	1378.58
402.21	1455.81
402.40	1521.35
402.59	1444.11
402.78	1423.05
402.97	1509.65
403.17	1462.83
403.36	1467.52
403.55	1488.58
403.74	1614.97
403.93	1474.54
404.13	1696.89
404.32	1568.16
404.51	1614.97
404.70	1629.01
404.89	1636.03
405.09	1710.93
405.28	1664.12
405.47	1636.03
405.66	1708.59
405.85	1753.06
406.05	1748.38
406.24	1689.87
406.43	1802.21
406.62	1750.72
406.81	1778.81
407.00	1792.85
407.20	1792.85
407.39	1832.64
407.58	1820.94
407.77	1860.73
407.96	1806.89
408.15	1823.28
408.34	1851.36
408.54	1912.22
408.73	1935.62
408.92	1928.60
409.11	1937.96
409.30	2085.42
409.49	1968.39
409.68	2012.86
409.87	2080.74
410.07	2101.80
410.26	2003.50
410.45	2047.97
410.64	2022.22
410.83	2003.50
411.02	2139.25
411.21	2076.06
411.40	2193.08
411.59	2115.84
411.78	2172.02
411.98	2237.55
412.17	2246.91
412.36	2279.68
412.55	2300.75
412.74	2284.36
412.93	2300.75
413.12	2396.71
413.31	2406.07
413.50	2499.69
413.69	2368.62
413.88	2401.39
414.07	2438.84
414.26	2401.39
414.45	2532.46
414.64	2520.76
414.83	2539.48
415.02	2553.52
415.22	2539.48
415.41	2567.57
415.60	2614.38
415.79	2684.59
415.98	2654.17
416.17	2799.28
416.36	2719.70
416.55	2733.75
416.74	2827.37
416.93	2789.92
417.12	2829.71
417.31	2939.71
417.50	2944.39
417.69	2956.10
417.88	2855.45
418.07	2855.45
418.26	2984.18
418.45	2925.67
418.64	3000.57
418.83	3000.57
419.02	3059.08
419.21	2953.76
419.39	3016.95
419.58	2988.86
419.77	2986.52
419.96	3136.32
420.15	3035.67
420.34	3033.33
420.53	3094.19
420.72	3115.25
420.91	3098.87
421.10	3295.47
421.29	3304.84
421.48	3232.28
421.67	3300.16
421.86	3311.86
422.05	3396.12
422.24	3274.41
422.43	3372.71
422.61	3311.86
422.80	3363.35
422.99	3353.99
423.18	3302.50
423.37	3517.83
423.56	3358.67
423.75	3485.06
423.94	3323.56
424.13	3164.40
424.32	3220.58
424.50	3466.33
424.69	3353.99
424.88	3503.78
425.07	3391.44
425.26	3384.41
425.45	3471.01
425.64	3407.82
425.83	3339.94
426.01	3471.01
426.20	3379.73
426.39	3410.16
426.58	3332.92
426.77	3613.79
426.96	3473.36
427.15	3417.18
427.33	3611.45
427.52	3478.04
427.71	3543.57
427.90	3634.85
428.09	3585.70
428.28	3623.15
428.46	3700.39
428.65	3599.74
428.84	3850.18
429.03	3878.27
429.22	3583.36
429.40	3749.54
429.59	3672.30
429.78	3524.85
429.97	3536.55
430.16	3728.47
430.34	3819.75
430.53	3796.35
430.72	3908.69
430.91	3887.63
431.10	3838.48
431.28	3957.85
431.47	4021.04
431.66	4018.70
431.85	3929.76
432.03	3906.35
432.22	4152.11
432.41	3932.10
432.60	4224.67
432.79	4060.83
432.97	4067.85
433.16	4102.96
433.35	4140.41
433.54	4044.45
433.72	4159.13
433.91	4177.86
434.10	4175.52
434.28	4222.33
434.47	4173.18
434.66	4161.47
434.85	4348.72
435.03	4287.86
435.22	4227.01
435.41	4360.42
435.59	4376.80
435.78	4318.29
435.97	4313.61
436.16	4252.75
436.34	4381.48
436.53	4337.01
436.72	4421.27
436.90	4430.63
437.09	4435.32
437.28	4351.06
437.46	4580.43
437.65	4585.11
437.84	4552.34
438.02	4524.26
438.21	4510.21
438.40	4573.41
438.58	4610.86
438.77	4760.65
438.96	4709.16
439.14	4924.49
439.33	4814.48
439.52	4973.64
439.70	4882.36
439.89	5074.28
440.08	5020.45
440.26	5060.24
440.45	4971.30
440.63	5057.90
440.82	5228.76
441.01	5188.97
441.19	5135.14
441.38	5235.78
441.57	5125.77
441.75	5275.57
441.94	5481.53
442.12	5296.63
442.31	5408.98
442.50	5434.72
442.68	5416.00
442.87	5343.44
443.05	5535.37
443.24	5437.06
443.43	5418.34
443.61	5516.64
443.80	5741.33
443.98	5399.62
444.17	5308.34
444.35	5385.57
444.54	5533.03
444.73	5502.60
444.91	5701.54
445.10	5767.08
445.28	5533.03
445.47	5661.76
445.65	5558.77
445.84	5624.31
446.02	5809.21
446.21	5626.65
446.39	5788.14
446.58	5661.76
446.77	5802.19
446.95	5650.05
447.14	5734.31
447.32	5792.83
447.51	5771.76
447.69	5689.84
447.88	5902.83
448.06	5692.18
448.25	5750.70
448.43	5736.65
448.62	5816.23
448.80	5652.39
448.99	5654.73
449.17	5823.25
449.36	5832.62
449.54	5898.15
449.73	6129.86
449.91	6043.26
450.10	6005.81
450.28	6164.97
450.46	6160.29
450.65	6038.58
450.83	6277.32
451.02	6087.73
451.20	6120.50
451.39	6272.64
451.57	5919.21
451.76	5991.77
451.94	6143.91
452.13	6263.27
452.31	6195.40
452.49	6139.23
452.68	6258.59
452.86	6186.04
453.05	6406.05
453.23	6291.36
453.42	6251.57
453.60	6249.23
453.78	6455.20
453.97	6223.48
454.15	6354.55
454.34	6197.74
454.52	6403.71
454.70	6427.11
454.89	6434.13
455.07	6438.81
455.26	6469.24
455.44	6490.31
455.62	6590.95
455.81	6764.15
455.99	6691.59
456.17	6719.68
456.36	6883.52
456.54	6923.30
456.73	6892.88
456.91	6946.71
457.09	6974.80
457.28	7105.87
457.46	6890.54
457.64	7140.97
457.83	7000.54
458.01	7012.24
458.19	7082.46
458.38	6986.50
458.56	7211.19
458.74	7274.38
458.93	7169.06
459.11	7234.60
459.29	7119.91
459.48	7316.51
459.66	7206.51
459.84	7414.82
460.03	7370.35
460.21	7234.60
460.39	7220.55
460.57	7431.20
460.76	7307.15
460.94	7529.50
461.12	7375.03
461.31	7520.14
461.49	7463.97
461.67	7370.35
461.85	7887.61
462.04	7520.14
462.22	7974.21
462.40	7712.07
462.59	7651.21
462.77	7700.36
462.95	7822.07
463.13	7637.17
463.32	7754.19
463.50	7723.77
463.68	7964.84
463.86	7793.98
464.05	7866.54
464.23	7744.83
464.41	7801.01
464.59	7786.96
464.78	8180.17
464.96	8105.28
465.14	7929.74
465.32	8149.75
465.50	8088.89
465.69	8030.38
465.87	8077.19
466.05	8262.09
466.23	8159.11
466.41	8102.93
466.60	8351.03
466.78	8098.25
466.96	8044.42
467.14	8074.85
467.32	8112.30
467.51	8315.92
467.69	8025.70
467.87	8140.38
468.05	8159.11
468.23	8386.14
468.41	8243.37
468.60	8395.50
468.78	8400.18
468.96	8327.63
469.14	8446.99
469.32	8489.12
469.50	8430.61
469.69	8732.54
469.87	8826.16
470.05	8922.12
470.23	8929.14
470.41	8753.60
470.59	8608.49
470.77	8812.12
470.95	8896.38
471.14	8835.52
471.32	8758.28
471.50	8769.99
471.68	9046.17
471.86	9252.14
472.04	9050.85
472.22	9158.52
472.40	9100.00
472.58	9165.54
472.77	9104.68
472.95	9217.03
473.13	9600.88
473.31	9284.91
473.49	9430.02
473.67	9277.88
473.85	9518.96
474.03	9535.34
474.21	9685.14
474.39	9757.69
474.57	9720.24
474.75	9848.97
474.93	9776.42
475.12	9982.38
475.30	10171.97
475.48	10003.45
475.66	10087.71
475.84	10003.45
476.02	10251.55
476.20	10230.48
476.38	10401.34
476.56	10574.54
476.74	10293.68
476.92	10420.06
477.10	10396.66
477.28	10661.14
477.46	10803.91
477.64	10839.02
477.82	10946.69
478.00	11281.38
478.18	10988.82
478.36	11176.06
478.54	11370.32
478.72	11255.64
478.90	11562.25
479.08	11719.06
479.26	11686.29
479.44	11676.93
479.62	11726.08
479.80	11761.19
479.98	11915.67
480.16	12196.53
480.34	12070.14
480.52	12248.02
480.70	12126.32
480.88	12098.23
481.06	12580.38
481.24	12484.42
481.41	12479.74
481.59	12390.80
481.77	12755.92
481.95	12826.14
482.13	12940.82
482.31	12685.70
482.49	13582.13
482.67	13224.03
482.85	13394.89
483.03	13242.75
483.21	13685.11
483.39	13715.54
483.57	13767.03
483.74	13708.52
483.92	13909.80
484.10	13425.31
484.28	14260.88
484.46	14546.43
484.64	14633.03
484.82	14375.57
485.00	14394.29
485.18	14743.03
485.35	15028.58
485.53	14897.51
485.71	14941.98
485.89	15403.07
486.07	15169.01
486.25	15204.12
486.43	15185.40
486.61	15419.45
486.78	15875.85
486.96	15822.02
487.14	16046.71
487.32	16142.67
487.50	16507.80
487.68	16264.38
487.85	16278.43
488.03	16676.32
488.21	16776.96
488.39	16791.00
488.57	17050.80
488.75	17067.19
488.92	17088.25
489.10	17434.65
489.28	17326.99
489.46	17535.29
489.64	17724.88
489.81	17902.76
489.99	18104.04
490.17	18125.11
490.35	18286.61
490.53	18448.10
490.70	18642.37
490.88	18258.52
491.06	18735.99
491.24	18511.30
491.41	18934.93
491.59	19005.15
491.77	18897.49
491.95	19098.77
492.13	19302.40
492.30	19396.02
492.48	19606.67
492.66	19583.26
492.84	19648.80
493.01	19906.26
493.19	20100.52
493.37	20589.69
493.54	20262.02
493.72	20545.22
493.90	20573.31
494.08	20680.97
494.25	20807.36
494.43	21036.74
494.61	20985.24
494.79	20945.45
494.96	21202.91
495.14	21366.75
495.32	21605.49
495.49	21542.29
495.67	21635.91
495.85	21607.83
496.02	22113.38
496.20	22101.68
496.38	22125.08
496.55	22176.58
496.73	22415.31
496.91	22176.58
497.09	22522.98
497.26	23054.28
497.44	22637.66
497.62	23016.83
497.79	23370.25
497.97	23183.01
498.14	23360.89
498.32	23845.38
498.50	23566.85
498.67	23545.79
498.85	23852.40
499.03	23632.39
499.20	23723.67
499.38	24126.24
499.56	24252.63
499.73	24304.12
499.91	24329.87
500.08	24599.03
500.26	24341.57
500.44	24659.88
500.61	24706.70
500.79	24290.08
500.97	24861.17
501.14	25076.50
501.32	25036.71
501.49	24875.21
501.67	24992.24
501.84	25198.21
502.02	25427.58
502.20	25404.17
502.37	25462.69
502.55	25727.17
502.72	25736.53
502.90	25759.94
503.07	26050.16
503.25	25741.21
503.43	25663.97
503.60	25958.88
503.78	26195.28
503.95	26300.60
504.13	26319.32
504.30	26689.13
504.48	26778.07
504.65	26541.68
504.83	26644.66
505.01	26981.70
505.18	27077.66
505.36	27115.11
505.53	26801.47
505.71	27201.71
505.88	27508.32
506.06	27208.73
506.23	27187.66
506.41	27412.35
506.58	27646.41
506.76	27796.20
506.93	27843.01
507.11	27716.62
507.28	28018.55
507.46	28004.51
507.63	28149.62
507.81	28304.10
507.98	28226.86
508.16	28371.97
508.33	28753.48
508.50	28531.13
508.68	28554.54
508.85	28966.47
509.03	28584.96
509.20	28634.11
509.38	28870.51
509.55	29090.52
509.73	28807.31
509.90	28975.83
510.08	29165.42
510.25	29268.40
510.42	29572.67
510.60	29563.31
510.77	29558.63
510.95	29764.59
511.12	29584.37
511.30	29862.90
511.47	29998.65
511.64	29677.99
511.82	29900.34
511.99	29893.32
512.17	30122.69
512.34	30125.04
512.51	30560.37
512.69	31007.42
512.86	30572.08
513.04	30628.25
513.21	30462.07
513.38	30897.41
513.56	30672.72
513.73	31311.69
513.90	30696.13
514.08	30565.06
514.25	31218.07
514.43	31288.28
514.60	31489.57
514.77	31379.56
514.95	31723.62
515.12	31686.17
515.29	31587.87
515.47	31571.49
515.64	32046.62
515.81	31634.68
515.99	31955.33
516.16	31957.67
516.33	31941.29
516.51	32261.94
516.68	31695.53
516.85	32072.36
517.03	32322.80
517.20	32732.39
517.37	32184.71
517.54	32643.45
517.72	32315.78
517.89	32416.42
518.06	32861.12
518.24	32582.60
518.41	32638.77
518.58	32664.52
518.75	32699.62
518.93	33069.43
519.10	33312.84
519.27	33362.00
519.45	33015.60
519.62	33359.66
519.79	33745.84
519.96	33127.94
520.14	33373.70
520.31	33076.45
520.48	33699.03
520.65	33649.88
520.83	34251.40
521.00	34176.50
521.17	33993.94
521.34	34450.35
521.52	34267.78
521.69	34366.09
521.86	34005.64
522.03	34590.78
522.20	34773.34
522.38	34895.05
522.55	34761.64
522.72	34583.76
522.89	34569.71
523.07	35274.21
523.24	35157.19
523.41	35239.11
523.58	35065.91
523.75	34960.58
523.92	35051.86
524.10	35559.76
524.27	34958.24
524.44	35379.54
524.61	35615.93
524.78	35952.97
524.96	35761.05
525.13	36172.98
525.30	35604.23
525.47	35679.13
525.64	35768.07
525.81	36084.04
525.98	36027.87
526.16	35503.59
526.33	35651.04
526.50	35800.83
526.67	35800.83
526.84	36683.22
527.01	35901.48
527.18	36290.01
527.36	36404.69
527.53	36591.94
527.70	36744.07
527.87	36795.56
528.04	36629.38
528.21	37099.83
528.38	36655.13
528.55	37006.21
528.72	36603.64
528.89	37099.83
529.07	37167.71
529.24	36837.69
529.41	37315.16
529.58	37214.52
529.75	37266.01
529.92	37439.21
530.09	37567.94
530.26	37469.64
530.43	37464.96
530.60	37240.26
530.77	37546.87
530.94	37785.61
531.11	37727.10
531.28	37401.76
531.46	37940.08
531.63	38068.81
531.80	38078.18
531.97	37670.92
532.14	38085.20
532.31	37968.17
532.48	38323.93
532.65	38089.88
532.82	37766.88
532.99	38888.00
533.16	38073.49
533.33	38436.28
533.50	38462.02
533.67	38185.84
533.84	38146.05
534.01	38550.96
534.18	38614.16
534.35	39154.82
534.52	39065.88
534.69	39068.22
534.86	38953.54
535.03	39037.80
535.20	39367.81
535.37	39154.82
535.54	39086.95
535.71	38951.20
535.88	39112.69
536.05	39309.30
536.22	39714.21
536.38	39379.51
536.55	39344.41
536.72	39608.89
536.89	39601.86
537.06	39739.96
537.23	39803.15
537.40	39393.56
537.57	39435.69
537.74	39311.64
537.91	40114.44
538.08	39555.05
538.25	39997.41
538.42	40006.78
538.59	39999.76
538.75	39896.77
538.92	40046.57
539.09	40451.48
539.26	40498.29
539.43	40364.88
539.60	40453.82
539.77	40060.61
539.94	40570.85
540.11	40292.32
540.28	40292.32
540.44	40842.35
540.61	40577.87
540.78	40175.30
540.95	40526.38
541.12	40084.01
541.29	40690.21
541.46	40692.55
541.62	40952.35
541.79	40769.79
541.96	40498.29
542.13	40715.96
542.30	41001.50
542.47	40865.75
542.63	41256.62
542.80	41132.57
542.97	41696.64
543.14	41736.43
543.31	41432.16
543.48	41478.97
543.64	41481.31
543.81	41701.32
543.98	41883.89
544.15	41888.57
544.32	41935.38
544.48	41965.81
544.65	41834.74
544.82	42148.37
544.99	41631.11
545.16	41675.58
545.32	41720.05
545.49	41865.16
545.66	42183.48
545.83	42139.00
546.00	42237.31
546.16	41933.04
546.33	42029.00
546.50	41853.46
546.67	42438.59
546.83	41914.31
547.00	42429.23
547.17	41902.61
547.34	42183.48
547.50	42464.34
547.67	42822.44
547.84	42801.38
548.00	42564.98
548.17	42925.42
548.34	43215.65
548.51	42557.96
548.67	42518.17
548.84	43072.88
549.01	42527.53
549.18	43119.69
549.34	43540.99
549.51	43702.48
549.68	43599.50
549.84	42969.90
550.01	43299.91
550.18	42707.76
550.34	43119.69
550.51	43737.59
550.68	43625.25
550.84	42873.93
551.01	43927.17
551.18	43304.59
551.34	43452.05
551.51	43407.58
551.68	43590.14
551.84	43328.00
552.01	43339.70
552.18	43662.69
552.34	43344.38
552.51	43576.09
552.68	43475.45
552.84	43798.44
553.01	43672.06
553.18	43653.33
553.34	43632.27
553.51	43693.12
553.67	43786.74
553.84	44142.50
554.01	44201.02
554.17	43770.36
554.34	44339.11
554.51	44116.76
554.67	44390.60
554.84	44650.40
555.00	43995.05
555.17	44149.53
555.33	44584.86
555.50	44484.22
555.67	44158.89
555.83	44718.28
556.00	44690.19
556.16	44605.93
556.33	44790.83
556.50	44304.00
556.66	44289.96
556.83	44301.66
556.99	44428.05
557.16	44837.64
557.32	44680.83
557.49	44781.47
557.65	44376.56
557.82	44664.44
557.98	44760.40
558.15	44697.21
558.32	45013.18
558.48	44252.51
558.65	45036.59
558.81	45090.42
558.98	45083.40
559.14	44643.38
559.31	44641.04
559.47	45036.59
559.64	44807.22
559.80	45574.91
559.97	45595.98
560.13	44809.56
560.30	45165.32
560.46	45432.14
560.63	45514.06
560.79	45223.83
560.96	45291.71
561.12	45450.86
561.29	45291.71
561.45	45228.51
561.61	45254.26
561.78	45038.93
561.94	45067.02
562.11	45221.49
562.27	45537.46
562.44	46036.00
562.60	45380.65
562.77	45181.70
562.93	45593.64
563.10	45865.14
563.26	45518.74
563.42	45705.98
563.59	45308.09
563.75	45331.50
563.92	45907.27
564.08	45572.57
564.24	45303.41
564.41	45574.91
564.57	45469.59
564.74	45670.87
564.90	45647.47
565.07	45326.81
565.23	45588.95
565.39	45696.62
565.56	46085.15
565.72	45610.02
565.88	45865.14
566.05	46202.18
566.21	45872.16
566.38	45455.54
566.54	45914.29
566.70	46031.32
566.87	45937.69
567.03	45373.63
567.19	45722.37
567.36	45799.60
567.52	45975.14
567.68	46307.50
567.85	46408.14
568.01	46171.75
568.17	46560.28
568.34	46230.26
568.50	46057.06
568.66	45904.93
568.83	46244.30
568.99	45752.79
569.15	45841.73
569.32	45841.73
569.48	46377.72
569.64	46696.03
569.81	46316.86
569.97	46698.37
570.13	46356.65
570.30	45947.06
570.46	46415.16
570.62	45820.67
570.78	46014.93
570.95	46384.74
571.11	46696.03
571.27	46370.69
571.43	46277.07
571.60	46155.36
571.76	46209.20
571.92	45968.12
572.09	46054.72
572.25	45993.87
572.41	46244.30
572.57	46630.49
572.74	46637.51
572.90	46637.51
573.06	46693.69
573.22	46691.35
573.38	46225.58
573.55	46646.88
573.71	47253.08
573.87	46660.92
574.03	46501.76
574.20	46735.82
574.36	46246.65
574.52	46864.55
574.68	46852.84
574.84	46656.24
575.01	46845.82
575.17	46674.96
575.33	46679.64
575.49	46593.04
575.65	47049.45
575.82	47093.92
575.98	46653.90
576.14	46773.27
576.30	46780.29
576.46	46625.81
576.62	47138.39
576.79	46752.20
576.95	46623.47
577.11	46351.97
577.27	46635.17
577.43	47023.70
577.59	46930.08
577.75	46550.91
577.92	46452.61
578.08	46731.14
578.24	46487.72
578.40	46483.04
578.56	46681.98
578.72	46539.21
578.88	46747.52
579.04	47042.43
579.21	46693.69
579.37	46761.56
579.53	46707.73
579.69	46492.40
579.85	46780.29
580.01	46672.62
580.17	46866.89
580.33	47091.58
580.49	47000.30
580.65	46892.63
580.82	46827.10
580.98	46813.05
581.14	46188.13
581.30	46850.50
581.46	46646.88
581.62	46691.35
581.78	46686.67
581.94	46787.31
582.10	46967.53
582.26	47009.66
582.42	46869.23
582.58	46990.94
582.74	47133.71
582.90	47126.69
583.06	47346.70
583.22	47248.39
583.38	46864.55
583.54	46810.71
583.70	46969.87
583.86	47222.65
584.02	46749.86
584.18	47370.10
584.34	47625.22
584.50	47096.26
584.66	47433.30
584.82	46836.46
584.98	47318.61
585.14	47040.09
585.30	46990.94
585.46	47112.64
585.62	46681.98
585.78	47007.32
585.94	46857.52
586.10	46557.94
586.26	46663.26
586.42	47318.61
586.58	47129.03
586.74	47194.56
586.90	46747.52
587.06	46894.97
587.22	47288.18
587.38	47004.98
587.54	47550.32
587.70	47718.84
587.86	47358.40
588.02	47229.67
588.18	46951.15
588.34	47117.32
588.49	47192.22
588.65	47122.01
588.81	46827.10
588.97	47100.94
589.13	47384.15
589.29	47175.84
589.45	47421.59
589.61	47215.63
589.77	47229.67
589.93	47566.71
590.08	47302.23
590.24	47276.48
590.40	47655.65
590.56	47552.66
590.72	47899.06
590.88	47283.50
591.04	47393.51
591.20	47606.50
591.35	47386.49
591.51	47749.27
591.67	47728.20
591.83	47613.52
591.99	47657.99
592.15	47491.81
592.31	47519.90
592.46	47318.61
592.62	47547.98
592.78	47267.12
592.94	47718.84
593.10	47770.33
593.26	48186.95
593.41	47562.03
593.57	47393.51
593.73	47896.72
593.89	48030.13
594.05	48044.18
594.20	47583.09
594.36	48526.33
594.52	48013.75
594.68	47849.91
594.84	47854.59
594.99	48266.53
595.15	47882.68
595.31	47655.65
595.47	47536.28
595.62	47721.18
595.78	47515.22
595.94	47812.46
596.10	47452.02
596.25	47817.14
596.41	47985.66
596.57	47683.73
596.73	47983.32
596.88	47657.99
597.04	47873.32
597.20	47915.45
597.36	47388.83
597.51	48037.16
597.67	47756.29
597.83	47407.55
597.99	47765.65
598.14	47980.98
598.30	47742.25
598.46	47894.38
598.61	48320.36
598.77	47629.90
598.93	47721.18
599.09	47775.02
599.24	48196.31
599.40	47866.30
599.56	47945.87
599.71	48795.49
599.87	48385.89
600.03	48147.16
600.18	47798.42
600.34	47913.11
600.50	47969.28
600.65	47487.13
600.81	48212.70
600.97	48287.59
601.12	48273.55
601.28	48037.16
601.44	47817.14
601.59	48381.21
601.75	47599.47
601.91	47959.92
602.06	47838.21
602.22	47976.30
602.37	47878.00
602.53	47903.74
602.69	48109.71
602.84	48245.46
603.00	48100.35
603.16	48083.97
603.31	47695.44
603.47	48374.19
603.62	48172.91
603.78	48350.79
603.94	48254.82
604.09	48128.44
604.25	47709.48
604.40	47489.47
604.56	48189.29
604.71	48182.27
604.87	47709.48
605.03	47430.96
605.18	47660.33
605.34	47999.71
605.49	47498.83
605.65	48020.77
605.80	47665.01
605.96	47779.70
606.12	47770.33
606.27	48121.41
606.43	47751.61
606.58	48278.23
606.74	48065.24
606.89	48009.07
607.05	47985.66
607.20	48135.46
607.36	47920.13
607.51	48030.13
607.67	47730.54
607.82	47571.39
607.98	47819.49
608.13	47634.58
608.29	47999.71
608.44	47875.66
608.60	47812.46
608.75	47807.78
608.91	47922.47
609.06	47468.40
609.22	48041.84
609.37	47746.93
609.53	47760.97
609.68	47704.80
609.84	47222.65
609.99	47964.60
610.15	47559.69
610.30	47913.11
610.46	47522.24
610.61	47330.31
610.76	47819.49
610.92	47426.28
611.07	47250.74
611.23	47147.75
611.38	47629.90
611.54	47714.16
611.69	48006.73
611.84	47445.00
612.00	47309.25
612.15	47557.35
612.31	47969.28
612.46	47445.00
612.62	47402.87
612.77	47622.88
612.92	47835.87
613.08	47377.12
613.23	47524.58
613.39	46951.15
613.54	47681.39
613.69	47372.44
613.85	47587.77
614.00	47203.92
614.15	47363.08
614.31	47297.55
614.46	47136.05
614.62	47030.72
614.77	47381.80
614.92	47208.61
615.08	47178.18
615.23	47562.03
615.38	47428.62
615.54	47304.57
615.69	47295.21
615.84	46890.29
616.00	47545.64
616.15	47257.76
616.30	47068.17
616.46	46906.68
616.61	46951.15
616.76	47075.19
616.92	46852.84
617.07	47042.43
617.22	46845.82
617.37	46883.27
617.53	46660.92
617.68	46876.25
617.83	46855.18
617.99	47189.88
618.14	47213.29
618.29	46656.24
618.45	46501.76
618.60	46499.42
618.75	45984.51
618.90	46607.09
619.06	47044.77
619.21	47030.72
619.36	47122.01
619.51	46649.22
619.67	46649.22
619.82	46602.41
619.97	47136.05
620.12	46780.29
620.28	46637.51
620.43	46897.31
620.58	46361.33
620.73	46557.94
620.89	46777.95
621.04	46721.77
621.19	46639.86
621.34	46831.78
621.49	46532.19
621.65	46738.16
621.80	46506.44
621.95	46616.45
622.10	46576.66
622.25	46415.16
622.41	46000.89
622.56	46223.24
622.71	46356.65
622.86	46485.38
623.01	46609.43
623.16	46094.51
623.32	46220.90
623.47	46665.60
623.62	46000.89
623.77	46602.41
623.92	46532.19
624.07	46206.86
624.23	46354.31
624.38	46649.22
624.53	46066.42
624.68	45956.42
624.83	45984.51
624.98	46188.13
625.13	45670.87
625.29	45701.30
625.44	45736.41
625.59	45684.92
625.74	45979.82
625.89	45492.99
626.04	45729.39
626.19	45965.78
626.34	45607.68
626.49	45312.77
626.65	45450.86
626.80	45354.90
626.95	45289.37
627.10	45654.49
627.25	45652.15
627.40	45727.05
627.55	45654.49
627.70	45628.74
627.85	45886.20
628.00	45588.95
628.15	45542.14
628.30	45141.91
628.45	45200.43
628.60	44542.74
628.76	45359.58
628.91	45272.98
629.06	44947.65
629.21	45074.04
629.36	45209.79
629.51	44971.05
629.66	45483.63
629.81	45003.82
629.96	45111.49
630.11	45628.74
630.26	45184.04
630.41	44797.85
630.56	45120.85
630.71	45034.25
630.86	45090.42
631.01	44713.59
631.16	44383.58
631.31	44889.13
631.46	44704.23
631.61	44989.78
631.76	44968.71
631.91	45172.34
632.06	45097.44
632.21	45560.87
632.36	45319.79
632.51	44348.47
632.66	45181.70
632.81	44919.56
632.96	45055.31
633.10	44142.50
633.25	44587.21
633.40	44729.98
633.55	45052.97
633.70	44540.39
633.85	44519.33
634.00	43892.07
634.15	44589.55
634.30	44350.81
634.45	44229.10
634.60	44512.31
634.75	44650.40
634.90	44460.82
635.05	44549.76
635.19	44229.10
635.34	44570.82
635.49	44442.09
635.64	44273.57
635.79	44566.14
635.94	44491.24
636.09	44313.36
636.24	44322.72
636.39	44336.77
636.53	43945.90
636.68	43913.13
636.83	43821.85
636.98	43339.70
637.13	43796.10
637.28	43667.37
637.43	43854.62
637.57	44186.97
637.72	43328.00
637.87	43629.93
638.02	43915.47
638.17	44076.97
638.32	43761.00
638.46	43667.37
638.61	43449.70
638.76	43426.30
638.91	43632.27
639.06	43985.69
639.20	43402.89
639.35	43611.20
639.50	43372.47
639.65	43580.78
639.80	43819.51
639.94	43505.88
640.09	43590.14
640.24	43601.84
640.39	43049.47
640.54	42925.42
640.68	43723.55
640.83	43913.13
640.98	43442.68
641.13	43285.87
641.27	43658.01
641.42	43414.60
641.57	43697.80
641.72	43496.52
641.86	43559.71
642.01	42726.48
642.16	43061.18
642.31	43143.09
642.45	42838.83
642.60	43021.39
642.75	42827.12
642.90	43133.73
643.04	43133.73
643.19	43110.33
643.34	42799.04
643.48	42302.84
643.63	42784.99
643.78	42815.42
643.93	43452.05
644.07	42911.38
644.22	42876.27
644.37	43117.35
644.51	42621.16
644.66	42642.22
644.81	43105.65
644.95	43023.73
645.10	42848.19
645.25	42712.44
645.39	42316.89
645.54	42340.29
645.69	41710.69
645.83	42195.18
645.98	42562.64
646.13	42447.96
646.27	42581.37
646.42	41965.81
646.57	42501.79
646.71	42457.32
646.86	42302.84
647.00	42443.27
647.15	42415.19
647.30	42525.19
647.44	42211.56
647.59	42429.23
647.74	42190.50
647.88	42103.90
648.03	42953.51
648.17	42314.55
648.32	42473.70
648.47	42759.25
648.61	41818.35
648.76	42295.82
648.90	41951.76
649.05	41956.44
649.20	42333.27
649.34	42040.70
649.49	42134.32
649.63	42143.69
649.78	42555.62
649.92	42239.65
650.07	42316.89
650.21	41825.37
650.36	41790.27
650.51	41832.39
650.65	41839.42
650.80	42164.75
650.94	41897.93
651.09	41926.02
651.23	41558.55
651.38	41258.96
651.52	41612.38
651.67	41378.33
651.81	41748.14
651.96	41490.68
652.10	41085.76
652.25	41556.21
652.39	41846.44
652.54	41687.28
652.68	41682.60
652.83	41338.54
652.97	42031.34
653.12	41214.49
653.26	41406.42
653.41	41399.40
653.55	41720.05
653.70	41425.14
653.84	41333.86
653.99	41666.22
654.13	41350.24
654.27	41022.57
654.42	41263.64
654.56	41443.87
654.71	41200.45
654.85	41560.89
655.00	41303.43
655.14	41546.85
655.29	41340.88
655.43	41261.30
655.57	41397.06
655.72	40673.83
655.86	41184.07
656.01	41015.55
656.15	40121.46
656.30	40652.76
656.44	41273.01
656.58	41273.01
656.73	40835.33
656.87	40519.35
657.01	40889.16
657.16	40720.64
657.30	40397.65
657.45	40825.96
657.59	40268.92
657.73	39800.81
657.88	41041.29
658.02	40683.19
658.16	40542.76
658.31	40332.11
658.45	40486.59
658.60	40081.67
658.74	40587.23
658.88	40346.15
659.03	40428.07
659.17	40238.49
659.31	40062.95
659.46	39587.82
659.60	40184.66
659.74	40245.51
659.89	39604.20
660.03	39892.09
660.17	39732.93
660.32	40062.95
660.46	39966.99
660.60	39379.51
660.74	39587.82
660.89	39796.13
661.03	39510.58
661.17	39433.35
661.32	39573.78
661.46	39613.57
661.60	39501.22
661.74	39351.43
661.89	39028.43
662.03	39321.00
662.17	39393.56
662.31	39091.63
662.46	39526.97
662.60	38923.11
662.74	38930.13
662.88	38672.67
663.03	38258.40
663.17	38799.06
663.31	38370.74
663.45	38609.48
663.60	38518.20
663.74	39047.16
663.88	38686.71
664.02	38574.37
664.17	38834.17
664.31	38588.41
664.45	38183.50
664.59	38443.30
664.73	38457.34
664.88	38117.96
665.02	38059.45
665.16	38092.22
665.30	38171.80
665.44	37682.62
665.59	37434.53
665.73	37574.96
665.87	37574.96
666.01	37633.47
666.15	37383.04
666.29	37883.91
666.44	37682.62
666.58	37713.05
666.72	37261.33
666.86	37057.70
667.00	37563.26
667.14	37207.50
667.28	37158.34
667.43	37397.08
667.57	37890.93
667.71	37486.02
667.85	37347.93
667.99	37139.62
668.13	37179.41
668.27	36498.31
668.41	36807.26
668.56	36392.99
668.70	36821.31
668.84	36383.63
668.98	36397.67
669.12	36563.85
669.26	36687.90
669.40	36552.15
669.54	36491.29
669.68	36077.02
669.82	35894.46
669.96	35950.63
670.10	35576.14
670.25	35964.67
670.39	35976.37
670.53	36051.27
670.67	35608.91
670.81	36484.27
670.95	35482.52
671.09	35381.88
671.23	35466.14
671.37	35512.95
671.51	35356.13
671.65	35096.33
671.79	35131.44
671.93	35328.05
672.07	35447.41
672.21	35175.91
672.35	35246.13
672.49	35035.48
672.63	35051.86
672.77	34419.92
672.91	34925.47
673.05	34834.19
673.19	34916.11
673.33	34717.17
673.47	34298.21
673.61	34267.78
673.75	34506.52
673.89	33921.38
674.03	33991.60
674.17	34040.75
674.31	33542.22
674.45	33619.46
674.59	33958.83
674.73	34054.79
674.87	33872.23
675.01	33223.90
675.15	33340.93
675.29	33291.78
675.43	33027.30
675.56	33312.84
675.70	33261.35
675.84	32926.66
675.98	32456.21
676.12	32844.74
676.26	33207.52
676.40	32606.00
676.54	32662.18
676.68	32790.91
676.82	32350.88
676.96	32327.48
677.10	32524.08
677.23	32285.35
677.37	32215.13
677.51	31896.82
677.65	32168.32
677.79	31840.65
677.93	31835.97
678.07	31637.02
678.21	31388.92
678.34	31105.72
678.48	31166.57
678.62	31384.24
678.76	30890.39
678.90	31136.15
679.04	31365.52
679.18	31129.12
679.31	30490.16
679.45	30986.35
679.59	30342.70
679.73	30733.57
679.87	30071.20
680.00	30366.11
680.14	29940.13
680.28	30288.87
680.42	30478.46
680.56	30349.73
680.70	29776.30
680.83	29769.27
680.97	29305.85
681.11	29635.86
681.25	29385.43
681.39	29060.09
681.52	29415.85
681.66	28837.74
681.80	28390.70
681.94	28493.68
682.07	28247.93
682.21	28402.40
682.35	28355.59
682.49	28952.43
682.62	28224.52
682.76	28666.88
682.90	28276.01
683.04	28350.91
683.17	27962.38
683.31	28116.86
683.45	28126.22
683.59	27957.70
683.72	27288.31
683.86	27517.68
684.00	27941.32
684.13	27267.24
684.27	27152.55
684.41	27269.58
684.55	26991.06
684.68	26827.22
684.82	26735.94
684.96	26909.14
685.09	26691.47
685.23	26771.05
685.37	27051.91
685.50	26731.26
685.64	26340.39
685.78	26293.58
685.91	26099.31
686.05	25930.80
686.19	25919.09
686.32	25769.30
686.46	25408.86
686.60	25490.77
686.73	25282.47
686.87	25572.69
687.01	25514.18
687.14	25268.42
687.28	25598.44
687.42	25298.85
687.55	25020.33
687.69	25179.48
687.82	24746.48
687.96	24816.70
688.10	24638.82
688.23	24634.14
688.37	24744.14
688.50	25116.29
688.64	24552.22
688.78	24135.60
688.91	24088.79
689.05	24421.15
689.18	23962.40
689.32	23309.40
689.46	23819.63
689.59	23433.44
689.73	24044.32
689.86	23667.50
690.00	23480.25
690.13	23578.56
690.27	22960.66
690.41	23192.37
690.54	22745.33
690.68	22852.99
690.81	22719.58
690.95	22728.94
691.08	22508.93
691.22	22506.59
691.35	22520.63
691.49	22321.69
691.62	22506.59
691.76	21776.34
691.89	22080.61
692.03	21991.67
692.16	21876.99
692.30	21596.12
692.43	21680.38
692.57	21556.33
692.70	21387.82
692.84	21165.46
692.97	21104.61
693.11	21151.42
693.24	20788.64
693.38	20919.71
693.51	20891.62
693.65	20730.12
693.78	20582.67
693.92	20695.02
694.05	20781.62
694.19	20648.21
694.32	20643.52
694.45	20563.95
694.59	20472.67
694.72	20638.84
694.86	19962.43
694.99	19901.58
695.13	19838.38
695.26	19578.58
695.39	19604.33
695.53	19566.88
695.66	19358.57
695.80	19126.86
695.93	19494.32
696.07	19178.35
696.20	18944.30
696.33	18841.31
696.47	18831.95
696.60	18719.60
696.73	18735.99
696.87	18640.03
697.00	18703.22
697.14	18539.38
697.27	18567.47
697.40	18471.51
697.54	18565.13
697.67	18541.72
697.80	18200.01
697.94	17942.55
698.07	18115.75
698.21	17865.31
698.34	17865.31
698.47	17797.43
698.61	17336.35
698.74	17640.62
698.87	17535.29
699.01	17371.46
699.14	17600.83
699.27	17310.60
699.40	17401.88
699.54	17212.30
699.67	17046.12
699.80	17095.27
699.94	16741.85
700.07	16856.54
700.20	16753.55
700.34	16554.61
700.47	16673.98
700.60	16872.92
700.73	16676.32
700.87	16226.93
701.00	16170.76
701.13	16184.80
701.26	16107.57
701.40	16023.31
701.53	15840.75
701.66	15796.28
701.79	15807.98
701.93	15569.24
702.06	15264.97
702.19	15583.29
702.32	15463.92
702.46	15606.69
702.59	15421.79
702.72	15679.25
702.85	15552.86
702.99	15372.64
703.12	15016.88
703.25	14857.72
703.38	14492.60
703.51	14958.36
703.65	14787.50
703.78	14759.42
703.91	14384.93
704.04	14298.33
704.17	14420.04
704.31	14331.10
704.44	14349.82
704.57	14347.48
704.70	14181.31
704.83	14406.00
704.96	14057.26
705.10	13994.06
705.23	13956.61
>>>>>End Processed Spectral Data<<<<<
