SpectraSuite Data File
++++++++++++++++++++++++++++++++++++
Date: Fri Oct 25 10:47:58 EDT 2013
User: price-jones
Dark Spectrum Present: No
Reference Spectrum Present: No
Number of Sampled Component Spectra: 1
Spectrometers: USB2+H05261
Integration Time (usec): 100000 (USB2+H05261)
Spectra Averaged: 1 (USB2+H05261)
Boxcar Smoothing: 0 (USB2+H05261)
Correct for Electrical Dark: No (USB2+H05261)
Strobe/Lamp Enabled: No (USB2+H05261)
Correct for Detector Non-linearity: No (USB2+H05261)
Correct for Stray Light: No (USB2+H05261)
Number of Pixels in Processed Spectrum: 2048
>>>>>Begin Processed Spectral Data<<<<<
365.73	131.07
365.92	131.07
366.12	131.07
366.32	0.00
366.52	74.90
366.72	142.77
366.91	30.43
367.11	65.54
367.31	74.90
367.51	67.88
367.70	0.00
367.90	53.83
368.10	84.26
368.30	88.94
368.49	37.45
368.69	23.41
368.89	114.69
369.09	0.00
369.28	105.32
369.48	60.85
369.68	14.04
369.87	110.01
370.07	131.07
370.27	168.52
370.47	184.90
370.66	379.17
370.86	409.59
371.06	430.66
371.25	498.53
371.45	407.25
371.65	496.19
371.84	493.85
372.04	418.96
372.24	395.55
372.44	472.79
372.63	458.74
372.83	500.87
373.03	461.09
373.22	578.11
373.42	484.49
373.62	449.38
373.81	547.69
374.01	582.79
374.21	524.28
374.40	547.69
374.60	585.13
374.79	496.19
374.99	507.90
375.19	528.96
375.38	564.07
375.58	559.39
375.78	624.92
375.97	594.50
376.17	660.03
376.37	472.79
376.56	650.67
376.76	631.94
376.95	564.07
377.15	561.73
377.35	531.30
377.54	634.29
377.74	613.22
377.93	655.35
378.13	634.29
378.33	592.16
378.52	575.77
378.72	608.54
378.91	704.50
379.11	627.26
379.31	510.24
379.50	535.98
379.70	681.10
379.89	655.35
380.09	617.90
380.28	613.22
380.48	648.33
380.68	641.31
380.87	557.05
381.07	641.31
381.26	723.23
381.46	648.33
381.65	732.59
381.85	655.35
382.04	674.07
382.24	603.86
382.43	664.71
382.63	631.94
382.83	648.33
383.02	669.39
383.22	720.88
383.41	718.54
383.61	718.54
383.80	765.36
384.00	779.40
384.19	741.95
384.39	741.95
384.58	760.67
384.78	751.31
384.97	763.01
385.17	758.33
385.36	763.01
385.56	798.12
385.75	758.33
385.95	795.78
386.14	826.21
386.34	774.72
386.53	842.59
386.72	716.20
386.92	837.91
387.11	823.87
387.31	772.38
387.50	835.57
387.70	741.95
387.89	795.78
388.09	858.98
388.28	854.30
388.48	826.21
388.67	884.72
388.86	791.10
389.06	896.43
389.25	929.19
389.45	875.36
389.64	819.19
389.84	887.06
390.03	856.64
390.22	863.66
390.42	938.55
390.61	952.60
390.81	919.83
391.00	961.96
391.19	964.30
391.39	929.19
391.58	968.98
391.78	896.43
391.97	1025.15
392.16	933.87
392.36	1022.81
392.55	1029.84
392.75	1027.50
392.94	898.77
393.13	990.05
393.33	954.94
393.52	1053.24
393.71	1008.77
393.91	985.37
394.10	1078.99
394.29	1041.54
394.49	1069.62
394.68	1090.69
394.88	1144.52
395.07	987.71
395.26	1109.41
395.46	1153.88
395.65	1041.54
395.84	1088.35
396.04	1135.16
396.23	1050.90
396.42	1062.60
396.62	1142.18
396.81	1135.16
397.00	1170.27
397.19	1200.69
397.39	1261.55
397.58	1240.48
397.77	1240.48
397.97	1259.21
398.16	1268.57
398.35	1275.59
398.55	1196.01
398.74	1224.10
398.93	1394.96
399.12	1310.70
399.32	1287.29
399.51	1394.96
399.70	1315.38
399.90	1369.21
400.09	1366.87
400.28	1371.55
400.47	1394.96
400.67	1437.09
400.86	1483.90
401.05	1448.79
401.24	1451.13
401.44	1448.79
401.63	1406.66
401.82	1439.43
402.01	1488.58
402.21	1455.81
402.40	1490.92
402.59	1509.65
402.78	1586.88
402.97	1481.56
403.17	1570.50
403.36	1582.20
403.55	1544.75
403.74	1694.55
403.93	1584.54
404.13	1673.48
404.32	1570.50
404.51	1631.35
404.70	1586.88
404.89	1589.22
405.09	1675.82
405.28	1732.00
405.47	1767.10
405.66	1696.89
405.85	1863.07
406.05	1614.97
406.24	1788.17
406.43	1792.85
406.62	1806.89
406.81	1879.45
407.00	1788.17
407.20	1717.95
407.39	1849.02
407.58	1870.09
407.77	1837.32
407.96	1898.17
408.15	1825.62
408.34	1823.28
408.54	1952.01
408.73	1942.64
408.92	2090.10
409.11	1994.14
409.30	2057.33
409.49	2073.71
409.68	2062.01
409.87	2078.40
410.07	1994.14
410.26	2069.03
410.45	2120.53
410.64	2071.37
410.83	2134.57
411.02	2179.04
411.21	2289.04
411.40	2352.24
411.59	2263.30
411.78	2354.58
411.98	2289.04
412.17	2326.49
412.36	2450.54
412.55	2359.26
412.74	2373.30
412.93	2289.04
413.12	2326.49
413.31	2544.16
413.50	2443.52
413.69	2464.58
413.88	2555.86
414.07	2525.44
414.26	2602.68
414.45	2504.37
414.64	2569.91
414.83	2607.36
415.02	2572.25
415.22	2740.77
415.41	2745.45
415.60	2504.37
415.79	2771.19
415.98	2806.30
416.17	2855.45
416.36	2890.56
416.55	2724.38
416.74	2972.48
416.93	2890.56
417.12	2885.88
417.31	2977.16
417.50	2871.84
417.69	3070.78
417.88	2932.69
418.07	2904.60
418.26	3054.40
418.45	3033.33
418.64	3232.28
418.83	3122.27
419.02	3131.64
419.21	3206.53
419.39	3169.09
419.58	3103.55
419.77	3021.63
419.96	3220.58
420.15	3272.07
420.34	3232.28
420.53	3272.07
420.72	3346.97
420.91	3375.05
421.10	3391.44
421.29	3389.10
421.48	3311.86
421.67	3346.97
421.86	3368.03
422.05	3447.61
422.24	3363.35
422.43	3379.73
422.61	3445.27
422.80	3485.06
422.99	3613.79
423.18	3513.14
423.37	3583.36
423.56	3431.23
423.75	3471.01
423.94	3445.27
424.13	3307.18
424.32	3368.03
424.50	3527.19
424.69	3606.77
424.88	3627.83
425.07	3463.99
425.26	3557.61
425.45	3648.90
425.64	3487.40
425.83	3510.80
426.01	3513.14
426.20	3510.80
426.39	3562.30
426.58	3517.83
426.77	3566.98
426.96	3681.66
427.15	3583.36
427.33	3784.65
427.52	3662.94
427.71	3681.66
427.90	3662.94
428.09	3786.99
428.28	3829.12
428.46	3854.86
428.65	3786.99
428.84	3836.14
429.03	3798.69
429.22	3672.30
429.40	3639.53
429.59	3840.82
429.78	3653.58
429.97	3595.06
430.16	3641.87
430.34	3765.92
430.53	3887.63
430.72	3768.26
430.91	3969.55
431.10	3950.82
431.28	4053.81
431.47	4053.81
431.66	4264.46
431.85	4109.98
432.03	4065.51
432.22	4063.17
432.41	4021.04
432.60	4173.18
432.79	4308.93
432.97	4210.62
433.16	4119.34
433.35	4107.64
433.54	4100.62
433.72	4215.30
433.91	4159.13
434.10	4306.59
434.28	4189.56
434.47	4311.27
434.66	4341.69
434.85	4315.95
435.03	4353.40
435.22	4447.02
435.41	4699.80
435.59	4524.26
435.78	4592.13
435.97	4528.94
436.16	4573.41
436.34	4580.43
436.53	4535.96
436.72	4634.26
436.90	4552.34
437.09	4535.96
437.28	4489.15
437.46	4437.66
437.65	4430.63
437.84	4720.86
438.02	4683.41
438.21	4671.71
438.40	4774.69
438.58	4793.42
438.77	4887.04
438.96	4936.19
439.14	4884.70
439.33	5004.07
439.52	4877.68
439.70	4966.62
439.89	4997.04
440.08	5076.62
440.26	5078.96
440.45	5240.46
440.63	5151.52
440.82	5226.42
441.01	5291.95
441.19	5263.86
441.38	5427.70
441.57	5364.51
441.75	5493.24
441.94	5385.57
442.12	5607.92
442.31	5633.67
442.50	5526.00
442.68	5682.82
442.87	5614.95
443.05	5692.18
443.24	5696.86
443.43	5696.86
443.61	5586.86
443.80	5818.57
443.98	5694.52
444.17	5563.45
444.35	5905.17
444.54	5949.64
444.73	5877.09
444.91	5706.23
445.10	5760.06
445.28	5650.05
445.47	5809.21
445.65	5891.13
445.84	5851.34
446.02	5884.11
446.21	5785.80
446.39	5881.77
446.58	6010.50
446.77	6085.39
446.95	5809.21
447.14	5895.81
447.32	6019.86
447.51	5893.47
447.69	5692.18
447.88	5891.13
448.06	5856.02
448.25	5863.04
448.43	5949.64
448.62	5856.02
448.80	5863.04
448.99	5867.72
449.17	6052.63
449.36	5963.68
449.54	6225.82
449.73	6279.66
449.91	6232.85
450.10	6422.43
450.28	6399.02
450.46	6179.01
450.65	6267.95
450.83	6356.90
451.02	6279.66
451.20	6370.94
451.39	6310.08
451.57	6527.75
451.76	6312.42
451.94	6389.66
452.13	6473.92
452.31	6300.72
452.49	6408.39
452.68	6434.13
452.86	6324.13
453.05	6586.27
453.23	6565.20
453.42	6487.96
453.60	6480.94
453.78	6593.29
453.97	6511.37
454.15	6607.33
454.34	6616.69
454.52	6665.85
454.70	6839.05
454.89	6658.82
455.07	6787.55
455.26	6864.79
455.44	7068.42
455.62	6867.13
455.81	6869.47
455.99	6944.37
456.17	6932.67
456.36	6932.67
456.54	7131.61
456.73	7094.16
456.91	7199.49
457.09	6958.41
457.28	7248.64
457.46	7307.15
457.64	7262.68
457.83	7119.91
458.01	7176.08
458.19	7300.13
458.38	7169.06
458.56	7360.98
458.74	7485.03
458.93	7145.66
459.11	7468.65
459.29	7365.67
459.48	7442.90
459.66	7389.07
459.84	7452.27
460.03	7768.24
460.21	7414.82
460.39	7428.86
460.57	7274.38
460.76	7686.32
460.94	7527.16
461.12	7758.88
461.31	7721.43
461.49	7709.72
461.67	7552.91
461.85	7894.63
462.04	7772.92
462.22	8278.47
462.40	8095.91
462.59	7840.79
462.77	8070.17
462.95	7911.01
463.13	7960.16
463.32	7995.27
463.50	7929.74
463.68	7929.74
463.86	8276.13
464.05	7981.23
464.23	7974.21
464.41	8112.30
464.59	7772.92
464.78	8283.16
464.96	8234.00
465.14	8198.90
465.32	8217.62
465.50	8278.47
465.69	8472.74
465.87	8093.57
466.05	8404.86
466.23	8362.73
466.41	8461.04
466.60	8634.24
466.78	8306.56
466.96	8121.66
467.14	8365.07
467.32	8505.51
467.51	8465.72
467.69	8430.61
467.87	8645.94
468.05	8416.57
468.23	8484.44
468.41	8400.18
468.60	8390.82
468.78	8519.55
468.96	8741.90
469.14	8451.67
469.32	8762.97
469.50	8482.10
469.69	8732.54
469.87	8685.73
470.05	8842.54
470.23	8901.06
470.41	8819.14
470.59	8997.02
470.77	8798.07
470.95	8908.08
471.14	9156.18
471.32	9043.83
471.50	9273.20
471.68	9191.28
471.86	9301.29
472.04	9472.15
472.22	9366.82
472.40	9238.09
472.58	9547.05
472.77	9488.53
472.95	9549.39
473.13	9769.40
473.31	9469.81
473.49	9472.15
473.67	9558.75
473.85	9640.67
474.03	9692.16
474.21	9657.05
474.39	9879.40
474.57	9921.53
474.75	10181.33
474.93	10080.69
475.12	9809.19
475.30	10214.10
475.48	10125.16
475.66	10153.24
475.84	10354.53
476.02	10249.21
476.20	10258.57
476.38	10607.31
476.56	10714.97
476.74	10565.18
476.92	10621.35
477.10	10757.10
477.28	10850.72
477.46	10787.53
477.64	11028.60
477.82	11094.14
478.00	11201.80
478.18	11452.24
478.36	11154.99
478.54	11494.37
478.72	11339.90
478.90	11730.76
479.08	11695.66
479.26	11651.19
479.44	12009.29
479.62	11747.15
479.80	12028.01
479.98	12156.74
480.16	12367.39
480.34	12351.01
480.52	12444.63
480.70	12173.13
480.88	12173.13
481.06	12318.24
481.24	12655.28
481.41	12870.61
481.59	12868.27
481.77	12912.74
481.95	12854.22
482.13	13085.94
482.31	13018.06
482.49	13465.10
482.67	13514.25
482.85	13387.86
483.03	13635.96
483.21	13893.42
483.39	13837.25
483.57	13888.74
483.74	13935.55
483.92	14118.11
484.10	14026.83
484.28	14586.22
484.46	14689.20
484.64	14789.85
484.82	14511.32
485.00	14703.25
485.18	15108.16
485.35	15164.33
485.53	15126.88
485.71	14972.41
485.89	15344.55
486.07	15323.49
486.25	15580.95
486.43	15431.15
486.61	15812.66
486.78	15662.86
486.96	15866.49
487.14	16212.89
487.32	16222.25
487.50	16341.62
487.68	16524.18
487.85	16826.11
488.03	16837.81
488.21	16919.73
488.39	17015.69
488.57	16919.73
488.75	17233.36
488.92	17277.83
489.10	17666.36
489.28	17565.72
489.46	17921.48
489.64	17855.95
489.81	18185.96
489.99	18394.27
490.17	18216.39
490.35	18469.17
490.53	18553.43
490.70	18586.19
490.88	18333.42
491.06	18967.70
491.24	18888.12
491.41	19108.13
491.59	19084.73
491.77	18909.19
491.95	19321.12
492.13	19545.81
492.30	19719.01
492.48	19611.35
492.66	19742.42
492.84	19854.76
493.01	20231.59
493.19	20030.30
493.37	20290.10
493.54	20397.77
493.72	20479.69
493.90	20631.82
494.08	20908.01
494.25	21125.68
494.43	21223.98
494.61	21069.50
494.79	21432.29
494.96	21233.34
495.14	21319.94
495.32	21624.21
495.49	21689.74
495.67	21675.70
495.85	21776.34
496.02	22015.08
496.20	22331.05
496.38	22272.54
496.55	22307.65
496.73	23061.30
496.91	22216.36
497.09	22883.42
497.26	22778.09
497.44	22548.72
497.62	22927.89
497.79	23480.25
497.97	23159.60
498.14	23590.26
498.32	23367.91
498.50	23735.37
498.67	23819.63
498.85	23592.60
499.03	23817.29
499.20	23887.51
499.38	23847.72
499.56	24247.95
499.73	24254.97
499.91	24203.48
500.08	24837.76
500.26	24671.59
500.44	24339.23
500.61	24439.87
500.79	24514.77
500.97	24812.02
501.14	24833.08
501.32	24961.81
501.49	24889.26
501.67	25186.50
501.84	25001.60
502.02	25088.20
502.20	25701.42
502.37	25317.57
502.55	25645.25
502.72	25862.92
502.90	25635.89
503.07	25635.89
503.25	25624.18
503.43	25919.09
503.60	25935.48
503.78	26274.85
503.95	26115.70
504.13	26183.57
504.30	26326.35
504.48	26398.90
504.65	26780.41
504.83	26621.25
505.01	27229.79
505.18	26925.52
505.36	26859.99
505.53	26696.15
505.71	27316.39
505.88	27503.64
506.06	26981.70
506.23	27056.59
506.41	27026.17
506.58	27627.68
506.76	27491.93
506.93	27819.61
507.11	27934.29
507.28	27648.75
507.46	27672.15
507.63	28112.17
507.81	27707.26
507.98	28030.26
508.16	28011.53
508.33	27962.38
508.50	28292.40
508.68	28407.08
508.85	28734.76
509.03	28327.50
509.20	28329.84
509.38	28950.09
509.55	28854.12
509.73	28840.08
509.90	28945.41
510.08	28753.48
510.25	29130.31
510.42	29600.76
510.60	29172.44
510.77	29495.43
510.95	29759.91
511.12	29102.22
511.30	29422.87
511.47	29865.24
511.64	30167.16
511.82	29970.56
511.99	29837.15
512.17	29989.28
512.34	30190.57
512.51	30424.62
512.69	30382.49
512.86	30291.21
513.04	30333.34
513.21	30099.29
513.38	30181.21
513.56	30565.06
513.73	30707.83
513.90	30471.43
514.08	30665.70
514.25	30668.04
514.43	30803.79
514.60	30834.22
514.77	30967.63
514.95	31262.54
515.12	30848.26
515.29	31143.17
515.47	31585.53
515.64	31777.45
515.81	31676.81
515.99	31718.94
516.16	31405.31
516.33	31732.98
516.51	31943.63
516.68	31321.05
516.85	31400.63
517.03	31690.85
517.20	31871.07
517.37	32240.88
517.54	32254.92
517.72	32109.81
517.89	32385.99
518.06	32091.09
518.24	31796.18
518.41	32320.46
518.58	32219.81
518.75	32116.83
518.93	32975.81
519.10	32594.30
519.27	32790.91
519.45	32629.41
519.62	32795.59
519.79	32807.29
519.96	33460.30
520.14	33439.23
520.31	32627.07
520.48	33369.02
520.65	32954.74
520.83	34141.39
521.00	33324.55
521.17	33256.67
521.34	33614.77
521.52	34094.58
521.69	33577.33
521.86	33727.12
522.03	33954.15
522.20	33977.56
522.38	33844.15
522.55	34000.96
522.72	33923.72
522.89	34361.40
523.07	34153.10
523.24	34288.85
523.41	34251.40
523.58	34419.92
523.75	34658.65
523.92	34579.07
524.10	34618.86
524.27	35035.48
524.44	34785.04
524.61	34871.64
524.78	35002.71
524.96	34637.59
525.13	34981.65
525.30	35093.99
525.47	35583.16
525.64	35096.33
525.81	35222.72
525.98	35438.05
526.16	35117.40
526.33	34967.60
526.50	35737.64
526.67	35433.37
526.84	35229.74
527.01	35622.95
527.18	35311.66
527.36	35494.22
527.53	35931.90
527.70	36011.48
527.87	36339.16
528.04	35793.81
528.21	36491.29
528.38	35934.24
528.55	36247.88
528.72	36025.53
528.89	36254.90
529.07	36390.65
529.24	36299.37
529.41	36409.37
529.58	36250.22
529.75	35845.30
529.92	36795.56
530.09	36863.44
530.26	36498.31
530.43	36821.31
530.60	36512.36
530.77	37074.09
530.94	36861.10
531.11	36746.41
531.28	37111.53
531.46	37041.32
531.63	37273.03
531.80	37471.98
531.97	37200.47
532.14	37205.16
532.31	36748.75
532.48	37083.45
532.65	37577.30
532.82	37298.78
532.99	37319.84
533.16	37408.78
533.33	37481.34
533.50	38225.63
533.67	37652.20
533.84	37766.88
534.01	37708.37
534.18	37921.36
534.35	38092.22
534.52	37785.61
534.69	37956.47
534.86	37954.13
535.03	38096.90
535.20	38363.72
535.37	38548.62
535.54	38143.71
535.71	38117.96
535.88	38017.32
536.05	38710.12
536.22	38485.43
536.38	38546.28
536.55	38438.62
536.72	38588.41
536.89	38211.59
537.06	38773.31
537.23	38724.16
537.40	38707.78
537.57	38525.22
537.74	38700.76
537.91	39105.67
538.08	39051.84
538.25	38778.00
538.42	39042.48
538.59	38911.41
538.75	38623.52
538.92	38918.43
539.09	38995.67
539.26	38962.90
539.43	39290.57
539.60	38913.75
539.77	39133.76
539.94	39147.80
540.11	39112.69
540.28	39295.25
540.44	39234.40
540.61	39278.87
540.78	39056.52
540.95	39199.29
541.12	39332.70
541.29	39023.75
541.46	39543.35
541.62	39529.31
541.79	39878.05
541.96	39150.14
542.13	39807.83
542.30	39833.58
542.47	40025.50
542.63	39423.98
542.80	39852.30
542.97	40683.19
543.14	40481.91
543.31	40385.94
543.48	40390.62
543.64	40402.33
543.81	40732.34
543.98	40706.60
544.15	40264.24
544.32	41165.34
544.48	40994.48
544.65	40547.44
544.82	40884.48
544.99	40072.31
545.16	40844.69
545.32	40664.47
545.49	40774.47
545.66	41249.60
545.83	40996.82
546.00	41312.80
546.16	40947.67
546.33	40781.49
546.50	40561.48
546.67	40568.51
546.83	40783.83
547.00	41244.92
547.17	41041.29
547.34	41319.82
547.50	41038.95
547.67	41254.28
547.84	41303.43
548.00	41092.79
548.17	41474.29
548.34	41233.22
548.51	41626.43
548.67	41951.76
548.84	41872.18
549.01	41558.55
549.18	41181.73
549.34	41607.70
549.51	41792.61
549.68	41708.35
549.84	42134.32
550.01	41900.27
550.18	41799.63
550.34	41991.55
550.51	41698.98
550.68	41958.78
550.84	41500.04
551.01	41698.98
551.18	41624.09
551.34	41977.51
551.51	41883.89
551.68	42000.91
551.84	42054.75
552.01	42260.71
552.18	42316.89
552.34	41993.89
552.51	42014.96
552.68	42351.99
552.84	42293.48
553.01	42576.69
553.18	42141.35
553.34	42073.47
553.51	42139.00
553.67	42326.25
553.84	42780.31
554.01	42536.90
554.17	42541.58
554.34	42932.45
554.51	42412.85
554.67	42586.05
554.84	42693.71
555.00	42763.93
555.17	42906.70
555.33	42869.25
555.50	42827.12
555.67	42410.51
555.83	42909.04
556.00	43072.88
556.16	42710.10
556.33	42731.16
556.50	43274.16
556.66	43283.53
556.83	42813.08
556.99	43243.74
557.16	43182.88
557.32	42522.85
557.49	43363.11
557.65	42616.47
557.82	43150.12
557.98	43267.14
558.15	43295.23
558.32	43079.90
558.48	43311.61
558.65	43351.40
558.81	43133.73
558.98	43243.74
559.14	43021.39
559.31	43597.16
559.47	43695.46
559.64	43421.62
559.80	43732.91
559.97	43562.05
560.13	43302.25
560.30	43175.86
560.46	43395.87
560.63	43707.16
560.79	43229.69
560.96	43672.06
561.12	44081.65
561.29	43590.14
561.45	43377.15
561.61	43861.64
561.78	43409.92
561.94	43981.01
562.11	43360.76
562.27	43592.48
562.44	43311.61
562.60	43723.55
562.77	43859.30
562.93	43700.14
563.10	43704.82
563.26	43430.98
563.42	43604.18
563.59	43789.08
563.75	43910.79
563.92	43669.72
564.08	43887.39
564.24	44247.83
564.41	44327.41
564.57	43683.76
564.74	43973.98
564.90	43871.00
565.07	43716.53
565.23	43428.64
565.39	43992.71
565.56	43917.81
565.72	44240.81
565.88	43590.14
566.05	43821.85
566.21	43749.29
566.38	44332.09
566.54	43920.15
566.70	44367.20
566.87	44137.82
567.03	43969.30
567.19	44788.49
567.36	44603.59
567.52	43859.30
567.68	44011.43
567.85	43868.66
568.01	44259.53
568.17	44266.55
568.34	44488.90
568.50	44065.27
568.66	43753.97
568.83	44329.75
568.99	43838.23
569.15	44186.97
569.32	44390.60
569.48	43466.09
569.64	44243.15
569.81	43988.03
569.97	44114.42
570.13	44051.22
570.30	44210.38
570.46	44149.53
570.62	43988.03
570.78	44203.36
570.95	43564.39
571.11	43995.05
571.27	44486.56
571.43	44509.97
571.60	43936.54
571.76	44006.75
571.92	44463.16
572.09	44074.63
572.25	44318.04
572.41	44215.06
572.57	44652.74
572.74	45055.31
572.90	44449.11
573.06	44212.72
573.22	44411.67
573.38	44624.65
573.55	44369.54
573.71	44800.19
573.87	44383.58
574.03	44210.38
574.20	44470.18
574.36	44364.85
574.52	43838.23
574.68	44428.05
574.84	44177.61
575.01	44210.38
575.17	44788.49
575.33	44280.60
575.49	44083.99
575.65	44233.78
575.82	44318.04
575.98	44641.04
576.14	44858.71
576.30	44381.24
576.46	44634.02
576.62	44299.32
576.79	44156.55
576.95	44072.29
577.11	44388.26
577.27	44687.85
577.43	44428.05
577.59	44254.85
577.75	44673.81
577.92	44556.78
578.08	43735.25
578.24	44399.96
578.40	44577.84
578.56	44451.45
578.72	44271.23
578.88	44694.87
579.04	44509.97
579.21	44240.81
579.37	44247.83
579.53	44533.37
579.69	44240.81
579.85	44891.48
580.01	44484.22
580.17	44409.32
580.33	44825.94
580.49	45034.25
580.65	44552.10
580.82	44545.08
580.98	44329.75
581.14	44233.78
581.30	44680.83
581.46	44177.61
581.62	44959.35
581.78	44683.17
581.94	45205.11
582.10	44528.69
582.26	44493.58
582.42	44622.31
582.58	44360.17
582.74	44233.78
582.90	44325.07
583.06	44460.82
583.22	44498.26
583.38	44718.28
583.54	44563.80
583.70	44643.38
583.86	44018.46
584.02	43952.92
584.18	44552.10
584.34	44519.33
584.50	44603.59
584.66	44540.39
584.82	44385.92
584.98	44701.89
585.14	44744.02
585.30	44793.17
585.46	44617.63
585.62	44364.85
585.78	44524.01
585.94	44236.12
586.10	44364.85
586.26	44676.15
586.42	44973.39
586.58	44414.01
586.74	44671.46
586.90	44638.70
587.06	44311.02
587.22	45181.70
587.38	44280.60
587.54	44851.69
587.70	45158.30
587.86	44502.95
588.02	44942.97
588.18	45123.19
588.34	44531.03
588.49	44421.03
588.65	44624.65
588.81	44442.09
588.97	44446.77
589.13	44493.58
589.29	44816.58
589.45	44949.99
589.61	45081.06
589.77	45322.13
589.93	44933.60
590.08	44818.92
590.24	44870.41
590.40	44601.25
590.56	44767.43
590.72	44765.09
590.88	44610.61
591.04	44467.84
591.20	45064.67
591.35	45525.76
591.51	45635.77
591.67	44861.05
591.83	45193.40
591.99	44680.83
592.15	44821.26
592.31	44992.12
592.46	45221.49
592.62	45064.67
592.78	44987.44
592.94	44999.14
593.10	44870.41
593.26	44650.40
593.41	44837.64
593.57	45034.25
593.73	45095.10
593.89	44851.69
594.05	44797.85
594.20	45546.82
594.36	45247.24
594.52	45099.78
594.68	44982.76
594.84	45092.76
594.99	45595.98
595.15	44994.46
595.31	45188.72
595.47	45324.47
595.62	44985.10
595.78	45010.84
595.94	45064.67
596.10	44741.68
596.25	44673.81
596.41	45219.15
596.57	44772.11
596.73	45198.09
596.88	44744.02
597.04	44830.62
597.20	45247.24
597.36	45001.48
597.51	45415.76
597.67	45144.25
597.83	45106.80
597.99	45373.63
598.14	45191.06
598.30	45172.34
598.46	45062.33
598.61	45102.12
598.77	44821.26
598.93	45074.04
599.09	45326.81
599.24	45701.30
599.40	45226.17
599.56	45448.52
599.71	45265.96
599.87	44966.37
600.03	44563.80
600.18	45436.82
600.34	45352.56
600.50	45076.38
600.65	45144.25
600.81	45350.22
600.97	45544.48
601.12	45413.41
601.28	45048.29
601.44	45022.54
601.59	45284.68
601.75	44942.97
601.91	45106.80
602.06	44980.42
602.22	44891.48
602.37	44964.03
602.53	44987.44
602.69	45759.81
602.84	45361.92
603.00	45184.04
603.16	44889.13
603.31	45155.96
603.47	44985.10
603.62	44875.09
603.78	44772.11
603.94	45099.78
604.09	45015.52
604.25	44905.52
604.40	45160.64
604.56	44928.92
604.71	45162.98
604.87	45085.74
605.03	45010.84
605.18	44641.04
605.34	44797.85
605.49	44713.59
605.65	45031.91
605.80	44891.48
605.96	44715.93
606.12	45443.84
606.27	45251.92
606.43	44973.39
606.58	44949.99
606.74	44699.55
606.89	44942.97
607.05	45146.59
607.20	44641.04
607.36	45123.19
607.51	45315.11
607.67	45457.88
607.82	44727.64
607.98	44781.47
608.13	44598.91
608.29	44755.72
608.44	44353.15
608.60	44484.22
608.75	44491.24
608.91	44435.07
609.06	44758.06
609.22	45067.02
609.37	44346.13
609.53	44907.86
609.68	44582.52
609.84	44500.61
609.99	44477.20
610.15	44737.00
610.30	44949.99
610.46	44519.33
610.61	44149.53
610.76	44669.12
610.92	44261.87
611.07	44388.26
611.23	44538.05
611.38	45375.97
611.54	44278.25
611.69	44610.61
611.84	43807.81
612.00	44311.02
612.15	44273.57
612.31	44376.56
612.46	43957.60
612.62	44694.87
612.77	44130.80
612.92	44582.52
613.08	44102.71
613.23	43978.67
613.39	44212.72
613.54	43931.86
613.69	44013.77
613.85	44493.58
614.00	44549.76
614.15	44727.64
614.31	43988.03
614.46	44264.21
614.62	44170.59
614.77	44100.37
614.92	44292.30
615.08	43538.65
615.23	43798.44
615.38	43875.68
615.54	43817.17
615.69	43758.66
615.84	43393.53
616.00	44067.61
616.15	44182.29
616.30	44128.46
616.46	43325.66
616.61	43564.39
616.76	43435.66
616.92	43552.69
617.07	43562.05
617.22	43676.74
617.37	43962.28
617.53	43615.88
617.68	43632.27
617.83	44032.50
617.99	43917.81
618.14	44009.09
618.29	44002.07
618.45	43311.61
618.60	43650.99
618.75	43927.17
618.90	43285.87
619.06	43517.58
619.21	43578.43
619.36	43826.53
619.51	43370.13
619.67	43559.71
619.82	43625.25
619.97	43473.11
620.12	42974.58
620.28	42761.59
620.43	43522.26
620.58	43136.07
620.73	43302.25
620.89	43370.13
621.04	43318.64
621.19	43171.18
621.34	43112.67
621.49	42918.40
621.65	42827.12
621.80	42866.91
621.95	42717.12
622.10	42607.11
622.25	42953.51
622.41	42951.17
622.56	43136.07
622.71	43615.88
622.86	42836.48
623.01	43033.09
623.16	43526.94
623.32	42838.83
623.47	43400.55
623.62	43079.90
623.77	42801.38
623.92	42506.47
624.07	42471.36
624.23	42667.97
624.38	42693.71
624.53	42600.09
624.68	42319.23
624.83	42651.58
624.98	42845.85
625.13	42483.06
625.29	42770.95
625.44	42436.25
625.59	42459.66
625.74	42197.52
625.89	41982.19
626.04	42167.09
626.19	42529.87
626.34	42197.52
626.49	42029.00
626.65	41989.21
626.80	42335.61
626.95	42038.36
627.10	42110.92
627.25	42256.03
627.40	42012.62
627.55	41797.29
627.70	41411.10
627.85	41954.10
628.00	42204.54
628.15	42682.01
628.30	42031.34
628.45	42185.82
628.60	42139.00
628.76	41970.49
628.91	42075.81
629.06	41991.55
629.21	41811.33
629.36	41741.11
629.51	41570.25
629.66	41537.49
629.81	41638.13
629.96	41572.60
630.11	41680.26
630.26	41926.02
630.41	41647.49
630.56	41368.97
630.71	41797.29
630.86	41495.36
631.01	41717.71
631.16	41507.06
631.31	41055.34
631.46	40903.20
631.61	41701.32
631.76	41181.73
631.91	41493.02
632.06	41280.03
632.21	41116.19
632.36	41558.55
632.51	41490.68
632.66	41523.44
632.81	40825.96
632.96	41102.15
633.10	41160.66
633.25	40722.98
633.40	41001.50
633.55	41413.44
633.70	41078.74
633.85	41071.72
634.00	41010.87
634.15	40201.04
634.30	40631.70
634.45	40751.07
634.60	40718.30
634.75	40762.77
634.90	40650.42
635.05	40844.69
635.19	40818.94
635.34	40968.74
635.49	40566.16
635.64	40390.62
635.79	40390.62
635.94	40608.29
636.09	40563.82
636.24	40804.90
636.39	40437.44
636.53	40315.73
636.68	40254.87
636.83	40783.83
636.98	40509.99
637.13	40521.69
637.28	40650.42
637.43	40339.13
637.57	40645.74
637.72	40634.04
637.87	40652.76
638.02	39948.26
638.17	40620.00
638.32	40170.61
638.46	40575.53
638.61	40435.10
638.76	40109.76
638.91	40158.91
639.06	39608.89
639.20	40301.68
639.35	40383.60
639.50	39847.62
639.65	40119.12
639.80	39978.69
639.94	40233.81
640.09	40297.00
640.24	40362.54
640.39	40046.57
640.54	39721.23
640.68	39592.50
640.83	39995.07
640.98	39562.08
641.13	39395.90
641.27	39798.47
641.42	39370.15
641.57	40196.36
641.72	39550.37
641.86	39384.19
642.01	39276.53
642.16	39629.95
642.31	38808.42
642.45	39702.51
642.60	39639.31
642.75	39173.55
642.90	39086.95
643.04	39597.18
643.19	39161.84
643.34	38909.07
643.48	39124.40
643.63	39187.59
643.78	39122.05
643.93	39100.99
644.07	39152.48
644.22	39789.11
644.37	38925.45
644.51	38981.62
644.66	38897.36
644.81	39311.64
644.95	39365.47
645.10	38988.64
645.25	39131.42
645.39	38983.96
645.54	39257.81
645.69	38789.70
645.83	38672.67
645.98	39157.16
646.13	39000.35
646.27	38972.26
646.42	38719.48
646.57	39175.89
646.71	38724.16
646.86	39068.22
647.00	39033.11
647.15	38267.76
647.30	39061.20
647.44	38700.76
647.59	38639.90
647.74	38536.92
647.88	38263.08
648.03	38803.74
648.17	38642.24
648.32	38237.33
648.47	38522.88
648.61	38569.69
648.76	38850.55
648.90	38677.35
649.05	38602.46
649.20	38462.02
649.34	38569.69
649.49	38401.17
649.63	38314.57
649.78	38300.53
649.92	38078.18
650.07	38672.67
650.21	37717.73
650.36	38401.17
650.51	37897.95
650.65	38377.76
650.80	38593.09
650.94	38670.33
651.09	37797.31
651.23	38270.10
651.38	38141.37
651.52	37848.80
651.67	38436.28
651.81	38134.35
651.96	37862.85
652.10	37593.68
652.25	37762.20
652.39	38206.90
652.54	37853.48
652.68	37806.67
652.83	37656.88
652.97	38019.66
653.12	37860.51
653.26	37336.23
653.41	37591.34
653.55	37514.11
653.70	37209.84
653.84	37860.51
653.99	37610.07
654.13	37523.47
654.27	37652.20
654.42	37696.67
654.56	37649.86
654.71	38007.96
654.85	37649.86
655.00	37610.07
655.14	37041.32
655.29	36886.84
655.43	37411.12
655.57	37127.92
655.72	37139.62
655.86	37116.22
656.01	37137.28
656.15	36781.52
656.30	37570.28
656.44	36847.05
656.58	36954.72
656.73	37301.12
656.87	36741.73
657.01	37008.55
657.16	37020.25
657.30	36924.29
657.45	36261.92
657.59	36861.10
657.73	36854.08
657.88	36910.25
658.02	36158.94
658.16	36760.45
658.31	37153.66
658.45	37202.82
658.60	36493.63
658.74	36959.40
658.88	36746.41
659.03	36299.37
659.17	35892.12
659.31	36624.70
659.46	36311.07
659.60	36507.68
659.74	35983.40
659.89	36161.28
660.03	36032.55
660.17	36304.05
660.32	36512.36
660.46	36804.92
660.60	36137.87
660.74	36355.54
660.89	36547.47
661.03	35831.26
661.17	35728.28
661.32	35779.77
661.46	35711.89
661.60	35667.42
661.74	35487.20
661.89	35468.48
662.03	35779.77
662.17	35335.07
662.31	35161.87
662.46	35777.43
662.60	35847.64
662.74	35601.89
662.88	35054.20
663.03	35086.97
663.17	35435.71
663.31	35157.19
663.45	35409.96
663.60	35721.26
663.74	35077.61
663.88	34862.28
664.02	34850.58
664.17	34979.31
664.31	34672.70
664.45	34220.97
664.59	34717.17
664.73	35112.72
664.88	34763.98
665.02	34675.04
665.16	35309.32
665.30	34216.29
665.44	34696.10
665.59	34429.28
665.73	34576.73
665.87	34590.78
666.01	34281.83
666.15	33991.60
666.29	33972.88
666.44	34529.92
666.58	34244.38
666.72	34223.31
666.86	33914.36
667.00	34499.50
667.14	34134.37
667.28	34321.62
667.43	33544.56
667.57	33933.09
667.71	33752.87
667.85	33745.84
667.99	33156.03
668.13	33947.13
668.27	33582.01
668.41	33553.92
668.56	33322.21
668.70	33603.07
668.84	33518.81
668.98	33127.94
669.12	33212.20
669.26	33399.44
669.40	33167.73
669.54	33549.24
669.68	33024.96
669.82	32851.76
669.96	32683.24
670.10	32734.73
670.25	33008.58
670.39	33069.43
670.53	32917.29
670.67	32706.65
670.81	32940.70
670.95	32622.39
671.09	32620.05
671.23	32350.88
671.37	32671.54
671.51	32126.19
671.65	32116.83
671.79	31597.23
671.93	32318.12
672.07	32393.01
672.21	32107.47
672.35	31721.28
672.49	31892.14
672.63	31924.91
672.77	32121.51
672.91	31920.23
673.05	31496.59
673.19	31424.03
673.33	31304.67
673.47	31826.60
673.61	31297.64
673.75	31119.76
673.89	30600.16
674.03	30864.64
674.17	30749.96
674.31	30705.49
674.45	30967.63
674.59	30703.15
674.73	30965.29
674.87	30808.47
675.01	30902.09
675.15	30436.33
675.29	30595.48
675.43	30614.21
675.56	30403.56
675.70	30553.35
675.84	30054.82
675.98	29790.34
676.12	30185.89
676.26	29977.58
676.40	30153.12
676.54	29944.81
676.68	29881.62
676.82	29701.40
676.96	29677.99
677.10	29692.04
677.23	29507.13
677.37	29254.36
677.51	29406.49
677.65	29324.57
677.79	29322.23
677.93	29041.37
678.07	28863.49
678.21	28371.97
678.34	28481.98
678.48	28610.71
678.62	28563.90
678.76	28437.51
678.90	28027.92
679.04	28336.87
679.18	28353.25
679.31	27648.75
679.45	28308.78
679.59	27623.00
679.73	27852.38
679.87	28247.93
680.00	27974.08
680.14	27667.47
680.28	27613.64
680.42	27281.28
680.56	27580.87
680.70	27199.37
680.83	27260.22
680.97	26705.51
681.11	26780.41
681.25	26817.86
681.39	26913.82
681.52	27281.28
681.66	27218.09
681.80	26881.05
681.94	26623.59
682.07	26462.10
682.21	26380.18
682.35	26321.66
682.49	26611.89
682.62	26419.97
682.76	26244.43
682.90	25797.38
683.04	26106.34
683.17	25825.47
683.31	25486.09
683.45	25788.02
683.59	25280.13
683.72	25291.83
683.86	25472.05
684.00	25369.07
684.13	25441.62
684.27	25404.17
684.41	24968.84
684.55	24889.26
684.68	24690.31
684.82	24844.79
684.96	24570.94
685.09	24634.14
685.23	24283.06
685.37	24823.72
685.50	24507.75
685.64	24210.50
685.78	24254.97
685.91	24060.71
686.05	24079.43
686.19	24109.86
686.32	23838.36
686.46	23463.87
686.60	23740.05
686.73	23632.39
686.87	23597.28
687.01	23403.02
687.14	23105.77
687.28	22616.60
687.42	23077.68
687.55	22719.58
687.69	22808.52
687.82	22754.69
687.96	22923.21
688.10	22574.47
688.23	22352.12
688.37	22696.17
688.50	22410.63
688.64	22256.15
688.78	22246.79
688.91	22024.44
689.05	21965.93
689.18	22043.17
689.32	21832.52
689.46	22017.42
689.59	21949.54
689.73	22111.04
689.86	21598.46
690.00	21549.31
690.13	21649.96
690.27	21645.27
690.41	21626.55
690.54	21146.74
690.68	21301.22
690.81	21259.09
690.95	21022.69
691.08	20879.92
691.22	20697.36
691.35	21064.82
691.49	20947.79
691.62	20893.96
691.76	21085.89
691.89	20629.48
692.03	20416.49
692.16	20711.40
692.30	20489.05
692.43	20290.10
692.57	20343.94
692.70	19810.29
692.84	19913.28
692.97	20018.60
693.11	19730.72
693.24	19571.56
693.38	19798.59
693.51	19484.96
693.65	19459.21
693.78	19428.79
693.92	19269.63
694.05	19227.50
694.19	19229.84
694.32	19063.66
694.45	19157.28
694.59	19138.56
694.72	18853.02
694.86	18743.01
694.99	18429.38
695.13	18527.68
695.26	18403.63
695.39	18284.26
695.53	18611.94
695.66	18370.86
695.80	18150.85
695.93	18022.12
696.07	18160.22
696.20	18384.91
696.33	17771.69
696.47	18490.23
696.60	17848.93
696.73	17823.18
696.87	17757.64
697.00	17591.47
697.14	17675.73
697.27	17664.02
697.40	17406.56
697.54	17376.14
697.67	17160.81
697.80	17420.61
697.94	17043.78
698.07	17083.57
698.21	17165.49
698.34	16940.80
698.47	17006.33
698.61	16671.64
698.74	16521.84
698.87	16699.72
699.01	16346.30
699.14	16603.76
699.27	16500.78
699.40	16215.23
699.54	16161.40
699.67	16198.85
699.80	16287.79
699.94	15969.48
700.07	16180.12
700.20	15693.29
700.34	15634.78
700.47	15693.29
700.60	15719.04
700.73	15903.94
700.87	15695.63
701.00	15487.32
701.13	15410.09
701.26	15583.29
701.40	15562.22
701.53	15300.08
701.66	15276.68
701.79	15033.26
701.93	14993.47
702.06	14799.21
702.19	14899.85
702.32	14963.04
702.46	14750.06
702.59	14677.50
702.72	14853.04
702.85	14726.65
702.99	14581.54
703.12	14916.23
703.25	14366.21
703.38	14267.91
703.51	14270.25
703.65	14342.80
703.78	14506.64
703.91	14389.61
704.04	14162.58
704.17	13956.61
704.31	13930.87
704.44	13502.55
704.57	13715.54
704.70	13486.17
704.83	13635.96
704.96	13647.66
705.10	13530.64
705.23	13731.92
>>>>>End Processed Spectral Data<<<<<
