SpectraSuite Data File
++++++++++++++++++++++++++++++++++++
Date: Fri Oct 25 11:34:49 EDT 2013
User: price-jones
Dark Spectrum Present: No
Reference Spectrum Present: No
Number of Sampled Component Spectra: 1
Spectrometers: USB2+H05261
Integration Time (usec): 100000 (USB2+H05261)
Spectra Averaged: 1 (USB2+H05261)
Boxcar Smoothing: 0 (USB2+H05261)
Correct for Electrical Dark: No (USB2+H05261)
Strobe/Lamp Enabled: No (USB2+H05261)
Correct for Detector Non-linearity: No (USB2+H05261)
Correct for Stray Light: No (USB2+H05261)
Number of Pixels in Processed Spectrum: 2048
>>>>>Begin Processed Spectral Data<<<<<
365.73	234.05
365.92	234.05
366.12	234.05
366.32	154.48
366.52	135.75
366.72	170.86
366.91	292.57
367.11	138.09
367.31	175.54
367.51	152.13
367.70	177.88
367.90	107.66
368.10	133.41
368.30	198.95
368.49	191.92
368.69	198.95
368.89	180.22
369.09	241.08
369.28	243.42
369.48	170.86
369.68	257.46
369.87	271.50
370.07	255.12
370.27	252.78
370.47	313.63
370.66	449.38
370.86	505.56
371.06	468.11
371.25	561.73
371.45	613.22
371.65	535.98
371.84	554.71
372.04	486.83
372.24	568.75
372.44	564.07
372.63	559.39
372.83	559.39
373.03	547.69
373.22	566.41
373.42	587.47
373.62	645.99
373.81	585.13
374.01	561.73
374.21	599.18
374.40	631.94
374.60	641.31
374.79	622.58
374.99	638.97
375.19	608.54
375.38	634.29
375.58	613.22
375.78	667.05
375.97	622.58
376.17	734.93
376.37	690.46
376.56	753.65
376.76	594.50
376.95	641.31
377.15	734.93
377.35	758.33
377.54	568.75
377.74	601.52
377.93	676.41
378.13	791.10
378.33	727.91
378.52	709.18
378.72	674.07
378.91	730.25
379.11	727.91
379.31	629.60
379.50	690.46
379.70	739.61
379.89	674.07
380.09	744.29
380.28	690.46
380.48	685.78
380.68	709.18
380.87	688.12
381.07	657.69
381.26	702.16
381.46	699.82
381.65	777.06
381.85	795.78
382.04	802.80
382.24	760.67
382.43	727.91
382.63	709.18
382.83	744.29
383.02	800.46
383.22	784.08
383.41	741.95
383.61	786.42
383.80	704.50
384.00	798.12
384.19	737.27
384.39	882.38
384.58	739.61
384.78	847.27
384.97	814.51
385.17	816.85
385.36	774.72
385.56	856.64
385.75	795.78
385.95	798.12
386.14	781.74
386.34	873.02
386.53	805.14
386.72	858.98
386.92	884.72
387.11	807.48
387.31	851.96
387.50	870.68
387.70	802.80
387.89	851.96
388.09	903.45
388.28	851.96
388.48	828.55
388.67	990.05
388.86	863.66
389.06	828.55
389.25	891.74
389.45	861.32
389.64	880.04
389.84	978.34
390.03	973.66
390.22	882.38
390.42	959.62
390.61	912.81
390.81	915.15
391.00	894.08
391.19	1086.01
391.39	976.00
391.58	992.39
391.78	968.98
391.97	997.07
392.16	1008.77
392.36	1102.39
392.55	1013.45
392.75	971.32
392.94	1036.86
393.13	1076.65
393.33	964.30
393.52	1055.58
393.71	1048.56
393.91	1004.09
394.10	978.34
394.29	1041.54
394.49	1041.54
394.68	1036.86
394.88	1018.13
395.07	1097.71
395.26	1118.78
395.46	1153.88
395.65	1069.62
395.84	1104.73
396.04	1245.16
396.23	1118.78
396.42	1151.54
396.62	1163.25
396.81	1231.12
397.00	1116.44
397.19	1181.97
397.39	1160.91
397.58	1231.12
397.77	1163.25
397.97	1146.86
398.16	1214.74
398.35	1245.16
398.55	1203.04
398.74	1142.18
398.93	1268.57
399.12	1277.93
399.32	1247.51
399.51	1270.91
399.70	1289.64
399.90	1242.82
400.09	1313.04
400.28	1280.27
400.47	1212.40
400.67	1308.36
400.86	1306.02
401.05	1322.40
401.24	1376.24
401.44	1336.45
401.63	1476.88
401.82	1390.28
402.01	1394.96
402.21	1383.26
402.40	1413.68
402.59	1416.02
402.78	1376.24
402.97	1451.13
403.17	1542.41
403.36	1554.12
403.55	1446.45
403.74	1516.67
403.93	1572.84
404.13	1511.99
404.32	1462.83
404.51	1502.62
404.70	1614.97
404.89	1507.30
405.09	1631.35
405.28	1589.22
405.47	1619.65
405.66	1678.16
405.85	1631.35
406.05	1600.93
406.24	1673.48
406.43	1708.59
406.62	1682.85
406.81	1783.49
407.00	1678.16
407.20	1760.08
407.39	1673.48
407.58	1638.38
407.77	1797.53
407.96	1863.07
408.15	1844.34
408.34	1767.10
408.54	1804.55
408.73	1769.44
408.92	1783.49
409.11	1900.52
409.30	1834.98
409.49	1827.96
409.68	1905.20
409.87	1893.49
410.07	1937.96
410.26	1991.80
410.45	1912.22
410.64	1956.69
410.83	1973.07
411.02	1930.94
411.21	2076.06
411.40	2029.24
411.59	2045.63
411.78	1994.14
411.98	2085.42
412.17	2101.80
412.36	2153.29
412.55	2146.27
412.74	2099.46
412.93	2279.68
413.12	2008.18
413.31	2221.17
413.50	2335.85
413.69	2230.53
413.88	2221.17
414.07	2265.64
414.26	2335.85
414.45	2310.11
414.64	2401.39
414.83	2438.84
415.02	2560.55
415.22	2506.71
415.41	2555.86
415.60	2527.78
415.79	2490.33
415.98	2579.27
416.17	2644.81
416.36	2560.55
416.55	2565.23
416.74	2612.04
416.93	2628.42
417.12	2726.72
417.31	2668.21
417.50	2656.51
417.69	2853.11
417.88	2843.75
418.07	2785.24
418.26	2848.43
418.45	2818.00
418.64	2885.88
418.83	2902.26
419.02	2810.98
419.21	3049.72
419.39	2878.86
419.58	2778.22
419.77	2874.18
419.96	3056.74
420.15	3045.04
420.34	2979.50
420.53	3094.19
420.72	3068.44
420.91	3049.72
421.10	3143.34
421.29	3183.13
421.48	3068.44
421.67	3103.55
421.86	3126.96
422.05	3089.51
422.24	3171.43
422.43	3222.92
422.61	3248.66
422.80	3258.03
422.99	3185.47
423.18	3236.96
423.37	3239.30
423.56	3262.71
423.75	3155.04
423.94	3089.51
424.13	3007.59
424.32	3136.32
424.50	3220.58
424.69	3279.09
424.88	3297.81
425.07	3251.00
425.26	3192.49
425.45	3246.32
425.64	3307.18
425.83	3251.00
426.01	3358.67
426.20	3316.54
426.39	3218.24
426.58	3241.64
426.77	3236.96
426.96	3288.45
427.15	3386.76
427.33	3412.50
427.52	3417.18
427.71	3419.52
427.90	3321.22
428.09	3410.16
428.28	3447.61
428.46	3531.87
428.65	3466.33
428.84	3574.00
429.03	3648.90
429.22	3599.74
429.40	3625.49
429.59	3606.77
429.78	3375.05
429.97	3403.14
430.16	3531.87
430.34	3667.62
430.53	3630.17
430.72	3782.31
430.91	3592.72
431.10	3669.96
431.28	3786.99
431.47	3873.59
431.66	3747.20
431.85	3782.31
432.03	3873.59
432.22	3847.84
432.41	3868.91
432.60	3864.22
432.79	3838.48
432.97	4011.68
433.16	3960.19
433.35	3861.88
433.54	4030.40
433.72	3978.91
433.91	4081.89
434.10	4095.94
434.28	4051.47
434.47	4037.42
434.66	4046.79
434.85	4131.05
435.03	4224.67
435.22	3948.48
435.41	4189.56
435.59	4133.39
435.78	4065.51
435.97	4156.79
436.16	4086.58
436.34	4142.75
436.53	4109.98
436.72	4184.88
436.90	4194.24
437.09	4339.35
437.28	4217.65
437.46	4402.55
437.65	4390.84
437.84	4409.57
438.02	4329.99
438.21	4360.42
438.40	4276.16
438.58	4519.57
438.77	4510.21
438.96	4402.55
439.14	4521.92
439.33	4482.13
439.52	4624.90
439.70	4652.98
439.89	4566.39
440.08	4809.80
440.26	4849.59
440.45	4805.12
440.63	4880.02
440.82	4947.89
441.01	4772.35
441.19	4849.59
441.38	4943.21
441.57	5006.41
441.75	5172.58
441.94	5069.60
442.12	5083.64
442.31	5053.22
442.50	5163.22
442.68	5043.85
442.87	5191.31
443.05	5125.77
443.24	5268.55
443.43	5310.68
443.61	5245.14
443.80	5371.53
443.98	4990.02
444.17	4999.38
444.35	5430.04
444.54	5357.49
444.73	5296.63
444.91	5362.17
445.10	5317.70
445.28	5177.26
445.47	5359.83
445.65	5284.93
445.84	5497.92
446.02	5394.93
446.21	5390.25
446.39	5404.30
446.58	5467.49
446.77	5446.43
446.95	5275.57
447.14	5371.53
447.32	5481.53
447.51	5523.66
447.69	5465.15
447.88	5383.23
448.06	5355.15
448.25	5423.02
448.43	5474.51
448.62	5507.28
448.80	5252.16
448.99	5699.20
449.17	5614.95
449.36	5502.60
449.54	5584.52
449.73	5685.16
449.91	5764.74
450.10	5781.12
450.28	5827.93
450.46	5774.10
450.65	5802.19
450.83	5816.23
451.02	5863.04
451.20	5696.86
451.39	5799.85
451.57	5682.82
451.76	5727.29
451.94	5823.25
452.13	5923.90
452.31	5823.25
452.49	5928.58
452.68	6092.41
452.86	6026.88
453.05	6064.33
453.23	6029.22
453.42	5982.41
453.60	5937.94
453.78	6090.07
453.97	5987.09
454.15	6073.69
454.34	6071.35
454.52	6162.63
454.70	6373.28
454.89	6214.12
455.07	6431.79
455.26	6251.57
455.44	6354.55
455.62	6209.44
455.81	6300.72
455.99	6256.25
456.17	6286.68
456.36	6335.83
456.54	6403.71
456.73	6473.92
456.91	6705.63
457.09	6630.74
457.28	6698.61
457.46	6569.88
457.64	6532.44
457.83	6417.75
458.01	6640.10
458.19	6693.93
458.38	6672.87
458.56	6696.27
458.74	6679.89
458.93	6747.76
459.11	6766.49
459.29	6848.41
459.48	6832.02
459.66	6843.73
459.84	7045.01
460.03	7068.42
460.21	6988.84
460.39	6930.33
460.57	7026.29
460.76	7136.29
460.94	7000.54
461.12	7119.91
461.31	7155.02
461.49	7077.78
461.67	7087.14
461.85	7082.46
462.04	7101.19
462.22	7328.22
462.40	7243.96
462.59	7321.20
462.77	7243.96
462.95	7258.00
463.13	7286.09
463.32	7236.94
463.50	7309.49
463.68	7651.21
463.86	7679.30
464.05	7295.45
464.23	7272.04
464.41	7595.04
464.59	7330.56
464.78	7639.51
464.96	7456.95
465.14	7405.46
465.32	7709.72
465.50	7494.40
465.69	7803.35
465.87	7625.47
466.05	7531.84
466.23	7590.36
466.41	7688.66
466.60	7686.32
466.78	7524.82
466.96	7709.72
467.14	7733.13
467.32	7709.72
467.51	7882.92
467.69	7550.57
467.87	7836.11
468.05	7976.55
468.23	8023.36
468.41	7791.64
468.60	7786.96
468.78	8212.94
468.96	7901.65
469.14	8051.44
469.32	8184.85
469.50	8006.97
469.69	8051.44
469.87	8070.17
470.05	8135.70
470.23	8304.22
470.41	8243.37
470.59	8131.02
470.77	8311.24
470.95	8212.94
471.14	8573.38
471.32	8226.98
471.50	8538.27
471.68	8580.40
471.86	8737.22
472.04	8526.57
472.22	8891.70
472.40	8718.50
472.58	8667.00
472.77	8791.05
472.95	8840.20
473.13	9092.98
473.31	8788.71
473.49	8922.12
473.67	8973.61
473.85	9125.75
474.03	9128.09
474.21	9104.68
474.39	9224.05
474.57	9165.54
474.75	9334.06
474.93	9469.81
475.12	9296.61
475.30	9324.69
475.48	9425.34
475.66	9474.49
475.84	9628.96
476.02	9645.35
476.20	9727.27
476.38	9778.76
476.56	10083.03
476.74	10038.56
476.92	10050.26
477.10	9856.00
477.28	10197.71
477.46	9802.16
477.64	10150.90
477.82	10246.87
478.00	10700.93
478.18	10459.85
478.36	10441.13
478.54	10633.05
478.72	10602.63
478.90	10869.45
479.08	10832.00
479.26	10874.13
479.44	11077.76
479.62	11101.16
479.80	11138.61
479.98	11323.51
480.16	11461.60
480.34	11477.99
480.52	11482.67
480.70	11407.77
480.88	11435.86
481.06	11646.51
481.24	11557.57
481.41	11880.56
481.59	11850.13
481.77	11974.18
481.95	12086.53
482.13	12311.22
482.31	12269.09
482.49	12449.31
482.67	12358.03
482.85	12849.54
483.03	12795.71
483.21	12769.96
483.39	12886.99
483.57	12982.95
483.74	13064.87
483.92	13212.32
484.10	13184.24
484.28	13308.29
484.46	13790.44
484.64	13806.82
484.82	13584.47
485.00	13781.07
485.18	13858.31
485.35	14429.40
485.53	14122.79
485.71	14061.94
485.89	14513.66
486.07	14539.41
486.25	14623.67
486.43	14478.55
486.61	14633.03
486.78	14864.74
486.96	14820.27
487.14	15140.93
487.32	15260.29
487.50	15374.98
487.68	15197.10
487.85	15482.64
488.03	15864.15
488.21	16002.24
488.39	15887.56
488.57	16283.11
488.75	16278.43
488.92	16386.09
489.10	16599.08
489.28	16400.13
489.46	16641.21
489.64	16599.08
489.81	17090.59
489.99	17085.91
490.17	16947.82
490.35	17298.90
490.53	17383.16
490.70	17411.25
490.88	17420.61
491.06	17568.06
491.24	17762.33
491.41	17827.86
491.59	17942.55
491.77	17996.38
491.95	18417.68
492.13	18581.51
492.30	18300.65
492.48	18841.31
492.66	18560.45
492.84	18864.72
493.01	19066.00
493.19	18775.78
493.37	18855.36
493.54	19454.53
493.72	19618.37
493.90	19073.03
494.08	19454.53
494.25	19651.14
494.43	19716.67
494.61	20060.73
494.79	19939.02
494.96	19836.04
495.14	20016.26
495.32	20421.17
495.49	20346.28
495.67	20493.73
495.85	20439.90
496.02	20638.84
496.20	20877.58
496.38	21205.25
496.55	20863.54
496.73	21673.36
496.91	21118.65
497.09	21207.59
497.26	21324.62
497.44	21635.91
497.62	21818.47
497.79	22057.21
497.97	21511.86
498.14	22066.57
498.32	22251.47
498.50	22118.06
498.67	22366.16
498.85	22338.07
499.03	22806.18
499.20	22473.82
499.38	22670.43
499.56	22728.94
499.73	23096.41
499.91	23330.46
500.08	23028.53
500.26	23133.86
500.44	23042.57
500.61	23482.59
500.79	23276.63
500.97	23704.95
501.14	23667.50
501.32	23768.14
501.49	23510.68
501.67	23508.34
501.84	23969.43
502.02	23971.77
502.20	24016.24
502.37	23908.57
502.55	24037.30
502.72	24318.17
502.90	24346.25
503.07	24016.24
503.25	24360.30
503.43	24210.50
503.60	24622.44
503.78	24460.94
503.95	24636.48
504.13	25092.88
504.30	24727.76
504.48	25039.05
504.65	24924.36
504.83	25570.35
505.01	25689.72
505.18	25415.88
505.36	25345.66
505.53	25273.10
505.71	25460.35
505.88	26136.76
506.06	25989.31
506.23	26192.94
506.41	25738.87
506.58	26153.15
506.76	26225.70
506.93	26087.61
507.11	26436.35
507.28	26705.51
507.46	26349.75
507.63	26335.71
507.81	26555.72
507.98	26403.58
508.16	26749.98
508.33	26899.78
508.50	27101.06
508.68	27152.55
508.85	27098.72
509.03	27192.34
509.20	27398.31
509.38	27428.74
509.55	27470.87
509.73	27459.16
509.90	27370.22
510.08	27850.03
510.25	27718.96
510.42	27716.62
510.60	28187.07
510.77	27922.59
510.95	28631.77
511.12	28154.30
511.30	28247.93
511.47	28313.46
511.64	28465.60
511.82	28407.08
511.99	28294.74
512.17	28463.25
512.34	28095.79
512.51	28922.00
512.69	28966.47
512.86	28629.43
513.04	29226.27
513.21	29228.61
513.38	29345.64
513.56	29305.85
513.73	29287.12
513.90	29207.55
514.08	29127.97
514.25	29502.45
514.43	29687.36
514.60	29504.79
514.77	29462.66
514.95	29799.70
515.12	29633.52
515.29	30047.80
515.47	30345.05
515.64	29898.00
515.81	30101.63
515.99	30008.01
516.16	30272.49
516.33	30281.85
516.51	30703.15
516.68	30433.99
516.85	30576.76
517.03	30813.15
517.20	30995.71
517.37	30775.70
517.54	31182.96
517.72	31091.68
517.89	30850.60
518.06	30965.29
518.24	31091.68
518.41	30775.70
518.58	31311.69
518.75	31021.46
518.93	31433.39
519.10	31150.19
519.27	31604.25
519.45	31370.20
519.62	31484.89
519.79	31508.29
519.96	31754.05
520.14	31838.31
520.31	31981.08
520.48	31985.76
520.65	32030.23
520.83	32275.99
521.00	31786.82
521.17	32095.77
521.34	32421.10
521.52	32465.57
521.69	32910.27
521.86	32486.64
522.03	32505.36
522.20	33020.28
522.38	33046.02
522.55	32716.01
522.72	32823.67
522.89	32896.23
523.07	33088.15
523.24	33039.00
523.41	32940.70
523.58	32872.82
523.75	33500.09
523.92	33256.67
524.10	33441.57
524.27	33598.39
524.44	33373.70
524.61	33490.73
524.78	33270.72
524.96	34033.73
525.13	33883.94
525.30	33883.94
525.47	33921.38
525.64	34134.37
525.81	33865.21
525.98	34050.11
526.16	34227.99
526.33	33900.32
526.50	34621.20
526.67	34092.24
526.84	33991.60
527.01	34534.60
527.18	34485.45
527.36	34405.88
527.53	34239.70
527.70	35077.61
527.87	34941.86
528.04	34501.84
528.21	34941.86
528.38	34497.16
528.55	35145.48
528.72	34789.72
528.89	35028.46
529.07	34932.50
529.24	35091.65
529.41	35058.88
529.58	35325.71
529.75	35211.02
529.92	35534.01
530.09	34932.50
530.26	35534.01
530.43	35559.76
530.60	35129.10
530.77	35269.53
530.94	35545.72
531.11	35477.84
531.28	35637.00
531.46	35828.92
531.63	35976.37
531.80	36037.23
531.97	36313.41
532.14	36334.48
532.31	35461.46
532.48	36320.43
532.65	36315.75
532.82	36058.29
532.99	36177.66
533.16	36463.21
533.33	36158.94
533.50	36645.77
533.67	36292.35
533.84	36060.63
534.01	36498.31
534.18	36622.36
534.35	36615.34
534.52	37067.06
534.69	36952.38
534.86	37565.60
535.03	36842.37
535.20	36928.97
535.37	37301.12
535.54	36844.71
535.71	37153.66
535.88	37244.94
536.05	37312.82
536.22	37275.37
536.38	37312.82
536.55	37617.09
536.72	37471.98
536.89	37481.34
537.06	37418.14
537.23	38000.94
537.40	37832.42
537.57	37036.64
537.74	37773.91
537.91	37560.92
538.08	37471.98
538.25	37336.23
538.42	37462.61
538.59	38160.09
538.75	38178.82
538.92	38045.41
539.09	38356.70
539.26	38003.28
539.43	38075.84
539.60	37965.83
539.77	37869.87
539.94	38330.95
540.11	38286.48
540.28	38387.13
540.44	38352.02
540.61	38433.94
540.78	37977.53
540.95	38061.79
541.12	38464.36
541.29	38438.62
541.46	38843.53
541.62	38602.46
541.79	38761.61
541.96	38539.26
542.13	38359.04
542.30	38429.26
542.47	38672.67
542.63	38667.99
542.80	38873.96
542.97	39309.30
543.14	39260.15
543.31	39267.17
543.48	39456.75
543.64	39489.52
543.81	39615.91
543.98	39346.75
544.15	39199.29
544.32	39615.91
544.48	39707.19
544.65	39634.63
544.82	39910.82
544.99	39864.00
545.16	39669.74
545.32	39639.31
545.49	39995.07
545.66	40030.18
545.83	39847.62
546.00	40126.14
546.16	39817.19
546.33	40009.12
546.50	39643.99
546.67	40135.51
546.83	39810.17
547.00	39636.97
547.17	39679.10
547.34	40299.34
547.50	40275.94
547.67	40629.36
547.84	40332.11
548.00	40657.45
548.17	40762.77
548.34	40718.30
548.51	40563.82
548.67	40341.47
548.84	40795.54
549.01	40748.73
549.18	40765.11
549.34	40758.09
549.51	41053.00
549.68	40914.90
549.84	40573.19
550.01	40765.11
550.18	40467.86
550.34	40804.90
550.51	40842.35
550.68	40907.88
550.84	40346.15
551.01	41471.95
551.18	41123.21
551.34	41205.13
551.51	41167.68
551.68	41319.82
551.84	40975.76
552.01	40933.63
552.18	41202.79
552.34	41507.06
552.51	41050.66
552.68	41280.03
552.84	41689.62
553.01	41504.72
553.18	41785.58
553.34	41277.69
553.51	41923.68
553.67	41558.55
553.84	41565.57
554.01	41656.85
554.17	41207.47
554.34	41846.44
554.51	41439.18
554.67	41972.83
554.84	42120.28
555.00	42007.94
555.17	41963.46
555.33	42038.36
555.50	41837.08
555.67	41975.17
555.83	41982.19
556.00	42174.11
556.16	42569.66
556.33	42176.45
556.50	42251.35
556.66	41970.49
556.83	42019.64
556.99	42356.67
557.16	42508.81
557.32	42314.55
557.49	42518.17
557.65	42330.93
557.82	42316.89
557.98	42211.56
558.15	42422.21
558.32	42398.80
558.48	42443.27
558.65	42223.26
558.81	42553.28
558.98	42532.22
559.14	42218.58
559.31	42351.99
559.47	42806.06
559.64	42796.70
559.80	42244.33
559.97	42880.95
560.13	42712.44
560.30	42515.83
560.46	43405.23
560.63	42880.95
560.79	43735.25
560.96	42918.40
561.12	43115.01
561.29	43360.76
561.45	43269.48
561.61	42932.45
561.78	43143.09
561.94	42745.20
562.11	42623.50
562.27	43257.78
562.44	42773.29
562.60	43232.04
562.77	42897.34
562.93	42817.76
563.10	43583.12
563.26	43037.77
563.42	43672.06
563.59	43058.84
563.75	43035.43
563.92	43370.13
564.08	43260.12
564.24	43658.01
564.41	43058.84
564.57	43360.76
564.74	43381.83
564.90	43407.58
565.07	43613.54
565.23	43721.21
565.39	43365.45
565.56	43515.24
565.72	43082.24
565.88	43225.01
566.05	43746.95
566.21	43491.83
566.38	43271.82
566.54	43569.07
566.70	43653.33
566.87	43674.40
567.03	43435.66
567.19	43765.68
567.36	43749.29
567.52	43641.63
567.68	43826.53
567.85	43782.06
568.01	43679.08
568.17	43667.37
568.34	43826.53
568.50	43587.80
568.66	43674.40
568.83	43894.41
568.99	43681.42
569.15	43845.26
569.32	43384.17
569.48	43414.60
569.64	43885.04
569.81	44006.75
569.97	44086.33
570.13	44018.46
570.30	43447.36
570.46	43976.33
570.62	44196.34
570.78	43552.69
570.95	43840.57
571.11	44313.36
571.27	43718.87
571.43	43690.78
571.60	44041.86
571.76	44275.91
571.92	44013.77
572.09	44032.50
572.25	43269.48
572.41	43765.68
572.57	43770.36
572.74	44296.98
572.90	44355.49
573.06	44327.41
573.22	44332.09
573.38	44268.89
573.55	44577.84
573.71	44634.02
573.87	44568.48
574.03	44088.67
574.20	44287.62
574.36	44629.34
574.52	44243.15
574.68	44329.75
574.84	44554.44
575.01	44643.38
575.17	44233.78
575.33	43971.64
575.49	43791.42
575.65	44179.95
575.82	44362.51
575.98	44016.11
576.14	44266.55
576.30	44222.08
576.46	44559.12
576.62	44322.72
576.79	44231.44
576.95	43938.88
577.11	43681.42
577.27	44371.88
577.43	44622.31
577.59	44657.42
577.75	44383.58
577.92	43959.94
578.08	43999.73
578.24	44744.02
578.40	44603.59
578.56	44732.32
578.72	44552.10
578.88	44521.67
579.04	44535.71
579.21	44666.78
579.37	44634.02
579.53	44741.68
579.69	44074.63
579.85	44495.92
580.01	44083.99
580.17	44184.63
580.33	44734.66
580.49	44404.64
580.65	44257.19
580.82	44547.42
580.98	44531.03
581.14	44154.21
581.30	44690.19
581.46	44346.13
581.62	44453.79
581.78	44062.93
581.94	44245.49
582.10	44414.01
582.26	44662.10
582.42	44376.56
582.58	44687.85
582.74	45036.59
582.90	44701.89
583.06	44769.77
583.22	44369.54
583.38	44325.07
583.54	44439.75
583.70	44369.54
583.86	44706.57
584.02	44254.85
584.18	44832.96
584.34	44549.76
584.50	44844.66
584.66	45043.61
584.82	44554.44
584.98	45162.98
585.14	44893.82
585.30	44271.23
585.46	44924.24
585.62	44584.86
585.78	44767.43
585.94	44425.71
586.10	45179.36
586.26	44404.64
586.42	44694.87
586.58	44231.44
586.74	44577.84
586.90	44650.40
587.06	44697.21
587.22	44823.60
587.38	44315.70
587.54	44779.13
587.70	44769.77
587.86	45034.25
588.02	44842.32
588.18	44875.09
588.34	44495.92
588.49	44409.32
588.65	44612.95
588.81	44865.73
588.97	44725.30
589.13	44753.38
589.29	44711.25
589.45	45020.20
589.61	44758.06
589.77	45191.06
589.93	44591.89
590.08	44933.60
590.24	44935.95
590.40	44692.53
590.56	45837.05
590.72	45375.97
590.88	45219.15
591.04	44800.19
591.20	45059.99
591.35	45317.45
591.51	45500.01
591.67	45120.85
591.83	45390.01
591.99	45296.39
592.15	44865.73
592.31	45174.68
592.46	45027.23
592.62	45214.47
592.78	45181.70
592.94	45977.48
593.10	45392.35
593.26	45476.61
593.41	45287.03
593.57	45635.77
593.73	45415.76
593.89	45710.66
594.05	45507.04
594.20	45567.89
594.36	45841.73
594.52	45799.60
594.68	45207.45
594.84	45258.94
594.99	45483.63
595.15	45502.35
595.31	45338.52
595.47	45226.17
595.62	45453.20
595.78	45333.84
595.94	45331.50
596.10	45469.59
596.25	45429.80
596.41	45603.00
596.57	45258.94
596.73	45865.14
596.88	45397.03
597.04	45588.95
597.20	45638.11
597.36	45371.28
597.51	45188.72
597.67	45017.86
597.83	45427.46
597.99	45343.20
598.14	45050.63
598.30	45469.59
598.46	45315.11
598.61	45560.87
598.77	45633.42
598.93	45523.42
599.09	45170.00
599.24	45998.55
599.40	45141.91
599.56	45584.27
599.71	45514.06
599.87	46316.86
600.03	45865.14
600.18	45462.57
600.34	45483.63
600.50	45392.35
600.65	45588.95
600.81	45502.35
600.97	45792.58
601.12	45724.71
601.28	45769.18
601.44	45397.03
601.59	45525.76
601.75	45102.12
601.91	45904.93
602.06	45668.53
602.22	45773.86
602.37	45666.19
602.53	45598.32
602.69	45677.90
602.84	45448.52
603.00	45368.94
603.16	45668.53
603.31	45605.34
603.47	45507.04
603.62	45710.66
603.78	45710.66
603.94	45411.07
604.09	45691.94
604.25	45429.80
604.40	45443.84
604.56	45535.12
604.71	46354.31
604.87	45436.82
605.03	45504.70
605.18	45366.60
605.34	45680.24
605.49	45181.70
605.65	45446.18
605.80	45284.68
605.96	45015.52
606.12	45483.63
606.27	45799.60
606.43	45633.42
606.58	45986.85
606.74	45450.86
606.89	45673.21
607.05	45799.60
607.20	45336.18
607.36	45120.85
607.51	45172.34
607.67	45380.65
607.82	45181.70
607.98	45228.51
608.13	45837.05
608.29	45188.72
608.44	45488.31
608.60	45088.08
608.75	45408.73
608.91	45563.21
609.06	45130.21
609.22	45532.78
609.37	45099.78
609.53	45099.78
609.68	45689.60
609.84	45146.59
609.99	45504.70
610.15	45031.91
610.30	45287.03
610.46	44945.31
610.61	45413.41
610.76	45015.52
610.92	44573.16
611.07	44652.74
611.23	45249.58
611.38	45067.02
611.54	45160.64
611.69	45113.83
611.84	45305.75
612.00	45071.70
612.15	44996.80
612.31	45680.24
612.46	45127.87
612.62	44996.80
612.77	44832.96
612.92	45530.44
613.08	45020.20
613.23	45081.06
613.39	44837.64
613.54	44823.60
613.69	45048.29
613.85	44992.12
614.00	44835.30
614.15	45418.10
614.31	44516.99
614.46	44680.83
614.62	44917.22
614.77	44540.39
614.92	44243.15
615.08	44818.92
615.23	44884.45
615.38	45223.83
615.54	44624.65
615.69	44973.39
615.84	45148.93
616.00	45148.93
616.15	44900.84
616.30	44896.16
616.46	44641.04
616.61	44374.22
616.76	44926.58
616.92	44692.53
617.07	44046.54
617.22	44634.02
617.37	44371.88
617.53	44442.09
617.68	44264.21
617.83	44399.96
617.99	44872.75
618.14	44584.86
618.29	44524.01
618.45	43782.06
618.60	44334.43
618.75	44069.95
618.90	44226.76
619.06	44399.96
619.21	44524.01
619.36	44580.18
619.51	44109.74
619.67	44032.50
619.82	44168.25
619.97	44226.76
620.12	44130.80
620.28	44233.78
620.43	44346.13
620.58	44257.19
620.73	44470.18
620.89	44205.70
621.04	44598.91
621.19	44416.35
621.34	44119.10
621.49	43695.46
621.65	43896.75
621.80	44170.59
621.95	43840.57
622.10	44364.85
622.25	43922.49
622.41	43819.51
622.56	43981.01
622.71	44140.16
622.86	44046.54
623.01	43835.89
623.16	44039.52
623.32	43232.04
623.47	43707.16
623.62	43522.26
623.77	44055.90
623.92	44308.68
624.07	44037.18
624.23	43646.31
624.38	43690.78
624.53	43641.63
624.68	43487.15
624.83	43466.09
624.98	43697.80
625.13	43292.89
625.29	42768.61
625.44	43374.81
625.59	43522.26
625.74	43304.59
625.89	43140.75
626.04	43342.04
626.19	43583.12
626.34	43456.73
626.49	43241.40
626.65	42948.83
626.80	43225.01
626.95	43037.77
627.10	42553.28
627.25	43412.26
627.40	43718.87
627.55	43372.47
627.70	43246.08
627.85	43639.29
628.00	43438.00
628.15	43309.27
628.30	42387.10
628.45	43117.35
628.60	42745.20
628.76	42988.62
628.91	42747.54
629.06	42710.10
629.21	42471.36
629.36	42373.06
629.51	42298.16
629.66	43070.54
629.81	42560.30
629.96	42731.16
630.11	42572.00
630.26	42155.39
630.41	42630.52
630.56	42422.21
630.71	42600.09
630.86	42555.62
631.01	42534.56
631.16	42454.98
631.31	42637.54
631.46	42101.56
631.61	43019.05
631.76	42588.39
631.91	42719.46
632.06	42934.79
632.21	42534.56
632.36	42887.98
632.51	41998.57
632.66	42267.73
632.81	42450.30
632.96	42494.77
633.10	41975.17
633.25	42291.14
633.40	42237.31
633.55	42253.69
633.70	42136.66
633.85	41841.76
634.00	41982.19
634.15	41876.86
634.30	41984.53
634.45	41827.71
634.60	42019.64
634.75	41834.74
634.90	42078.15
635.05	41825.37
635.19	41879.21
635.34	42129.64
635.49	41673.24
635.64	42146.03
635.79	41808.99
635.94	42157.73
636.09	41432.16
636.24	41408.76
636.39	41233.22
636.53	41588.98
636.68	41677.92
636.83	41368.97
636.98	41235.56
637.13	41361.95
637.28	41785.58
637.43	41270.67
637.57	41567.91
637.72	41521.10
637.87	40926.61
638.02	41708.35
638.17	41174.70
638.32	41186.41
638.46	41153.64
638.61	41038.95
638.76	41614.72
638.91	41242.58
639.06	41408.76
639.20	41151.30
639.35	41237.90
639.50	41053.00
639.65	40973.42
639.80	41024.91
639.94	41031.93
640.09	41237.90
640.24	41099.81
640.39	40706.60
640.54	41006.19
640.68	41202.79
640.83	41090.44
640.98	40776.81
641.13	40521.69
641.27	41125.55
641.42	41095.13
641.57	40842.35
641.72	41017.89
641.86	40311.05
642.01	40507.65
642.16	40484.25
642.31	40327.43
642.45	40547.44
642.60	40524.04
642.75	40257.21
642.90	40547.44
643.04	40556.80
643.19	40643.40
643.34	40591.91
643.48	40154.23
643.63	39957.63
643.78	40488.93
643.93	40573.19
644.07	40566.16
644.22	40910.22
644.37	40231.47
644.51	40687.87
644.66	40271.26
644.81	40203.38
644.95	40285.30
645.10	39985.71
645.25	40252.53
645.39	40327.43
645.54	39824.22
645.69	40004.44
645.83	39618.25
645.98	40004.44
646.13	39966.99
646.27	39992.73
646.42	39995.07
646.57	39845.28
646.71	40282.96
646.86	40154.23
647.00	39768.04
647.15	39990.39
647.30	40013.80
647.44	39583.14
647.59	39915.50
647.74	39552.71
647.88	40074.65
648.03	40055.93
648.17	40189.34
648.32	39931.88
648.47	40065.29
648.61	39896.77
648.76	39683.78
648.90	39608.89
649.05	39412.28
649.20	39927.20
649.34	40046.57
649.49	40100.40
649.63	40048.91
649.78	39508.24
649.92	39667.40
650.07	39779.74
650.21	40046.57
650.36	39948.26
650.51	39566.76
650.65	39784.43
650.80	39686.12
650.94	39552.71
651.09	39775.06
651.23	39157.16
651.38	39210.99
651.52	39309.30
651.67	38983.96
651.81	39192.27
651.96	39285.89
652.10	39133.76
652.25	39243.76
652.39	39075.24
652.54	39220.36
652.68	39049.50
652.83	39267.17
652.97	38988.64
653.12	38857.57
653.26	38787.36
653.41	38761.61
653.55	38890.34
653.70	38862.26
653.84	39323.34
653.99	39023.75
654.13	38955.88
654.27	38958.22
654.42	38972.26
654.56	38445.64
654.71	39019.07
654.85	38733.53
655.00	39049.50
655.14	38845.87
655.29	38689.06
655.43	38803.74
655.57	38155.41
655.72	38560.33
655.86	38557.99
656.01	38319.25
656.15	38330.95
656.30	38485.43
656.44	38447.98
656.58	38352.02
656.73	38490.11
656.87	38024.34
657.01	38012.64
657.16	38157.75
657.30	37923.70
657.45	38433.94
657.59	37748.16
657.73	38071.15
657.88	38148.39
658.02	38462.02
658.16	38401.17
658.31	38007.96
658.45	38195.20
658.60	38543.94
658.74	38096.90
658.88	37876.89
659.03	37614.75
659.17	37914.34
659.31	37598.37
659.46	37457.93
659.60	37769.22
659.74	37422.83
659.89	37525.81
660.03	37141.96
660.17	37706.03
660.32	37308.14
660.46	37357.29
660.60	37095.15
660.74	37563.26
660.89	37699.01
661.03	37057.70
661.17	37003.87
661.32	37237.92
661.46	37097.49
661.60	37071.75
661.74	37022.59
661.89	37146.64
662.03	37172.39
662.17	36556.83
662.31	36500.65
662.46	36987.49
662.60	36947.70
662.74	36308.73
662.88	36748.75
663.03	36346.18
663.17	35784.45
663.31	36322.77
663.45	36479.59
663.60	36526.40
663.74	36470.23
663.88	36486.61
664.02	36084.04
664.17	36657.47
664.31	35608.91
664.45	36027.87
664.59	35981.06
664.73	35789.13
664.88	36114.47
665.02	35779.77
665.16	35709.55
665.30	36025.53
665.44	35821.90
665.59	35613.59
665.73	34857.60
665.87	35765.73
666.01	35573.80
666.15	35751.68
666.29	35463.80
666.44	35559.76
666.58	35264.85
666.72	35119.74
666.86	35012.07
667.00	35407.62
667.14	35084.63
667.28	35264.85
667.43	35454.44
667.57	35632.32
667.71	34974.63
667.85	35445.07
667.99	35077.61
668.13	34773.34
668.27	34426.94
668.41	34803.77
668.56	34529.92
668.70	34473.75
668.84	34326.30
668.98	34057.14
669.12	34277.15
669.26	34309.91
669.40	34197.57
669.54	34258.42
669.68	34302.89
669.82	33928.41
669.96	33687.33
670.10	33649.88
670.25	34000.96
670.39	33745.84
670.53	33624.14
670.67	33762.23
670.81	34171.82
670.95	33867.55
671.09	33528.17
671.23	33240.29
671.37	33373.70
671.51	33350.29
671.65	33647.54
671.79	33092.83
671.93	33490.73
672.07	33546.90
672.21	32921.98
672.35	32737.07
672.49	32851.76
672.63	33289.44
672.77	32477.27
672.91	32666.86
673.05	32517.06
673.19	32362.59
673.33	32086.40
673.47	32362.59
673.61	32070.02
673.75	32283.01
673.89	31990.44
674.03	31653.40
674.17	31988.10
674.31	31817.24
674.45	31789.16
674.59	31749.37
674.73	31688.51
674.87	31517.65
675.01	31398.29
675.15	31225.09
675.29	31173.60
675.43	31089.34
675.56	31583.19
675.70	31346.79
675.84	31021.46
675.98	30263.13
676.12	30375.47
676.26	30972.31
676.40	30675.06
676.54	30506.54
676.68	30581.44
676.82	29923.75
676.96	30188.23
677.10	30597.82
677.23	30494.84
677.37	30216.32
677.51	30286.53
677.65	29865.24
677.79	29724.80
677.93	29773.95
678.07	29832.47
678.21	29708.42
678.34	29280.10
678.48	29230.95
678.62	28975.83
678.76	29270.74
678.90	29069.45
679.04	29235.63
679.18	29380.74
679.31	29069.45
679.45	28807.31
679.59	28566.24
679.73	28737.10
679.87	28353.25
680.00	28463.25
680.14	28243.24
680.28	28144.94
680.42	28245.58
680.56	28170.69
680.70	28128.56
680.83	27789.18
680.97	27796.20
681.11	27651.09
681.25	27632.36
681.39	27431.08
681.52	27613.64
681.66	27386.61
681.80	26855.31
681.94	26647.00
682.07	26831.90
682.21	26967.65
682.35	26764.03
682.49	26665.72
682.62	26654.02
682.76	26876.37
682.90	26541.68
683.04	26553.38
683.17	26228.04
683.31	26178.89
683.45	26169.53
683.59	25422.90
683.72	25544.61
683.86	25612.48
684.00	25839.51
684.13	26040.80
684.27	25539.93
684.41	25731.85
684.55	25497.80
684.68	25439.28
684.82	25177.14
684.96	24889.26
685.09	25113.95
685.23	25303.53
685.37	25348.00
685.50	25488.43
685.64	24982.88
685.78	24858.83
685.91	24512.43
686.05	23999.85
686.19	23990.49
686.32	23709.63
686.46	23910.91
686.60	23742.39
686.73	24070.07
686.87	23838.36
687.01	23864.10
687.14	23955.38
687.28	23337.48
687.42	23634.73
687.55	23318.76
687.69	23398.34
687.82	23419.40
687.96	22993.42
688.10	23152.58
688.23	23295.35
688.37	23435.78
688.50	23227.48
688.64	22965.34
688.78	22434.03
688.91	22799.16
689.05	22733.62
689.18	22209.34
689.32	21968.27
689.46	22059.55
689.59	22136.79
689.73	22312.33
689.86	22242.11
690.00	22169.55
690.13	22239.77
690.27	21593.78
690.41	21848.90
690.54	21509.52
690.68	21427.60
690.81	21406.54
690.95	21259.09
691.08	21514.20
691.22	21380.79
691.35	20905.66
691.49	21151.42
691.62	20849.49
691.76	20475.01
691.89	20505.43
692.03	20245.63
692.16	20542.88
692.30	20367.34
692.43	20271.38
692.57	20137.97
692.70	19962.43
692.84	19793.91
692.97	20049.03
693.11	19660.50
693.24	19910.94
693.38	19658.16
693.51	19372.61
693.65	19496.66
693.78	19264.95
693.92	19314.10
694.05	19349.21
694.19	19108.13
694.32	19337.51
694.45	19351.55
694.59	19124.52
694.72	19002.81
694.86	19173.67
694.99	18925.57
695.13	18656.41
695.26	18628.32
695.39	18625.98
695.53	18434.06
695.66	18464.49
695.80	18260.86
695.93	18298.31
696.07	17951.91
696.20	17790.41
696.33	17764.67
696.47	17713.17
696.60	17764.67
696.73	18134.47
696.87	17591.47
697.00	17633.60
697.14	17401.88
697.27	17462.74
697.40	17050.80
697.54	17195.92
697.67	17401.88
697.80	17069.53
697.94	16807.39
698.07	16999.31
698.21	16865.90
698.34	16688.02
698.47	16765.26
698.61	16065.44
698.74	16362.69
698.87	16334.60
699.01	16432.90
699.14	15887.56
699.27	16119.27
699.40	16353.32
699.54	15903.94
699.67	16205.87
699.80	15810.32
699.94	16042.03
700.07	15800.96
700.20	15903.94
700.34	15344.55
700.47	15461.58
700.60	15749.46
700.73	15655.84
700.87	15506.05
701.00	15236.89
701.13	15169.01
701.26	15059.01
701.40	14766.44
701.53	14972.41
701.66	14874.10
701.79	14768.78
701.93	14494.94
702.06	14380.25
702.19	14424.72
702.32	14782.82
702.46	14544.09
702.59	14572.18
702.72	14539.41
702.85	14480.89
702.99	14167.26
703.12	14078.32
703.25	13994.06
703.38	14059.60
703.51	14071.30
703.65	13778.73
703.78	13628.94
703.91	13521.27
704.04	13575.11
704.17	13437.02
704.31	13429.99
704.44	13418.29
704.57	13422.97
704.70	13242.75
704.83	13076.57
704.96	13212.32
705.10	13254.45
705.23	12812.09
>>>>>End Processed Spectral Data<<<<<
