SpectraSuite Data File
++++++++++++++++++++++++++++++++++++
Date: Fri Oct 25 11:34:10 EDT 2013
User: price-jones
Dark Spectrum Present: No
Reference Spectrum Present: No
Number of Sampled Component Spectra: 1
Spectrometers: USB2+H05261
Integration Time (usec): 100000 (USB2+H05261)
Spectra Averaged: 1 (USB2+H05261)
Boxcar Smoothing: 0 (USB2+H05261)
Correct for Electrical Dark: No (USB2+H05261)
Strobe/Lamp Enabled: No (USB2+H05261)
Correct for Detector Non-linearity: No (USB2+H05261)
Correct for Stray Light: No (USB2+H05261)
Number of Pixels in Processed Spectrum: 2048
>>>>>Begin Processed Spectral Data<<<<<
365.73	243.42
365.92	243.42
366.12	243.42
366.32	250.44
366.52	177.88
366.72	173.20
366.91	147.45
367.11	159.16
367.31	147.45
367.51	152.13
367.70	147.45
367.90	201.29
368.10	145.11
368.30	283.20
368.49	168.52
368.69	201.29
368.89	224.69
369.09	191.92
369.28	205.97
369.48	159.16
369.68	231.71
369.87	264.48
370.07	243.42
370.27	318.31
370.47	367.46
370.66	500.87
370.86	468.11
371.06	482.15
371.25	561.73
371.45	479.81
371.65	547.69
371.84	543.00
372.04	486.83
372.24	571.09
372.44	550.03
372.63	641.31
372.83	589.82
373.03	634.29
373.22	561.73
373.42	608.54
373.62	676.41
373.81	641.31
374.01	592.16
374.21	685.78
374.40	669.39
374.60	648.33
374.79	627.26
374.99	660.03
375.19	582.79
375.38	655.35
375.58	622.58
375.78	650.67
375.97	678.76
376.17	727.91
376.37	697.48
376.56	727.91
376.76	606.20
376.95	660.03
377.15	645.99
377.35	718.54
377.54	718.54
377.74	681.10
377.93	739.61
378.13	723.23
378.33	667.05
378.52	709.18
378.72	697.48
378.91	653.01
379.11	770.04
379.31	741.95
379.50	688.12
379.70	786.42
379.89	718.54
380.09	758.33
380.28	711.52
380.48	716.20
380.68	734.93
380.87	716.20
381.07	629.60
381.26	781.74
381.46	798.12
381.65	690.46
381.85	681.10
382.04	737.27
382.24	823.87
382.43	772.38
382.63	732.59
382.83	819.19
383.02	692.80
383.22	837.91
383.41	739.61
383.61	741.95
383.80	819.19
384.00	793.44
384.19	851.96
384.39	798.12
384.58	798.12
384.78	772.38
384.97	786.42
385.17	870.68
385.36	788.76
385.56	772.38
385.75	830.89
385.95	854.30
386.14	849.61
386.34	851.96
386.53	849.61
386.72	770.04
386.92	891.74
387.11	968.98
387.31	863.66
387.50	791.10
387.70	854.30
387.89	915.15
388.09	926.85
388.28	898.77
388.48	880.04
388.67	997.07
388.86	912.81
389.06	924.51
389.25	929.19
389.45	915.15
389.64	952.60
389.84	1015.79
390.03	947.92
390.22	903.45
390.42	952.60
390.61	1004.09
390.81	978.34
391.00	926.85
391.19	997.07
391.39	1041.54
391.58	990.05
391.78	1048.56
391.97	1041.54
392.16	976.00
392.36	1128.14
392.55	1050.90
392.75	1015.79
392.94	1071.97
393.13	994.73
393.33	1076.65
393.52	976.00
393.71	1015.79
393.91	1060.26
394.10	1011.11
394.29	1137.50
394.49	1025.15
394.68	1093.03
394.88	1095.37
395.07	1158.57
395.26	1188.99
395.46	1071.97
395.65	1172.61
395.84	1193.67
396.04	1165.59
396.23	1104.73
396.42	1128.14
396.62	1184.31
396.81	1191.33
397.00	1144.52
397.19	1268.57
397.39	1153.88
397.58	1317.72
397.77	1210.06
397.97	1263.89
398.16	1186.65
398.35	1280.27
398.55	1273.25
398.74	1263.89
398.93	1348.15
399.12	1277.93
399.32	1355.17
399.51	1270.91
399.70	1294.32
399.90	1322.40
400.09	1359.85
400.28	1380.92
400.47	1383.26
400.67	1345.81
400.86	1437.09
401.05	1394.96
401.24	1507.30
401.44	1430.07
401.63	1481.56
401.82	1373.89
402.01	1413.68
402.21	1409.00
402.40	1451.13
402.59	1444.11
402.78	1474.54
402.97	1530.71
403.17	1530.71
403.36	1533.05
403.55	1565.82
403.74	1565.82
403.93	1661.78
404.13	1591.56
404.32	1619.65
404.51	1500.28
404.70	1626.67
404.89	1600.93
405.09	1757.74
405.28	1600.93
405.47	1692.21
405.66	1687.53
405.85	1753.06
406.05	1614.97
406.24	1785.83
406.43	1748.38
406.62	1736.68
406.81	1820.94
407.00	1715.61
407.20	1755.40
407.39	1739.02
407.58	1760.08
407.77	1813.92
407.96	1795.19
408.15	1830.30
408.34	1776.47
408.54	1846.68
408.73	1954.35
408.92	1872.43
409.11	1877.11
409.30	1867.75
409.49	1989.46
409.68	1980.09
409.87	1900.52
410.07	2033.93
410.26	2043.29
410.45	2050.31
410.64	1996.48
410.83	2099.46
411.02	2097.12
411.21	2172.02
411.40	2162.66
411.59	2251.60
411.78	2211.81
411.98	2183.72
412.17	2165.00
412.36	2265.64
412.55	2176.70
412.74	2324.15
412.93	2277.34
413.12	2326.49
413.31	2406.07
413.50	2260.96
413.69	2361.60
413.88	2403.73
414.07	2415.43
414.26	2495.01
414.45	2530.12
414.64	2413.09
414.83	2525.44
415.02	2476.29
415.22	2434.16
415.41	2656.51
415.60	2574.59
415.79	2600.34
415.98	2663.53
416.17	2703.32
416.36	2715.02
416.55	2722.04
416.74	2782.90
416.93	2729.06
417.12	2771.19
417.31	2775.88
417.50	2768.85
417.69	2848.43
417.88	2946.73
418.07	2883.54
418.26	2939.71
418.45	2724.38
418.64	3000.57
418.83	2951.42
419.02	2998.23
419.21	3023.97
419.39	3070.78
419.58	3023.97
419.77	2930.35
419.96	3176.11
420.15	3026.31
420.34	3119.93
420.53	3080.14
420.72	3166.74
420.91	3220.58
421.10	3171.43
421.29	3199.51
421.48	3145.68
421.67	3183.13
421.86	3255.69
422.05	3225.26
422.24	3255.69
422.43	3176.11
422.61	3286.11
422.80	3370.37
422.99	3384.41
423.18	3412.50
423.37	3552.93
423.56	3377.39
423.75	3283.77
423.94	3251.00
424.13	3246.32
424.32	3236.96
424.50	3426.54
424.69	3543.57
424.88	3363.35
425.07	3258.03
425.26	3344.63
425.45	3346.97
425.64	3358.67
425.83	3323.56
426.01	3389.10
426.20	3382.07
426.39	3496.76
426.58	3379.73
426.77	3325.90
426.96	3468.67
427.15	3487.40
427.33	3442.93
427.52	3501.44
427.71	3552.93
427.90	3407.82
428.09	3503.78
428.28	3676.98
428.46	3625.49
428.65	3651.24
428.84	3667.62
429.03	3676.98
429.22	3531.87
429.40	3543.57
429.59	3665.28
429.78	3648.90
429.97	3571.66
430.16	3691.02
430.34	3765.92
430.53	3819.75
430.72	3906.35
430.91	3688.68
431.10	3735.50
431.28	3925.08
431.47	3868.91
431.66	3934.44
431.85	3899.33
432.03	3960.19
432.22	3925.08
432.41	3990.61
432.60	4063.17
432.79	4002.32
432.97	3999.98
433.16	3927.42
433.35	3960.19
433.54	4053.81
433.72	4011.68
433.91	4070.19
434.10	4189.56
434.28	4252.75
434.47	4217.65
434.66	4177.86
434.85	4250.41
435.03	4189.56
435.22	4229.35
435.41	4327.65
435.59	4276.16
435.78	4224.67
435.97	4257.43
436.16	4428.29
436.34	4217.65
436.53	4276.16
436.72	4519.57
436.90	4301.90
437.09	4465.74
437.28	4344.03
437.46	4367.44
437.65	4451.70
437.84	4479.79
438.02	4496.17
438.21	4440.00
438.40	4566.39
438.58	4594.47
438.77	4762.99
438.96	4580.43
439.14	4559.36
439.33	4816.82
439.52	4816.82
439.70	4901.08
439.89	4954.91
440.08	4992.36
440.26	4990.02
440.45	4957.25
440.63	4908.10
440.82	4994.70
441.01	4999.38
441.19	5036.83
441.38	5144.50
441.57	5233.44
441.75	5205.35
441.94	5383.23
442.12	5235.78
442.31	5228.76
442.50	5472.17
442.68	5200.67
442.87	5195.99
443.05	5336.42
443.24	5476.85
443.43	5467.49
443.61	5448.77
443.80	5589.20
443.98	5191.31
444.17	5228.76
444.35	5352.81
444.54	5664.10
444.73	5378.55
444.91	5488.56
445.10	5479.19
445.28	5481.53
445.47	5451.11
445.65	5479.19
445.84	5561.11
446.02	5631.33
446.21	5666.44
446.39	5460.47
446.58	5678.14
446.77	5668.78
446.95	5479.19
447.14	5575.16
447.32	5645.37
447.51	5661.76
447.69	5664.10
447.88	5659.42
448.06	5731.97
448.25	5671.12
448.43	5727.29
448.62	5830.27
448.80	5633.67
448.99	5905.17
449.17	5729.63
449.36	5671.12
449.54	5937.94
449.73	5944.96
449.91	5996.45
450.10	5902.83
450.28	6085.39
450.46	6008.16
450.65	6050.28
450.83	6059.65
451.02	6022.20
451.20	6064.33
451.39	5914.53
451.57	5858.36
451.76	6015.18
451.94	6202.42
452.13	6267.95
452.31	6104.12
452.49	5879.43
452.68	6242.21
452.86	6136.88
453.05	6047.94
453.23	6221.14
453.42	6188.38
453.60	6099.44
453.78	6251.57
453.97	6176.67
454.15	6214.12
454.34	6209.44
454.52	6303.06
454.70	6370.94
454.89	6363.92
455.07	6373.28
455.26	6597.97
455.44	6504.35
455.62	6502.01
455.81	6607.33
455.99	6724.36
456.17	6775.85
456.36	6878.83
456.54	6698.61
456.73	6712.66
456.91	6857.77
457.09	6876.49
457.28	6792.23
457.46	6731.38
457.64	6937.35
457.83	7030.97
458.01	6829.68
458.19	7037.99
458.38	6878.83
458.56	7045.01
458.74	7108.21
458.93	7117.57
459.11	7187.79
459.29	7096.50
459.48	7028.63
459.66	7101.19
459.84	7110.55
460.03	7241.62
460.21	7117.57
460.39	7215.87
460.57	7370.35
460.76	7384.39
460.94	7295.45
461.12	7316.51
461.31	7246.30
461.49	7461.63
461.67	7363.33
461.85	7391.41
462.04	7403.11
462.22	7693.34
462.40	7552.91
462.59	7597.38
462.77	7590.36
462.95	7620.78
463.13	7499.08
463.32	7644.19
463.50	7651.21
463.68	7674.62
463.86	7634.83
464.05	7602.06
464.23	7639.51
464.41	7765.90
464.59	7866.54
464.78	8074.85
464.96	7950.80
465.14	7751.85
465.32	7751.85
465.50	7882.92
465.69	7737.81
465.87	7946.12
466.05	7887.61
466.23	7889.95
466.41	8093.57
466.60	8091.23
466.78	7953.14
466.96	8037.40
467.14	8189.53
467.32	8109.96
467.51	8344.01
467.69	7939.10
467.87	8088.89
468.05	8322.94
468.23	8266.77
468.41	8367.42
468.60	8241.03
468.78	8315.92
468.96	8294.86
469.14	8318.26
469.32	8425.93
469.50	8168.47
469.69	8435.29
469.87	8472.74
470.05	8519.55
470.23	8603.81
470.41	8477.42
470.59	8723.18
470.77	8725.52
470.95	8711.47
471.14	8638.92
471.32	8683.39
471.50	8755.94
471.68	8915.10
471.86	8798.07
472.04	8812.12
472.22	9057.87
472.40	8952.55
472.58	8992.34
472.77	9085.96
472.95	9151.49
473.13	9460.45
473.31	9308.31
473.49	9158.52
473.67	9114.05
473.85	9240.44
474.03	9518.96
474.21	9652.37
474.39	9462.79
474.57	9694.50
474.75	9731.95
474.93	9694.50
475.12	9617.26
475.30	9947.28
475.48	9785.78
475.66	9895.78
475.84	9760.03
476.02	10012.81
476.20	9874.72
476.38	10312.40
476.56	10511.35
476.74	10265.59
476.92	10207.08
477.10	10347.51
477.28	10616.67
477.46	10441.13
477.64	10551.14
477.82	10733.70
478.00	11033.29
478.18	10705.61
478.36	10787.53
478.54	11101.16
478.72	11066.05
478.90	11248.61
479.08	11363.30
479.26	11281.38
479.44	11349.26
479.62	11358.62
479.80	11522.46
479.98	11597.35
480.16	11831.41
480.34	11819.71
480.52	12035.03
480.70	11922.69
480.88	11889.92
481.06	12088.87
481.24	11927.37
481.41	12196.53
481.59	12360.37
481.77	12592.08
481.95	12720.81
482.13	12765.28
482.31	12760.60
482.49	13020.40
482.67	13111.68
482.85	12992.31
483.03	13284.88
483.21	13441.70
483.39	13341.05
483.57	13408.93
483.74	13582.13
483.92	13437.02
484.10	13488.51
484.28	13832.57
484.46	14104.07
484.64	14040.87
484.82	14188.33
485.00	14429.40
485.18	14569.83
485.35	14831.97
485.53	14785.16
485.71	14874.10
485.89	14946.66
486.07	14986.45
486.25	15117.52
486.43	15075.39
486.61	15318.81
486.78	15309.44
486.96	15604.35
487.14	15653.50
487.32	15726.06
487.50	16121.61
487.68	15873.51
487.85	16084.16
488.03	16456.31
488.21	16458.65
488.39	16524.18
488.57	16791.00
488.75	16868.24
488.92	17090.59
489.10	17090.59
489.28	17174.85
489.46	17326.99
489.64	17249.75
489.81	17865.31
489.99	17755.30
490.17	17799.77
490.35	18052.55
490.53	17907.44
490.70	18270.22
490.88	18045.53
491.06	18513.64
491.24	18382.57
491.41	18630.66
491.59	18682.16
491.77	18649.39
491.95	18895.14
492.13	19080.05
492.30	19286.01
492.48	19487.30
492.66	19393.68
492.84	19262.61
493.01	19398.36
493.19	19543.47
493.37	19946.05
493.54	20006.90
493.72	19981.15
493.90	20049.03
494.08	20280.74
494.25	20294.79
494.43	20489.05
494.61	20678.63
494.79	20695.02
494.96	20723.10
495.14	20964.18
495.32	21198.23
495.49	20769.91
495.67	21198.23
495.85	21350.37
496.02	21624.21
496.20	21685.06
496.38	22031.46
496.55	21696.77
496.73	22396.59
496.91	22024.44
497.09	22010.40
497.26	22160.19
497.44	22338.07
497.62	22876.40
497.79	22656.39
497.97	22590.85
498.14	22972.36
498.32	22892.78
498.50	23257.90
498.67	23222.80
498.85	23190.03
499.03	23534.09
499.20	23414.72
499.38	23398.34
499.56	23791.55
499.73	23494.30
499.91	23882.83
500.08	24243.27
500.26	23910.91
500.44	24137.94
500.61	24308.80
500.79	24058.37
500.97	24439.87
501.14	24924.36
501.32	25081.18
501.49	24297.10
501.67	24854.15
501.84	25027.35
502.02	25095.22
502.20	24844.79
502.37	24905.64
502.55	24854.15
502.72	25015.65
502.90	25074.16
503.07	25095.22
503.25	25689.72
503.43	25458.01
503.60	25745.89
503.78	25603.12
503.95	25764.62
504.13	26113.36
504.30	25900.37
504.48	25912.07
504.65	26017.40
504.83	26115.70
505.01	26403.58
505.18	26518.27
505.36	26710.19
505.53	26504.23
505.71	26672.74
505.88	26522.95
506.06	26586.15
506.23	26838.92
506.41	26670.40
506.58	26771.05
506.76	27126.81
506.93	27152.55
507.11	27318.73
507.28	27681.52
507.46	27557.47
507.63	27557.47
507.81	28030.26
507.98	27669.81
508.16	27384.27
508.33	28091.11
508.50	28056.00
508.68	27754.07
508.85	28151.96
509.03	27824.29
509.20	27882.80
509.38	28533.47
509.55	28154.30
509.73	28402.40
509.90	28512.41
510.08	28166.01
510.25	28973.49
510.42	29235.63
510.60	28886.89
510.77	29095.20
510.95	29483.73
511.12	28975.83
511.30	29078.82
511.47	29338.62
511.64	29207.55
511.82	29713.10
511.99	29186.48
512.17	29418.19
512.34	29446.28
512.51	29898.00
512.69	30258.45
512.86	29769.27
513.04	29956.52
513.21	30349.73
513.38	30232.70
513.56	30705.49
513.73	30288.87
513.90	30539.31
514.08	30408.24
514.25	30658.68
514.43	31269.56
514.60	31056.57
514.77	30939.54
514.95	31044.87
515.12	30958.27
515.29	30841.24
515.47	31414.67
515.64	31269.56
515.81	31208.70
515.99	31402.97
516.16	31775.11
516.33	31384.24
516.51	31648.72
516.68	31637.02
516.85	31620.64
517.03	31875.76
517.20	31871.07
517.37	32046.62
517.54	32077.04
517.72	31732.98
517.89	32268.97
518.06	32112.15
518.24	32301.73
518.41	32002.14
518.58	32067.68
518.75	31873.42
518.93	32194.07
519.10	32486.64
519.27	32423.44
519.45	32800.27
519.62	32620.05
519.79	32781.54
519.96	32809.63
520.14	32741.75
520.31	32570.90
520.48	33083.47
520.65	33347.95
520.83	33701.37
521.00	33406.47
521.17	33682.65
521.34	33546.90
521.52	33518.81
521.69	33708.40
521.86	33935.43
522.03	34033.73
522.20	34494.82
522.38	34436.30
522.55	34178.84
522.72	34007.98
522.89	34015.01
523.07	34508.86
523.24	34422.26
523.41	34478.43
523.58	34256.08
523.75	34822.49
523.92	34682.06
524.10	34476.09
524.27	34698.44
524.44	35136.12
524.61	34717.17
524.78	34632.91
524.96	34923.13
525.13	35161.87
525.30	35367.84
525.47	35211.02
525.64	35594.87
525.81	35461.46
525.98	35414.65
526.16	35503.59
526.33	35206.34
526.50	35894.46
526.67	35606.57
526.84	35679.13
527.01	35641.68
527.18	35934.24
527.36	35744.66
527.53	35728.28
527.70	36191.70
527.87	36739.39
528.04	35999.78
528.21	36055.95
528.38	35985.74
528.55	36060.63
528.72	36077.02
528.89	36301.71
529.07	36484.27
529.24	35728.28
529.41	36818.97
529.58	36556.83
529.75	36610.66
529.92	36830.67
530.09	36706.62
530.26	36701.94
530.43	37074.09
530.60	36273.62
530.77	36662.15
530.94	36917.27
531.11	36996.85
531.28	36575.55
531.46	36891.52
531.63	37106.85
531.80	37041.32
531.97	37390.06
532.14	37263.67
532.31	36999.19
532.48	37525.81
532.65	37486.02
532.82	37635.81
532.99	37429.85
533.16	37275.37
533.33	37673.26
533.50	38124.99
533.67	38143.71
533.84	37844.12
534.01	38059.45
534.18	37661.56
534.35	38136.69
534.52	38237.33
534.69	38497.13
534.86	38127.33
535.03	38319.25
535.20	38380.10
535.37	38759.27
535.54	38586.07
535.71	38302.87
535.88	38763.95
536.05	38590.75
536.22	38583.73
536.38	39129.08
536.55	38958.22
536.72	38684.37
536.89	38761.61
537.06	38902.04
537.23	38763.95
537.40	38693.74
537.57	38478.41
537.74	38824.81
537.91	39388.88
538.08	39150.14
538.25	38213.93
538.42	39328.02
538.59	39428.66
538.75	39023.75
538.92	39667.40
539.09	39601.86
539.26	39651.02
539.43	39367.81
539.60	39793.79
539.77	39824.22
539.94	39943.58
540.11	39695.49
540.28	39660.38
540.44	39978.69
540.61	39613.57
540.78	39758.68
540.95	39812.51
541.12	39885.07
541.29	39442.71
541.46	39789.11
541.62	40074.65
541.79	40238.49
541.96	39765.70
542.13	40053.59
542.30	39999.76
542.47	40240.83
542.63	40069.97
542.80	40847.03
542.97	40727.66
543.14	40720.64
543.31	40435.10
543.48	41048.32
543.64	41015.55
543.81	40830.65
543.98	40788.52
544.15	40751.07
544.32	41186.41
544.48	41497.70
544.65	41155.98
544.82	41209.81
544.99	40931.29
545.16	41223.86
545.32	41085.76
545.49	41720.05
545.66	41471.95
545.83	42024.32
546.00	41663.88
546.16	41593.66
546.33	41352.58
546.50	41603.02
546.67	41970.49
546.83	40872.78
547.00	41270.67
547.17	41329.18
547.34	41429.82
547.50	42335.61
547.67	42330.93
547.84	42054.75
548.00	41736.43
548.17	42401.14
548.34	42246.67
548.51	42415.19
548.67	42188.16
548.84	42131.98
549.01	41813.67
549.18	42663.28
549.34	42438.59
549.51	42305.18
549.68	42263.05
549.84	42384.76
550.01	42483.06
550.18	42298.16
550.34	42408.17
550.51	42747.54
550.68	42663.28
550.84	42389.44
551.01	42684.35
551.18	42693.71
551.34	42885.64
551.51	42686.69
551.68	42810.74
551.84	42703.07
552.01	42632.86
552.18	43075.22
552.34	43035.43
552.51	43288.21
552.68	42717.12
552.84	42665.63
553.01	43154.80
553.18	42824.78
553.34	42810.74
553.51	43082.24
553.67	43421.62
553.84	43086.92
554.01	43709.50
554.17	43428.64
554.34	43299.91
554.51	43526.94
554.67	43632.27
554.84	43835.89
555.00	43517.58
555.17	43433.32
555.33	43475.45
555.50	43854.62
555.67	43845.26
555.83	43871.00
556.00	44002.07
556.16	44018.46
556.33	44009.09
556.50	43660.35
556.66	43723.55
556.83	43281.19
556.99	44266.55
557.16	44149.53
557.32	44416.35
557.49	44449.11
557.65	43966.96
557.82	44002.07
557.98	44179.95
558.15	43758.66
558.32	43906.11
558.48	44254.85
558.65	44074.63
558.81	44313.36
558.98	43643.97
559.14	44198.68
559.31	44362.51
559.47	44203.36
559.64	44126.12
559.80	44528.69
559.97	44463.16
560.13	44020.80
560.30	44011.43
560.46	44664.44
560.63	45200.43
560.79	44636.36
560.96	44800.19
561.12	44676.15
561.29	44701.89
561.45	44573.16
561.61	44488.90
561.78	44907.86
561.94	44608.27
562.11	44708.91
562.27	44582.52
562.44	44821.26
562.60	44655.08
562.77	45118.51
562.93	44996.80
563.10	45130.21
563.26	44285.28
563.42	45191.06
563.59	44961.69
563.75	44854.03
563.92	45048.29
564.08	44767.43
564.24	45130.21
564.41	45319.79
564.57	45275.32
564.74	45017.86
564.90	45052.97
565.07	45237.87
565.23	44729.98
565.39	44823.60
565.56	45081.06
565.72	44678.49
565.88	44907.86
566.05	45095.10
566.21	45411.07
566.38	45256.60
566.54	45219.15
566.70	45523.42
566.87	45027.23
567.03	45148.93
567.19	45291.71
567.36	45146.59
567.52	45476.61
567.68	45413.41
567.85	45446.18
568.01	45251.92
568.17	45504.70
568.34	45495.33
568.50	45205.11
568.66	45102.12
568.83	45378.31
568.99	45511.72
569.15	45277.66
569.32	45106.80
569.48	45139.57
569.64	45696.62
569.81	45834.71
569.97	45661.51
570.13	45631.08
570.30	45549.17
570.46	45729.39
570.62	45890.88
570.78	45588.95
570.95	45265.96
571.11	45801.94
571.27	45507.04
571.43	45675.55
571.60	45518.74
571.76	45631.08
571.92	45310.43
572.09	45628.74
572.25	45553.85
572.41	45338.52
572.57	45345.54
572.74	46040.68
572.90	45523.42
573.06	46019.61
573.22	45649.81
573.38	45860.46
573.55	46134.30
573.71	46536.87
573.87	45729.39
574.03	46113.23
574.20	46363.67
574.36	45691.94
574.52	45745.77
574.68	45897.91
574.84	46256.01
575.01	45757.47
575.17	46038.34
575.33	45949.40
575.49	45528.10
575.65	45991.53
575.82	45764.49
575.98	45701.30
576.14	46134.30
576.30	46256.01
576.46	46270.05
576.62	45949.40
576.79	46103.87
576.95	45820.67
577.11	45680.24
577.27	46078.13
577.43	45731.73
577.59	45951.74
577.75	46021.95
577.92	45595.98
578.08	45911.95
578.24	45848.75
578.40	46452.61
578.56	46347.29
578.72	45979.82
578.88	46059.40
579.04	46501.76
579.21	45851.09
579.37	45935.35
579.53	45942.38
579.69	46021.95
579.85	45883.86
580.01	46026.63
580.17	46066.42
580.33	46307.50
580.49	46089.83
580.65	46227.92
580.82	46101.53
580.98	45663.85
581.14	45886.20
581.30	46270.05
581.46	46005.57
581.62	46047.70
581.78	46045.36
581.94	46300.48
582.10	46096.85
582.26	46401.12
582.42	46527.51
582.58	46323.88
582.74	46000.89
582.90	46192.81
583.06	46621.13
583.22	45858.12
583.38	46380.06
583.54	46429.21
583.70	46349.63
583.86	46153.02
584.02	46031.32
584.18	46288.77
584.34	46412.82
584.50	46546.23
584.66	46513.47
584.82	46593.04
584.98	46506.44
585.14	46588.36
585.30	46401.12
585.46	46337.93
585.62	46382.40
585.78	46391.76
585.94	46422.19
586.10	45947.06
586.26	46129.62
586.42	46478.36
586.58	46160.05
586.74	46232.60
586.90	46010.25
587.06	46337.93
587.22	46796.67
587.38	45982.16
587.54	46429.21
587.70	46330.90
587.86	46539.21
588.02	46155.36
588.18	46218.56
588.34	46298.14
588.49	46691.35
588.65	46110.89
588.81	46550.91
588.97	46763.90
589.13	46351.97
589.29	46234.94
589.45	46298.14
589.61	46471.34
589.77	46820.08
589.93	46574.32
590.08	46405.80
590.24	46878.59
590.40	46995.62
590.56	46899.65
590.72	47014.34
590.88	46412.82
591.04	46604.75
591.20	46932.42
591.35	46887.95
591.51	47423.93
591.67	47047.11
591.83	47058.81
591.99	46913.70
592.15	46684.33
592.31	46782.63
592.46	46885.61
592.62	47000.30
592.78	46628.15
592.94	47178.18
593.10	47269.46
593.26	47054.13
593.41	46817.74
593.57	46508.79
593.73	46932.42
593.89	47009.66
594.05	47004.98
594.20	47224.99
594.36	47021.36
594.52	46693.69
594.68	47215.63
594.84	46925.40
594.99	47262.44
595.15	47248.39
595.31	47187.54
595.47	46686.67
595.62	47117.32
595.78	46822.42
595.94	46958.17
596.10	47051.79
596.25	47452.02
596.41	47201.58
596.57	46911.36
596.73	47217.97
596.88	47215.63
597.04	47098.60
597.20	47477.77
597.36	46930.08
597.51	46773.27
597.67	47019.02
597.83	47344.36
597.99	47002.64
598.14	46656.24
598.30	46995.62
598.46	47178.18
598.61	47379.46
598.77	47339.68
598.93	46904.34
599.09	47030.72
599.24	47400.53
599.40	47175.84
599.56	47056.47
599.71	47564.37
599.87	47374.78
600.03	47229.67
600.18	47143.07
600.34	47271.80
600.50	47557.35
600.65	47210.95
600.81	47470.75
600.97	47325.63
601.12	47732.89
601.28	47456.70
601.44	47105.62
601.59	47124.35
601.75	47243.71
601.91	46960.51
602.06	47136.05
602.22	47304.57
602.37	47356.06
602.53	47445.00
602.69	47770.33
602.84	47072.85
603.00	47241.37
603.16	47164.14
603.31	47367.76
603.47	47295.21
603.62	47526.92
603.78	47311.59
603.94	47145.41
604.09	47290.52
604.25	46803.69
604.40	47173.50
604.56	47145.41
604.71	47400.53
604.87	47096.26
605.03	46909.02
605.18	47161.79
605.34	47590.11
605.49	47334.99
605.65	47012.00
605.80	47103.28
605.96	47379.46
606.12	47035.41
606.27	47264.78
606.43	47229.67
606.58	47122.01
606.74	46745.18
606.89	47061.15
607.05	47419.25
607.20	47278.82
607.36	46813.05
607.51	46913.70
607.67	46990.94
607.82	47187.54
607.98	46810.71
608.13	46946.47
608.29	46873.91
608.44	46995.62
608.60	46838.80
608.75	46824.76
608.91	46649.22
609.06	46569.64
609.22	46918.38
609.37	46679.64
609.53	47299.89
609.68	46719.43
609.84	46803.69
609.99	47058.81
610.15	46866.89
610.30	46995.62
610.46	46911.36
610.61	46810.71
610.76	46878.59
610.92	46990.94
611.07	46770.93
611.23	46557.94
611.38	46541.55
611.54	46791.99
611.69	46663.26
611.84	47126.69
612.00	46733.48
612.15	46513.47
612.31	46894.97
612.46	46347.29
612.62	46614.11
612.77	46681.98
612.92	46953.49
613.08	46532.19
613.23	47072.85
613.39	46590.70
613.54	46803.69
613.69	46735.82
613.85	46866.89
614.00	46522.83
614.15	46894.97
614.31	46059.40
614.46	46525.17
614.62	45972.80
614.77	46457.29
614.92	46553.26
615.08	46199.83
615.23	46157.70
615.38	46522.83
615.54	46541.55
615.69	46667.94
615.84	46351.97
616.00	46808.37
616.15	46527.51
616.30	46536.87
616.46	46298.14
616.61	46424.53
616.76	46553.26
616.92	46656.24
617.07	46686.67
617.22	46234.94
617.37	46052.38
617.53	46188.13
617.68	45869.82
617.83	46131.96
617.99	46672.62
618.14	46267.71
618.29	46089.83
618.45	46150.68
618.60	45724.71
618.75	45773.86
618.90	46162.39
619.06	45925.99
619.21	45708.32
619.36	46307.50
619.51	46110.89
619.67	45710.66
619.82	45851.09
619.97	45825.35
620.12	45904.93
620.28	45563.21
620.43	46082.81
620.58	46375.37
620.73	46068.76
620.89	46328.56
621.04	46195.15
621.19	45944.72
621.34	45464.91
621.49	45640.45
621.65	45841.73
621.80	45694.28
621.95	45511.72
622.10	46272.39
622.25	45837.05
622.41	45485.97
622.56	44982.76
622.71	45603.00
622.86	45591.30
623.01	45357.24
623.16	45425.12
623.32	45464.91
623.47	45310.43
623.62	45153.62
623.77	45851.09
623.92	45670.87
624.07	45413.41
624.23	45275.32
624.38	45434.48
624.53	45418.10
624.68	44797.85
624.83	45200.43
624.98	45078.72
625.13	44931.26
625.29	44835.30
625.44	45097.44
625.59	45457.88
625.74	45085.74
625.89	44626.99
626.04	44952.33
626.19	44720.62
626.34	45099.78
626.49	45113.83
626.65	44636.36
626.80	45233.19
626.95	44619.97
627.10	45006.16
627.25	44720.62
627.40	44847.00
627.55	44957.01
627.70	45144.25
627.85	44706.57
628.00	44811.90
628.15	44697.21
628.30	44458.48
628.45	44343.79
628.60	44322.72
628.76	44439.75
628.91	44444.43
629.06	44292.30
629.21	44287.62
629.36	44774.45
629.51	44250.17
629.66	44626.99
629.81	44114.42
629.96	44554.44
630.11	44332.09
630.26	44385.92
630.41	44776.79
630.56	44009.09
630.71	44257.19
630.86	44388.26
631.01	44203.36
631.16	44229.10
631.31	43978.67
631.46	44004.41
631.61	44350.81
631.76	44208.04
631.91	44144.84
632.06	44591.89
632.21	43908.45
632.36	44655.08
632.51	43814.83
632.66	44444.43
632.81	44179.95
632.96	44128.46
633.10	43971.64
633.25	43959.94
633.40	44072.29
633.55	43718.87
633.70	43805.47
633.85	43576.09
634.00	43363.11
634.15	43992.71
634.30	43454.39
634.45	43578.43
634.60	43643.97
634.75	44079.31
634.90	43894.41
635.05	44156.55
635.19	43632.27
635.34	43793.76
635.49	43320.98
635.64	43220.33
635.79	43629.93
635.94	43545.67
636.09	43929.51
636.24	43297.57
636.39	43515.24
636.53	43929.51
636.68	43288.21
636.83	42988.62
636.98	43416.94
637.13	42918.40
637.28	42742.86
637.43	42829.46
637.57	42960.53
637.72	42965.21
637.87	42784.99
638.02	43318.64
638.17	43168.84
638.32	42696.05
638.46	42810.74
638.61	42733.50
638.76	42728.82
638.91	42604.77
639.06	42431.57
639.20	42457.32
639.35	42878.61
639.50	42679.67
639.65	43346.72
639.80	42663.28
639.94	42564.98
640.09	43147.78
640.24	43182.88
640.39	42185.82
640.54	42270.08
640.68	42679.67
640.83	42782.65
640.98	42518.17
641.13	42417.53
641.27	42981.60
641.42	42396.46
641.57	42511.15
641.72	42351.99
641.86	42057.09
642.01	41897.93
642.16	42108.58
642.31	42101.56
642.45	42167.09
642.60	41860.48
642.75	42171.77
642.90	42639.88
643.04	42588.39
643.19	42134.32
643.34	41813.67
643.48	42000.91
643.63	41937.72
643.78	42211.56
643.93	42319.23
644.07	42167.09
644.22	42368.38
644.37	42115.60
644.51	42171.77
644.66	41818.35
644.81	42129.64
644.95	41867.50
645.10	41853.46
645.25	41736.43
645.39	41724.73
645.54	41766.86
645.69	41776.22
645.83	41399.40
645.98	41289.39
646.13	41172.36
646.27	41446.21
646.42	40989.80
646.57	41397.06
646.71	41759.84
646.86	41900.27
647.00	41560.89
647.15	41698.98
647.30	41558.55
647.44	41462.59
647.59	41235.56
647.74	41490.68
647.88	41408.76
648.03	41619.41
648.17	41769.20
648.32	41350.24
648.47	41867.50
648.61	41308.11
648.76	41326.84
648.90	41076.40
649.05	41420.46
649.20	41345.56
649.34	41085.76
649.49	41163.00
649.63	41439.18
649.78	41282.37
649.92	41155.98
650.07	41380.67
650.21	41240.24
650.36	41429.82
650.51	41289.39
650.65	41125.55
650.80	41366.63
650.94	41111.51
651.09	40912.56
651.23	40566.16
651.38	40725.32
651.52	40409.35
651.67	40861.07
651.81	41010.87
651.96	40620.00
652.10	40919.59
652.25	40315.73
652.39	40694.89
652.54	40507.65
652.68	40657.45
652.83	41074.06
652.97	40811.92
653.12	40818.94
653.26	40189.34
653.41	40591.91
653.55	40498.29
653.70	40655.11
653.84	40617.66
653.99	40418.71
654.13	40327.43
654.27	40416.37
654.42	40556.80
654.56	40261.90
654.71	40355.52
654.85	40933.63
655.00	40086.36
655.14	40545.10
655.29	40631.70
655.43	40474.88
655.57	40046.57
655.72	39583.14
655.86	40112.10
656.01	40224.45
656.15	39824.22
656.30	40135.51
656.44	40336.79
656.58	40449.14
656.73	39894.43
656.87	40020.82
657.01	40048.91
657.16	39620.59
657.30	39950.60
657.45	39601.86
657.59	39449.73
657.73	39316.32
657.88	39814.85
658.02	40025.50
658.16	40069.97
658.31	39887.41
658.45	39674.42
658.60	39583.14
658.74	39573.78
658.88	39643.99
659.03	39381.85
659.17	39133.76
659.31	39365.47
659.46	39108.01
659.60	39241.42
659.74	39370.15
659.89	38820.13
660.03	38918.43
660.17	39220.36
660.32	38653.95
660.46	39342.06
660.60	38712.46
660.74	39005.03
660.89	38939.49
661.03	38574.37
661.17	38368.40
661.32	38038.39
661.46	39267.17
661.60	38389.47
661.74	38087.54
661.89	38403.51
662.03	38763.95
662.17	38457.34
662.31	38398.83
662.46	38520.54
662.60	37904.98
662.74	37893.27
662.88	37787.95
663.03	37780.93
663.17	38026.68
663.31	37874.55
663.45	38012.64
663.60	38431.60
663.74	38089.88
663.88	38059.45
664.02	37827.74
664.17	37979.87
664.31	37432.19
664.45	37443.89
664.59	38068.81
664.73	37467.30
664.88	37411.12
665.02	37324.52
665.16	37266.01
665.30	37483.68
665.44	37443.89
665.59	37020.25
665.73	36987.49
665.87	36748.75
666.01	36964.08
666.15	37249.63
666.29	36945.36
666.44	37191.11
666.58	36706.62
666.72	36795.56
666.86	36460.87
667.00	36708.96
667.14	36655.13
667.28	36580.23
667.43	36617.68
667.57	36641.09
667.71	36856.42
667.85	36973.44
667.99	36854.08
668.13	36224.47
668.27	35704.87
668.41	36306.39
668.56	35648.70
668.70	35929.56
668.84	35828.92
668.98	35718.92
669.12	35796.15
669.26	36100.42
669.40	35899.14
669.54	35438.05
669.68	35627.63
669.82	35412.31
669.96	34965.26
670.10	35138.46
670.25	35526.99
670.39	34965.26
670.53	35402.94
670.67	35278.89
670.81	35445.07
670.95	35323.36
671.09	34873.98
671.23	34881.00
671.37	34771.00
671.51	35075.27
671.65	35028.46
671.79	34696.10
671.93	34754.61
672.07	34539.29
672.21	34808.45
672.35	34202.25
672.49	34639.93
672.63	33736.48
672.77	33809.04
672.91	34089.90
673.05	34188.21
673.19	34110.97
673.33	33694.35
673.47	33495.41
673.61	33619.46
673.75	33259.01
673.89	33460.30
674.03	33605.41
674.17	33057.73
674.31	33219.22
674.45	33415.83
674.59	33287.10
674.73	33345.61
674.87	32884.53
675.01	32835.38
675.15	32407.06
675.29	32561.53
675.43	32535.79
675.56	32795.59
675.70	32594.30
675.84	32355.57
675.98	31297.64
676.12	32081.72
676.26	32252.58
676.40	31793.84
676.54	31772.77
676.68	32063.00
676.82	31367.86
676.96	31686.17
677.10	31913.20
677.23	31819.58
677.37	31339.77
677.51	31578.51
677.65	31264.88
677.79	31058.91
677.93	31402.97
678.07	31082.31
678.21	30845.92
678.34	30597.82
678.48	30452.71
678.62	31033.16
678.76	30473.78
678.90	30658.68
679.04	30218.66
679.18	30520.59
679.31	30153.12
679.45	30167.16
679.59	29965.88
679.73	29528.20
679.87	29582.03
680.00	29539.90
680.14	29535.22
680.28	29315.21
680.42	29275.42
680.56	29465.00
680.70	29064.77
680.83	29149.03
680.97	28741.78
681.11	29228.61
681.25	28662.20
681.39	28470.28
681.52	28627.09
681.66	28608.37
681.80	28116.86
681.94	28018.55
682.07	28046.64
682.21	27924.93
682.35	27838.33
682.49	28142.60
682.62	27910.89
682.76	27798.54
682.90	27854.72
683.04	27700.24
683.17	27515.34
683.31	27756.41
683.45	27377.25
683.59	27194.68
683.72	26757.00
683.86	26717.22
684.00	26677.43
684.13	26698.49
684.27	26874.03
684.41	26396.56
684.55	26703.17
684.68	26305.28
684.82	26235.06
684.96	26183.57
685.09	26309.96
685.23	26078.25
685.37	26628.27
685.50	25788.02
685.64	26139.10
685.78	26008.03
685.91	25788.02
686.05	25570.35
686.19	25308.21
686.32	25006.28
686.46	25064.80
686.60	24687.97
686.73	25263.74
686.87	24788.61
687.01	25177.14
687.14	25010.96
687.28	24891.60
687.42	24947.77
687.55	24364.98
687.69	24301.78
687.82	24388.38
687.96	24224.54
688.10	24411.79
688.23	24390.72
688.37	24170.71
688.50	24325.19
688.64	23559.83
688.78	23484.94
688.91	23524.72
689.05	23548.13
689.18	23040.23
689.32	22995.76
689.46	22806.18
689.59	22991.08
689.73	23396.00
689.86	23007.47
690.00	22890.44
690.13	23183.01
690.27	22831.93
690.41	22710.22
690.54	22497.23
690.68	22349.78
690.81	21996.35
690.95	22256.15
691.08	22424.67
691.22	22022.10
691.35	21916.78
691.49	22281.90
691.62	22097.00
691.76	21221.64
691.89	21322.28
692.03	21099.93
692.16	20961.84
692.30	21212.28
692.43	21207.59
692.57	21324.62
692.70	20732.47
692.84	20933.75
692.97	21010.99
693.11	20805.02
693.24	20547.56
693.38	20678.63
693.51	20608.42
693.65	20325.21
693.78	19929.66
693.92	20011.58
694.05	20350.96
694.19	20135.63
694.32	20170.74
694.45	20390.75
694.59	20044.35
694.72	19903.92
694.86	19513.05
694.99	19332.82
695.13	19365.59
695.26	19168.99
695.39	19199.41
695.53	19178.35
695.66	19381.98
695.80	19044.94
695.93	18977.06
696.07	18445.76
696.20	18920.89
696.33	18707.90
696.47	18387.25
696.60	18321.71
696.73	18431.72
696.87	18679.82
697.00	18310.01
697.14	18527.68
697.27	18059.57
697.40	17823.18
697.54	17895.74
697.67	17930.84
697.80	17809.14
697.94	17448.69
698.07	17605.51
698.21	17385.50
698.34	17652.32
698.47	17610.19
698.61	17041.44
698.74	16915.05
698.87	17053.14
699.01	16791.00
699.14	17097.61
699.27	16982.93
699.40	16964.20
699.54	16868.24
699.67	16545.25
699.80	16755.90
699.94	16578.01
700.07	16255.02
700.20	16503.12
700.34	15936.71
700.47	16292.47
700.60	16353.32
700.73	16170.76
700.87	15751.81
701.00	16037.35
701.13	15873.51
701.26	15674.57
701.40	15796.28
701.53	15323.49
701.66	15550.52
701.79	15639.46
701.93	15154.97
702.06	15257.95
702.19	15073.05
702.32	15255.61
702.46	15084.75
702.59	15447.54
702.72	14902.19
702.85	15211.14
702.99	14855.38
703.12	14597.92
703.25	14558.13
703.38	14712.61
703.51	14422.38
703.65	14567.49
703.78	14078.32
703.91	14218.75
704.04	14136.84
704.17	14094.71
704.31	14108.75
704.44	14181.31
704.57	14073.64
704.70	14120.45
704.83	13692.13
704.96	13474.46
705.10	13624.26
705.23	13795.12
>>>>>End Processed Spectral Data<<<<<
