SpectraSuite Data File
++++++++++++++++++++++++++++++++++++
Date: Fri Oct 25 10:44:43 EDT 2013
User: price-jones
Dark Spectrum Present: No
Reference Spectrum Present: No
Number of Sampled Component Spectra: 1
Spectrometers: USB2+H05261
Integration Time (usec): 100000 (USB2+H05261)
Spectra Averaged: 1 (USB2+H05261)
Boxcar Smoothing: 0 (USB2+H05261)
Correct for Electrical Dark: No (USB2+H05261)
Strobe/Lamp Enabled: No (USB2+H05261)
Correct for Detector Non-linearity: No (USB2+H05261)
Correct for Stray Light: No (USB2+H05261)
Number of Pixels in Processed Spectrum: 2048
>>>>>Begin Processed Spectral Data<<<<<
365.73	208.31
365.92	208.31
366.12	208.31
366.32	65.54
366.52	56.17
366.72	105.32
366.91	0.00
367.11	65.54
367.31	0.00
367.51	0.00
367.70	67.88
367.90	0.00
368.10	0.00
368.30	35.11
368.49	49.15
368.69	49.15
368.89	77.24
369.09	110.01
369.28	60.85
369.48	9.36
369.68	114.69
369.87	91.28
370.07	117.03
370.27	114.69
370.47	201.29
370.66	346.40
370.86	447.04
371.06	402.57
371.25	386.19
371.45	430.66
371.65	393.21
371.84	475.13
372.04	409.59
372.24	498.53
372.44	524.28
372.63	519.60
372.83	484.49
373.03	489.17
373.22	500.87
373.42	573.43
373.62	484.49
373.81	545.34
374.01	489.17
374.21	582.79
374.40	507.90
374.60	624.92
374.79	582.79
374.99	561.73
375.19	545.34
375.38	573.43
375.58	554.71
375.78	559.39
375.97	594.50
376.17	681.10
376.37	599.18
376.56	615.56
376.76	664.71
376.95	613.22
377.15	629.60
377.35	582.79
377.54	592.16
377.74	685.78
377.93	571.09
378.13	643.65
378.33	606.20
378.52	622.58
378.72	622.58
378.91	655.35
379.11	559.39
379.31	657.69
379.50	585.13
379.70	638.97
379.89	615.56
380.09	624.92
380.28	631.94
380.48	699.82
380.68	674.07
380.87	645.99
381.07	648.33
381.26	645.99
381.46	671.73
381.65	706.84
381.85	603.86
382.04	779.40
382.24	683.44
382.43	657.69
382.63	690.46
382.83	709.18
383.02	875.36
383.22	653.01
383.41	734.93
383.61	617.90
383.80	706.84
384.00	683.44
384.19	709.18
384.39	697.48
384.58	723.23
384.78	732.59
384.97	805.14
385.17	758.33
385.36	725.57
385.56	791.10
385.75	704.50
385.95	835.57
386.14	807.48
386.34	779.40
386.53	793.44
386.72	816.85
386.92	901.11
387.11	851.96
387.31	770.04
387.50	828.55
387.70	833.23
387.89	805.14
388.09	819.19
388.28	812.17
388.48	856.64
388.67	889.40
388.86	873.02
389.06	856.64
389.25	891.74
389.45	971.32
389.64	858.98
389.84	917.49
390.03	968.98
390.22	931.53
390.42	901.11
390.61	954.94
390.81	936.21
391.00	952.60
391.19	973.66
391.39	936.21
391.58	940.90
391.78	961.96
391.97	943.24
392.16	987.71
392.36	1022.81
392.55	994.73
392.75	1039.20
392.94	999.41
393.13	971.32
393.33	929.19
393.52	929.19
393.71	1153.88
393.91	1039.20
394.10	1090.69
394.29	1102.39
394.49	1107.07
394.68	1123.46
394.88	1074.31
395.07	1114.10
395.26	983.02
395.46	1121.12
395.65	1170.27
395.84	1153.88
396.04	1163.25
396.23	1163.25
396.42	1071.97
396.62	1055.58
396.81	1090.69
397.00	1139.84
397.19	1146.86
397.39	1242.82
397.58	1308.36
397.77	1242.82
397.97	1308.36
398.16	1219.42
398.35	1315.38
398.55	1280.27
398.74	1324.74
398.93	1392.62
399.12	1306.02
399.32	1343.47
399.51	1336.45
399.70	1331.76
399.90	1345.81
400.09	1418.36
400.28	1390.28
400.47	1345.81
400.67	1364.53
400.86	1446.45
401.05	1469.86
401.24	1420.71
401.44	1523.69
401.63	1540.07
401.82	1521.35
402.01	1558.80
402.21	1533.05
402.40	1549.43
402.59	1516.67
402.78	1526.03
402.97	1530.71
403.17	1500.28
403.36	1661.78
403.55	1610.29
403.74	1680.50
403.93	1713.27
404.13	1732.00
404.32	1673.48
404.51	1706.25
404.70	1713.27
404.89	1668.80
405.09	1652.42
405.28	1734.34
405.47	1687.53
405.66	1746.04
405.85	1767.10
406.05	1818.60
406.24	1743.70
406.43	1802.21
406.62	1895.83
406.81	1933.28
407.00	1823.28
407.20	1853.70
407.39	1863.07
407.58	1914.56
407.77	1874.77
407.96	1881.79
408.15	2043.29
408.34	1984.77
408.54	2108.82
408.73	2038.61
408.92	2031.58
409.11	2136.91
409.30	2113.50
409.49	2174.36
409.68	2186.06
409.87	2019.88
410.07	2029.24
410.26	2143.93
410.45	2209.47
410.64	2326.49
410.83	2270.32
411.02	2209.47
411.21	2328.83
411.40	2392.03
411.59	2324.15
411.78	2382.67
411.98	2387.35
412.17	2366.28
412.36	2377.98
412.55	2368.62
412.74	2497.35
412.93	2459.90
413.12	2441.18
413.31	2551.18
413.50	2520.76
413.69	2499.69
413.88	2626.08
414.07	2628.42
414.26	2658.85
414.45	2576.93
414.64	2696.30
414.83	2647.15
415.02	2841.41
415.22	2750.13
415.41	2820.35
415.60	2860.13
415.79	2846.09
415.98	2869.50
416.17	2925.67
416.36	2909.29
416.55	2956.10
416.74	2953.76
416.93	2862.48
417.12	2913.97
417.31	2916.31
417.50	3000.57
417.69	3101.21
417.88	3061.42
418.07	3094.19
418.26	3169.09
418.45	3066.10
418.64	3213.56
418.83	3283.77
419.02	3150.36
419.21	3183.13
419.39	3201.85
419.58	3185.47
419.77	3143.34
419.96	3311.86
420.15	3225.26
420.34	3234.62
420.53	3300.16
420.72	3480.38
420.91	3412.50
421.10	3492.08
421.29	3557.61
421.48	3365.69
421.67	3379.73
421.86	3372.71
422.05	3356.33
422.24	3318.88
422.43	3480.38
422.61	3447.61
422.80	3620.81
422.99	3508.46
423.18	3639.53
423.37	3576.34
423.56	3527.19
423.75	3463.99
423.94	3574.00
424.13	3372.71
424.32	3339.94
424.50	3700.39
424.69	3562.30
424.88	3686.34
425.07	3674.64
425.26	3590.38
425.45	3447.61
425.64	3538.89
425.83	3602.08
426.01	3648.90
426.20	3698.05
426.39	3681.66
426.58	3623.15
426.77	3620.81
426.96	3466.33
427.15	3672.30
427.33	3754.22
427.52	3611.45
427.71	3688.68
427.90	3850.18
428.09	3796.35
428.28	3784.65
428.46	3796.35
428.65	3770.60
428.84	3936.78
429.03	3985.93
429.22	3840.82
429.40	3723.79
429.59	3899.33
429.78	3676.98
429.97	3705.07
430.16	3859.54
430.34	3901.67
430.53	3875.93
430.72	3880.61
430.91	3943.80
431.10	3983.59
431.28	4126.36
431.47	4128.70
431.66	4126.36
431.85	3967.21
432.03	4184.88
432.22	4390.84
432.41	4257.43
432.60	4229.35
432.79	4362.76
432.97	4257.43
433.16	4395.53
433.35	4201.26
433.54	4369.78
433.72	4353.40
433.91	4292.54
434.10	4458.72
434.28	4252.75
434.47	4383.82
434.66	4538.30
434.85	4479.79
435.03	4386.16
435.22	4500.85
435.41	4762.99
435.59	4540.64
435.78	4624.90
435.97	4589.79
436.16	4540.64
436.34	4587.45
436.53	4718.52
436.72	4645.96
436.90	4601.49
437.09	4732.56
437.28	4678.73
437.46	4830.87
437.65	4533.62
437.84	4835.55
438.02	4720.86
438.21	4674.05
438.40	4561.70
438.58	4926.83
438.77	4847.25
438.96	4950.23
439.14	4903.42
439.33	5149.18
439.52	4968.96
439.70	4975.98
439.89	5121.09
440.08	5114.07
440.26	5320.04
440.45	5207.69
440.63	5214.71
440.82	5462.81
441.01	5240.46
441.19	5488.56
441.38	5535.37
441.57	5451.11
441.75	5561.11
441.94	5699.20
442.12	5652.39
442.31	5916.87
442.50	5724.95
442.68	5741.33
442.87	5687.50
443.05	5813.89
443.24	5902.83
443.43	5806.87
443.61	5664.10
443.80	5930.92
443.98	5827.93
444.17	5589.20
444.35	5900.49
444.54	5888.79
444.73	5804.53
444.91	5738.99
445.10	5919.21
445.28	6129.86
445.47	5853.68
445.65	5921.56
445.84	5881.77
446.02	6132.20
446.21	5994.11
446.39	5987.09
446.58	6125.18
446.77	6087.73
446.95	5895.81
447.14	6017.52
447.32	6054.97
447.51	6038.58
447.69	5966.03
447.88	6064.33
448.06	6017.52
448.25	6139.23
448.43	5968.37
448.62	6061.99
448.80	6005.81
448.99	6218.80
449.17	6143.91
449.36	6164.97
449.54	6204.76
449.73	6312.42
449.91	6401.37
450.10	6604.99
450.28	6534.78
450.46	6431.79
450.65	6530.09
450.83	6403.71
451.02	6375.62
451.20	6626.06
451.39	6427.11
451.57	6487.96
451.76	6478.60
451.94	6469.24
452.13	6670.53
452.31	6703.29
452.49	6511.37
452.68	6670.53
452.86	6534.78
453.05	6436.47
453.23	6658.82
453.42	6541.80
453.60	6654.14
453.78	6920.96
453.97	6766.49
454.15	6707.98
454.34	6623.72
454.52	6672.87
454.70	6682.23
454.89	6832.02
455.07	6897.56
455.26	6970.12
455.44	6988.84
455.62	7049.69
455.81	6958.41
455.99	7133.95
456.17	7035.65
456.36	7077.78
456.54	7274.38
456.73	7091.82
456.91	7353.96
457.09	7330.56
457.28	7571.63
457.46	7232.26
457.64	7290.77
457.83	7368.01
458.01	7138.63
458.19	7246.30
458.38	7269.70
458.56	7691.00
458.74	7651.21
458.93	7487.37
459.11	7414.82
459.29	7527.16
459.48	7543.55
459.66	7454.61
459.84	7517.80
460.03	7714.41
460.21	7611.42
460.39	7590.36
460.57	7609.08
460.76	7831.43
460.94	7817.39
461.12	7939.10
461.31	7749.51
461.49	7660.57
461.67	7803.35
461.85	8021.02
462.04	7892.29
462.22	8077.19
462.40	8100.59
462.59	8011.65
462.77	8152.09
462.95	7911.01
463.13	8262.09
463.32	8114.64
463.50	8131.02
463.68	8138.04
463.86	7934.42
464.05	8116.98
464.23	8133.36
464.41	8238.69
464.59	8131.02
464.78	8414.23
464.96	8365.07
465.14	8145.06
465.32	8524.23
465.50	8542.96
465.69	8636.58
465.87	8322.94
466.05	8269.11
466.23	8627.21
466.41	8369.76
466.60	8521.89
466.78	8322.94
466.96	8491.46
467.14	8498.49
467.32	8564.02
467.51	8826.16
467.69	8531.25
467.87	8629.56
468.05	8498.49
468.23	8748.92
468.41	8762.97
468.60	8837.86
468.78	8805.10
468.96	8683.39
469.14	8903.40
469.32	9022.77
469.50	8849.57
469.69	8952.55
469.87	9109.36
470.05	9188.94
470.23	9085.96
470.41	8997.02
470.59	8924.46
470.77	9135.11
470.95	9137.45
471.14	9298.95
471.32	9071.92
471.50	9451.08
471.68	9521.30
471.86	9254.48
472.04	9404.27
472.22	9757.69
472.40	9423.00
472.58	9635.99
472.77	9570.45
472.95	9837.27
473.13	9919.19
473.31	9689.82
473.49	9657.05
473.67	9753.01
473.85	9722.59
474.03	10052.60
474.21	9998.77
474.39	10068.98
474.57	9886.42
474.75	10148.56
474.93	10319.42
475.12	10197.71
475.30	10305.38
475.48	10230.48
475.66	10246.87
475.84	10588.58
476.02	10445.81
476.20	10373.25
476.38	10436.45
476.56	10923.28
476.74	10815.62
476.92	10712.63
477.10	10752.42
477.28	11136.27
477.46	10888.17
477.64	11253.30
477.82	11190.10
478.00	11325.85
478.18	11480.33
478.36	11487.35
478.54	11604.38
478.72	11541.18
478.90	11925.03
479.08	11880.56
479.26	11957.80
479.44	12138.02
479.62	11939.07
479.80	12521.87
479.98	12053.76
480.16	12507.82
480.34	12379.09
480.52	12475.06
480.70	12989.97
480.88	12556.97
481.06	12753.58
481.24	12830.82
481.41	12964.23
481.59	13179.56
481.77	13174.88
481.95	13301.26
482.13	13207.64
482.31	13376.16
482.49	13596.17
482.67	13626.60
482.85	13738.94
483.03	14015.13
483.21	14108.75
483.39	14354.51
483.57	13811.50
483.74	14277.27
483.92	14230.46
484.10	14253.86
484.28	14457.49
484.46	14860.06
484.64	14906.87
484.82	14616.65
485.00	15192.42
485.18	15056.67
485.35	15449.88
485.53	15042.62
485.71	15016.88
485.89	15066.03
486.07	15508.39
486.25	15454.56
486.43	15749.46
486.61	15782.23
486.78	16166.08
486.96	16049.05
487.14	16533.54
487.32	16126.29
487.50	16538.23
487.68	16610.78
487.85	17149.11
488.03	16727.81
488.21	17317.62
488.39	17111.66
488.57	17184.21
488.75	17472.10
488.92	17722.54
489.10	17900.42
489.28	17813.82
489.46	18192.98
489.64	18022.12
489.81	18452.78
489.99	18560.45
490.17	18693.86
490.35	18843.65
490.53	18745.35
490.70	18939.62
490.88	19068.34
491.06	19005.15
491.24	19346.87
491.41	19140.90
491.59	19473.26
491.77	19288.35
491.95	19510.71
492.13	19749.44
492.30	20063.07
492.48	19955.41
492.66	19969.45
492.84	20060.73
493.01	20407.13
493.19	20159.03
493.37	20631.82
493.54	20790.98
493.72	20954.82
493.90	20812.04
494.08	20978.22
494.25	21619.53
494.43	21261.43
494.61	21495.48
494.79	21727.19
494.96	21638.25
495.14	21851.24
495.32	22136.79
495.49	21813.79
495.67	21745.92
495.85	22410.63
496.02	22513.61
496.20	22497.23
496.38	22504.25
496.55	22394.25
496.73	22981.72
496.91	22609.58
497.09	23063.64
497.26	23318.76
497.44	22906.82
497.62	23250.88
497.79	23693.24
497.97	23543.45
498.14	23679.20
498.32	23627.71
498.50	23775.16
498.67	24159.01
498.85	24058.37
499.03	24329.87
499.20	24149.65
499.38	24269.01
499.56	24547.54
499.73	24451.58
499.91	24844.79
500.08	24666.91
500.26	24676.27
500.44	24624.78
500.61	25120.97
500.79	24357.96
500.97	24886.92
501.14	25046.07
501.32	25420.56
501.49	25371.41
501.67	25317.57
501.84	25476.73
502.02	25661.63
502.20	25663.97
502.37	25846.54
502.55	25902.71
502.72	25891.01
502.90	26279.54
503.07	26192.94
503.25	26176.55
503.43	26164.85
503.60	26279.54
503.78	26253.79
503.95	26153.15
504.13	26441.03
504.30	26520.61
504.48	26799.13
504.65	27276.60
504.83	27075.32
505.01	27335.12
505.18	26817.86
505.36	27431.08
505.53	27484.91
505.71	27274.26
505.88	27573.85
506.06	27393.63
506.23	27445.12
506.41	27681.52
506.58	27910.89
506.76	28053.66
506.93	27730.67
507.11	27868.76
507.28	28250.27
507.46	27875.78
507.63	28004.51
507.81	28098.13
507.98	28173.03
508.16	28140.26
508.33	28521.77
508.50	28753.48
508.68	28753.48
508.85	29069.45
509.03	29123.29
509.20	28783.91
509.38	29277.76
509.55	29179.46
509.73	29413.51
509.90	29097.54
510.08	29235.63
510.25	29032.00
510.42	29743.53
510.60	29727.14
510.77	29734.17
510.95	29731.83
511.12	29497.77
511.30	29902.68
511.47	30546.33
511.64	30033.75
511.82	30199.93
511.99	30040.78
512.17	30232.70
512.34	30419.94
512.51	30616.55
512.69	30726.55
512.86	30506.54
513.04	31030.82
513.21	30960.61
513.38	30684.42
513.56	30862.30
513.73	30485.48
513.90	30831.88
514.08	30843.58
514.25	31428.71
514.43	31311.69
514.60	31211.04
514.77	31309.35
514.95	31232.11
515.12	31227.43
515.29	31604.25
515.47	31587.87
515.64	31885.12
515.81	31590.21
515.99	31686.17
516.16	31899.16
516.33	31683.83
516.51	31798.52
516.68	31681.49
516.85	31775.11
517.03	32058.32
517.20	31999.80
517.37	32247.90
517.54	32699.62
517.72	32116.83
517.89	32163.64
518.06	32259.60
518.24	32184.71
518.41	32744.09
518.58	32357.91
518.75	32776.86
518.93	32772.18
519.10	32444.51
519.27	32996.87
519.45	33151.35
519.62	32959.42
519.79	33275.40
519.96	33462.64
520.14	33806.70
520.31	33001.55
520.48	33027.30
520.65	33380.72
520.83	33638.18
521.00	33582.01
521.17	33404.13
521.34	34040.75
521.52	33961.17
521.69	33879.25
521.86	34113.31
522.03	34298.21
522.20	34096.92
522.38	34366.09
522.55	34370.77
522.72	34375.45
522.89	34115.65
523.07	34375.45
523.24	34595.46
523.41	34881.00
523.58	34726.53
523.75	35356.13
523.92	35236.77
524.10	35342.09
524.27	34873.98
524.44	35115.06
524.61	34873.98
524.78	35534.01
524.96	35152.51
525.13	35431.03
525.30	35391.24
525.47	35356.13
525.64	35477.84
525.81	35695.51
525.98	35445.07
526.16	35501.25
526.33	35255.49
526.50	35477.84
526.67	35246.13
526.84	35281.24
527.01	35590.19
527.18	35849.99
527.36	36163.62
527.53	35978.72
527.70	36524.06
527.87	36252.56
528.04	36175.32
528.21	36493.63
528.38	36425.76
528.55	36753.43
528.72	36694.92
528.89	36910.25
529.07	36531.08
529.24	36250.22
529.41	36517.04
529.58	36662.15
529.75	36495.97
529.92	36856.42
530.09	36781.52
530.26	36896.20
530.43	37378.36
530.60	36898.55
530.77	37153.66
530.94	37399.42
531.11	37118.56
531.28	37324.52
531.46	37158.34
531.63	37422.83
531.80	37364.31
531.97	37467.30
532.14	37247.29
532.31	37081.11
532.48	37422.83
532.65	37567.94
532.82	37640.50
532.99	38174.14
533.16	37198.13
533.33	38120.31
533.50	38099.24
533.67	37755.18
533.84	37638.15
534.01	37900.29
534.18	37738.80
534.35	38242.01
534.52	38377.76
534.69	37926.04
534.86	38429.26
535.03	38237.33
535.20	38213.93
535.37	38693.74
535.54	38632.88
535.71	38438.62
535.88	38574.37
536.05	38780.34
536.22	38733.53
536.38	38382.45
536.55	38726.50
536.72	38686.71
536.89	38740.55
537.06	38766.29
537.23	39229.72
537.40	38972.26
537.57	39222.70
537.74	39051.84
537.91	39316.32
538.08	39021.41
538.25	38859.91
538.42	38806.08
538.59	39201.63
538.75	38876.30
538.92	39533.99
539.09	39344.41
539.26	39220.36
539.43	39819.53
539.60	39318.66
539.77	39037.80
539.94	39393.56
540.11	39316.32
540.28	39316.32
540.44	39243.76
540.61	39978.69
540.78	39402.92
540.95	40016.14
541.12	39342.06
541.29	39388.88
541.46	39487.18
541.62	39754.00
541.79	39985.71
541.96	39854.64
542.13	39847.62
542.30	39810.17
542.47	40037.20
542.63	40292.32
542.80	40229.13
542.97	40643.40
543.14	40418.71
543.31	40416.37
543.48	40769.79
543.64	40889.16
543.81	40594.25
543.98	41003.85
544.15	40746.39
544.32	41123.21
544.48	40959.38
544.65	41467.27
544.82	40713.62
544.99	40395.31
545.16	41013.21
545.32	41195.77
545.49	41013.21
545.66	41273.01
545.83	41441.53
546.00	41720.05
546.16	41177.04
546.33	41020.23
546.50	40676.17
546.67	41095.13
546.83	40797.88
547.00	41130.23
547.17	41036.61
547.34	41434.50
547.50	41022.57
547.67	41574.94
547.84	41577.28
548.00	41525.78
548.17	41816.01
548.34	41722.39
548.51	41666.22
548.67	41619.41
548.84	41787.92
549.01	41270.67
549.18	41596.00
549.34	42082.83
549.51	42103.90
549.68	41839.42
549.84	41626.43
550.01	42279.44
550.18	41649.83
550.34	42066.45
550.51	41666.22
550.68	42354.33
550.84	41605.36
551.01	42223.26
551.18	42426.89
551.34	42164.75
551.51	42167.09
551.68	42719.46
551.84	42150.71
552.01	42218.58
552.18	42129.64
552.34	42185.82
552.51	42740.52
552.68	41808.99
552.84	42506.47
553.01	42520.51
553.18	42019.64
553.34	42054.75
553.51	42337.95
553.67	42607.11
553.84	42799.04
554.01	42529.87
554.17	42855.21
554.34	42572.00
554.51	42735.84
554.67	43098.62
554.84	42838.83
555.00	42295.82
555.17	42590.73
555.33	42885.64
555.50	42862.23
555.67	42494.77
555.83	42777.97
556.00	43091.60
556.16	43138.41
556.33	43239.06
556.50	42934.79
556.66	43196.93
556.83	43182.88
556.99	43100.97
557.16	43208.63
557.32	43367.79
557.49	43220.33
557.65	42801.38
557.82	43047.13
557.98	43283.53
558.15	43325.66
558.32	43072.88
558.48	43250.76
558.65	43423.96
558.81	42979.26
558.98	43295.23
559.14	43346.72
559.31	43164.16
559.47	43482.47
559.64	43863.98
559.80	43803.13
559.97	43445.02
560.13	43012.02
560.30	43077.56
560.46	43136.07
560.63	43716.53
560.79	43674.40
560.96	43746.95
561.12	43662.69
561.29	43824.19
561.45	43227.35
561.61	43690.78
561.78	43753.97
561.94	43056.50
562.11	43573.75
562.27	43688.44
562.44	43658.01
562.60	43889.73
562.77	43693.12
562.93	43749.29
563.10	43505.88
563.26	43023.73
563.42	43775.04
563.59	43751.63
563.75	43655.67
563.92	44165.91
564.08	44147.18
564.24	44081.65
564.41	44275.91
564.57	43672.06
564.74	44236.12
564.90	43526.94
565.07	43873.34
565.23	43969.30
565.39	44311.02
565.56	43948.24
565.72	43866.32
565.88	44037.18
566.05	43908.45
566.21	43735.25
566.38	43735.25
566.54	43927.17
566.70	44706.57
566.87	44446.77
567.03	43992.71
567.19	44472.52
567.36	44133.14
567.52	44149.53
567.68	44182.29
567.85	44226.76
568.01	44357.83
568.17	43768.02
568.34	44163.57
568.50	44172.93
568.66	44465.50
568.83	44126.12
568.99	43866.32
569.15	44189.31
569.32	44114.42
569.48	43887.39
569.64	44495.92
569.81	44318.04
569.97	44229.10
570.13	44116.76
570.30	43952.92
570.46	44336.77
570.62	43817.17
570.78	43775.04
570.95	43896.75
571.11	44278.25
571.27	44037.18
571.43	44147.18
571.60	44060.58
571.76	43882.70
571.92	44222.08
572.09	44151.87
572.25	44032.50
572.41	44512.31
572.57	44463.16
572.74	44369.54
572.90	44495.92
573.06	44367.20
573.22	44280.60
573.38	44414.01
573.55	44371.88
573.71	44294.64
573.87	43976.33
574.03	44154.21
574.20	44552.10
574.36	44353.15
574.52	44629.34
574.68	44381.24
574.84	44495.92
575.01	44203.36
575.17	44435.07
575.33	44720.62
575.49	44065.27
575.65	44671.46
575.82	44758.06
575.98	44430.39
576.14	44739.34
576.30	44563.80
576.46	44388.26
576.62	44538.05
576.79	44133.14
576.95	44158.89
577.11	44559.12
577.27	44439.75
577.43	44641.04
577.59	44514.65
577.75	44676.15
577.92	43959.94
578.08	44385.92
578.24	44519.33
578.40	44318.04
578.56	44226.76
578.72	44556.78
578.88	44875.09
579.04	44669.12
579.21	44418.69
579.37	43906.11
579.53	44208.04
579.69	44348.47
579.85	44514.65
580.01	44313.36
580.17	44928.92
580.33	44884.45
580.49	44737.00
580.65	44563.80
580.82	44739.34
580.98	44634.02
581.14	44512.31
581.30	44865.73
581.46	44680.83
581.62	44488.90
581.78	44533.37
581.94	44559.12
582.10	44577.84
582.26	44748.70
582.42	44446.77
582.58	44570.82
582.74	44296.98
582.90	44931.26
583.06	44474.86
583.22	44282.94
583.38	44605.93
583.54	44949.99
583.70	44690.19
583.86	44662.10
584.02	44493.58
584.18	44610.61
584.34	44329.75
584.50	44516.99
584.66	44524.01
584.82	44549.76
584.98	44987.44
585.14	45064.67
585.30	44383.58
585.46	44884.45
585.62	44524.01
585.78	44439.75
585.94	44285.28
586.10	44772.11
586.26	44729.98
586.42	44973.39
586.58	44617.63
586.74	44809.56
586.90	44554.44
587.06	45043.61
587.22	44638.70
587.38	44568.48
587.54	44643.38
587.70	44940.63
587.86	44531.03
588.02	44615.29
588.18	44830.62
588.34	44514.65
588.49	44648.06
588.65	43868.66
588.81	44348.47
588.97	44608.27
589.13	44172.93
589.29	44713.59
589.45	44107.40
589.61	44512.31
589.77	45223.83
589.93	44975.73
590.08	44545.08
590.24	44987.44
590.40	44952.33
590.56	44687.85
590.72	44924.24
590.88	44811.90
591.04	44734.66
591.20	44989.78
591.35	45310.43
591.51	45144.25
591.67	45120.85
591.83	45104.46
591.99	44580.18
592.15	44629.34
592.31	44825.94
592.46	44722.96
592.62	45013.18
592.78	45010.84
592.94	44795.51
593.10	44861.05
593.26	44907.86
593.41	45045.95
593.57	44760.40
593.73	45022.54
593.89	45134.89
594.05	45181.70
594.20	44889.13
594.36	45228.51
594.52	44774.45
594.68	44538.05
594.84	44652.74
594.99	44502.95
595.15	44968.71
595.31	45249.58
595.47	45027.23
595.62	45165.32
595.78	44884.45
595.94	45233.19
596.10	44868.07
596.25	45165.32
596.41	45226.17
596.57	45205.11
596.73	45275.32
596.88	45059.99
597.04	44842.32
597.20	45158.30
597.36	44957.01
597.51	45132.55
597.67	44891.48
597.83	45170.00
597.99	45207.45
598.14	45120.85
598.30	44832.96
598.46	45167.66
598.61	44842.32
598.77	44430.39
598.93	45088.08
599.09	45027.23
599.24	45635.77
599.40	45237.87
599.56	45359.58
599.71	45055.31
599.87	45492.99
600.03	45284.68
600.18	44996.80
600.34	45045.95
600.50	45125.53
600.65	45179.36
600.81	45315.11
600.97	45558.53
601.12	45244.90
601.28	45015.52
601.44	44889.13
601.59	44790.83
601.75	44519.33
601.91	44868.07
602.06	44481.88
602.22	44762.75
602.37	44804.88
602.53	45097.44
602.69	45441.50
602.84	44680.83
603.00	45137.23
603.16	45085.74
603.31	44971.05
603.47	44617.63
603.62	45275.32
603.78	44746.36
603.94	45277.66
604.09	45284.68
604.25	45282.34
604.40	45017.86
604.56	45081.06
604.71	45013.18
604.87	44849.35
605.03	44605.93
605.18	44751.04
605.34	44849.35
605.49	44425.71
605.65	44772.11
605.80	44959.35
605.96	45050.63
606.12	44751.04
606.27	45673.21
606.43	44765.09
606.58	45310.43
606.74	44975.73
606.89	44987.44
607.05	44877.43
607.20	44514.65
607.36	44772.11
607.51	45235.53
607.67	44961.69
607.82	44655.08
607.98	44804.88
608.13	44734.66
608.29	45006.16
608.44	44762.75
608.60	44275.91
608.75	44458.48
608.91	44629.34
609.06	44341.45
609.22	44561.46
609.37	44048.88
609.53	44280.60
609.68	44596.57
609.84	44629.34
609.99	44549.76
610.15	44662.10
610.30	44465.50
610.46	44191.65
610.61	44385.92
610.76	44371.88
610.92	44383.58
611.07	44659.76
611.23	44266.55
611.38	44392.94
611.54	44414.01
611.69	44294.64
611.84	44863.39
612.00	44048.88
612.15	44320.38
612.31	44435.07
612.46	44414.01
612.62	44315.70
612.77	44619.97
612.92	44610.61
613.08	44327.41
613.23	43765.68
613.39	44198.68
613.54	44123.78
613.69	44091.01
613.85	44367.20
614.00	44219.74
614.15	44507.63
614.31	44083.99
614.46	44552.10
614.62	44313.36
614.77	43833.55
614.92	44023.14
615.08	43540.99
615.23	43772.70
615.38	43660.35
615.54	43564.39
615.69	43807.81
615.84	43730.57
616.00	43800.79
616.15	43791.42
616.30	43952.92
616.46	43665.03
616.61	43765.68
616.76	43711.84
616.92	43164.16
617.07	42906.70
617.22	43636.95
617.37	43192.25
617.53	43676.74
617.68	43484.81
617.83	43526.94
617.99	43536.30
618.14	43852.28
618.29	43854.62
618.45	43576.09
618.60	42653.92
618.75	43398.21
618.90	43386.51
619.06	43548.01
619.21	43583.12
619.36	43697.80
619.51	43601.84
619.67	43501.20
619.82	43009.68
619.97	43309.27
620.12	43360.76
620.28	43047.13
620.43	42981.60
620.58	43243.74
620.73	43035.43
620.89	42979.26
621.04	43367.79
621.19	42951.17
621.34	43100.97
621.49	43110.33
621.65	43161.82
621.80	42965.21
621.95	42726.48
622.10	42635.20
622.25	42431.57
622.41	42342.63
622.56	42377.74
622.71	42962.87
622.86	42913.72
623.01	42717.12
623.16	42564.98
623.32	42880.95
623.47	43056.50
623.62	42618.81
623.77	42625.84
623.92	42471.36
624.07	42532.22
624.23	42536.90
624.38	42220.92
624.53	42021.98
624.68	42429.23
624.83	42300.50
624.98	42398.80
625.13	42131.98
625.29	42330.93
625.44	42220.92
625.59	42155.39
625.74	42117.94
625.89	41766.86
626.04	41652.17
626.19	41832.39
626.34	42134.32
626.49	42197.52
626.65	41949.42
626.80	42562.64
626.95	41801.97
627.10	41680.26
627.25	42183.48
627.40	41958.78
627.55	41787.92
627.70	41478.97
627.85	41375.99
628.00	41486.00
628.15	41577.28
628.30	41469.61
628.45	41818.35
628.60	41797.29
628.76	41982.19
628.91	41689.62
629.06	41844.10
629.21	41132.57
629.36	41523.44
629.51	41574.94
629.66	41184.07
629.81	41146.62
629.96	41146.62
630.11	41186.41
630.26	41579.62
630.41	41844.10
630.56	41420.46
630.71	41567.91
630.86	41029.59
631.01	41017.89
631.16	40950.01
631.31	41036.61
631.46	41017.89
631.61	41228.54
631.76	41048.32
631.91	41118.53
632.06	41045.97
632.21	41525.78
632.36	41446.21
632.51	40814.26
632.66	40734.68
632.81	40692.55
632.96	40673.83
633.10	41010.87
633.25	41008.53
633.40	41036.61
633.55	41167.68
633.70	40505.31
633.85	40603.61
634.00	40856.39
634.15	41003.85
634.30	40928.95
634.45	40453.82
634.60	40655.11
634.75	40435.10
634.90	40615.32
635.05	40470.20
635.19	40390.62
635.34	40538.08
635.49	40233.81
635.64	40289.98
635.79	39992.73
635.94	40390.62
636.09	40559.14
636.24	40252.53
636.39	39824.22
636.53	40512.33
636.68	40332.11
636.83	40444.46
636.98	40552.12
637.13	40023.16
637.28	40254.87
637.43	40804.90
637.57	40416.37
637.72	40271.26
637.87	40088.70
638.02	40257.21
638.17	40360.20
638.32	40088.70
638.46	39920.18
638.61	40121.46
638.76	39880.39
638.91	40170.61
639.06	40135.51
639.20	39929.54
639.35	40156.57
639.50	40189.34
639.65	39952.94
639.80	40652.76
639.94	39852.30
640.09	39498.88
640.24	39643.99
640.39	39695.49
640.54	39496.54
640.68	39494.20
640.83	39559.73
640.98	38897.36
641.13	39618.25
641.27	39674.42
641.42	39318.66
641.57	39613.57
641.72	39690.80
641.86	38806.08
642.01	39271.85
642.16	39168.87
642.31	38941.83
642.45	38981.62
642.60	38902.04
642.75	38986.30
642.90	39580.80
643.04	39082.27
643.19	39180.57
643.34	39112.69
643.48	39105.67
643.63	38998.01
643.78	38836.51
643.93	38539.26
644.07	38738.21
644.22	38770.97
644.37	38586.07
644.51	38843.53
644.66	39026.09
644.81	38965.24
644.95	39068.22
645.10	38682.03
645.25	38885.66
645.39	38829.49
645.54	38934.81
645.69	38962.90
645.83	38382.45
645.98	38600.12
646.13	39000.35
646.27	38597.77
646.42	38855.23
646.57	38703.10
646.71	38618.84
646.86	38953.54
647.00	38752.25
647.15	38511.17
647.30	38937.15
647.44	38548.62
647.59	38487.77
647.74	38316.91
647.88	38462.02
648.03	38433.94
648.17	38394.15
648.32	38199.88
648.47	38424.57
648.61	38092.22
648.76	38258.40
648.90	38323.93
649.05	38206.90
649.20	38419.89
649.34	37771.57
649.49	37792.63
649.63	38188.18
649.78	38143.71
649.92	38249.03
650.07	38017.32
650.21	37963.49
650.36	37869.87
650.51	37560.92
650.65	38061.79
650.80	38562.67
650.94	38555.64
651.09	37989.24
651.23	38038.39
651.38	37787.95
651.52	38265.42
651.67	37816.04
651.81	37797.31
651.96	38014.98
652.10	37270.69
652.25	37893.27
652.39	37296.44
652.54	37811.35
652.68	37691.99
652.83	37965.83
652.97	37565.60
653.12	37549.21
653.26	37471.98
653.41	37633.47
653.55	36882.16
653.70	36994.51
653.84	37326.86
653.99	37769.22
654.13	37249.63
654.27	37380.70
654.42	37067.06
654.56	37387.72
654.71	37432.19
654.85	37266.01
655.00	37429.85
655.14	36907.91
655.29	36823.65
655.43	36737.05
655.57	36699.60
655.72	36694.92
655.86	36320.43
656.01	36699.60
656.15	36531.08
656.30	36961.74
656.44	36467.89
656.58	36484.27
656.73	36453.84
656.87	36552.15
657.01	36507.68
657.16	36648.11
657.30	36308.73
657.45	36285.33
657.59	36662.15
657.73	36622.36
657.88	36971.10
658.02	36933.65
658.16	37134.94
658.31	36811.95
658.45	36605.98
658.60	36451.50
658.74	36278.30
658.88	36577.89
659.03	36620.02
659.17	36458.52
659.31	36334.48
659.46	36123.83
659.60	36222.13
659.74	35967.01
659.89	35880.41
660.03	35304.64
660.17	36039.57
660.32	35672.10
660.46	36175.32
660.60	35880.41
660.74	36051.27
660.89	36081.70
661.03	35702.53
661.17	35489.54
661.32	35604.23
661.46	35534.01
661.60	35522.31
661.74	35634.66
661.89	35882.75
662.03	35330.39
662.17	35660.40
662.31	35730.62
662.46	35693.17
662.60	35084.63
662.74	35122.08
662.88	34888.03
663.03	34672.70
663.17	35126.76
663.31	34614.18
663.45	35299.96
663.60	34485.45
663.74	34588.44
663.88	35122.08
664.02	34429.28
664.17	35154.85
664.31	34820.15
664.45	34897.39
664.59	34237.36
664.73	34588.44
664.88	34302.89
665.02	34328.64
665.16	34316.93
665.30	34476.09
665.44	33991.60
665.59	34492.47
665.73	34270.12
665.87	34192.89
666.01	34345.02
666.15	33603.07
666.29	34139.05
666.44	33926.07
666.58	33846.49
666.72	34132.03
666.86	33783.29
667.00	34054.79
667.14	33383.06
667.28	33322.21
667.43	33682.65
667.57	33806.70
667.71	33724.78
667.85	33605.41
667.99	33184.12
668.13	33015.60
668.27	33160.71
668.41	33621.80
668.56	32875.16
668.70	33394.76
668.84	33198.16
668.98	32353.23
669.12	32781.54
669.26	32879.85
669.40	32315.78
669.54	32971.13
669.68	32917.29
669.82	32699.62
669.96	32477.27
670.10	32444.51
670.25	32540.47
670.39	32517.06
670.53	32030.23
670.67	31854.69
670.81	32474.93
670.95	32486.64
671.09	31938.95
671.23	32198.75
671.37	32273.65
671.51	32180.03
671.65	32020.87
671.79	31845.33
671.93	31709.58
672.07	31789.16
672.21	31857.03
672.35	31744.69
672.49	31854.69
672.63	31887.46
672.77	31587.87
672.91	31866.39
673.05	31882.78
673.19	31182.96
673.33	31288.28
673.47	31222.75
673.61	31063.59
673.75	31108.06
673.89	30771.02
674.03	30597.82
674.17	30745.28
674.31	30890.39
674.45	30941.88
674.59	30239.72
674.73	30670.38
674.87	30436.33
675.01	30513.56
675.15	30574.42
675.29	30586.12
675.43	30118.01
675.56	29928.43
675.70	30213.98
675.84	29839.49
675.98	29216.91
676.12	29993.97
676.26	29701.40
676.40	29879.28
676.54	29862.90
676.68	29680.33
676.82	28903.28
676.96	29228.61
677.10	29420.53
677.23	29127.97
677.37	29163.08
677.51	29046.05
677.65	28542.83
677.79	28788.59
677.93	29083.50
678.07	28547.51
678.21	28418.78
678.34	28451.55
678.48	28261.97
678.62	28273.67
678.76	28016.21
678.90	27807.90
679.04	27704.92
679.18	27915.57
679.31	27819.61
679.45	27484.91
679.59	27627.68
679.73	27314.05
679.87	27651.09
680.00	27470.87
680.14	27154.90
680.28	26946.59
680.42	26890.41
680.56	27049.57
680.70	26654.02
680.83	27051.91
680.97	27159.58
681.11	27150.21
681.25	26452.73
681.39	26464.44
681.52	26607.21
681.66	26689.13
681.80	26817.86
681.94	26361.45
682.07	26286.56
682.21	26480.82
682.35	26153.15
682.49	25902.71
682.62	25886.32
682.76	25600.78
682.90	25717.81
683.04	25565.67
683.17	25593.76
683.31	25057.78
683.45	25193.53
683.59	25214.59
683.72	25153.74
683.86	25259.06
684.00	25252.04
684.13	25240.34
684.27	24924.36
684.41	25025.01
684.55	24601.37
684.68	24631.80
684.82	24725.42
684.96	24767.55
685.09	24907.98
685.23	24432.85
685.37	24559.24
685.50	24219.86
685.64	24395.40
685.78	24079.43
685.91	23953.04
686.05	23843.04
686.19	23569.19
686.32	23765.80
686.46	23283.65
686.60	23147.90
686.73	23157.26
686.87	23096.41
687.01	22911.50
687.14	22974.70
687.28	22897.46
687.42	23089.38
687.55	22913.84
687.69	23138.54
687.82	23016.83
687.96	22480.85
688.10	22443.40
688.23	22642.34
688.37	22237.43
688.50	22111.04
688.64	21703.79
688.78	21727.19
688.91	21954.22
689.05	22045.51
689.18	22040.82
689.32	21692.08
689.46	21628.89
689.59	21781.03
689.73	21914.44
689.86	21553.99
690.00	21467.39
690.13	21570.38
690.27	21537.61
690.41	21462.71
690.54	20931.41
690.68	20835.45
690.81	20610.76
690.95	20877.58
691.08	20779.28
691.22	20697.36
691.35	20718.42
691.49	20884.60
691.62	20945.45
691.76	20760.55
691.89	20589.69
692.03	20332.23
692.16	20299.47
692.30	20072.43
692.43	20063.07
692.57	19686.25
692.70	19592.62
692.84	19955.41
692.97	19894.55
693.11	19711.99
693.24	19248.57
693.38	19199.41
693.51	19269.63
693.65	19166.65
693.78	19414.74
693.92	19644.12
694.05	19300.06
694.19	19136.22
694.32	18995.79
694.45	18984.09
694.59	18574.49
694.72	18853.02
694.86	18427.04
694.99	18616.62
695.13	18562.79
695.26	18693.86
695.39	18373.21
695.53	18635.35
695.66	18424.70
695.80	18569.81
695.93	18349.80
696.07	18045.53
696.20	17907.44
696.33	17907.44
696.47	17895.74
696.60	17975.31
696.73	17399.54
696.87	17514.23
697.00	17743.60
697.14	17259.11
697.27	17142.08
697.40	17186.55
697.54	17294.22
697.67	17308.26
697.80	17032.08
697.94	16830.79
698.07	17069.53
698.21	16800.37
698.34	16666.95
698.47	16673.98
698.61	16723.13
698.74	16786.32
698.87	16376.73
699.01	16236.30
699.14	16051.39
699.27	16056.08
699.40	15917.98
699.54	15779.89
699.67	15782.23
699.80	15978.84
699.94	15740.10
700.07	15669.89
700.20	15896.92
700.34	15545.84
700.47	15602.01
700.60	15747.12
700.73	15786.91
700.87	15515.41
701.00	15442.85
701.13	15545.84
701.26	15178.37
701.40	15391.36
701.53	14974.75
701.66	15215.82
701.79	14663.46
701.93	14972.41
702.06	14960.70
702.19	14869.42
702.32	14803.89
702.46	14513.66
702.59	14759.42
702.72	14733.67
702.85	14675.16
702.99	14310.04
703.12	14530.05
703.25	14001.08
703.38	14228.12
703.51	14094.71
703.65	14185.99
703.78	13956.61
703.91	14333.44
704.04	14162.58
704.17	13841.93
704.31	13767.03
704.44	13764.69
704.57	13706.18
704.70	13708.52
704.83	13748.31
704.96	13453.40
705.10	13593.83
705.23	13544.68
>>>>>End Processed Spectral Data<<<<<
