SpectraSuite Data File
++++++++++++++++++++++++++++++++++++
Date: Fri Oct 25 10:47:51 EDT 2013
User: price-jones
Dark Spectrum Present: No
Reference Spectrum Present: No
Number of Sampled Component Spectra: 1
Spectrometers: USB2+H05261
Integration Time (usec): 100000 (USB2+H05261)
Spectra Averaged: 1 (USB2+H05261)
Boxcar Smoothing: 0 (USB2+H05261)
Correct for Electrical Dark: No (USB2+H05261)
Strobe/Lamp Enabled: No (USB2+H05261)
Correct for Detector Non-linearity: No (USB2+H05261)
Correct for Stray Light: No (USB2+H05261)
Number of Pixels in Processed Spectrum: 2048
>>>>>Begin Processed Spectral Data<<<<<
365.73	145.11
365.92	145.11
366.12	145.11
366.32	84.26
366.52	0.00
366.72	25.75
366.91	4.68
367.11	2.34
367.31	21.06
367.51	0.00
367.70	14.04
367.90	21.06
368.10	0.00
368.30	4.68
368.49	74.90
368.69	63.19
368.89	63.19
369.09	124.05
369.28	67.88
369.48	110.01
369.68	100.64
369.87	121.71
370.07	159.16
370.27	175.54
370.47	182.56
370.66	372.15
370.86	337.04
371.06	421.30
371.25	456.40
371.45	458.74
371.65	470.45
371.84	435.34
372.04	500.87
372.24	524.28
372.44	475.13
372.63	454.06
372.83	458.74
373.03	484.49
373.22	440.02
373.42	500.87
373.62	554.71
373.81	557.05
374.01	528.96
374.21	561.73
374.40	519.60
374.60	582.79
374.79	589.82
374.99	540.66
375.19	585.13
375.38	482.15
375.58	528.96
375.78	589.82
375.97	503.22
376.17	568.75
376.37	571.09
376.56	608.54
376.76	538.32
376.95	676.41
377.15	631.94
377.35	667.05
377.54	498.53
377.74	573.43
377.93	557.05
378.13	622.58
378.33	655.35
378.52	573.43
378.72	606.20
378.91	575.77
379.11	638.97
379.31	580.45
379.50	622.58
379.70	669.39
379.89	681.10
380.09	655.35
380.28	678.76
380.48	676.41
380.68	683.44
380.87	629.60
381.07	690.46
381.26	667.05
381.46	620.24
381.65	624.92
381.85	683.44
382.04	734.93
382.24	753.65
382.43	734.93
382.63	660.03
382.83	697.48
383.02	650.67
383.22	802.80
383.41	720.88
383.61	655.35
383.80	856.64
384.00	727.91
384.19	791.10
384.39	706.84
384.58	737.27
384.78	763.01
384.97	723.23
385.17	739.61
385.36	667.05
385.56	837.91
385.75	709.18
385.95	713.86
386.14	798.12
386.34	786.42
386.53	767.70
386.72	779.40
386.92	748.97
387.11	753.65
387.31	842.59
387.50	798.12
387.70	870.68
387.89	748.97
388.09	777.06
388.28	791.10
388.48	880.04
388.67	905.79
388.86	884.72
389.06	891.74
389.25	877.70
389.45	919.83
389.64	854.30
389.84	882.38
390.03	908.13
390.22	952.60
390.42	856.64
390.61	894.08
390.81	952.60
391.00	1057.92
391.19	1025.15
391.39	950.26
391.58	968.98
391.78	929.19
391.97	1020.47
392.16	912.81
392.36	1034.52
392.55	1015.79
392.75	964.30
392.94	912.81
393.13	1022.81
393.33	940.90
393.52	1006.43
393.71	1074.31
393.91	1174.95
394.10	1034.52
394.29	1076.65
394.49	1107.07
394.68	1125.80
394.88	1153.88
395.07	1214.74
395.26	1149.20
395.46	1174.95
395.65	1081.33
395.84	1090.69
396.04	1158.57
396.23	1170.27
396.42	1074.31
396.62	1088.35
396.81	1128.14
397.00	1064.94
397.19	1224.10
397.39	1226.44
397.58	1313.04
397.77	1207.72
397.97	1352.83
398.16	1289.64
398.35	1357.51
398.55	1249.85
398.74	1350.49
398.93	1387.94
399.12	1327.08
399.32	1387.94
399.51	1359.85
399.70	1394.96
399.90	1341.13
400.09	1362.19
400.28	1479.22
400.47	1334.11
400.67	1439.43
400.86	1472.20
401.05	1383.26
401.24	1479.22
401.44	1486.24
401.63	1540.07
401.82	1561.14
402.01	1493.26
402.21	1504.96
402.40	1551.78
402.59	1516.67
402.78	1664.12
402.97	1664.12
403.17	1591.56
403.36	1647.74
403.55	1610.29
403.74	1643.06
403.93	1713.27
404.13	1643.06
404.32	1629.01
404.51	1668.80
404.70	1701.57
404.89	1671.14
405.09	1715.61
405.28	1596.25
405.47	1755.40
405.66	1757.74
405.85	1774.13
406.05	1762.42
406.24	1767.10
406.43	1678.16
406.62	1764.76
406.81	2031.58
407.00	1813.92
407.20	1785.83
407.39	1834.98
407.58	1844.34
407.77	1895.83
407.96	1989.46
408.15	1877.11
408.34	1886.47
408.54	2031.58
408.73	1867.75
408.92	1975.41
409.11	2043.29
409.30	2054.99
409.49	1975.41
409.68	2050.31
409.87	2026.90
410.07	2017.54
410.26	2062.01
410.45	2139.25
410.64	2160.31
410.83	2186.06
411.02	2218.83
411.21	2361.60
411.40	2228.19
411.59	2277.34
411.78	2249.25
411.98	2298.41
412.17	2272.66
412.36	2370.96
412.55	2490.33
412.74	2380.32
412.93	2497.35
413.12	2476.29
413.31	2555.86
413.50	2490.33
413.69	2483.31
413.88	2576.93
414.07	2527.78
414.26	2602.68
414.45	2684.59
414.64	2775.88
414.83	2759.49
415.02	2724.38
415.22	2724.38
415.41	2754.81
415.60	2729.06
415.79	2794.60
415.98	2754.81
416.17	2860.13
416.36	2918.65
416.55	2965.46
416.74	2916.31
416.93	2930.35
417.12	2946.73
417.31	3021.63
417.50	2925.67
417.69	3101.21
417.88	3040.36
418.07	3070.78
418.26	3096.53
418.45	3110.57
418.64	3290.79
418.83	3246.32
419.02	3150.36
419.21	3141.00
419.39	3309.52
419.58	3323.56
419.77	3145.68
419.96	3339.94
420.15	3187.81
420.34	3353.99
420.53	3215.90
420.72	3417.18
420.91	3375.05
421.10	3414.84
421.29	3559.95
421.48	3492.08
421.67	3344.63
421.86	3485.06
422.05	3492.08
422.24	3398.46
422.43	3353.99
422.61	3487.40
422.80	3581.02
422.99	3548.25
423.18	3508.46
423.37	3480.38
423.56	3597.40
423.75	3506.12
423.94	3609.11
424.13	3375.05
424.32	3513.14
424.50	3599.74
424.69	3576.34
424.88	3620.81
425.07	3616.13
425.26	3506.12
425.45	3599.74
425.64	3606.77
425.83	3686.34
426.01	3648.90
426.20	3618.47
426.39	3698.05
426.58	3513.14
426.77	3611.45
426.96	3660.60
427.15	3625.49
427.33	3744.86
427.52	3698.05
427.71	3674.64
427.90	3733.15
428.09	3791.67
428.28	3852.52
428.46	3831.46
428.65	3763.58
428.84	3819.75
429.03	4042.11
429.22	3803.37
429.40	3789.33
429.59	3850.18
429.78	3709.75
429.97	3765.92
430.16	3566.98
430.34	3623.15
430.53	3906.35
430.72	3861.88
430.91	3929.76
431.10	3927.42
431.28	4039.76
431.47	4072.53
431.66	4170.83
431.85	4053.81
432.03	4210.62
432.22	4107.64
432.41	4138.07
432.60	4194.24
432.79	4224.67
432.97	4264.46
433.16	4224.67
433.35	4198.92
433.54	4081.89
433.72	4315.95
433.91	4360.42
434.10	4329.99
434.28	4236.37
434.47	4374.46
434.66	4397.87
434.85	4306.59
435.03	4507.87
435.22	4411.91
435.41	4538.30
435.59	4592.13
435.78	4692.77
435.97	4634.26
436.16	4699.80
436.34	4505.53
436.53	4697.46
436.72	4713.84
436.90	4484.47
437.09	4550.00
437.28	4587.45
437.46	4657.67
437.65	4669.37
437.84	4662.35
438.02	4624.90
438.21	4732.56
438.40	4641.28
438.58	4772.35
438.77	4854.27
438.96	4966.62
439.14	4966.62
439.33	5123.43
439.52	5130.45
439.70	4990.02
439.89	5139.82
440.08	4954.91
440.26	5149.18
440.45	5210.03
440.63	5233.44
440.82	5308.34
441.01	5310.68
441.19	5343.44
441.38	5427.70
441.57	5551.75
441.75	5596.22
441.94	5469.83
442.12	5699.20
442.31	5757.72
442.50	5486.22
442.68	5596.22
442.87	5661.76
443.05	5734.31
443.24	5804.53
443.43	5762.40
443.61	5764.74
443.80	5771.76
443.98	5633.67
444.17	5556.43
444.35	5872.40
444.54	5722.61
444.73	5907.51
444.91	5710.91
445.10	5811.55
445.28	5729.63
445.47	5781.12
445.65	5928.58
445.84	5977.73
446.02	5849.00
446.21	5884.11
446.39	5907.51
446.58	5991.77
446.77	6108.80
446.95	5799.85
447.14	5984.75
447.32	6230.51
447.51	6071.35
447.69	5937.94
447.88	5947.30
448.06	5959.00
448.25	6207.10
448.43	6029.22
448.62	6003.47
448.80	5942.62
448.99	6162.63
449.17	6181.35
449.36	6099.44
449.54	6265.61
449.73	6260.93
449.91	6597.97
450.10	6401.37
450.28	6260.93
450.46	6384.98
450.65	6417.75
450.83	6574.56
451.02	6443.49
451.20	6616.69
451.39	6497.33
451.57	6403.71
451.76	6551.16
451.94	6520.73
452.13	6569.88
452.31	6520.73
452.49	6363.92
452.68	6492.65
452.86	6607.33
453.05	6677.55
453.23	6656.48
453.42	6415.41
453.60	6590.95
453.78	6796.92
453.97	6480.94
454.15	6473.92
454.34	6703.29
454.52	6696.27
454.70	6803.94
454.89	6909.26
455.07	6995.86
455.26	6862.45
455.44	6958.41
455.62	6935.01
455.81	6991.18
455.99	7005.22
456.17	6927.99
456.36	7098.84
456.54	6967.77
456.73	7126.93
456.91	7332.90
457.09	7335.24
457.28	7316.51
457.46	7084.80
457.64	7442.90
457.83	7379.71
458.01	7150.34
458.19	7555.25
458.38	7384.39
458.56	7438.22
458.74	7405.46
458.93	7419.50
459.11	7368.01
459.29	7538.87
459.48	7492.05
459.66	7630.15
459.84	7337.58
460.03	7772.92
460.21	7449.93
460.39	7672.28
460.57	7630.15
460.76	7742.49
460.94	7641.85
461.12	7793.98
461.31	7978.89
461.49	7805.69
461.67	7695.68
461.85	7784.62
462.04	7822.07
462.22	8484.44
462.40	8077.19
462.59	7964.84
462.77	8325.29
462.95	7997.61
463.13	7901.65
463.32	8182.51
463.50	8203.58
463.68	8194.22
463.86	8004.63
464.05	8046.76
464.23	8140.38
464.41	8121.66
464.59	8063.15
464.78	8402.52
464.96	8332.31
465.14	8023.36
465.32	8468.06
465.50	8400.18
465.69	8196.56
465.87	8276.13
466.05	8442.31
466.23	8093.57
466.41	8421.25
466.60	8439.97
466.78	8386.14
466.96	8322.94
467.14	8463.38
467.32	8580.40
467.51	8659.98
467.69	8273.79
467.87	8484.44
468.05	8620.19
468.23	8484.44
468.41	8545.30
468.60	8678.71
468.78	8748.92
468.96	8566.36
469.14	8863.61
469.32	8744.24
469.50	8554.66
469.69	8542.96
469.87	9034.47
470.05	8870.63
470.23	8943.19
470.41	9055.53
470.59	8884.67
470.77	9078.94
470.95	9123.41
471.14	9139.79
471.32	9055.53
471.50	9195.96
471.68	9034.47
471.86	9334.06
472.04	9217.03
472.22	9528.32
472.40	9331.72
472.58	9458.10
472.77	9345.76
472.95	9614.92
473.13	9778.76
473.31	9495.55
473.49	9516.62
473.67	9774.08
473.85	9741.31
474.03	9811.53
474.21	9792.80
474.39	10033.88
474.57	10040.90
474.75	10061.96
474.93	10008.13
475.12	9998.77
475.30	10296.02
475.48	10146.22
475.66	10279.63
475.84	10150.90
476.02	10555.82
476.20	10321.76
476.38	10576.88
476.56	10581.56
476.74	10544.11
476.92	10672.84
477.10	10712.63
477.28	10792.21
477.46	10820.30
477.64	11147.97
477.82	11145.63
478.00	11435.86
478.18	11328.19
478.36	11461.60
478.54	11489.69
478.72	11545.86
478.90	11672.25
479.08	11665.23
479.26	11819.71
479.44	11817.36
479.62	11960.14
479.80	12217.60
479.98	12170.79
480.16	12641.23
480.34	12278.45
480.52	12461.01
480.70	12465.69
480.88	12348.67
481.06	12453.99
481.24	12793.37
481.41	12898.69
481.59	13067.21
481.77	13046.15
481.95	13158.49
482.13	13170.19
482.31	13149.13
482.49	13600.85
482.67	13378.50
482.85	13855.97
483.03	14008.11
483.21	13928.53
483.39	14204.71
483.57	13944.91
483.74	14148.54
483.92	14211.73
484.10	14380.25
484.28	14581.54
484.46	14602.60
484.64	15152.63
484.82	14555.79
485.00	14665.80
485.18	15044.96
485.35	15232.21
485.53	15009.86
485.71	15061.35
485.89	15552.86
486.07	15302.42
486.25	15433.49
486.43	15580.95
486.61	15805.64
486.78	15953.09
486.96	16170.76
487.14	16381.41
487.32	16074.80
487.50	16374.39
487.68	16568.65
487.85	16893.99
488.03	17020.38
488.21	17242.73
488.39	16823.77
488.57	17174.85
488.75	17198.26
488.92	17497.84
489.10	17785.73
489.28	17593.81
489.46	18038.51
489.64	18155.54
489.81	18434.06
489.99	18548.75
490.17	18513.64
490.35	18527.68
490.53	18537.04
490.70	18909.19
490.88	19080.05
491.06	19091.75
491.24	18871.74
491.41	19054.30
491.59	19463.90
491.77	19101.11
491.95	19393.68
492.13	19695.61
492.30	19590.28
492.48	19939.02
492.66	19873.49
492.84	19974.13
493.01	20152.01
493.19	20180.10
493.37	20762.89
493.54	20517.14
493.72	20849.49
493.90	20814.38
494.08	21088.23
494.25	21483.78
494.43	21254.40
494.61	21394.84
494.79	21570.38
494.96	21565.70
495.14	21240.36
495.32	21937.84
495.49	21879.33
495.67	21989.33
495.85	22115.72
496.02	22228.07
496.20	22354.46
496.38	22434.03
496.55	22443.40
496.73	22988.74
496.91	22691.49
497.09	22834.27
497.26	23386.63
497.44	23002.78
497.62	22991.08
497.79	23482.59
497.97	23026.19
498.14	23840.70
498.32	23552.81
498.50	23894.53
498.67	23964.75
498.85	23850.06
499.03	24154.33
499.20	24072.41
499.38	24341.57
499.56	24505.41
499.73	24418.81
499.91	24386.04
500.08	24531.15
500.26	24479.66
500.44	24769.89
500.61	24713.72
500.79	24357.96
500.97	24772.23
501.14	25369.07
501.32	25156.08
501.49	24945.43
501.67	25308.21
501.84	25413.54
502.02	25357.36
502.20	25685.04
502.37	25701.42
502.55	25720.15
502.72	25757.60
502.90	25755.26
503.07	25834.83
503.25	26398.90
503.43	25921.43
503.60	26218.68
503.78	26188.25
503.95	26586.15
504.13	26801.47
504.30	26686.79
504.48	26436.35
504.65	26768.71
504.83	27150.21
505.01	27197.02
505.18	26820.20
505.36	27159.58
505.53	27370.22
505.71	27552.79
505.88	27637.05
506.06	27351.50
506.23	27337.46
506.41	27204.05
506.58	27583.21
506.76	27592.58
506.93	27784.50
507.11	27922.59
507.28	27800.88
507.46	27370.22
507.63	27971.74
507.81	28194.09
507.98	28208.14
508.16	28460.91
508.33	28364.95
508.50	28304.10
508.68	28758.16
508.85	28971.15
509.03	28552.20
509.20	28856.46
509.38	29371.38
509.55	29149.03
509.73	29151.37
509.90	29076.48
510.08	28659.86
510.25	29390.11
510.42	29244.99
510.60	29799.70
510.77	29706.08
510.95	29795.02
511.12	29572.67
511.30	29780.98
511.47	30008.01
511.64	30251.42
511.82	30654.00
511.99	30120.35
512.17	30050.14
512.34	29846.51
512.51	30558.03
512.69	30600.16
512.86	30455.05
513.04	30785.07
513.21	30483.14
513.38	30740.60
513.56	30377.81
513.73	30567.40
513.90	30918.48
514.08	31117.42
514.25	31222.75
514.43	30986.35
514.60	30756.98
514.77	31311.69
514.95	31562.12
515.12	31349.14
515.29	31470.84
515.47	31997.46
515.64	31866.39
515.81	31627.66
515.99	31852.35
516.16	31681.49
516.33	31578.51
516.51	31494.25
516.68	31714.26
516.85	31597.23
517.03	31627.66
517.20	31630.00
517.37	32226.84
517.54	32100.45
517.72	32407.06
517.89	32360.25
518.06	32407.06
518.24	32191.73
518.41	32444.51
518.58	32594.30
518.75	32711.33
518.93	33242.63
519.10	32732.39
519.27	32964.10
519.45	32830.69
519.62	33354.97
519.79	33284.76
519.96	33205.18
520.14	33078.79
520.31	33013.26
520.48	33336.25
520.65	33270.72
520.83	33411.15
521.00	33853.51
521.17	33816.06
521.34	33823.08
521.52	33958.83
521.69	34164.80
521.86	34595.46
522.03	34108.63
522.20	34347.36
522.38	34363.75
522.55	34469.07
522.72	34148.42
522.89	34199.91
523.07	34464.39
523.24	34506.52
523.41	34410.56
523.58	34450.35
523.75	35051.86
523.92	34782.70
524.10	34506.52
524.27	35005.05
524.44	35129.10
524.61	35082.29
524.78	34951.22
524.96	34986.33
525.13	35477.84
525.30	35728.28
525.47	35695.51
525.64	35433.37
525.81	35416.99
525.98	35510.61
526.16	35260.17
526.33	35243.79
526.50	35857.01
526.67	35454.44
526.84	35321.02
527.01	35562.10
527.18	35861.69
527.36	35725.94
527.53	35943.61
527.70	36009.14
527.87	36130.85
528.04	36378.95
528.21	36371.92
528.38	36051.27
528.55	36240.86
528.72	37010.89
528.89	36893.86
529.07	36629.38
529.24	36009.14
529.41	36332.14
529.58	36561.51
529.75	36573.21
529.92	36959.40
530.09	36835.35
530.26	36919.61
530.43	36582.57
530.60	36685.56
530.77	36875.14
530.94	37294.10
531.11	36863.44
531.28	37460.27
531.46	37556.24
531.63	37439.21
531.80	37132.60
531.97	37486.02
532.14	36971.10
532.31	37303.46
532.48	37642.84
532.65	37809.01
532.82	37413.46
532.99	37703.69
533.16	37563.26
533.33	37640.50
533.50	37603.05
533.67	37996.26
533.84	37703.69
534.01	37801.99
534.18	37961.15
534.35	38398.83
534.52	38080.52
534.69	38230.31
534.86	38464.36
535.03	37839.44
535.20	38728.84
535.37	38632.88
535.54	38726.50
535.71	38761.61
535.88	38391.81
536.05	38415.21
536.22	38902.04
536.38	38574.37
536.55	38691.40
536.72	38705.44
536.89	38513.52
537.06	38637.56
537.23	38651.61
537.40	38487.77
537.57	38684.37
537.74	39023.75
537.91	38990.98
538.08	39328.02
538.25	38738.21
538.42	39056.52
538.59	39335.04
538.75	39180.57
538.92	39421.64
539.09	39234.40
539.26	39152.48
539.43	39597.18
539.60	39335.04
539.77	39152.48
539.94	39461.43
540.11	39421.64
540.28	39372.49
540.44	39578.46
540.61	39203.97
540.78	39072.90
540.95	39576.12
541.12	39564.42
541.29	39618.25
541.46	39840.60
541.62	39791.45
541.79	40399.99
541.96	39419.30
542.13	39976.35
542.30	39824.22
542.47	39952.94
542.63	40151.89
542.80	40598.93
542.97	40835.33
543.14	40720.64
543.31	40910.22
543.48	40390.62
543.64	41361.95
543.81	40730.00
543.98	40802.56
544.15	40627.02
544.32	40767.45
544.48	40851.71
544.65	40603.61
544.82	40886.82
544.99	40610.64
545.16	41038.95
545.32	40781.49
545.49	40952.35
545.66	41064.70
545.83	41020.23
546.00	41399.40
546.16	41083.42
546.33	40875.12
546.50	40708.94
546.67	40980.44
546.83	40732.34
547.00	41553.87
547.17	41294.07
547.34	41652.17
547.50	41230.88
547.67	41790.27
547.84	41038.95
548.00	41893.25
548.17	42000.91
548.34	41053.00
548.51	42050.06
548.67	41848.78
548.84	41621.75
549.01	41818.35
549.18	41535.15
549.34	41909.63
549.51	41532.81
549.68	42038.36
549.84	41706.01
550.01	42003.25
550.18	41488.34
550.34	42349.65
550.51	42141.35
550.68	41689.62
550.84	41670.90
551.01	42192.84
551.18	41947.08
551.34	42108.58
551.51	42253.69
551.68	41944.74
551.84	42377.74
552.01	41928.36
552.18	42279.44
552.34	41827.71
552.51	42717.12
552.68	42150.71
552.84	42511.15
553.01	42663.28
553.18	42433.91
553.34	42487.74
553.51	42487.74
553.67	42864.57
553.84	42754.57
554.01	42897.34
554.17	43199.27
554.34	42993.30
554.51	42841.17
554.67	42679.67
554.84	42637.54
555.00	42644.56
555.17	42768.61
555.33	42782.65
555.50	42555.62
555.67	42913.72
555.83	42878.61
556.00	42834.14
556.16	43199.27
556.33	43203.95
556.50	43150.12
556.66	43227.35
556.83	42937.13
556.99	43438.00
557.16	43299.91
557.32	43131.39
557.49	42916.06
557.65	42721.80
557.82	43056.50
557.98	43037.77
558.15	43519.92
558.32	43222.67
558.48	43180.54
558.65	43597.16
558.81	43409.92
558.98	43255.44
559.14	43573.75
559.31	43248.42
559.47	43344.38
559.64	43753.97
559.80	43639.29
559.97	44039.52
560.13	43466.09
560.30	43320.98
560.46	43533.96
560.63	43580.78
560.79	43587.80
560.96	43831.21
561.12	44016.11
561.29	43667.37
561.45	43683.76
561.61	43519.92
561.78	43590.14
561.94	43632.27
562.11	43374.81
562.27	43807.81
562.44	44112.08
562.60	43433.32
562.77	43913.13
562.93	43550.35
563.10	44016.11
563.26	43700.14
563.42	43854.62
563.59	43697.80
563.75	43812.49
563.92	43882.70
564.08	44306.34
564.24	44575.50
564.41	44013.77
564.57	44074.63
564.74	43920.15
564.90	43859.30
565.07	44163.57
565.23	44086.33
565.39	44041.86
565.56	44648.06
565.72	43875.68
565.88	44051.22
566.05	43894.41
566.21	43833.55
566.38	43835.89
566.54	43557.37
566.70	44343.79
566.87	44128.46
567.03	44727.64
567.19	44980.42
567.36	44020.80
567.52	43817.17
567.68	44641.04
567.85	44250.17
568.01	44250.17
568.17	43983.35
568.34	44486.56
568.50	44355.49
568.66	43973.98
568.83	44617.63
568.99	44114.42
569.15	44229.10
569.32	44229.10
569.48	44402.30
569.64	44619.97
569.81	44219.74
569.97	44397.62
570.13	44212.72
570.30	44137.82
570.46	44128.46
570.62	44151.87
570.78	44463.16
570.95	44175.27
571.11	44634.02
571.27	44158.89
571.43	44484.22
571.60	44940.63
571.76	44559.12
571.92	44313.36
572.09	44399.96
572.25	44339.11
572.41	44301.66
572.57	44306.34
572.74	45146.59
572.90	44797.85
573.06	44877.43
573.22	44535.71
573.38	44416.35
573.55	44547.42
573.71	44781.47
573.87	44678.49
574.03	44250.17
574.20	44584.86
574.36	44240.81
574.52	44336.77
574.68	44725.30
574.84	44334.43
575.01	44308.68
575.17	44357.83
575.33	44493.58
575.49	44191.65
575.65	44821.26
575.82	44823.60
575.98	44416.35
576.14	44884.45
576.30	44788.49
576.46	44641.04
576.62	44327.41
576.79	44631.68
576.95	44179.95
577.11	44278.25
577.27	44847.00
577.43	44671.46
577.59	44538.05
577.75	44610.61
577.92	44385.92
578.08	44509.97
578.24	44484.22
578.40	44978.07
578.56	44697.21
578.72	44652.74
578.88	44715.93
579.04	44952.33
579.21	44830.62
579.37	44540.39
579.53	44619.97
579.69	44767.43
579.85	44486.56
580.01	44891.48
580.17	44554.44
580.33	44554.44
580.49	44825.94
580.65	44713.59
580.82	45043.61
580.98	44704.23
581.14	44598.91
581.30	44797.85
581.46	44626.99
581.62	44802.53
581.78	44786.15
581.94	45095.10
582.10	44903.18
582.26	44957.01
582.42	44978.07
582.58	44650.40
582.74	44718.28
582.90	44638.70
583.06	44954.67
583.22	44926.58
583.38	44875.09
583.54	44975.73
583.70	45017.86
583.86	44928.92
584.02	44477.20
584.18	44729.98
584.34	44725.30
584.50	44669.12
584.66	44516.99
584.82	44332.09
584.98	44624.65
585.14	45226.17
585.30	44662.10
585.46	44797.85
585.62	44383.58
585.78	44776.79
585.94	44332.09
586.10	44521.67
586.26	44524.01
586.42	44910.20
586.58	45008.50
586.74	44755.72
586.90	44666.78
587.06	44507.63
587.22	44435.07
587.38	44589.55
587.54	45200.43
587.70	44914.88
587.86	44669.12
588.02	45064.67
588.18	45109.14
588.34	44844.66
588.49	44863.39
588.65	44505.29
588.81	44516.99
588.97	45099.78
589.13	44392.94
589.29	44816.58
589.45	44524.01
589.61	45067.02
589.77	45595.98
589.93	45029.57
590.08	45289.37
590.24	44959.35
590.40	45553.85
590.56	45179.36
590.72	45050.63
590.88	44847.00
591.04	44835.30
591.20	45244.90
591.35	45233.19
591.51	45289.37
591.67	44945.31
591.83	44847.00
591.99	44556.78
592.15	44921.90
592.31	45301.07
592.46	44638.70
592.62	45041.27
592.78	45085.74
592.94	45347.88
593.10	44900.84
593.26	45153.62
593.41	45027.23
593.57	45076.38
593.73	45027.23
593.89	45118.51
594.05	44844.66
594.20	44921.90
594.36	45406.39
594.52	45029.57
594.68	44933.60
594.84	45230.85
594.99	45708.32
595.15	45216.81
595.31	45748.11
595.47	45179.36
595.62	45336.18
595.78	45537.46
595.94	45336.18
596.10	45340.86
596.25	45427.46
596.41	45366.60
596.57	45132.55
596.73	45312.77
596.88	44896.16
597.04	45153.62
597.20	45336.18
597.36	45343.20
597.51	45471.93
597.67	45530.44
597.83	45385.33
597.99	45354.90
598.14	45038.93
598.30	45284.68
598.46	45312.77
598.61	45380.65
598.77	45111.49
598.93	45233.19
599.09	44964.03
599.24	45392.35
599.40	45415.76
599.56	45315.11
599.71	45340.86
599.87	45603.00
600.03	45535.12
600.18	45029.57
600.34	45256.60
600.50	45289.37
600.65	45429.80
600.81	45549.17
600.97	46094.51
601.12	45818.33
601.28	45450.86
601.44	45324.47
601.59	45427.46
601.75	44973.39
601.91	44847.00
602.06	45368.94
602.22	45427.46
602.37	45347.88
602.53	45467.25
602.69	45399.37
602.84	45628.74
603.00	45413.41
603.16	45092.76
603.31	45116.17
603.47	44851.69
603.62	44720.62
603.78	45312.77
603.94	45193.40
604.09	45593.64
604.25	45092.76
604.40	44903.18
604.56	45179.36
604.71	45399.37
604.87	45284.68
605.03	45130.21
605.18	45041.27
605.34	44891.48
605.49	44416.35
605.65	44851.69
605.80	45319.79
605.96	45626.40
606.12	45565.55
606.27	45350.22
606.43	44760.40
606.58	45085.74
606.74	44870.41
606.89	45067.02
607.05	44973.39
607.20	45507.04
607.36	45186.38
607.51	45226.17
607.67	45460.23
607.82	44744.02
607.98	45050.63
608.13	44940.63
608.29	44842.32
608.44	44868.07
608.60	44573.16
608.75	44739.34
608.91	44608.27
609.06	44617.63
609.22	44989.78
609.37	44619.97
609.53	44758.06
609.68	44619.97
609.84	44619.97
609.99	44737.00
610.15	44486.56
610.30	44371.88
610.46	44402.30
610.61	44399.96
610.76	44568.48
610.92	44809.56
611.07	44720.62
611.23	44577.84
611.38	44655.08
611.54	44877.43
611.69	44442.09
611.84	44460.82
612.00	44561.46
612.15	44311.02
612.31	44608.27
612.46	44388.26
612.62	44704.23
612.77	44753.38
612.92	44629.34
613.08	44100.37
613.23	44088.67
613.39	44435.07
613.54	44158.89
613.69	44329.75
613.85	44474.86
614.00	44500.61
614.15	44163.57
614.31	44533.37
614.46	44315.70
614.62	44222.08
614.77	44088.67
614.92	44144.84
615.08	44430.39
615.23	44289.96
615.38	43959.94
615.54	43941.22
615.69	43833.55
615.84	44051.22
616.00	44208.04
616.15	43854.62
616.30	43840.57
616.46	43627.59
616.61	44044.20
616.76	43887.39
616.92	43592.48
617.07	43711.84
617.22	43667.37
617.37	43812.49
617.53	44168.25
617.68	44076.97
617.83	43941.22
617.99	43702.48
618.14	44203.36
618.29	43498.86
618.45	43559.71
618.60	43285.87
618.75	43861.64
618.90	43714.19
619.06	43517.58
619.21	44004.41
619.36	43695.46
619.51	43452.05
619.67	43400.55
619.82	43744.61
619.97	43711.84
620.12	43941.22
620.28	43438.00
620.43	43398.21
620.58	43100.97
620.73	43077.56
620.89	42878.61
621.04	43828.87
621.19	43124.37
621.34	43112.67
621.49	43400.55
621.65	43363.11
621.80	43494.18
621.95	42604.77
622.10	43370.13
622.25	43356.08
622.41	43145.44
622.56	43295.23
622.71	43246.08
622.86	43196.93
623.01	43030.75
623.16	43093.94
623.32	43325.66
623.47	43538.65
623.62	43482.47
623.77	43194.59
623.92	43222.67
624.07	42473.70
624.23	42663.28
624.38	42738.18
624.53	42476.04
624.68	42656.26
624.83	42913.72
624.98	42885.64
625.13	42525.19
625.29	42277.10
625.44	42684.35
625.59	42363.70
625.74	42279.44
625.89	41942.40
626.04	41989.21
626.19	42181.13
626.34	42272.42
626.49	42466.68
626.65	42321.57
626.80	42590.73
626.95	42520.51
627.10	42019.64
627.25	42155.39
627.40	42202.20
627.55	41865.16
627.70	41584.30
627.85	42272.42
628.00	42185.82
628.15	42305.18
628.30	41811.33
628.45	42335.61
628.60	41933.04
628.76	41820.69
628.91	42246.67
629.06	42464.34
629.21	42139.00
629.36	41560.89
629.51	41797.29
629.66	41151.30
629.81	42066.45
629.96	41794.95
630.11	42162.41
630.26	41956.44
630.41	41869.84
630.56	41546.85
630.71	42246.67
630.86	41670.90
631.01	41521.10
631.16	41621.75
631.31	41406.42
631.46	41071.72
631.61	41170.02
631.76	41551.53
631.91	41773.88
632.06	41567.91
632.21	41329.18
632.36	41605.36
632.51	41029.59
632.66	41298.75
632.81	40994.48
632.96	41221.52
633.10	40872.78
633.25	40795.54
633.40	40870.43
633.55	41326.84
633.70	41092.79
633.85	40781.49
634.00	40959.38
634.15	41043.63
634.30	40961.72
634.45	40842.35
634.60	41310.46
634.75	40521.69
634.90	40847.03
635.05	40811.92
635.19	40877.46
635.34	41071.72
635.49	40844.69
635.64	40886.82
635.79	40868.09
635.94	40713.62
636.09	40383.60
636.24	40465.52
636.39	40463.18
636.53	40453.82
636.68	40624.68
636.83	40116.78
636.98	40514.67
637.13	40116.78
637.28	40430.41
637.43	40767.45
637.57	40975.76
637.72	40175.30
637.87	40177.64
638.02	40495.95
638.17	40336.79
638.32	40224.45
638.46	40215.08
638.61	39941.24
638.76	39845.28
638.91	40442.12
639.06	40229.13
639.20	40123.80
639.35	40133.17
639.50	40231.47
639.65	40339.13
639.80	40297.00
639.94	40229.13
640.09	40348.50
640.24	39798.47
640.39	39695.49
640.54	39707.19
640.68	39707.19
640.83	39742.30
640.98	39952.94
641.13	39849.96
641.27	39634.63
641.42	39414.62
641.57	39873.37
641.72	40177.64
641.86	39711.87
642.01	39646.33
642.16	39264.83
642.31	39639.31
642.45	39459.09
642.60	39683.78
642.75	38930.13
642.90	39618.25
643.04	39335.04
643.19	39168.87
643.34	39578.46
643.48	39173.55
643.63	39370.15
643.78	39058.86
643.93	39201.63
644.07	39089.29
644.22	39079.92
644.37	39278.87
644.51	39147.80
644.66	39145.46
644.81	39709.53
644.95	39335.04
645.10	39393.56
645.25	39133.76
645.39	39208.65
645.54	39501.22
645.69	39089.29
645.83	39012.05
645.98	39037.80
646.13	39164.18
646.27	39229.72
646.42	38829.49
646.57	39220.36
646.71	38532.24
646.86	39321.00
647.00	39185.25
647.15	39082.27
647.30	39445.05
647.44	38618.84
647.59	38801.40
647.74	38759.27
647.88	38555.64
648.03	38689.06
648.17	38714.80
648.32	38579.05
648.47	38553.30
648.61	38625.86
648.76	38550.96
648.90	38649.27
649.05	38611.82
649.20	38485.43
649.34	38944.17
649.49	38305.21
649.63	38469.04
649.78	38333.29
649.92	38405.85
650.07	38471.39
650.21	38302.87
650.36	38267.76
650.51	38078.18
650.65	38742.89
650.80	38953.54
650.94	38988.64
651.09	38129.67
651.23	38134.35
651.38	38588.41
651.52	38258.40
651.67	38157.75
651.81	38700.76
651.96	37876.89
652.10	38101.58
652.25	37874.55
652.39	37813.70
652.54	38022.00
652.68	38562.67
652.83	38106.26
652.97	38389.47
653.12	37642.84
653.26	37706.03
653.41	37853.48
653.55	37581.98
653.70	37680.28
653.84	38045.41
653.99	37539.85
654.13	38155.41
654.27	37560.92
654.42	37481.34
654.56	37708.37
654.71	37876.89
654.85	37514.11
655.00	37619.43
655.14	37666.24
655.29	37076.43
655.43	37289.42
655.57	37443.89
655.72	36893.86
655.86	36528.74
656.01	36790.88
656.15	37205.16
656.30	37624.11
656.44	37216.86
656.58	36966.42
656.73	36725.35
656.87	36563.85
657.01	37057.70
657.16	36605.98
657.30	36844.71
657.45	36957.06
657.59	36821.31
657.73	37015.57
657.88	36987.49
658.02	36580.23
658.16	36584.91
658.31	36591.94
658.45	37111.53
658.60	36594.28
658.74	36706.62
658.88	36772.16
659.03	36500.65
659.17	36540.44
659.31	36308.73
659.46	36074.68
659.60	36584.91
659.74	36236.17
659.89	36182.34
660.03	35959.99
660.17	36463.21
660.32	36542.78
660.46	36130.85
660.60	36811.95
660.74	36762.79
660.89	35864.03
661.03	36264.26
661.17	35828.92
661.32	36037.23
661.46	35814.88
661.60	35938.93
661.74	35604.23
661.89	36079.36
662.03	35777.43
662.17	35976.37
662.31	35531.67
662.46	35629.98
662.60	35725.94
662.74	35906.16
662.88	35536.35
663.03	35255.49
663.17	35721.26
663.31	35201.66
663.45	35728.28
663.60	35119.74
663.74	34972.28
663.88	34885.68
664.02	34794.40
664.17	35075.27
664.31	34302.89
664.45	34642.27
664.59	35016.75
664.73	34635.25
664.88	34759.30
665.02	34609.50
665.16	34567.37
665.30	34422.26
665.44	34522.90
665.59	34464.39
665.73	34167.14
665.87	34469.07
666.01	34277.15
666.15	34164.80
666.29	34202.25
666.44	34740.57
666.58	34174.16
666.72	34024.37
666.86	34263.10
667.00	34305.23
667.14	34115.65
667.28	34024.37
667.43	33963.51
667.57	33961.17
667.71	33771.59
667.85	33804.36
667.99	33944.79
668.13	33207.52
668.27	33357.32
668.41	34230.33
668.56	33153.69
668.70	33064.75
668.84	33429.87
668.98	33219.22
669.12	33144.33
669.26	33380.72
669.40	33249.65
669.54	33301.14
669.68	33109.22
669.82	33003.89
669.96	32746.44
670.10	32847.08
670.25	32959.42
670.39	32666.86
670.53	32687.92
670.67	32477.27
670.81	32830.69
670.95	32811.97
671.09	32671.54
671.23	32608.34
671.37	32936.02
671.51	32802.61
671.65	32273.65
671.79	32184.71
671.93	32121.51
672.07	32280.67
672.21	32013.85
672.35	31866.39
672.49	31550.42
672.63	31697.88
672.77	31899.16
672.91	31819.58
673.05	31541.06
673.19	31075.29
673.33	31381.90
673.47	31395.95
673.61	31487.23
673.75	31402.97
673.89	30981.67
674.03	30733.57
674.17	31154.87
674.31	30663.36
674.45	31166.57
674.59	30960.61
674.73	30969.97
674.87	30843.58
675.01	30726.55
675.15	30993.37
675.29	30981.67
675.43	30455.05
675.56	30885.71
675.70	30604.84
675.84	30380.15
675.98	29273.08
676.12	30466.75
676.26	30293.55
676.40	29823.11
676.54	30256.11
676.68	29874.60
676.82	29376.06
676.96	29586.71
677.10	29305.85
677.23	29380.74
677.37	29846.51
677.51	29137.33
677.65	29130.31
677.79	28980.51
677.93	28767.52
678.07	28924.34
678.21	28526.45
678.34	28819.02
678.48	28854.12
678.62	28861.15
678.76	28762.84
678.90	28348.57
679.04	28292.40
679.18	28484.32
679.31	28236.22
679.45	27683.86
679.59	27758.75
679.73	27992.81
679.87	28051.32
680.00	27892.16
680.14	28004.51
680.28	27573.85
680.42	27391.29
680.56	27548.11
680.70	27316.39
680.83	27094.04
680.97	26848.29
681.11	26876.37
681.25	26569.76
681.39	26644.66
681.52	27133.83
681.66	27098.72
681.80	26874.03
681.94	26504.23
682.07	26536.99
682.21	26232.72
682.35	26092.29
682.49	26792.11
682.62	26384.86
682.76	26143.78
682.90	25947.18
683.04	26270.17
683.17	26122.72
683.31	26408.26
683.45	25799.73
683.59	25425.24
683.72	25343.32
683.86	25708.44
684.00	25228.63
684.13	25776.32
684.27	25366.73
684.41	25268.42
684.55	24779.25
684.68	24648.18
684.82	25001.60
684.96	25137.35
685.09	24943.09
685.23	24552.22
685.37	24421.15
685.50	24835.42
685.64	24744.14
685.78	24456.26
685.91	24446.90
686.05	24252.63
686.19	23990.49
686.32	23887.51
686.46	23653.45
686.60	23594.94
686.73	23641.75
686.87	23260.24
687.01	23384.29
687.14	22946.61
687.28	23056.62
687.42	23232.16
687.55	23173.64
687.69	22707.88
687.82	22834.27
687.96	23073.00
688.10	22974.70
688.23	22757.03
688.37	22417.65
688.50	22253.81
688.64	22363.82
688.78	22377.86
688.91	21860.60
689.05	22361.48
689.18	21937.84
689.32	21530.59
689.46	21696.77
689.59	22174.24
689.73	21928.48
689.86	21727.19
690.00	21614.85
690.13	21755.28
690.27	21460.37
690.41	21212.28
690.54	21043.76
690.68	21149.08
690.81	20840.13
690.95	21113.97
691.08	21214.62
691.22	21025.03
691.35	20910.35
691.49	21188.87
691.62	20985.24
691.76	20938.43
691.89	21067.16
692.03	20393.09
692.16	20381.38
692.30	20292.44
692.43	20226.91
692.57	20411.81
692.70	20355.64
692.84	19723.69
692.97	20004.56
693.11	19688.59
693.24	19667.52
693.38	19534.11
693.51	19594.96
693.65	19676.88
693.78	19335.17
693.92	19222.82
694.05	19358.57
694.19	19295.38
694.32	19250.91
694.45	19300.06
694.59	19227.50
694.72	18822.59
694.86	18939.62
694.99	18761.73
695.13	18448.10
695.26	18293.63
695.39	18277.24
695.53	18317.03
695.66	18778.12
695.80	18075.96
695.93	18036.17
696.07	18022.12
696.20	18225.75
696.33	17811.48
696.47	18005.74
696.60	18104.04
696.73	17907.44
696.87	17661.68
697.00	17401.88
697.14	17940.21
697.27	17617.21
697.40	17331.67
697.54	17399.54
697.67	17142.08
697.80	17153.79
697.94	17085.91
698.07	17067.19
698.21	16854.20
698.34	17015.69
698.47	16905.69
698.61	16671.64
698.74	16706.74
698.87	16601.42
699.01	16599.08
699.14	16428.22
699.27	16350.98
699.40	16617.80
699.54	16236.30
699.67	16177.78
699.80	16114.59
699.94	16205.87
700.07	15929.69
700.20	16072.46
700.34	15864.15
700.47	15957.77
700.60	16035.01
700.73	15779.89
700.87	15590.31
701.00	15477.96
701.13	15328.17
701.26	15276.68
701.40	15536.48
701.53	15023.90
701.66	15426.47
701.79	15241.57
701.93	14930.28
702.06	14967.73
702.19	14672.82
702.32	15159.65
702.46	14766.44
702.59	14855.38
702.72	14869.42
702.85	14904.53
702.99	14483.24
703.12	14672.82
703.25	14623.67
703.38	14576.86
703.51	14497.28
703.65	14347.48
703.78	14251.52
703.91	14202.37
704.04	14157.90
704.17	14125.13
704.31	13933.21
704.44	13596.17
704.57	13893.42
704.70	13647.66
704.83	13745.97
704.96	13940.23
705.10	13956.61
705.23	13891.08
>>>>>End Processed Spectral Data<<<<<
