SpectraSuite Data File
++++++++++++++++++++++++++++++++++++
Date: Fri Oct 25 10:44:41 EDT 2013
User: price-jones
Dark Spectrum Present: No
Reference Spectrum Present: No
Number of Sampled Component Spectra: 1
Spectrometers: USB2+H05261
Integration Time (usec): 100000 (USB2+H05261)
Spectra Averaged: 1 (USB2+H05261)
Boxcar Smoothing: 0 (USB2+H05261)
Correct for Electrical Dark: No (USB2+H05261)
Strobe/Lamp Enabled: No (USB2+H05261)
Correct for Detector Non-linearity: No (USB2+H05261)
Correct for Stray Light: No (USB2+H05261)
Number of Pixels in Processed Spectrum: 2048
>>>>>Begin Processed Spectral Data<<<<<
365.73	107.66
365.92	107.66
366.12	107.66
366.32	32.77
366.52	2.34
366.72	51.49
366.91	77.24
367.11	35.11
367.31	0.00
367.51	58.51
367.70	0.00
367.90	81.92
368.10	14.04
368.30	37.45
368.49	74.90
368.69	35.11
368.89	32.77
369.09	81.92
369.28	58.51
369.48	56.17
369.68	88.94
369.87	135.75
370.07	79.58
370.27	95.96
370.47	194.26
370.66	344.06
370.86	458.74
371.06	428.32
371.25	465.77
371.45	451.72
371.65	503.22
371.84	393.21
372.04	503.22
372.24	383.85
372.44	428.32
372.63	470.45
372.83	463.43
373.03	461.09
373.22	526.62
373.42	510.24
373.62	507.90
373.81	547.69
374.01	493.85
374.21	580.45
374.40	512.58
374.60	571.09
374.79	545.34
374.99	514.92
375.19	437.68
375.38	615.56
375.58	512.58
375.78	545.34
375.97	528.96
376.17	629.60
376.37	510.24
376.56	582.79
376.76	592.16
376.95	667.05
377.15	634.29
377.35	521.94
377.54	627.26
377.74	592.16
377.93	526.62
378.13	580.45
378.33	636.63
378.52	667.05
378.72	575.77
378.91	638.97
379.11	596.84
379.31	578.11
379.50	564.07
379.70	606.20
379.89	657.69
380.09	641.31
380.28	667.05
380.48	657.69
380.68	622.58
380.87	631.94
381.07	690.46
381.26	662.37
381.46	669.39
381.65	690.46
381.85	716.20
382.04	655.35
382.24	669.39
382.43	594.50
382.63	650.67
382.83	695.14
383.02	697.48
383.22	713.86
383.41	671.73
383.61	887.06
383.80	760.67
384.00	603.86
384.19	704.50
384.39	697.48
384.58	734.93
384.78	809.83
384.97	746.63
385.17	664.71
385.36	629.60
385.56	833.23
385.75	709.18
385.95	751.31
386.14	774.72
386.34	697.48
386.53	739.61
386.72	774.72
386.92	826.21
387.11	814.51
387.31	882.38
387.50	753.65
387.70	823.87
387.89	791.10
388.09	833.23
388.28	851.96
388.48	805.14
388.67	823.87
388.86	791.10
389.06	875.36
389.25	961.96
389.45	910.47
389.64	847.27
389.84	929.19
390.03	952.60
390.22	896.43
390.42	964.30
390.61	880.04
390.81	994.73
391.00	954.94
391.19	1006.43
391.39	959.62
391.58	978.34
391.78	875.36
391.97	915.15
392.16	924.51
392.36	936.21
392.55	985.37
392.75	978.34
392.94	950.26
393.13	968.98
393.33	973.66
393.52	884.72
393.71	1097.71
393.91	976.00
394.10	945.58
394.29	1027.50
394.49	1039.20
394.68	1100.05
394.88	1060.26
395.07	1184.31
395.26	1214.74
395.46	1053.24
395.65	1104.73
395.84	1144.52
396.04	1219.42
396.23	1121.12
396.42	1102.39
396.62	1102.39
396.81	1144.52
397.00	1219.42
397.19	1160.91
397.39	1280.27
397.58	1282.61
397.77	1177.29
397.97	1235.80
398.16	1376.24
398.35	1324.74
398.55	1291.98
398.74	1277.93
398.93	1366.87
399.12	1322.40
399.32	1303.68
399.51	1329.42
399.70	1338.79
399.90	1376.24
400.09	1287.29
400.28	1434.75
400.47	1455.81
400.67	1455.81
400.86	1523.69
401.05	1481.56
401.24	1472.20
401.44	1476.88
401.63	1549.43
401.82	1521.35
402.01	1476.88
402.21	1404.32
402.40	1526.03
402.59	1542.41
402.78	1612.63
402.97	1547.09
403.17	1533.05
403.36	1598.59
403.55	1624.33
403.74	1717.95
403.93	1607.95
404.13	1701.57
404.32	1727.32
404.51	1631.35
404.70	1715.61
404.89	1701.57
405.09	1661.78
405.28	1776.47
405.47	1708.59
405.66	1636.03
405.85	1790.51
406.05	1689.87
406.24	1746.04
406.43	1736.68
406.62	1795.19
406.81	1926.26
407.00	1720.29
407.20	1778.81
407.39	1769.44
407.58	1853.70
407.77	1837.32
407.96	1987.11
408.15	1975.41
408.34	1952.01
408.54	1902.86
408.73	1959.03
408.92	2017.54
409.11	2038.61
409.30	2050.31
409.49	2015.20
409.68	1973.07
409.87	2076.06
410.07	2054.99
410.26	2071.37
410.45	2195.42
410.64	2204.78
410.83	2242.23
411.02	2279.68
411.21	2263.30
411.40	2272.66
411.59	2352.24
411.78	2211.81
411.98	2300.75
412.17	2225.85
412.36	2403.73
412.55	2359.26
412.74	2438.84
412.93	2399.05
413.12	2438.84
413.31	2478.63
413.50	2504.37
413.69	2495.01
413.88	2654.17
414.07	2679.91
414.26	2558.21
414.45	2630.76
414.64	2691.62
414.83	2677.57
415.02	2705.66
415.22	2724.38
415.41	2726.72
415.60	2792.26
415.79	2822.69
415.98	2876.52
416.17	2860.13
416.36	3019.29
416.55	2916.31
416.74	2939.71
416.93	2820.35
417.12	2932.69
417.31	3042.70
417.50	2972.48
417.69	3110.57
417.88	3115.25
418.07	2883.54
418.26	3040.36
418.45	3098.87
418.64	3248.66
418.83	3176.11
419.02	3267.39
419.21	3176.11
419.39	3091.85
419.58	3117.59
419.77	3049.72
419.96	3269.73
420.15	3386.76
420.34	3288.45
420.53	3368.03
420.72	3452.29
420.91	3447.61
421.10	3384.41
421.29	3379.73
421.48	3426.54
421.67	3295.47
421.86	3414.84
422.05	3449.95
422.24	3433.57
422.43	3314.20
422.61	3506.12
422.80	3494.42
422.99	3564.64
423.18	3466.33
423.37	3571.66
423.56	3449.95
423.75	3461.65
423.94	3419.52
424.13	3375.05
424.32	3365.69
424.50	3609.11
424.69	3566.98
424.88	3522.51
425.07	3428.88
425.26	3550.59
425.45	3618.47
425.64	3529.53
425.83	3527.19
426.01	3574.00
426.20	3513.14
426.39	3679.32
426.58	3468.67
426.77	3719.11
426.96	3543.57
427.15	3531.87
427.33	3632.51
427.52	3667.62
427.71	3693.37
427.90	3665.28
428.09	3662.94
428.28	3840.82
428.46	3784.65
428.65	3705.07
428.84	3899.33
429.03	3786.99
429.22	3691.02
429.40	3812.73
429.59	3698.05
429.78	3726.13
429.97	3679.32
430.16	3597.40
430.34	3808.05
430.53	3861.88
430.72	3819.75
430.91	3939.12
431.10	3927.42
431.28	4023.38
431.47	4201.26
431.66	4273.82
431.85	4002.32
432.03	4215.30
432.22	4131.05
432.41	4084.23
432.60	4145.09
432.79	4142.75
432.97	4248.07
433.16	4182.54
433.35	4079.55
433.54	4163.81
433.72	4112.32
433.91	4245.73
434.10	4360.42
434.28	4128.70
434.47	4325.31
434.66	4381.48
434.85	4435.32
435.03	4512.55
435.22	4468.08
435.41	4580.43
435.59	4416.59
435.78	4449.36
435.97	4547.66
436.16	4610.86
436.34	4507.87
436.53	4582.77
436.72	4683.41
436.90	4507.87
437.09	4713.84
437.28	4531.28
437.46	4578.09
437.65	4636.60
437.84	4667.03
438.02	4681.07
438.21	4711.50
438.40	4613.20
438.58	4851.93
438.77	4784.06
438.96	4929.17
439.14	4894.06
439.33	5015.77
439.52	5128.11
439.70	5011.09
439.89	5022.79
440.08	5048.54
440.26	5076.62
440.45	5116.41
440.63	5305.99
440.82	5387.91
441.01	5287.27
441.19	5357.49
441.38	5373.87
441.57	5467.49
441.75	5607.92
441.94	5757.72
442.12	5621.97
442.31	5727.29
442.50	5823.25
442.68	5692.18
442.87	5783.46
443.05	5631.33
443.24	5809.21
443.43	5907.51
443.61	5827.93
443.80	5919.21
443.98	5701.54
444.17	5542.39
444.35	5722.61
444.54	5893.47
444.73	5818.57
444.91	5823.25
445.10	5788.14
445.28	5893.47
445.47	5839.64
445.65	5846.66
445.84	5846.66
446.02	5865.38
446.21	5813.89
446.39	5764.74
446.58	5954.32
446.77	5877.09
446.95	5816.23
447.14	5996.45
447.32	6045.60
447.51	6085.39
447.69	5860.70
447.88	5984.75
448.06	6017.52
448.25	6001.13
448.43	5926.24
448.62	6122.84
448.80	6010.50
448.99	6043.26
449.17	6080.71
449.36	6150.93
449.54	6186.04
449.73	6272.64
449.91	6214.12
450.10	6387.32
450.28	6513.71
450.46	6459.88
450.65	6483.28
450.83	6462.22
451.02	6462.22
451.20	6377.96
451.39	6347.53
451.57	6394.34
451.76	6523.07
451.94	6602.65
452.13	6583.93
452.31	6300.72
452.49	6384.98
452.68	6497.33
452.86	6553.50
453.05	6427.11
453.23	6576.91
453.42	6558.18
453.60	6593.29
453.78	6628.40
453.97	6485.62
454.15	6707.98
454.34	6621.38
454.52	6794.58
454.70	6682.23
454.89	6658.82
455.07	6857.77
455.26	6799.26
455.44	6813.30
455.62	6944.37
455.81	7019.27
455.99	6986.50
456.17	6967.77
456.36	6857.77
456.54	7019.27
456.73	7246.30
456.91	7342.26
457.09	7227.57
457.28	7386.73
457.46	7255.66
457.64	7321.20
457.83	7344.60
458.01	7265.02
458.19	7407.80
458.38	7391.41
458.56	7440.56
458.74	7449.93
458.93	7279.07
459.11	7405.46
459.29	7372.69
459.48	7417.16
459.66	7599.72
459.84	7548.23
460.03	7763.56
460.21	7667.60
460.39	7705.04
460.57	7641.85
460.76	7522.48
460.94	7791.64
461.12	7726.11
461.31	7719.09
461.49	7964.84
461.67	7700.36
461.85	7765.90
462.04	7812.71
462.22	8013.99
462.40	8088.89
462.59	7906.33
462.77	7868.88
462.95	8184.85
463.13	8079.53
463.32	8067.83
463.50	8032.72
463.68	7922.71
463.86	8255.07
464.05	8037.40
464.23	7939.10
464.41	8121.66
464.59	8067.83
464.78	8276.13
464.96	8271.45
465.14	8133.36
465.32	8180.17
465.50	8318.26
465.69	8215.28
465.87	8348.69
466.05	8168.47
466.23	8276.13
466.41	8224.64
466.60	8372.10
466.78	8145.06
466.96	8397.84
467.14	8306.56
467.32	8423.59
467.51	8575.72
467.69	8262.09
467.87	8423.59
468.05	8557.00
468.23	8659.98
468.41	8442.31
468.60	8643.60
468.78	8760.63
468.96	8594.45
469.14	8704.45
469.32	8730.20
469.50	8571.04
469.69	8858.93
469.87	8802.75
470.05	8978.30
470.23	9074.26
470.41	8821.48
470.59	9053.19
470.77	8669.34
470.95	8997.02
471.14	9050.85
471.32	8931.48
471.50	9055.53
471.68	9202.99
471.86	9551.73
472.04	9458.10
472.22	9703.86
472.40	9284.91
472.58	9521.30
472.77	9547.05
472.95	9640.67
473.13	9848.97
473.31	9610.24
473.49	9490.87
473.67	9525.98
473.85	9530.66
474.03	9914.51
474.21	9682.80
474.39	9909.83
474.57	9909.83
474.75	10057.28
474.93	10223.46
475.12	10188.35
475.30	10054.94
475.48	10022.17
475.66	10186.01
475.84	10157.92
476.02	10572.20
476.20	10441.13
476.38	10607.31
476.56	10817.96
476.74	10672.84
476.92	10642.42
477.10	10717.31
477.28	10717.31
477.46	10857.75
477.64	10939.66
477.82	11105.84
478.00	11199.46
478.18	11372.66
478.36	11566.93
478.54	11494.37
478.72	11669.91
478.90	11721.40
479.08	11920.35
479.26	11866.52
479.44	11824.39
479.62	12072.48
479.80	12250.36
479.98	12114.61
480.16	12491.44
480.34	12505.48
480.52	12620.17
480.70	12322.92
480.88	12273.77
481.06	12514.84
481.24	12688.04
481.41	13090.62
481.59	13015.72
481.77	12732.51
481.95	12940.82
482.13	13158.49
482.31	13231.05
482.49	13329.35
482.67	13603.19
482.85	13745.97
483.03	13717.88
483.21	13991.72
483.39	14075.98
483.57	13671.07
483.74	14291.31
483.92	14160.24
484.10	14295.99
484.28	14406.00
484.46	14649.41
484.64	14850.70
484.82	14846.02
485.00	14916.23
485.18	15080.07
485.35	15129.22
485.53	14963.04
485.71	15061.35
485.89	15417.11
486.07	15307.10
486.25	15190.08
486.43	15564.56
486.61	15599.67
486.78	16018.63
486.96	15934.37
487.14	16088.84
487.32	16372.05
487.50	16109.91
487.68	16276.09
487.85	16755.90
488.03	16879.94
488.21	17043.78
488.39	17088.25
488.57	16961.86
488.75	17303.58
488.92	17432.31
489.10	17792.75
489.28	18031.49
489.46	17975.31
489.64	17743.60
489.81	18576.83
489.99	18221.07
490.17	18412.99
490.35	18515.98
490.53	18403.63
490.70	18778.12
490.88	18857.70
491.06	18953.66
491.24	19089.41
491.41	18988.77
491.59	19173.67
491.77	19381.98
491.95	19592.62
492.13	19613.69
492.30	19915.62
492.48	19693.27
492.66	19786.89
492.84	19880.51
493.01	20189.46
493.19	20325.21
493.37	20587.35
493.54	20304.15
493.72	20690.34
493.90	20367.34
494.08	20858.85
494.25	21034.39
494.43	20863.54
494.61	21385.47
494.79	21357.39
494.96	21195.89
495.14	21518.89
495.32	21874.65
495.49	21682.72
495.67	22012.74
495.85	21799.75
496.02	22324.03
496.20	22209.34
496.38	22384.88
496.55	22742.99
496.73	23080.02
496.91	22883.42
497.09	22778.09
497.26	22820.22
497.44	23239.18
497.62	22939.59
497.79	23358.55
497.97	23260.24
498.14	23309.40
498.32	23758.78
498.50	23726.01
498.67	23683.88
498.85	23922.62
499.03	23859.42
499.20	24018.58
499.38	24217.52
499.56	24285.40
499.73	24297.10
499.91	24247.95
500.08	24634.14
500.26	24350.93
500.44	24954.79
500.61	24872.87
500.79	24746.48
500.97	24978.20
501.14	25053.09
501.32	24943.09
501.49	25083.52
501.67	25118.63
501.84	25249.70
502.02	24999.26
502.20	25207.57
502.37	25476.73
502.55	25785.68
502.72	25465.03
502.90	25881.64
503.07	25820.79
503.25	26036.12
503.43	25947.18
503.60	26239.75
503.78	25755.26
503.95	26192.94
504.13	26497.20
504.30	26431.67
504.48	26206.98
504.65	26698.49
504.83	26888.07
505.01	26780.41
505.18	26909.14
505.36	27461.51
505.53	27082.34
505.71	27676.83
505.88	27454.48
506.06	26946.59
506.23	27402.99
506.41	27182.98
506.58	27344.48
506.76	27655.77
506.93	27934.29
507.11	27531.72
507.28	27590.24
507.46	27875.78
507.63	28063.02
507.81	27985.79
507.98	27723.65
508.16	28142.60
508.33	28425.81
508.50	28500.70
508.68	28374.31
508.85	28739.44
509.03	28615.39
509.20	28601.35
509.38	28748.80
509.55	29022.64
509.73	28751.14
509.90	28556.88
510.08	29097.54
510.25	29268.40
510.42	29362.02
510.60	29338.62
510.77	29708.42
510.95	29766.93
511.12	29837.15
511.30	29649.91
511.47	30150.78
511.64	29998.65
511.82	30417.60
511.99	30010.35
512.17	30167.16
512.34	30136.74
512.51	30253.76
512.69	30644.63
512.86	30206.95
513.04	30181.21
513.21	30773.36
513.38	30696.13
513.56	30576.76
513.73	30347.39
513.90	30906.77
514.08	30752.30
514.25	30621.23
514.43	30773.36
514.60	30761.66
514.77	30705.49
514.95	31407.65
515.12	31573.83
515.29	31381.90
515.47	31768.09
515.64	31618.30
515.81	31470.84
515.99	31552.76
516.16	31517.65
516.33	31779.79
516.51	31812.56
516.68	31012.10
516.85	31608.93
517.03	31409.99
517.20	31498.93
517.37	31840.65
517.54	31941.29
517.72	32177.68
517.89	32086.40
518.06	31995.12
518.24	32163.64
518.41	31899.16
518.58	32629.41
518.75	32219.81
518.93	32465.57
519.10	32409.40
519.27	32697.28
519.45	32898.57
519.62	32727.71
519.79	32484.30
519.96	32929.00
520.14	33357.32
520.31	32980.49
520.48	33502.43
520.65	33237.95
520.83	33535.20
521.00	33404.13
521.17	33415.83
521.34	33640.52
521.52	33476.68
521.69	33347.95
521.86	34050.11
522.03	33809.04
522.20	34253.74
522.38	34291.19
522.55	33888.62
522.72	33968.19
522.89	33928.41
523.07	34139.05
523.24	34015.01
523.41	34981.65
523.58	34141.39
523.75	34700.78
523.92	34726.53
524.10	34543.97
524.27	35007.39
524.44	34991.01
524.61	35147.82
524.78	35187.61
524.96	35194.64
525.13	35065.91
525.30	35477.84
525.47	35044.84
525.64	35655.72
525.81	35243.79
525.98	35321.02
526.16	35208.68
526.33	34831.85
526.50	35449.75
526.67	34981.65
526.84	35407.62
527.01	35185.27
527.18	35847.64
527.36	35683.81
527.53	35974.03
527.70	36011.48
527.87	36196.38
528.04	35484.86
528.21	35974.03
528.38	35974.03
528.55	36128.51
528.72	36175.32
528.89	36594.28
529.07	36079.36
529.24	36605.98
529.41	36264.26
529.58	36367.24
529.75	36605.98
529.92	36797.90
530.09	36582.57
530.26	36308.73
530.43	36659.81
530.60	36727.69
530.77	36968.76
530.94	37172.39
531.11	36350.86
531.28	36811.95
531.46	37205.16
531.63	37757.52
531.80	36875.14
531.97	37219.20
532.14	36938.33
532.31	36851.73
532.48	37455.59
532.65	37380.70
532.82	37125.58
532.99	37254.31
533.16	37385.38
533.33	37263.67
533.50	37612.41
533.67	37497.72
533.84	37614.75
534.01	37825.40
534.18	37626.45
534.35	37738.80
534.52	37724.75
534.69	37893.27
534.86	38211.59
535.03	37916.68
535.20	38483.09
535.37	38305.21
535.54	38455.00
535.71	38534.58
535.88	38202.22
536.05	38134.35
536.22	38333.29
536.38	38513.52
536.55	38082.86
536.72	38567.35
536.89	38066.47
537.06	38153.07
537.23	38412.87
537.40	38756.93
537.57	38796.72
537.74	38136.69
537.91	39182.91
538.08	38712.46
538.25	38670.33
538.42	38796.72
538.59	39253.12
538.75	38124.99
538.92	38953.54
539.09	38965.24
539.26	39126.74
539.43	38682.03
539.60	38944.17
539.77	38906.73
539.94	38974.60
540.11	39189.93
540.28	39201.63
540.44	38995.67
540.61	39271.85
540.78	39227.38
540.95	39115.03
541.12	39299.94
541.29	39091.63
541.46	39330.36
541.62	39487.18
541.79	39725.91
541.96	39306.96
542.13	39452.07
542.30	39718.89
542.47	39407.60
542.63	39533.99
542.80	39746.98
542.97	40456.16
543.14	40477.22
543.31	40016.14
543.48	40404.67
543.64	40617.66
543.81	40657.45
543.98	40612.98
544.15	40278.28
544.32	40727.66
544.48	40968.74
544.65	40397.65
544.82	40334.45
544.99	40491.27
545.16	40378.92
545.32	40732.34
545.49	41069.38
545.66	40863.41
545.83	41041.29
546.00	40624.68
546.16	41174.70
546.33	41024.91
546.50	40563.82
546.67	40832.99
546.83	41022.57
547.00	41085.76
547.17	41336.20
547.34	41118.53
547.50	41273.01
547.67	41247.26
547.84	41024.91
548.00	41375.99
548.17	41439.18
548.34	41027.25
548.51	41764.52
548.67	41422.80
548.84	41816.01
549.01	41549.19
549.18	41177.04
549.34	41474.29
549.51	41722.39
549.68	41628.77
549.84	41254.28
550.01	42099.22
550.18	41596.00
550.34	41954.10
550.51	41607.70
550.68	41680.26
550.84	41647.49
551.01	41951.76
551.18	41762.18
551.34	41839.42
551.51	42066.45
551.68	42115.60
551.84	41951.76
552.01	41680.26
552.18	42085.17
552.34	41497.70
552.51	42190.50
552.68	41830.05
552.84	42279.44
553.01	42651.58
553.18	41888.57
553.34	42387.10
553.51	42253.69
553.67	42337.95
553.84	42583.71
554.01	42831.80
554.17	42309.86
554.34	43056.50
554.51	42651.58
554.67	42850.53
554.84	42869.25
555.00	42712.44
555.17	42244.33
555.33	42628.18
555.50	42387.10
555.67	42487.74
555.83	42595.41
556.00	42473.70
556.16	43250.76
556.33	42637.54
556.50	42534.56
556.66	43042.45
556.83	42705.41
556.99	43084.58
557.16	43012.02
557.32	42906.70
557.49	42635.20
557.65	42784.99
557.82	42904.36
557.98	42864.57
558.15	42997.98
558.32	43405.23
558.48	43349.06
558.65	42747.54
558.81	43260.12
558.98	42967.55
559.14	42890.32
559.31	42721.80
559.47	42937.13
559.64	43229.69
559.80	43344.38
559.97	43480.13
560.13	43313.95
560.30	43227.35
560.46	43014.37
560.63	43335.02
560.79	42983.94
560.96	43873.34
561.12	43632.27
561.29	43168.84
561.45	42834.14
561.61	43232.04
561.78	43075.22
561.94	43122.03
562.11	43112.67
562.27	43487.15
562.44	43416.94
562.60	43526.94
562.77	43302.25
562.93	43683.76
563.10	43505.88
563.26	42941.81
563.42	43454.39
563.59	43065.86
563.75	43365.45
563.92	43873.34
564.08	43594.82
564.24	43555.03
564.41	43508.22
564.57	44280.60
564.74	43370.13
564.90	43538.65
565.07	44016.11
565.23	43393.53
565.39	43594.82
565.56	43892.07
565.72	43620.56
565.88	43402.89
566.05	43821.85
566.21	43906.11
566.38	43751.63
566.54	43878.02
566.70	44460.82
566.87	44666.78
567.03	43955.26
567.19	44130.80
567.36	44051.22
567.52	43863.98
567.68	44411.67
567.85	43753.97
568.01	43910.79
568.17	43913.13
568.34	43985.69
568.50	43917.81
568.66	43824.19
568.83	44486.56
568.99	43688.44
569.15	43959.94
569.32	43824.19
569.48	43796.10
569.64	44322.72
569.81	44285.28
569.97	44020.80
570.13	43854.62
570.30	43959.94
570.46	43732.91
570.62	43711.84
570.78	43538.65
570.95	43777.38
571.11	44491.24
571.27	43913.13
571.43	43608.86
571.60	43548.01
571.76	44357.83
571.92	44177.61
572.09	44449.11
572.25	44128.46
572.41	44004.41
572.57	43966.96
572.74	44481.88
572.90	44275.91
573.06	44722.96
573.22	44322.72
573.38	44531.03
573.55	43936.54
573.71	43999.73
573.87	44027.82
574.03	43817.17
574.20	43789.08
574.36	43885.04
574.52	44065.27
574.68	44463.16
574.84	44554.44
575.01	44402.30
575.17	43882.70
575.33	43697.80
575.49	43955.26
575.65	43922.49
575.82	44229.10
575.98	44491.24
576.14	44725.30
576.30	44334.43
576.46	44313.36
576.62	43807.81
576.79	44367.20
576.95	44224.42
577.11	44020.80
577.27	44245.49
577.43	44163.57
577.59	44163.57
577.75	43934.20
577.92	43737.59
578.08	44161.23
578.24	44287.62
578.40	44011.43
578.56	44311.02
578.72	44168.25
578.88	44732.32
579.04	44236.12
579.21	44367.20
579.37	44512.31
579.53	44109.74
579.69	44247.83
579.85	44252.51
580.01	44275.91
580.17	44346.13
580.33	44273.57
580.49	44514.65
580.65	44350.81
580.82	44292.30
580.98	44491.24
581.14	44371.88
581.30	44914.88
581.46	44456.14
581.62	44641.04
581.78	44341.45
581.94	44739.34
582.10	44051.22
582.26	44519.33
582.42	44186.97
582.58	44521.67
582.74	44315.70
582.90	44226.76
583.06	44306.34
583.22	44575.50
583.38	44556.78
583.54	44392.94
583.70	44292.30
583.86	44374.22
584.02	43999.73
584.18	44594.23
584.34	44610.61
584.50	44357.83
584.66	44498.26
584.82	44254.85
584.98	44154.21
585.14	44240.81
585.30	44254.85
585.46	44666.78
585.62	44832.96
585.78	44418.69
585.94	43952.92
586.10	43892.07
586.26	44275.91
586.42	44348.47
586.58	44418.69
586.74	44341.45
586.90	44376.56
587.06	44175.27
587.22	44376.56
587.38	44095.69
587.54	44126.12
587.70	44371.88
587.86	44662.10
588.02	44189.31
588.18	44554.44
588.34	44472.52
588.49	44259.53
588.65	43931.86
588.81	43969.30
588.97	43714.19
589.13	44376.56
589.29	44278.25
589.45	44278.25
589.61	44119.10
589.77	44650.40
589.93	44186.97
590.08	44783.81
590.24	44498.26
590.40	45003.82
590.56	44781.47
590.72	45034.25
590.88	44779.13
591.04	44704.23
591.20	45036.59
591.35	44849.35
591.51	45148.93
591.67	44748.70
591.83	44942.97
591.99	44659.76
592.15	44727.64
592.31	45111.49
592.46	44870.41
592.62	44725.30
592.78	44748.70
592.94	44790.83
593.10	44198.68
593.26	45301.07
593.41	44596.57
593.57	44392.94
593.73	44823.60
593.89	44308.68
594.05	44580.18
594.20	44912.54
594.36	44980.42
594.52	44421.03
594.68	44870.41
594.84	44257.19
594.99	44645.72
595.15	44758.06
595.31	45268.30
595.47	44610.61
595.62	45083.40
595.78	45319.79
595.94	44823.60
596.10	44690.19
596.25	44968.71
596.41	44832.96
596.57	44671.46
596.73	44891.48
596.88	44559.12
597.04	44807.22
597.20	44758.06
597.36	44849.35
597.51	45062.33
597.67	44851.69
597.83	44832.96
597.99	45408.73
598.14	45062.33
598.30	44966.37
598.46	44727.64
598.61	44701.89
598.77	44715.93
598.93	44406.98
599.09	44856.37
599.24	45443.84
599.40	44898.50
599.56	44926.58
599.71	44856.37
599.87	44729.98
600.03	45017.86
600.18	44957.01
600.34	44744.02
600.50	44994.46
600.65	45181.70
600.81	45258.94
600.97	44666.78
601.12	45081.06
601.28	44992.12
601.44	44959.35
601.59	44872.75
601.75	44130.80
601.91	44594.23
602.06	44112.08
602.22	44713.59
602.37	44870.41
602.53	44851.69
602.69	45242.56
602.84	44573.16
603.00	44563.80
603.16	44786.15
603.31	44409.32
603.47	44685.51
603.62	44409.32
603.78	44896.16
603.94	44762.75
604.09	45062.33
604.25	44940.63
604.40	44582.52
604.56	44580.18
604.71	45034.25
604.87	44474.86
605.03	44912.54
605.18	44704.23
605.34	44832.96
605.49	44500.61
605.65	44219.74
605.80	44645.72
605.96	45109.14
606.12	44734.66
606.27	45162.98
606.43	44879.77
606.58	44643.38
606.74	44432.73
606.89	44746.36
607.05	45043.61
607.20	44704.23
607.36	44531.03
607.51	44917.22
607.67	44811.90
607.82	44624.65
607.98	44449.11
608.13	44559.12
608.29	44657.42
608.44	44306.34
608.60	44023.14
608.75	44329.75
608.91	44292.30
609.06	44287.62
609.22	44353.15
609.37	44091.01
609.53	44619.97
609.68	44072.29
609.84	43990.37
609.99	44563.80
610.15	44156.55
610.30	43999.73
610.46	44374.22
610.61	43941.22
610.76	44439.75
610.92	44638.70
611.07	44732.32
611.23	44430.39
611.38	44219.74
611.54	44437.41
611.69	44280.60
611.84	43871.00
612.00	43868.66
612.15	43934.20
612.31	44474.86
612.46	44268.89
612.62	44069.95
612.77	43756.32
612.92	44500.61
613.08	44013.77
613.23	44142.50
613.39	43992.71
613.54	43681.42
613.69	43936.54
613.85	43817.17
614.00	43976.33
614.15	44304.00
614.31	43672.06
614.46	44004.41
614.62	43915.47
614.77	43702.48
614.92	44098.03
615.08	43573.75
615.23	43274.16
615.38	43487.15
615.54	43618.22
615.69	43742.27
615.84	43311.61
616.00	43772.70
616.15	43964.62
616.30	43856.96
616.46	43363.11
616.61	43112.67
616.76	43955.26
616.92	43187.56
617.07	43093.94
617.22	43140.75
617.37	43344.38
617.53	43402.89
617.68	43599.50
617.83	43840.57
617.99	43454.39
618.14	43470.77
618.29	43377.15
618.45	43344.38
618.60	43402.89
618.75	43044.79
618.90	43363.11
619.06	43505.88
619.21	43875.68
619.36	43503.54
619.51	42829.46
619.67	43395.87
619.82	43063.52
619.97	43012.02
620.12	43229.69
620.28	42974.58
620.43	43138.41
620.58	42803.72
620.73	43131.39
620.89	43386.51
621.04	43058.84
621.19	42663.28
621.34	42988.62
621.49	42604.77
621.65	42733.50
621.80	43107.99
621.95	42436.25
622.10	42923.08
622.25	42190.50
622.41	42487.74
622.56	42108.58
622.71	42520.51
622.86	42295.82
623.01	42590.73
623.16	42670.31
623.32	42443.27
623.47	42976.92
623.62	42487.74
623.77	41748.14
623.92	42501.79
624.07	42529.87
624.23	42103.90
624.38	41949.42
624.53	42068.79
624.68	42295.82
624.83	42082.83
624.98	42110.92
625.13	41996.23
625.29	42024.32
625.44	42192.84
625.59	41612.38
625.74	41500.04
625.89	41799.63
626.04	41830.05
626.19	41588.98
626.34	41991.55
626.49	41940.06
626.65	42087.51
626.80	42192.84
626.95	41684.94
627.10	41642.81
627.25	41750.48
627.40	41785.58
627.55	41476.63
627.70	41228.54
627.85	41333.86
628.00	41333.86
628.15	41675.58
628.30	41621.75
628.45	41834.74
628.60	41193.43
628.76	41698.98
628.91	41471.95
629.06	41273.01
629.21	41202.79
629.36	41287.05
629.51	41303.43
629.66	41029.59
629.81	41284.71
629.96	41406.42
630.11	41207.47
630.26	41537.49
630.41	41455.57
630.56	41165.34
630.71	40950.01
630.86	40975.76
631.01	40926.61
631.16	41338.54
631.31	41359.61
631.46	40409.35
631.61	40863.41
631.76	40940.65
631.91	41141.94
632.06	40842.35
632.21	41228.54
632.36	41263.64
632.51	40772.13
632.66	41158.32
632.81	40257.21
632.96	40856.39
633.10	40381.26
633.25	40456.16
633.40	40484.25
633.55	40708.94
633.70	41029.59
633.85	40584.89
634.00	40783.83
634.15	40552.12
634.30	40414.03
634.45	40671.49
634.60	40538.08
634.75	40371.90
634.90	40236.15
635.05	40535.74
635.19	40217.43
635.34	40540.42
635.49	39976.35
635.64	40285.30
635.79	40079.33
635.94	40210.40
636.09	40477.22
636.24	39779.74
636.39	39885.07
636.53	39976.35
636.68	40147.21
636.83	40470.20
636.98	39772.72
637.13	39716.55
637.28	39833.58
637.43	40343.81
637.57	40018.48
637.72	40409.35
637.87	40072.31
638.02	40243.17
638.17	39849.96
638.32	39800.81
638.46	39746.98
638.61	39950.60
638.76	39206.31
638.91	40187.00
639.06	39854.64
639.20	39889.75
639.35	39964.65
639.50	39658.04
639.65	39962.31
639.80	39959.97
639.94	39651.02
640.09	39770.38
640.24	39538.67
640.39	39416.96
640.54	39344.41
640.68	39873.37
640.83	38911.41
640.98	39552.71
641.13	39061.20
641.27	39498.88
641.42	39175.89
641.57	39283.55
641.72	39379.51
641.86	38880.98
642.01	38747.57
642.16	39122.05
642.31	39049.50
642.45	39372.49
642.60	38939.49
642.75	38848.21
642.90	38841.19
643.04	39145.46
643.19	38749.91
643.34	38946.51
643.48	38918.43
643.63	38462.02
643.78	38651.61
643.93	38628.20
644.07	38852.89
644.22	38536.92
644.37	38597.77
644.51	38897.36
644.66	39077.58
644.81	38452.66
644.95	38590.75
645.10	38920.77
645.25	38759.27
645.39	38541.60
645.54	39023.75
645.69	38623.52
645.83	38323.93
645.98	38309.89
646.13	38714.80
646.27	38415.21
646.42	38670.33
646.57	38466.70
646.71	38637.56
646.86	38232.65
647.00	38717.14
647.15	38864.60
647.30	38232.65
647.44	38106.26
647.59	37961.15
647.74	37806.67
647.88	38909.07
648.03	38120.31
648.17	38164.78
648.32	38312.23
648.47	38476.07
648.61	37799.65
648.76	37741.14
648.90	38024.34
649.05	38225.63
649.20	37895.61
649.34	37961.15
649.49	38061.79
649.63	38520.54
649.78	37904.98
649.92	37893.27
650.07	38171.80
650.21	37961.15
650.36	37544.53
650.51	37635.81
650.65	38143.71
650.80	37909.66
650.94	37895.61
651.09	37921.36
651.23	37839.44
651.38	37792.63
651.52	37809.01
651.67	37387.72
651.81	37408.78
651.96	37230.90
652.10	37846.46
652.25	37266.01
652.39	37577.30
652.54	37584.32
652.68	37949.45
652.83	37715.39
652.97	37556.24
653.12	37450.91
653.26	37181.75
653.41	37511.77
653.55	36968.76
653.70	37287.07
653.84	37387.72
653.99	37226.22
654.13	37179.41
654.27	37589.00
654.42	37060.04
654.56	36903.23
654.71	36940.68
654.85	37067.06
655.00	36912.59
655.14	37050.68
655.29	36402.35
655.43	37024.93
655.57	37024.93
655.72	36617.68
655.86	36580.23
656.01	36451.50
656.15	36945.36
656.30	36645.77
656.44	36732.37
656.58	36304.05
656.73	36641.09
656.87	36435.12
657.01	36503.00
657.16	36643.43
657.30	36397.67
657.45	36238.51
657.59	36392.99
657.73	36479.59
657.88	36758.11
658.02	36495.97
658.16	36924.29
658.31	37048.34
658.45	36414.05
658.60	35892.12
658.74	36376.61
658.88	36414.05
659.03	36282.98
659.17	36023.19
659.31	36184.68
659.46	35936.59
659.60	35742.32
659.74	35917.86
659.89	36091.06
660.03	35964.67
660.17	35913.18
660.32	35681.47
660.46	35854.67
660.60	35885.09
660.74	35576.14
660.89	35924.88
661.03	35470.82
661.17	35143.14
661.32	35159.53
661.46	35592.53
661.60	35393.58
661.74	35356.13
661.89	35587.85
662.03	35522.31
662.17	35365.49
662.31	35211.02
662.46	35379.54
662.60	35358.47
662.74	35026.12
662.88	34700.78
663.03	34377.79
663.17	34881.00
663.31	35026.12
663.45	34602.48
663.60	34995.69
663.74	34497.16
663.88	34501.84
664.02	34675.04
664.17	34927.81
664.31	34560.35
664.45	34316.93
664.59	34045.43
664.73	34625.89
664.88	34742.91
665.02	34080.54
665.16	34574.39
665.30	34068.84
665.44	33956.49
665.59	34249.06
665.73	33916.70
665.87	34120.33
666.01	34033.73
666.15	33965.85
666.29	33741.16
666.44	33996.28
666.58	33488.38
666.72	33759.89
666.86	33780.95
667.00	33933.09
667.14	33748.18
667.28	33156.03
667.43	33149.01
667.57	33490.73
667.71	33076.45
667.85	33488.38
667.99	33364.34
668.13	33186.46
668.27	33301.14
668.41	33582.01
668.56	32898.57
668.70	33380.72
668.84	32886.87
668.98	32205.77
669.12	32613.02
669.26	32474.93
669.40	32304.07
669.54	32919.63
669.68	32584.94
669.82	32381.31
669.96	32453.87
670.10	32268.97
670.25	32678.56
670.39	32048.96
670.53	31945.97
670.67	32250.24
670.81	32109.81
670.95	31999.80
671.09	32346.20
671.23	32320.46
671.37	32177.68
671.51	31920.23
671.65	31826.60
671.79	31597.23
671.93	31679.15
672.07	31810.22
672.21	31714.26
672.35	31630.00
672.49	31751.71
672.63	32105.13
672.77	31377.22
672.91	31880.44
673.05	31590.21
673.19	31400.63
673.33	31110.40
673.47	30895.07
673.61	30969.97
673.75	30796.77
673.89	30614.21
674.03	30569.74
674.17	30749.96
674.31	30459.73
674.45	30714.85
674.59	30618.89
674.73	30972.31
674.87	30408.24
675.01	30459.73
675.15	30473.78
675.29	30831.88
675.43	30443.35
675.56	30012.69
675.70	30005.67
675.84	29682.67
675.98	29266.06
676.12	29806.72
676.26	29734.17
676.40	29699.06
676.54	29734.17
676.68	29338.62
676.82	29006.26
676.96	29259.04
677.10	28797.95
677.23	29090.52
677.37	29268.40
677.51	29032.00
677.65	28486.66
677.79	28510.07
677.93	28496.02
678.07	28505.38
678.21	28081.75
678.34	28116.86
678.48	28018.55
678.62	28278.35
678.76	27552.79
678.90	27735.35
679.04	27604.28
679.18	28203.46
679.31	27520.02
679.45	27410.01
679.59	27388.95
679.73	27564.49
679.87	27152.55
680.00	27023.83
680.14	27147.87
680.28	27049.57
680.42	27028.51
680.56	27241.50
680.70	26787.43
680.83	27351.50
680.97	27103.40
681.11	26902.12
681.25	26417.63
681.39	26391.88
681.52	26321.66
681.66	26410.60
681.80	26349.75
681.94	26169.53
682.07	26115.70
682.21	26195.28
682.35	26064.21
682.49	26253.79
682.62	25972.92
682.76	25820.79
682.90	25589.08
683.04	25813.77
683.17	25387.79
683.31	25315.23
683.45	25303.53
683.59	25270.76
683.72	25153.74
683.86	24943.09
684.00	24805.00
684.13	24898.62
684.27	24903.30
684.41	24816.70
684.55	24842.45
684.68	24580.31
684.82	24397.74
684.96	24261.99
685.09	24622.44
685.23	24217.52
685.37	24149.65
685.50	24240.93
685.64	24030.28
685.78	24013.90
685.91	23983.47
686.05	24147.31
686.19	23290.67
686.32	23503.66
686.46	23290.67
686.60	22918.53
686.73	23175.98
686.87	22979.38
687.01	23103.43
687.14	22911.50
687.28	22750.01
687.42	22611.92
687.55	22923.21
687.69	23159.60
687.82	22714.90
687.96	23047.26
688.10	22302.96
688.23	22377.86
688.37	22405.95
688.50	21944.86
688.64	22171.89
688.78	22022.10
688.91	22099.34
689.05	22005.72
689.18	22045.51
689.32	21715.49
689.46	21467.39
689.59	21476.76
689.73	21694.43
689.86	21432.29
690.00	21837.20
690.13	21462.71
690.27	21432.29
690.41	21446.33
690.54	20585.01
690.68	21022.69
690.81	20730.12
690.95	20629.48
691.08	20617.78
691.22	20666.93
691.35	20559.27
691.49	20585.01
691.62	20716.08
691.76	20479.69
691.89	20217.55
692.03	20074.77
692.16	20372.02
692.30	19850.08
692.43	19997.54
692.57	19871.15
692.70	20025.62
692.84	19658.16
692.97	19522.41
693.11	19775.19
693.24	19728.38
693.38	19325.80
693.51	19147.92
693.65	19356.23
693.78	19555.18
693.92	19082.39
694.05	19220.48
694.19	18867.06
694.32	18787.48
694.45	18459.81
694.59	18637.69
694.72	18469.17
694.86	18429.38
694.99	18429.38
695.13	18338.10
695.26	18420.02
695.39	18298.31
695.53	18459.81
695.66	18485.55
695.80	18024.47
695.93	18183.62
696.07	18073.62
696.20	17874.67
696.33	18047.87
696.47	17788.07
696.60	17874.67
696.73	17488.48
696.87	17432.31
697.00	17689.77
697.14	17575.08
697.27	17319.96
697.40	17572.74
697.54	17186.55
697.67	17247.41
697.80	17135.06
697.94	16718.45
698.07	16933.78
698.21	16847.18
698.34	16922.07
698.47	16372.05
698.61	16161.40
698.74	16416.52
698.87	16470.35
699.01	16016.29
699.14	16074.80
699.27	16233.96
699.40	16184.80
699.54	16145.02
699.67	16011.60
699.80	15917.98
699.94	15903.94
700.07	16147.36
700.20	15634.78
700.34	15293.06
700.47	15779.89
700.60	15513.07
700.73	15686.27
700.87	15454.56
701.00	15667.55
701.13	15566.90
701.26	15447.54
701.40	15187.74
701.53	14972.41
701.66	15253.27
701.79	15094.11
701.93	14836.66
702.06	15073.05
702.19	15054.33
702.32	14726.65
702.46	14518.34
702.59	14513.66
702.72	14508.98
702.85	14656.43
702.99	14436.42
703.12	14473.87
703.25	14099.39
703.38	13996.40
703.51	13984.70
703.65	14125.13
703.78	14026.83
703.91	13607.87
704.04	14015.13
704.17	13799.80
704.31	13891.08
704.44	13598.51
704.57	13987.04
704.70	13799.80
704.83	13565.74
704.96	13687.45
705.10	13334.03
705.23	13769.37
>>>>>End Processed Spectral Data<<<<<
