SpectraSuite Data File
++++++++++++++++++++++++++++++++++++
Date: Fri Oct 25 10:43:18 EDT 2013
User: price-jones
Dark Spectrum Present: No
Reference Spectrum Present: No
Number of Sampled Component Spectra: 1
Spectrometers: USB2+H05261
Integration Time (usec): 100000 (USB2+H05261)
Spectra Averaged: 1 (USB2+H05261)
Boxcar Smoothing: 0 (USB2+H05261)
Correct for Electrical Dark: No (USB2+H05261)
Strobe/Lamp Enabled: No (USB2+H05261)
Correct for Detector Non-linearity: No (USB2+H05261)
Correct for Stray Light: No (USB2+H05261)
Number of Pixels in Processed Spectrum: 2048
>>>>>Begin Processed Spectral Data<<<<<
365.73	86.60
365.92	86.60
366.12	86.60
366.32	30.43
366.52	44.47
366.72	51.49
366.91	18.72
367.11	79.58
367.31	0.00
367.51	16.38
367.70	0.00
367.90	49.15
368.10	28.09
368.30	0.00
368.49	0.00
368.69	39.79
368.89	0.00
369.09	74.90
369.28	16.38
369.48	67.88
369.68	16.38
369.87	25.75
370.07	0.00
370.27	138.09
370.47	287.89
370.66	299.59
370.86	458.74
371.06	510.24
371.25	402.57
371.45	395.55
371.65	535.98
371.84	475.13
372.04	444.70
372.24	388.53
372.44	463.43
372.63	521.94
372.83	475.13
373.03	454.06
373.22	465.77
373.42	566.41
373.62	624.92
373.81	437.68
374.01	543.00
374.21	550.03
374.40	554.71
374.60	615.56
374.79	543.00
374.99	571.09
375.19	589.82
375.38	603.86
375.58	578.11
375.78	559.39
375.97	517.26
376.17	634.29
376.37	547.69
376.56	557.05
376.76	622.58
376.95	545.34
377.15	561.73
377.35	622.58
377.54	578.11
377.74	610.88
377.93	594.50
378.13	725.57
378.33	734.93
378.52	669.39
378.72	702.16
378.91	617.90
379.11	580.45
379.31	667.05
379.50	664.71
379.70	704.50
379.89	699.82
380.09	636.63
380.28	692.80
380.48	678.76
380.68	711.52
380.87	615.56
381.07	739.61
381.26	648.33
381.46	716.20
381.65	751.31
381.85	671.73
382.04	690.46
382.24	702.16
382.43	627.26
382.63	690.46
382.83	753.65
383.02	821.53
383.22	847.27
383.41	648.33
383.61	720.88
383.80	779.40
384.00	779.40
384.19	823.87
384.39	779.40
384.58	830.89
384.78	800.46
384.97	873.02
385.17	800.46
385.36	777.06
385.56	828.55
385.75	781.74
385.95	793.44
386.14	896.43
386.34	725.57
386.53	809.83
386.72	763.01
386.92	774.72
387.11	851.96
387.31	821.53
387.50	786.42
387.70	826.21
387.89	833.23
388.09	889.40
388.28	877.70
388.48	908.13
388.67	980.68
388.86	915.15
389.06	983.02
389.25	950.26
389.45	943.24
389.64	954.94
389.84	985.37
390.03	983.02
390.22	917.49
390.42	992.39
390.61	957.28
390.81	976.00
391.00	1043.88
391.19	1048.56
391.39	1060.26
391.58	990.05
391.78	1046.22
391.97	1015.79
392.16	957.28
392.36	1076.65
392.55	1013.45
392.75	954.94
392.94	973.66
393.13	1015.79
393.33	983.02
393.52	1022.81
393.71	1111.75
393.91	1135.16
394.10	1095.37
394.29	1128.14
394.49	1086.01
394.68	1196.01
394.88	1221.76
395.07	1181.97
395.26	1296.66
395.46	1160.91
395.65	1282.61
395.84	1221.76
396.04	1242.82
396.23	1158.57
396.42	1078.99
396.62	1177.29
396.81	1100.05
397.00	1231.12
397.19	1238.14
397.39	1294.32
397.58	1352.83
397.77	1359.85
397.97	1392.62
398.16	1423.05
398.35	1469.86
398.55	1455.81
398.74	1448.79
398.93	1448.79
399.12	1486.24
399.32	1476.88
399.51	1434.75
399.70	1584.54
399.90	1572.84
400.09	1629.01
400.28	1565.82
400.47	1549.43
400.67	1570.50
400.86	1650.08
401.05	1614.97
401.24	1708.59
401.44	1633.69
401.63	1629.01
401.82	1816.26
402.01	1701.57
402.21	1746.04
402.40	1746.04
402.59	1715.61
402.78	1802.21
402.97	1783.49
403.17	1757.74
403.36	1750.72
403.55	1736.68
403.74	1912.22
403.93	1879.45
404.13	1825.62
404.32	1851.36
404.51	1900.52
404.70	1914.56
404.89	1870.09
405.09	1944.99
405.28	1909.88
405.47	1881.79
405.66	1877.11
405.85	1975.41
406.05	1914.56
406.24	2008.18
406.43	1884.13
406.62	2019.88
406.81	2010.52
407.00	2045.63
407.20	2076.06
407.39	2111.16
407.58	2160.31
407.77	2080.74
407.96	2218.83
408.15	2186.06
408.34	2143.93
408.54	2200.10
408.73	2326.49
408.92	2188.40
409.11	2277.34
409.30	2165.00
409.49	2172.02
409.68	2179.04
409.87	2218.83
410.07	2244.57
410.26	2303.09
410.45	2478.63
410.64	2363.94
410.83	2394.37
411.02	2438.84
411.21	2576.93
411.40	2548.84
411.59	2485.65
411.78	2621.40
411.98	2518.42
412.17	2630.76
412.36	2691.62
412.55	2649.49
412.74	2738.43
412.93	2684.59
413.12	2600.34
413.31	2808.64
413.50	2876.52
413.69	2750.13
413.88	2883.54
414.07	2853.11
414.26	2864.82
414.45	2874.18
414.64	2937.37
414.83	2932.69
415.02	2967.80
415.22	3094.19
415.41	3054.40
415.60	3052.06
415.79	3162.06
415.98	3229.94
416.17	3183.13
416.36	3159.72
416.55	3124.62
416.74	3206.53
416.93	3386.76
417.12	3234.62
417.31	3375.05
417.50	3267.39
417.69	3363.35
417.88	3318.88
418.07	3351.65
418.26	3325.90
418.45	3405.48
418.64	3667.62
418.83	3463.99
419.02	3492.08
419.21	3653.58
419.39	3627.83
419.58	3559.95
419.77	3531.87
419.96	3763.58
420.15	3719.11
420.34	3669.96
420.53	3658.26
420.72	3712.09
420.91	3798.69
421.10	3737.84
421.29	3815.07
421.48	3712.09
421.67	3831.46
421.86	3688.68
422.05	3681.66
422.24	3684.00
422.43	3763.58
422.61	3693.37
422.80	3880.61
422.99	3911.04
423.18	3854.86
423.37	3978.91
423.56	3929.76
423.75	3889.97
423.94	3833.80
424.13	3536.55
424.32	3765.92
424.50	3859.54
424.69	3857.20
424.88	4009.34
425.07	3798.69
425.26	3808.05
425.45	3983.59
425.64	3889.97
425.83	3875.93
426.01	3995.29
426.20	3805.71
426.39	3953.16
426.58	3875.93
426.77	3873.59
426.96	3964.87
427.15	3866.56
427.33	3929.76
427.52	3988.27
427.71	3995.29
427.90	4133.39
428.09	4032.74
428.28	4166.15
428.46	4212.96
428.65	4032.74
428.84	4395.53
429.03	4135.73
429.22	3927.42
429.40	4154.45
429.59	4170.83
429.78	3885.29
429.97	3908.69
430.16	3871.25
430.34	4051.47
430.53	3953.16
430.72	4138.07
430.91	4215.30
431.10	4119.34
431.28	4514.89
431.47	4636.60
431.66	4568.73
431.85	4503.19
432.03	4608.51
432.22	4592.13
432.41	4542.98
432.60	4652.98
432.79	4655.33
432.97	4636.60
433.16	4610.86
433.35	4505.53
433.54	4643.62
433.72	4629.58
433.91	4800.44
434.10	4636.60
434.28	4685.75
434.47	4777.03
434.66	4877.68
434.85	4959.60
435.03	4912.78
435.22	4896.40
435.41	5083.64
435.59	4954.91
435.78	5022.79
435.97	5177.26
436.16	5078.96
436.34	5132.79
436.53	4985.34
436.72	5135.14
436.90	5048.54
437.09	5130.45
437.28	5151.52
437.46	5041.51
437.65	5078.96
437.84	5071.94
438.02	5062.58
438.21	5076.62
438.40	5116.41
438.58	5383.23
438.77	5362.17
438.96	5294.29
439.14	5434.72
439.33	5668.78
439.52	5661.76
439.70	5589.20
439.89	5474.51
440.08	5411.32
440.26	5647.71
440.45	5757.72
440.63	5799.85
440.82	5940.28
441.01	5804.53
441.19	5769.42
441.38	5956.66
441.57	6076.03
441.75	6033.90
441.94	6036.24
442.12	6179.01
442.31	6162.63
442.50	6176.67
442.68	6164.97
442.87	6169.65
443.05	6242.21
443.24	6534.78
443.43	6382.64
443.61	6455.20
443.80	6417.75
443.98	6324.13
444.17	6223.48
444.35	6303.06
444.54	6464.56
444.73	6363.92
444.91	6441.15
445.10	6410.73
445.28	6293.70
445.47	6406.05
445.65	6363.92
445.84	6459.88
446.02	6644.78
446.21	6661.16
446.39	6420.09
446.58	6621.38
446.77	6593.29
446.95	6520.73
447.14	6609.67
447.32	6626.06
447.51	6698.61
447.69	6530.09
447.88	6483.28
448.06	6530.09
448.25	6590.95
448.43	6675.21
448.62	6707.98
448.80	6614.35
448.99	6534.78
449.17	6665.85
449.36	6764.15
449.54	6935.01
449.73	7199.49
449.91	7037.99
450.10	6920.96
450.28	7052.03
450.46	7066.08
450.65	7260.34
450.83	7089.48
451.02	7239.28
451.20	7171.40
451.39	7115.23
451.57	6960.75
451.76	7178.42
451.94	7103.53
452.13	7215.87
452.31	7288.43
452.49	7112.89
452.68	7204.17
452.86	7082.46
453.05	7201.83
453.23	7162.04
453.42	7105.87
453.60	7169.06
453.78	7407.80
453.97	7265.02
454.15	7400.77
454.34	7220.55
454.52	7487.37
454.70	7250.98
454.89	7463.97
455.07	7536.52
455.26	7662.91
455.44	7499.08
455.62	7499.08
455.81	7595.04
455.99	7691.00
456.17	7798.66
456.36	7686.32
456.54	7733.13
456.73	7969.52
456.91	8086.55
457.09	8091.23
457.28	8124.00
457.46	7927.39
457.64	7960.16
457.83	7988.25
458.01	7887.61
458.19	8074.85
458.38	8065.49
458.56	8025.70
458.74	8241.03
458.93	8138.04
459.11	8236.35
459.29	8072.51
459.48	8060.80
459.66	8299.54
459.84	8365.07
460.03	8315.92
460.21	8400.18
460.39	8308.90
460.57	8634.24
460.76	8402.52
460.94	8290.18
461.12	8500.83
461.31	8510.19
461.49	8526.57
461.67	8503.17
461.85	8564.02
462.04	8540.61
462.22	9132.77
462.40	8613.17
462.59	8699.77
462.77	8627.21
462.95	8784.03
463.13	8720.84
463.32	8833.18
463.50	8833.18
463.68	8992.34
463.86	9100.00
464.05	8816.80
464.23	8634.24
464.41	8903.40
464.59	8863.61
464.78	8992.34
464.96	9085.96
465.14	9097.66
465.32	9226.39
465.50	9268.52
465.69	8870.63
465.87	9102.34
466.05	9085.96
466.23	8990.00
466.41	9158.52
466.60	9235.75
466.78	9179.58
466.96	9139.79
467.14	9270.86
467.32	9181.92
467.51	9151.49
467.69	8975.95
467.87	9158.52
468.05	9390.23
468.23	9317.67
468.41	9053.19
468.60	9444.06
468.78	9427.68
468.96	9411.29
469.14	9638.33
469.32	9544.70
469.50	9277.88
469.69	9652.37
469.87	9633.64
470.05	9607.90
470.23	9673.43
470.41	9612.58
470.59	9799.82
470.77	9832.59
470.95	9626.62
471.14	9980.04
471.32	10045.58
471.50	10160.27
471.68	10132.18
471.86	10300.70
472.04	10298.36
472.22	10452.83
472.40	9973.02
472.58	10106.43
472.77	10291.34
472.95	10331.12
473.13	10640.08
473.31	10445.81
473.49	10279.63
473.67	10525.39
473.85	10700.93
474.03	10661.14
474.21	10939.66
474.39	10801.57
474.57	11028.60
474.75	11049.67
474.93	11019.24
475.12	11075.42
475.30	11236.91
475.48	11190.10
475.66	11316.49
475.84	11192.44
476.02	11082.44
476.20	11241.59
476.38	11503.73
476.56	11646.51
476.74	11817.36
476.92	11681.61
477.10	11714.38
477.28	11903.96
477.46	11784.60
477.64	11988.22
477.82	12147.38
478.00	12381.43
478.18	12131.00
478.36	12271.43
478.54	12390.80
478.72	12659.96
478.90	12622.51
479.08	12695.07
479.26	13046.15
479.44	12830.82
479.62	13020.40
479.80	13132.75
479.98	13074.23
480.16	13532.98
480.34	13385.52
480.52	13752.99
480.70	13514.25
480.88	13474.46
481.06	13654.69
481.24	13692.13
481.41	13820.86
481.59	14359.19
481.77	14214.07
481.95	14305.35
482.13	14366.21
482.31	14235.14
482.49	14834.32
482.67	14614.30
482.85	14714.95
483.03	14834.32
483.21	14949.00
483.39	15304.76
483.57	14836.66
483.74	15229.87
483.92	15342.21
484.10	15297.74
484.28	15611.37
484.46	15880.53
484.64	16145.02
484.82	16147.36
485.00	15735.42
485.18	15887.56
485.35	16084.16
485.53	15850.11
485.71	15829.04
485.89	16145.02
486.07	16350.98
486.25	16465.67
486.43	16620.14
486.61	16830.79
486.78	17090.59
486.96	17231.02
487.14	17373.80
487.32	17638.28
487.50	17790.41
487.68	18167.24
487.85	18242.14
488.03	18270.22
488.21	18256.18
488.39	18387.25
488.57	18494.91
488.75	18511.30
488.92	18927.91
489.10	18897.49
489.28	19112.81
489.46	19407.72
489.64	19545.81
489.81	19796.25
489.99	19728.38
490.17	19920.30
490.35	20409.47
490.53	20053.71
490.70	20308.83
490.88	20063.07
491.06	20760.55
491.24	20580.33
491.41	20629.48
491.59	20379.04
491.77	20259.68
491.95	20727.78
492.13	21104.61
492.30	21441.65
492.48	21535.27
492.66	21539.95
492.84	21465.05
493.01	21827.84
493.19	21888.69
493.37	22078.27
493.54	21837.20
493.72	22422.33
493.90	21891.03
494.08	22539.36
494.25	22874.06
494.43	22712.56
494.61	23009.81
494.79	23396.00
494.96	22902.14
495.14	23089.38
495.32	23396.00
495.49	23403.02
495.67	23878.15
495.85	23723.67
496.02	23990.49
496.20	23950.70
496.38	24072.41
496.55	24053.69
496.73	25034.37
496.91	24285.40
497.09	24563.92
497.26	24643.50
497.44	24922.02
497.62	24587.33
497.79	25149.06
497.97	24840.11
498.14	24790.95
498.32	25242.68
498.50	25095.22
498.67	25790.36
498.85	25572.69
499.03	25825.47
499.20	25853.56
499.38	25853.56
499.56	25846.54
499.73	25935.48
499.91	26457.42
500.08	26335.71
500.26	25860.58
500.44	26246.77
500.61	26642.32
500.79	26246.77
500.97	26532.31
501.14	26691.47
501.32	26286.56
501.49	26476.14
501.67	26904.46
501.84	26913.82
502.02	26857.65
502.20	27080.00
502.37	27356.18
502.55	27171.28
502.72	27658.11
502.90	27494.27
503.07	27232.13
503.25	27779.82
503.43	27580.87
503.60	27927.27
503.78	27796.20
503.95	27995.15
504.13	27988.13
504.30	28123.88
504.48	28105.15
504.65	28641.14
504.83	28854.12
505.01	28858.81
505.18	28898.59
505.36	29202.86
505.53	29032.00
505.71	29317.55
505.88	29453.30
506.06	28350.91
506.23	29434.58
506.41	29055.41
506.58	29191.16
506.76	29303.51
506.93	29638.20
507.11	29640.54
507.28	29593.73
507.46	29539.90
507.63	29448.62
507.81	29869.92
507.98	29930.77
508.16	30387.18
508.33	30176.53
508.50	30291.21
508.68	30082.91
508.85	30560.37
509.03	30555.69
509.20	30597.82
509.38	30995.71
509.55	30801.45
509.73	30876.35
509.90	30801.45
510.08	30923.16
510.25	30972.31
510.42	30946.56
510.60	31545.74
510.77	31311.69
510.95	31632.34
511.12	31625.32
511.30	31550.42
511.47	32006.83
511.64	31868.73
511.82	32435.14
511.99	31585.53
512.17	31967.04
512.34	32044.27
512.51	32144.92
512.69	32381.31
512.86	32409.40
513.04	32584.94
513.21	32823.67
513.38	32268.97
513.56	32320.46
513.73	32350.88
513.90	32528.77
514.08	32393.01
514.25	32837.72
514.43	32947.72
514.60	33001.55
514.77	32697.28
514.95	32978.15
515.12	33041.34
515.29	33490.73
515.47	33895.64
515.64	33504.77
515.81	33479.02
515.99	33710.74
516.16	33677.97
516.33	33544.56
516.51	33289.44
516.68	32854.10
516.85	32905.59
517.03	33324.55
517.20	33322.21
517.37	33933.09
517.54	34450.35
517.72	33563.28
517.89	33687.33
518.06	33329.23
518.24	33933.09
518.41	33881.60
518.58	33633.50
518.75	34305.23
518.93	34565.03
519.10	34782.70
519.27	34775.68
519.45	34562.69
519.62	34782.70
519.79	34693.76
519.96	34986.33
520.14	34689.08
520.31	35023.78
520.48	34873.98
520.65	34906.75
520.83	35536.35
521.00	35697.85
521.17	35473.16
521.34	35473.16
521.52	35480.18
521.69	35597.21
521.86	35559.76
522.03	35639.34
522.20	35674.45
522.38	36194.04
522.55	36130.85
522.72	35702.53
522.89	35889.77
523.07	36591.94
523.24	36194.04
523.41	36563.85
523.58	36364.90
523.75	36786.20
523.92	36570.87
524.10	36858.76
524.27	36837.69
524.44	36715.98
524.61	36643.43
524.78	36573.21
524.96	36945.36
525.13	37336.23
525.30	37273.03
525.47	37170.05
525.64	37165.37
525.81	37078.77
525.98	37340.91
526.16	36781.52
526.33	37055.36
526.50	37340.91
526.67	36603.64
526.84	37106.85
527.01	37226.22
527.18	37319.84
527.36	37434.53
527.53	37598.37
527.70	37916.68
527.87	38094.56
528.04	37757.52
528.21	37991.58
528.38	37851.14
528.55	38380.10
528.72	38565.01
528.89	38726.50
529.07	38473.73
529.24	38277.12
529.41	38506.49
529.58	38174.14
529.75	38340.32
529.92	38319.25
530.09	38476.07
530.26	38595.43
530.43	38869.28
530.60	38560.33
530.77	38918.43
530.94	39054.18
531.11	38831.83
531.28	38667.99
531.46	38855.23
531.63	39351.43
531.80	38972.26
531.97	39255.46
532.14	38990.98
532.31	38394.15
532.48	38880.98
532.65	39196.95
532.82	39068.22
532.99	39735.27
533.16	39306.96
533.33	39533.99
533.50	39835.92
533.67	39636.97
533.84	39185.25
534.01	39651.02
534.18	39545.69
534.35	39775.06
534.52	40058.27
534.69	40065.29
534.86	40076.99
535.03	40278.28
535.20	40161.25
535.37	40474.88
535.54	40481.91
535.71	39929.54
535.88	40538.08
536.05	40217.43
536.22	40336.79
536.38	40519.35
536.55	40371.90
536.72	39868.69
536.89	39517.60
537.06	40074.65
537.23	40659.79
537.40	40582.55
537.57	40779.15
537.74	40493.61
537.91	40924.27
538.08	40355.52
538.25	40832.99
538.42	41099.81
538.59	40942.99
538.75	40580.21
538.92	41050.66
539.09	41202.79
539.26	41038.95
539.43	41071.72
539.60	40631.70
539.77	40903.20
539.94	41202.79
540.11	40832.99
540.28	40832.99
540.44	40978.10
540.61	41200.45
540.78	40856.39
540.95	40732.34
541.12	40748.73
541.29	41139.60
541.46	41439.18
541.62	41586.64
541.79	41706.01
541.96	40694.89
542.13	41354.93
542.30	41523.44
542.47	41757.50
542.63	41825.37
542.80	41626.43
542.97	41797.29
543.14	41965.81
543.31	42239.65
543.48	42302.84
543.64	41984.53
543.81	42632.86
543.98	42373.06
544.15	42469.02
544.32	42284.12
544.48	42560.30
544.65	42174.11
544.82	42462.00
544.99	42181.13
545.16	42569.66
545.32	42363.70
545.49	42955.85
545.66	42876.27
545.83	42485.40
546.00	42887.98
546.16	42658.60
546.33	42660.94
546.50	42157.73
546.67	43065.86
546.83	42136.66
547.00	42616.47
547.17	42504.13
547.34	42433.91
547.50	42766.27
547.67	43271.82
547.84	42979.26
548.00	42990.96
548.17	43482.47
548.34	43061.18
548.51	43658.01
548.67	43597.16
548.84	43021.39
549.01	43084.58
549.18	42876.27
549.34	43271.82
549.51	43332.68
549.68	42979.26
549.84	43456.73
550.01	43512.90
550.18	43002.66
550.34	43320.98
550.51	43276.51
550.68	43407.58
550.84	42792.01
551.01	43660.35
551.18	43208.63
551.34	43583.12
551.51	43931.86
551.68	44030.16
551.84	43571.41
552.01	43161.82
552.18	43775.04
552.34	43466.09
552.51	43739.93
552.68	43660.35
552.84	43761.00
553.01	43945.90
553.18	43852.28
553.34	43650.99
553.51	44156.55
553.67	44161.23
553.84	44418.69
554.01	44006.75
554.17	44425.71
554.34	44528.69
554.51	44287.62
554.67	44514.65
554.84	44165.91
555.00	44336.77
555.17	44549.76
555.33	44488.90
555.50	44563.80
555.67	44582.52
555.83	44163.57
556.00	44392.94
556.16	44568.48
556.33	44774.45
556.50	44208.04
556.66	43861.64
556.83	44130.80
556.99	44409.32
557.16	44432.73
557.32	44238.47
557.49	44577.84
557.65	44320.38
557.82	44507.63
557.98	44392.94
558.15	44486.56
558.32	44893.82
558.48	44264.21
558.65	44313.36
558.81	44467.84
558.98	44835.30
559.14	44619.97
559.31	44481.88
559.47	44802.53
559.64	44924.24
559.80	44779.13
559.97	44552.10
560.13	44353.15
560.30	44818.92
560.46	44758.06
560.63	44968.71
560.79	45226.17
560.96	45092.76
561.12	44800.19
561.29	44505.29
561.45	44648.06
561.61	44692.53
561.78	44914.88
561.94	44575.50
562.11	44692.53
562.27	45015.52
562.44	44910.20
562.60	45200.43
562.77	44884.45
562.93	44751.04
563.10	45364.26
563.26	44816.58
563.42	45118.51
563.59	45097.44
563.75	44708.91
563.92	45268.30
564.08	45294.05
564.24	45230.85
564.41	44863.39
564.57	44912.54
564.74	45181.70
564.90	44765.09
565.07	45067.02
565.23	45240.21
565.39	45153.62
565.56	45265.96
565.72	45092.76
565.88	45324.47
566.05	44858.71
566.21	45296.39
566.38	45151.27
566.54	45207.45
566.70	45202.77
566.87	45280.00
567.03	45514.06
567.19	46298.14
567.36	45228.51
567.52	45258.94
567.68	45322.13
567.85	45034.25
568.01	45207.45
568.17	45308.09
568.34	45588.95
568.50	44921.90
568.66	45361.92
568.83	45106.80
568.99	45228.51
569.15	45289.37
569.32	45202.77
569.48	45085.74
569.64	45677.90
569.81	45455.54
569.97	45457.88
570.13	45067.02
570.30	45029.57
570.46	45064.67
570.62	44774.45
570.78	44720.62
570.95	44732.32
571.11	45181.70
571.27	45272.98
571.43	45301.07
571.60	45567.89
571.76	45258.94
571.92	45099.78
572.09	45500.01
572.25	45212.13
572.41	45558.53
572.57	45469.59
572.74	45942.38
572.90	45553.85
573.06	45368.94
573.22	45495.33
573.38	45530.44
573.55	45759.81
573.71	45483.63
573.87	45670.87
574.03	45624.06
574.20	45556.19
574.36	45422.78
574.52	44973.39
574.68	45312.77
574.84	45507.04
575.01	45591.30
575.17	45710.66
575.33	45752.79
575.49	45528.10
575.65	45361.92
575.82	45549.17
575.98	45284.68
576.14	45666.19
576.30	45633.42
576.46	45652.15
576.62	45296.39
576.79	45972.80
576.95	45614.70
577.11	45322.13
577.27	45315.11
577.43	45553.85
577.59	45146.59
577.75	45638.11
577.92	45556.19
578.08	45380.65
578.24	45298.73
578.40	45170.00
578.56	45076.38
578.72	45312.77
578.88	45783.22
579.04	45567.89
579.21	45366.60
579.37	45361.92
579.53	45368.94
579.69	45453.20
579.85	45490.65
580.01	45860.46
580.17	45324.47
580.33	45329.16
580.49	45689.60
580.65	45462.57
580.82	45773.86
580.98	45284.68
581.14	45184.04
581.30	45654.49
581.46	45294.05
581.62	45691.94
581.78	45783.22
581.94	45982.16
582.10	45476.61
582.26	45895.56
582.42	45808.96
582.58	45914.29
582.74	46082.81
582.90	45507.04
583.06	46160.05
583.22	45806.62
583.38	45986.85
583.54	46003.23
583.70	45673.21
583.86	45612.36
584.02	45600.66
584.18	45600.66
584.34	45319.79
584.50	45806.62
584.66	45918.97
584.82	45729.39
584.98	45640.45
585.14	46050.04
585.30	45205.11
585.46	45598.32
585.62	45382.99
585.78	45507.04
585.94	45155.96
586.10	45088.08
586.26	45537.46
586.42	45553.85
586.58	45734.07
586.74	45916.63
586.90	45757.47
587.06	45778.54
587.22	45521.08
587.38	45663.85
587.54	45773.86
587.70	45881.52
587.86	45841.73
588.02	45881.52
588.18	45897.91
588.34	45425.12
588.49	45123.19
588.65	44898.50
588.81	45111.49
588.97	45083.40
589.13	45546.82
589.29	45364.26
589.45	45258.94
589.61	45947.06
589.77	45787.90
589.93	46134.30
590.08	45748.11
590.24	45815.99
590.40	45422.78
590.56	45673.21
590.72	45860.46
590.88	45773.86
591.04	45815.99
591.20	46171.75
591.35	46328.56
591.51	46326.22
591.67	45949.40
591.83	45741.09
591.99	45633.42
592.15	45755.13
592.31	45659.17
592.46	45488.31
592.62	45954.08
592.78	45654.49
592.94	45801.94
593.10	45694.28
593.26	46054.72
593.41	46204.52
593.57	45977.48
593.73	45888.54
593.89	46293.46
594.05	45888.54
594.20	46241.96
594.36	45340.86
594.52	45909.61
594.68	46012.59
594.84	45188.72
594.99	45649.81
595.15	45811.31
595.31	46000.89
595.47	46188.13
595.62	46436.23
595.78	45937.69
595.94	46230.26
596.10	46171.75
596.25	45654.49
596.41	45954.08
596.57	45776.20
596.73	45846.41
596.88	45450.86
597.04	46110.89
597.20	45900.25
597.36	46057.06
597.51	46131.96
597.67	45977.48
597.83	46150.68
597.99	46057.06
598.14	46068.76
598.30	45888.54
598.46	45869.82
598.61	45645.13
598.77	45567.89
598.93	45893.22
599.09	45638.11
599.24	46382.40
599.40	46106.21
599.56	45998.55
599.71	46178.77
599.87	46155.36
600.03	45947.06
600.18	46157.70
600.34	45659.17
600.50	45727.05
600.65	45769.18
600.81	46192.81
600.97	46183.45
601.12	46253.67
601.28	45790.24
601.44	46026.63
601.59	45556.19
601.75	45918.97
601.91	45813.65
602.06	45979.82
602.22	45778.54
602.37	45755.13
602.53	46054.72
602.69	46012.59
602.84	45698.96
603.00	45724.71
603.16	45635.77
603.31	45984.51
603.47	45670.87
603.62	45638.11
603.78	45867.48
603.94	45975.14
604.09	46155.36
604.25	46117.92
604.40	45830.03
604.56	46052.38
604.71	46176.43
604.87	45467.25
605.03	45956.42
605.18	46005.57
605.34	45464.91
605.49	45315.11
605.65	45696.62
605.80	45713.00
605.96	45179.36
606.12	45652.15
606.27	45776.20
606.43	45731.73
606.58	45766.84
606.74	45343.20
606.89	45544.48
607.05	45687.26
607.20	45661.51
607.36	45975.14
607.51	45883.86
607.67	45717.68
607.82	45471.93
607.98	45357.24
608.13	45610.02
608.29	45303.41
608.44	44940.63
608.60	45116.17
608.75	45441.50
608.91	45565.55
609.06	44744.02
609.22	45792.58
609.37	45083.40
609.53	45078.72
609.68	45574.91
609.84	44952.33
609.99	45167.66
610.15	44935.95
610.30	44914.88
610.46	44961.69
610.61	44858.71
610.76	45001.48
610.92	45120.85
611.07	45216.81
611.23	45057.65
611.38	45574.91
611.54	45045.95
611.69	44898.50
611.84	44875.09
612.00	44671.46
612.15	45146.59
612.31	45443.84
612.46	44818.92
612.62	45453.20
612.77	44832.96
612.92	44942.97
613.08	45118.51
613.23	44729.98
613.39	44783.81
613.54	45177.02
613.69	44629.34
613.85	44570.82
614.00	44912.54
614.15	44488.90
614.31	44732.32
614.46	45125.53
614.62	44505.29
614.77	44502.95
614.92	44341.45
615.08	44367.20
615.23	44809.56
615.38	44697.21
615.54	44364.85
615.69	44514.65
615.84	43665.03
616.00	44343.79
616.15	44498.26
616.30	44381.24
616.46	44179.95
616.61	44147.18
616.76	44350.81
616.92	44142.50
617.07	44397.62
617.22	44055.90
617.37	44584.86
617.53	44697.21
617.68	44428.05
617.83	44411.67
617.99	44074.63
618.14	44299.32
618.29	44582.52
618.45	44315.70
618.60	44074.63
618.75	43746.95
618.90	43999.73
619.06	43821.85
619.21	44032.50
619.36	43927.17
619.51	43849.94
619.67	43704.82
619.82	43688.44
619.97	43966.96
620.12	43735.25
620.28	43320.98
620.43	43199.27
620.58	44102.71
620.73	43559.71
620.89	43725.89
621.04	43931.86
621.19	43807.81
621.34	43590.14
621.49	43545.67
621.65	43702.48
621.80	43859.30
621.95	43129.05
622.10	43550.35
622.25	43414.60
622.41	43185.22
622.56	43587.80
622.71	43744.61
622.86	43587.80
623.01	43709.50
623.16	43653.33
623.32	43313.95
623.47	43625.25
623.62	43505.88
623.77	43136.07
623.92	43166.50
624.07	43166.50
624.23	43049.47
624.38	43400.55
624.53	43412.26
624.68	43210.97
624.83	43122.03
624.98	43185.22
625.13	42494.77
625.29	43075.22
625.44	42691.37
625.59	42618.81
625.74	42808.40
625.89	43145.44
626.04	42447.96
626.19	42281.78
626.34	42494.77
626.49	43075.22
626.65	42476.04
626.80	42876.27
626.95	42300.50
627.10	42146.03
627.25	42611.79
627.40	42546.26
627.55	41710.69
627.70	42356.67
627.85	42080.49
628.00	42536.90
628.15	42464.34
628.30	42272.42
628.45	42880.95
628.60	42223.26
628.76	42045.38
628.91	42003.25
629.06	41954.10
629.21	42244.33
629.36	42092.19
629.51	41663.88
629.66	41846.44
629.81	41375.99
629.96	41851.12
630.11	41797.29
630.26	42272.42
630.41	42192.84
630.56	42045.38
630.71	41970.49
630.86	41734.09
631.01	41603.02
631.16	41827.71
631.31	41722.39
631.46	41296.41
631.61	41603.02
631.76	41675.58
631.91	42064.11
632.06	41684.94
632.21	41610.04
632.36	41703.67
632.51	41069.38
632.66	41588.98
632.81	41319.82
632.96	41738.77
633.10	41649.83
633.25	41343.22
633.40	41331.52
633.55	41584.30
633.70	41069.38
633.85	41464.93
634.00	41298.75
634.15	41542.17
634.30	41181.73
634.45	40952.35
634.60	41205.13
634.75	40645.74
634.90	41298.75
635.05	41247.26
635.19	41207.47
635.34	41069.38
635.49	41280.03
635.64	41134.92
635.79	40877.46
635.94	40341.47
636.09	40741.71
636.24	40437.44
636.39	40407.01
636.53	40704.26
636.68	40727.66
636.83	40521.69
636.98	40566.16
637.13	40849.37
637.28	41193.43
637.43	40793.20
637.57	41268.33
637.72	40350.84
637.87	40952.35
638.02	40713.62
638.17	40168.27
638.32	40692.55
638.46	40060.61
638.61	40067.63
638.76	40395.31
638.91	40231.47
639.06	40297.00
639.20	40825.96
639.35	40285.30
639.50	40179.98
639.65	40435.10
639.80	40243.17
639.94	40018.48
640.09	40046.57
640.24	39924.86
640.39	39442.71
640.54	39821.87
640.68	39995.07
640.83	40037.20
640.98	40212.74
641.13	39798.47
641.27	40254.87
641.42	39824.22
641.57	40315.73
641.72	39660.38
641.86	39627.61
642.01	39571.44
642.16	39814.85
642.31	39562.08
642.45	39913.16
642.60	39040.14
642.75	39321.00
642.90	39531.65
643.04	39494.20
643.19	39154.82
643.34	39847.62
643.48	39648.68
643.63	39463.77
643.78	39374.83
643.93	39807.83
644.07	39697.83
644.22	39089.29
644.37	39044.82
644.51	39360.79
644.66	39091.63
644.81	39346.75
644.95	39718.89
645.10	39482.50
645.25	39325.68
645.39	39360.79
645.54	39206.31
645.69	39042.48
645.83	39189.93
645.98	39012.05
646.13	39166.52
646.27	38885.66
646.42	38951.20
646.57	39222.70
646.71	38932.47
646.86	39047.16
647.00	39016.73
647.15	38763.95
647.30	39227.38
647.44	39035.45
647.59	39026.09
647.74	38511.17
647.88	38831.83
648.03	38485.43
648.17	39189.93
648.32	38792.04
648.47	38625.86
648.61	38508.83
648.76	38731.18
648.90	38644.59
649.05	38904.38
649.20	38944.17
649.34	38642.24
649.49	38377.76
649.63	38410.53
649.78	38253.72
649.92	38230.31
650.07	38546.28
650.21	38307.55
650.36	38309.89
650.51	38036.05
650.65	38906.73
650.80	38726.50
650.94	38078.18
651.09	38153.07
651.23	37951.79
651.38	38124.99
651.52	38426.92
651.67	37823.06
651.81	37937.74
651.96	37773.91
652.10	37858.17
652.25	38024.34
652.39	38223.29
652.54	37668.58
652.68	38017.32
652.83	38157.75
652.97	38213.93
653.12	38211.59
653.26	37738.80
653.41	37731.78
653.55	38307.55
653.70	37418.14
653.84	37741.14
653.99	37322.18
654.13	37390.06
654.27	37757.52
654.42	37748.16
654.56	38270.10
654.71	37659.22
654.85	37399.42
655.00	37996.26
655.14	37612.41
655.29	37301.12
655.43	36823.65
655.57	36989.83
655.72	37361.97
655.86	36732.37
656.01	36620.02
656.15	36458.52
656.30	36973.44
656.44	37373.67
656.58	37057.70
656.73	37010.89
656.87	37020.25
657.01	36882.16
657.16	36760.45
657.30	36320.43
657.45	37113.87
657.59	37050.68
657.73	36620.02
657.88	36957.06
658.02	36858.76
658.16	36870.46
658.31	37053.02
658.45	37366.65
658.60	36865.78
658.74	37258.99
658.88	36999.19
659.03	36470.23
659.17	36194.04
659.31	36500.65
659.46	36442.14
659.60	36526.40
659.74	36397.67
659.89	35793.81
660.03	36051.27
660.17	36486.61
660.32	36470.23
660.46	36196.38
660.60	36002.12
660.74	35988.08
660.89	36222.13
661.03	36051.27
661.17	36158.94
661.32	35796.15
661.46	35997.44
661.60	35367.84
661.74	35793.81
661.89	35728.28
662.03	35227.40
662.17	35744.66
662.31	35901.48
662.46	35892.12
662.60	36039.57
662.74	35807.86
662.88	35515.29
663.03	35477.84
663.17	35899.14
663.31	35438.05
663.45	34948.88
663.60	35201.66
663.74	35304.64
663.88	34752.27
664.02	34768.66
664.17	35377.20
664.31	34607.16
664.45	34927.81
664.59	34604.82
664.73	34871.64
664.88	34766.32
665.02	34174.16
665.16	34534.60
665.30	34321.62
665.44	34628.23
665.59	34143.74
665.73	34876.32
665.87	34380.13
666.01	34316.93
666.15	34319.28
666.29	34204.59
666.44	34415.24
666.58	34293.53
666.72	34176.50
666.86	34220.97
667.00	34218.63
667.14	33649.88
667.28	33755.21
667.43	33811.38
667.57	33853.51
667.71	33727.12
667.85	33656.90
667.99	34148.42
668.13	33715.42
668.27	33731.80
668.41	33443.91
668.56	33457.96
668.70	33404.13
668.84	33242.63
668.98	33043.68
669.12	33244.97
669.26	33251.99
669.40	32723.03
669.54	33441.57
669.68	33301.14
669.82	32388.33
669.96	32886.87
670.10	32793.25
670.25	32779.20
670.39	32435.14
670.53	32744.09
670.67	32535.79
670.81	32444.51
670.95	32210.45
671.09	32357.91
671.23	32037.25
671.37	32034.91
671.51	32158.96
671.65	32283.01
671.79	32554.51
671.93	32009.17
672.07	31955.33
672.21	31931.93
672.35	31749.37
672.49	32081.72
672.63	31945.97
672.77	31349.14
672.91	31548.08
673.05	31531.70
673.19	31601.91
673.33	31501.27
673.47	31117.42
673.61	31098.70
673.75	31421.69
673.89	31047.21
674.03	30888.05
674.17	30885.71
674.31	31012.10
674.45	30951.24
674.59	31103.38
674.73	30806.13
674.87	30682.08
675.01	30801.45
675.15	30658.68
675.29	30579.10
675.43	30438.67
675.56	30581.44
675.70	30396.54
675.84	30419.94
675.98	29256.70
676.12	30328.66
676.26	30078.22
676.40	30492.50
676.54	30146.10
676.68	29872.26
676.82	29532.88
676.96	29872.26
677.10	29853.53
677.23	29235.63
677.37	29390.11
677.51	29289.46
677.65	29263.72
677.79	28847.10
677.93	28884.55
678.07	28655.18
678.21	28470.28
678.34	28383.68
678.48	28669.22
678.62	28243.24
678.76	28444.53
678.90	28177.71
679.04	28163.67
679.18	28247.93
679.31	27599.60
679.45	27594.92
679.59	27597.26
679.73	27763.43
679.87	27676.83
680.00	27611.30
680.14	27613.64
680.28	27405.33
680.42	27087.02
680.56	27323.41
680.70	27339.80
680.83	27264.90
680.97	27147.87
681.11	27072.98
681.25	26888.07
681.39	26906.80
681.52	27080.00
681.66	26384.86
681.80	26721.90
681.94	26504.23
682.07	26326.35
682.21	26309.96
682.35	26153.15
682.49	25965.90
682.62	26160.17
682.76	25970.58
682.90	26017.40
683.04	25593.76
683.17	25818.45
683.31	25514.18
683.45	25804.41
683.59	25710.78
683.72	25448.64
683.86	25509.50
684.00	25317.57
684.13	24996.92
684.27	24999.26
684.41	24802.66
684.55	24952.45
684.68	24907.98
684.82	24264.33
684.96	24306.46
685.09	24601.37
685.23	24428.17
685.37	24477.32
685.50	24568.60
685.64	24657.54
685.78	24224.54
685.91	23992.83
686.05	24037.30
686.19	23784.52
686.32	23702.61
686.46	23307.05
686.60	23180.67
686.73	23157.26
686.87	22948.95
687.01	23119.81
687.14	22885.76
687.28	22967.68
687.42	22796.82
687.55	22803.84
687.69	22974.70
687.82	22864.69
687.96	22642.34
688.10	22618.94
688.23	22274.88
688.37	22398.93
688.50	22286.58
688.64	22281.90
688.78	21706.13
688.91	21504.84
689.05	21902.73
689.18	21802.09
689.32	21476.76
689.46	21759.96
689.59	21865.28
689.73	21813.79
689.86	21762.30
690.00	21488.46
690.13	21661.66
690.27	21209.93
690.41	20922.05
690.54	21015.67
690.68	21074.18
690.81	21097.59
690.95	21284.83
691.08	20915.03
691.22	20793.32
691.35	20718.42
691.49	20601.40
691.62	20521.82
691.76	20805.02
691.89	20346.28
692.03	20381.38
692.16	20318.19
692.30	20123.93
692.43	20318.19
692.57	20116.90
692.70	19749.44
692.84	19810.29
692.97	19548.15
693.11	19667.52
693.24	19489.64
693.38	19293.04
693.51	19384.32
693.65	19377.30
693.78	19171.33
693.92	19475.60
694.05	19159.63
694.19	19066.00
694.32	19147.92
694.45	19023.87
694.59	18939.62
694.72	18651.73
694.86	18822.59
694.99	18668.11
695.13	18675.13
695.26	18459.81
695.39	18272.56
695.53	18448.10
695.66	18450.44
695.80	18181.28
695.93	17982.34
696.07	18281.92
696.20	17972.97
696.33	18068.94
696.47	17715.51
696.60	17671.04
696.73	17685.09
696.87	17654.66
697.00	17638.28
697.14	17266.13
697.27	17048.46
697.40	17322.30
697.54	17174.85
697.67	17158.47
697.80	17132.72
697.94	17001.65
698.07	17083.57
698.21	16858.88
698.34	16968.88
698.47	16826.11
698.61	16482.05
698.74	16683.34
698.87	16341.62
699.01	16575.67
699.14	16294.81
699.27	16276.09
699.40	16262.04
699.54	16152.04
699.67	15854.79
699.80	15847.77
699.94	15971.82
700.07	16016.29
700.20	15709.68
700.34	15609.03
700.47	15545.84
700.60	15641.80
700.73	15932.03
700.87	15524.77
701.00	15461.58
701.13	15496.69
701.26	15262.63
701.40	15461.58
701.53	14885.81
701.66	15044.96
701.79	14953.68
701.93	14899.85
702.06	14721.97
702.19	14916.23
702.32	14853.04
702.46	14911.55
702.59	14764.10
702.72	14773.46
702.85	14757.08
702.99	14462.17
703.12	14583.88
703.25	14459.83
703.38	14452.81
703.51	14171.94
703.65	14232.80
703.78	14012.79
703.91	13872.36
704.04	13923.85
704.17	13874.70
704.31	13659.37
704.44	13556.38
704.57	13453.40
704.70	13678.09
704.83	13352.76
704.96	13563.40
705.10	13657.03
705.23	13467.44
>>>>>End Processed Spectral Data<<<<<
