SpectraSuite Data File
++++++++++++++++++++++++++++++++++++
Date: Fri Oct 25 10:43:26 EDT 2013
User: price-jones
Dark Spectrum Present: No
Reference Spectrum Present: No
Number of Sampled Component Spectra: 1
Spectrometers: USB2+H05261
Integration Time (usec): 100000 (USB2+H05261)
Spectra Averaged: 1 (USB2+H05261)
Boxcar Smoothing: 0 (USB2+H05261)
Correct for Electrical Dark: No (USB2+H05261)
Strobe/Lamp Enabled: No (USB2+H05261)
Correct for Detector Non-linearity: No (USB2+H05261)
Correct for Stray Light: No (USB2+H05261)
Number of Pixels in Processed Spectrum: 2048
>>>>>Begin Processed Spectral Data<<<<<
365.73	133.41
365.92	133.41
366.12	133.41
366.32	32.77
366.52	51.49
366.72	88.94
366.91	30.43
367.11	63.19
367.31	86.60
367.51	0.00
367.70	23.41
367.90	32.77
368.10	44.47
368.30	0.00
368.49	39.79
368.69	30.43
368.89	147.45
369.09	16.38
369.28	105.32
369.48	32.77
369.68	65.54
369.87	84.26
370.07	110.01
370.27	135.75
370.47	177.88
370.66	409.59
370.86	383.85
371.06	447.04
371.25	484.49
371.45	437.68
371.65	454.06
371.84	416.62
372.04	503.22
372.24	477.47
372.44	454.06
372.63	514.92
372.83	524.28
373.03	507.90
373.22	482.15
373.42	477.47
373.62	571.09
373.81	526.62
374.01	538.32
374.21	550.03
374.40	587.47
374.60	615.56
374.79	601.52
374.99	547.69
375.19	552.37
375.38	596.84
375.58	538.32
375.78	634.29
375.97	589.82
376.17	641.31
376.37	552.37
376.56	533.64
376.76	641.31
376.95	559.39
377.15	676.41
377.35	624.92
377.54	674.07
377.74	699.82
377.93	601.52
378.13	596.84
378.33	629.60
378.52	730.25
378.72	681.10
378.91	617.90
379.11	610.88
379.31	671.73
379.50	667.05
379.70	627.26
379.89	608.54
380.09	629.60
380.28	643.65
380.48	744.29
380.68	786.42
380.87	697.48
381.07	699.82
381.26	671.73
381.46	690.46
381.65	669.39
381.85	601.52
382.04	671.73
382.24	699.82
382.43	648.33
382.63	699.82
382.83	704.50
383.02	779.40
383.22	716.20
383.41	662.37
383.61	716.20
383.80	734.93
384.00	697.48
384.19	760.67
384.39	692.80
384.58	798.12
384.78	887.06
384.97	784.08
385.17	683.44
385.36	730.25
385.56	709.18
385.75	788.76
385.95	744.29
386.14	816.85
386.34	800.46
386.53	741.95
386.72	873.02
386.92	835.57
387.11	805.14
387.31	877.70
387.50	791.10
387.70	866.00
387.89	858.98
388.09	868.34
388.28	858.98
388.48	870.68
388.67	917.49
388.86	896.43
389.06	861.32
389.25	943.24
389.45	919.83
389.64	959.62
389.84	938.55
390.03	952.60
390.22	947.92
390.42	891.74
390.61	999.41
390.81	926.85
391.00	1025.15
391.19	1069.62
391.39	968.98
391.58	964.30
391.78	1043.88
391.97	999.41
392.16	997.07
392.36	1046.22
392.55	966.64
392.75	971.32
392.94	1036.86
393.13	957.28
393.33	952.60
393.52	1039.20
393.71	1057.92
393.91	1130.48
394.10	1020.47
394.29	1137.50
394.49	1160.91
394.68	1177.29
394.88	1095.37
395.07	1247.51
395.26	1153.88
395.46	1226.44
395.65	1191.33
395.84	1203.04
396.04	1233.46
396.23	1114.10
396.42	1151.54
396.62	1107.07
396.81	1172.61
397.00	1184.31
397.19	1203.04
397.39	1263.89
397.58	1299.00
397.77	1348.15
397.97	1397.30
398.16	1341.13
398.35	1430.07
398.55	1490.92
398.74	1495.60
398.93	1493.26
399.12	1490.92
399.32	1380.92
399.51	1467.52
399.70	1593.90
399.90	1554.12
400.09	1645.40
400.28	1591.56
400.47	1535.39
400.67	1680.50
400.86	1619.65
401.05	1633.69
401.24	1694.55
401.44	1647.74
401.63	1617.31
401.82	1582.20
402.01	1673.48
402.21	1598.59
402.40	1764.76
402.59	1689.87
402.78	1696.89
402.97	1694.55
403.17	1668.80
403.36	1767.10
403.55	1802.21
403.74	1732.00
403.93	1818.60
404.13	1851.36
404.32	1790.51
404.51	1839.66
404.70	1853.70
404.89	1846.68
405.09	1998.82
405.28	1867.75
405.47	1900.52
405.66	1966.05
405.85	1966.05
406.05	1998.82
406.24	2038.61
406.43	2047.97
406.62	2052.65
406.81	1996.48
407.00	1977.75
407.20	1895.83
407.39	2017.54
407.58	2057.33
407.77	2134.57
407.96	2207.13
408.15	2223.51
408.34	2092.44
408.54	2139.25
408.73	2223.51
408.92	2223.51
409.11	2176.70
409.30	2214.15
409.49	2195.42
409.68	2214.15
409.87	2223.51
410.07	2279.68
410.26	2272.66
410.45	2438.84
410.64	2319.47
410.83	2338.20
411.02	2462.24
411.21	2513.74
411.40	2530.12
411.59	2609.70
411.78	2506.71
411.98	2499.69
412.17	2572.25
412.36	2562.89
412.55	2670.55
412.74	2686.94
412.93	2588.63
413.12	2642.46
413.31	2846.09
413.50	2663.53
413.69	2867.16
413.88	2801.62
414.07	2775.88
414.26	2808.64
414.45	2850.77
414.64	2754.81
414.83	2951.42
415.02	2958.44
415.22	3035.67
415.41	2949.08
415.60	3138.66
415.79	3124.62
415.98	3171.43
416.17	3103.55
416.36	3192.49
416.55	3096.53
416.74	3171.43
416.93	3089.51
417.12	3206.53
417.31	3218.24
417.50	3201.85
417.69	3318.88
417.88	3276.75
418.07	3368.03
418.26	3293.13
418.45	3468.67
418.64	3421.86
418.83	3459.31
419.02	3412.50
419.21	3506.12
419.39	3618.47
419.58	3431.23
419.77	3337.60
419.96	3480.38
420.15	3543.57
420.34	3625.49
420.53	3761.24
420.72	3655.92
420.91	3744.86
421.10	3770.60
421.29	3742.52
421.48	3646.55
421.67	3824.44
421.86	3613.79
422.05	3726.13
422.24	3765.92
422.43	3660.60
422.61	3728.47
422.80	3871.25
422.99	3845.50
423.18	3686.34
423.37	3761.24
423.56	3899.33
423.75	3852.52
423.94	3662.94
424.13	3566.98
424.32	3637.19
424.50	3768.26
424.69	3875.93
424.88	3911.04
425.07	3833.80
425.26	3749.54
425.45	3861.88
425.64	3705.07
425.83	3819.75
426.01	3864.22
426.20	3913.38
426.39	3798.69
426.58	3974.23
426.77	3866.56
426.96	3840.82
427.15	3756.56
427.33	4023.38
427.52	3976.57
427.71	4149.77
427.90	4142.75
428.09	4056.15
428.28	4114.66
428.46	4119.34
428.65	4018.70
428.84	4182.54
429.03	4194.24
429.22	3978.91
429.40	4163.81
429.59	4142.75
429.78	3829.12
429.97	4016.36
430.16	3992.95
430.34	4072.53
430.53	3967.21
430.72	4142.75
430.91	4007.00
431.10	4161.47
431.28	4596.81
431.47	4491.49
431.66	4617.88
431.85	4402.55
432.03	4421.27
432.22	4561.70
432.41	4491.49
432.60	4592.13
432.79	4617.88
432.97	4613.20
433.16	4561.70
433.35	4538.30
433.54	4550.00
433.72	4585.11
433.91	4510.21
434.10	4493.83
434.28	4681.07
434.47	4732.56
434.66	4697.46
434.85	4858.95
435.03	4786.40
435.22	4690.43
435.41	4910.44
435.59	4873.00
435.78	4940.87
435.97	4938.53
436.16	4983.00
436.34	5055.56
436.53	5076.62
436.72	5074.28
436.90	4919.81
437.09	4992.36
437.28	4983.00
437.46	5088.32
437.65	5104.71
437.84	5118.75
438.02	5093.01
438.21	5025.13
438.40	5046.20
438.58	5235.78
438.77	5280.25
438.96	5214.71
439.14	5261.52
439.33	5476.85
439.52	5495.58
439.70	5441.75
439.89	5511.96
440.08	5514.30
440.26	5497.92
440.45	5504.94
440.63	5703.89
440.82	5881.77
441.01	5881.77
441.19	5746.02
441.38	5806.87
441.57	5975.39
441.75	5846.66
441.94	6115.82
442.12	5933.26
442.31	6190.72
442.50	6214.12
442.68	6061.99
442.87	6263.27
443.05	6176.67
443.24	6214.12
443.43	6214.12
443.61	6228.17
443.80	6511.37
443.98	6195.40
444.17	5987.09
444.35	6352.21
444.54	6476.26
444.73	6190.72
444.91	6380.30
445.10	6317.11
445.28	6242.21
445.47	6216.46
445.65	6317.11
445.84	6429.45
446.02	6335.83
446.21	6448.18
446.39	6473.92
446.58	6483.28
446.77	6455.20
446.95	6260.93
447.14	6548.82
447.32	6698.61
447.51	6246.89
447.69	6539.46
447.88	6661.16
448.06	6459.88
448.25	6574.56
448.43	6628.40
448.62	6675.21
448.80	6588.61
448.99	6827.34
449.17	6745.42
449.36	6736.06
449.54	6771.17
449.73	6920.96
449.91	6843.73
450.10	7042.67
450.28	6967.77
450.46	7087.14
450.65	7098.84
450.83	7077.78
451.02	7112.89
451.20	6970.12
451.39	6862.45
451.57	6888.20
451.76	7084.80
451.94	7133.95
452.13	7250.98
452.31	7014.59
452.49	6832.02
452.68	7000.54
452.86	7169.06
453.05	7286.09
453.23	7206.51
453.42	7021.61
453.60	7110.55
453.78	7218.21
453.97	7066.08
454.15	7267.36
454.34	7239.28
454.52	7358.64
454.70	7358.64
454.89	7351.62
455.07	7323.54
455.26	7634.83
455.44	7595.04
455.62	7651.21
455.81	7595.04
455.99	7705.04
456.17	7728.45
456.36	7639.51
456.54	7548.23
456.73	7674.62
456.91	7859.52
457.09	8023.36
457.28	8002.29
457.46	7625.47
457.64	7974.21
457.83	7817.39
458.01	7969.52
458.19	7868.88
458.38	7889.95
458.56	8119.32
458.74	8107.62
458.93	8189.53
459.11	8060.80
459.29	8079.53
459.48	7981.23
459.66	8163.79
459.84	8126.34
460.03	8344.01
460.21	8212.94
460.39	8299.54
460.57	8311.24
460.76	8322.94
460.94	8484.44
461.12	8421.25
461.31	8353.37
461.49	8524.23
461.67	8477.42
461.85	8402.52
462.04	8671.68
462.22	9114.05
462.40	8755.94
462.59	8671.68
462.77	8514.87
462.95	8807.44
463.13	8638.92
463.32	8688.07
463.50	8727.86
463.68	9034.47
463.86	8753.60
464.05	8702.11
464.23	8812.12
464.41	8695.09
464.59	8669.34
464.78	9011.06
464.96	8898.72
465.14	8919.78
465.32	9036.81
465.50	8905.74
465.69	8933.82
465.87	9043.83
466.05	9100.00
466.23	8842.54
466.41	8971.27
466.60	9200.65
466.78	9235.75
466.96	9324.69
467.14	9111.71
467.32	9142.13
467.51	9043.83
467.69	9158.52
467.87	9177.24
468.05	9481.51
468.23	9376.19
468.41	9303.63
468.60	9399.59
468.78	9528.32
468.96	9383.21
469.14	9472.15
469.32	9554.07
469.50	9095.32
469.69	9540.02
469.87	9504.92
470.05	9504.92
470.23	9547.05
470.41	9591.52
470.59	9806.84
470.77	9617.26
470.95	9851.31
471.14	9926.21
471.32	9701.52
471.50	10207.08
471.68	10064.30
471.86	10085.37
472.04	10193.03
472.22	10312.40
472.40	10078.35
472.58	10120.48
472.77	10380.28
472.95	10354.53
473.13	10492.62
473.31	10073.67
473.49	10413.04
473.67	10532.41
473.85	10450.49
474.03	10839.02
474.21	10801.57
474.39	10633.05
474.57	10719.65
474.75	11101.16
474.93	10974.77
475.12	11005.20
475.30	11194.78
475.48	10843.70
475.66	10850.72
475.84	11077.76
476.02	11080.10
476.20	11300.11
476.38	11403.09
476.56	11463.94
476.74	11538.84
476.92	11587.99
477.10	11510.75
477.28	11971.84
477.46	11889.92
477.64	11981.20
477.82	12006.95
478.00	12271.43
478.18	12259.73
478.36	12376.75
478.54	12322.92
478.72	12571.02
478.90	12376.75
479.08	12472.71
479.26	12889.33
479.44	12805.07
479.62	12992.31
479.80	12996.99
479.98	12884.65
480.16	13465.10
480.34	13195.94
480.52	13275.52
480.70	13338.71
480.88	13453.40
481.06	13486.17
481.24	13544.68
481.41	14092.37
481.59	14071.30
481.77	14321.74
481.95	14277.27
482.13	14228.12
482.31	14193.01
482.49	14448.13
482.67	14366.21
482.85	14665.80
483.03	14703.25
483.21	15047.30
483.39	15154.97
483.57	15009.86
483.74	15124.54
483.92	15344.55
484.10	15051.99
484.28	15419.45
484.46	15758.83
484.64	16035.01
484.82	15461.58
485.00	15805.64
485.18	16191.83
485.35	16390.77
485.53	15871.17
485.71	15714.36
485.89	16140.33
486.07	16114.59
486.25	16512.48
486.43	16540.57
486.61	16479.71
486.78	16840.15
486.96	16879.94
487.14	17511.89
487.32	17135.06
487.50	17556.36
487.68	17591.47
487.85	17738.92
488.03	18036.17
488.21	17980.00
488.39	18403.63
488.57	18295.97
488.75	18429.38
488.92	18548.75
489.10	19232.18
489.28	18848.33
489.46	19239.20
489.64	19220.48
489.81	19510.71
489.99	19719.01
490.17	19754.12
490.35	20121.59
490.53	19850.08
490.70	20285.42
490.88	20379.04
491.06	20442.24
491.24	20458.62
491.41	20161.37
491.59	20334.57
491.77	20418.83
491.95	20592.03
492.13	20652.89
492.30	21266.11
492.48	21249.72
492.66	21174.83
492.84	21362.07
493.01	21874.65
493.19	21575.06
493.37	21862.94
493.54	21591.44
493.72	22204.66
493.90	21926.14
494.08	22272.54
494.25	22450.42
494.43	22614.26
494.61	22661.07
494.79	22972.36
494.96	23082.36
495.14	22581.49
495.32	23356.21
495.49	23087.04
495.67	23208.75
495.85	23555.15
496.02	23594.94
496.20	23983.47
496.38	23906.23
496.55	24212.84
496.73	24624.78
496.91	24297.10
497.09	24229.23
497.26	24905.64
497.44	24423.49
497.62	24676.27
497.79	25025.01
497.97	24765.21
498.14	24943.09
498.32	24891.60
498.50	24903.30
498.67	25596.10
498.85	25455.67
499.03	25575.03
499.20	25359.70
499.38	25708.44
499.56	25876.96
499.73	26031.44
499.91	25781.00
500.08	26136.76
500.26	25858.24
500.44	26054.84
500.61	26183.57
500.79	25799.73
500.97	26096.97
501.14	26593.17
501.32	26338.05
501.49	26661.04
501.67	26682.11
501.84	26972.33
502.02	26604.87
502.20	27044.89
502.37	27138.51
502.55	26948.93
502.72	27550.45
502.90	27290.65
503.07	27381.93
503.25	27356.18
503.43	27618.32
503.60	27861.74
503.78	27756.41
503.95	27311.71
504.13	27903.87
504.30	28084.09
504.48	27690.88
504.65	28320.48
504.83	28489.00
505.01	28638.80
505.18	28077.07
505.36	28615.39
505.53	29076.48
505.71	29001.58
505.88	29282.44
506.06	28844.76
506.23	29013.28
506.41	28694.97
506.58	28900.94
506.76	28985.19
506.93	29039.03
507.11	29408.83
507.28	29551.60
507.46	29303.51
507.63	29275.42
507.81	29560.97
507.98	29771.61
508.16	29795.02
508.33	29986.94
508.50	30183.55
508.68	30160.14
508.85	30518.25
509.03	30319.30
509.20	30494.84
509.38	30513.56
509.55	30394.20
509.73	30298.23
509.90	30827.20
510.08	30497.18
510.25	30733.57
510.42	30803.79
510.60	30939.54
510.77	31222.75
510.95	31243.81
511.12	31349.14
511.30	31625.32
511.47	31838.31
511.64	31442.76
511.82	31948.31
511.99	31590.21
512.17	31550.42
512.34	31803.20
512.51	32105.13
512.69	32074.70
512.86	32315.78
513.04	32041.93
513.21	32350.88
513.38	31777.45
513.56	32332.16
513.73	32147.26
513.90	32582.60
514.08	32542.81
514.25	32666.86
514.43	32615.37
514.60	32659.84
514.77	32989.85
514.95	32996.87
515.12	33034.32
515.29	33174.75
515.47	33443.91
515.64	33415.83
515.81	32936.02
515.99	33467.32
516.16	33134.96
516.33	32877.51
516.51	33528.17
516.68	32914.95
516.85	32872.82
517.03	33139.65
517.20	33113.90
517.37	33448.60
517.54	34127.35
517.72	33624.14
517.89	33364.34
518.06	33420.51
518.24	33486.04
518.41	33848.83
518.58	34174.16
518.75	33783.29
518.93	34270.12
519.10	34265.44
519.27	34197.57
519.45	34373.11
519.62	34429.28
519.79	35061.22
519.96	34501.84
520.14	34918.45
520.31	34511.20
520.48	35054.20
520.65	34960.58
520.83	35098.67
521.00	35143.14
521.17	35218.04
521.34	35232.08
521.52	35789.13
521.69	35508.27
521.86	36062.97
522.03	35653.38
522.20	35445.07
522.38	35880.41
522.55	35756.36
522.72	35852.33
522.89	35538.69
523.07	36219.79
523.24	36009.14
523.41	36261.92
523.58	36046.59
523.75	36779.18
523.92	36531.08
524.10	36449.16
524.27	36613.00
524.44	36758.11
524.61	36938.33
524.78	36825.99
524.96	36715.98
525.13	36390.65
525.30	36652.79
525.47	37439.21
525.64	36432.78
525.81	37242.60
525.98	36882.16
526.16	36912.59
526.33	36847.05
526.50	36685.56
526.67	36498.31
526.84	36924.29
527.01	36870.46
527.18	36971.10
527.36	37687.31
527.53	37408.78
527.70	38061.79
527.87	37497.72
528.04	37727.10
528.21	37860.51
528.38	38071.15
528.55	38052.43
528.72	38246.69
528.89	38281.80
529.07	38447.98
529.24	37963.49
529.41	38164.78
529.58	38019.66
529.75	38066.47
529.92	38340.32
530.09	38352.02
530.26	38550.96
530.43	38656.29
530.60	38415.21
530.77	38745.23
530.94	38543.94
531.11	38770.97
531.28	38422.23
531.46	38705.44
531.63	38892.68
531.80	38604.80
531.97	38536.92
532.14	38902.04
532.31	38553.30
532.48	38703.10
532.65	39077.58
532.82	38827.15
532.99	39381.85
533.16	38967.58
533.33	38939.49
533.50	39477.82
533.67	39674.42
533.84	39391.22
534.01	39400.58
534.18	39541.01
534.35	39709.53
534.52	39578.46
534.69	39765.70
534.86	39754.00
535.03	39686.12
535.20	39889.75
535.37	40020.82
535.54	40013.80
535.71	40048.91
535.88	39725.91
536.05	39768.04
536.22	40020.82
536.38	40067.63
536.55	40079.33
536.72	40137.85
536.89	40039.54
537.06	40311.05
537.23	40444.46
537.40	40348.50
537.57	40460.84
537.74	40650.42
537.91	40816.60
538.08	40385.94
538.25	40500.63
538.42	40620.00
538.59	40704.26
538.75	40074.65
538.92	40655.11
539.09	40624.68
539.26	40664.47
539.43	40465.52
539.60	40685.53
539.77	40627.02
539.94	40772.13
540.11	40650.42
540.28	41043.63
540.44	41064.70
540.61	40879.80
540.78	40823.62
540.95	41013.21
541.12	40910.22
541.29	40985.12
541.46	40790.86
541.62	41242.58
541.79	41715.37
541.96	40975.76
542.13	41474.29
542.30	41532.81
542.47	41275.35
542.63	40957.03
542.80	41652.17
542.97	41787.92
543.14	42192.84
543.31	41586.64
543.48	41724.73
543.64	42031.34
543.81	42237.31
543.98	42211.56
544.15	42019.64
544.32	42583.71
544.48	42611.79
544.65	41944.74
544.82	42005.59
544.99	42157.73
545.16	42124.96
545.32	41741.11
545.49	42497.11
545.66	42705.41
545.83	42457.32
546.00	42543.92
546.16	42380.08
546.33	42286.46
546.50	42447.96
546.67	42581.37
546.83	42108.58
547.00	42885.64
547.17	42822.44
547.34	42562.64
547.50	42754.57
547.67	43164.16
547.84	42616.47
548.00	42855.21
548.17	42972.24
548.34	42986.28
548.51	43491.83
548.67	42845.85
548.84	42869.25
549.01	42871.59
549.18	42689.03
549.34	43126.71
549.51	43107.99
549.68	43503.54
549.84	42880.95
550.01	43386.51
550.18	42635.20
550.34	42990.96
550.51	43236.72
550.68	43028.41
550.84	43030.75
551.01	43400.55
551.18	43491.83
551.34	43178.20
551.51	43377.15
551.68	43386.51
551.84	43690.78
552.01	43487.15
552.18	43899.09
552.34	43409.92
552.51	43559.71
552.68	43519.92
552.84	43550.35
553.01	43714.19
553.18	43744.61
553.34	43985.69
553.51	43648.65
553.67	43749.29
553.84	43681.42
554.01	44179.95
554.17	43999.73
554.34	44292.30
554.51	43629.93
554.67	44308.68
554.84	44285.28
555.00	43913.13
555.17	43866.32
555.33	43945.90
555.50	43828.87
555.67	43786.74
555.83	44079.31
556.00	44369.54
556.16	44847.00
556.33	44020.80
556.50	44168.25
556.66	44114.42
556.83	44004.41
556.99	43990.37
557.16	44051.22
557.32	44168.25
557.49	44687.85
557.65	44224.42
557.82	44381.24
557.98	44362.51
558.15	44610.61
558.32	44406.98
558.48	44107.40
558.65	44390.60
558.81	44116.76
558.98	44357.83
559.14	44474.86
559.31	44311.02
559.47	44198.68
559.64	44788.49
559.80	44720.62
559.97	45057.65
560.13	43924.83
560.30	44519.33
560.46	44732.32
560.63	44758.06
560.79	44938.29
560.96	45134.89
561.12	44657.42
561.29	44744.02
561.45	44582.52
561.61	45085.74
561.78	44531.03
561.94	44502.95
562.11	44528.69
562.27	44432.73
562.44	45118.51
562.60	44830.62
562.77	45123.19
562.93	44573.16
563.10	44945.31
563.26	44507.63
563.42	44964.03
563.59	44935.95
563.75	45165.32
563.92	44980.42
564.08	44926.58
564.24	45359.58
564.41	44933.60
564.57	45090.42
564.74	45230.85
564.90	44687.85
565.07	45104.46
565.23	44872.75
565.39	44877.43
565.56	44706.57
565.72	44374.22
565.88	44821.26
566.05	44804.88
566.21	44992.12
566.38	44779.13
566.54	44931.26
566.70	45411.07
566.87	45408.73
567.03	45408.73
567.19	45420.44
567.36	45067.02
567.52	45123.19
567.68	45539.80
567.85	45146.59
568.01	45296.39
568.17	44994.46
568.34	45249.58
568.50	45645.13
568.66	45511.72
568.83	45322.13
568.99	45340.86
569.15	45490.65
569.32	45078.72
569.48	44839.98
569.64	45151.27
569.81	45427.46
569.97	45825.35
570.13	45324.47
570.30	44699.55
570.46	45113.83
570.62	45158.30
570.78	44732.32
570.95	44680.83
571.11	45291.71
571.27	44968.71
571.43	45495.33
571.60	45780.88
571.76	45455.54
571.92	45371.28
572.09	45331.50
572.25	45560.87
572.41	45663.85
572.57	45525.76
572.74	45851.09
572.90	45535.12
573.06	45118.51
573.22	45287.03
573.38	45095.10
573.55	45301.07
573.71	45584.27
573.87	45521.08
574.03	45294.05
574.20	45291.71
574.36	45261.28
574.52	45436.82
574.68	45265.96
574.84	45572.57
575.01	44854.03
575.17	45350.22
575.33	45413.41
575.49	44847.00
575.65	45378.31
575.82	45783.22
575.98	45312.77
576.14	45572.57
576.30	45155.96
576.46	45127.87
576.62	45172.34
576.79	45085.74
576.95	45390.01
577.11	45867.48
577.27	45352.56
577.43	45443.84
577.59	45144.25
577.75	45401.71
577.92	44985.10
578.08	44898.50
578.24	45270.64
578.40	45380.65
578.56	45668.53
578.72	45734.07
578.88	45832.37
579.04	45705.98
579.21	45750.45
579.37	45249.58
579.53	45024.89
579.69	45474.27
579.85	45588.95
580.01	45724.71
580.17	45415.76
580.33	45460.23
580.49	45862.80
580.65	45565.55
580.82	45408.73
580.98	45404.05
581.14	45162.98
581.30	45811.31
581.46	45425.12
581.62	45567.89
581.78	45820.67
581.94	45855.78
582.10	45413.41
582.26	45769.18
582.42	45769.18
582.58	45371.28
582.74	45373.63
582.90	45689.60
583.06	45354.90
583.22	45390.01
583.38	45813.65
583.54	45308.09
583.70	45743.43
583.86	45535.12
584.02	45544.48
584.18	45759.81
584.34	45577.25
584.50	45385.33
584.66	45408.73
584.82	45567.89
584.98	45521.08
585.14	45652.15
585.30	45450.86
585.46	45308.09
585.62	45324.47
585.78	45317.45
585.94	45607.68
586.10	45624.06
586.26	45233.19
586.42	45881.52
586.58	45762.15
586.74	45504.70
586.90	45617.04
587.06	45521.08
587.22	45984.51
587.38	45432.14
587.54	45888.54
587.70	45823.01
587.86	45759.81
588.02	45385.33
588.18	45783.22
588.34	45415.76
588.49	45294.05
588.65	44942.97
588.81	45015.52
588.97	45382.99
589.13	45308.09
589.29	45347.88
589.45	45261.28
589.61	45532.78
589.77	45607.68
589.93	45759.81
590.08	45785.56
590.24	45879.18
590.40	45682.58
590.56	46113.23
590.72	45808.96
590.88	45450.86
591.04	46220.90
591.20	46241.96
591.35	46183.45
591.51	46115.58
591.67	45727.05
591.83	45502.35
591.99	45495.33
592.15	45588.95
592.31	45647.47
592.46	45600.66
592.62	45464.91
592.78	46312.18
592.94	45993.87
593.10	45904.93
593.26	45607.68
593.41	45921.31
593.57	45591.30
593.73	45464.91
593.89	45743.43
594.05	45691.94
594.20	45521.08
594.36	45633.42
594.52	45675.55
594.68	45839.39
594.84	45593.64
594.99	45874.50
595.15	45963.44
595.31	45645.13
595.47	45911.95
595.62	46007.91
595.78	45975.14
595.94	45799.60
596.10	45984.51
596.25	45780.88
596.41	45940.04
596.57	45773.86
596.73	45935.35
596.88	45415.76
597.04	45401.71
597.20	45961.10
597.36	45619.38
597.51	45963.44
597.67	45818.33
597.83	45748.11
597.99	46101.53
598.14	45670.87
598.30	46073.45
598.46	45837.05
598.61	45968.12
598.77	45715.34
598.93	46185.79
599.09	45921.31
599.24	46199.83
599.40	45928.33
599.56	45827.69
599.71	46064.08
599.87	46337.93
600.03	45631.08
600.18	46061.74
600.34	45989.19
600.50	45713.00
600.65	45471.93
600.81	45642.79
600.97	45989.19
601.12	46103.87
601.28	45867.48
601.44	45666.19
601.59	45731.73
601.75	45198.09
601.91	45947.06
602.06	45635.77
602.22	45434.48
602.37	45785.56
602.53	45656.83
602.69	45998.55
602.84	45759.81
603.00	45743.43
603.16	45748.11
603.31	45436.82
603.47	45469.59
603.62	45776.20
603.78	45904.93
603.94	45675.55
604.09	45801.94
604.25	45598.32
604.40	45659.17
604.56	45951.74
604.71	46036.00
604.87	45734.07
605.03	45958.76
605.18	45855.78
605.34	45808.96
605.49	45319.79
605.65	45605.34
605.80	45897.91
605.96	45741.09
606.12	45574.91
606.27	45911.95
606.43	45436.82
606.58	45909.61
606.74	45848.75
606.89	45478.95
607.05	45553.85
607.20	45982.16
607.36	45469.59
607.51	46064.08
607.67	45188.72
607.82	45420.44
607.98	45560.87
608.13	45497.67
608.29	45097.44
608.44	45284.68
608.60	45116.17
608.75	45301.07
608.91	45315.11
609.06	45280.00
609.22	45684.92
609.37	45244.90
609.53	45619.38
609.68	45258.94
609.84	44811.90
609.99	45317.45
610.15	45081.06
610.30	44669.12
610.46	45191.06
610.61	45305.75
610.76	45483.63
610.92	44926.58
611.07	45188.72
611.23	45081.06
611.38	45074.04
611.54	44975.73
611.69	44591.89
611.84	44729.98
612.00	45284.68
612.15	44844.66
612.31	45476.61
612.46	45233.19
612.62	45226.17
612.77	44884.45
612.92	44842.32
613.08	45048.29
613.23	44521.67
613.39	44509.97
613.54	44519.33
613.69	44215.06
613.85	44481.88
614.00	44650.40
614.15	44643.38
614.31	44737.00
614.46	44849.35
614.62	44589.55
614.77	44610.61
614.92	44179.95
615.08	44528.69
615.23	44296.98
615.38	44678.49
615.54	44610.61
615.69	44779.13
615.84	43985.69
616.00	44327.41
616.15	44271.23
616.30	44704.23
616.46	44037.18
616.61	44135.48
616.76	44561.46
616.92	44114.42
617.07	44488.90
617.22	44224.42
617.37	43992.71
617.53	44570.82
617.68	44411.67
617.83	44133.14
617.99	44165.91
618.14	44119.10
618.29	44088.67
618.45	44006.75
618.60	44081.65
618.75	43346.72
618.90	43730.57
619.06	43950.58
619.21	43875.68
619.36	44004.41
619.51	43468.43
619.67	43711.84
619.82	43470.77
619.97	43868.66
620.12	43157.14
620.28	43491.83
620.43	43456.73
620.58	43751.63
620.73	43700.14
620.89	43524.60
621.04	43775.04
621.19	43882.70
621.34	43592.48
621.49	43332.68
621.65	43522.26
621.80	43735.25
621.95	43391.19
622.10	43433.32
622.25	43147.78
622.41	43351.40
622.56	43489.49
622.71	43082.24
622.86	43440.34
623.01	43143.09
623.16	43313.95
623.32	43414.60
623.47	43320.98
623.62	43117.35
623.77	43150.12
623.92	43033.09
624.07	42782.65
624.23	42859.89
624.38	42543.92
624.53	43339.70
624.68	43030.75
624.83	42897.34
624.98	43239.06
625.13	42564.98
625.29	42347.31
625.44	42663.28
625.59	42033.68
625.74	42660.94
625.89	42646.90
626.04	42328.59
626.19	42492.43
626.34	42569.66
626.49	42735.84
626.65	42897.34
626.80	42480.72
626.95	42129.64
627.10	42415.19
627.25	42763.93
627.40	42497.11
627.55	42087.51
627.70	41577.28
627.85	42321.57
628.00	42169.43
628.15	42279.44
628.30	42529.87
628.45	42419.87
628.60	42618.81
628.76	42541.58
628.91	42555.62
629.06	41996.23
629.21	42043.04
629.36	41778.56
629.51	41846.44
629.66	42057.09
629.81	41387.69
629.96	41771.54
630.11	42167.09
630.26	42356.67
630.41	41696.64
630.56	41855.80
630.71	41874.52
630.86	41963.46
631.01	41965.81
631.16	41596.00
631.31	41649.83
631.46	41439.18
631.61	41507.06
631.76	41741.11
631.91	41560.89
632.06	41860.48
632.21	41614.72
632.36	41846.44
632.51	41148.96
632.66	41294.07
632.81	41053.00
632.96	41605.36
633.10	41504.72
633.25	41626.43
633.40	41448.55
633.55	41624.09
633.70	41244.92
633.85	41242.58
634.00	41354.93
634.15	41736.43
634.30	41326.84
634.45	40868.09
634.60	40989.80
634.75	40704.26
634.90	40891.50
635.05	41144.28
635.19	40926.61
635.34	40879.80
635.49	41057.68
635.64	41181.73
635.79	40926.61
635.94	41050.66
636.09	41041.29
636.24	40638.72
636.39	40107.42
636.53	41195.77
636.68	40570.85
636.83	40315.73
636.98	40517.01
637.13	40444.46
637.28	41607.70
637.43	40730.00
637.57	40470.20
637.72	40566.16
637.87	40580.21
638.02	40844.69
638.17	40816.60
638.32	40720.64
638.46	40526.38
638.61	40481.91
638.76	40210.40
638.91	40198.70
639.06	40449.14
639.20	40512.33
639.35	40308.71
639.50	40584.89
639.65	40364.88
639.80	39882.73
639.94	40128.48
640.09	39854.64
640.24	39913.16
640.39	40126.14
640.54	40093.38
640.68	40374.24
640.83	40332.11
640.98	39971.67
641.13	39445.05
641.27	40292.32
641.42	39945.92
641.57	39679.10
641.72	40561.48
641.86	39641.65
642.01	39615.91
642.16	39730.59
642.31	39388.88
642.45	39711.87
642.60	39643.99
642.75	39622.93
642.90	40112.10
643.04	40046.57
643.19	39501.22
643.34	39438.03
643.48	39416.96
643.63	39421.64
643.78	39536.33
643.93	39604.20
644.07	39283.55
644.22	39133.76
644.37	39325.68
644.51	39419.30
644.66	39358.45
644.81	39007.37
644.95	39639.31
645.10	39487.18
645.25	39456.75
645.39	39309.30
645.54	39438.03
645.69	39435.69
645.83	38916.09
645.98	39002.69
646.13	38834.17
646.27	38817.78
646.42	38574.37
646.57	39009.71
646.71	38712.46
646.86	39285.89
647.00	39208.65
647.15	39332.70
647.30	39063.54
647.44	39012.05
647.59	38810.76
647.74	38536.92
647.88	38806.08
648.03	38710.12
648.17	38660.97
648.32	38525.22
648.47	38691.40
648.61	38422.23
648.76	38965.24
648.90	38340.32
649.05	38644.59
649.20	38176.48
649.34	38494.79
649.49	38132.01
649.63	38251.38
649.78	38124.99
649.92	38663.31
650.07	38234.99
650.21	38387.13
650.36	38567.35
650.51	38148.39
650.65	38717.14
650.80	39030.77
650.94	38239.67
651.09	38218.61
651.23	38167.12
651.38	38515.86
651.52	37778.59
651.67	37816.04
651.81	37970.51
651.96	38040.73
652.10	37937.74
652.25	37867.53
652.39	38579.05
652.54	38005.62
652.68	37919.02
652.83	38003.28
652.97	38227.97
653.12	38260.74
653.26	37593.68
653.41	37677.94
653.55	37855.82
653.70	37909.66
653.84	37675.60
653.99	37914.34
654.13	37455.59
654.27	37659.22
654.42	37759.86
654.56	37785.61
654.71	37755.18
654.85	37574.96
655.00	37811.35
655.14	37268.35
655.29	37226.22
655.43	37273.03
655.57	36816.63
655.72	36818.97
655.86	36968.76
656.01	36517.04
656.15	36573.21
656.30	36800.24
656.44	37001.53
656.58	36964.08
656.73	36945.36
656.87	36737.05
657.01	37013.23
657.16	36210.43
657.30	36610.66
657.45	36807.26
657.59	36903.23
657.73	36306.39
657.88	36767.48
658.02	37240.26
658.16	36973.44
658.31	36715.98
658.45	36664.49
658.60	36875.14
658.74	36774.50
658.88	36704.28
659.03	36723.01
659.17	36095.74
659.31	36339.16
659.46	36163.62
659.60	36481.93
659.74	36067.66
659.89	36348.52
660.03	36369.58
660.17	36350.86
660.32	36376.61
660.46	36355.54
660.60	35700.19
660.74	35910.84
660.89	36357.88
661.03	35854.67
661.17	36046.59
661.32	36198.73
661.46	35857.01
661.60	35662.74
661.74	35559.76
661.89	35400.60
662.03	35606.57
662.17	35629.98
662.31	35597.21
662.46	36238.51
662.60	35985.74
662.74	35658.06
662.88	35468.48
663.03	35299.96
663.17	35363.15
663.31	35086.97
663.45	35314.00
663.60	34962.92
663.74	35494.22
663.88	34771.00
664.02	35051.86
664.17	35042.50
664.31	35084.63
664.45	34670.36
664.59	34710.14
664.73	34583.76
664.88	34522.90
665.02	34384.81
665.16	34602.48
665.30	34462.05
665.44	34309.91
665.59	34094.58
665.73	34469.07
665.87	34195.23
666.01	34316.93
666.15	34305.23
666.29	34305.23
666.44	34314.59
666.58	34440.98
666.72	34258.42
666.86	33912.02
667.00	33708.40
667.14	33841.81
667.28	34031.39
667.43	33890.96
667.57	33748.18
667.71	33731.80
667.85	34120.33
667.99	33837.12
668.13	33776.27
668.27	33984.58
668.41	33668.61
668.56	33493.07
668.70	33890.96
668.84	33134.96
668.98	33202.84
669.12	33280.08
669.26	33345.61
669.40	33095.18
669.54	33120.92
669.68	32636.43
669.82	33053.05
669.96	32797.93
670.10	32596.64
670.25	32528.77
670.39	32460.89
670.53	32613.02
670.67	32250.24
670.81	32575.58
670.95	32334.50
671.09	32451.53
671.23	32278.33
671.37	32353.23
671.51	32203.43
671.65	32161.30
671.79	32034.91
671.93	32201.09
672.07	31831.29
672.21	31990.44
672.35	32051.30
672.49	31353.82
672.63	32051.30
672.77	31583.19
672.91	31737.66
673.05	31278.92
673.19	31297.64
673.33	31353.82
673.47	31283.60
673.61	31365.52
673.75	30794.43
673.89	30820.17
674.03	30749.96
674.17	31019.12
674.31	31292.96
674.45	31047.21
674.59	31103.38
674.73	31033.16
674.87	31002.74
675.01	30761.66
675.15	30764.00
675.29	30899.75
675.43	30749.96
675.56	30352.07
675.70	30349.73
675.84	30363.77
675.98	29160.73
676.12	29907.37
676.26	30398.88
676.40	30015.03
676.54	30169.51
676.68	29771.61
676.82	29376.06
676.96	29553.94
677.10	29294.14
677.23	29390.11
677.37	29223.93
677.51	29125.63
677.65	29022.64
677.79	28975.83
677.93	28922.00
678.07	28676.24
678.21	28320.48
678.34	28643.48
678.48	28154.30
678.62	28233.88
678.76	28079.41
678.90	28126.22
679.04	28130.90
679.18	27950.68
679.31	27756.41
679.45	27824.29
679.59	27936.63
679.73	27601.94
679.87	27281.28
680.00	27431.08
680.14	27627.68
680.28	27061.27
680.42	27278.94
680.56	27325.75
680.70	26845.94
680.83	27115.11
680.97	26965.31
681.11	27300.01
681.25	27211.07
681.39	26480.82
681.52	26705.51
681.66	26246.77
681.80	26120.38
681.94	26267.83
682.07	26274.85
682.21	26532.31
682.35	26366.13
682.49	26221.02
682.62	26082.93
682.76	25790.36
682.90	25701.42
683.04	25647.59
683.17	25673.34
683.31	25252.04
683.45	25359.70
683.59	25598.44
683.72	25638.23
683.86	25242.68
684.00	25315.23
684.13	24570.94
684.27	24954.79
684.41	25027.35
684.55	24765.21
684.68	25020.33
684.82	24592.01
684.96	24678.61
685.09	24512.43
685.23	24664.57
685.37	24519.45
685.50	24395.40
685.64	24381.36
685.78	23957.72
685.91	24030.28
686.05	23887.51
686.19	23470.89
686.32	23580.90
686.46	23126.83
686.60	23417.06
686.73	23222.80
686.87	23061.30
687.01	22829.59
687.14	22897.46
687.28	22773.41
687.42	22895.12
687.55	22490.21
687.69	22892.78
687.82	22785.12
687.96	22738.30
688.10	22281.90
688.23	22239.77
688.37	22551.06
688.50	22490.21
688.64	22356.80
688.78	22232.75
688.91	21905.07
689.05	21717.83
689.18	22008.06
689.32	21380.79
689.46	21921.46
689.59	21900.39
689.73	22024.44
689.86	21420.58
690.00	21605.49
690.13	21186.53
690.27	21256.75
690.41	21172.49
690.54	20961.84
690.68	21149.08
690.81	21184.19
690.95	20868.22
691.08	21242.70
691.22	20851.83
691.35	20931.41
691.49	21006.31
691.62	20512.46
691.76	20503.09
691.89	20592.03
692.03	20271.38
692.16	20519.48
692.30	20093.50
692.43	20257.34
692.57	20088.82
692.70	19845.40
692.84	19892.21
692.97	19688.59
693.11	19501.34
693.24	19253.25
693.38	19403.04
693.51	19499.00
693.65	19208.78
693.78	18960.68
693.92	19145.58
694.05	19002.81
694.19	19049.62
694.32	19283.67
694.45	19264.95
694.59	19110.47
694.72	18757.05
694.86	18951.32
694.99	18548.75
695.13	18665.77
695.26	18279.58
695.39	18466.83
695.53	18586.19
695.66	18223.41
695.80	18197.67
695.93	18480.87
696.07	18185.96
696.20	17930.84
696.33	18092.34
696.47	18305.33
696.60	17762.33
696.73	17647.64
696.87	17738.92
697.00	17511.89
697.14	17046.12
697.27	17364.43
697.40	17268.47
697.54	17111.66
697.67	17231.02
697.80	17193.58
697.94	17027.40
698.07	17259.11
698.21	16966.54
698.34	16943.14
698.47	16884.62
698.61	16662.27
698.74	16601.42
698.87	16678.66
699.01	16264.38
699.14	16156.72
699.27	16175.44
699.40	16210.55
699.54	16163.74
699.67	15915.64
699.80	16067.78
699.94	15789.25
700.07	15700.31
700.20	15948.41
700.34	16042.03
700.47	15704.99
700.60	15826.70
700.73	15564.56
700.87	15625.42
701.00	15192.42
701.13	15407.75
701.26	15269.66
701.40	15056.67
701.53	14920.92
701.66	15133.90
701.79	14951.34
701.93	14998.15
702.06	14909.21
702.19	14670.48
702.32	14906.87
702.46	14862.40
702.59	14717.29
702.72	14679.84
702.85	14719.63
702.99	14747.72
703.12	14319.40
703.25	14487.92
703.38	14253.86
703.51	14253.86
703.65	14235.14
703.78	13671.07
703.91	14045.55
704.04	13837.25
704.17	13827.88
704.31	13879.38
704.44	13724.90
704.57	13392.55
704.70	13523.62
704.83	13280.20
704.96	13827.88
705.10	13500.21
705.23	13322.33
>>>>>End Processed Spectral Data<<<<<
