SpectraSuite Data File
++++++++++++++++++++++++++++++++++++
Date: Fri Oct 25 11:33:54 EDT 2013
User: price-jones
Dark Spectrum Present: No
Reference Spectrum Present: No
Number of Sampled Component Spectra: 1
Spectrometers: USB2+H05261
Integration Time (usec): 100000 (USB2+H05261)
Spectra Averaged: 1 (USB2+H05261)
Boxcar Smoothing: 0 (USB2+H05261)
Correct for Electrical Dark: No (USB2+H05261)
Strobe/Lamp Enabled: No (USB2+H05261)
Correct for Detector Non-linearity: No (USB2+H05261)
Correct for Stray Light: No (USB2+H05261)
Number of Pixels in Processed Spectrum: 2048
>>>>>Begin Processed Spectral Data<<<<<
365.73	201.29
365.92	201.29
366.12	201.29
366.32	196.60
366.52	198.95
366.72	252.78
366.91	238.73
367.11	102.98
367.31	147.45
367.51	147.45
367.70	105.32
367.90	145.11
368.10	191.92
368.30	145.11
368.49	163.84
368.69	229.37
368.89	156.82
369.09	168.52
369.28	191.92
369.48	196.60
369.68	273.84
369.87	205.97
370.07	215.33
370.27	224.69
370.47	346.40
370.66	510.24
370.86	470.45
371.06	449.38
371.25	561.73
371.45	566.41
371.65	468.11
371.84	519.60
372.04	531.30
372.24	610.88
372.44	599.18
372.63	528.96
372.83	585.13
373.03	557.05
373.22	617.90
373.42	678.76
373.62	631.94
373.81	631.94
374.01	648.33
374.21	655.35
374.40	587.47
374.60	650.67
374.79	622.58
374.99	627.26
375.19	615.56
375.38	622.58
375.58	718.54
375.78	669.39
375.97	667.05
376.17	706.84
376.37	603.86
376.56	638.97
376.76	713.86
376.95	725.57
377.15	709.18
377.35	725.57
377.54	655.35
377.74	674.07
377.93	653.01
378.13	678.76
378.33	697.48
378.52	704.50
378.72	730.25
378.91	681.10
379.11	676.41
379.31	723.23
379.50	718.54
379.70	758.33
379.89	753.65
380.09	737.27
380.28	755.99
380.48	636.63
380.68	678.76
380.87	744.29
381.07	718.54
381.26	814.51
381.46	709.18
381.65	753.65
381.85	716.20
382.04	793.44
382.24	716.20
382.43	732.59
382.63	856.64
382.83	655.35
383.02	772.38
383.22	875.36
383.41	781.74
383.61	854.30
383.80	823.87
384.00	746.63
384.19	793.44
384.39	805.14
384.58	770.04
384.78	856.64
384.97	849.61
385.17	779.40
385.36	971.32
385.56	884.72
385.75	826.21
385.95	800.46
386.14	814.51
386.34	770.04
386.53	898.77
386.72	847.27
386.92	940.90
387.11	851.96
387.31	884.72
387.50	786.42
387.70	842.59
387.89	931.53
388.09	894.08
388.28	919.83
388.48	837.91
388.67	954.94
388.86	908.13
389.06	873.02
389.25	833.23
389.45	880.04
389.64	966.64
389.84	976.00
390.03	983.02
390.22	917.49
390.42	943.24
390.61	1011.11
390.81	1001.75
391.00	971.32
391.19	1020.47
391.39	983.02
391.58	999.41
391.78	992.39
391.97	1015.79
392.16	997.07
392.36	1069.62
392.55	1090.69
392.75	926.85
392.94	1121.12
393.13	1121.12
393.33	1078.99
393.52	1018.13
393.71	1114.10
393.91	1121.12
394.10	1076.65
394.29	1118.78
394.49	1022.81
394.68	1109.41
394.88	1093.03
395.07	1142.18
395.26	1118.78
395.46	1163.25
395.65	1245.16
395.84	1233.46
396.04	1282.61
396.23	1137.50
396.42	1224.10
396.62	1252.19
396.81	1149.20
397.00	1181.97
397.19	1203.04
397.39	1238.14
397.58	1263.89
397.77	1310.70
397.97	1261.55
398.16	1329.42
398.35	1289.64
398.55	1219.42
398.74	1268.57
398.93	1373.89
399.12	1299.00
399.32	1266.23
399.51	1385.60
399.70	1301.34
399.90	1301.34
400.09	1446.45
400.28	1404.32
400.47	1289.64
400.67	1406.66
400.86	1348.15
401.05	1404.32
401.24	1437.09
401.44	1420.71
401.63	1446.45
401.82	1439.43
402.01	1439.43
402.21	1521.35
402.40	1497.94
402.59	1530.71
402.78	1418.36
402.97	1481.56
403.17	1530.71
403.36	1535.39
403.55	1465.18
403.74	1575.18
403.93	1654.76
404.13	1593.90
404.32	1614.97
404.51	1568.16
404.70	1654.76
404.89	1666.46
405.09	1657.10
405.28	1614.97
405.47	1699.23
405.66	1671.14
405.85	1729.66
406.05	1624.33
406.24	1746.04
406.43	1650.08
406.62	1856.04
406.81	1685.19
407.00	1809.23
407.20	1750.72
407.39	1729.66
407.58	1837.32
407.77	1811.57
407.96	1830.30
408.15	1874.77
408.34	1783.49
408.54	1935.62
408.73	1905.20
408.92	1900.52
409.11	2001.16
409.30	2022.22
409.49	1937.96
409.68	2036.27
409.87	2008.18
410.07	2017.54
410.26	2043.29
410.45	2059.67
410.64	2087.76
410.83	2136.91
411.02	2062.01
411.21	2190.74
411.40	2172.02
411.59	2188.40
411.78	2188.40
411.98	2256.28
412.17	2242.23
412.36	2207.13
412.55	2204.78
412.74	2331.17
412.93	2342.88
413.12	2389.69
413.31	2518.42
413.50	2462.24
413.69	2335.85
413.88	2436.50
414.07	2480.97
414.26	2539.48
414.45	2525.44
414.64	2551.18
414.83	2497.35
415.02	2621.40
415.22	2623.74
415.41	2621.40
415.60	2619.06
415.79	2686.94
415.98	2686.94
416.17	2665.87
416.36	2658.85
416.55	2654.17
416.74	2832.05
416.93	2738.43
417.12	2743.11
417.31	2808.64
417.50	2860.13
417.69	2892.90
417.88	2925.67
418.07	3016.95
418.26	2958.44
418.45	2963.12
418.64	2972.48
418.83	3145.68
419.02	3019.29
419.21	3063.76
419.39	3185.47
419.58	3094.19
419.77	3117.59
419.96	3112.91
420.15	3028.65
420.34	3218.24
420.53	3131.64
420.72	3185.47
420.91	3162.06
421.10	3276.75
421.29	3112.91
421.48	3316.54
421.67	3276.75
421.86	3297.81
422.05	3276.75
422.24	3272.07
422.43	3363.35
422.61	3368.03
422.80	3419.52
422.99	3351.65
423.18	3393.78
423.37	3414.84
423.56	3410.16
423.75	3384.41
423.94	3307.18
424.13	3258.03
424.32	3192.49
424.50	3349.31
424.69	3459.31
424.88	3557.61
425.07	3510.80
425.26	3344.63
425.45	3403.14
425.64	3431.23
425.83	3503.78
426.01	3435.91
426.20	3637.19
426.39	3382.07
426.58	3463.99
426.77	3426.54
426.96	3435.91
427.15	3508.46
427.33	3602.08
427.52	3583.36
427.71	3559.95
427.90	3588.04
428.09	3559.95
428.28	3562.30
428.46	3698.05
428.65	3662.94
428.84	3590.38
429.03	3712.09
429.22	3651.24
429.40	3733.15
429.59	3756.56
429.78	3646.55
429.97	3618.47
430.16	3815.07
430.34	3866.56
430.53	3948.48
430.72	3864.22
430.91	4007.00
431.10	3803.37
431.28	3983.59
431.47	4018.70
431.66	4016.36
431.85	3988.27
432.03	4021.04
432.22	4098.28
432.41	3957.85
432.60	4018.70
432.79	4053.81
432.97	3992.95
433.16	4119.34
433.35	4124.02
433.54	4056.15
433.72	4208.28
433.91	4152.11
434.10	4264.46
434.28	4131.05
434.47	4224.67
434.66	4238.71
434.85	4292.54
435.03	4428.29
435.22	4238.71
435.41	4334.67
435.59	4355.74
435.78	4269.14
435.97	4400.21
436.16	4374.46
436.34	4418.93
436.53	4526.60
436.72	4538.30
436.90	4299.56
437.09	4519.57
437.28	4243.39
437.46	4334.67
437.65	4507.87
437.84	4643.62
438.02	4503.19
438.21	4575.75
438.40	4521.92
438.58	4774.69
438.77	4821.50
438.96	4596.81
439.14	4760.65
439.33	4620.22
439.52	4957.25
439.70	4884.70
439.89	4936.19
440.08	5027.47
440.26	4985.34
440.45	4964.28
440.63	5020.45
440.82	5057.90
441.01	5107.05
441.19	5179.61
441.38	5242.80
441.57	5359.83
441.75	5383.23
441.94	5481.53
442.12	5376.21
442.31	5376.21
442.50	5416.00
442.68	5399.62
442.87	5551.75
443.05	5528.35
443.24	5556.43
443.43	5467.49
443.61	5474.51
443.80	5619.63
443.98	5357.49
444.17	5373.87
444.35	5561.11
444.54	5706.23
444.73	5455.79
444.91	5462.81
445.10	5645.37
445.28	5678.14
445.47	5518.98
445.65	5579.84
445.84	5724.95
446.02	5689.84
446.21	5497.92
446.39	5699.20
446.58	5849.00
446.77	5521.32
446.95	5565.79
447.14	5729.63
447.32	5841.98
447.51	5647.71
447.69	5511.96
447.88	5746.02
448.06	5771.76
448.25	5507.28
448.43	5748.36
448.62	5675.80
448.80	5736.65
448.99	5930.92
449.17	5935.60
449.36	5771.76
449.54	5884.11
449.73	5907.51
449.91	6036.24
450.10	6043.26
450.28	6005.81
450.46	6113.48
450.65	5980.07
450.83	6003.47
451.02	6141.57
451.20	6038.58
451.39	6157.95
451.57	6162.63
451.76	5959.00
451.94	6113.48
452.13	6078.37
452.31	6251.57
452.49	6195.40
452.68	6282.00
452.86	6284.34
453.05	6237.53
453.23	6384.98
453.42	6195.40
453.60	6328.81
453.78	6415.41
453.97	6291.36
454.15	6361.58
454.34	6480.94
454.52	6551.16
454.70	6478.60
454.89	6502.01
455.07	6600.31
455.26	6483.28
455.44	6619.04
455.62	6679.89
455.81	6637.76
455.99	6623.72
456.17	6764.15
456.36	6539.46
456.54	6855.43
456.73	6881.18
456.91	7049.69
457.09	6944.37
457.28	7052.03
457.46	6825.00
457.64	7056.72
457.83	7096.50
458.01	7103.53
458.19	7030.97
458.38	7030.97
458.56	7037.99
458.74	7009.90
458.93	7129.27
459.11	7185.44
459.29	7000.54
459.48	7286.09
459.66	7351.62
459.84	7185.44
460.03	7470.99
460.21	7204.17
460.39	7302.47
460.57	7368.01
460.76	7618.44
460.94	7428.86
461.12	7421.84
461.31	7290.77
461.49	7548.23
461.67	7550.57
461.85	7691.00
462.04	7520.14
462.22	7845.48
462.40	7735.47
462.59	7576.31
462.77	7772.92
462.95	7742.49
463.13	7850.16
463.32	7887.61
463.50	7868.88
463.68	7857.18
463.86	8011.65
464.05	7770.58
464.23	7838.45
464.41	7885.26
464.59	7527.16
464.78	8037.40
464.96	7875.90
465.14	7962.50
465.32	7960.16
465.50	7946.12
465.69	8163.79
465.87	8259.75
466.05	8166.13
466.23	8077.19
466.41	8042.08
466.60	8191.88
466.78	8135.70
466.96	8088.89
467.14	8114.64
467.32	8257.41
467.51	8395.50
467.69	7978.89
467.87	8170.81
468.05	8322.94
468.23	8311.24
468.41	8292.52
468.60	8322.94
468.78	8461.04
468.96	8477.42
469.14	8294.86
469.32	8549.98
469.50	8421.25
469.69	8505.51
469.87	8652.96
470.05	8760.63
470.23	8889.35
470.41	8746.58
470.59	8777.01
470.77	8643.60
470.95	8765.31
471.14	8894.04
471.32	8765.31
471.50	9043.83
471.68	9090.64
471.86	9081.28
472.04	9013.40
472.22	9369.16
472.40	9193.62
472.58	9275.54
472.77	9263.84
472.95	9294.27
473.13	9542.36
473.31	9362.14
473.49	9263.84
473.67	9273.20
473.85	9483.85
474.03	9720.24
474.21	9776.42
474.39	9650.03
474.57	9764.72
474.75	9760.03
474.93	10118.14
475.12	9933.23
475.30	10073.67
475.48	9767.06
475.66	10155.58
475.84	10043.24
476.02	10157.92
476.20	9963.66
476.38	10413.04
476.56	10298.36
476.74	10455.17
476.92	10504.32
477.10	10438.79
477.28	10703.27
477.46	10729.02
477.64	10729.02
477.82	10920.94
478.00	11162.01
478.18	10944.34
478.36	10995.84
478.54	11129.25
478.72	11344.58
478.90	11253.30
479.08	11377.34
479.26	11641.82
479.44	11742.47
479.62	11831.41
479.80	11716.72
479.98	11992.90
480.16	12135.68
480.34	12070.14
480.52	12159.08
480.70	12351.01
480.88	12283.13
481.06	12257.39
481.24	12322.92
481.41	12491.44
481.59	12650.60
481.77	12681.02
481.95	12903.37
482.13	12795.71
482.31	12856.56
482.49	13383.18
482.67	13022.74
482.85	13432.33
483.03	13256.79
483.21	13455.74
483.39	13771.71
483.57	13593.83
483.74	13764.69
483.92	14019.81
484.10	13900.44
484.28	14181.31
484.46	14197.69
484.64	14551.11
484.82	14382.59
485.00	14686.86
485.18	14778.14
485.35	15047.30
485.53	14916.23
485.71	15009.86
485.89	15297.74
486.07	15166.67
486.25	15389.02
486.43	15428.81
486.61	15674.57
486.78	15679.25
486.96	15976.50
487.14	15999.90
487.32	16004.58
487.50	16236.30
487.68	16243.32
487.85	16526.52
488.03	16596.74
488.21	16517.16
488.39	16779.30
488.57	16910.37
488.75	16985.27
488.92	17348.05
489.10	17207.62
489.28	17549.34
489.46	17734.24
489.64	17858.29
489.81	18031.49
489.99	17954.25
490.17	18005.74
490.35	18225.75
490.53	18478.53
490.70	18672.79
490.88	18499.59
491.06	18785.14
491.24	18925.57
491.41	19000.47
491.59	19033.24
491.77	19049.62
491.95	19243.88
492.13	19482.62
492.30	19714.33
492.48	19716.67
492.66	19569.22
492.84	19625.39
493.01	19866.47
493.19	19875.83
493.37	20554.58
493.54	20491.39
493.72	20505.43
493.90	20102.86
494.08	20552.24
494.25	20908.01
494.43	20327.55
494.61	21151.42
494.79	21069.50
494.96	21191.21
495.14	21090.57
495.32	21432.29
495.49	21371.43
495.67	21656.98
495.85	21851.24
496.02	21664.00
496.20	22291.26
496.38	21979.97
496.55	22017.42
496.73	22754.69
496.91	22693.83
497.09	22927.89
497.26	23012.15
497.44	22396.59
497.62	22960.66
497.79	23016.83
497.97	23365.57
498.14	23271.95
498.32	23363.23
498.50	23789.20
498.67	23798.57
498.85	23840.70
499.03	23913.25
499.20	23653.45
499.38	24156.67
499.56	24505.41
499.73	24592.01
499.91	24364.98
500.08	24301.78
500.26	24315.83
500.44	24898.62
500.61	24489.03
500.79	24624.78
500.97	25003.94
501.14	25111.61
501.32	25144.38
501.49	25076.50
501.67	25305.87
501.84	25647.59
502.02	25289.49
502.20	25198.21
502.37	25275.45
502.55	25380.77
502.72	25701.42
502.90	25996.33
503.07	25549.29
503.25	25921.43
503.43	25813.77
503.60	26146.12
503.78	26345.07
503.95	26190.59
504.13	26450.39
504.30	26281.88
504.48	26089.95
504.65	26705.51
504.83	26904.46
505.01	27147.87
505.18	26806.16
505.36	27527.04
505.53	27168.94
505.71	27129.15
505.88	27204.05
506.06	26843.60
506.23	27281.28
506.41	27520.02
506.58	27730.67
506.76	27672.15
506.93	27779.82
507.11	27761.09
507.28	27878.12
507.46	28051.32
507.63	28184.73
507.81	27969.40
507.98	28123.88
508.16	28371.97
508.33	28404.74
508.50	28833.06
508.68	28671.56
508.85	28769.86
509.03	28709.01
509.20	28889.23
509.38	28947.75
509.55	29453.30
509.73	28772.21
509.90	29326.91
510.08	29249.67
510.25	28945.41
510.42	29371.38
510.60	29432.24
510.77	29413.51
510.95	30015.03
511.12	29731.83
511.30	29600.76
511.47	29647.57
511.64	30017.37
511.82	30052.48
511.99	30103.97
512.17	30490.16
512.34	30469.09
512.51	30424.62
512.69	30874.01
512.86	30597.82
513.04	30581.44
513.21	30822.51
513.38	31028.48
513.56	30859.96
513.73	30588.46
513.90	30817.83
514.08	31157.21
514.25	31330.41
514.43	31522.34
514.60	31622.98
514.77	31538.72
514.95	31445.10
515.12	31449.78
515.29	31295.30
515.47	32114.49
515.64	32030.23
515.81	31761.07
515.99	32006.83
516.16	32011.51
516.33	32140.24
516.51	32210.45
516.68	32311.10
516.85	32095.77
517.03	32418.76
517.20	32084.06
517.37	32376.63
517.54	32507.70
517.72	32732.39
517.89	33031.98
518.06	32456.21
518.24	32519.40
518.41	32638.77
518.58	32755.80
518.75	32650.47
518.93	33008.58
519.10	32882.19
519.27	33120.92
519.45	33111.56
519.62	33563.28
519.79	33736.48
519.96	33486.04
520.14	33464.98
520.31	33439.23
520.48	33689.67
520.65	33888.62
520.83	34204.59
521.00	34618.86
521.17	34038.41
521.34	34141.39
521.52	34429.28
521.69	34279.49
521.86	34258.42
522.03	34604.82
522.20	34983.99
522.38	34642.27
522.55	34974.63
522.72	34775.68
522.89	34813.13
523.07	35220.38
523.24	34733.55
523.41	34885.68
523.58	34560.35
523.75	35232.08
523.92	35016.75
524.10	34878.66
524.27	35285.92
524.44	35126.76
524.61	35496.56
524.78	35543.38
524.96	35967.01
525.13	35807.86
525.30	35711.89
525.47	36299.37
525.64	35936.59
525.81	36051.27
525.98	35732.96
526.16	36252.56
526.33	35693.17
526.50	36547.47
526.67	36493.63
526.84	36369.58
527.01	36776.84
527.18	36371.92
527.36	36261.92
527.53	36748.75
527.70	36624.70
527.87	36996.85
528.04	36877.48
528.21	36779.18
528.38	36898.55
528.55	37053.02
528.72	37216.86
528.89	37027.28
529.07	36680.88
529.24	37099.83
529.41	37537.51
529.58	37104.51
529.75	37500.06
529.92	37258.99
530.09	37113.87
530.26	37242.60
530.43	37603.05
530.60	37156.00
530.77	37504.74
530.94	37724.75
531.11	37560.92
531.28	37563.26
531.46	37727.10
531.63	37670.92
531.80	38033.71
531.97	38260.74
532.14	38309.89
532.31	37928.38
532.48	38768.63
532.65	38490.11
532.82	37979.87
532.99	38040.73
533.16	38342.66
533.33	38604.80
533.50	38497.13
533.67	38291.16
533.84	38689.06
534.01	38838.85
534.18	38644.59
534.35	38918.43
534.52	38794.38
534.69	39147.80
534.86	38852.89
535.03	38831.83
535.20	39161.84
535.37	39264.83
535.54	39100.99
535.71	39044.82
535.88	39091.63
536.05	39732.93
536.22	39667.40
536.38	39276.53
536.55	39180.57
536.72	39779.74
536.89	38951.20
537.06	39536.33
537.23	40055.93
537.40	39264.83
537.57	39583.14
537.74	39318.66
537.91	39917.84
538.08	39896.77
538.25	39667.40
538.42	39934.22
538.59	40072.31
538.75	39786.77
538.92	40191.68
539.09	40184.66
539.26	40147.21
539.43	40212.74
539.60	40170.61
539.77	40451.48
539.94	40690.21
540.11	40360.20
540.28	40289.98
540.44	40542.76
540.61	40364.88
540.78	40325.09
540.95	40287.64
541.12	40662.13
541.29	40407.01
541.46	40444.46
541.62	40821.28
541.79	41034.27
541.96	40437.44
542.13	40535.74
542.30	41303.43
542.47	41109.17
542.63	41113.85
542.80	41024.91
542.97	41560.89
543.14	41785.58
543.31	41151.30
543.48	41921.34
543.64	41841.76
543.81	42068.79
543.98	41972.83
544.15	41448.55
544.32	41553.87
544.48	42029.00
544.65	42300.50
544.82	42417.53
544.99	41350.24
545.16	42429.23
545.32	41989.21
545.49	42284.12
545.66	42384.76
545.83	42607.11
546.00	42319.23
546.16	41738.77
546.33	42153.05
546.50	41975.17
546.67	42518.17
546.83	42080.49
547.00	42171.77
547.17	42300.50
547.34	42368.38
547.50	42326.25
547.67	43000.32
547.84	42766.27
548.00	42920.74
548.17	43143.09
548.34	43227.35
548.51	42850.53
548.67	42866.91
548.84	43007.34
549.01	42768.61
549.18	42649.24
549.34	43203.95
549.51	43456.73
549.68	43063.52
549.84	42911.38
550.01	43044.79
550.18	43051.81
550.34	43161.82
550.51	43629.93
550.68	43346.72
550.84	42850.53
551.01	43681.42
551.18	43496.52
551.34	43690.78
551.51	43613.54
551.68	43496.52
551.84	43505.88
552.01	43313.95
552.18	43463.75
552.34	43480.13
552.51	43599.50
552.68	43599.50
552.84	43880.36
553.01	44467.84
553.18	43594.82
553.34	43564.39
553.51	43892.07
553.67	43779.72
553.84	44194.00
554.01	44215.06
554.17	43906.11
554.34	44397.62
554.51	43978.67
554.67	44584.86
554.84	44437.41
555.00	44334.43
555.17	43999.73
555.33	44388.26
555.50	44612.95
555.67	44378.90
555.83	44278.25
556.00	44453.79
556.16	45132.55
556.33	44596.57
556.50	44746.36
556.66	44650.40
556.83	44339.11
556.99	45067.02
557.16	45003.82
557.32	44774.45
557.49	44727.64
557.65	44751.04
557.82	44512.31
557.98	44839.98
558.15	44767.43
558.32	44776.79
558.48	44708.91
558.65	44989.78
558.81	44313.36
558.98	44921.90
559.14	44863.39
559.31	44547.42
559.47	44605.93
559.64	45195.74
559.80	44978.07
559.97	44905.52
560.13	44650.40
560.30	44982.76
560.46	45488.31
560.63	45170.00
560.79	45457.88
560.96	45628.74
561.12	45670.87
561.29	45420.44
561.45	45130.21
561.61	45249.58
561.78	45013.18
561.94	44992.12
562.11	45336.18
562.27	45446.18
562.44	45668.53
562.60	45736.41
562.77	45378.31
562.93	45256.60
563.10	45991.53
563.26	45778.54
563.42	46087.49
563.59	45893.22
563.75	45495.33
563.92	45116.17
564.08	45434.48
564.24	45682.58
564.41	45759.81
564.57	45794.92
564.74	46071.10
564.90	45471.93
565.07	45055.31
565.23	45818.33
565.39	46057.06
565.56	46211.54
565.72	46064.08
565.88	45937.69
566.05	45930.67
566.21	45705.98
566.38	45790.24
566.54	46073.45
566.70	45811.31
566.87	45743.43
567.03	45958.76
567.19	46171.75
567.36	45696.62
567.52	46218.56
567.68	46436.23
567.85	46031.32
568.01	46162.39
568.17	45916.63
568.34	46169.41
568.50	45982.16
568.66	46075.79
568.83	45785.56
568.99	46562.62
569.15	46277.07
569.32	46012.59
569.48	45858.12
569.64	46600.07
569.81	46094.51
569.97	46274.73
570.13	46403.46
570.30	46403.46
570.46	46548.57
570.62	46438.57
570.78	46724.11
570.95	45890.88
571.11	46590.70
571.27	46244.30
571.43	46284.09
571.60	46358.99
571.76	46021.95
571.92	46286.43
572.09	46183.45
572.25	46309.84
572.41	46117.92
572.57	46522.83
572.74	47037.75
572.90	46497.08
573.06	46635.17
573.22	46543.89
573.38	46485.38
573.55	46586.02
573.71	46948.81
573.87	46564.96
574.03	46733.48
574.20	46850.50
574.36	46586.02
574.52	46663.26
574.68	46815.40
574.84	46663.26
575.01	46822.42
575.17	47131.37
575.33	46562.62
575.49	46440.91
575.65	47164.14
575.82	46518.15
575.98	46703.05
576.14	46782.63
576.30	47021.36
576.46	46670.28
576.62	46698.37
576.79	46590.70
576.95	46602.41
577.11	46555.60
577.27	46433.89
577.43	46693.69
577.59	46700.71
577.75	46623.47
577.92	46279.41
578.08	46822.42
578.24	46990.94
578.40	46852.84
578.56	47330.31
578.72	46609.43
578.88	46859.87
579.04	46876.25
579.21	46892.63
579.37	47201.58
579.53	46672.62
579.69	46246.65
579.85	46717.09
580.01	46754.54
580.17	46532.19
580.33	46817.74
580.49	46960.51
580.65	47304.57
580.82	46824.76
580.98	46501.76
581.14	47100.94
581.30	47105.62
581.46	46602.41
581.62	46946.47
581.78	46459.63
581.94	47182.86
582.10	46918.38
582.26	47161.79
582.42	46951.15
582.58	46918.38
582.74	46960.51
582.90	47105.62
583.06	47257.76
583.22	46644.54
583.38	46658.58
583.54	46932.42
583.70	47220.31
583.86	46962.85
584.02	46780.29
584.18	47215.63
584.34	47103.28
584.50	47285.84
584.66	47428.62
584.82	47140.73
584.98	47365.42
585.14	46993.28
585.30	47143.07
585.46	46981.57
585.62	46953.49
585.78	47316.27
585.94	46941.78
586.10	47072.85
586.26	46869.23
586.42	46953.49
586.58	47316.27
586.74	46974.55
586.90	46691.35
587.06	47449.68
587.22	47009.66
587.38	46665.60
587.54	47051.79
587.70	47379.46
587.86	46878.59
588.02	47068.17
588.18	46841.14
588.34	47295.21
588.49	47309.25
588.65	47159.45
588.81	47248.39
588.97	47210.95
589.13	47381.80
589.29	47114.98
589.45	47540.96
589.61	47423.93
589.77	47166.48
589.93	47192.22
590.08	47557.35
590.24	47356.06
590.40	47854.59
590.56	48062.90
590.72	47704.80
590.88	47229.67
591.04	47459.04
591.20	47688.42
591.35	47386.49
591.51	48142.48
591.67	47660.33
591.83	48098.01
591.99	47421.59
592.15	47285.84
592.31	47000.30
592.46	46621.13
592.62	47550.32
592.78	47796.08
592.94	47821.83
593.10	47892.04
593.26	48114.39
593.41	47592.45
593.57	47826.51
593.73	47744.59
593.89	48126.10
594.05	47997.37
594.20	47854.59
594.36	47885.02
594.52	48280.57
594.68	48027.79
594.84	47838.21
594.99	47854.59
595.15	47512.88
595.31	47641.60
595.47	47723.52
595.62	47482.45
595.78	47711.82
595.94	48088.65
596.10	47978.64
596.25	48039.50
596.41	47927.15
596.57	47452.02
596.73	48004.39
596.88	47517.56
597.04	47657.99
597.20	48081.63
597.36	48039.50
597.51	47697.78
597.67	47576.07
597.83	48041.84
597.99	48179.93
598.14	47491.81
598.30	47683.73
598.46	47854.59
598.61	48177.59
598.77	48432.71
598.93	48025.45
599.09	48238.44
599.24	48058.22
599.40	48016.09
599.56	48046.52
599.71	48350.79
599.87	48650.38
600.03	48250.14
600.18	48376.53
600.34	48046.52
600.50	48044.18
600.65	47716.50
600.81	48367.17
600.97	48210.35
601.12	48023.11
601.28	48018.43
601.44	47901.40
601.59	47800.76
601.75	47831.19
601.91	48598.88
602.06	47765.65
602.22	48339.08
602.37	47777.36
602.53	47859.27
602.69	48196.31
602.84	47503.51
603.00	48254.82
603.16	48034.81
603.31	47859.27
603.47	48079.28
603.62	47873.32
603.78	48032.47
603.94	48456.11
604.09	47922.47
604.25	47690.76
604.40	48273.55
604.56	47746.93
604.71	48280.57
604.87	47957.58
605.03	47742.25
605.18	47917.79
605.34	48259.51
605.49	47510.53
605.65	48095.67
605.80	47875.66
605.96	47807.78
606.12	48217.38
606.27	48093.33
606.43	47585.43
606.58	48168.22
606.74	47702.46
606.89	47557.35
607.05	48339.08
607.20	47992.68
607.36	47840.55
607.51	47709.48
607.67	47838.21
607.82	47730.54
607.98	47604.16
608.13	47784.38
608.29	47775.02
608.44	47887.36
608.60	47690.76
608.75	47543.30
608.91	47789.06
609.06	47334.99
609.22	47583.09
609.37	47487.13
609.53	47800.76
609.68	47824.17
609.84	47398.19
609.99	47547.98
610.15	47550.32
610.30	47629.90
610.46	47660.33
610.61	47421.59
610.76	47950.56
610.92	47622.88
611.07	47611.18
611.23	47494.15
611.38	47510.53
611.54	47564.37
611.69	47735.23
611.84	47906.08
612.00	47334.99
612.15	47367.76
612.31	47852.25
612.46	46951.15
612.62	47379.46
612.77	47215.63
612.92	47480.11
613.08	47433.30
613.23	47386.49
613.39	47161.79
613.54	47187.54
613.69	47613.52
613.85	47618.20
614.00	47784.38
614.15	47803.10
614.31	47040.09
614.46	47365.42
614.62	46953.49
614.77	47449.68
614.92	47388.83
615.08	47709.48
615.23	47016.68
615.38	47269.46
615.54	47229.67
615.69	47377.12
615.84	47143.07
616.00	47519.90
616.15	46834.12
616.30	47164.14
616.46	47206.26
616.61	46925.40
616.76	47224.99
616.92	46742.84
617.07	47239.03
617.22	47407.55
617.37	46370.69
617.53	47007.32
617.68	47260.10
617.83	47262.44
617.99	46930.08
618.14	47194.56
618.29	47194.56
618.45	46567.30
618.60	46391.76
618.75	46553.26
618.90	46848.16
619.06	46960.51
619.21	46646.88
619.36	47033.07
619.51	46616.45
619.67	46513.47
619.82	46822.42
619.97	46660.92
620.12	46705.39
620.28	46508.79
620.43	47213.29
620.58	46712.41
620.73	46604.75
620.89	46632.83
621.04	46742.84
621.19	47000.30
621.34	46471.34
621.49	46457.29
621.65	46588.36
621.80	46796.67
621.95	46309.84
622.10	46534.53
622.25	46515.81
622.41	46560.28
622.56	46321.54
622.71	46625.81
622.86	46522.83
623.01	46401.12
623.16	46028.98
623.32	46078.13
623.47	45963.44
623.62	46611.77
623.77	46450.27
623.92	46422.19
624.07	46150.68
624.23	46141.32
624.38	46218.56
624.53	46239.62
624.68	46010.25
624.83	45998.55
624.98	46169.41
625.13	45968.12
625.29	45762.15
625.44	46258.35
625.59	45656.83
625.74	46160.05
625.89	45546.82
626.04	45869.82
626.19	45890.88
626.34	45495.33
626.49	45212.13
626.65	45200.43
626.80	45579.59
626.95	45553.85
627.10	45624.06
627.25	45696.62
627.40	45305.75
627.55	45394.69
627.70	45469.59
627.85	45888.54
628.00	45572.57
628.15	45574.91
628.30	44584.86
628.45	45027.23
628.60	45177.02
628.76	45380.65
628.91	45544.48
629.06	45041.27
629.21	44886.79
629.36	44903.18
629.51	44961.69
629.66	45322.13
629.81	45237.87
629.96	45364.26
630.11	45076.38
630.26	45031.91
630.41	45174.68
630.56	45062.33
630.71	45223.83
630.86	44973.39
631.01	44500.61
631.16	44502.95
631.31	44715.93
631.46	44690.19
631.61	45329.16
631.76	45216.81
631.91	45184.04
632.06	45120.85
632.21	45144.25
632.36	45312.77
632.51	44219.74
632.66	44610.61
632.81	44280.60
632.96	44664.44
633.10	44364.85
633.25	44687.85
633.40	44804.88
633.55	44687.85
633.70	44854.03
633.85	44524.01
634.00	44545.08
634.15	44685.51
634.30	44978.07
634.45	44364.85
634.60	44713.59
634.75	44612.95
634.90	44215.06
635.05	44676.15
635.19	44201.02
635.34	44418.69
635.49	44172.93
635.64	44357.83
635.79	44737.00
635.94	44603.59
636.09	44177.61
636.24	43917.81
636.39	43859.30
636.53	44531.03
636.68	44055.90
636.83	43871.00
636.98	43597.16
637.13	43442.68
637.28	43395.87
637.43	43955.26
637.57	43821.85
637.72	43540.99
637.87	43564.39
638.02	44226.76
638.17	43681.42
638.32	43917.81
638.46	43835.89
638.61	43590.14
638.76	43395.87
638.91	43892.07
639.06	43800.79
639.20	43260.12
639.35	43503.54
639.50	43643.97
639.65	43578.43
639.80	43739.93
639.94	43599.50
640.09	43718.87
640.24	43540.99
640.39	43316.29
640.54	43241.40
640.68	43482.47
640.83	43552.69
640.98	43370.13
641.13	43239.06
641.27	43660.35
641.42	43379.49
641.57	43019.05
641.72	43210.97
641.86	43124.37
642.01	43335.02
642.16	43098.62
642.31	42810.74
642.45	43576.09
642.60	43044.79
642.75	42862.23
642.90	43768.02
643.04	43147.78
643.19	42932.45
643.34	42850.53
643.48	42632.86
643.63	42803.72
643.78	42904.36
643.93	43189.91
644.07	43330.34
644.22	42815.42
644.37	42859.89
644.51	42878.61
644.66	42506.47
644.81	42600.09
644.95	42632.86
645.10	42621.16
645.25	42651.58
645.39	42227.95
645.54	42635.20
645.69	42120.28
645.83	42366.04
645.98	42450.30
646.13	42195.18
646.27	42857.55
646.42	42518.17
646.57	42539.24
646.71	42473.70
646.86	42712.44
647.00	42188.16
647.15	42529.87
647.30	42543.92
647.44	42136.66
647.59	42270.08
647.74	42073.47
647.88	42504.13
648.03	42749.88
648.17	42724.14
648.32	42040.70
648.47	42382.42
648.61	42094.53
648.76	42251.35
648.90	42089.85
649.05	42050.06
649.20	41977.51
649.34	42183.48
649.49	42279.44
649.63	42054.75
649.78	42071.13
649.92	41738.77
650.07	42476.04
650.21	41970.49
650.36	42099.22
650.51	42216.24
650.65	42368.38
650.80	41813.67
650.94	42014.96
651.09	41691.96
651.23	41195.77
651.38	41748.14
651.52	41696.64
651.67	41535.15
651.81	41387.69
651.96	41696.64
652.10	41647.49
652.25	41394.71
652.39	41462.59
652.54	41436.84
652.68	41207.47
652.83	41467.27
652.97	41415.78
653.12	41436.84
653.26	41226.20
653.41	41240.24
653.55	41418.12
653.70	41933.04
653.84	41635.79
653.99	41792.61
654.13	41148.96
654.27	40699.58
654.42	40903.20
654.56	41762.18
654.71	41280.03
654.85	41022.57
655.00	41284.71
655.14	41394.71
655.29	41287.05
655.43	41638.13
655.57	40961.72
655.72	41120.87
655.86	40655.11
656.01	40711.28
656.15	40683.19
656.30	40711.28
656.44	40886.82
656.58	40896.18
656.73	41202.79
656.87	40603.61
657.01	40215.08
657.16	40837.67
657.30	40912.56
657.45	40421.05
657.59	40449.14
657.73	40130.83
657.88	40458.50
658.02	40624.68
658.16	40498.29
658.31	40804.90
658.45	40837.67
658.60	40603.61
658.74	40657.45
658.88	40418.71
659.03	39856.98
659.17	40215.08
659.31	40062.95
659.46	40023.16
659.60	40208.06
659.74	39784.43
659.89	39400.58
660.03	39665.06
660.17	39936.56
660.32	39786.77
660.46	39955.29
660.60	39367.81
660.74	39861.66
660.89	39807.83
661.03	39559.73
661.17	39648.68
661.32	39290.57
661.46	39618.25
661.60	39489.52
661.74	39276.53
661.89	39625.27
662.03	39702.51
662.17	39189.93
662.31	39164.18
662.46	39049.50
662.60	38696.08
662.74	38576.71
662.88	38761.61
663.03	38899.70
663.17	38546.28
663.31	38504.15
663.45	38803.74
663.60	38955.88
663.74	38628.20
663.88	38361.38
664.02	38817.78
664.17	38990.98
664.31	38513.52
664.45	38419.89
664.59	38557.99
664.73	38417.55
664.88	38094.56
665.02	37720.07
665.16	38059.45
665.30	38146.05
665.44	37841.78
665.59	37762.20
665.73	37752.84
665.87	37347.93
666.01	37890.93
666.15	37731.78
666.29	37727.10
666.44	37589.00
666.58	37834.76
666.72	37612.41
666.86	37338.57
667.00	37720.07
667.14	37504.74
667.28	37462.61
667.43	37036.64
667.57	37607.73
667.71	37532.83
667.85	37240.26
667.99	37156.00
668.13	37041.32
668.27	36472.57
668.41	36788.54
668.56	36261.92
668.70	36231.49
668.84	36282.98
668.98	36531.08
669.12	36219.79
669.26	36498.31
669.40	36479.59
669.54	36091.06
669.68	36549.81
669.82	36559.17
669.96	36074.68
670.10	35791.47
670.25	35597.21
670.39	35819.56
670.53	35859.35
670.67	35749.34
670.81	35964.67
670.95	35763.39
671.09	35765.73
671.23	35414.65
671.37	35812.54
671.51	34939.52
671.65	35524.65
671.79	35220.38
671.93	35213.36
672.07	35573.80
672.21	35227.40
672.35	34974.63
672.49	34843.56
672.63	34810.79
672.77	34995.69
672.91	35047.18
673.05	34944.20
673.19	34726.53
673.33	34389.49
673.47	34185.86
673.61	34471.41
673.75	34029.05
673.89	34237.36
674.03	34106.29
674.17	33507.11
674.31	33780.95
674.45	33956.49
674.59	33872.23
674.73	34000.96
674.87	33228.59
675.01	33448.60
675.15	32753.46
675.29	32830.69
675.43	33186.46
675.56	33448.60
675.70	33338.59
675.84	32704.31
675.98	32222.16
676.12	32622.39
676.26	33139.65
676.40	32718.35
676.54	32301.73
676.68	32582.60
676.82	32020.87
676.96	32559.19
677.10	32697.28
677.23	32224.50
677.37	32098.11
677.51	31828.95
677.65	31992.78
677.79	31480.21
677.93	31864.05
678.07	31637.02
678.21	31344.45
678.34	31028.48
678.48	31229.77
678.62	31227.43
678.76	31424.03
678.90	31150.19
679.04	30883.37
679.18	31454.46
679.31	30576.76
679.45	30675.06
679.59	30408.24
679.73	30586.12
679.87	30099.29
680.00	30281.85
680.14	29734.17
680.28	30047.80
680.42	30024.39
680.56	30059.50
680.70	29773.95
680.83	29298.83
680.97	29479.05
681.11	29432.24
681.25	29317.55
681.39	29165.42
681.52	29443.94
681.66	28898.59
681.80	28900.94
681.94	28755.82
682.07	28629.43
682.21	28456.23
682.35	28320.48
682.49	28617.73
682.62	28671.56
682.76	28790.93
682.90	28428.15
683.04	28336.87
683.17	28215.16
683.31	27721.30
683.45	27772.80
683.59	27875.78
683.72	27508.32
683.86	27903.87
684.00	27405.33
684.13	27908.55
684.27	27211.07
684.41	26822.54
684.55	27157.24
684.68	27054.25
684.82	26469.12
684.96	26721.90
685.09	26714.87
685.23	26724.24
685.37	26895.10
685.50	26497.20
685.64	26373.16
685.78	26307.62
685.91	26120.38
686.05	26050.16
686.19	25619.50
686.32	25724.83
686.46	25785.68
686.60	25399.49
686.73	25773.98
686.87	25378.43
687.01	25596.10
687.14	25486.09
687.28	25570.35
687.42	24833.08
687.55	24526.47
687.69	24884.58
687.82	24627.12
687.96	24812.02
688.10	24982.88
688.23	24737.12
688.37	24978.20
688.50	24580.31
688.64	24486.68
688.78	24400.08
688.91	24418.81
689.05	24159.01
689.18	23730.69
689.32	23721.33
689.46	23309.40
689.59	23608.98
689.73	23597.28
689.86	24072.41
690.00	23562.17
690.13	23232.16
690.27	23236.84
690.41	23248.54
690.54	23033.21
690.68	23300.03
690.81	22567.45
690.95	22714.90
691.08	22815.54
691.22	22239.77
691.35	22522.98
691.49	22497.23
691.62	22235.09
691.76	22132.11
691.89	21921.46
692.03	21731.87
692.16	21678.04
692.30	21509.52
692.43	21844.22
692.57	21500.16
692.70	21528.25
692.84	21621.87
692.97	21149.08
693.11	21034.39
693.24	20865.88
693.38	20842.47
693.51	20938.43
693.65	20739.49
693.78	20650.55
693.92	20503.09
694.05	20629.48
694.19	20615.44
694.32	20128.61
694.45	20503.09
694.59	20905.66
694.72	20463.30
694.86	20519.48
694.99	19831.36
695.13	19606.67
695.26	19634.75
695.39	19662.84
695.53	19648.80
695.66	19829.02
695.80	19262.61
695.93	19353.89
696.07	19332.82
696.20	18941.96
696.33	18932.59
696.47	18778.12
696.60	19035.58
696.73	18895.14
696.87	19124.52
697.00	18595.56
697.14	18520.66
697.27	18728.97
697.40	18427.04
697.54	18377.89
697.67	18398.95
697.80	18080.64
697.94	18272.56
698.07	18127.45
698.21	17881.69
698.34	18061.91
698.47	17621.89
698.61	17549.34
698.74	17539.97
698.87	17413.59
699.01	17249.75
699.14	17589.13
699.27	17523.59
699.40	17069.53
699.54	17135.06
699.67	16929.09
699.80	17394.86
699.94	16823.77
700.07	16882.28
700.20	16919.73
700.34	16559.29
700.47	16140.33
700.60	16980.59
700.73	16578.01
700.87	16091.18
701.00	16042.03
701.13	16058.42
701.26	15866.49
701.40	16107.57
701.53	15747.12
701.66	15611.37
701.79	16065.44
701.93	15494.35
702.06	15391.36
702.19	15534.14
702.32	15583.29
702.46	15274.34
702.59	15707.34
702.72	15435.83
702.85	15435.83
702.99	15393.70
703.12	15007.52
703.25	14794.53
703.38	14789.85
703.51	15030.92
703.65	14562.81
703.78	14647.07
703.91	14403.66
704.04	14310.04
704.17	14317.06
704.31	14429.40
704.44	14516.00
704.57	14031.51
704.70	14040.87
704.83	13891.08
704.96	13928.53
705.10	13844.27
705.23	13727.24
>>>>>End Processed Spectral Data<<<<<
