SpectraSuite Data File
++++++++++++++++++++++++++++++++++++
Date: Fri Oct 25 11:33:58 EDT 2013
User: price-jones
Dark Spectrum Present: No
Reference Spectrum Present: No
Number of Sampled Component Spectra: 1
Spectrometers: USB2+H05261
Integration Time (usec): 100000 (USB2+H05261)
Spectra Averaged: 1 (USB2+H05261)
Boxcar Smoothing: 0 (USB2+H05261)
Correct for Electrical Dark: No (USB2+H05261)
Strobe/Lamp Enabled: No (USB2+H05261)
Correct for Detector Non-linearity: No (USB2+H05261)
Correct for Stray Light: No (USB2+H05261)
Number of Pixels in Processed Spectrum: 2048
>>>>>Begin Processed Spectral Data<<<<<
365.73	255.12
365.92	255.12
366.12	255.12
366.32	224.69
366.52	149.79
366.72	210.65
366.91	182.56
367.11	189.58
367.31	149.79
367.51	205.97
367.70	212.99
367.90	182.56
368.10	173.20
368.30	177.88
368.49	227.03
368.69	187.24
368.89	196.60
369.09	217.67
369.28	177.88
369.48	212.99
369.68	205.97
369.87	264.48
370.07	243.42
370.27	262.14
370.47	304.27
370.66	437.68
370.86	510.24
371.06	503.22
371.25	547.69
371.45	564.07
371.65	575.77
371.84	550.03
372.04	526.62
372.24	627.26
372.44	493.85
372.63	580.45
372.83	575.77
373.03	566.41
373.22	620.24
373.42	535.98
373.62	566.41
373.81	624.92
374.01	692.80
374.21	655.35
374.40	653.01
374.60	613.22
374.79	688.12
374.99	622.58
375.19	650.67
375.38	702.16
375.58	613.22
375.78	636.63
375.97	704.50
376.17	739.61
376.37	704.50
376.56	720.88
376.76	720.88
376.95	727.91
377.15	669.39
377.35	711.52
377.54	681.10
377.74	681.10
377.93	681.10
378.13	699.82
378.33	697.48
378.52	716.20
378.72	690.46
378.91	688.12
379.11	692.80
379.31	748.97
379.50	716.20
379.70	821.53
379.89	791.10
380.09	767.70
380.28	709.18
380.48	648.33
380.68	688.12
380.87	746.63
381.07	706.84
381.26	753.65
381.46	755.99
381.65	779.40
381.85	732.59
382.04	704.50
382.24	702.16
382.43	751.31
382.63	856.64
382.83	716.20
383.02	784.08
383.22	849.61
383.41	821.53
383.61	875.36
383.80	821.53
384.00	861.32
384.19	861.32
384.39	730.25
384.58	830.89
384.78	805.14
384.97	870.68
385.17	898.77
385.36	807.48
385.56	807.48
385.75	774.72
385.95	784.08
386.14	830.89
386.34	826.21
386.53	898.77
386.72	772.38
386.92	943.24
387.11	905.79
387.31	931.53
387.50	809.83
387.70	877.70
387.89	842.59
388.09	926.85
388.28	877.70
388.48	858.98
388.67	987.71
388.86	950.26
389.06	983.02
389.25	929.19
389.45	987.71
389.64	992.39
389.84	964.30
390.03	919.83
390.22	973.66
390.42	952.60
390.61	1029.84
390.81	912.81
391.00	978.34
391.19	980.68
391.39	1055.58
391.58	1057.92
391.78	1043.88
391.97	1001.75
392.16	976.00
392.36	1025.15
392.55	1114.10
392.75	1081.33
392.94	1043.88
393.13	1025.15
393.33	1006.43
393.52	1118.78
393.71	1020.47
393.91	1156.22
394.10	1121.12
394.29	1118.78
394.49	1095.37
394.68	1139.84
394.88	1041.54
395.07	1132.82
395.26	1111.75
395.46	1179.63
395.65	1172.61
395.84	1181.97
396.04	1177.29
396.23	1231.12
396.42	1160.91
396.62	1238.14
396.81	1242.82
397.00	1128.14
397.19	1249.85
397.39	1254.53
397.58	1198.35
397.77	1266.23
397.97	1289.64
398.16	1275.59
398.35	1327.08
398.55	1327.08
398.74	1268.57
398.93	1387.94
399.12	1334.11
399.32	1273.25
399.51	1299.00
399.70	1385.60
399.90	1352.83
400.09	1289.64
400.28	1387.94
400.47	1327.08
400.67	1362.19
400.86	1394.96
401.05	1425.39
401.24	1490.92
401.44	1465.18
401.63	1427.73
401.82	1439.43
402.01	1437.09
402.21	1465.18
402.40	1465.18
402.59	1472.20
402.78	1511.99
402.97	1469.86
403.17	1526.03
403.36	1474.54
403.55	1511.99
403.74	1565.82
403.93	1668.80
404.13	1607.95
404.32	1614.97
404.51	1612.63
404.70	1610.29
404.89	1643.06
405.09	1708.59
405.28	1666.46
405.47	1654.76
405.66	1687.53
405.85	1661.78
406.05	1600.93
406.24	1717.95
406.43	1762.42
406.62	1792.85
406.81	1921.58
407.00	1734.34
407.20	1816.26
407.39	1795.19
407.58	1952.01
407.77	1778.81
407.96	1846.68
408.15	1933.28
408.34	1902.86
408.54	1921.58
408.73	1956.69
408.92	1940.30
409.11	1900.52
409.30	1928.60
409.49	2029.24
409.68	1952.01
409.87	2001.16
410.07	2094.78
410.26	2101.80
410.45	2015.20
410.64	2150.95
410.83	2062.01
411.02	2115.84
411.21	2172.02
411.40	2193.08
411.59	2134.57
411.78	2195.42
411.98	2317.13
412.17	2204.78
412.36	2211.81
412.55	2300.75
412.74	2394.37
412.93	2324.15
413.12	2265.64
413.31	2427.14
413.50	2434.16
413.69	2333.51
413.88	2415.43
414.07	2511.39
414.26	2415.43
414.45	2462.24
414.64	2448.20
414.83	2553.52
415.02	2520.76
415.22	2523.10
415.41	2567.57
415.60	2682.25
415.79	2649.49
415.98	2761.83
416.17	2668.21
416.36	2686.94
416.55	2787.58
416.74	2853.11
416.93	2761.83
417.12	2867.16
417.31	2918.65
417.50	2902.26
417.69	2897.58
417.88	2855.45
418.07	2916.31
418.26	2944.39
418.45	2918.65
418.64	2995.89
418.83	2984.18
419.02	3014.61
419.21	3126.96
419.39	3169.09
419.58	3075.46
419.77	3056.74
419.96	3152.70
420.15	3215.90
420.34	3206.53
420.53	3183.13
420.72	3246.32
420.91	3300.16
421.10	3262.71
421.29	3236.96
421.48	3197.17
421.67	3440.59
421.86	3220.58
422.05	3262.71
422.24	3243.98
422.43	3197.17
422.61	3389.10
422.80	3471.01
422.99	3426.54
423.18	3445.27
423.37	3440.59
423.56	3459.31
423.75	3323.56
423.94	3286.11
424.13	3283.77
424.32	3316.54
424.50	3445.27
424.69	3440.59
424.88	3492.08
425.07	3412.50
425.26	3283.77
425.45	3403.14
425.64	3466.33
425.83	3363.35
426.01	3611.45
426.20	3426.54
426.39	3543.57
426.58	3463.99
426.77	3321.22
426.96	3428.88
427.15	3449.95
427.33	3630.17
427.52	3433.57
427.71	3508.46
427.90	3531.87
428.09	3552.93
428.28	3545.91
428.46	3730.81
428.65	3684.00
428.84	3705.07
429.03	3726.13
429.22	3810.39
429.40	3735.50
429.59	3831.46
429.78	3588.04
429.97	3632.51
430.16	3653.58
430.34	3730.81
430.53	3859.54
430.72	3779.97
430.91	3889.97
431.10	3892.31
431.28	3922.74
431.47	3906.35
431.66	3882.95
431.85	3985.93
432.03	4063.17
432.22	3978.91
432.41	4086.58
432.60	3983.59
432.79	3999.98
432.97	4243.39
433.16	4011.68
433.35	4018.70
433.54	4039.76
433.72	4161.47
433.91	4189.56
434.10	4285.52
434.28	4131.05
434.47	4156.79
434.66	4334.67
434.85	4241.05
435.03	4456.38
435.22	4395.53
435.41	4369.78
435.59	4411.91
435.78	4332.33
435.97	4306.59
436.16	4444.68
436.34	4346.37
436.53	4386.16
436.72	4559.36
436.90	4418.93
437.09	4456.38
437.28	4402.55
437.46	4472.76
437.65	4423.61
437.84	4652.98
438.02	4568.73
438.21	4449.36
438.40	4545.32
438.58	4800.44
438.77	4870.65
438.96	4699.80
439.14	4971.30
439.33	4973.64
439.52	4858.95
439.70	4922.15
439.89	4966.62
440.08	5027.47
440.26	4959.60
440.45	4826.18
440.63	4997.04
440.82	5191.31
441.01	5088.32
441.19	5121.09
441.38	5275.57
441.57	5254.50
441.75	5399.62
441.94	5465.15
442.12	5364.51
442.31	5359.83
442.50	5472.17
442.68	5275.57
442.87	5455.79
443.05	5399.62
443.24	5518.98
443.43	5490.90
443.61	5507.28
443.80	5802.19
443.98	5521.32
444.17	5430.04
444.35	5701.54
444.54	5640.69
444.73	5617.29
444.91	5530.69
445.10	5703.89
445.28	5619.63
445.47	5502.60
445.65	5577.50
445.84	5809.21
446.02	5706.23
446.21	5671.12
446.39	5628.99
446.58	5647.71
446.77	5687.50
446.95	5720.27
447.14	5738.99
447.32	5841.98
447.51	5708.57
447.69	5795.17
447.88	5654.73
448.06	5741.33
448.25	5636.01
448.43	5806.87
448.62	5628.99
448.80	5715.59
448.99	5893.47
449.17	5982.41
449.36	5856.02
449.54	5954.32
449.73	6069.01
449.91	6040.92
450.10	6038.58
450.28	6111.14
450.46	5996.45
450.65	5998.79
450.83	6024.54
451.02	6195.40
451.20	6141.57
451.39	6296.04
451.57	6073.69
451.76	5987.09
451.94	6160.29
452.13	6303.06
452.31	6368.60
452.49	6267.95
452.68	6403.71
452.86	6368.60
453.05	6387.32
453.23	6572.22
453.42	6300.72
453.60	6267.95
453.78	6293.70
453.97	6296.04
454.15	6422.43
454.34	6436.47
454.52	6558.18
454.70	6509.03
454.89	6452.86
455.07	6443.49
455.26	6590.95
455.44	6855.43
455.62	6670.53
455.81	6679.89
455.99	6686.91
456.17	6644.78
456.36	6607.33
456.54	6923.30
456.73	6710.32
456.91	7035.65
457.09	6967.77
457.28	7075.44
457.46	7002.88
457.64	6904.58
457.83	6988.84
458.01	7063.74
458.19	7077.78
458.38	7098.84
458.56	7173.74
458.74	7190.13
458.93	7119.91
459.11	7080.12
459.29	7112.89
459.48	7279.07
459.66	7173.74
459.84	7342.26
460.03	7365.67
460.21	7426.52
460.39	7204.17
460.57	7424.18
460.76	7592.70
460.94	7311.83
461.12	7517.80
461.31	7358.64
461.49	7419.50
461.67	7569.29
461.85	7641.85
462.04	7630.15
462.22	8006.97
462.40	7908.67
462.59	7595.04
462.77	7634.83
462.95	7705.04
463.13	7775.26
463.32	7698.02
463.50	7826.75
463.68	7913.35
463.86	7918.03
464.05	7885.26
464.23	7564.61
464.41	7950.80
464.59	7737.81
464.78	8009.31
464.96	7850.16
465.14	7843.14
465.32	8088.89
465.50	8107.62
465.69	8140.38
465.87	8098.25
466.05	8212.94
466.23	7939.10
466.41	8152.09
466.60	8325.29
466.78	8269.11
466.96	8121.66
467.14	8243.37
467.32	8290.18
467.51	8301.88
467.69	8081.87
467.87	8353.37
468.05	8145.06
468.23	8486.78
468.41	8329.97
468.60	8435.29
468.78	8493.80
468.96	8449.33
469.14	8355.71
469.32	8568.70
469.50	8489.12
469.69	8545.30
469.87	8662.32
470.05	8786.37
470.23	8772.33
470.41	8819.14
470.59	8648.28
470.77	8879.99
470.95	8617.85
471.14	8947.87
471.32	8910.42
471.50	8922.12
471.68	9083.62
471.86	9013.40
472.04	9050.85
472.22	9249.80
472.40	9008.72
472.58	9156.18
472.77	9394.91
472.95	9359.80
473.13	9603.22
473.31	9298.95
473.49	9507.26
473.67	9170.22
473.85	9479.17
474.03	9678.12
474.21	9666.41
474.39	9650.03
474.57	9329.38
474.75	9846.63
474.93	9879.40
475.12	9774.08
475.30	9982.38
475.48	9853.66
475.66	10157.92
475.84	10015.15
476.02	10289.00
476.20	10195.37
476.38	10333.47
476.56	10361.55
476.74	10457.51
476.92	10321.76
477.10	10548.79
477.28	10719.65
477.46	10771.15
477.64	10611.99
477.82	10853.06
478.00	11356.28
478.18	11063.71
478.36	10993.50
478.54	11152.65
478.72	11082.44
478.90	11419.47
479.08	11730.76
479.26	11576.29
479.44	11648.85
479.62	11953.12
479.80	11847.79
479.98	11915.67
480.16	12252.70
480.34	11899.28
480.52	12367.39
480.70	12229.30
480.88	12166.10
481.06	12161.42
481.24	12264.41
481.41	12624.85
481.59	12514.84
481.77	12872.95
481.95	12800.39
482.13	12989.97
482.31	13029.76
482.49	13235.73
482.67	13315.31
482.85	13376.16
483.03	13453.40
483.21	13535.32
483.39	13469.78
483.57	13635.96
483.74	13947.25
483.92	14024.49
484.10	13743.63
484.28	14415.36
484.46	14368.55
484.64	14450.47
484.82	14326.42
485.00	14761.76
485.18	14757.08
485.35	15044.96
485.53	14993.47
485.71	14916.23
485.89	15580.95
486.07	15028.58
486.25	15377.32
486.43	15597.33
486.61	15646.48
486.78	15606.69
486.96	15693.29
487.14	15903.94
487.32	15948.41
487.50	16264.38
487.68	16243.32
487.85	16559.29
488.03	16699.72
488.21	16769.94
488.39	16835.47
488.57	17254.43
488.75	17027.40
488.92	17209.96
489.10	17383.16
489.28	17472.10
489.46	17877.01
489.64	17844.24
489.81	18146.17
489.99	18022.12
490.17	18223.41
490.35	18408.31
490.53	18574.49
490.70	18707.90
490.88	18508.96
491.06	18815.57
491.24	18747.69
491.41	18948.98
491.59	19129.20
491.77	19154.94
491.95	19412.40
492.13	19503.68
492.30	19639.44
492.48	19768.16
492.66	19716.67
492.84	19580.92
493.01	20320.53
493.19	19700.29
493.37	20140.31
493.54	20105.20
493.72	20299.47
493.90	20362.66
494.08	21015.67
494.25	20659.91
494.43	20865.88
494.61	21106.95
494.79	21113.97
494.96	21263.77
495.14	21624.21
495.32	21804.43
495.49	21561.02
495.67	21589.10
495.85	21591.44
496.02	22153.17
496.20	22087.64
496.38	22324.03
496.55	21907.41
496.73	22764.05
496.91	22808.52
497.09	22972.36
497.26	22654.05
497.44	22705.54
497.62	22838.95
497.79	23206.41
497.97	23541.11
498.14	23082.36
498.32	23653.45
498.50	23232.16
498.67	23658.14
498.85	23531.75
499.03	24039.64
499.20	24177.73
499.38	24151.99
499.56	23922.62
499.73	24325.19
499.91	24046.66
500.08	25116.29
500.26	24325.19
500.44	24559.24
500.61	24496.05
500.79	24664.57
500.97	24776.91
501.14	25151.40
501.32	25331.62
501.49	24762.87
501.67	25106.93
501.84	25647.59
502.02	25317.57
502.20	25521.20
502.37	25469.71
502.55	25869.94
502.72	25841.85
502.90	25626.53
503.07	25682.70
503.25	25759.94
503.43	25652.27
503.60	26153.15
503.78	26302.94
503.95	26260.81
504.13	26181.23
504.30	26579.12
504.48	26644.66
504.65	26597.85
504.83	26609.55
505.01	27119.79
505.18	26871.69
505.36	26979.36
505.53	26836.58
505.71	27112.77
505.88	27470.87
506.06	27250.86
506.23	27393.63
506.41	27459.16
506.58	27653.43
506.76	27056.59
506.93	27887.48
507.11	27711.94
507.28	28070.04
507.46	28357.93
507.63	28025.57
507.81	28332.18
507.98	27669.81
508.16	28393.04
508.33	28386.02
508.50	28687.95
508.68	28479.64
508.85	28835.40
509.03	28341.55
509.20	28952.43
509.38	29209.89
509.55	29193.50
509.73	29294.14
509.90	28966.47
510.08	29603.10
510.25	29282.44
510.42	29425.22
510.60	29844.17
510.77	29572.67
510.95	30026.73
511.12	29450.96
511.30	29844.17
511.47	29928.43
511.64	30162.48
511.82	29944.81
511.99	30316.96
512.17	30419.94
512.34	30012.69
512.51	30469.09
512.69	30721.87
512.86	30855.28
513.04	30424.62
513.21	30555.69
513.38	30438.67
513.56	31267.22
513.73	30724.21
513.90	30827.20
514.08	30597.82
514.25	31187.64
514.43	31519.99
514.60	31597.23
514.77	31260.20
514.95	31161.89
515.12	31468.50
515.29	31087.00
515.47	31824.26
515.64	31894.48
515.81	31737.66
515.99	31887.46
516.16	32175.34
516.33	32243.22
516.51	32367.27
516.68	32236.20
516.85	32140.24
517.03	32613.02
517.20	32032.57
517.37	32610.68
517.54	32320.46
517.72	32238.54
517.89	32444.51
518.06	33041.34
518.24	33031.98
518.41	32804.95
518.58	32655.15
518.75	32694.94
518.93	32950.06
519.10	33083.47
519.27	33422.85
519.45	33125.60
519.62	33380.72
519.79	33289.44
519.96	33479.02
520.14	33596.05
520.31	33757.55
520.48	33876.91
520.65	33654.56
520.83	34239.70
521.00	34225.65
521.17	33759.89
521.34	34141.39
521.52	34466.73
521.69	34125.01
521.86	34323.96
522.03	34810.79
522.20	34286.51
522.38	34841.21
522.55	35292.94
522.72	35082.29
522.89	34590.78
523.07	35414.65
523.24	35196.98
523.41	35126.76
523.58	34890.37
523.75	35349.11
523.92	35248.47
524.10	35295.28
524.27	35606.57
524.44	35536.35
524.61	35225.06
524.78	35644.02
524.96	35906.16
525.13	35803.17
525.30	35913.18
525.47	35714.23
525.64	35910.84
525.81	35611.25
525.98	36081.70
526.16	35800.83
526.33	35761.05
526.50	36407.03
526.67	36189.36
526.84	36247.88
527.01	35988.08
527.18	36407.03
527.36	36390.65
527.53	36715.98
527.70	37120.90
527.87	36470.23
528.04	36594.28
528.21	36992.17
528.38	36708.96
528.55	36767.48
528.72	36889.18
528.89	36762.79
529.07	36917.27
529.24	36921.95
529.41	36978.12
529.58	37230.90
529.75	37174.73
529.92	37078.77
530.09	37427.51
530.26	37525.81
530.43	37654.54
530.60	37153.66
530.77	37708.37
530.94	37598.37
531.11	37319.84
531.28	37834.76
531.46	37483.68
531.63	37790.29
531.80	37762.20
531.97	38216.27
532.14	38403.51
532.31	38120.31
532.48	38529.90
532.65	38724.16
532.82	38274.78
532.99	38305.21
533.16	38157.75
533.33	38742.89
533.50	38120.31
533.67	38471.39
533.84	38873.96
534.01	38897.36
534.18	38820.13
534.35	39042.48
534.52	38717.14
534.69	38836.51
534.86	38852.89
535.03	38380.10
535.20	38899.70
535.37	38873.96
535.54	38789.70
535.71	39447.39
535.88	39110.35
536.05	39526.97
536.22	39360.79
536.38	39248.44
536.55	39225.04
536.72	39536.33
536.89	39122.05
537.06	39477.82
537.23	39622.93
537.40	39283.55
537.57	39407.60
537.74	39395.90
537.91	39936.56
538.08	39777.40
538.25	39765.70
538.42	40259.55
538.59	40025.50
538.75	39845.28
538.92	40219.77
539.09	40011.46
539.26	40137.85
539.43	39948.26
539.60	40247.85
539.77	40322.75
539.94	40329.77
540.11	39915.50
540.28	39901.45
540.44	40477.22
540.61	40591.91
540.78	40460.84
540.95	40388.28
541.12	40706.60
541.29	40650.42
541.46	40720.64
541.62	40491.27
541.79	40519.35
541.96	40460.84
542.13	40505.31
542.30	40671.49
542.47	41083.42
542.63	41006.19
542.80	41448.55
542.97	41258.96
543.14	41397.06
543.31	41467.27
543.48	40928.95
543.64	41902.61
543.81	41624.09
543.98	41584.30
544.15	41209.81
544.32	41743.45
544.48	42181.13
544.65	41706.01
544.82	41881.55
544.99	41432.16
545.16	41907.29
545.32	41963.46
545.49	42127.30
545.66	42806.06
545.83	42043.04
546.00	42295.82
546.16	42174.11
546.33	42272.42
546.50	42043.04
546.67	42698.39
546.83	42171.77
547.00	41876.86
547.17	41918.99
547.34	42024.32
547.50	42546.26
547.67	43079.90
547.84	42902.02
548.00	42948.83
548.17	43065.86
548.34	42656.26
548.51	42639.88
548.67	43096.28
548.84	42934.79
549.01	42920.74
549.18	42944.15
549.34	43253.10
549.51	43548.01
549.68	43131.39
549.84	42763.93
550.01	43487.15
550.18	43217.99
550.34	43210.97
550.51	43508.22
550.68	43526.94
550.84	42852.87
551.01	43320.98
551.18	43477.79
551.34	43215.65
551.51	43793.76
551.68	43363.11
551.84	43423.96
552.01	43171.18
552.18	43800.79
552.34	43447.36
552.51	43665.03
552.68	43229.69
552.84	43302.25
553.01	44069.95
553.18	43339.70
553.34	44163.57
553.51	43622.90
553.67	43950.58
553.84	44158.89
554.01	44219.74
554.17	44037.18
554.34	44533.37
554.51	43627.59
554.67	44493.58
554.84	44285.28
555.00	44322.72
555.17	44175.27
555.33	44404.64
555.50	44158.89
555.67	44414.01
555.83	44313.36
556.00	44746.36
556.16	44800.19
556.33	44776.79
556.50	44245.49
556.66	44524.01
556.83	44259.53
556.99	44839.98
557.16	44685.51
557.32	44980.42
557.49	45237.87
557.65	44474.86
557.82	44687.85
557.98	44746.36
558.15	44830.62
558.32	44762.75
558.48	45006.16
558.65	44395.28
558.81	44535.71
558.98	44921.90
559.14	44664.44
559.31	44683.17
559.47	45090.42
559.64	45064.67
559.80	44839.98
559.97	45233.19
560.13	44875.09
560.30	44957.01
560.46	45151.27
560.63	45418.10
560.79	45502.35
560.96	45471.93
561.12	45310.43
561.29	45228.51
561.45	45567.89
561.61	45113.83
561.78	45347.88
561.94	45214.47
562.11	45738.75
562.27	45691.94
562.44	45457.88
562.60	45308.09
562.77	45567.89
562.93	45177.02
563.10	45326.81
563.26	45436.82
563.42	46153.02
563.59	45855.78
563.75	45698.96
563.92	45853.44
564.08	45727.05
564.24	45577.25
564.41	46012.59
564.57	45790.24
564.74	46117.92
564.90	45457.88
565.07	45235.53
565.23	45977.48
565.39	45954.08
565.56	45731.73
565.72	45645.13
565.88	45909.61
566.05	45841.73
566.21	46043.02
566.38	45631.08
566.54	45691.94
566.70	45624.06
566.87	45834.71
567.03	45972.80
567.19	46232.60
567.36	46096.85
567.52	45881.52
567.68	46279.41
567.85	46248.99
568.01	46136.64
568.17	46143.66
568.34	46284.09
568.50	45904.93
568.66	45701.30
568.83	46401.12
568.99	45837.05
569.15	46293.46
569.32	46293.46
569.48	46024.29
569.64	46251.33
569.81	46267.71
569.97	46202.18
570.13	46337.93
570.30	46260.69
570.46	46087.49
570.62	45968.12
570.78	46422.19
570.95	46321.54
571.11	46958.17
571.27	46410.48
571.43	46335.59
571.60	46234.94
571.76	46155.36
571.92	46124.94
572.09	46241.96
572.25	46508.79
572.41	46536.87
572.57	46438.57
572.74	47103.28
572.90	46752.20
573.06	46958.17
573.22	46677.30
573.38	46728.80
573.55	46817.74
573.71	46787.31
573.87	46773.27
574.03	46492.40
574.20	46983.91
574.36	46267.71
574.52	46562.62
574.68	46642.20
574.84	46469.00
575.01	46644.54
575.17	46691.35
575.33	46714.75
575.49	46663.26
575.65	46770.93
575.82	46557.94
575.98	46380.06
576.14	46944.12
576.30	47086.90
576.46	46902.00
576.62	46426.87
576.79	46380.06
576.95	46265.37
577.11	46604.75
577.27	46752.20
577.43	46550.91
577.59	46679.64
577.75	46490.06
577.92	46576.66
578.08	46953.49
578.24	46590.70
578.40	47159.45
578.56	46560.28
578.72	47054.13
578.88	46773.27
579.04	46869.23
579.21	46717.09
579.37	46899.65
579.53	46791.99
579.69	46981.57
579.85	46590.70
580.01	47016.68
580.17	46801.35
580.33	46939.44
580.49	47171.16
580.65	46815.40
580.82	46880.93
580.98	46806.03
581.14	46740.50
581.30	46714.75
581.46	46419.84
581.62	46810.71
581.78	46693.69
581.94	47475.43
582.10	46934.76
582.26	47030.72
582.42	47028.38
582.58	47199.24
582.74	46873.91
582.90	46857.52
583.06	47044.77
583.22	46780.29
583.38	46892.63
583.54	46841.14
583.70	46726.46
583.86	46780.29
584.02	46646.88
584.18	47306.91
584.34	47304.57
584.50	47512.88
584.66	47412.23
584.82	47147.75
584.98	47239.03
585.14	47459.04
585.30	47232.01
585.46	47065.83
585.62	47203.92
585.78	46979.23
585.94	46777.95
586.10	46876.25
586.26	46485.38
586.42	46663.26
586.58	46728.80
586.74	47098.60
586.90	47077.54
587.06	46909.02
587.22	47447.34
587.38	47037.75
587.54	47236.69
587.70	47274.14
587.86	47089.24
588.02	47236.69
588.18	47320.95
588.34	46855.18
588.49	47112.64
588.65	46927.74
588.81	47030.72
588.97	47543.30
589.13	47201.58
589.29	47232.01
589.45	47529.26
589.61	47079.88
589.77	47487.13
589.93	47452.02
590.08	47482.45
590.24	47807.78
590.40	47725.86
590.56	47573.73
590.72	47519.90
590.88	47543.30
591.04	47229.67
591.20	47526.92
591.35	47562.03
591.51	47639.26
591.67	47793.74
591.83	47973.96
591.99	47255.42
592.15	47192.22
592.31	47435.64
592.46	47365.42
592.62	47585.43
592.78	47636.92
592.94	47751.61
593.10	47639.26
593.26	47842.89
593.41	47604.16
593.57	47831.19
593.73	47688.42
593.89	47957.58
594.05	47962.26
594.20	47512.88
594.36	47840.55
594.52	47964.60
594.68	47882.68
594.84	47496.49
594.99	47854.59
595.15	47625.22
595.31	48158.86
595.47	47957.58
595.62	47840.55
595.78	47657.99
595.94	48100.35
596.10	48009.07
596.25	47859.27
596.41	48154.18
596.57	47779.70
596.73	48083.97
596.88	47714.16
597.04	47807.78
597.20	47870.98
597.36	47459.04
597.51	47955.24
597.67	47281.16
597.83	47856.93
597.99	48088.65
598.14	47676.71
598.30	47604.16
598.46	47896.72
598.61	48343.77
598.77	47515.22
598.93	48032.47
599.09	47838.21
599.24	48137.80
599.40	47690.76
599.56	48051.20
599.71	47992.68
599.87	48460.79
600.03	47936.51
600.18	47821.83
600.34	48039.50
600.50	47880.34
600.65	48196.31
600.81	48502.92
600.97	48074.60
601.12	47903.74
601.28	47899.06
601.44	47625.22
601.59	48296.95
601.75	48275.89
601.91	47962.26
602.06	48079.28
602.22	47894.38
602.37	48046.52
602.53	48051.20
602.69	48285.25
602.84	47601.82
603.00	47728.20
603.16	47695.44
603.31	48083.97
603.47	47934.17
603.62	47943.53
603.78	48046.52
603.94	47636.92
604.09	47943.53
604.25	48072.26
604.40	47711.82
604.56	47744.59
604.71	48215.04
604.87	47746.93
605.03	47866.30
605.18	48025.45
605.34	47913.11
605.49	47592.45
605.65	48395.26
605.80	47803.10
605.96	47859.27
606.12	48268.87
606.27	48032.47
606.43	47716.50
606.58	48203.33
606.74	47969.28
606.89	47632.24
607.05	48222.06
607.20	47828.85
607.36	48062.90
607.51	47966.94
607.67	47360.74
607.82	47817.14
607.98	47665.01
608.13	47215.63
608.29	47725.86
608.44	47524.58
608.60	47723.52
608.75	47973.96
608.91	47524.58
609.06	47482.45
609.22	47896.72
609.37	47604.16
609.53	47604.16
609.68	47852.25
609.84	47749.27
609.99	47646.29
610.15	47562.03
610.30	48067.58
610.46	47819.49
610.61	48051.20
610.76	47665.01
610.92	47140.73
611.07	47143.07
611.23	47482.45
611.38	47173.50
611.54	47538.62
611.69	47578.41
611.84	47723.52
612.00	47267.12
612.15	47143.07
612.31	47655.65
612.46	46997.96
612.62	47257.76
612.77	47358.40
612.92	47966.94
613.08	47578.41
613.23	47356.06
613.39	47386.49
613.54	46951.15
613.69	47454.36
613.85	47185.20
614.00	47070.51
614.15	47264.78
614.31	46993.28
614.46	47239.03
614.62	47269.46
614.77	47290.52
614.92	47309.25
615.08	46440.91
615.23	47477.77
615.38	47489.47
615.54	47227.33
615.69	47386.49
615.84	46894.97
616.00	47107.96
616.15	46813.05
616.30	47309.25
616.46	47260.10
616.61	46625.81
616.76	47159.45
616.92	47105.62
617.07	47086.90
617.22	47262.44
617.37	46731.14
617.53	47323.29
617.68	47112.64
617.83	46850.50
617.99	47180.52
618.14	46866.89
618.29	46293.46
618.45	46911.36
618.60	46525.17
618.75	46534.53
618.90	46681.98
619.06	46590.70
619.21	46733.48
619.36	46946.47
619.51	46852.84
619.67	46958.17
619.82	46660.92
619.97	46777.95
620.12	46913.70
620.28	46384.74
620.43	46546.23
620.58	46845.82
620.73	46820.08
620.89	47150.09
621.04	46513.47
621.19	46602.41
621.34	46635.17
621.49	46312.18
621.65	46653.90
621.80	46742.84
621.95	46450.27
622.10	46791.99
622.25	46794.33
622.41	46588.36
622.56	46597.73
622.71	46227.92
622.86	46703.05
623.01	46593.04
623.16	46616.45
623.32	46454.95
623.47	46335.59
623.62	46146.00
623.77	46246.65
623.92	46450.27
624.07	46108.55
624.23	46447.93
624.38	46401.12
624.53	45783.22
624.68	45654.49
624.83	46153.02
624.98	46340.27
625.13	45853.44
625.29	45635.77
625.44	45799.60
625.59	45659.17
625.74	46024.29
625.89	45420.44
626.04	45556.19
626.19	45860.46
626.34	45944.72
626.49	45457.88
626.65	45656.83
626.80	45649.81
626.95	45504.70
627.10	45642.79
627.25	45436.82
627.40	45460.23
627.55	45106.80
627.70	45539.80
627.85	45427.46
628.00	45787.90
628.15	45492.99
628.30	44823.60
628.45	44842.32
628.60	45008.50
628.76	44830.62
628.91	45132.55
629.06	44519.33
629.21	44842.32
629.36	45495.33
629.51	44945.31
629.66	45298.73
629.81	45085.74
629.96	45059.99
630.11	45162.98
630.26	45043.61
630.41	45240.21
630.56	44844.66
630.71	44879.77
630.86	45050.63
631.01	44657.42
631.16	44884.45
631.31	45198.09
631.46	44919.56
631.61	44893.82
631.76	44809.56
631.91	45310.43
632.06	45333.84
632.21	45141.91
632.36	45083.40
632.51	44540.39
632.66	45319.79
632.81	44886.79
632.96	44760.40
633.10	44589.55
633.25	44839.98
633.40	44690.19
633.55	44914.88
633.70	44837.64
633.85	44524.01
634.00	44638.70
634.15	44301.66
634.30	44545.08
634.45	44020.80
634.60	44392.94
634.75	44339.11
634.90	44301.66
635.05	44030.16
635.19	44240.81
635.34	44612.95
635.49	43866.32
635.64	44486.56
635.79	44727.64
635.94	44158.89
636.09	44474.86
636.24	44327.41
636.39	44034.84
636.53	44289.96
636.68	43718.87
636.83	44105.06
636.98	43920.15
637.13	43985.69
637.28	43723.55
637.43	44093.35
637.57	44135.48
637.72	43433.32
637.87	43543.33
638.02	44069.95
638.17	43812.49
638.32	43482.47
638.46	43721.21
638.61	43686.10
638.76	43585.46
638.91	43945.90
639.06	43122.03
639.20	43536.30
639.35	43522.26
639.50	43608.86
639.65	43304.59
639.80	43728.23
639.94	43910.79
640.09	43400.55
640.24	43456.73
640.39	43608.86
640.54	42878.61
640.68	43524.60
640.83	43421.62
640.98	43292.89
641.13	43035.43
641.27	43466.09
641.42	43276.51
641.57	43129.05
641.72	43161.82
641.86	43548.01
642.01	43054.15
642.16	43042.45
642.31	42464.34
642.45	43070.54
642.60	43248.42
642.75	43021.39
642.90	43225.01
643.04	43304.59
643.19	43271.82
643.34	42864.57
643.48	42918.40
643.63	42925.42
643.78	42440.93
643.93	43115.01
644.07	42965.21
644.22	42742.86
644.37	42478.38
644.51	42864.57
644.66	42972.24
644.81	42747.54
644.95	42768.61
645.10	42967.55
645.25	42667.97
645.39	42265.39
645.54	42862.23
645.69	42359.02
645.83	42417.53
645.98	42150.71
646.13	42333.27
646.27	42602.43
646.42	42476.04
646.57	42344.97
646.71	42773.29
646.86	42454.98
647.00	42567.32
647.15	42426.89
647.30	42476.04
647.44	42087.51
647.59	42103.90
647.74	42103.90
647.88	42431.57
648.03	42532.22
648.17	42373.06
648.32	42295.82
648.47	42211.56
648.61	41902.61
648.76	42293.48
648.90	41890.91
649.05	42230.29
649.20	42256.03
649.34	41816.01
649.49	42293.48
649.63	42244.33
649.78	42033.68
649.92	41771.54
650.07	42384.76
650.21	41897.93
650.36	42075.81
650.51	41853.46
650.65	41717.71
650.80	41872.18
650.94	41986.87
651.09	41984.53
651.23	41415.78
651.38	41366.63
651.52	41375.99
651.67	41516.42
651.81	41731.75
651.96	41397.06
652.10	41195.77
652.25	41308.11
652.39	41551.53
652.54	41439.18
652.68	41008.53
652.83	40973.42
652.97	41317.48
653.12	41233.22
653.26	41062.36
653.41	41378.33
653.55	41551.53
653.70	41703.67
653.84	41284.71
653.99	41205.13
654.13	41441.53
654.27	41062.36
654.42	41343.22
654.56	40802.56
654.71	41488.34
654.85	41745.80
655.00	41090.44
655.14	40942.99
655.29	41181.73
655.43	41205.13
655.57	40627.02
655.72	40669.15
655.86	40825.96
656.01	40896.18
656.15	40156.57
656.30	40877.46
656.44	41188.75
656.58	41034.27
656.73	40273.60
656.87	40339.13
657.01	40418.71
657.16	40673.83
657.30	40933.63
657.45	40615.32
657.59	40645.74
657.73	40067.63
657.88	40437.44
658.02	40605.95
658.16	40568.51
658.31	40547.44
658.45	40378.92
658.60	40346.15
658.74	40282.96
658.88	40416.37
659.03	40196.36
659.17	39805.49
659.31	40013.80
659.46	40266.58
659.60	39833.58
659.74	39643.99
659.89	39625.27
660.03	39793.79
660.17	40025.50
660.32	39732.93
660.46	39758.68
660.60	39428.66
660.74	39538.67
660.89	39665.06
661.03	39550.37
661.17	38955.88
661.32	39199.29
661.46	39735.27
661.60	39194.61
661.74	39681.44
661.89	38974.60
662.03	38993.32
662.17	38852.89
662.31	38951.20
662.46	39260.15
662.60	38920.77
662.74	38899.70
662.88	38316.91
663.03	38738.21
663.17	38527.56
663.31	38525.22
663.45	38686.71
663.60	38808.42
663.74	38394.15
663.88	38153.07
664.02	38223.29
664.17	38553.30
664.31	38312.23
664.45	38316.91
664.59	38260.74
664.73	38328.61
664.88	37855.82
665.02	37647.52
665.16	38438.62
665.30	38183.50
665.44	38061.79
665.59	37647.52
665.73	37649.86
665.87	37591.34
666.01	37823.06
666.15	37570.28
666.29	37909.66
666.44	37750.50
666.58	37701.35
666.72	37261.33
666.86	37228.56
667.00	37277.71
667.14	37401.76
667.28	37198.13
667.43	37137.28
667.57	37280.05
667.71	37385.38
667.85	37528.15
667.99	37345.59
668.13	36636.41
668.27	36793.22
668.41	36938.33
668.56	36402.35
668.70	36332.14
668.84	36308.73
668.98	36243.20
669.12	36416.40
669.26	36973.44
669.40	36533.42
669.54	36582.57
669.68	36254.90
669.82	36446.82
669.96	35955.31
670.10	35739.98
670.25	35604.23
670.39	35641.68
670.53	36397.67
670.67	35702.53
670.81	35852.33
670.95	36294.69
671.09	35807.86
671.23	35185.27
671.37	35590.19
671.51	35559.76
671.65	35665.08
671.79	35227.40
671.93	35377.20
672.07	35208.68
672.21	35091.65
672.35	34717.17
672.49	34384.81
672.63	35168.89
672.77	34745.25
672.91	35056.54
673.05	35335.07
673.19	34279.49
673.33	34705.46
673.47	34251.40
673.61	34377.79
673.75	34015.01
673.89	34249.06
674.03	33961.17
674.17	33708.40
674.31	33879.25
674.45	33317.53
674.59	33734.14
674.73	34005.64
674.87	33528.17
675.01	33539.88
675.15	33181.77
675.29	33390.08
675.43	33057.73
675.56	33060.07
675.70	32917.29
675.84	32931.34
675.98	31842.99
676.12	32767.50
676.26	33170.07
676.40	32657.49
676.54	32727.71
676.68	32430.46
676.82	31648.72
676.96	32547.49
677.10	32404.72
677.23	32067.68
677.37	32311.10
677.51	31999.80
677.65	31985.76
677.79	31700.22
677.93	32053.64
678.07	31655.75
678.21	31379.56
678.34	31398.29
678.48	30738.26
678.62	31016.78
678.76	31098.70
678.90	30675.06
679.04	30721.87
679.18	31096.36
679.31	30771.02
679.45	30408.24
679.59	30623.57
679.73	30651.66
679.87	30213.98
680.00	30274.83
680.14	30319.30
680.28	29914.39
680.42	30022.05
680.56	29930.77
680.70	29783.32
680.83	29448.62
680.97	29303.51
681.11	29556.28
681.25	29106.90
681.39	28982.85
681.52	29123.29
681.66	28938.38
681.80	28645.82
681.94	28790.93
682.07	28472.62
682.21	28617.73
682.35	28648.16
682.49	28545.17
682.62	28470.28
682.76	28278.35
682.90	28119.20
683.04	28020.89
683.17	28140.26
683.31	27971.74
683.45	27871.10
683.59	27227.45
683.72	27070.64
683.86	27388.95
684.00	27611.30
684.13	27484.91
684.27	27262.56
684.41	27246.18
684.55	26719.56
684.68	27215.75
684.82	26338.05
684.96	26829.56
685.09	26731.26
685.23	26909.14
685.37	26703.17
685.50	26836.58
685.64	26574.44
685.78	26506.57
685.91	26178.89
686.05	25867.60
686.19	25453.33
686.32	25572.69
686.46	25617.16
686.60	25443.96
686.73	25586.74
686.87	25247.36
687.01	25490.77
687.14	25467.37
687.28	24821.38
687.42	25149.06
687.55	24907.98
687.69	24748.82
687.82	24863.51
687.96	24460.94
688.10	24835.42
688.23	24730.10
688.37	24645.84
688.50	24608.39
688.64	24575.62
688.78	24086.45
688.91	24091.13
689.05	24343.91
689.18	23845.38
689.32	23482.59
689.46	23576.22
689.59	23398.34
689.73	23730.69
689.86	23709.63
690.00	23199.39
690.13	23704.95
690.27	23091.73
690.41	23447.49
690.54	22820.22
690.68	22817.88
690.81	22607.23
690.95	22981.72
691.08	22464.46
691.22	22291.26
691.35	22258.49
691.49	22473.82
691.62	22635.32
691.76	21944.86
691.89	21766.98
692.03	21696.77
692.16	21549.31
692.30	22251.47
692.43	21692.08
692.57	21455.69
692.70	21462.71
692.84	21413.56
692.97	21018.01
693.11	20940.77
693.24	20917.37
693.38	20676.29
693.51	20978.22
693.65	20781.62
693.78	20446.92
693.92	20671.61
694.05	20769.91
694.19	20233.93
694.32	20252.66
694.45	20545.22
694.59	20341.60
694.72	20453.94
694.86	19967.11
694.99	19917.96
695.13	19550.49
695.26	19658.16
695.39	19461.55
695.53	19255.59
695.66	19763.48
695.80	19536.45
695.93	19229.84
696.07	19503.68
696.20	18838.97
696.33	18831.95
696.47	18803.86
696.60	18810.89
696.73	19080.05
696.87	18970.04
697.00	18649.39
697.14	18459.81
697.27	18242.14
697.40	18260.86
697.54	18394.27
697.67	18202.35
697.80	18274.90
697.94	18022.12
698.07	17846.58
698.21	17703.81
698.34	17942.55
698.47	17621.89
698.61	17465.08
698.74	17263.79
698.87	17474.44
699.01	17167.83
699.14	17329.33
699.27	17308.26
699.40	17146.76
699.54	17114.00
699.67	17067.19
699.80	17109.32
699.94	16709.08
700.07	16849.52
700.20	16601.42
700.34	16533.54
700.47	16561.63
700.60	16795.68
700.73	16409.50
700.87	16301.83
701.00	16187.14
701.13	16159.06
701.26	15833.72
701.40	15854.79
701.53	15932.03
701.66	15838.41
701.79	15857.13
701.93	15323.49
702.06	15527.11
702.19	15192.42
702.32	15520.09
702.46	15543.50
702.59	15599.67
702.72	15522.43
702.85	15171.35
702.99	15131.56
703.12	15061.35
703.25	14881.13
703.38	14862.40
703.51	14963.04
703.65	14941.98
703.78	14583.88
703.91	14387.27
704.04	14115.77
704.17	14389.61
704.31	14391.95
704.44	14487.92
704.57	14251.52
704.70	14078.32
704.83	13884.06
704.96	13806.82
705.10	13774.05
705.23	13841.93
>>>>>End Processed Spectral Data<<<<<
