SpectraSuite Data File
++++++++++++++++++++++++++++++++++++
Date: Fri Oct 25 11:33:15 EDT 2013
User: price-jones
Dark Spectrum Present: No
Reference Spectrum Present: No
Number of Sampled Component Spectra: 1
Spectrometers: USB2+H05261
Integration Time (usec): 100000 (USB2+H05261)
Spectra Averaged: 1 (USB2+H05261)
Boxcar Smoothing: 0 (USB2+H05261)
Correct for Electrical Dark: No (USB2+H05261)
Strobe/Lamp Enabled: No (USB2+H05261)
Correct for Detector Non-linearity: No (USB2+H05261)
Correct for Stray Light: No (USB2+H05261)
Number of Pixels in Processed Spectrum: 2048
>>>>>Begin Processed Spectral Data<<<<<
365.73	234.05
365.92	234.05
366.12	234.05
366.32	194.26
366.52	238.73
366.72	161.50
366.91	208.31
367.11	189.58
367.31	154.48
367.51	170.86
367.70	142.77
367.90	154.48
368.10	184.90
368.30	201.29
368.49	203.63
368.69	128.73
368.89	187.24
369.09	187.24
369.28	243.42
369.48	187.24
369.68	231.71
369.87	259.80
370.07	210.65
370.27	264.48
370.47	283.20
370.66	437.68
370.86	566.41
371.06	587.47
371.25	622.58
371.45	510.24
371.65	545.34
371.84	505.56
372.04	531.30
372.24	578.11
372.44	573.43
372.63	543.00
372.83	627.26
373.03	535.98
373.22	554.71
373.42	615.56
373.62	704.50
373.81	662.37
374.01	690.46
374.21	634.29
374.40	664.71
374.60	631.94
374.79	636.63
374.99	594.50
375.19	587.47
375.38	671.73
375.58	631.94
375.78	730.25
375.97	589.82
376.17	676.41
376.37	669.39
376.56	720.88
376.76	674.07
376.95	697.48
377.15	744.29
377.35	655.35
377.54	678.76
377.74	634.29
377.93	615.56
378.13	690.46
378.33	695.14
378.52	725.57
378.72	737.27
378.91	753.65
379.11	702.16
379.31	685.78
379.50	648.33
379.70	681.10
379.89	704.50
380.09	657.69
380.28	784.08
380.48	767.70
380.68	692.80
380.87	669.39
381.07	814.51
381.26	709.18
381.46	791.10
381.65	716.20
381.85	767.70
382.04	821.53
382.24	692.80
382.43	777.06
382.63	835.57
382.83	774.72
383.02	847.27
383.22	814.51
383.41	760.67
383.61	793.44
383.80	816.85
384.00	828.55
384.19	898.77
384.39	840.25
384.58	720.88
384.78	844.93
384.97	847.27
385.17	788.76
385.36	814.51
385.56	863.66
385.75	882.38
385.95	863.66
386.14	894.08
386.34	945.58
386.53	877.70
386.72	887.06
386.92	873.02
387.11	842.59
387.31	847.27
387.50	926.85
387.70	926.85
387.89	968.98
388.09	901.11
388.28	919.83
388.48	929.19
388.67	961.96
388.86	910.47
389.06	976.00
389.25	978.34
389.45	985.37
389.64	919.83
389.84	1081.33
390.03	964.30
390.22	1006.43
390.42	992.39
390.61	1025.15
390.81	938.55
391.00	952.60
391.19	1006.43
391.39	987.71
391.58	1032.18
391.78	1086.01
391.97	1015.79
392.16	961.96
392.36	1090.69
392.55	987.71
392.75	1022.81
392.94	915.15
393.13	1050.90
393.33	987.71
393.52	1020.47
393.71	1116.44
393.91	1165.59
394.10	1074.31
394.29	1046.22
394.49	1163.25
394.68	1088.35
394.88	1137.50
395.07	1205.38
395.26	1184.31
395.46	1100.05
395.65	1217.08
395.84	1172.61
396.04	1165.59
396.23	1130.48
396.42	1121.12
396.62	1196.01
396.81	1235.80
397.00	1219.42
397.19	1181.97
397.39	1242.82
397.58	1172.61
397.77	1132.82
397.97	1294.32
398.16	1289.64
398.35	1291.98
398.55	1193.67
398.74	1270.91
398.93	1327.08
399.12	1287.29
399.32	1261.55
399.51	1291.98
399.70	1320.06
399.90	1327.08
400.09	1390.28
400.28	1266.23
400.47	1299.00
400.67	1364.53
400.86	1497.94
401.05	1404.32
401.24	1420.71
401.44	1533.05
401.63	1446.45
401.82	1462.83
402.01	1401.98
402.21	1511.99
402.40	1486.24
402.59	1483.90
402.78	1495.60
402.97	1614.97
403.17	1596.25
403.36	1558.80
403.55	1624.33
403.74	1430.07
403.93	1577.52
404.13	1633.69
404.32	1554.12
404.51	1558.80
404.70	1629.01
404.89	1701.57
405.09	1645.40
405.28	1666.46
405.47	1732.00
405.66	1680.50
405.85	1771.79
406.05	1743.70
406.24	1729.66
406.43	1739.02
406.62	1778.81
406.81	1858.39
407.00	1739.02
407.20	1741.36
407.39	1820.94
407.58	1792.85
407.77	1792.85
407.96	1802.21
408.15	1947.33
408.34	1933.28
408.54	2024.56
408.73	1893.49
408.92	1916.90
409.11	2083.08
409.30	2022.22
409.49	1982.43
409.68	1923.92
409.87	1996.48
410.07	2104.14
410.26	2118.18
410.45	2139.25
410.64	2143.93
410.83	2008.18
411.02	2101.80
411.21	2132.23
411.40	2155.63
411.59	2260.96
411.78	2155.63
411.98	2267.98
412.17	2223.51
412.36	2275.00
412.55	2242.23
412.74	2406.07
412.93	2396.71
413.12	2324.15
413.31	2401.39
413.50	2396.71
413.69	2392.03
413.88	2539.48
414.07	2455.22
414.26	2452.88
414.45	2541.82
414.64	2436.50
414.83	2532.46
415.02	2616.72
415.22	2698.64
415.41	2609.70
415.60	2710.34
415.79	2630.76
415.98	2750.13
416.17	2827.37
416.36	2853.11
416.55	2796.94
416.74	2871.84
416.93	2808.64
417.12	2794.60
417.31	2825.03
417.50	2871.84
417.69	2920.99
417.88	2920.99
418.07	2885.88
418.26	3007.59
418.45	2988.86
418.64	3068.44
418.83	3028.65
419.02	3110.57
419.21	3178.45
419.39	3141.00
419.58	3094.19
419.77	3087.17
419.96	3194.83
420.15	3084.83
420.34	3255.69
420.53	3183.13
420.72	3239.30
420.91	3220.58
421.10	3309.52
421.29	3384.41
421.48	3279.09
421.67	3258.03
421.86	3304.84
422.05	3346.97
422.24	3358.67
422.43	3232.28
422.61	3356.33
422.80	3400.80
422.99	3454.63
423.18	3442.93
423.37	3496.76
423.56	3377.39
423.75	3342.28
423.94	3391.44
424.13	3176.11
424.32	3389.10
424.50	3428.88
424.69	3517.83
424.88	3552.93
425.07	3438.25
425.26	3538.89
425.45	3684.00
425.64	3417.18
425.83	3487.40
426.01	3496.76
426.20	3545.91
426.39	3447.61
426.58	3499.10
426.77	3571.66
426.96	3550.59
427.15	3712.09
427.33	3700.39
427.52	3557.61
427.71	3686.34
427.90	3674.64
428.09	3604.42
428.28	3871.25
428.46	3658.26
428.65	3700.39
428.84	3915.72
429.03	3779.97
429.22	3625.49
429.40	3723.79
429.59	3794.01
429.78	3768.26
429.97	3646.55
430.16	3868.91
430.34	3810.39
430.53	3880.61
430.72	3871.25
430.91	3840.82
431.10	3805.71
431.28	3873.59
431.47	4004.66
431.66	3962.53
431.85	3922.74
432.03	4152.11
432.22	4117.00
432.41	4145.09
432.60	4081.89
432.79	4039.76
432.97	4173.18
433.16	4105.30
433.35	4266.80
433.54	4306.59
433.72	4196.58
433.91	4159.13
434.10	4329.99
434.28	4222.33
434.47	4334.67
434.66	4423.61
434.85	4313.61
435.03	4353.40
435.22	4358.08
435.41	4465.74
435.59	4353.40
435.78	4369.78
435.97	4589.79
436.16	4339.35
436.34	4475.10
436.53	4514.89
436.72	4578.09
436.90	4393.19
437.09	4528.94
437.28	4521.92
437.46	4620.22
437.65	4753.63
437.84	4580.43
438.02	4610.86
438.21	4690.43
438.40	4648.30
438.58	4802.78
438.77	4674.05
438.96	4898.74
439.14	4858.95
439.33	4966.62
439.52	4952.57
439.70	5022.79
439.89	5050.88
440.08	5151.52
440.26	5205.35
440.45	5118.75
440.63	5111.73
440.82	5408.98
441.01	5123.43
441.19	5249.82
441.38	5195.99
441.57	5355.15
441.75	5364.51
441.94	5444.09
442.12	5528.35
442.31	5610.26
442.50	5406.64
442.68	5500.26
442.87	5514.30
443.05	5486.22
443.24	5474.51
443.43	5509.62
443.61	5692.18
443.80	5760.06
443.98	5584.52
444.17	5327.06
444.35	5619.63
444.54	5598.56
444.73	5668.78
444.91	5685.16
445.10	5790.49
445.28	5610.26
445.47	5556.43
445.65	5633.67
445.84	5912.19
446.02	5783.46
446.21	5746.02
446.39	5699.20
446.58	5738.99
446.77	5795.17
446.95	5638.35
447.14	5785.80
447.32	5774.10
447.51	5783.46
447.69	5799.85
447.88	5746.02
448.06	5760.06
448.25	5816.23
448.43	5886.45
448.62	5720.27
448.80	5879.43
448.99	5963.68
449.17	5954.32
449.36	5717.93
449.54	5909.85
449.73	6061.99
449.91	6155.61
450.10	6155.61
450.28	6171.99
450.46	6188.38
450.65	6097.10
450.83	6125.18
451.02	6150.93
451.20	6363.92
451.39	6216.46
451.57	6132.20
451.76	6169.65
451.94	6258.59
452.13	6408.39
452.31	6438.81
452.49	6157.95
452.68	6438.81
452.86	6284.34
453.05	6429.45
453.23	6539.46
453.42	6284.34
453.60	6441.15
453.78	6555.84
453.97	6384.98
454.15	6579.25
454.34	6399.02
454.52	6541.80
454.70	6710.32
454.89	6722.02
455.07	6541.80
455.26	6597.97
455.44	6614.35
455.62	6700.95
455.81	6832.02
455.99	7040.33
456.17	6832.02
456.36	6874.15
456.54	7042.67
456.73	6876.49
456.91	7164.38
457.09	6995.86
457.28	7180.76
457.46	7002.88
457.64	7260.34
457.83	7208.85
458.01	7040.33
458.19	7372.69
458.38	7208.85
458.56	7321.20
458.74	7232.26
458.93	7178.42
459.11	7248.64
459.29	7386.73
459.48	7349.28
459.66	7459.29
459.84	7396.09
460.03	7655.89
460.21	7297.79
460.39	7384.39
460.57	7534.18
460.76	7447.58
460.94	7403.11
461.12	7573.97
461.31	7637.17
461.49	7496.74
461.67	7478.01
461.85	7803.35
462.04	7653.55
462.22	8131.02
462.40	8095.91
462.59	7681.64
462.77	7775.26
462.95	7728.45
463.13	7667.60
463.32	7812.71
463.50	7974.21
463.68	8016.33
463.86	7873.56
464.05	7698.02
464.23	7808.03
464.41	8051.44
464.59	7885.26
464.78	8079.53
464.96	8035.06
465.14	8004.63
465.32	8152.09
465.50	8112.30
465.69	8177.83
465.87	8201.24
466.05	8156.77
466.23	8315.92
466.41	8102.93
466.60	8290.18
466.78	8276.13
466.96	8269.11
467.14	8278.47
467.32	8414.23
467.51	8521.89
467.69	8201.24
467.87	8475.08
468.05	8409.54
468.23	8432.95
468.41	8348.69
468.60	8486.78
468.78	8568.70
468.96	8554.66
469.14	8800.41
469.32	8716.16
469.50	8568.70
469.69	8650.62
469.87	8809.78
470.05	8926.80
470.23	9097.66
470.41	9121.07
470.59	8915.10
470.77	8690.41
470.95	8952.55
471.14	8945.53
471.32	8938.51
471.50	9081.28
471.68	9092.98
471.86	9111.71
472.04	9256.82
472.22	9540.02
472.40	9137.45
472.58	9273.20
472.77	9226.39
472.95	9380.87
473.13	10064.30
473.31	9605.56
473.49	9584.49
473.67	9465.13
473.85	9710.88
474.03	9628.96
474.21	9802.16
474.39	9769.40
474.57	9949.62
474.75	9961.32
474.93	10045.58
475.12	10164.95
475.30	10022.17
475.48	10054.94
475.66	10251.55
475.84	10176.65
476.02	10153.24
476.20	10164.95
476.38	10452.83
476.56	10672.84
476.74	10586.24
476.92	10661.14
477.10	10406.02
477.28	10796.89
477.46	10932.64
477.64	10817.96
477.82	10942.00
478.00	11250.96
478.18	11257.98
478.36	11353.94
478.54	11405.43
478.72	11637.14
478.90	11463.94
479.08	11709.70
479.26	11784.60
479.44	11817.36
479.62	11857.15
479.80	11971.84
479.98	12060.78
480.16	12624.85
480.34	12180.15
480.52	12215.26
480.70	12430.59
480.88	12196.53
481.06	12365.05
481.24	12681.02
481.41	12805.07
481.59	12807.41
481.77	12849.54
481.95	13034.44
482.13	13095.30
482.31	13179.56
482.49	13621.92
482.67	13488.51
482.85	13654.69
483.03	13486.17
483.21	13448.72
483.39	13841.93
483.57	14015.13
483.74	13853.63
483.92	14132.15
484.10	14230.46
484.28	14555.79
484.46	14487.92
484.64	14726.65
484.82	14494.94
485.00	14726.65
485.18	14871.76
485.35	15033.26
485.53	15103.48
485.71	15403.07
485.89	15683.93
486.07	15499.03
486.25	15506.05
486.43	15768.19
486.61	15817.34
486.78	15747.12
486.96	16212.89
487.14	16173.10
487.32	16339.28
487.50	16458.65
487.68	16369.71
487.85	16681.00
488.03	16896.33
488.21	17158.47
488.39	17254.43
488.57	17317.62
488.75	17418.27
488.92	17579.76
489.10	17502.53
489.28	17511.89
489.46	17612.53
489.64	17975.31
489.81	18436.40
489.99	18314.69
490.17	18408.31
490.35	18700.88
490.53	18373.21
490.70	18822.59
490.88	18679.82
491.06	19066.00
491.24	19297.72
491.41	19068.34
491.59	19438.15
491.77	19400.70
491.95	19325.80
492.13	19421.77
492.30	19585.60
492.48	19857.10
492.66	19814.98
492.84	20236.27
493.01	19946.05
493.19	20299.47
493.37	20393.09
493.54	20482.03
493.72	21128.02
493.90	21081.21
494.08	20823.75
494.25	20940.77
494.43	21238.02
494.61	21589.10
494.79	21458.03
494.96	21542.29
495.14	21804.43
495.32	21947.20
495.49	21823.16
495.67	21968.27
495.85	22237.43
496.02	22431.69
496.20	22478.50
496.38	22768.73
496.55	22663.41
496.73	23091.73
496.91	22691.49
497.09	22822.56
497.26	23274.29
497.44	22974.70
497.62	23285.99
497.79	23428.76
497.97	23281.31
498.14	23845.38
498.32	23447.49
498.50	23852.40
498.67	24402.43
498.85	24128.58
499.03	24280.72
499.20	24353.27
499.38	24594.35
499.56	24486.68
499.73	24723.08
499.91	25013.31
500.08	24966.49
500.26	24713.72
500.44	24884.58
500.61	25238.00
500.79	24702.01
500.97	25230.98
501.14	25474.39
501.32	25832.49
501.49	25467.37
501.67	25497.80
501.84	25813.77
502.02	25617.16
502.20	25823.13
502.37	26040.80
502.55	25844.20
502.72	25865.26
502.90	26183.57
503.07	26099.31
503.25	26036.12
503.43	26307.62
503.60	26768.71
503.78	26581.46
503.95	26726.58
504.13	26974.67
504.30	26689.13
504.48	26855.31
504.65	27063.61
504.83	27454.48
505.01	27414.69
505.18	27388.95
505.36	27618.32
505.53	27152.55
505.71	27562.15
505.88	27878.12
506.06	27749.39
506.23	27758.75
506.41	27765.78
506.58	28343.89
506.76	27927.27
506.93	28212.82
507.11	28308.78
507.28	28371.97
507.46	28189.41
507.63	28346.23
507.81	28713.69
507.98	28297.08
508.16	28863.49
508.33	28758.16
508.50	29153.71
508.68	28732.42
508.85	28933.70
509.03	28879.87
509.20	29628.84
509.38	29593.73
509.55	29312.87
509.73	29298.83
509.90	29579.69
510.08	30085.25
510.25	29483.73
510.42	29951.84
510.60	30054.82
510.77	30230.36
510.95	30448.03
511.12	30068.86
511.30	29914.39
511.47	30614.21
511.64	30199.93
511.82	30684.42
511.99	30506.54
512.17	30759.32
512.34	30595.48
512.51	31225.09
512.69	30932.52
512.86	30974.65
513.04	31412.33
513.21	30967.63
513.38	31288.28
513.56	31861.71
513.73	31566.81
513.90	31335.09
514.08	31519.99
514.25	31545.74
514.43	31812.56
514.60	31651.06
514.77	32002.14
514.95	32135.56
515.12	31964.70
515.29	31948.31
515.47	32519.40
515.64	32098.11
515.81	31838.31
515.99	32187.05
516.16	32617.71
516.33	32542.81
516.51	32561.53
516.68	32678.56
516.85	32662.18
517.03	32933.68
517.20	32795.59
517.37	33090.49
517.54	33092.83
517.72	33352.63
517.89	33179.43
518.06	32685.58
518.24	33371.36
518.41	33266.03
518.58	33209.86
518.75	33202.84
518.93	33839.47
519.10	33376.04
519.27	33865.21
519.45	33986.92
519.62	34455.03
519.79	34038.41
519.96	34195.23
520.14	34073.52
520.31	33811.38
520.48	34007.98
520.65	34363.75
520.83	34309.91
521.00	34553.33
521.17	34518.22
521.34	34546.31
521.52	34763.98
521.69	34670.36
521.86	35161.87
522.03	35101.01
522.20	35056.54
522.38	35316.34
522.55	35072.93
522.72	35358.47
522.89	35473.16
523.07	35550.40
523.24	35519.97
523.41	35896.80
523.58	35634.66
523.75	36100.42
523.92	35924.88
524.10	35405.28
524.27	35840.62
524.44	36044.25
524.61	36362.56
524.78	36512.36
524.96	36175.32
525.13	36495.97
525.30	36313.41
525.47	36411.71
525.64	36364.90
525.81	36556.83
525.98	36439.80
526.16	36760.45
526.33	36320.43
526.50	36833.01
526.67	36704.28
526.84	36762.79
527.01	37336.23
527.18	36964.08
527.36	36603.64
527.53	36779.18
527.70	37432.19
527.87	37731.78
528.04	37277.71
528.21	37312.82
528.38	37621.77
528.55	37511.77
528.72	37635.81
528.89	37619.43
529.07	37486.02
529.24	37387.72
529.41	38188.18
529.58	37783.27
529.75	37731.78
529.92	38127.33
530.09	37888.59
530.26	37998.60
530.43	38136.69
530.60	37785.61
530.77	38108.60
530.94	38359.04
531.11	37963.49
531.28	38443.30
531.46	38426.92
531.63	38679.69
531.80	38532.24
531.97	38663.31
532.14	38740.55
532.31	38988.64
532.48	38473.73
532.65	38693.74
532.82	38869.28
532.99	38897.36
533.16	38892.68
533.33	39222.70
533.50	39381.85
533.67	38824.81
533.84	38731.18
534.01	39180.57
534.18	39367.81
534.35	39477.82
534.52	39100.99
534.69	39594.84
534.86	40065.29
535.03	39531.65
535.20	39290.57
535.37	39852.30
535.54	39964.65
535.71	39466.11
535.88	40369.56
536.05	39896.77
536.22	40163.59
536.38	40074.65
536.55	39800.81
536.72	40177.64
536.89	39889.75
537.06	40399.99
537.23	40177.64
537.40	40161.25
537.57	39737.62
537.74	40463.18
537.91	40940.65
538.08	40446.80
538.25	40481.91
538.42	40804.90
538.59	40797.88
538.75	40800.22
538.92	40421.05
539.09	40877.46
539.26	41148.96
539.43	41148.96
539.60	40865.75
539.77	40781.49
539.94	41769.20
540.11	40952.35
540.28	41226.20
540.44	41254.28
540.61	41205.13
540.78	40945.33
540.95	41375.99
541.12	41305.77
541.29	41230.88
541.46	41359.61
541.62	41399.40
541.79	41453.23
541.96	41031.93
542.13	41455.57
542.30	41383.01
542.47	41867.50
542.63	41848.78
542.80	41764.52
542.97	41869.84
543.14	41827.71
543.31	41893.25
543.48	42424.55
543.64	42831.80
543.81	42569.66
543.98	42148.37
544.15	41972.83
544.32	42759.25
544.48	42887.98
544.65	42951.17
544.82	43236.72
544.99	42356.67
545.16	42181.13
545.32	42658.60
545.49	42981.60
545.66	43129.05
545.83	42768.61
546.00	43107.99
546.16	42817.76
546.33	42707.76
546.50	42990.96
546.67	43065.86
546.83	42457.32
547.00	43040.11
547.17	43026.07
547.34	42763.93
547.50	43367.79
547.67	44219.74
547.84	43718.87
548.00	43590.14
548.17	43770.36
548.34	43264.80
548.51	43894.41
548.67	43147.78
548.84	43700.14
549.01	43761.00
549.18	43655.67
549.34	43388.85
549.51	44240.81
549.68	43934.20
549.84	43412.26
550.01	44278.25
550.18	43566.73
550.34	43765.68
550.51	44009.09
550.68	44252.51
550.84	43700.14
551.01	44121.44
551.18	43821.85
551.34	43639.29
551.51	44406.98
551.68	44215.06
551.84	43990.37
552.01	43887.39
552.18	44296.98
552.34	44034.84
552.51	44376.56
552.68	44430.39
552.84	44563.80
553.01	44299.32
553.18	44928.92
553.34	44168.25
553.51	44348.47
553.67	44868.07
553.84	44982.76
554.01	44699.55
554.17	44830.62
554.34	44940.63
554.51	44814.24
554.67	44854.03
554.84	45125.53
555.00	44875.09
555.17	44919.56
555.33	45001.48
555.50	44858.71
555.67	45200.43
555.83	44713.59
556.00	45322.13
556.16	45579.59
556.33	45160.64
556.50	44666.78
556.66	44868.07
556.83	45216.81
556.99	45392.35
557.16	45574.91
557.32	45586.61
557.49	45394.69
557.65	45284.68
557.82	45375.97
557.98	45326.81
558.15	45441.50
558.32	45591.30
558.48	45340.86
558.65	45815.99
558.81	45799.60
558.98	45631.08
559.14	45607.68
559.31	45610.02
559.47	45397.03
559.64	45638.11
559.80	45673.21
559.97	46150.68
560.13	45628.74
560.30	45708.32
560.46	45848.75
560.63	46108.55
560.79	46195.15
560.96	45659.17
561.12	46206.86
561.29	46136.64
561.45	46162.39
561.61	45787.90
561.78	45869.82
561.94	46010.25
562.11	45998.55
562.27	46307.50
562.44	45727.05
562.60	46073.45
562.77	46197.49
562.93	45731.73
563.10	46408.14
563.26	46078.13
563.42	46726.46
563.59	46501.76
563.75	46117.92
563.92	46408.14
564.08	45970.46
564.24	46454.95
564.41	46686.67
564.57	46195.15
564.74	46340.27
564.90	46604.75
565.07	46061.74
565.23	46234.94
565.39	46438.57
565.56	46501.76
565.72	46443.25
565.88	46433.89
566.05	46581.34
566.21	46738.16
566.38	46204.52
566.54	46529.85
566.70	47072.85
566.87	46799.01
567.03	46501.76
567.19	46635.17
567.36	46810.71
567.52	46511.13
567.68	47192.22
567.85	46422.19
568.01	46958.17
568.17	46784.97
568.34	47103.28
568.50	46986.25
568.66	46780.29
568.83	46876.25
568.99	46581.34
569.15	47161.79
569.32	47133.71
569.48	46508.79
569.64	47234.35
569.81	47122.01
569.97	47592.45
570.13	47049.45
570.30	46918.38
570.46	46951.15
570.62	46962.85
570.78	47206.26
570.95	47435.64
571.11	47180.52
571.27	47189.88
571.43	47054.13
571.60	47044.77
571.76	46712.41
571.92	47030.72
572.09	46948.81
572.25	47065.83
572.41	46857.52
572.57	46972.21
572.74	47599.47
572.90	47203.92
573.06	46824.76
573.22	47150.09
573.38	47210.95
573.55	47004.98
573.71	47779.70
573.87	47056.47
574.03	46988.60
574.20	47330.31
574.36	46965.19
574.52	47143.07
574.68	46951.15
574.84	47157.11
575.01	47353.72
575.17	47840.55
575.33	47402.87
575.49	47236.69
575.65	47571.39
575.82	47199.24
575.98	47400.53
576.14	47606.50
576.30	47718.84
576.46	47620.54
576.62	47246.05
576.79	47412.23
576.95	46796.67
577.11	47400.53
577.27	47234.35
577.43	47002.64
577.59	47313.93
577.75	47487.13
577.92	47096.26
578.08	47391.17
578.24	47576.07
578.40	47552.66
578.56	47456.70
578.72	47707.14
578.88	47849.91
579.04	47192.22
579.21	47487.13
579.37	47601.82
579.53	47615.86
579.69	47786.72
579.85	47281.16
580.01	47793.74
580.17	47423.93
580.33	47639.26
580.49	47353.72
580.65	47508.19
580.82	47578.41
580.98	47173.50
581.14	47299.89
581.30	47515.22
581.46	47143.07
581.62	47559.69
581.78	47023.70
581.94	47475.43
582.10	47606.50
582.26	47753.95
582.42	47583.09
582.58	47552.66
582.74	47784.38
582.90	47690.76
583.06	47629.90
583.22	47297.55
583.38	47494.15
583.54	47910.77
583.70	47555.00
583.86	47562.03
584.02	47800.76
584.18	47767.99
584.34	47819.49
584.50	47770.33
584.66	47863.96
584.82	47845.23
584.98	47903.74
585.14	47515.22
585.30	47672.03
585.46	47590.11
585.62	47545.64
585.78	48088.65
585.94	47466.06
586.10	47648.63
586.26	47665.01
586.42	47423.93
586.58	48053.54
586.74	47798.42
586.90	47763.31
587.06	47878.00
587.22	48044.18
587.38	47870.98
587.54	47948.21
587.70	47859.27
587.86	47840.55
588.02	47985.66
588.18	47992.68
588.34	47732.89
588.49	47536.28
588.65	47835.87
588.81	47833.53
588.97	47782.04
589.13	48046.52
589.29	48086.31
589.45	48294.61
589.61	48102.69
589.77	48229.08
589.93	48025.45
590.08	48348.45
590.24	48088.65
590.40	48252.48
590.56	48498.24
590.72	48626.97
590.88	48360.15
591.04	48320.36
591.20	48549.73
591.35	48168.22
591.51	48540.37
591.67	48318.02
591.83	48484.20
591.99	48266.53
592.15	47718.84
592.31	48598.88
592.46	47887.36
592.62	48142.48
592.78	48236.10
592.94	48210.35
593.10	48587.18
593.26	48540.37
593.41	48645.69
593.57	48140.14
593.73	48430.36
593.89	48514.62
594.05	48741.66
594.20	48456.11
594.36	48531.01
594.52	49127.84
594.68	48725.27
594.84	48039.50
594.99	48547.39
595.15	48559.09
595.31	48811.87
595.47	48311.00
595.62	48603.56
595.78	48369.51
595.94	48437.39
596.10	48257.17
596.25	48610.59
596.41	48797.83
596.57	47962.26
596.73	48846.98
596.88	48500.58
597.04	48406.96
597.20	48549.73
597.36	48491.22
597.51	48554.41
597.67	48168.22
597.83	48598.88
597.99	48446.75
598.14	48360.15
598.30	48807.19
598.46	48839.96
598.61	48741.66
598.77	48671.44
598.93	48189.29
599.09	48559.09
599.24	49020.18
599.40	48418.66
599.56	48910.17
599.71	48905.49
599.87	48802.51
600.03	49162.95
600.18	48718.25
600.34	48650.38
600.50	48912.52
600.65	48631.65
600.81	48996.77
600.97	48760.38
601.12	48854.00
601.28	48795.49
601.44	48596.54
601.59	48790.81
601.75	48193.97
601.91	48837.62
602.06	48486.54
602.22	48879.75
602.37	48449.09
602.53	48502.92
602.69	48542.71
602.84	48432.71
603.00	48631.65
603.16	48758.04
603.31	48680.80
603.47	48900.81
603.62	48722.93
603.78	48746.34
603.94	48671.44
604.09	48842.30
604.25	48533.35
604.40	48409.30
604.56	48725.27
604.71	48924.22
604.87	48657.40
605.03	48610.59
605.18	48610.59
605.34	48893.79
605.49	48603.56
605.65	48989.75
605.80	48268.87
605.96	48652.72
606.12	48381.21
606.27	48804.85
606.43	48336.74
606.58	48828.26
606.74	48442.07
606.89	48547.39
607.05	48666.76
607.20	48797.83
607.36	48650.38
607.51	48701.87
607.67	48486.54
607.82	48666.76
607.98	48807.19
608.13	48495.90
608.29	48542.71
608.44	48507.60
608.60	48170.57
608.75	48463.13
608.91	48479.52
609.06	48411.64
609.22	48542.71
609.37	48011.41
609.53	48694.85
609.68	48484.20
609.84	48341.42
609.99	48725.27
610.15	48360.15
610.30	48692.50
610.46	48383.55
610.61	48301.64
610.76	48584.84
610.92	48215.04
611.07	48484.20
611.23	48193.97
611.38	48222.06
611.54	48123.75
611.69	48727.61
611.84	48041.84
612.00	48238.44
612.15	48065.24
612.31	47915.45
612.46	48156.52
612.62	48285.25
612.77	47856.93
612.92	48474.84
613.08	48327.38
613.23	48486.54
613.39	47978.64
613.54	47735.23
613.69	48158.86
613.85	48252.48
614.00	48081.63
614.15	48278.23
614.31	48037.16
614.46	47910.77
614.62	47784.38
614.77	47988.00
614.92	47723.52
615.08	47665.01
615.23	47959.92
615.38	48142.48
615.54	48137.80
615.69	48002.05
615.84	48198.65
616.00	47948.21
616.15	47870.98
616.30	48212.70
616.46	47875.66
616.61	47793.74
616.76	47910.77
616.92	47847.57
617.07	47936.51
617.22	47739.91
617.37	47496.49
617.53	47580.75
617.68	47487.13
617.83	47688.42
617.99	47878.00
618.14	47735.23
618.29	47210.95
618.45	47533.94
618.60	47583.09
618.75	47086.90
618.90	47679.05
619.06	47613.52
619.21	47723.52
619.36	47702.46
619.51	47185.20
619.67	47278.82
619.82	47306.91
619.97	47545.64
620.12	47288.18
620.28	47112.64
620.43	47475.43
620.58	47566.71
620.73	47185.20
620.89	47538.62
621.04	47709.48
621.19	47061.15
621.34	47271.80
621.49	47271.80
621.65	47290.52
621.80	47735.23
621.95	47185.20
622.10	47124.35
622.25	46794.33
622.41	46958.17
622.56	47164.14
622.71	46679.64
622.86	47138.39
623.01	46862.21
623.16	46777.95
623.32	46916.04
623.47	47004.98
623.62	46855.18
623.77	47206.26
623.92	47330.31
624.07	46684.33
624.23	47150.09
624.38	46944.12
624.53	46705.39
624.68	46700.71
624.83	46733.48
624.98	46733.48
625.13	46401.12
625.29	46674.96
625.44	46492.40
625.59	46724.11
625.74	46995.62
625.89	46450.27
626.04	46499.42
626.19	46855.18
626.34	46464.32
626.49	46412.82
626.65	45853.44
626.80	46162.39
626.95	46256.01
627.10	45933.01
627.25	45869.82
627.40	46333.24
627.55	46326.22
627.70	46134.30
627.85	46431.55
628.00	46391.76
628.15	46066.42
628.30	45830.03
628.45	45696.62
628.60	45970.46
628.76	46169.41
628.91	46377.72
629.06	45642.79
629.21	45563.21
629.36	45593.64
629.51	46110.89
629.66	46401.12
629.81	46047.70
629.96	46059.40
630.11	46239.62
630.26	45621.72
630.41	45815.99
630.56	45741.09
630.71	45691.94
630.86	45680.24
631.01	45439.16
631.16	45516.40
631.31	45640.45
631.46	45425.12
631.61	45963.44
631.76	45944.72
631.91	45691.94
632.06	46012.59
632.21	45832.37
632.36	46071.10
632.51	44818.92
632.66	45490.65
632.81	45120.85
632.96	45624.06
633.10	45614.70
633.25	45375.97
633.40	45394.69
633.55	45502.35
633.70	45586.61
633.85	45270.64
634.00	44821.26
634.15	44989.78
634.30	45130.21
634.45	45277.66
634.60	45535.12
634.75	45481.29
634.90	45074.04
635.05	45387.67
635.19	45595.98
635.34	44898.50
635.49	45371.28
635.64	44877.43
635.79	45600.66
635.94	45160.64
636.09	45272.98
636.24	44744.02
636.39	45118.51
636.53	45268.30
636.68	44444.43
636.83	44416.35
636.98	44762.75
637.13	44575.50
637.28	44617.63
637.43	44528.69
637.57	44823.60
637.72	44671.46
637.87	44577.84
638.02	44552.10
638.17	44325.07
638.32	44538.05
638.46	44229.10
638.61	44037.18
638.76	44437.41
638.91	44409.32
639.06	44680.83
639.20	44048.88
639.35	44282.94
639.50	43838.23
639.65	44011.43
639.80	44563.80
639.94	44472.52
640.09	44615.29
640.24	44360.17
640.39	44069.95
640.54	43665.03
640.68	43861.64
640.83	44795.51
640.98	44074.63
641.13	43749.29
641.27	44128.46
641.42	43950.58
641.57	44100.37
641.72	43819.51
641.86	44025.48
642.01	43672.06
642.16	43768.02
642.31	43367.79
642.45	43676.74
642.60	43641.63
642.75	43578.43
642.90	43892.07
643.04	43756.32
643.19	43732.91
643.34	43702.48
643.48	43147.78
643.63	43243.74
643.78	43330.34
643.93	43536.30
644.07	43758.66
644.22	43779.72
644.37	43133.73
644.51	43725.89
644.66	43973.98
644.81	43217.99
644.95	43400.55
645.10	43449.70
645.25	43533.96
645.39	43351.40
645.54	43290.55
645.69	42831.80
645.83	42988.62
645.98	43723.55
646.13	42958.19
646.27	42637.54
646.42	42951.17
646.57	43150.12
646.71	43229.69
646.86	43487.15
647.00	43136.07
647.15	43503.54
647.30	43562.05
647.44	43115.01
647.59	42792.01
647.74	42682.01
647.88	43105.65
648.03	43438.00
648.17	43136.07
648.32	42948.83
648.47	43283.53
648.61	42646.90
648.76	42843.51
648.90	43056.50
649.05	42679.67
649.20	42944.15
649.34	42995.64
649.49	42813.08
649.63	42815.42
649.78	42902.02
649.92	42939.47
650.07	43257.78
650.21	43150.12
650.36	42850.53
650.51	42747.54
650.65	42972.24
650.80	42829.46
650.94	42944.15
651.09	42078.15
651.23	42639.88
651.38	42689.03
651.52	41865.16
651.67	42349.65
651.81	42541.58
651.96	42068.79
652.10	41839.42
652.25	42466.68
652.39	42181.13
652.54	42181.13
652.68	41586.64
652.83	42122.62
652.97	42457.32
653.12	42230.29
653.26	42225.60
653.41	42061.77
653.55	41897.93
653.70	41790.27
653.84	42064.11
653.99	42466.68
654.13	41525.78
654.27	42384.76
654.42	42026.66
654.56	41841.76
654.71	41816.01
654.85	42052.41
655.00	41984.53
655.14	42218.58
655.29	41666.22
655.43	42398.80
655.57	41715.37
655.72	41645.15
655.86	41759.84
656.01	41244.92
656.15	41624.09
656.30	41064.70
656.44	41862.82
656.58	41799.63
656.73	41233.22
656.87	41287.05
657.01	41165.34
657.16	41347.90
657.30	40837.67
657.45	41474.29
657.59	41471.95
657.73	41261.30
657.88	41198.11
658.02	41808.99
658.16	40989.80
658.31	41099.81
658.45	41240.24
658.60	40884.48
658.74	41132.57
658.88	41343.22
659.03	40950.01
659.17	40961.72
659.31	40620.00
659.46	40643.40
659.60	40849.37
659.74	40650.42
659.89	40334.45
660.03	40526.38
660.17	40620.00
660.32	40418.71
660.46	40374.24
660.60	39901.45
660.74	40297.00
660.89	40856.39
661.03	40304.02
661.17	39959.97
661.32	39889.75
661.46	39966.99
661.60	39964.65
661.74	40179.98
661.89	39831.24
662.03	39852.30
662.17	39796.13
662.31	39571.44
662.46	39796.13
662.60	39608.89
662.74	39704.85
662.88	39283.55
663.03	38981.62
663.17	39608.89
663.31	39360.79
663.45	39098.65
663.60	39697.83
663.74	39351.43
663.88	39402.92
664.02	39508.24
664.17	39206.31
664.31	39412.28
664.45	38829.49
664.59	39344.41
664.73	39157.16
664.88	38775.66
665.02	38724.16
665.16	38845.87
665.30	38670.33
665.44	38459.68
665.59	38422.23
665.73	38422.23
665.87	38019.66
666.01	38408.19
666.15	38300.53
666.29	38597.77
666.44	38710.12
666.58	38693.74
666.72	37890.93
666.86	37949.45
667.00	37986.89
667.14	37919.02
667.28	38092.22
667.43	37998.60
667.57	38534.58
667.71	38220.95
667.85	37581.98
667.99	37883.91
668.13	37645.18
668.27	37371.33
668.41	37504.74
668.56	36933.65
668.70	36992.17
668.84	36985.15
668.98	37219.20
669.12	37015.57
669.26	37153.66
669.40	37256.65
669.54	37214.52
669.68	37200.47
669.82	37095.15
669.96	36847.05
670.10	36292.35
670.25	36886.84
670.39	36409.37
670.53	36617.68
670.67	36673.85
670.81	36870.46
670.95	36474.91
671.09	36170.64
671.23	36016.16
671.37	36435.12
671.51	36147.23
671.65	35934.24
671.79	35922.54
671.93	35929.56
672.07	36102.76
672.21	35985.74
672.35	35550.40
672.49	35510.61
672.63	35704.87
672.77	35405.28
672.91	35688.49
673.05	35648.70
673.19	35026.12
673.33	35206.34
673.47	34845.90
673.61	35122.08
673.75	34796.74
673.89	34668.02
674.03	34726.53
674.17	34295.87
674.31	34293.53
674.45	34284.17
674.59	34555.67
674.73	34749.93
674.87	33965.85
675.01	34256.08
675.15	33692.01
675.29	33532.86
675.43	34012.66
675.56	34225.65
675.70	33713.08
675.84	33371.36
675.98	32631.75
676.12	33392.42
676.26	33797.34
676.40	33422.85
676.54	32783.88
676.68	33041.34
676.82	32755.80
676.96	33116.24
677.10	33097.52
677.23	32854.10
677.37	33074.11
677.51	32184.71
677.65	32680.90
677.79	32161.30
677.93	31990.44
678.07	31974.06
678.21	32158.96
678.34	32126.19
678.48	31789.16
678.62	31693.19
678.76	32236.20
678.90	31339.77
679.04	31969.38
679.18	31906.18
679.31	31491.91
679.45	31512.97
679.59	31175.94
679.73	31147.85
679.87	31192.32
680.00	31173.60
680.14	31393.61
680.28	31166.57
680.42	30529.95
680.56	30761.66
680.70	30499.52
680.83	30375.47
680.97	30204.61
681.11	30141.42
681.25	29823.11
681.39	29647.57
681.52	30019.71
681.66	29448.62
681.80	29221.59
681.94	29249.67
682.07	29406.49
682.21	28844.76
682.35	28823.70
682.49	29078.82
682.62	28985.19
682.76	28835.40
682.90	28521.77
683.04	28706.67
683.17	28919.66
683.31	28393.04
683.45	28233.88
683.59	28158.99
683.72	28018.55
683.86	27873.44
684.00	27868.76
684.13	27779.82
684.27	27534.06
684.41	27545.76
684.55	27733.01
684.68	27882.80
684.82	27463.85
684.96	26899.78
685.09	27683.86
685.23	26941.91
685.37	27360.86
685.50	27473.21
685.64	27094.04
685.78	27005.10
685.91	26782.75
686.05	26260.81
686.19	25851.22
686.32	26405.92
686.46	25874.62
686.60	25820.79
686.73	25883.98
686.87	26106.34
687.01	25862.92
687.14	26204.64
687.28	25556.31
687.42	25710.78
687.55	25303.53
687.69	25472.05
687.82	25392.47
687.96	24797.98
688.10	25268.42
688.23	24704.35
688.37	25172.46
688.50	25329.28
688.64	25111.61
688.78	24732.44
688.91	24636.48
689.05	24847.13
689.18	24161.35
689.32	23892.19
689.46	23901.55
689.59	23814.95
689.73	24128.58
689.86	24372.00
690.00	24086.45
690.13	23981.13
690.27	23484.94
690.41	23941.34
690.54	23599.62
690.68	23623.03
690.81	23180.67
690.95	23183.01
691.08	22841.29
691.22	22707.88
691.35	22902.14
691.49	22967.68
691.62	23129.17
691.76	22483.19
691.89	22288.92
692.03	22171.89
692.16	22017.42
692.30	22466.80
692.43	22045.51
692.57	21853.58
692.70	21568.04
692.84	21818.47
692.97	21956.57
693.11	21675.70
693.24	20999.29
693.38	21371.43
693.51	21378.45
693.65	21296.53
693.78	21228.66
693.92	20966.52
694.05	20744.17
694.19	20952.48
694.32	20790.98
694.45	20772.25
694.59	21139.72
694.72	20666.93
694.86	20585.01
694.99	20287.76
695.13	20395.43
695.26	19910.94
695.39	19866.47
695.53	19896.89
695.66	19927.32
695.80	19932.00
695.93	19288.35
696.07	19641.78
696.20	19176.01
696.33	19213.46
696.47	19145.58
696.60	19342.19
696.73	19269.63
696.87	19351.55
697.00	19070.68
697.14	18838.97
697.27	18691.52
697.40	19063.66
697.54	18642.37
697.67	18670.45
697.80	18546.40
697.94	18579.17
698.07	18504.28
698.21	18239.79
698.34	18174.26
698.47	18022.12
698.61	17720.20
698.74	17942.55
698.87	18237.45
699.01	17507.21
699.14	17570.40
699.27	17458.06
699.40	17392.52
699.54	17717.86
699.67	17390.18
699.80	17207.62
699.94	17191.23
700.07	17195.92
700.20	17001.65
700.34	16858.88
700.47	16957.18
700.60	17085.91
700.73	17020.38
700.87	16603.76
701.00	16170.76
701.13	16463.33
701.26	16376.73
701.40	16430.56
701.53	16098.20
701.66	16318.22
701.79	16229.27
701.93	15843.09
702.06	15646.48
702.19	15831.38
702.32	15927.35
702.46	15896.92
702.59	16020.97
702.72	15590.31
702.85	15578.61
702.99	15466.26
703.12	15377.32
703.25	14860.06
703.38	15234.55
703.51	14941.98
703.65	14827.29
703.78	14520.68
703.91	14874.10
704.04	14853.04
704.17	14490.26
704.31	14733.67
704.44	14544.09
704.57	14349.82
704.70	14630.69
704.83	14398.98
704.96	14298.33
705.10	14195.35
705.23	14134.50
>>>>>End Processed Spectral Data<<<<<
