SpectraSuite Data File
++++++++++++++++++++++++++++++++++++
Date: Fri Oct 25 11:34:35 EDT 2013
User: price-jones
Dark Spectrum Present: No
Reference Spectrum Present: No
Number of Sampled Component Spectra: 1
Spectrometers: USB2+H05261
Integration Time (usec): 100000 (USB2+H05261)
Spectra Averaged: 1 (USB2+H05261)
Boxcar Smoothing: 0 (USB2+H05261)
Correct for Electrical Dark: No (USB2+H05261)
Strobe/Lamp Enabled: No (USB2+H05261)
Correct for Detector Non-linearity: No (USB2+H05261)
Correct for Stray Light: No (USB2+H05261)
Number of Pixels in Processed Spectrum: 2048
>>>>>Begin Processed Spectral Data<<<<<
365.73	311.29
365.92	311.29
366.12	311.29
366.32	212.99
366.52	187.24
366.72	194.26
366.91	175.54
367.11	245.76
367.31	163.84
367.51	187.24
367.70	215.33
367.90	215.33
368.10	124.05
368.30	220.01
368.49	189.58
368.69	250.44
368.89	217.67
369.09	163.84
369.28	229.37
369.48	231.71
369.68	170.86
369.87	264.48
370.07	248.10
370.27	269.16
370.47	332.36
370.66	472.79
370.86	465.77
371.06	533.64
371.25	566.41
371.45	543.00
371.65	585.13
371.84	608.54
372.04	641.31
372.24	547.69
372.44	620.24
372.63	608.54
372.83	568.75
373.03	601.52
373.22	624.92
373.42	631.94
373.62	594.50
373.81	582.79
374.01	608.54
374.21	648.33
374.40	631.94
374.60	655.35
374.79	610.88
374.99	620.24
375.19	627.26
375.38	585.13
375.58	678.76
375.78	732.59
375.97	585.13
376.17	704.50
376.37	641.31
376.56	559.39
376.76	676.41
376.95	676.41
377.15	638.97
377.35	648.33
377.54	690.46
377.74	744.29
377.93	688.12
378.13	615.56
378.33	606.20
378.52	650.67
378.72	725.57
378.91	678.76
379.11	641.31
379.31	716.20
379.50	681.10
379.70	706.84
379.89	690.46
380.09	711.52
380.28	725.57
380.48	718.54
380.68	758.33
380.87	741.95
381.07	727.91
381.26	702.16
381.46	748.97
381.65	833.23
381.85	770.04
382.04	800.46
382.24	779.40
382.43	727.91
382.63	774.72
382.83	779.40
383.02	788.76
383.22	802.80
383.41	727.91
383.61	809.83
383.80	739.61
384.00	791.10
384.19	814.51
384.39	840.25
384.58	779.40
384.78	777.06
384.97	781.74
385.17	807.48
385.36	833.23
385.56	887.06
385.75	833.23
385.95	788.76
386.14	868.34
386.34	882.38
386.53	851.96
386.72	753.65
386.92	915.15
387.11	903.45
387.31	891.74
387.50	858.98
387.70	842.59
387.89	823.87
388.09	924.51
388.28	767.70
388.48	807.48
388.67	868.34
388.86	861.32
389.06	868.34
389.25	931.53
389.45	896.43
389.64	882.38
389.84	858.98
390.03	889.40
390.22	919.83
390.42	922.17
390.61	922.17
390.81	884.72
391.00	898.77
391.19	987.71
391.39	938.55
391.58	1001.75
391.78	964.30
391.97	1015.79
392.16	936.21
392.36	997.07
392.55	1025.15
392.75	983.02
392.94	1041.54
393.13	1027.50
393.33	990.05
393.52	968.98
393.71	983.02
393.91	1008.77
394.10	990.05
394.29	1032.18
394.49	1062.60
394.68	1074.31
394.88	1100.05
395.07	1104.73
395.26	1123.46
395.46	1160.91
395.65	1055.58
395.84	1160.91
396.04	1207.72
396.23	1135.16
396.42	1256.87
396.62	1146.86
396.81	1160.91
397.00	1149.20
397.19	1137.50
397.39	1181.97
397.58	1249.85
397.77	1242.82
397.97	1184.31
398.16	1174.95
398.35	1266.23
398.55	1240.48
398.74	1259.21
398.93	1282.61
399.12	1224.10
399.32	1235.80
399.51	1282.61
399.70	1357.51
399.90	1284.95
400.09	1247.51
400.28	1284.95
400.47	1331.76
400.67	1371.55
400.86	1317.72
401.05	1392.62
401.24	1373.89
401.44	1245.16
401.63	1401.98
401.82	1425.39
402.01	1427.73
402.21	1390.28
402.40	1392.62
402.59	1469.86
402.78	1409.00
402.97	1399.64
403.17	1507.30
403.36	1502.62
403.55	1497.94
403.74	1502.62
403.93	1488.58
404.13	1624.33
404.32	1598.59
404.51	1579.86
404.70	1549.43
404.89	1568.16
405.09	1558.80
405.28	1600.93
405.47	1530.71
405.66	1717.95
405.85	1689.87
406.05	1636.03
406.24	1612.63
406.43	1636.03
406.62	1703.91
406.81	1802.21
407.00	1715.61
407.20	1664.12
407.39	1727.32
407.58	1771.79
407.77	1823.28
407.96	1844.34
408.15	1811.57
408.34	1846.68
408.54	1902.86
408.73	1837.32
408.92	1713.27
409.11	1865.41
409.30	1898.17
409.49	1851.36
409.68	2008.18
409.87	1898.17
410.07	1858.39
410.26	2010.52
410.45	1839.66
410.64	2010.52
410.83	2029.24
411.02	2012.86
411.21	2003.50
411.40	2125.21
411.59	2090.10
411.78	2078.40
411.98	2188.40
412.17	2165.00
412.36	2148.61
412.55	2193.08
412.74	2300.75
412.93	2310.11
413.12	2200.10
413.31	2263.30
413.50	2291.38
413.69	2319.47
413.88	2401.39
414.07	2380.32
414.26	2401.39
414.45	2352.24
414.64	2471.61
414.83	2438.84
415.02	2436.50
415.22	2431.82
415.41	2513.74
415.60	2579.27
415.79	2605.02
415.98	2553.52
416.17	2665.87
416.36	2579.27
416.55	2703.32
416.74	2663.53
416.93	2635.44
417.12	2654.17
417.31	2679.91
417.50	2810.98
417.69	2792.26
417.88	2850.77
418.07	2717.36
418.26	2778.22
418.45	2834.39
418.64	3007.59
418.83	2939.71
419.02	2932.69
419.21	3035.67
419.39	3009.93
419.58	3042.70
419.77	3007.59
419.96	2995.89
420.15	3131.64
420.34	2974.82
420.53	3141.00
420.72	3002.91
420.91	3119.93
421.10	3087.17
421.29	3159.72
421.48	3047.38
421.67	3206.53
421.86	3143.34
422.05	2970.14
422.24	3159.72
422.43	3206.53
422.61	3328.24
422.80	3159.72
422.99	3346.97
423.18	3162.06
423.37	3232.28
423.56	3330.58
423.75	3234.62
423.94	3281.43
424.13	3091.85
424.32	3171.43
424.50	3375.05
424.69	3372.71
424.88	3330.58
425.07	3213.56
425.26	3234.62
425.45	3248.66
425.64	3265.05
425.83	3286.11
426.01	3363.35
426.20	3265.05
426.39	3461.65
426.58	3407.82
426.77	3241.64
426.96	3363.35
427.15	3272.07
427.33	3445.27
427.52	3304.84
427.71	3445.27
427.90	3522.51
428.09	3585.70
428.28	3552.93
428.46	3538.89
428.65	3597.40
428.84	3524.85
429.03	3606.77
429.22	3473.36
429.40	3517.83
429.59	3569.32
429.78	3595.06
429.97	3492.08
430.16	3616.13
430.34	3756.56
430.53	3742.52
430.72	3735.50
430.91	3712.09
431.10	3667.62
431.28	3763.58
431.47	3880.61
431.66	3761.24
431.85	3850.18
432.03	3955.51
432.22	3962.53
432.41	3838.48
432.60	3854.86
432.79	3859.54
432.97	3854.86
433.16	3936.78
433.35	3878.27
433.54	3985.93
433.72	3981.25
433.91	4077.21
434.10	3904.01
434.28	4053.81
434.47	4025.72
434.66	4046.79
434.85	4208.28
435.03	4170.83
435.22	4093.60
435.41	4182.54
435.59	4365.10
435.78	4229.35
435.97	4262.12
436.16	4182.54
436.34	4156.79
436.53	4154.45
436.72	4381.48
436.90	4145.09
437.09	4327.65
437.28	4278.50
437.46	4259.78
437.65	4557.02
437.84	4374.46
438.02	4400.21
438.21	4311.27
438.40	4353.40
438.58	4681.07
438.77	4552.34
438.96	4482.13
439.14	4683.41
439.33	4706.82
439.52	4725.54
439.70	4730.22
439.89	4858.95
440.08	4802.78
440.26	4828.53
440.45	4809.80
440.63	4760.65
440.82	4884.70
441.01	4945.55
441.19	4933.85
441.38	4905.76
441.57	4922.15
441.75	5114.07
441.94	5078.96
442.12	5053.22
442.31	5172.58
442.50	5219.39
442.68	5310.68
442.87	5090.67
443.05	5289.61
443.24	5317.70
443.43	5231.10
443.61	5256.84
443.80	5434.72
443.98	5181.95
444.17	5177.26
444.35	5315.36
444.54	5528.35
444.73	5387.91
444.91	5345.78
445.10	5455.79
445.28	5355.15
445.47	5341.10
445.65	5502.60
445.84	5380.89
446.02	5713.25
446.21	5537.71
446.39	5474.51
446.58	5579.84
446.77	5533.03
446.95	5317.70
447.14	5399.62
447.32	5551.75
447.51	5486.22
447.69	5451.11
447.88	5593.88
448.06	5565.79
448.25	5497.92
448.43	5699.20
448.62	5533.03
448.80	5610.26
448.99	5724.95
449.17	5628.99
449.36	5570.48
449.54	5666.44
449.73	5717.93
449.91	6022.20
450.10	5776.44
450.28	6040.92
450.46	5923.90
450.65	5886.45
450.83	5926.24
451.02	5717.93
451.20	5921.56
451.39	5930.92
451.57	5844.32
451.76	5746.02
451.94	5790.49
452.13	6104.12
452.31	5863.04
452.49	5881.77
452.68	6108.80
452.86	5961.34
453.05	5959.00
453.23	6216.46
453.42	6050.28
453.60	6087.73
453.78	6188.38
453.97	6083.05
454.15	6066.67
454.34	6083.05
454.52	6310.08
454.70	6146.25
454.89	6289.02
455.07	6125.18
455.26	6279.66
455.44	6380.30
455.62	6513.71
455.81	6417.75
455.99	6333.49
456.17	6345.19
456.36	6494.99
456.54	6656.48
456.73	6534.78
456.91	6726.70
457.09	6750.10
457.28	6729.04
457.46	6555.84
457.64	6878.83
457.83	6710.32
458.01	6590.95
458.19	6822.66
458.38	6707.98
458.56	7007.56
458.74	6939.69
458.93	6881.18
459.11	6853.09
459.29	6956.07
459.48	7037.99
459.66	6899.90
459.84	6944.37
460.03	6935.01
460.21	7124.59
460.39	7014.59
460.57	7227.57
460.76	6960.75
460.94	7199.49
461.12	7185.44
461.31	7155.02
461.49	7225.23
461.67	7276.73
461.85	7501.42
462.04	7339.92
462.22	7634.83
462.40	7473.33
462.59	7370.35
462.77	7279.07
462.95	7463.97
463.13	7489.71
463.32	7372.69
463.50	7470.99
463.68	7627.81
463.86	7599.72
464.05	7529.50
464.23	7646.53
464.41	7665.25
464.59	7382.05
464.78	7761.22
464.96	7602.06
465.14	7545.89
465.32	7665.25
465.50	7789.30
465.69	7756.54
465.87	7751.85
466.05	7524.82
466.23	7489.71
466.41	7857.18
466.60	8006.97
466.78	7796.32
466.96	7726.11
467.14	7899.31
467.32	7810.37
467.51	7976.55
467.69	7803.35
467.87	7906.33
468.05	8053.78
468.23	8107.62
468.41	7985.91
468.60	7943.78
468.78	7978.89
468.96	8037.40
469.14	8044.42
469.32	8114.64
469.50	8091.23
469.69	8397.84
469.87	8374.44
470.05	8346.35
470.23	8505.51
470.41	8411.89
470.59	8463.38
470.77	8308.90
470.95	8442.31
471.14	8568.70
471.32	8397.84
471.50	8552.32
471.68	8564.02
471.86	8652.96
472.04	8727.86
472.22	8777.01
472.40	8812.12
472.58	8861.27
472.77	8898.72
472.95	9027.45
473.13	9153.84
473.31	8964.25
473.49	8915.10
473.67	9006.38
473.85	9132.77
474.03	9270.86
474.21	9320.01
474.39	9336.40
474.57	9184.26
474.75	9298.95
474.93	9586.83
475.12	9556.41
475.30	9638.33
475.48	9533.00
475.66	9577.47
475.84	9720.24
476.02	9795.14
476.20	9741.31
476.38	9841.95
476.56	10195.37
476.74	10230.48
476.92	9806.84
477.10	9991.75
477.28	10361.55
477.46	10211.76
477.64	10221.12
477.82	10588.58
478.00	10581.56
478.18	10654.12
478.36	10663.48
478.54	10927.96
478.72	10789.87
478.90	10986.47
479.08	10834.34
479.26	11311.81
479.44	11033.29
479.62	11293.08
479.80	11229.89
479.98	11447.56
480.16	11681.61
480.34	11562.25
480.52	11625.44
480.70	11662.89
480.88	11660.55
481.06	11501.39
481.24	11815.02
481.41	11992.90
481.59	12327.60
481.77	12393.14
481.95	12177.81
482.13	12498.46
482.31	12437.61
482.49	12786.35
482.67	12676.34
482.85	12535.91
483.03	13149.13
483.21	13144.45
483.39	13109.34
483.57	13170.19
483.74	13231.05
483.92	13420.63
484.10	13310.63
484.28	13820.86
484.46	13900.44
484.64	13930.87
484.82	14073.64
485.00	13937.89
485.18	14120.45
485.35	14434.08
485.53	14183.65
485.71	14249.18
485.89	14728.99
486.07	14600.26
486.25	14471.53
486.43	14775.80
486.61	15051.99
486.78	14932.62
486.96	15201.78
487.14	15358.60
487.32	15550.52
487.50	15688.61
487.68	15529.45
487.85	15953.09
488.03	15714.36
488.21	16191.83
488.39	16114.59
488.57	16381.41
488.75	16702.06
488.92	16400.13
489.10	16343.96
489.28	16779.30
489.46	16851.86
489.64	16884.62
489.81	17121.02
489.99	17195.92
490.17	17280.18
490.35	17357.41
490.53	17582.10
490.70	17523.59
490.88	17551.68
491.06	18270.22
491.24	17832.54
491.41	18132.13
491.59	18153.20
491.77	18274.90
491.95	18473.85
492.13	18651.73
492.30	18761.73
492.48	19023.87
492.66	19098.77
492.84	18693.86
493.01	19435.81
493.19	18881.10
493.37	19623.05
493.54	19583.26
493.72	19543.47
493.90	19716.67
494.08	19878.17
494.25	19906.26
494.43	19737.74
494.61	19910.94
494.79	20208.19
494.96	20320.53
495.14	20458.62
495.32	20449.26
495.49	20896.30
495.67	20828.43
495.85	20912.69
496.02	20833.11
496.20	21326.96
496.38	21289.51
496.55	21158.44
496.73	21654.64
496.91	21516.54
497.09	21598.46
497.26	21804.43
497.44	21434.63
497.62	22082.95
497.79	22427.01
497.97	21813.79
498.14	22499.57
498.32	22537.02
498.50	22581.49
498.67	22766.39
498.85	22469.14
499.03	22562.76
499.20	22974.70
499.38	22820.22
499.56	23173.64
499.73	22860.01
499.91	23129.17
500.08	23484.94
500.26	23056.62
500.44	23594.94
500.61	23852.40
500.79	23365.57
500.97	23674.52
501.14	24018.58
501.32	23875.80
501.49	24020.92
501.67	24006.87
501.84	24379.02
502.02	24257.31
502.20	24339.23
502.37	24889.26
502.55	24250.29
502.72	24205.82
502.90	24484.34
503.07	24847.13
503.25	24486.68
503.43	24416.47
503.60	24865.85
503.78	24971.18
503.95	25252.04
504.13	25202.89
504.30	25127.99
504.48	25371.41
504.65	25348.00
504.83	25596.10
505.01	25715.47
505.18	25568.01
505.36	25989.31
505.53	25905.05
505.71	26050.16
505.88	25883.98
506.06	25818.45
506.23	26450.39
506.41	26120.38
506.58	26398.90
506.76	26139.10
506.93	26757.00
507.11	26541.68
507.28	26871.69
507.46	26448.05
507.63	26597.85
507.81	27084.68
507.98	27063.61
508.16	27363.20
508.33	27197.02
508.50	27253.20
508.68	27016.80
508.85	27410.01
509.03	27489.59
509.20	27248.52
509.38	27946.00
509.55	27847.69
509.73	27960.04
509.90	27772.80
510.08	27756.41
510.25	27740.03
510.42	27592.58
510.60	28264.31
510.77	28336.87
510.95	28929.02
511.12	28425.81
511.30	28402.40
511.47	28376.66
511.64	28631.77
511.82	28790.93
511.99	28823.70
512.17	29111.58
512.34	28582.62
512.51	28877.53
512.69	29254.36
512.86	29710.76
513.04	29518.84
513.21	29488.41
513.38	29146.69
513.56	29888.64
513.73	29926.09
513.90	29809.06
514.08	29589.05
514.25	29553.94
514.43	29989.28
514.60	30148.44
514.77	29949.50
514.95	30148.44
515.12	30120.35
515.29	30455.05
515.47	30426.96
515.64	30642.29
515.81	29933.11
515.99	30417.60
516.16	30752.30
516.33	30513.56
516.51	31049.55
516.68	30506.54
516.85	31133.81
517.03	30920.82
517.20	31351.48
517.37	31068.27
517.54	31194.66
517.72	31147.85
517.89	31154.87
518.06	31323.39
518.24	31096.36
518.41	31323.39
518.58	31414.67
518.75	31770.43
518.93	31882.78
519.10	31948.31
519.27	31763.41
519.45	31531.70
519.62	32048.96
519.79	32072.36
519.96	32184.71
520.14	32067.68
520.31	31901.50
520.48	32039.59
520.65	31967.04
520.83	32762.82
521.00	32488.98
521.17	32402.38
521.34	32608.34
521.52	32652.81
521.69	32510.04
521.86	32524.08
522.03	32788.56
522.20	33312.84
522.38	33525.83
522.55	32800.27
522.72	33472.00
522.89	33516.47
523.07	33081.13
523.24	33738.82
523.41	33472.00
523.58	33097.52
523.75	33432.21
523.92	34120.33
524.10	33612.43
524.27	33928.41
524.44	33797.34
524.61	34197.57
524.78	34340.34
524.96	34398.85
525.13	34321.62
525.30	34246.72
525.47	34171.82
525.64	34448.00
525.81	34391.83
525.98	34440.98
526.16	34550.99
526.33	34473.75
526.50	35042.50
526.67	34583.76
526.84	34799.08
527.01	34808.45
527.18	34820.15
527.36	35185.27
527.53	35044.84
527.70	34969.94
527.87	34969.94
528.04	35185.27
528.21	35246.13
528.38	35421.67
528.55	35414.65
528.72	35445.07
528.89	35440.39
529.07	35388.90
529.24	35541.03
529.41	35679.13
529.58	35669.76
529.75	35807.86
529.92	35683.81
530.09	35262.51
530.26	35489.54
530.43	36072.34
530.60	35728.28
530.77	36023.19
530.94	35845.30
531.11	35756.36
531.28	35901.48
531.46	36334.48
531.63	36301.71
531.80	36341.50
531.97	36755.77
532.14	36587.25
532.31	36446.82
532.48	36570.87
532.65	36582.57
532.82	36542.78
532.99	36816.63
533.16	36236.17
533.33	36884.50
533.50	36910.25
533.67	36636.41
533.84	36910.25
534.01	37055.36
534.18	36577.89
534.35	37207.50
534.52	37174.73
534.69	37305.80
534.86	37308.14
535.03	37263.67
535.20	37275.37
535.37	37570.28
535.54	37813.70
535.71	37453.25
535.88	38115.62
536.05	37668.58
536.22	37479.00
536.38	37846.46
536.55	37514.11
536.72	37556.24
536.89	37736.46
537.06	37748.16
537.23	37755.18
537.40	37794.97
537.57	37783.27
537.74	37647.52
537.91	38352.02
538.08	37738.80
538.25	37993.92
538.42	38010.30
538.59	38782.68
538.75	38452.66
538.92	38424.57
539.09	38703.10
539.26	38710.12
539.43	38366.06
539.60	38494.79
539.77	38419.89
539.94	39016.73
540.11	38672.67
540.28	38443.30
540.44	38770.97
540.61	38927.79
540.78	38841.19
540.95	38747.57
541.12	38815.44
541.29	38969.92
541.46	39093.97
541.62	39061.20
541.79	39566.76
541.96	38988.64
542.13	39084.61
542.30	39065.88
542.47	39147.80
542.63	39339.72
542.80	39091.63
542.97	39351.43
543.14	39894.43
543.31	39796.13
543.48	39590.16
543.64	40179.98
543.81	39964.65
543.98	39751.66
544.15	40189.34
544.32	39910.82
544.48	40669.15
544.65	40301.68
544.82	40198.70
544.99	39950.60
545.16	40123.80
545.32	39948.26
545.49	40531.06
545.66	40615.32
545.83	40343.81
546.00	40423.39
546.16	40797.88
546.33	40809.58
546.50	40091.04
546.67	40521.69
546.83	40320.41
547.00	40318.07
547.17	40615.32
547.34	40285.30
547.50	40720.64
547.67	40847.03
547.84	40746.39
548.00	41120.87
548.17	40912.56
548.34	41053.00
548.51	41469.61
548.67	41074.06
548.84	41057.68
549.01	41434.50
549.18	41071.72
549.34	41635.79
549.51	41624.09
549.68	40898.52
549.84	41139.60
550.01	40952.35
550.18	40882.14
550.34	41481.31
550.51	41436.84
550.68	41713.03
550.84	41425.14
551.01	42157.73
551.18	41720.05
551.34	41462.59
551.51	41722.39
551.68	41766.86
551.84	41415.78
552.01	41493.02
552.18	41647.49
552.34	41507.06
552.51	41567.91
552.68	42031.34
552.84	41748.14
553.01	42106.24
553.18	41769.20
553.34	42087.51
553.51	41706.01
553.67	42300.50
553.84	41991.55
554.01	41872.18
554.17	42307.52
554.34	42618.81
554.51	42447.96
554.67	42728.82
554.84	42384.76
555.00	42139.00
555.17	42181.13
555.33	42464.34
555.50	42682.01
555.67	42452.64
555.83	42188.16
556.00	42651.58
556.16	43140.75
556.33	43047.13
556.50	43089.26
556.66	42768.61
556.83	42454.98
556.99	43110.33
557.16	43213.31
557.32	43281.19
557.49	43292.89
557.65	42887.98
557.82	43264.80
557.98	43019.05
558.15	42803.72
558.32	42909.04
558.48	43016.71
558.65	43220.33
558.81	42986.28
558.98	43042.45
559.14	43274.16
559.31	43440.34
559.47	43203.95
559.64	42859.89
559.80	43456.73
559.97	42873.93
560.13	43255.44
560.30	43470.77
560.46	43349.06
560.63	43896.75
560.79	43290.55
560.96	43707.16
561.12	43180.54
561.29	43445.02
561.45	43360.76
561.61	43264.80
561.78	43793.76
561.94	43517.58
562.11	43711.84
562.27	43285.87
562.44	43636.95
562.60	43793.76
562.77	43941.22
562.93	43370.13
563.10	44095.69
563.26	43779.72
563.42	43922.49
563.59	43515.24
563.75	43784.40
563.92	43950.58
564.08	43564.39
564.24	43669.72
564.41	44128.46
564.57	44142.50
564.74	43894.41
564.90	43800.79
565.07	43952.92
565.23	43849.94
565.39	44158.89
565.56	43997.39
565.72	44182.29
565.88	44025.48
566.05	44032.50
566.21	44032.50
566.38	43910.79
566.54	44268.89
566.70	44044.20
566.87	44341.45
567.03	43634.61
567.19	44308.68
567.36	43714.19
567.52	44343.79
567.68	44360.17
567.85	44381.24
568.01	44350.81
568.17	43915.47
568.34	44477.20
568.50	44697.21
568.66	44065.27
568.83	44409.32
568.99	44552.10
569.15	44325.07
569.32	44182.29
569.48	44266.55
569.64	44502.95
569.81	44753.38
569.97	44392.94
570.13	44418.69
570.30	44203.36
570.46	44542.74
570.62	44287.62
570.78	44729.98
570.95	44580.18
571.11	44945.31
571.27	44725.30
571.43	44250.17
571.60	44479.54
571.76	44210.38
571.92	44582.52
572.09	44676.15
572.25	44179.95
572.41	44453.79
572.57	44584.86
572.74	45219.15
572.90	44650.40
573.06	44732.32
573.22	44406.98
573.38	45251.92
573.55	44802.53
573.71	45228.51
573.87	44781.47
574.03	44741.68
574.20	45191.06
574.36	44800.19
574.52	44505.29
574.68	44568.48
574.84	45184.04
575.01	45006.16
575.17	45081.06
575.33	44828.28
575.49	44535.71
575.65	45205.11
575.82	44980.42
575.98	44933.60
576.14	44893.82
576.30	44973.39
576.46	44722.96
576.62	44957.01
576.79	44622.31
576.95	44788.49
577.11	44706.57
577.27	44715.93
577.43	44868.07
577.59	44898.50
577.75	44765.09
577.92	44570.82
578.08	45207.45
578.24	44910.20
578.40	45081.06
578.56	45008.50
578.72	44814.24
578.88	45062.33
579.04	44959.35
579.21	44858.71
579.37	45095.10
579.53	45174.68
579.69	44608.27
579.85	45120.85
580.01	44545.08
580.17	45172.34
580.33	45179.36
580.49	44903.18
580.65	45303.41
580.82	44500.61
580.98	44453.79
581.14	44842.32
581.30	44996.80
581.46	45364.26
581.62	44694.87
581.78	44634.02
581.94	45127.87
582.10	45244.90
582.26	44678.49
582.42	45338.52
582.58	44959.35
582.74	45125.53
582.90	45174.68
583.06	45008.50
583.22	45214.47
583.38	45076.38
583.54	45331.50
583.70	45095.10
583.86	45202.77
584.02	44949.99
584.18	45141.91
584.34	45352.56
584.50	45373.63
584.66	45240.21
584.82	45284.68
584.98	45593.64
585.14	45455.54
585.30	45034.25
585.46	45233.19
585.62	44851.69
585.78	45404.05
585.94	44814.24
586.10	45425.12
586.26	45001.48
586.42	44940.63
586.58	45048.29
586.74	45277.66
586.90	44924.24
587.06	45118.51
587.22	45474.27
587.38	45387.67
587.54	45170.00
587.70	46064.08
587.86	45504.70
588.02	45200.43
588.18	45303.41
588.34	45230.85
588.49	45324.47
588.65	44935.95
588.81	45265.96
588.97	45263.62
589.13	45280.00
589.29	45280.00
589.45	45570.23
589.61	45631.08
589.77	45425.12
589.93	45497.67
590.08	45347.88
590.24	45345.54
590.40	45556.19
590.56	45659.17
590.72	45771.52
590.88	45600.66
591.04	45193.40
591.20	45387.67
591.35	46024.29
591.51	45907.27
591.67	45457.88
591.83	45989.19
591.99	45303.41
592.15	45677.90
592.31	45752.79
592.46	45375.97
592.62	45713.00
592.78	46038.34
592.94	45844.07
593.10	45783.22
593.26	45778.54
593.41	45970.46
593.57	45902.59
593.73	45911.95
593.89	46197.49
594.05	45897.91
594.20	45638.11
594.36	46129.62
594.52	45937.69
594.68	45713.00
594.84	45979.82
594.99	46398.78
595.15	45862.80
595.31	45846.41
595.47	45661.51
595.62	46014.93
595.78	45808.96
595.94	46052.38
596.10	45830.03
596.25	46000.89
596.41	45977.48
596.57	45441.50
596.73	45940.04
596.88	45935.35
597.04	46239.62
597.20	46075.79
597.36	46244.30
597.51	46064.08
597.67	45764.49
597.83	45619.38
597.99	46164.73
598.14	45911.95
598.30	45904.93
598.46	45823.01
598.61	46178.77
598.77	45965.78
598.93	46087.49
599.09	46314.52
599.24	46653.90
599.40	45612.36
599.56	46136.64
599.71	46356.65
599.87	46719.43
600.03	46625.81
600.18	45968.12
600.34	46398.78
600.50	46263.03
600.65	45897.91
600.81	46464.32
600.97	46155.36
601.12	46232.60
601.28	46412.82
601.44	46291.12
601.59	45727.05
601.75	46092.17
601.91	45815.99
602.06	46089.83
602.22	46595.38
602.37	46277.07
602.53	46302.82
602.69	46433.89
602.84	45984.51
603.00	46101.53
603.16	46017.27
603.31	46155.36
603.47	46239.62
603.62	46108.55
603.78	46239.62
603.94	46138.98
604.09	45897.91
604.25	46389.42
604.40	45727.05
604.56	46019.61
604.71	46328.56
604.87	45649.81
605.03	45951.74
605.18	46176.43
605.34	46300.48
605.49	45940.04
605.65	45947.06
605.80	46146.00
605.96	46153.02
606.12	45977.48
606.27	46211.54
606.43	46143.66
606.58	46043.02
606.74	45937.69
606.89	46272.39
607.05	45993.87
607.20	46333.24
607.36	45982.16
607.51	46103.87
607.67	45631.08
607.82	45453.20
607.98	46174.09
608.13	45851.09
608.29	45827.69
608.44	45631.08
608.60	45818.33
608.75	45694.28
608.91	45855.78
609.06	45830.03
609.22	45937.69
609.37	45713.00
609.53	46033.66
609.68	45783.22
609.84	45853.44
609.99	45830.03
610.15	45511.72
610.30	45734.07
610.46	45862.80
610.61	45947.06
610.76	45713.00
610.92	45158.30
611.07	45696.62
611.23	45310.43
611.38	45605.34
611.54	45434.48
611.69	45645.13
611.84	45656.83
612.00	45427.46
612.15	45453.20
612.31	46089.83
612.46	45186.38
612.62	45984.51
612.77	45823.01
612.92	45675.55
613.08	45464.91
613.23	45500.01
613.39	45558.53
613.54	45081.06
613.69	45851.09
613.85	45500.01
614.00	45408.73
614.15	45418.10
614.31	45186.38
614.46	45261.28
614.62	45160.64
614.77	45240.21
614.92	45216.81
615.08	45308.09
615.23	45425.12
615.38	45942.38
615.54	45256.60
615.69	45551.51
615.84	45333.84
616.00	45317.45
616.15	45148.93
616.30	45228.51
616.46	45413.41
616.61	45083.40
616.76	45364.26
616.92	45205.11
617.07	44594.23
617.22	45141.91
617.37	44573.16
617.53	45038.93
617.68	45062.33
617.83	44844.66
617.99	45305.75
618.14	45420.44
618.29	44542.74
618.45	44615.29
618.60	44809.56
618.75	44252.51
618.90	44739.34
619.06	44737.00
619.21	44758.06
619.36	45184.04
619.51	44612.95
619.67	44788.49
619.82	44507.63
619.97	45425.12
620.12	44734.66
620.28	44776.79
620.43	44556.78
620.58	44769.77
620.73	44540.39
620.89	45223.83
621.04	44877.43
621.19	44540.39
621.34	44626.99
621.49	44390.60
621.65	44334.43
621.80	44935.95
621.95	44601.25
622.10	44566.14
622.25	44318.04
622.41	44685.51
622.56	44694.87
622.71	44563.80
622.86	44737.00
623.01	44311.02
623.16	44133.14
623.32	44378.90
623.47	44596.57
623.62	44313.36
623.77	44540.39
623.92	44416.35
624.07	44112.08
624.23	44301.66
624.38	44575.50
624.53	43845.26
624.68	43995.05
624.83	44107.40
624.98	43924.83
625.13	43852.28
625.29	44210.38
625.44	44168.25
625.59	44016.11
625.74	43899.09
625.89	43922.49
626.04	44016.11
626.19	44083.99
626.34	43447.36
626.49	43892.07
626.65	43388.85
626.80	43246.08
626.95	43419.28
627.10	43445.02
627.25	43370.13
627.40	43859.30
627.55	43735.25
627.70	43335.02
627.85	43707.16
628.00	43695.46
628.15	44039.52
628.30	43119.69
628.45	43309.27
628.60	43285.87
628.76	42962.87
628.91	43772.70
629.06	43260.12
629.21	43365.45
629.36	42866.91
629.51	43194.59
629.66	43374.81
629.81	43021.39
629.96	43178.20
630.11	43058.84
630.26	43122.03
630.41	43075.22
630.56	42834.14
630.71	42958.19
630.86	42880.95
631.01	42906.70
631.16	42408.17
631.31	43016.71
631.46	42602.43
631.61	43248.42
631.76	42705.41
631.91	42997.98
632.06	43681.42
632.21	43299.91
632.36	43175.86
632.51	42670.31
632.66	42731.16
632.81	42532.22
632.96	43021.39
633.10	42272.42
633.25	43049.47
633.40	42649.24
633.55	42876.27
633.70	42972.24
633.85	42782.65
634.00	42234.97
634.15	42169.43
634.30	42508.81
634.45	42471.36
634.60	42960.53
634.75	42642.22
634.90	42525.19
635.05	42363.70
635.19	42337.95
635.34	42335.61
635.49	42181.13
635.64	42380.08
635.79	42618.81
635.94	42162.41
636.09	42658.60
636.24	42342.63
636.39	42450.30
636.53	42382.42
636.68	41862.82
636.83	41490.68
636.98	42213.90
637.13	42188.16
637.28	42043.04
637.43	42094.53
637.57	41764.52
637.72	41808.99
637.87	42089.85
638.02	41808.99
638.17	42370.72
638.32	42024.32
638.46	41258.96
638.61	41581.96
638.76	41743.45
638.91	41888.57
639.06	41696.64
639.20	41282.37
639.35	41434.50
639.50	41326.84
639.65	42071.13
639.80	41404.08
639.94	42003.25
640.09	41947.08
640.24	41792.61
640.39	41216.83
640.54	41165.34
640.68	41319.82
640.83	41720.05
640.98	41331.52
641.13	41434.50
641.27	41900.27
641.42	41378.33
641.57	41542.17
641.72	41366.63
641.86	41193.43
642.01	41045.97
642.16	41113.85
642.31	40882.14
642.45	41186.41
642.60	40973.42
642.75	41092.79
642.90	41359.61
643.04	41219.17
643.19	40896.18
643.34	40484.25
643.48	40481.91
643.63	41230.88
643.78	40711.28
643.93	41038.95
644.07	41188.75
644.22	41230.88
644.37	40760.43
644.51	40978.10
644.66	40687.87
644.81	40800.22
644.95	40765.11
645.10	41268.33
645.25	40907.88
645.39	40430.41
645.54	40505.31
645.69	40568.51
645.83	40154.23
645.98	40662.13
646.13	40596.59
646.27	40217.43
646.42	40126.14
646.57	40477.22
646.71	40203.38
646.86	40648.08
647.00	40495.95
647.15	40428.07
647.30	40760.43
647.44	40381.26
647.59	40512.33
647.74	40542.76
647.88	40563.82
648.03	40509.99
648.17	40645.74
648.32	40465.52
648.47	40783.83
648.61	40121.46
648.76	40107.42
648.90	40004.44
649.05	40465.52
649.20	40102.74
649.34	40140.19
649.49	40135.51
649.63	40346.15
649.78	40285.30
649.92	40055.93
650.07	40341.47
650.21	40460.84
650.36	40715.96
650.51	40177.64
650.65	40507.65
650.80	40187.00
650.94	39950.60
651.09	39782.09
651.23	39845.28
651.38	39756.34
651.52	39243.76
651.67	39597.18
651.81	39875.71
651.96	39566.76
652.10	39505.90
652.25	39522.29
652.39	39906.13
652.54	39810.17
652.68	39761.02
652.83	39625.27
652.97	39232.06
653.12	39185.25
653.26	39196.95
653.41	39267.17
653.55	39636.97
653.70	39573.78
653.84	40245.51
653.99	40119.12
654.13	39662.72
654.27	38927.79
654.42	39384.19
654.56	39089.29
654.71	39531.65
654.85	39257.81
655.00	39587.82
655.14	39395.90
655.29	39367.81
655.43	39360.79
655.57	38990.98
655.72	39196.95
655.86	38689.06
656.01	38969.92
656.15	39110.35
656.30	39054.18
656.44	39103.33
656.58	38899.70
656.73	38813.10
656.87	38778.00
657.01	38710.12
657.16	38785.02
657.30	38785.02
657.45	38738.21
657.59	38422.23
657.73	38384.79
657.88	38831.83
658.02	38738.21
658.16	38361.38
658.31	38644.59
658.45	38815.44
658.60	38337.98
658.74	38780.34
658.88	38199.88
659.03	38651.61
659.17	38190.52
659.31	37830.08
659.46	38164.78
659.60	38057.11
659.74	38014.98
659.89	37853.48
660.03	37392.40
660.17	38330.95
660.32	37984.55
660.46	37771.57
660.60	37635.81
660.74	37797.31
660.89	38293.50
661.03	37511.77
661.17	37343.25
661.32	38033.71
661.46	37626.45
661.60	37305.80
661.74	37462.61
661.89	37429.85
662.03	37432.19
662.17	37153.66
662.31	37467.30
662.46	37354.95
662.60	36947.70
662.74	37120.90
662.88	36856.42
663.03	36615.34
663.17	36889.18
663.31	36407.03
663.45	36870.46
663.60	37315.16
663.74	37153.66
663.88	37060.04
664.02	36835.35
664.17	36994.51
664.31	36994.51
664.45	36601.30
664.59	36772.16
664.73	36648.11
664.88	36580.23
665.02	36147.23
665.16	36477.25
665.30	36371.92
665.44	36290.01
665.59	36285.33
665.73	35723.60
665.87	35524.65
666.01	35976.37
666.15	36105.10
666.29	35316.34
666.44	36114.47
666.58	35718.92
666.72	35637.00
666.86	35681.47
667.00	35807.86
667.14	35709.55
667.28	35346.77
667.43	35618.27
667.57	35695.51
667.71	35747.00
667.85	35924.88
667.99	35534.01
668.13	35442.73
668.27	34895.05
668.41	34888.03
668.56	34235.02
668.70	34710.14
668.84	34698.44
668.98	34850.58
669.12	34614.18
669.26	34597.80
669.40	34937.18
669.54	34511.20
669.68	34850.58
669.82	34260.76
669.96	33982.24
670.10	34103.95
670.25	34202.25
670.39	34029.05
670.53	34300.55
670.67	34312.25
670.81	34595.46
670.95	34239.70
671.09	33970.54
671.23	34115.65
671.37	33940.11
671.51	33713.08
671.65	33628.82
671.79	33511.79
671.93	33563.28
672.07	33621.80
672.21	33717.76
672.35	33481.36
672.49	33228.59
672.63	33364.34
672.77	33610.09
672.91	33324.55
673.05	33486.04
673.19	33195.82
673.33	32240.88
673.47	32547.49
673.61	32292.37
673.75	32552.17
673.89	32250.24
674.03	32374.29
674.17	32374.29
674.31	32350.88
674.45	32126.19
674.59	32498.34
674.73	32283.01
674.87	32109.81
675.01	31749.37
675.15	31651.06
675.29	31491.91
675.43	31527.02
675.56	31512.97
675.70	31358.50
675.84	31508.29
675.98	30581.44
676.12	31262.54
676.26	31379.56
676.40	31178.28
676.54	30852.94
676.68	30866.98
676.82	30183.55
676.96	31122.10
677.10	30930.18
677.23	30288.87
677.37	30827.20
677.51	30405.90
677.65	30443.35
677.79	30717.19
677.93	30080.56
678.07	30153.12
678.21	29902.68
678.34	30216.32
678.48	29514.16
678.62	29621.82
678.76	29593.73
678.90	29490.75
679.04	29673.31
679.18	29469.69
679.31	29331.59
679.45	29413.51
679.59	28861.15
679.73	29259.04
679.87	28987.53
680.00	28760.50
680.14	28786.25
680.28	28804.97
680.42	28266.65
680.56	28896.25
680.70	28507.72
680.83	28126.22
680.97	27948.34
681.11	28187.07
681.25	27805.56
681.39	27491.93
681.52	28329.84
681.66	27505.98
681.80	27084.68
681.94	27323.41
682.07	27016.80
682.21	27344.48
682.35	27026.17
682.49	27168.94
682.62	26822.54
682.76	26888.07
682.90	27187.66
683.04	26932.54
683.17	26487.84
683.31	26422.31
683.45	26534.65
683.59	26298.26
683.72	26185.91
683.86	26628.27
684.00	26274.85
684.13	26202.30
684.27	25930.80
684.41	25965.90
684.55	25565.67
684.68	25671.00
684.82	25582.06
684.96	25762.28
685.09	25287.15
685.23	25439.28
685.37	25565.67
685.50	25614.82
685.64	25507.16
685.78	24893.94
685.91	24896.28
686.05	24666.91
686.19	24273.70
686.32	24526.47
686.46	24135.60
686.60	24353.27
686.73	24474.98
686.87	24098.16
687.01	24308.80
687.14	24325.19
687.28	24184.76
687.42	23969.43
687.55	24030.28
687.69	23777.50
687.82	23374.93
687.96	23733.03
688.10	23440.47
688.23	23391.31
688.37	23555.15
688.50	23438.12
688.64	23321.10
688.78	22881.08
688.91	23372.59
689.05	22822.56
689.18	22656.39
689.32	22326.37
689.46	22190.62
689.59	22595.53
689.73	22878.74
689.86	22555.74
690.00	22593.19
690.13	22249.13
690.27	22333.39
690.41	22394.25
690.54	21776.34
690.68	21652.30
690.81	21710.81
690.95	21673.36
691.08	21348.03
691.22	21331.64
691.35	21027.37
691.49	21525.91
691.62	21209.93
691.76	20947.79
691.89	21018.01
692.03	20662.25
692.16	20475.01
692.30	20467.98
692.43	20535.86
692.57	20418.83
692.70	20692.68
692.84	20161.37
692.97	20161.37
693.11	20182.44
693.24	19948.39
693.38	19950.73
693.51	19707.31
693.65	19779.87
693.78	19517.73
693.92	20002.22
694.05	19475.60
694.19	19686.25
694.32	19501.34
694.45	19782.21
694.59	19845.40
694.72	19510.71
694.86	19145.58
694.99	19028.56
695.13	18766.42
695.26	18672.79
695.39	18853.02
695.53	18417.68
695.66	18487.89
695.80	18441.08
695.93	18384.91
696.07	18274.90
696.20	17940.21
696.33	17996.38
696.47	17664.02
696.60	17701.47
696.73	17724.88
696.87	17783.39
697.00	17968.29
697.14	17455.72
697.27	17422.95
697.40	17378.48
697.54	17399.54
697.67	17219.32
697.80	17322.30
697.94	17018.04
698.07	17067.19
698.21	16999.31
698.34	17111.66
698.47	16964.20
698.61	16428.22
698.74	16517.16
698.87	16496.10
699.01	16102.89
699.14	16685.68
699.27	16512.48
699.40	16381.41
699.54	16306.51
699.67	16446.94
699.80	16152.04
699.94	15948.41
700.07	16107.57
700.20	16067.78
700.34	15995.22
700.47	15433.49
700.60	15917.98
700.73	15527.11
700.87	15484.98
701.00	15541.16
701.13	15236.89
701.26	15150.29
701.40	15080.07
701.53	15171.35
701.66	15084.75
701.79	15014.54
701.93	14773.46
702.06	14656.43
702.19	15007.52
702.32	14820.27
702.46	14909.21
702.59	14871.76
702.72	14944.32
702.85	14752.40
702.99	14490.26
703.12	14422.38
703.25	14075.98
703.38	14085.34
703.51	14155.56
703.65	13893.42
703.78	13783.41
703.91	13799.80
704.04	13685.11
704.17	13729.58
704.31	13610.22
704.44	13593.83
704.57	13575.11
704.70	13366.80
704.83	13624.26
704.96	13516.59
705.10	13170.19
705.23	13247.43
>>>>>End Processed Spectral Data<<<<<
