SpectraSuite Data File
++++++++++++++++++++++++++++++++++++
Date: Fri Oct 25 10:43:52 EDT 2013
User: price-jones
Dark Spectrum Present: No
Reference Spectrum Present: No
Number of Sampled Component Spectra: 1
Spectrometers: USB2+H05261
Integration Time (usec): 100000 (USB2+H05261)
Spectra Averaged: 1 (USB2+H05261)
Boxcar Smoothing: 0 (USB2+H05261)
Correct for Electrical Dark: No (USB2+H05261)
Strobe/Lamp Enabled: No (USB2+H05261)
Correct for Detector Non-linearity: No (USB2+H05261)
Correct for Stray Light: No (USB2+H05261)
Number of Pixels in Processed Spectrum: 2048
>>>>>Begin Processed Spectral Data<<<<<
365.73	119.37
365.92	119.37
366.12	119.37
366.32	86.60
366.52	0.00
366.72	0.00
366.91	35.11
367.11	95.96
367.31	0.00
367.51	63.19
367.70	95.96
367.90	86.60
368.10	18.72
368.30	28.09
368.49	65.54
368.69	100.64
368.89	37.45
369.09	32.77
369.28	39.79
369.48	28.09
369.68	126.39
369.87	88.94
370.07	77.24
370.27	119.37
370.47	222.35
370.66	374.49
370.86	461.09
371.06	514.92
371.25	407.25
371.45	517.26
371.65	465.77
371.84	433.00
372.04	449.38
372.24	531.30
372.44	510.24
372.63	505.56
372.83	407.25
373.03	535.98
373.22	472.79
373.42	496.19
373.62	503.22
373.81	550.03
374.01	550.03
374.21	566.41
374.40	564.07
374.60	589.82
374.79	622.58
374.99	505.56
375.19	603.86
375.38	631.94
375.58	648.33
375.78	655.35
375.97	638.97
376.17	688.12
376.37	638.97
376.56	559.39
376.76	571.09
376.95	617.90
377.15	638.97
377.35	730.25
377.54	594.50
377.74	592.16
377.93	594.50
378.13	685.78
378.33	655.35
378.52	650.67
378.72	650.67
378.91	657.69
379.11	653.01
379.31	627.26
379.50	540.66
379.70	697.48
379.89	683.44
380.09	739.61
380.28	730.25
380.48	732.59
380.68	706.84
380.87	718.54
381.07	699.82
381.26	746.63
381.46	648.33
381.65	784.08
381.85	739.61
382.04	711.52
382.24	660.03
382.43	730.25
382.63	627.26
382.83	697.48
383.02	805.14
383.22	753.65
383.41	636.63
383.61	760.67
383.80	709.18
384.00	774.72
384.19	772.38
384.39	823.87
384.58	779.40
384.78	760.67
384.97	823.87
385.17	823.87
385.36	821.53
385.56	835.57
385.75	812.17
385.95	791.10
386.14	823.87
386.34	753.65
386.53	898.77
386.72	809.83
386.92	828.55
387.11	849.61
387.31	812.17
387.50	924.51
387.70	896.43
387.89	854.30
388.09	772.38
388.28	957.28
388.48	912.81
388.67	966.64
388.86	924.51
389.06	1041.54
389.25	1050.90
389.45	950.26
389.64	1022.81
389.84	961.96
390.03	1048.56
390.22	952.60
390.42	971.32
390.61	990.05
390.81	1034.52
391.00	1006.43
391.19	1111.75
391.39	1055.58
391.58	1076.65
391.78	999.41
391.97	1043.88
392.16	1018.13
392.36	1142.18
392.55	1036.86
392.75	961.96
392.94	1004.09
393.13	1041.54
393.33	1036.86
393.52	1111.75
393.71	1078.99
393.91	1153.88
394.10	1078.99
394.29	1153.88
394.49	1198.35
394.68	1282.61
394.88	1282.61
395.07	1146.86
395.26	1322.40
395.46	1291.98
395.65	1280.27
395.84	1277.93
396.04	1280.27
396.23	1170.27
396.42	1149.20
396.62	1123.46
396.81	1214.74
397.00	1193.67
397.19	1245.16
397.39	1231.12
397.58	1327.08
397.77	1371.55
397.97	1462.83
398.16	1469.86
398.35	1409.00
398.55	1392.62
398.74	1530.71
398.93	1530.71
399.12	1507.30
399.32	1549.43
399.51	1556.46
399.70	1589.22
399.90	1570.50
400.09	1631.35
400.28	1722.63
400.47	1579.86
400.67	1689.87
400.86	1680.50
401.05	1746.04
401.24	1680.50
401.44	1820.94
401.63	1795.19
401.82	1713.27
402.01	1755.40
402.21	1834.98
402.40	1692.21
402.59	1802.21
402.78	1764.76
402.97	1701.57
403.17	1783.49
403.36	1818.60
403.55	1811.57
403.74	1905.20
403.93	1732.00
404.13	1937.96
404.32	1837.32
404.51	1795.19
404.70	1937.96
404.89	1987.11
405.09	1984.77
405.28	2026.90
405.47	1923.92
405.66	1987.11
405.85	1989.46
406.05	1973.07
406.24	2043.29
406.43	2101.80
406.62	2129.89
406.81	2099.46
407.00	2085.42
407.20	2057.33
407.39	2136.91
407.58	2209.47
407.77	2270.32
407.96	2214.15
408.15	2289.04
408.34	2305.43
408.54	2326.49
408.73	2373.30
408.92	2345.22
409.11	2417.77
409.30	2335.85
409.49	2352.24
409.68	2263.30
409.87	2331.17
410.07	2345.22
410.26	2333.51
410.45	2387.35
410.64	2406.07
410.83	2502.03
411.02	2537.14
411.21	2616.72
411.40	2663.53
411.59	2712.68
411.78	2672.89
411.98	2581.61
412.17	2630.76
412.36	2686.94
412.55	2736.09
412.74	2862.48
412.93	2867.16
413.12	2726.72
413.31	2832.05
413.50	2848.43
413.69	2801.62
413.88	2913.97
414.07	2979.50
414.26	3073.12
414.45	3009.93
414.64	3000.57
414.83	3129.30
415.02	3108.23
415.22	3126.96
415.41	3162.06
415.60	3220.58
415.79	3295.47
415.98	3349.31
416.17	3372.71
416.36	3288.45
416.55	3351.65
416.74	3304.84
416.93	3424.20
417.12	3353.99
417.31	3370.37
417.50	3456.97
417.69	3372.71
417.88	3407.82
418.07	3412.50
418.26	3384.41
418.45	3625.49
418.64	3674.64
418.83	3644.21
419.02	3669.96
419.21	3592.72
419.39	3669.96
419.58	3595.06
419.77	3716.77
419.96	3627.83
420.15	3702.73
420.34	3786.99
420.53	3770.60
420.72	3878.27
420.91	3950.82
421.10	3826.78
421.29	3894.65
421.48	3861.88
421.67	4032.74
421.86	3992.95
422.05	4046.79
422.24	3885.29
422.43	3866.56
422.61	3904.01
422.80	3976.57
422.99	3974.23
423.18	3913.38
423.37	3948.48
423.56	3934.44
423.75	4011.68
423.94	4025.72
424.13	3702.73
424.32	3749.54
424.50	4016.36
424.69	3927.42
424.88	4224.67
425.07	4044.45
425.26	4037.42
425.45	3967.21
425.64	3946.14
425.83	4011.68
426.01	3988.27
426.20	4032.74
426.39	3992.95
426.58	4018.70
426.77	4007.00
426.96	4128.70
427.15	4025.72
427.33	4208.28
427.52	4124.02
427.71	4255.09
427.90	4215.30
428.09	4353.40
428.28	4227.01
428.46	4234.03
428.65	4175.52
428.84	4219.99
429.03	4381.48
429.22	4173.18
429.40	4205.94
429.59	4105.30
429.78	3960.19
429.97	4030.40
430.16	4049.13
430.34	4201.26
430.53	4198.92
430.72	4112.32
430.91	4292.54
431.10	4362.76
431.28	4521.92
431.47	4711.50
431.66	4608.51
431.85	4620.22
432.03	4777.03
432.22	4840.23
432.41	4648.30
432.60	4966.62
432.79	4650.64
432.97	4863.63
433.16	4695.11
433.35	4692.77
433.54	4711.50
433.72	4833.21
433.91	4905.76
434.10	4868.31
434.28	4877.68
434.47	5093.01
434.66	4959.60
434.85	5043.85
435.03	5018.11
435.22	4828.53
435.41	5242.80
435.59	5139.82
435.78	5125.77
435.97	5100.03
436.16	5210.03
436.34	5291.95
436.53	5163.22
436.72	5369.19
436.90	5139.82
437.09	5355.15
437.28	5085.98
437.46	5165.56
437.65	5160.88
437.84	5245.14
438.02	5249.82
438.21	5219.39
438.40	5268.55
438.58	5404.30
438.77	5537.71
438.96	5387.91
439.14	5680.48
439.33	5610.26
439.52	5776.44
439.70	5584.52
439.89	5797.51
440.08	5844.32
440.26	5753.04
440.45	5741.33
440.63	5942.62
440.82	5961.34
441.01	6001.13
441.19	6104.12
441.38	6094.76
441.57	6291.36
441.75	6544.14
441.94	6317.11
442.12	6347.53
442.31	6438.81
442.50	6555.84
442.68	6380.30
442.87	6504.35
443.05	6438.81
443.24	6483.28
443.43	6530.09
443.61	6602.65
443.80	6729.04
443.98	6427.11
444.17	6317.11
444.35	6782.87
444.54	6651.80
444.73	6537.12
444.91	6642.44
445.10	6574.56
445.28	6494.99
445.47	6513.71
445.65	6523.07
445.84	6787.55
446.02	6792.23
446.21	6647.12
446.39	6754.79
446.58	6740.74
446.77	6637.76
446.95	6595.63
447.14	6829.68
447.32	6717.34
447.51	6654.14
447.69	6679.89
447.88	6801.60
448.06	6995.86
448.25	6806.28
448.43	6642.44
448.62	6834.36
448.80	6848.41
448.99	6871.81
449.17	7145.66
449.36	6979.48
449.54	7040.33
449.73	7143.32
449.91	7140.97
450.10	7208.85
450.28	7229.91
450.46	7412.48
450.65	7164.38
450.83	7454.61
451.02	7150.34
451.20	7480.35
451.39	7253.32
451.57	7405.46
451.76	7438.22
451.94	7503.76
452.13	7393.75
452.31	7391.41
452.49	7246.30
452.68	7421.84
452.86	7295.45
453.05	7276.73
453.23	7421.84
453.42	7428.86
453.60	7503.76
453.78	7517.80
453.97	7440.56
454.15	7426.52
454.34	7506.10
454.52	7597.38
454.70	7562.27
454.89	7660.57
455.07	7623.12
455.26	7625.47
455.44	7854.84
455.62	7641.85
455.81	7840.79
455.99	7885.26
456.17	7997.61
456.36	7911.01
456.54	7911.01
456.73	7946.12
456.91	8201.24
457.09	8236.35
457.28	8264.43
457.46	8046.76
457.64	8124.00
457.83	8175.49
458.01	8100.59
458.19	8344.01
458.38	8140.38
458.56	8407.20
458.74	8339.33
458.93	8446.99
459.11	8252.73
459.29	8402.52
459.48	8395.50
459.66	8538.27
459.84	8772.33
460.03	8692.75
460.21	8753.60
460.39	8641.26
460.57	8470.40
460.76	8713.81
460.94	8741.90
461.12	8748.92
461.31	8898.72
461.49	8912.76
461.67	8898.72
461.85	8833.18
462.04	8772.33
462.22	9083.62
462.40	8879.99
462.59	9067.24
462.77	9013.40
462.95	8947.87
463.13	9018.08
463.32	9184.26
463.50	9284.91
463.68	9284.91
463.86	9383.21
464.05	8987.66
464.23	8943.19
464.41	9184.26
464.59	8905.74
464.78	9373.85
464.96	9315.33
465.14	9153.84
465.32	9132.77
465.50	9516.62
465.69	9425.34
465.87	9210.01
466.05	9376.19
466.23	9294.27
466.41	9369.16
466.60	9315.33
466.78	9343.42
466.96	9327.03
467.14	9582.15
467.32	9572.79
467.51	9661.73
467.69	9308.31
467.87	9542.36
468.05	9753.01
468.23	9413.63
468.41	9509.60
468.60	9710.88
468.78	9727.27
468.96	9738.97
469.14	9757.69
469.32	9853.66
469.50	9635.99
469.69	9851.31
469.87	9949.62
470.05	10029.20
470.23	9912.17
470.41	9947.28
470.59	10115.80
470.77	10097.07
470.95	10239.84
471.14	10265.59
471.32	10134.52
471.50	10349.85
471.68	10492.62
471.86	10370.91
472.04	10438.79
472.22	11052.01
472.40	10492.62
472.58	10401.34
472.77	10354.53
472.95	10644.76
473.13	11122.23
473.31	10588.58
473.49	10626.03
473.67	10670.50
473.85	10913.92
474.03	10977.11
474.21	11040.31
474.39	11267.34
474.57	11255.64
474.75	11136.27
474.93	11302.45
475.12	11356.28
475.30	11536.50
475.48	11218.19
475.66	11604.38
475.84	11473.31
476.02	11419.47
476.20	11742.47
476.38	11845.45
476.56	12175.47
476.74	12098.23
476.92	12004.61
477.10	11962.48
477.28	12283.13
477.46	12362.71
477.64	12194.19
477.82	12638.89
478.00	12966.57
478.18	12718.47
478.36	12971.25
478.54	12933.80
478.72	13032.10
478.90	13118.70
479.08	13097.64
479.26	13240.41
479.44	13401.91
479.62	13647.66
479.80	13570.43
479.98	13322.33
480.16	13774.05
480.34	13729.58
480.52	13872.36
480.70	14225.78
480.88	13823.20
481.06	14118.11
481.24	14441.11
481.41	14508.98
481.59	14796.87
481.77	14693.88
481.95	14642.39
482.13	14607.28
482.31	14544.09
482.49	15332.85
482.67	15030.92
482.85	15389.02
483.03	15611.37
483.21	15524.77
483.39	15695.63
483.57	15683.93
483.74	15964.79
483.92	15786.91
484.10	15676.91
484.28	16297.15
484.46	16173.10
484.64	16367.37
484.82	16259.70
485.00	16561.63
485.18	16666.95
485.35	16585.04
485.53	16180.12
485.71	16479.71
485.89	16690.36
486.07	16350.98
486.25	16659.93
486.43	17123.36
486.61	16996.97
486.78	17448.69
486.96	17532.95
487.14	17694.45
487.32	17926.16
487.50	18291.29
487.68	18429.38
487.85	18675.13
488.03	18679.82
488.21	18794.50
488.39	18532.36
488.57	18974.72
488.75	18728.97
488.92	19293.04
489.10	19325.80
489.28	19707.31
489.46	20170.74
489.64	19772.85
489.81	20570.97
489.99	20519.48
490.17	20381.38
490.35	21018.01
490.53	20318.19
490.70	20697.36
490.88	20688.00
491.06	21165.46
491.24	20971.20
491.41	20903.32
491.59	20826.09
491.77	21341.00
491.95	21572.72
492.13	21860.60
492.30	22111.04
492.48	21970.61
492.66	21928.48
492.84	22005.72
493.01	22265.52
493.19	22029.12
493.37	22410.63
493.54	22855.33
493.72	22965.34
493.90	22850.65
494.08	23218.11
494.25	23386.63
494.43	23168.96
494.61	23775.16
494.79	23651.11
494.96	23735.37
495.14	23948.36
495.32	24067.73
495.49	24107.52
495.67	24318.17
495.85	24432.85
496.02	24606.05
496.20	24489.03
496.38	24720.74
496.55	24954.79
496.73	25425.24
496.91	25177.14
497.09	25200.55
497.26	25413.54
497.44	25212.25
497.62	25612.48
497.79	25965.90
497.97	25486.09
498.14	25825.47
498.32	26122.72
498.50	25867.60
498.67	26342.73
498.85	26487.84
499.03	26408.26
499.20	26305.28
499.38	26228.04
499.56	26920.84
499.73	26822.54
499.91	27105.74
500.08	26806.16
500.26	26590.83
500.44	26518.27
500.61	27082.34
500.79	26930.20
500.97	27356.18
501.14	27332.78
501.32	27754.07
501.49	27342.14
501.67	27391.29
501.84	27522.36
502.02	28037.28
502.20	27936.63
502.37	28362.61
502.55	28121.54
502.72	28313.46
502.90	28215.16
503.07	28280.69
503.25	28416.44
503.43	28088.77
503.60	28191.75
503.78	28648.16
503.95	28606.03
504.13	28849.44
504.30	29139.67
504.48	29092.86
504.65	29420.53
504.83	29713.10
505.01	29296.49
505.18	29504.79
505.36	29947.15
505.53	29715.44
505.71	30195.25
505.88	29799.70
506.06	29668.63
506.23	29846.51
506.41	30094.61
506.58	29883.96
506.76	30356.75
506.93	30623.57
507.11	30412.92
507.28	30089.93
507.46	30417.60
507.63	30396.54
507.81	30359.09
507.98	30733.57
508.16	30778.04
508.33	31159.55
508.50	31349.14
508.68	31433.39
508.85	31702.56
509.03	31440.42
509.20	31407.65
509.38	31550.42
509.55	31484.89
509.73	31693.19
509.90	31400.63
510.08	31419.35
510.25	31709.58
510.42	31779.79
510.60	32044.27
510.77	31943.63
510.95	32149.60
511.12	32385.99
511.30	32395.35
511.47	32783.88
511.64	32701.96
511.82	32994.53
511.99	32283.01
512.17	32837.72
512.34	32500.68
512.51	33029.64
512.69	32802.61
512.86	32938.36
513.04	33631.16
513.21	32996.87
513.38	33149.01
513.56	33326.89
513.73	33156.03
513.90	33167.73
514.08	33607.75
514.25	33764.57
514.43	33706.05
514.60	33659.24
514.77	33802.02
514.95	33830.10
515.12	34167.14
515.29	33844.15
515.47	34284.17
515.64	34550.99
515.81	34443.32
515.99	34169.48
516.16	33897.98
516.33	33923.72
516.51	34003.30
516.68	33565.62
516.85	33610.09
517.03	33663.93
517.20	34352.04
517.37	34740.57
517.54	34974.63
517.72	34693.76
517.89	34328.64
518.06	34642.27
518.24	34719.51
518.41	34822.49
518.58	34824.83
518.75	34944.20
518.93	35206.34
519.10	35353.79
519.27	34969.94
519.45	35316.34
519.62	35667.42
519.79	35899.14
519.96	35974.03
520.14	35974.03
520.31	35629.98
520.48	35878.07
520.65	35730.62
520.83	36444.48
521.00	36397.67
521.17	36315.75
521.34	35985.74
521.52	36559.17
521.69	36538.10
521.86	36491.29
522.03	36498.31
522.20	36814.29
522.38	36484.27
522.55	36645.77
522.72	36573.21
522.89	36587.25
523.07	37319.84
523.24	36999.19
523.41	37530.49
523.58	36863.44
523.75	37713.05
523.92	37296.44
524.10	37895.61
524.27	37769.22
524.44	37703.69
524.61	37818.38
524.78	37703.69
524.96	37965.83
525.13	37457.93
525.30	37954.13
525.47	38478.41
525.64	38148.39
525.81	38052.43
525.98	37977.53
526.16	37776.25
526.33	37544.53
526.50	37951.79
526.67	37376.01
526.84	37490.70
527.01	37619.43
527.18	37963.49
527.36	38274.78
527.53	38616.50
527.70	38639.90
527.87	38831.83
528.04	38705.44
528.21	38710.12
528.38	38951.20
528.55	39426.32
528.72	39246.10
528.89	39484.84
529.07	39592.50
529.24	38621.18
529.41	39115.03
529.58	39098.65
529.75	39122.05
529.92	39267.17
530.09	39386.54
530.26	39047.16
530.43	39730.59
530.60	39388.88
530.77	39587.82
530.94	39899.11
531.11	39634.63
531.28	39335.04
531.46	40215.08
531.63	39983.37
531.80	39646.33
531.97	39779.74
532.14	39770.38
532.31	39793.79
532.48	40168.27
532.65	40128.48
532.82	39927.20
532.99	40573.19
533.16	39674.42
533.33	40535.74
533.50	40519.35
533.67	40184.66
533.84	40327.43
534.01	40591.91
534.18	40622.34
534.35	40800.22
534.52	40664.47
534.69	40554.46
534.86	40755.75
535.03	40847.03
535.20	41109.17
535.37	41219.17
535.54	41514.08
535.71	40957.03
535.88	41230.88
536.05	40931.29
536.22	41228.54
536.38	41343.22
536.55	41488.34
536.72	41111.51
536.89	41097.47
537.06	41141.94
537.23	41794.95
537.40	41331.52
537.57	41696.64
537.74	41563.23
537.91	41652.17
538.08	41598.34
538.25	41493.02
538.42	41706.01
538.59	41827.71
538.75	41179.39
538.92	41535.15
539.09	41841.76
539.26	41717.71
539.43	41930.70
539.60	41511.74
539.77	41556.21
539.94	42047.72
540.11	41574.94
540.28	41675.58
540.44	41708.35
540.61	41923.68
540.78	41556.21
540.95	42347.31
541.12	41956.44
541.29	42068.79
541.46	42073.47
541.62	42312.20
541.79	42529.87
541.96	41734.09
542.13	42370.72
542.30	42450.30
542.47	42398.80
542.63	42375.40
542.80	42555.62
542.97	42344.97
543.14	42689.03
543.31	42932.45
543.48	42784.99
543.64	43107.99
543.81	43454.39
543.98	43372.47
544.15	43400.55
544.32	43543.33
544.48	43779.72
544.65	43288.21
544.82	43519.92
544.99	43459.07
545.16	43337.36
545.32	42735.84
545.49	43299.91
545.66	43634.61
545.83	43782.06
546.00	44013.77
546.16	43185.22
546.33	43208.63
546.50	43405.23
546.67	43655.67
546.83	43171.18
547.00	43643.97
547.17	43550.35
547.34	43232.04
547.50	43545.67
547.67	43817.17
547.84	44037.18
548.00	43922.49
548.17	44088.67
548.34	43929.51
548.51	44339.11
548.67	44259.53
548.84	43915.47
549.01	43955.26
549.18	43786.74
549.34	44128.46
549.51	44268.89
549.68	44694.87
549.84	44514.65
550.01	44175.27
550.18	44224.42
550.34	44552.10
550.51	44271.23
550.68	44804.88
550.84	44044.20
551.01	44271.23
551.18	44545.08
551.34	44797.85
551.51	45223.83
551.68	44638.70
551.84	44409.32
552.01	44800.19
552.18	44495.92
552.34	44219.74
552.51	44278.25
552.68	44648.06
552.84	44875.09
553.01	44928.92
553.18	45085.74
553.34	44992.12
553.51	45034.25
553.67	44971.05
553.84	45179.36
554.01	45347.88
554.17	45125.53
554.34	45155.96
554.51	44495.92
554.67	45467.25
554.84	45202.77
555.00	45172.34
555.17	45010.84
555.33	45446.18
555.50	45345.54
555.67	45162.98
555.83	45158.30
556.00	44912.54
556.16	45514.06
556.33	45516.40
556.50	45214.47
556.66	45228.51
556.83	45127.87
556.99	45315.11
557.16	45626.40
557.32	45724.71
557.49	45610.02
557.65	45090.42
557.82	45514.06
557.98	45591.30
558.15	45132.55
558.32	45221.49
558.48	45160.64
558.65	45144.25
558.81	45209.79
558.98	45336.18
559.14	45221.49
559.31	45233.19
559.47	45724.71
559.64	45830.03
559.80	45869.82
559.97	45780.88
560.13	45205.11
560.30	45703.64
560.46	45958.76
560.63	45961.10
560.79	45638.11
560.96	45923.65
561.12	45581.93
561.29	45818.33
561.45	45933.01
561.61	45736.41
561.78	45975.14
561.94	45319.79
562.11	45638.11
562.27	45535.12
562.44	45933.01
562.60	46014.93
562.77	45963.44
562.93	45614.70
563.10	46323.88
563.26	45525.76
563.42	46202.18
563.59	45900.25
563.75	45979.82
563.92	46007.91
564.08	46108.55
564.24	46534.53
564.41	46066.42
564.57	45933.01
564.74	45935.35
564.90	46007.91
565.07	46066.42
565.23	45745.77
565.39	46047.70
565.56	45944.72
565.72	46185.79
565.88	45689.60
566.05	46026.63
566.21	46141.32
566.38	45989.19
566.54	45694.28
566.70	46216.22
566.87	46300.48
567.03	46349.63
567.19	46316.86
567.36	46426.87
567.52	45996.21
567.68	46450.27
567.85	46216.22
568.01	46473.68
568.17	46218.56
568.34	46040.68
568.50	45881.52
568.66	45970.46
568.83	46043.02
568.99	45925.99
569.15	46057.06
569.32	46195.15
569.48	46038.34
569.64	46511.13
569.81	46190.47
569.97	46014.93
570.13	46286.43
570.30	45762.15
570.46	46403.46
570.62	45951.74
570.78	45949.40
570.95	46153.02
571.11	46101.53
571.27	45958.76
571.43	46375.37
571.60	46431.55
571.76	46742.84
571.92	46377.72
572.09	46443.25
572.25	46223.24
572.41	46611.77
572.57	46660.92
572.74	47012.00
572.90	46370.69
573.06	46405.80
573.22	46738.16
573.38	46293.46
573.55	46108.55
573.71	46574.32
573.87	46700.71
574.03	46248.99
574.20	46279.41
574.36	46391.76
574.52	46658.58
574.68	46356.65
574.84	46305.16
575.01	46438.57
575.17	46239.62
575.33	45949.40
575.49	46431.55
575.65	46539.21
575.82	46181.11
575.98	46384.74
576.14	45942.38
576.30	46211.54
576.46	46335.59
576.62	46160.05
576.79	46122.60
576.95	46433.89
577.11	46672.62
577.27	46536.87
577.43	46663.26
577.59	46253.67
577.75	46347.29
577.92	45883.86
578.08	45991.53
578.24	46237.28
578.40	46344.95
578.56	46953.49
578.72	46277.07
578.88	46700.71
579.04	46464.32
579.21	46127.28
579.37	46075.79
579.53	46548.57
579.69	46085.15
579.85	46274.73
580.01	46571.98
580.17	46387.08
580.33	46160.05
580.49	46974.55
580.65	46756.88
580.82	46616.45
580.98	46307.50
581.14	46398.78
581.30	46319.20
581.46	46806.03
581.62	46625.81
581.78	46351.97
581.94	47136.05
582.10	46717.09
582.26	46527.51
582.42	46136.64
582.58	46415.16
582.74	46466.66
582.90	46571.98
583.06	46595.38
583.22	46719.43
583.38	46646.88
583.54	47061.15
583.70	46649.22
583.86	46848.16
584.02	46773.27
584.18	46672.62
584.34	46471.34
584.50	46300.48
584.66	46358.99
584.82	46520.49
584.98	46244.30
585.14	46714.75
585.30	46487.72
585.46	46363.67
585.62	46162.39
585.78	46375.37
585.94	46328.56
586.10	46389.42
586.26	46113.23
586.42	46412.82
586.58	46323.88
586.74	46876.25
586.90	46487.72
587.06	46728.80
587.22	46480.70
587.38	46529.85
587.54	46398.78
587.70	46466.66
587.86	46934.76
588.02	46672.62
588.18	46536.87
588.34	46209.20
588.49	46092.17
588.65	45556.19
588.81	46251.33
588.97	46415.16
589.13	46026.63
589.29	45914.29
589.45	46206.86
589.61	46567.30
589.77	46768.58
589.93	46520.49
590.08	46824.76
590.24	46560.28
590.40	46894.97
590.56	47194.56
590.72	46803.69
590.88	46277.07
591.04	46967.53
591.20	47093.92
591.35	46955.83
591.51	46803.69
591.67	46438.57
591.83	46611.77
591.99	46813.05
592.15	46424.53
592.31	46646.88
592.46	46438.57
592.62	46319.20
592.78	46838.80
592.94	46782.63
593.10	46766.24
593.26	46314.52
593.41	46630.49
593.57	46560.28
593.73	46461.97
593.89	46855.18
594.05	46862.21
594.20	46639.86
594.36	46368.35
594.52	46670.28
594.68	46586.02
594.84	46412.82
594.99	46319.20
595.15	46473.68
595.31	46944.12
595.47	46951.15
595.62	46473.68
595.78	46770.93
595.94	46466.66
596.10	46665.60
596.25	46754.54
596.41	46440.91
596.57	46644.54
596.73	46408.14
596.88	46433.89
597.04	46405.80
597.20	46653.90
597.36	46583.68
597.51	47147.75
597.67	46866.89
597.83	47016.68
597.99	47035.41
598.14	46220.90
598.30	46667.94
598.46	46588.36
598.61	46707.73
598.77	46141.32
598.93	46562.62
599.09	46410.48
599.24	47082.22
599.40	46522.83
599.56	47098.60
599.71	46562.62
599.87	46834.12
600.03	46646.88
600.18	46431.55
600.34	46380.06
600.50	47047.11
600.65	46279.41
600.81	46930.08
600.97	46923.06
601.12	47075.19
601.28	47056.47
601.44	46735.82
601.59	46665.60
601.75	46298.14
601.91	46450.27
602.06	46092.17
602.22	46820.08
602.37	46773.27
602.53	46293.46
602.69	46941.78
602.84	46461.97
603.00	46422.19
603.16	46852.84
603.31	46454.95
603.47	46766.24
603.62	46403.46
603.78	46529.85
603.94	46740.50
604.09	46801.35
604.25	46447.93
604.40	46452.61
604.56	46335.59
604.71	46887.95
604.87	46543.89
605.03	46454.95
605.18	46536.87
605.34	46157.70
605.49	46595.38
605.65	46579.00
605.80	46251.33
605.96	46508.79
606.12	46553.26
606.27	46873.91
606.43	46272.39
606.58	46672.62
606.74	46356.65
606.89	46457.29
607.05	46326.22
607.20	46380.06
607.36	46061.74
607.51	46803.69
607.67	46405.80
607.82	46454.95
607.98	46218.56
608.13	46206.86
608.29	46073.45
608.44	46464.32
608.60	45668.53
608.75	46263.03
608.91	46335.59
609.06	45947.06
609.22	46391.76
609.37	46277.07
609.53	46185.79
609.68	46529.85
609.84	45853.44
609.99	46082.81
610.15	45860.46
610.30	45827.69
610.46	45900.25
610.61	45661.51
610.76	46223.24
610.92	46024.29
611.07	45916.63
611.23	45663.85
611.38	46047.70
611.54	45942.38
611.69	45432.14
611.84	45820.67
612.00	45708.32
612.15	45640.45
612.31	45603.00
612.46	45631.08
612.62	45993.87
612.77	45815.99
612.92	45862.80
613.08	45603.00
613.23	45659.17
613.39	45308.09
613.54	45462.57
613.69	45387.67
613.85	45600.66
614.00	45904.93
614.15	45902.59
614.31	45556.19
614.46	45951.74
614.62	45680.24
614.77	45549.17
614.92	45485.97
615.08	45329.16
615.23	45160.64
615.38	45181.70
615.54	45507.04
615.69	45504.70
615.84	44816.58
616.00	45485.97
616.15	44825.94
616.30	45420.44
616.46	44790.83
616.61	45010.84
616.76	45139.57
616.92	44919.56
617.07	44914.88
617.22	44531.03
617.37	44964.03
617.53	45429.80
617.68	45298.73
617.83	45214.47
617.99	44882.11
618.14	44919.56
618.29	44907.86
618.45	44652.74
618.60	44638.70
618.75	44278.25
618.90	44563.80
619.06	44332.09
619.21	44863.39
619.36	45214.47
619.51	44825.94
619.67	44140.16
619.82	44844.66
619.97	45088.08
620.12	44734.66
620.28	44409.32
620.43	44488.90
620.58	44629.34
620.73	44570.82
620.89	44327.41
621.04	44828.28
621.19	44692.53
621.34	44669.12
621.49	44165.91
621.65	44165.91
621.80	44708.91
621.95	44261.87
622.10	44488.90
622.25	44341.45
622.41	44142.50
622.56	44474.86
622.71	44458.48
622.86	44453.79
623.01	44306.34
623.16	44392.94
623.32	43892.07
623.47	43800.79
623.62	43901.43
623.77	44025.48
623.92	44259.53
624.07	44109.74
624.23	43367.79
624.38	43835.89
624.53	43599.50
624.68	43709.50
624.83	43665.03
624.98	43543.33
625.13	43606.52
625.29	43704.82
625.44	43379.49
625.59	43119.69
625.74	43306.93
625.89	43274.16
626.04	43332.68
626.19	42780.31
626.34	43356.08
626.49	43739.93
626.65	43217.99
626.80	43676.74
626.95	43225.01
627.10	42866.91
627.25	43042.45
627.40	42979.26
627.55	42955.85
627.70	43049.47
627.85	43131.39
628.00	42953.51
628.15	42913.72
628.30	43124.37
628.45	43262.46
628.60	43068.20
628.76	42803.72
628.91	43159.48
629.06	42817.76
629.21	42754.57
629.36	42593.07
629.51	42714.78
629.66	42876.27
629.81	42436.25
629.96	42698.39
630.11	42726.48
630.26	43096.28
630.41	42906.70
630.56	42700.73
630.71	42651.58
630.86	42253.69
631.01	42225.60
631.16	42878.61
631.31	42316.89
631.46	41862.82
631.61	42405.83
631.76	42405.83
631.91	41872.18
632.06	42871.59
632.21	42670.31
632.36	42684.35
632.51	41986.87
632.66	42298.16
632.81	42036.02
632.96	42113.26
633.10	41841.76
633.25	42370.72
633.40	42443.27
633.55	42143.69
633.70	42216.24
633.85	42286.46
634.00	42625.84
634.15	42033.68
634.30	42136.66
634.45	41834.74
634.60	41869.84
634.75	42033.68
634.90	41734.09
635.05	41820.69
635.19	41525.78
635.34	42080.49
635.49	41893.25
635.64	41516.42
635.79	41694.30
635.94	41132.57
636.09	41474.29
636.24	41633.45
636.39	41092.79
636.53	41357.27
636.68	41581.96
636.83	41570.25
636.98	41507.06
637.13	41235.56
637.28	41963.46
637.43	41745.80
637.57	41509.40
637.72	41219.17
637.87	41212.15
638.02	41294.07
638.17	41364.29
638.32	41294.07
638.46	41588.98
638.61	41111.51
638.76	41209.81
638.91	41177.04
639.06	41368.97
639.20	41415.78
639.35	41598.34
639.50	41221.52
639.65	41123.21
639.80	40818.94
639.94	40994.48
640.09	40950.01
640.24	41008.53
640.39	40545.10
640.54	40774.47
640.68	41013.21
640.83	40751.07
640.98	40226.79
641.13	40432.75
641.27	40907.88
641.42	40472.54
641.57	40528.72
641.72	40526.38
641.86	40559.14
642.01	40130.83
642.16	40575.53
642.31	40266.58
642.45	40760.43
642.60	40123.80
642.75	40364.88
642.90	40121.46
643.04	40470.20
643.19	40273.60
643.34	40168.27
643.48	40339.13
643.63	40172.96
643.78	40402.33
643.93	40355.52
644.07	39894.43
644.22	40280.62
644.37	39754.00
644.51	39966.99
644.66	39761.02
644.81	40402.33
644.95	40198.70
645.10	39894.43
645.25	40273.60
645.39	40224.45
645.54	40030.18
645.69	39772.72
645.83	39475.48
645.98	39999.76
646.13	40105.08
646.27	39667.40
646.42	39330.36
646.57	39590.16
646.71	39473.13
646.86	39978.69
647.00	39655.70
647.15	39725.91
647.30	39505.90
647.44	39798.47
647.59	39431.01
647.74	39636.97
647.88	39297.59
648.03	39557.39
648.17	38979.28
648.32	39374.83
648.47	39349.09
648.61	39285.89
648.76	39531.65
648.90	39456.75
649.05	38998.01
649.20	39456.75
649.34	39229.72
649.49	39026.09
649.63	38920.77
649.78	39108.01
649.92	39271.85
650.07	39054.18
650.21	39112.69
650.36	39374.83
650.51	39323.34
650.65	39475.48
650.80	39505.90
650.94	39512.92
651.09	39194.61
651.23	39232.06
651.38	39119.71
651.52	38604.80
651.67	38581.39
651.81	39096.31
651.96	38778.00
652.10	39014.39
652.25	38930.13
652.39	38560.33
652.54	38749.91
652.68	38735.87
652.83	38679.69
652.97	38979.28
653.12	38859.91
653.26	38476.07
653.41	38384.79
653.55	38511.17
653.70	38469.04
653.84	38572.03
653.99	38242.01
654.13	38279.46
654.27	37715.39
654.42	38230.31
654.56	37951.79
654.71	38237.33
654.85	38225.63
655.00	38094.56
655.14	38337.98
655.29	37694.33
655.43	37778.59
655.57	37703.69
655.72	37284.73
655.86	37233.24
656.01	37610.07
656.15	37235.58
656.30	37518.79
656.44	37380.70
656.58	37851.14
656.73	38124.99
656.87	37949.45
657.01	37642.84
657.16	37794.97
657.30	37167.71
657.45	37186.43
657.59	37357.29
657.73	37715.39
657.88	37336.23
658.02	37535.17
658.16	38136.69
658.31	37476.66
658.45	37771.57
658.60	37457.93
658.74	37467.30
658.88	37212.18
659.03	37020.25
659.17	36725.35
659.31	37038.98
659.46	37216.86
659.60	37017.91
659.74	37289.42
659.89	36851.73
660.03	37076.43
660.17	37343.25
660.32	37050.68
660.46	37069.40
660.60	36491.29
660.74	37099.83
660.89	36842.37
661.03	36432.78
661.17	36601.30
661.32	36840.03
661.46	36748.75
661.60	36542.78
661.74	36615.34
661.89	36545.12
662.03	36126.17
662.17	36425.76
662.31	36287.67
662.46	36503.00
662.60	36250.22
662.74	36112.13
662.88	35927.22
663.03	36175.32
663.17	36282.98
663.31	35765.73
663.45	35988.08
663.60	35894.46
663.74	35735.30
663.88	35653.38
664.02	35756.36
664.17	35899.14
664.31	35562.10
664.45	35566.78
664.59	35599.55
664.73	35304.64
664.88	35377.20
665.02	35140.80
665.16	35150.17
665.30	34946.54
665.44	35164.21
665.59	34660.99
665.73	35136.12
665.87	34745.25
666.01	34511.20
666.15	35204.00
666.29	34979.31
666.44	35236.77
666.58	34876.32
666.72	34941.86
666.86	34548.65
667.00	34504.18
667.14	34417.58
667.28	34192.89
667.43	34279.49
667.57	34754.61
667.71	34466.73
667.85	34646.95
667.99	34204.59
668.13	34199.91
668.27	34602.48
668.41	34555.67
668.56	33708.40
668.70	34188.21
668.84	33993.94
668.98	33219.22
669.12	33582.01
669.26	33933.09
669.40	33525.83
669.54	33823.08
669.68	33663.93
669.82	33233.27
669.96	33638.18
670.10	33102.20
670.25	33383.06
670.39	33228.59
670.53	33209.86
670.67	32987.51
670.81	33156.03
670.95	33149.01
671.09	32807.29
671.23	32687.92
671.37	32711.33
671.51	32694.94
671.65	32734.73
671.79	32418.76
671.93	32573.24
672.07	32566.21
672.21	32573.24
672.35	32290.03
672.49	32739.41
672.63	32287.69
672.77	32563.87
672.91	32470.25
673.05	32238.54
673.19	32070.02
673.33	31805.54
673.47	31969.38
673.61	31917.89
673.75	31578.51
673.89	31405.31
674.03	31255.51
674.17	31782.13
674.31	31044.87
674.45	31316.37
674.59	31665.11
674.73	31732.98
674.87	31426.37
675.01	31005.08
675.15	31587.87
675.29	31211.04
675.43	31042.53
675.56	31154.87
675.70	31381.90
675.84	30717.19
675.98	30157.80
676.12	30396.54
676.26	30841.24
676.40	30649.32
676.54	30902.09
676.68	30473.78
676.82	30000.99
676.96	30036.09
677.10	30218.66
677.23	30176.53
677.37	29668.63
677.51	29963.54
677.65	30015.03
677.79	29589.05
677.93	29420.53
678.07	29362.02
678.21	29050.73
678.34	28964.13
678.48	28786.25
678.62	28360.27
678.76	28856.46
678.90	28362.61
679.04	28594.32
679.18	28563.90
679.31	28346.23
679.45	27971.74
679.59	28119.20
679.73	27922.59
679.87	28479.64
680.00	27983.44
680.14	28240.90
680.28	27929.61
680.42	27878.12
680.56	27688.54
680.70	27903.87
680.83	27674.49
680.97	27730.67
681.11	27208.73
681.25	27459.16
681.39	27683.86
681.52	27250.86
681.66	27297.67
681.80	27374.91
681.94	27072.98
682.07	26862.33
682.21	26632.96
682.35	26918.50
682.49	26649.34
682.62	26387.20
682.76	26565.08
682.90	26356.77
683.04	26174.21
683.17	26349.75
683.31	26171.87
683.45	25951.86
683.59	25867.60
683.72	25804.41
683.86	25996.33
684.00	25898.03
684.13	25439.28
684.27	25802.07
684.41	25364.39
684.55	25034.37
684.68	25376.09
684.82	25221.61
684.96	25308.21
685.09	25296.51
685.23	24989.90
685.37	24833.08
685.50	24751.17
685.64	24725.42
685.78	24826.06
685.91	24407.11
686.05	24318.17
686.19	23793.89
686.32	24339.23
686.46	23716.65
686.60	23534.09
686.73	23571.54
686.87	23398.34
687.01	23192.37
687.14	23157.26
687.28	23166.62
687.42	23014.49
687.55	23344.50
687.69	23229.82
687.82	22855.33
687.96	23433.44
688.10	22684.47
688.23	22827.24
688.37	22850.65
688.50	22806.18
688.64	22501.91
688.78	22724.26
688.91	22848.31
689.05	22328.71
689.18	22368.50
689.32	22092.32
689.46	22251.47
689.59	22848.31
689.73	22457.44
689.86	22277.22
690.00	21591.44
690.13	21799.75
690.27	21764.64
690.41	21802.09
690.54	21200.57
690.68	21511.86
690.81	21231.00
690.95	21434.63
691.08	21263.77
691.22	21221.64
691.35	21223.98
691.49	20952.48
691.62	21008.65
691.76	20816.72
691.89	20744.17
692.03	20821.41
692.16	20617.78
692.30	20182.44
692.43	20542.88
692.57	20250.32
692.70	20086.48
692.84	20264.36
692.97	20177.76
693.11	19580.92
693.24	19700.29
693.38	19562.20
693.51	19840.72
693.65	19817.32
693.78	19681.56
693.92	19674.54
694.05	19651.14
694.19	19421.77
694.32	19386.66
694.45	19257.93
694.59	19318.78
694.72	19302.40
694.86	19042.60
694.99	18799.18
695.13	18848.33
695.26	18836.63
695.39	18359.16
695.53	18881.10
695.66	18815.57
695.80	18515.98
695.93	18464.49
696.07	18555.77
696.20	18511.30
696.33	18122.77
696.47	18267.88
696.60	18118.09
696.73	18146.17
696.87	18017.44
697.00	18043.19
697.14	17532.95
697.27	17846.58
697.40	17717.86
697.54	17294.22
697.67	17289.54
697.80	17425.29
697.94	17301.24
698.07	17336.35
698.21	16924.41
698.34	16924.41
698.47	17062.51
698.61	16802.71
698.74	16856.54
698.87	16938.46
699.01	16414.18
699.14	16580.36
699.27	16194.17
699.40	16570.99
699.54	16430.56
699.67	16479.71
699.80	16166.08
699.94	15953.09
700.07	16238.64
700.20	16077.14
700.34	16107.57
700.47	16208.21
700.60	15992.88
700.73	16006.92
700.87	15576.27
701.00	15733.08
701.13	15672.23
701.26	15510.73
701.40	15557.54
701.53	15356.25
701.66	15562.22
701.79	15143.27
701.93	15007.52
702.06	15070.71
702.19	14794.53
702.32	14841.34
702.46	14785.16
702.59	15030.92
702.72	14731.33
702.85	14956.02
702.99	14761.76
703.12	14469.19
703.25	14635.37
703.38	14464.51
703.51	14384.93
703.65	14270.25
703.78	14719.63
703.91	14237.48
704.04	14040.87
704.17	14333.44
704.31	14127.47
704.44	13790.44
704.57	13813.84
704.70	13942.57
704.83	13521.27
704.96	13851.29
705.10	13902.78
705.23	13607.87
>>>>>End Processed Spectral Data<<<<<
