SpectraSuite Data File
++++++++++++++++++++++++++++++++++++
Date: Fri Oct 25 10:44:21 EDT 2013
User: price-jones
Dark Spectrum Present: No
Reference Spectrum Present: No
Number of Sampled Component Spectra: 1
Spectrometers: USB2+H05261
Integration Time (usec): 100000 (USB2+H05261)
Spectra Averaged: 1 (USB2+H05261)
Boxcar Smoothing: 0 (USB2+H05261)
Correct for Electrical Dark: No (USB2+H05261)
Strobe/Lamp Enabled: No (USB2+H05261)
Correct for Detector Non-linearity: No (USB2+H05261)
Correct for Stray Light: No (USB2+H05261)
Number of Pixels in Processed Spectrum: 2048
>>>>>Begin Processed Spectral Data<<<<<
365.73	163.84
365.92	163.84
366.12	163.84
366.32	107.66
366.52	65.54
366.72	0.00
366.91	0.00
367.11	28.09
367.31	0.00
367.51	25.75
367.70	0.00
367.90	4.68
368.10	0.00
368.30	25.75
368.49	0.00
368.69	51.49
368.89	135.75
369.09	86.60
369.28	60.85
369.48	28.09
369.68	72.56
369.87	70.22
370.07	107.66
370.27	63.19
370.47	227.03
370.66	491.51
370.86	418.96
371.06	418.96
371.25	510.24
371.45	407.25
371.65	465.77
371.84	456.40
372.04	484.49
372.24	507.90
372.44	475.13
372.63	554.71
372.83	451.72
373.03	507.90
373.22	491.51
373.42	500.87
373.62	538.32
373.81	559.39
374.01	582.79
374.21	641.31
374.40	559.39
374.60	564.07
374.79	603.86
374.99	615.56
375.19	564.07
375.38	627.26
375.58	662.37
375.78	557.05
375.97	578.11
376.17	678.76
376.37	617.90
376.56	645.99
376.76	613.22
376.95	580.45
377.15	660.03
377.35	624.92
377.54	631.94
377.74	653.01
377.93	634.29
378.13	709.18
378.33	648.33
378.52	669.39
378.72	676.41
378.91	676.41
379.11	648.33
379.31	606.20
379.50	603.86
379.70	683.44
379.89	744.29
380.09	706.84
380.28	748.97
380.48	748.97
380.68	664.71
380.87	669.39
381.07	727.91
381.26	702.16
381.46	716.20
381.65	681.10
381.85	674.07
382.04	683.44
382.24	777.06
382.43	748.97
382.63	704.50
382.83	727.91
383.02	763.01
383.22	748.97
383.41	676.41
383.61	739.61
383.80	830.89
384.00	784.08
384.19	779.40
384.39	727.91
384.58	793.44
384.78	866.00
384.97	884.72
385.17	802.80
385.36	866.00
385.56	795.78
385.75	800.46
385.95	772.38
386.14	854.30
386.34	807.48
386.53	901.11
386.72	882.38
386.92	931.53
387.11	903.45
387.31	983.02
387.50	910.47
387.70	936.21
387.89	870.68
388.09	882.38
388.28	844.93
388.48	814.51
388.67	954.94
388.86	938.55
389.06	1032.18
389.25	978.34
389.45	905.79
389.64	987.71
389.84	1083.67
390.03	1043.88
390.22	1109.41
390.42	1078.99
390.61	1076.65
390.81	1114.10
391.00	1053.24
391.19	1083.67
391.39	1036.86
391.58	1053.24
391.78	1109.41
391.97	1139.84
392.16	1050.90
392.36	1043.88
392.55	1060.26
392.75	994.73
392.94	1020.47
393.13	1029.84
393.33	957.28
393.52	1083.67
393.71	1123.46
393.91	1123.46
394.10	1167.93
394.29	1160.91
394.49	1203.04
394.68	1238.14
394.88	1306.02
395.07	1282.61
395.26	1338.79
395.46	1233.46
395.65	1315.38
395.84	1296.66
396.04	1322.40
396.23	1200.69
396.42	1109.41
396.62	1226.44
396.81	1221.76
397.00	1238.14
397.19	1343.47
397.39	1460.49
397.58	1458.15
397.77	1411.34
397.97	1425.39
398.16	1481.56
398.35	1577.52
398.55	1554.12
398.74	1540.07
398.93	1650.08
399.12	1511.99
399.32	1598.59
399.51	1638.38
399.70	1659.44
399.90	1607.95
400.09	1619.65
400.28	1680.50
400.47	1593.90
400.67	1776.47
400.86	1675.82
401.05	1636.03
401.24	1799.87
401.44	1795.19
401.63	1764.76
401.82	1771.79
402.01	1734.34
402.21	1781.15
402.40	1802.21
402.59	1820.94
402.78	1874.77
402.97	1933.28
403.17	1846.68
403.36	1879.45
403.55	1956.69
403.74	1884.13
403.93	1977.75
404.13	1982.43
404.32	2008.18
404.51	1909.88
404.70	2033.93
404.89	1970.73
405.09	2010.52
405.28	2054.99
405.47	2012.86
405.66	1937.96
405.85	2097.12
406.05	2125.21
406.24	2097.12
406.43	2162.66
406.62	2022.22
406.81	2162.66
407.00	2160.31
407.20	2139.25
407.39	2265.64
407.58	2272.66
407.77	2282.02
407.96	2324.15
408.15	2338.20
408.34	2370.96
408.54	2324.15
408.73	2399.05
408.92	2466.92
409.11	2480.97
409.30	2209.47
409.49	2354.58
409.68	2251.60
409.87	2347.56
410.07	2363.94
410.26	2431.82
410.45	2420.11
410.64	2520.76
410.83	2583.95
411.02	2698.64
411.21	2757.15
411.40	2600.34
411.59	2768.85
411.78	2782.90
411.98	2785.24
412.17	2911.63
412.36	2895.24
412.55	2843.75
412.74	2715.02
412.93	2923.33
413.12	2850.77
413.31	2970.14
413.50	2913.97
413.69	2981.84
413.88	2974.82
414.07	2949.08
414.26	2913.97
414.45	3112.91
414.64	3145.68
414.83	3066.10
415.02	3138.66
415.22	3243.98
415.41	3361.01
415.60	3143.34
415.79	3342.28
415.98	3405.48
416.17	3417.18
416.36	3342.28
416.55	3386.76
416.74	3379.73
416.93	3304.84
417.12	3365.69
417.31	3445.27
417.50	3405.48
417.69	3503.78
417.88	3506.12
418.07	3576.34
418.26	3503.78
418.45	3590.38
418.64	3609.11
418.83	3625.49
419.02	3667.62
419.21	3777.62
419.39	3803.37
419.58	3714.43
419.77	3744.86
419.96	3803.37
420.15	3833.80
420.34	3981.25
420.53	3899.33
420.72	4086.58
420.91	3985.93
421.10	3894.65
421.29	3999.98
421.48	4058.49
421.67	3992.95
421.86	3990.61
422.05	3964.87
422.24	3847.84
422.43	3974.23
422.61	3927.42
422.80	4088.92
422.99	3976.57
423.18	4196.58
423.37	3990.61
423.56	4131.05
423.75	4065.51
423.94	3983.59
424.13	3840.82
424.32	3955.51
424.50	4142.75
424.69	4215.30
424.88	4182.54
425.07	4046.79
425.26	3955.51
425.45	4074.87
425.64	4161.47
425.83	4124.02
426.01	4231.69
426.20	4248.07
426.39	4053.81
426.58	4184.88
426.77	4077.21
426.96	4072.53
427.15	4117.00
427.33	4196.58
427.52	4152.11
427.71	4112.32
427.90	4243.39
428.09	4400.21
428.28	4475.10
428.46	4306.59
428.65	4325.31
428.84	4456.38
429.03	4432.97
429.22	4224.67
429.40	4269.14
429.59	4238.71
429.78	4227.01
429.97	4051.47
430.16	4187.22
430.34	4236.37
430.53	4320.63
430.72	4243.39
430.91	4344.03
431.10	4322.97
431.28	4674.05
431.47	4816.82
431.66	4772.35
431.85	4664.69
432.03	4767.67
432.22	4950.23
432.41	4784.06
432.60	4805.12
432.79	4828.53
432.97	4940.87
433.16	4990.02
433.35	4884.70
433.54	4863.63
433.72	4823.84
433.91	4770.01
434.10	4793.42
434.28	4873.00
434.47	4931.51
434.66	5039.17
434.85	5060.24
435.03	4889.38
435.22	5102.37
435.41	5418.34
435.59	5203.01
435.78	5238.12
435.97	5245.14
436.16	5320.04
436.34	5383.23
436.53	5547.07
436.72	5392.59
436.90	5191.31
437.09	5521.32
437.28	5387.91
437.46	5369.19
437.65	5390.25
437.84	5406.64
438.02	5448.77
438.21	5334.08
438.40	5509.62
438.58	5472.17
438.77	5673.46
438.96	5589.20
439.14	5731.97
439.33	5841.98
439.52	5774.10
439.70	5781.12
439.89	5839.64
440.08	5795.17
440.26	5846.66
440.45	5860.70
440.63	6085.39
440.82	6146.25
441.01	6127.52
441.19	6204.76
441.38	6305.40
441.57	6443.49
441.75	6469.24
441.94	6464.56
442.12	6518.39
442.31	6569.88
442.50	6555.84
442.68	6696.27
442.87	6516.05
443.05	6523.07
443.24	6654.14
443.43	6715.00
443.61	6654.14
443.80	6897.56
443.98	6473.92
444.17	6471.58
444.35	6782.87
444.54	6899.90
444.73	6757.13
444.91	6705.63
445.10	6853.09
445.28	6691.59
445.47	6609.67
445.65	6518.39
445.84	6738.40
446.02	7012.24
446.21	6780.53
446.39	6927.99
446.58	6927.99
446.77	7000.54
446.95	6689.25
447.14	6843.73
447.32	7225.23
447.51	6883.52
447.69	6949.05
447.88	6965.43
448.06	7012.24
448.25	7096.50
448.43	7026.29
448.62	6904.58
448.80	6815.64
448.99	7016.93
449.17	7129.27
449.36	7108.21
449.54	7377.37
449.73	7403.11
449.91	7393.75
450.10	7555.25
450.28	7470.99
450.46	7517.80
450.65	7449.93
450.83	7480.35
451.02	7438.22
451.20	7691.00
451.39	7569.29
451.57	7403.11
451.76	7475.67
451.94	7620.78
452.13	7616.10
452.31	7482.69
452.49	7260.34
452.68	7466.31
452.86	7449.93
453.05	7480.35
453.23	7756.54
453.42	7538.87
453.60	7613.76
453.78	7850.16
453.97	7761.22
454.15	7674.62
454.34	7770.58
454.52	7962.50
454.70	7791.64
454.89	7520.14
455.07	7716.75
455.26	7868.88
455.44	7936.76
455.62	8056.12
455.81	8060.80
455.99	8065.49
456.17	8313.58
456.36	8278.47
456.54	8215.28
456.73	8145.06
456.91	8594.45
457.09	8358.05
457.28	8496.14
457.46	8566.36
457.64	8617.85
457.83	8229.32
458.01	8292.52
458.19	8594.45
458.38	8430.61
458.56	8636.58
458.74	8542.96
458.93	8451.67
459.11	8409.54
459.29	8641.26
459.48	8545.30
459.66	8629.56
459.84	8805.10
460.03	8844.88
460.21	8828.50
460.39	9001.70
460.57	8641.26
460.76	8912.76
460.94	9015.74
461.12	8990.00
461.31	8987.66
461.49	8982.98
461.67	9008.72
461.85	9048.51
462.04	9217.03
462.22	9437.04
462.40	9282.56
462.59	9212.35
462.77	9259.16
462.95	9228.73
463.13	9245.12
463.32	9317.67
463.50	9338.74
463.68	9376.19
463.86	9355.12
464.05	9310.65
464.23	9259.16
464.41	9451.08
464.59	9273.20
464.78	9413.63
464.96	9359.80
465.14	9214.69
465.32	9525.98
465.50	9556.41
465.69	9731.95
465.87	9535.34
466.05	9542.36
466.23	9420.66
466.41	9577.47
466.60	9621.94
466.78	9530.66
466.96	9593.86
467.14	9540.02
467.32	9806.84
467.51	9727.27
467.69	9706.20
467.87	9750.67
468.05	9860.68
468.23	9750.67
468.41	9884.08
468.60	9886.42
468.78	9916.85
468.96	10031.54
469.14	10090.05
469.32	10244.52
469.50	9694.50
469.69	9973.02
469.87	10230.48
470.05	9984.73
470.23	10377.94
470.41	10054.94
470.59	10345.17
470.77	10106.43
470.95	10230.48
471.14	10326.44
471.32	10272.61
471.50	10920.94
471.68	10480.92
471.86	10611.99
472.04	10934.98
472.22	11028.60
472.40	10595.61
472.58	10869.45
472.77	10637.73
472.95	10960.73
473.13	11274.36
473.31	11089.46
473.49	11073.07
473.67	10703.27
473.85	11052.01
474.03	11651.19
474.21	11363.30
474.39	11536.50
474.57	11466.28
474.75	11587.99
474.93	11592.67
475.12	11400.75
475.30	11693.32
475.48	11492.03
475.66	11880.56
475.84	11639.48
476.02	11791.62
476.20	11602.04
476.38	12004.61
476.56	12229.30
476.74	12163.76
476.92	12196.53
477.10	12313.56
477.28	12617.83
477.46	12533.57
477.64	12760.60
477.82	12856.56
478.00	12882.31
478.18	12908.05
478.36	12863.58
478.54	12879.97
478.72	12837.84
478.90	13334.03
479.08	13441.70
479.26	13851.29
479.44	13528.30
479.62	13914.48
479.80	13806.82
479.98	13692.13
480.16	14462.17
480.34	14195.35
480.52	14209.39
480.70	14101.73
480.88	14118.11
481.06	14459.83
481.24	14295.99
481.41	14654.09
481.59	14757.08
481.77	15019.22
481.95	14883.47
482.13	14988.79
482.31	15164.33
482.49	15403.07
482.67	15379.66
482.85	15442.85
483.03	15861.81
483.21	15822.02
483.39	15793.94
483.57	16016.29
483.74	16079.48
483.92	16315.87
484.10	16145.02
484.28	16547.59
484.46	16489.07
484.64	17193.58
484.82	16512.48
485.00	16840.15
485.18	16891.65
485.35	17043.78
485.53	16910.37
485.71	16407.16
485.89	17055.48
486.07	16561.63
486.25	17170.17
486.43	17249.75
486.61	17460.40
486.78	17727.22
486.96	17996.38
487.14	17975.31
487.32	18361.50
487.50	18562.79
487.68	18679.82
487.85	18977.06
488.03	19124.52
488.21	19176.01
488.39	19105.79
488.57	19044.94
488.75	19484.96
488.92	19822.00
489.10	19967.11
489.28	20133.29
489.46	20657.57
489.64	20355.64
489.81	20386.07
489.99	20809.70
490.17	21041.42
490.35	21048.44
490.53	20706.72
490.70	20896.30
490.88	21317.60
491.06	21553.99
491.24	21404.20
491.41	21205.25
491.59	21270.79
491.77	21474.42
491.95	21907.41
492.13	21809.11
492.30	22160.19
492.48	22396.59
492.66	22651.70
492.84	22546.38
493.01	22955.97
493.19	22810.86
493.37	22775.75
493.54	23152.58
493.72	23110.45
493.90	23307.05
494.08	23770.48
494.25	23922.62
494.43	23995.17
494.61	24147.31
494.79	24116.88
494.96	24215.18
495.14	23894.53
495.32	24301.78
495.49	24379.02
495.67	24528.81
495.85	24580.31
496.02	24800.32
496.20	25268.42
496.38	25081.18
496.55	25439.28
496.73	25844.20
496.91	25586.74
497.09	25649.93
497.26	25699.08
497.44	25919.09
497.62	25912.07
497.79	26373.16
497.97	25748.23
498.14	26279.54
498.32	26345.07
498.50	26284.22
498.67	27187.66
498.85	26859.99
499.03	27222.77
499.20	27166.60
499.38	27241.50
499.56	27089.36
499.73	27302.35
499.91	27452.14
500.08	27398.31
500.26	27445.12
500.44	27573.85
500.61	27445.12
500.79	27363.20
500.97	27988.13
501.14	27737.69
501.32	28048.98
501.49	27971.74
501.67	27824.29
501.84	28379.00
502.02	28144.94
502.20	28271.33
502.37	28636.45
502.55	28694.97
502.72	28945.41
502.90	28687.95
503.07	28912.64
503.25	29085.84
503.43	29060.09
503.60	29074.13
503.78	28652.84
503.95	28994.56
504.13	29301.17
504.30	29420.53
504.48	29652.25
504.65	29558.63
504.83	29942.47
505.01	29928.43
505.18	29832.47
505.36	30134.40
505.53	30068.86
505.71	30541.65
505.88	30740.60
506.06	30211.64
506.23	30354.41
506.41	30183.55
506.58	30888.05
506.76	30955.93
506.93	30859.96
507.11	30703.15
507.28	31084.65
507.46	30686.76
507.63	30998.06
507.81	31239.13
507.98	30855.28
508.16	31168.91
508.33	31342.11
508.50	31931.93
508.68	31761.07
508.85	31934.27
509.03	32027.89
509.20	31847.67
509.38	31908.52
509.55	32091.09
509.73	32142.58
509.90	32215.13
510.08	32048.96
510.25	32311.10
510.42	32505.36
510.60	32713.67
510.77	32556.85
510.95	32912.61
511.12	32933.68
511.30	33167.73
511.47	33612.43
511.64	33251.99
511.82	33406.47
511.99	32783.88
512.17	33340.93
512.34	33039.00
512.51	33673.29
512.69	33479.02
512.86	33694.35
513.04	33640.52
513.21	33659.24
513.38	33582.01
513.56	33851.17
513.73	33448.60
513.90	33935.43
514.08	33923.72
514.25	34122.67
514.43	34059.48
514.60	34480.77
514.77	34536.94
514.95	34485.45
515.12	34621.20
515.29	34382.47
515.47	34948.88
515.64	34946.54
515.81	34747.59
515.99	34934.84
516.16	35012.07
516.33	33785.63
516.51	34429.28
516.68	33661.58
516.85	33972.88
517.03	34073.52
517.20	34892.71
517.37	35136.12
517.54	35299.96
517.72	34717.17
517.89	34862.28
518.06	34319.28
518.24	34719.51
518.41	35077.61
518.58	35168.89
518.75	35529.33
518.93	35737.64
519.10	35587.85
519.27	35896.80
519.45	36048.93
519.62	36060.63
519.79	36065.31
519.96	36250.22
520.14	36615.34
520.31	36025.53
520.48	36584.91
520.65	36299.37
520.83	36711.30
521.00	37083.45
521.17	37153.66
521.34	37090.47
521.52	37081.11
521.69	36907.91
521.86	37504.74
522.03	37287.07
522.20	37352.61
522.38	37441.55
522.55	37123.24
522.72	37263.67
522.89	36980.46
523.07	37111.53
523.24	37237.92
523.41	37954.13
523.58	37933.06
523.75	38464.36
523.92	38345.00
524.10	38277.12
524.27	38642.24
524.44	38424.57
524.61	38415.21
524.78	38314.57
524.96	38541.60
525.13	38490.11
525.30	38506.49
525.47	39201.63
525.64	38548.62
525.81	38897.36
525.98	38623.52
526.16	38862.26
526.33	37914.34
526.50	38368.40
526.67	37926.04
526.84	37972.85
527.01	38447.98
527.18	38707.78
527.36	39047.16
527.53	39482.50
527.70	39477.82
527.87	39505.90
528.04	39391.22
528.21	39749.32
528.38	39580.80
528.55	39871.03
528.72	39674.42
528.89	40205.72
529.07	39576.12
529.24	39548.03
529.41	39917.84
529.58	39920.18
529.75	39552.71
529.92	39641.65
530.09	39737.62
530.26	40074.65
530.43	40112.10
530.60	40392.97
530.77	40098.06
530.94	40477.22
531.11	40294.66
531.28	40814.26
531.46	40325.09
531.63	40711.28
531.80	40556.80
531.97	40685.53
532.14	40231.47
532.31	39861.66
532.48	40631.70
532.65	40500.63
532.82	40685.53
532.99	40952.35
533.16	40786.18
533.33	40701.92
533.50	41078.74
533.67	41109.17
533.84	41212.15
534.01	41078.74
534.18	40788.52
534.35	41261.30
534.52	41045.97
534.69	41572.60
534.86	41397.06
535.03	41862.82
535.20	41869.84
535.37	41736.43
535.54	41944.74
535.71	41734.09
535.88	41858.14
536.05	41745.80
536.22	41853.46
536.38	41825.37
536.55	41656.85
536.72	41710.69
536.89	41490.68
537.06	41954.10
537.23	42286.46
537.40	41942.40
537.57	42080.49
537.74	42190.50
537.91	42775.63
538.08	42171.77
538.25	41851.12
538.42	42326.25
538.59	42473.70
538.75	41808.99
538.92	42253.69
539.09	42586.05
539.26	42162.41
539.43	42646.90
539.60	42113.26
539.77	42101.56
539.94	42031.34
540.11	42366.04
540.28	42337.95
540.44	42370.72
540.61	42452.64
540.78	42270.08
540.95	42721.80
541.12	42328.59
541.29	42433.91
541.46	42728.82
541.62	43002.66
541.79	42508.81
541.96	42880.95
542.13	42677.33
542.30	43058.84
542.47	42880.95
542.63	43152.46
542.80	43103.31
542.97	43679.08
543.14	43702.48
543.31	43468.43
543.48	43765.68
543.64	44306.34
543.81	44264.21
543.98	43805.47
544.15	43440.34
544.32	44437.41
544.48	44273.57
544.65	43901.43
544.82	44243.15
544.99	44163.57
545.16	43693.12
545.32	44346.13
545.49	44048.88
545.66	44355.49
545.83	44144.84
546.00	44423.37
546.16	43643.97
546.33	44016.11
546.50	43981.01
546.67	43875.68
546.83	43997.39
547.00	44271.23
547.17	43922.49
547.34	44296.98
547.50	44301.66
547.67	44219.74
547.84	44500.61
548.00	44797.85
548.17	45088.08
548.34	44732.32
548.51	44758.06
548.67	44804.88
548.84	45050.63
549.01	44783.81
549.18	44858.71
549.34	45071.70
549.51	45312.77
549.68	44842.32
549.84	44954.67
550.01	45099.78
550.18	44802.53
550.34	44889.13
550.51	45081.06
550.68	45078.72
550.84	44500.61
551.01	45013.18
551.18	45153.62
551.34	44961.69
551.51	45191.06
551.68	45504.70
551.84	45146.59
552.01	45223.83
552.18	45312.77
552.34	45052.97
552.51	45198.09
552.68	45481.29
552.84	45287.03
553.01	45738.75
553.18	45490.65
553.34	45022.54
553.51	45406.39
553.67	45453.20
553.84	45986.85
554.01	45605.34
554.17	45839.39
554.34	45839.39
554.51	45738.75
554.67	45933.01
554.84	45907.27
555.00	45221.49
555.17	45525.76
555.33	45918.97
555.50	45420.44
555.67	45659.17
555.83	46157.70
556.00	45832.37
556.16	46218.56
556.33	45867.48
556.50	45881.52
556.66	45467.25
556.83	45380.65
556.99	45823.01
557.16	46103.87
557.32	45830.03
557.49	46272.39
557.65	46073.45
557.82	45907.27
557.98	46036.00
558.15	46078.13
558.32	45947.06
558.48	45710.66
558.65	46153.02
558.81	46026.63
558.98	45724.71
559.14	46363.67
559.31	45764.49
559.47	46031.32
559.64	46174.09
559.80	46358.99
559.97	46520.49
560.13	46080.47
560.30	45914.29
560.46	46328.56
560.63	46820.08
560.79	46454.95
560.96	46763.90
561.12	46438.57
561.29	45984.51
561.45	46284.09
561.61	45881.52
561.78	46138.98
561.94	46277.07
562.11	45853.44
562.27	46323.88
562.44	46433.89
562.60	46789.65
562.77	46548.57
562.93	46548.57
563.10	46827.10
563.26	46223.24
563.42	46419.84
563.59	45940.04
563.75	46080.47
563.92	46820.08
564.08	46733.48
564.24	46628.15
564.41	46887.95
564.57	46300.48
564.74	46232.60
564.90	46391.76
565.07	46520.49
565.23	46883.27
565.39	46314.52
565.56	46803.69
565.72	46443.25
565.88	46529.85
566.05	46328.56
566.21	46389.42
566.38	46902.00
566.54	46649.22
566.70	46536.87
566.87	47145.41
567.03	46571.98
567.19	47222.65
567.36	46508.79
567.52	46389.42
567.68	46838.80
567.85	46993.28
568.01	46543.89
568.17	46740.50
568.34	46480.70
568.50	46574.32
568.66	46665.60
568.83	46560.28
568.99	46569.64
569.15	46382.40
569.32	46321.54
569.48	46571.98
569.64	46958.17
569.81	46953.49
569.97	46506.44
570.13	46567.30
570.30	46632.83
570.46	46387.08
570.62	46473.68
570.78	46085.15
570.95	46646.88
571.11	46639.86
571.27	46770.93
571.43	46541.55
571.60	46871.57
571.76	46808.37
571.92	46543.89
572.09	46459.63
572.25	46773.27
572.41	46759.22
572.57	46927.74
572.74	47124.35
572.90	47077.54
573.06	46876.25
573.22	46883.27
573.38	46986.25
573.55	46721.77
573.71	46829.44
573.87	47040.09
574.03	46681.98
574.20	46916.04
574.36	46930.08
574.52	47274.14
574.68	46857.52
574.84	46979.23
575.01	47105.62
575.17	46948.81
575.33	46569.64
575.49	46630.49
575.65	47133.71
575.82	46939.44
575.98	46883.27
576.14	47185.20
576.30	46766.24
576.46	47082.22
576.62	46766.24
576.79	47002.64
576.95	46614.11
577.11	47089.24
577.27	47494.15
577.43	47194.56
577.59	46770.93
577.75	46775.61
577.92	46799.01
578.08	46501.76
578.24	46433.89
578.40	47147.75
578.56	46689.01
578.72	46625.81
578.88	47063.49
579.04	46934.76
579.21	46773.27
579.37	46995.62
579.53	46866.89
579.69	46742.84
579.85	46965.19
580.01	47021.36
580.17	47072.85
580.33	46988.60
580.49	47246.05
580.65	47203.92
580.82	47000.30
580.98	46677.30
581.14	46576.66
581.30	46913.70
581.46	46906.68
581.62	46965.19
581.78	46995.62
581.94	47391.17
582.10	46869.23
582.26	47171.16
582.42	47004.98
582.58	47370.10
582.74	47075.19
582.90	47388.83
583.06	47281.16
583.22	47306.91
583.38	47065.83
583.54	47543.30
583.70	47489.47
583.86	47082.22
584.02	46483.04
584.18	47316.27
584.34	47058.81
584.50	46820.08
584.66	46660.92
584.82	46871.57
584.98	47236.69
585.14	46892.63
585.30	47267.12
585.46	46787.31
585.62	46834.12
585.78	46660.92
585.94	46408.14
586.10	46794.33
586.26	46817.74
586.42	46976.89
586.58	47433.30
586.74	47143.07
586.90	46904.34
587.06	47201.58
587.22	46944.12
587.38	46740.50
587.54	46796.67
587.70	46967.53
587.86	47140.73
588.02	47096.26
588.18	47103.28
588.34	46770.93
588.49	46466.66
588.65	46375.37
588.81	46377.72
588.97	46581.34
589.13	46265.37
589.29	46731.14
589.45	46670.28
589.61	46422.19
589.77	47086.90
589.93	47262.44
590.08	46855.18
590.24	47201.58
590.40	47325.63
590.56	46995.62
590.72	47040.09
590.88	46911.36
591.04	47131.37
591.20	47311.59
591.35	47253.08
591.51	47440.32
591.67	47194.56
591.83	47072.85
591.99	47208.61
592.15	47248.39
592.31	47007.32
592.46	47239.03
592.62	47056.47
592.78	47290.52
592.94	47674.37
593.10	47061.15
593.26	47360.74
593.41	47255.42
593.57	46850.50
593.73	46941.78
593.89	47178.18
594.05	47117.32
594.20	47093.92
594.36	47065.83
594.52	46925.40
594.68	47068.17
594.84	47337.33
594.99	47269.46
595.15	47058.81
595.31	47185.20
595.47	46988.60
595.62	47033.07
595.78	47192.22
595.94	47452.02
596.10	47529.26
596.25	47379.46
596.41	47704.80
596.57	47173.50
596.73	47599.47
596.88	46803.69
597.04	47154.77
597.20	47004.98
597.36	46897.31
597.51	47510.53
597.67	47459.04
597.83	47559.69
597.99	47304.57
598.14	47246.05
598.30	46932.42
598.46	47313.93
598.61	47180.52
598.77	47044.77
598.93	47033.07
599.09	47454.36
599.24	47913.11
599.40	47452.02
599.56	47072.85
599.71	46948.81
599.87	47405.21
600.03	46995.62
600.18	47210.95
600.34	47412.23
600.50	47597.13
600.65	47253.08
600.81	47545.64
600.97	47634.58
601.12	47379.46
601.28	47367.76
601.44	47164.14
601.59	46590.70
601.75	46429.21
601.91	47051.79
602.06	46862.21
602.22	46899.65
602.37	46925.40
602.53	47269.46
602.69	47274.14
602.84	46948.81
603.00	46974.55
603.16	47082.22
603.31	47030.72
603.47	47086.90
603.62	46953.49
603.78	47274.14
603.94	47126.69
604.09	47634.58
604.25	47494.15
604.40	46817.74
604.56	47215.63
604.71	47508.19
604.87	46731.14
605.03	46731.14
605.18	46782.63
605.34	46686.67
605.49	46501.76
605.65	47192.22
605.80	46967.53
605.96	47232.01
606.12	46993.28
606.27	47508.19
606.43	46906.68
606.58	46665.60
606.74	46824.76
606.89	47105.62
607.05	47143.07
607.20	46752.20
607.36	46775.61
607.51	46822.42
607.67	47030.72
607.82	46794.33
607.98	46733.48
608.13	46560.28
608.29	47295.21
608.44	46525.17
608.60	46639.86
608.75	46691.35
608.91	46536.87
609.06	46829.44
609.22	46656.24
609.37	46670.28
609.53	46644.54
609.68	46461.97
609.84	46239.62
609.99	46382.40
610.15	46146.00
610.30	46438.57
610.46	46513.47
610.61	46710.07
610.76	46557.94
610.92	46529.85
611.07	46351.97
611.23	46637.51
611.38	46483.04
611.54	46106.21
611.69	46162.39
611.84	45911.95
612.00	45872.16
612.15	45818.33
612.31	46110.89
612.46	45998.55
612.62	46181.11
612.77	46248.99
612.92	46733.48
613.08	45895.56
613.23	46129.62
613.39	46239.62
613.54	45535.12
613.69	45727.05
613.85	45921.31
614.00	45900.25
614.15	46225.58
614.31	46335.59
614.46	45979.82
614.62	46021.95
614.77	45914.29
614.92	45584.27
615.08	45794.92
615.23	45851.09
615.38	45996.21
615.54	45429.80
615.69	45921.31
615.84	45771.52
616.00	45904.93
616.15	45792.58
616.30	45579.59
616.46	45720.02
616.61	45469.59
616.76	45261.28
616.92	45170.00
617.07	45560.87
617.22	45088.08
617.37	45181.70
617.53	45837.05
617.68	45830.03
617.83	45504.70
617.99	45581.93
618.14	45308.09
618.29	45705.98
618.45	45043.61
618.60	45310.43
618.75	45010.84
618.90	45563.21
619.06	45078.72
619.21	45343.20
619.36	45565.55
619.51	44893.82
619.67	45207.45
619.82	45280.00
619.97	45340.86
620.12	45350.22
620.28	45078.72
620.43	44856.37
620.58	45134.89
620.73	45244.90
620.89	44704.23
621.04	45132.55
621.19	44659.76
621.34	45078.72
621.49	44545.08
621.65	44390.60
621.80	44987.44
621.95	44596.57
622.10	44423.37
622.25	44479.54
622.41	43899.09
622.56	44718.28
622.71	44507.63
622.86	44973.39
623.01	44589.55
623.16	44694.87
623.32	44671.46
623.47	44931.26
623.62	44545.08
623.77	44339.11
623.92	44296.98
624.07	43906.11
624.23	43885.04
624.38	44355.49
624.53	43903.77
624.68	44299.32
624.83	44205.70
624.98	44282.94
625.13	43716.53
625.29	43882.70
625.44	43959.94
625.59	43866.32
625.74	43667.37
625.89	43569.07
626.04	44025.48
626.19	43702.48
626.34	43948.24
626.49	44280.60
626.65	43896.75
626.80	43910.79
626.95	44130.80
627.10	43770.36
627.25	43735.25
627.40	43042.45
627.55	43136.07
627.70	43077.56
627.85	42911.38
628.00	43164.16
628.15	43185.22
628.30	43349.06
628.45	43484.81
628.60	43620.56
628.76	43632.27
628.91	43398.21
629.06	43480.13
629.21	43225.01
629.36	43234.38
629.51	42885.64
629.66	42855.21
629.81	42792.01
629.96	42923.08
630.11	42960.53
630.26	43147.78
630.41	43154.80
630.56	43217.99
630.71	43185.22
630.86	42745.20
631.01	42689.03
631.16	42529.87
631.31	42761.59
631.46	42724.14
631.61	42663.28
631.76	43133.73
631.91	42632.86
632.06	42443.27
632.21	43028.41
632.36	43021.39
632.51	42869.25
632.66	42504.13
632.81	42483.06
632.96	42366.04
633.10	42742.86
633.25	42419.87
633.40	42557.96
633.55	42288.80
633.70	42431.57
633.85	42532.22
634.00	42593.07
634.15	42157.73
634.30	42459.66
634.45	42375.40
634.60	42230.29
634.75	42586.05
634.90	42286.46
635.05	42082.83
635.19	42321.57
635.34	42141.35
635.49	42342.63
635.64	42307.52
635.79	42548.60
635.94	41972.83
636.09	41940.06
636.24	41869.84
636.39	41949.42
636.53	42075.81
636.68	41888.57
636.83	42024.32
636.98	42005.59
637.13	42153.05
637.28	41722.39
637.43	42148.37
637.57	41827.71
637.72	41572.60
637.87	42169.43
638.02	42036.02
638.17	41933.04
638.32	41820.69
638.46	41881.55
638.61	41874.52
638.76	41544.51
638.91	41907.29
639.06	41598.34
639.20	41429.82
639.35	41521.10
639.50	41516.42
639.65	41359.61
639.80	41500.04
639.94	41120.87
640.09	41223.86
640.24	41202.79
640.39	41029.59
640.54	40957.03
640.68	41284.71
640.83	41249.60
640.98	41261.30
641.13	40811.92
641.27	41542.17
641.42	41116.19
641.57	41111.51
641.72	41205.13
641.86	40828.30
642.01	40734.68
642.16	40760.43
642.31	40737.02
642.45	41013.21
642.60	39880.39
642.75	40973.42
642.90	41060.02
643.04	40748.73
643.19	40790.86
643.34	40814.26
643.48	40446.80
643.63	40341.47
643.78	40556.80
643.93	40577.87
644.07	40566.16
644.22	40627.02
644.37	40016.14
644.51	40425.73
644.66	40612.98
644.81	40620.00
644.95	40582.55
645.10	40701.92
645.25	40481.91
645.39	40409.35
645.54	40060.61
645.69	40343.81
645.83	40147.21
645.98	40144.87
646.13	40662.13
646.27	40692.55
646.42	40095.72
646.57	40018.48
646.71	39959.97
646.86	39997.41
647.00	39798.47
647.15	40236.15
647.30	40285.30
647.44	39452.07
647.59	39796.13
647.74	39538.67
647.88	39966.99
648.03	39711.87
648.17	39931.88
648.32	39828.90
648.47	39910.82
648.61	39489.52
648.76	39620.59
648.90	39903.79
649.05	40072.31
649.20	39896.77
649.34	39597.18
649.49	39536.33
649.63	39175.89
649.78	39683.78
649.92	39758.68
650.07	39941.24
650.21	38995.67
650.36	39522.29
650.51	39402.92
650.65	39651.02
650.80	40116.78
650.94	39548.03
651.09	39648.68
651.23	39463.77
651.38	39641.65
651.52	39253.12
651.67	39274.19
651.81	38700.76
651.96	39241.42
652.10	38939.49
652.25	38916.09
652.39	38778.00
652.54	38981.62
652.68	38990.98
652.83	38785.02
652.97	39105.67
653.12	38983.96
653.26	38557.99
653.41	38632.88
653.55	38752.25
653.70	38644.59
653.84	39154.82
653.99	38773.31
654.13	38450.32
654.27	38747.57
654.42	38646.93
654.56	38607.14
654.71	38890.34
654.85	38471.39
655.00	38955.88
655.14	38447.98
655.29	37968.17
655.43	37895.61
655.57	38232.65
655.72	37940.08
655.86	37883.91
656.01	37883.91
656.15	37617.09
656.30	38019.66
656.44	37734.12
656.58	37787.95
656.73	37649.86
656.87	38059.45
657.01	37998.60
657.16	37619.43
657.30	38120.31
657.45	37670.92
657.59	37626.45
657.73	37703.69
657.88	37982.21
658.02	37811.35
658.16	38295.85
658.31	37972.85
658.45	38026.68
658.60	37853.48
658.74	37816.04
658.88	37851.14
659.03	37654.54
659.17	37563.26
659.31	37195.79
659.46	37563.26
659.60	37432.19
659.74	37649.86
659.89	37291.76
660.03	37415.80
660.17	37097.49
660.32	36886.84
660.46	37699.01
660.60	37223.88
660.74	37095.15
660.89	37125.58
661.03	36840.03
661.17	37394.74
661.32	36285.33
661.46	36744.07
661.60	36903.23
661.74	36833.01
661.89	37083.45
662.03	36725.35
662.17	36723.01
662.31	36430.44
662.46	36631.72
662.60	36795.56
662.74	36790.88
662.88	36708.96
663.03	36252.56
663.17	36392.99
663.31	36325.11
663.45	36273.62
663.60	35871.05
663.74	35889.77
663.88	36105.10
664.02	36327.45
664.17	36472.57
664.31	36140.21
664.45	36189.36
664.59	36105.10
664.73	35796.15
664.88	36077.02
665.02	35646.36
665.16	35477.84
665.30	35489.54
665.44	35419.33
665.59	35283.58
665.73	35379.54
665.87	35243.79
666.01	35213.36
666.15	35124.42
666.29	35505.93
666.44	35580.82
666.58	35161.87
666.72	34724.19
666.86	34911.43
667.00	34813.13
667.14	34352.04
667.28	34843.56
667.43	34686.74
667.57	35012.07
667.71	34560.35
667.85	34213.95
667.99	34958.24
668.13	34230.33
668.27	34281.83
668.41	34689.08
668.56	34550.99
668.70	34855.26
668.84	34342.68
668.98	34080.54
669.12	34024.37
669.26	33956.49
669.40	33743.50
669.54	33701.37
669.68	33834.78
669.82	33965.85
669.96	33811.38
670.10	33373.70
670.25	33734.14
670.39	33476.68
670.53	33593.71
670.67	33399.44
670.81	33563.28
670.95	33450.94
671.09	33462.64
671.23	33371.36
671.37	33535.20
671.51	33022.62
671.65	32828.35
671.79	32786.22
671.93	32680.90
672.07	33137.30
672.21	32809.63
672.35	32861.12
672.49	33165.39
672.63	32713.67
672.77	32657.49
672.91	32713.67
673.05	32388.33
673.19	32624.73
673.33	32275.99
673.47	32308.76
673.61	32538.13
673.75	31854.69
673.89	31651.06
674.03	31424.03
674.17	32070.02
674.31	31782.13
674.45	31742.35
674.59	31845.33
674.73	32067.68
674.87	31304.67
675.01	31557.44
675.15	31604.25
675.29	31578.51
675.43	31583.19
675.56	31136.15
675.70	31117.42
675.84	31133.81
675.98	30150.78
676.12	30775.70
676.26	30965.29
676.40	30693.79
676.54	30892.73
676.68	30859.96
676.82	30478.46
676.96	30548.67
677.10	30412.92
677.23	30181.21
677.37	30223.34
677.51	29982.26
677.65	29701.40
677.79	29699.06
677.93	29467.34
678.07	29642.88
678.21	29174.78
678.34	29521.18
678.48	28999.24
678.62	29638.20
678.76	29146.69
678.90	28318.14
679.04	29099.88
679.18	28779.23
679.31	28470.28
679.45	28631.77
679.59	28336.87
679.73	28411.76
679.87	28273.67
680.00	28198.77
680.14	27922.59
680.28	28297.08
680.42	28072.39
680.56	28088.77
680.70	27812.59
680.83	27936.63
680.97	28194.09
681.11	28173.03
681.25	27644.07
681.39	27571.51
681.52	27831.31
681.66	27782.16
681.80	27264.90
681.94	27206.39
682.07	27316.39
682.21	27302.35
682.35	26946.59
682.49	26934.88
682.62	26965.31
682.76	26801.47
682.90	26745.30
683.04	26534.65
683.17	26506.57
683.31	26197.62
683.45	26373.16
683.59	26092.29
683.72	25993.99
683.86	25816.11
684.00	25614.82
684.13	26078.25
684.27	25891.01
684.41	25511.84
684.55	25638.23
684.68	25188.85
684.82	25502.48
684.96	25708.44
685.09	25469.71
685.23	25268.42
685.37	25001.60
685.50	24938.41
685.64	25113.95
685.78	24720.74
685.91	24755.85
686.05	24779.25
686.19	24322.85
686.32	24182.42
686.46	24151.99
686.60	23648.77
686.73	23466.21
686.87	23491.96
687.01	23377.27
687.14	23630.05
687.28	23227.48
687.42	23131.51
687.55	23318.76
687.69	23454.51
687.82	23412.38
687.96	23557.49
688.10	23452.17
688.23	23040.23
688.37	22867.03
688.50	22738.30
688.64	22845.97
688.78	23026.19
688.91	22417.65
689.05	22572.13
689.18	22497.23
689.32	22132.11
689.46	22260.84
689.59	22436.38
689.73	22483.19
689.86	22431.69
690.00	21696.77
690.13	22192.96
690.27	21603.14
690.41	21949.54
690.54	21394.84
690.68	21245.04
690.81	21366.75
690.95	21579.74
691.08	21331.64
691.22	21378.45
691.35	21308.24
691.49	21371.43
691.62	21380.79
691.76	21158.44
691.89	21092.91
692.03	20884.60
692.16	20863.54
692.30	20781.62
692.43	20952.48
692.57	20339.26
692.70	20425.86
692.84	20512.46
692.97	20212.87
693.11	20355.64
693.24	20100.52
693.38	20212.87
693.51	20114.56
693.65	20212.87
693.78	19997.54
693.92	19974.13
694.05	19704.97
694.19	19599.65
694.32	19800.93
694.45	19218.14
694.59	18721.95
694.72	19117.50
694.86	19236.86
694.99	19016.85
695.13	19255.59
695.26	18853.02
695.39	18689.18
695.53	18862.38
695.66	19124.52
695.80	18993.45
695.93	18733.65
696.07	18541.72
696.20	18527.68
696.33	18466.83
696.47	18338.10
696.60	18295.97
696.73	18310.01
696.87	18178.94
697.00	18291.29
697.14	17788.07
697.27	17933.18
697.40	17858.29
697.54	17539.97
697.67	17624.23
697.80	17172.51
697.94	17280.18
698.07	17455.72
698.21	17212.30
698.34	17336.35
698.47	17191.23
698.61	16732.49
698.74	16936.12
698.87	16905.69
699.01	16746.53
699.14	16563.97
699.27	16423.54
699.40	16587.38
699.54	16575.67
699.67	16484.39
699.80	16535.88
699.94	16236.30
700.07	16215.23
700.20	15960.11
700.34	16130.97
700.47	15934.37
700.60	16343.96
700.73	16287.79
700.87	16072.46
701.00	15728.40
701.13	16098.20
701.26	15536.48
701.40	15431.15
701.53	15447.54
701.66	15349.23
701.79	15609.03
701.93	15190.08
702.06	15131.56
702.19	14995.81
702.32	15262.63
702.46	15140.93
702.59	14745.38
702.72	15035.60
702.85	14876.44
702.99	14867.08
703.12	15075.39
703.25	14656.43
703.38	14579.20
703.51	14457.49
703.65	14647.07
703.78	14607.28
703.91	14377.91
704.04	14338.12
704.17	14335.78
704.31	14225.78
704.44	14071.30
704.57	14118.11
704.70	13867.67
704.83	14108.75
704.96	14010.45
705.10	13870.01
705.23	13745.97
>>>>>End Processed Spectral Data<<<<<
