SpectraSuite Data File
++++++++++++++++++++++++++++++++++++
Date: Fri Oct 25 11:34:39 EDT 2013
User: price-jones
Dark Spectrum Present: No
Reference Spectrum Present: No
Number of Sampled Component Spectra: 1
Spectrometers: USB2+H05261
Integration Time (usec): 100000 (USB2+H05261)
Spectra Averaged: 1 (USB2+H05261)
Boxcar Smoothing: 0 (USB2+H05261)
Correct for Electrical Dark: No (USB2+H05261)
Strobe/Lamp Enabled: No (USB2+H05261)
Correct for Detector Non-linearity: No (USB2+H05261)
Correct for Stray Light: No (USB2+H05261)
Number of Pixels in Processed Spectrum: 2048
>>>>>Begin Processed Spectral Data<<<<<
365.73	266.82
365.92	266.82
366.12	266.82
366.32	145.11
366.52	191.92
366.72	243.42
366.91	187.24
367.11	215.33
367.31	229.37
367.51	154.48
367.70	177.88
367.90	156.82
368.10	93.62
368.30	215.33
368.49	166.18
368.69	175.54
368.89	231.71
369.09	220.01
369.28	198.95
369.48	243.42
369.68	145.11
369.87	198.95
370.07	217.67
370.27	353.42
370.47	304.27
370.66	400.23
370.86	493.85
371.06	535.98
371.25	573.43
371.45	503.22
371.65	547.69
371.84	484.49
372.04	507.90
372.24	517.26
372.44	613.22
372.63	606.20
372.83	594.50
373.03	557.05
373.22	599.18
373.42	603.86
373.62	629.60
373.81	571.09
374.01	571.09
374.21	627.26
374.40	681.10
374.60	657.69
374.79	669.39
374.99	589.82
375.19	641.31
375.38	594.50
375.58	653.01
375.78	648.33
375.97	617.90
376.17	671.73
376.37	704.50
376.56	664.71
376.76	716.20
376.95	638.97
377.15	653.01
377.35	713.86
377.54	702.16
377.74	671.73
377.93	617.90
378.13	674.07
378.33	706.84
378.52	624.92
378.72	734.93
378.91	739.61
379.11	730.25
379.31	671.73
379.50	702.16
379.70	753.65
379.89	732.59
380.09	706.84
380.28	699.82
380.48	720.88
380.68	788.76
380.87	723.23
381.07	760.67
381.26	767.70
381.46	791.10
381.65	744.29
381.85	737.27
382.04	751.31
382.24	812.17
382.43	784.08
382.63	737.27
382.83	709.18
383.02	858.98
383.22	791.10
383.41	748.97
383.61	795.78
383.80	823.87
384.00	779.40
384.19	779.40
384.39	763.01
384.58	737.27
384.78	809.83
384.97	741.95
385.17	746.63
385.36	763.01
385.56	805.14
385.75	748.97
385.95	854.30
386.14	884.72
386.34	830.89
386.53	763.01
386.72	847.27
386.92	805.14
387.11	889.40
387.31	851.96
387.50	828.55
387.70	866.00
387.89	898.77
388.09	837.91
388.28	819.19
388.48	851.96
388.67	966.64
388.86	858.98
389.06	950.26
389.25	887.06
389.45	875.36
389.64	990.05
389.84	933.87
390.03	933.87
390.22	987.71
390.42	929.19
390.61	901.11
390.81	957.28
391.00	933.87
391.19	997.07
391.39	1004.09
391.58	966.64
391.78	950.26
391.97	1001.75
392.16	1069.62
392.36	1029.84
392.55	1060.26
392.75	1041.54
392.94	1029.84
393.13	1053.24
393.33	1029.84
393.52	1004.09
393.71	1067.28
393.91	1027.50
394.10	1114.10
394.29	1006.43
394.49	1062.60
394.68	1149.20
394.88	1100.05
395.07	1088.35
395.26	1128.14
395.46	1022.81
395.65	1174.95
395.84	1064.94
396.04	1210.06
396.23	1114.10
396.42	1111.75
396.62	1167.93
396.81	1193.67
397.00	1233.46
397.19	1247.51
397.39	1193.67
397.58	1125.80
397.77	1207.72
397.97	1235.80
398.16	1242.82
398.35	1254.53
398.55	1212.40
398.74	1226.44
398.93	1315.38
399.12	1275.59
399.32	1308.36
399.51	1310.70
399.70	1357.51
399.90	1268.57
400.09	1329.42
400.28	1284.95
400.47	1263.89
400.67	1336.45
400.86	1404.32
401.05	1406.66
401.24	1310.70
401.44	1317.72
401.63	1350.49
401.82	1369.21
402.01	1245.16
402.21	1465.18
402.40	1371.55
402.59	1469.86
402.78	1455.81
402.97	1502.62
403.17	1427.73
403.36	1451.13
403.55	1465.18
403.74	1504.96
403.93	1516.67
404.13	1516.67
404.32	1549.43
404.51	1537.73
404.70	1558.80
404.89	1554.12
405.09	1654.76
405.28	1638.38
405.47	1563.48
405.66	1598.59
405.85	1558.80
406.05	1511.99
406.24	1612.63
406.43	1696.89
406.62	1694.55
406.81	1736.68
407.00	1636.03
407.20	1680.50
407.39	1710.93
407.58	1806.89
407.77	1830.30
407.96	1739.02
408.15	1940.30
408.34	1853.70
408.54	1825.62
408.73	1748.38
408.92	1902.86
409.11	1832.64
409.30	1898.17
409.49	1912.22
409.68	1846.68
409.87	1961.37
410.07	1921.58
410.26	1980.09
410.45	1921.58
410.64	2019.88
410.83	2078.40
411.02	1996.48
411.21	1998.82
411.40	2010.52
411.59	1961.37
411.78	2043.29
411.98	1996.48
412.17	2120.53
412.36	2122.87
412.55	2279.68
412.74	2263.30
412.93	2275.00
413.12	2176.70
413.31	2272.66
413.50	2296.07
413.69	2279.68
413.88	2401.39
414.07	2403.73
414.26	2361.60
414.45	2382.67
414.64	2471.61
414.83	2469.27
415.02	2466.92
415.22	2593.31
415.41	2609.70
415.60	2410.75
415.79	2579.27
415.98	2553.52
416.17	2551.18
416.36	2525.44
416.55	2621.40
416.74	2644.81
416.93	2715.02
417.12	2705.66
417.31	2841.41
417.50	2708.00
417.69	2796.94
417.88	2731.41
418.07	2754.81
418.26	2757.15
418.45	2810.98
418.64	2897.58
418.83	2937.37
419.02	2986.52
419.21	2937.37
419.39	2869.50
419.58	2925.67
419.77	2899.92
419.96	3038.02
420.15	2946.73
420.34	2888.22
420.53	3033.33
420.72	3047.38
420.91	2991.20
421.10	3126.96
421.29	3112.91
421.48	3115.25
421.67	3101.21
421.86	3016.95
422.05	3157.38
422.24	3087.17
422.43	3213.56
422.61	3258.03
422.80	3260.37
422.99	3307.18
423.18	3199.51
423.37	3302.50
423.56	3248.66
423.75	3239.30
423.94	3084.83
424.13	3033.33
424.32	3117.59
424.50	3274.41
424.69	3459.31
424.88	3267.39
425.07	3325.90
425.26	3297.81
425.45	3318.88
425.64	3274.41
425.83	3255.69
426.01	3283.77
426.20	3194.83
426.39	3304.84
426.58	3358.67
426.77	3227.60
426.96	3400.80
427.15	3400.80
427.33	3466.33
427.52	3391.44
427.71	3424.20
427.90	3414.84
428.09	3419.52
428.28	3562.30
428.46	3346.97
428.65	3576.34
428.84	3684.00
429.03	3536.55
429.22	3611.45
429.40	3538.89
429.59	3613.79
429.78	3597.40
429.97	3335.26
430.16	3606.77
430.34	3602.08
430.53	3606.77
430.72	3695.71
430.91	3684.00
431.10	3845.50
431.28	3775.28
431.47	3801.03
431.66	3950.82
431.85	3749.54
432.03	3822.09
432.22	3939.12
432.41	3754.22
432.60	3873.59
432.79	3929.76
432.97	3899.33
433.16	3911.04
433.35	3922.74
433.54	3992.95
433.72	3920.40
433.91	4072.53
434.10	3950.82
434.28	4025.72
434.47	4042.11
434.66	4016.36
434.85	3953.16
435.03	4112.32
435.22	4117.00
435.41	4203.60
435.59	4028.06
435.78	4224.67
435.97	4205.94
436.16	4236.37
436.34	4175.52
436.53	4159.13
436.72	4337.01
436.90	4337.01
437.09	4088.92
437.28	4219.99
437.46	4283.18
437.65	4381.48
437.84	4358.08
438.02	4383.82
438.21	4381.48
438.40	4301.90
438.58	4524.26
438.77	4528.94
438.96	4606.17
439.14	4702.14
439.33	4571.07
439.52	4521.92
439.70	4678.73
439.89	4762.99
440.08	4905.76
440.26	4760.65
440.45	4812.14
440.63	4716.18
440.82	4884.70
441.01	4849.59
441.19	4802.78
441.38	5039.17
441.57	5055.56
441.75	5188.97
441.94	5210.03
442.12	5144.50
442.31	5088.32
442.50	5170.24
442.68	5233.44
442.87	5137.48
443.05	5252.16
443.24	5397.28
443.43	5238.12
443.61	5207.69
443.80	5355.15
443.98	5224.08
444.17	4983.00
444.35	5277.91
444.54	5327.06
444.73	5343.44
444.91	5376.21
445.10	5404.30
445.28	5327.06
445.47	5221.74
445.65	5469.83
445.84	5359.83
446.02	5371.53
446.21	5535.37
446.39	5441.75
446.58	5273.23
446.77	5465.15
446.95	5205.35
447.14	5416.00
447.32	5439.40
447.51	5315.36
447.69	5495.58
447.88	5383.23
448.06	5619.63
448.25	5547.07
448.43	5469.83
448.62	5523.66
448.80	5413.66
448.99	5514.30
449.17	5645.37
449.36	5540.05
449.54	5762.40
449.73	5867.72
449.91	5750.70
450.10	5720.27
450.28	5699.20
450.46	5743.67
450.65	5879.43
450.83	5982.41
451.02	5916.87
451.20	5708.57
451.39	5820.91
451.57	5914.53
451.76	5830.27
451.94	5982.41
452.13	5996.45
452.31	5949.64
452.49	6061.99
452.68	5944.96
452.86	5895.81
453.05	6024.54
453.23	6183.70
453.42	5827.93
453.60	5935.60
453.78	6087.73
453.97	6141.57
454.15	6031.56
454.34	6223.48
454.52	6139.23
454.70	6260.93
454.89	6054.97
455.07	6328.81
455.26	6230.51
455.44	6195.40
455.62	6251.57
455.81	6300.72
455.99	6387.32
456.17	6279.66
456.36	6413.07
456.54	6394.34
456.73	6590.95
456.91	6604.99
457.09	6520.73
457.28	6663.51
457.46	6572.22
457.64	6693.93
457.83	6689.25
458.01	6551.16
458.19	6700.95
458.38	6792.23
458.56	6768.83
458.74	7007.56
458.93	6860.11
459.11	6768.83
459.29	6782.87
459.48	6927.99
459.66	7035.65
459.84	6836.70
460.03	7108.21
460.21	7171.40
460.39	7066.08
460.57	7110.55
460.76	7082.46
460.94	7131.61
461.12	7068.42
461.31	7157.36
461.49	7344.60
461.67	7117.57
461.85	7445.24
462.04	7155.02
462.22	7679.30
462.40	7377.37
462.59	7403.11
462.77	7314.17
462.95	7548.23
463.13	7260.34
463.32	7391.41
463.50	7398.43
463.68	7569.29
463.86	7555.25
464.05	7370.35
464.23	7258.00
464.41	7557.59
464.59	7323.54
464.78	7747.17
464.96	7588.02
465.14	7396.09
465.32	7590.36
465.50	7728.45
465.69	7747.17
465.87	7473.33
466.05	7651.21
466.23	7772.92
466.41	7761.22
466.60	7906.33
466.78	7854.84
466.96	7712.07
467.14	7880.58
467.32	7838.45
467.51	7981.23
467.69	7606.74
467.87	7735.47
468.05	8152.09
468.23	8030.38
468.41	7810.37
468.60	7906.33
468.78	8112.30
468.96	7857.18
469.14	7922.71
469.32	8091.23
469.50	8067.83
469.69	8374.44
469.87	8217.62
470.05	8290.18
470.23	8332.31
470.41	8287.84
470.59	8409.54
470.77	8418.91
470.95	8435.29
471.14	8355.71
471.32	8271.45
471.50	8662.32
471.68	8430.61
471.86	8564.02
472.04	8826.16
472.22	8781.69
472.40	8634.24
472.58	8905.74
472.77	8898.72
472.95	8919.78
473.13	9387.89
473.31	9046.17
473.49	8828.50
473.67	8744.24
473.85	9076.60
474.03	9104.68
474.21	8985.32
474.39	9132.77
474.57	9373.85
474.75	9411.29
474.93	9245.12
475.12	9467.47
475.30	9338.74
475.48	9582.15
475.66	9635.99
475.84	9399.59
476.02	9610.24
476.20	9589.17
476.38	10024.51
476.56	10113.45
476.74	10141.54
476.92	9792.80
477.10	9848.97
477.28	10092.39
477.46	10010.47
477.64	10244.52
477.82	10356.87
478.00	10551.14
478.18	10314.74
478.36	10593.26
478.54	10757.10
478.72	10726.68
478.90	10906.90
479.08	10736.04
479.26	11035.63
479.44	11201.80
479.62	11052.01
479.80	11108.18
479.98	11346.92
480.16	11321.17
480.34	11449.90
480.52	11552.88
480.70	11698.00
480.88	11367.98
481.06	11758.85
481.24	11901.62
481.41	11920.35
481.59	11896.94
481.77	12177.81
481.95	12400.16
482.13	12203.55
482.31	12250.36
482.49	12844.86
482.67	12517.18
482.85	12765.28
483.03	12800.39
483.21	12732.51
483.39	13013.38
483.57	12858.90
483.74	13123.38
483.92	13263.82
484.10	13132.75
484.28	13483.83
484.46	14111.09
484.64	13654.69
484.82	13460.42
485.00	13872.36
485.18	13888.74
485.35	13965.98
485.53	14143.86
485.71	14422.38
485.89	14544.09
486.07	14478.55
486.25	14508.98
486.43	14600.26
486.61	14782.82
486.78	15051.99
486.96	15157.31
487.14	15201.78
487.32	15239.23
487.50	15337.53
487.68	15470.94
487.85	15559.88
488.03	15726.06
488.21	15983.52
488.39	15981.18
488.57	16098.20
488.75	16203.53
488.92	16442.26
489.10	16547.59
489.28	16563.97
489.46	16842.50
489.64	16641.21
489.81	17212.30
489.99	16819.09
490.17	17287.20
490.35	17516.57
490.53	17535.29
490.70	17713.17
490.88	17268.47
491.06	18073.62
491.24	17797.43
491.41	17743.60
491.59	17898.08
491.77	18256.18
491.95	18391.93
492.13	18387.25
492.30	18607.26
492.48	18450.44
492.66	18703.22
492.84	18738.33
493.01	19110.47
493.19	18881.10
493.37	19159.63
493.54	19201.76
493.72	19496.66
493.90	19426.45
494.08	19405.38
494.25	19578.58
494.43	19864.13
494.61	19906.26
494.79	19847.74
494.96	20105.20
495.14	20102.86
495.32	20430.54
495.49	20521.82
495.67	20460.96
495.85	20781.62
496.02	20678.63
496.20	20730.12
496.38	21027.37
496.55	21390.16
496.73	21551.65
496.91	21322.28
497.09	21516.54
497.26	21539.95
497.44	21432.29
497.62	21668.68
497.79	22405.95
497.97	22232.75
498.14	22272.54
498.32	22111.04
498.50	22419.99
498.67	22581.49
498.85	22244.45
499.03	22469.14
499.20	22696.17
499.38	22473.82
499.56	22848.31
499.73	22871.72
499.91	23257.90
500.08	23377.27
500.26	22984.06
500.44	23243.86
500.61	23035.55
500.79	23405.36
500.97	23782.18
501.14	23866.44
501.32	23845.38
501.49	23569.19
501.67	23718.99
501.84	24383.70
502.02	24163.69
502.20	24226.89
502.37	24065.39
502.55	24238.59
502.72	24685.63
502.90	24659.88
503.07	24467.96
503.25	24992.24
503.43	24659.88
503.60	24755.85
503.78	24795.64
503.95	24926.71
504.13	24748.82
504.30	25205.23
504.48	25193.53
504.65	25371.41
504.83	25535.24
505.01	25408.86
505.18	25722.49
505.36	25923.77
505.53	25743.55
505.71	25659.29
505.88	26026.76
506.06	25968.24
506.23	25923.77
506.41	26136.76
506.58	25956.54
506.76	26122.72
506.93	26312.30
507.11	26553.38
507.28	26602.53
507.46	26352.09
507.63	26562.74
507.81	27002.76
507.98	26696.15
508.16	26909.14
508.33	26698.49
508.50	27014.46
508.68	27213.41
508.85	27449.80
509.03	27227.45
509.20	27489.59
509.38	27648.75
509.55	27459.16
509.73	27920.25
509.90	27365.54
510.08	27679.18
510.25	27494.27
510.42	27690.88
510.60	28142.60
510.77	28231.54
510.95	28290.06
511.12	28491.34
511.30	28030.26
511.47	28545.17
511.64	28184.73
511.82	28662.20
511.99	28456.23
512.17	28460.91
512.34	28554.54
512.51	28964.13
512.69	29032.00
512.86	29137.33
513.04	28807.31
513.21	29343.30
513.38	29537.56
513.56	29200.52
513.73	29074.13
513.90	29783.32
514.08	29525.86
514.25	29450.96
514.43	29633.52
514.60	29434.58
514.77	29577.35
514.95	30043.12
515.12	30047.80
515.29	29883.96
515.47	29937.79
515.64	30433.99
515.81	30132.06
515.99	29851.19
516.16	30572.08
516.33	30375.47
516.51	30782.73
516.68	30270.15
516.85	30246.74
517.03	30843.58
517.20	30862.30
517.37	30670.38
517.54	30862.30
517.72	30560.37
517.89	30937.20
518.06	31138.49
518.24	31318.71
518.41	30801.45
518.58	30955.93
518.75	31204.02
518.93	31880.44
519.10	31131.47
519.27	31695.53
519.45	31431.05
519.62	31637.02
519.79	31768.09
519.96	31758.73
520.14	31688.51
520.31	31512.97
520.48	31889.80
520.65	31936.61
520.83	32456.21
521.00	32652.81
521.17	32327.48
521.34	32411.74
521.52	32606.00
521.69	32889.21
521.86	32727.71
522.03	33200.50
522.20	33003.89
522.38	32947.72
522.55	33069.43
522.72	32816.65
522.89	32790.91
523.07	33343.27
523.24	33205.18
523.41	33149.01
523.58	33237.95
523.75	33612.43
523.92	33160.71
524.10	33579.67
524.27	33511.79
524.44	33453.28
524.61	33846.49
524.78	33905.00
524.96	33663.93
525.13	33951.81
525.30	34146.08
525.47	34005.64
525.64	34003.30
525.81	34120.33
525.98	34382.47
526.16	34155.44
526.33	34476.09
526.50	34735.89
526.67	33991.60
526.84	34499.50
527.01	34237.36
527.18	34789.72
527.36	34768.66
527.53	34675.04
527.70	34902.07
527.87	34983.99
528.04	34696.10
528.21	35309.32
528.38	34721.85
528.55	34763.98
528.72	34967.60
528.89	35112.72
529.07	35002.71
529.24	34955.90
529.41	35545.72
529.58	35227.40
529.75	35510.61
529.92	35782.11
530.09	35428.69
530.26	35892.12
530.43	35676.79
530.60	35524.65
530.77	35620.61
530.94	35861.69
531.11	35388.90
531.28	36212.77
531.46	35887.43
531.63	35857.01
531.80	35962.33
531.97	35885.09
532.14	36151.91
532.31	36318.09
532.48	36245.54
532.65	36287.67
532.82	36182.34
532.99	36472.57
533.16	35995.10
533.33	36587.25
533.50	36238.51
533.67	36098.08
533.84	36851.73
534.01	36343.84
534.18	36458.52
534.35	36893.86
534.52	36919.61
534.69	37282.39
534.86	37223.88
535.03	36816.63
535.20	37280.05
535.37	37570.28
535.54	36954.72
535.71	37497.72
535.88	37397.08
536.05	37289.42
536.22	37345.59
536.38	37450.91
536.55	37483.68
536.72	37453.25
536.89	37586.66
537.06	37708.37
537.23	37399.42
537.40	37450.91
537.57	37624.11
537.74	38061.79
537.91	37902.64
538.08	37937.74
538.25	37507.08
538.42	38043.07
538.59	38073.49
538.75	38293.50
538.92	37972.85
539.09	38717.14
539.26	38192.86
539.43	38265.42
539.60	38689.06
539.77	38471.39
539.94	38281.80
540.11	38667.99
540.28	38543.94
540.44	38536.92
540.61	38550.96
540.78	38363.72
540.95	38630.54
541.12	38494.79
541.29	38375.42
541.46	38888.00
541.62	38904.38
541.79	39026.09
541.96	38539.26
542.13	38689.06
542.30	38925.45
542.47	38923.11
542.63	38852.89
542.80	39431.01
542.97	39215.68
543.14	39688.46
543.31	39100.99
543.48	39449.73
543.64	39817.19
543.81	39611.23
543.98	39566.76
544.15	39913.16
544.32	39468.45
544.48	40161.25
544.65	40023.16
544.82	40065.29
544.99	39143.12
545.16	40004.44
545.32	39873.37
545.49	40154.23
545.66	40311.05
545.83	40273.60
546.00	40313.39
546.16	40023.16
546.33	40194.02
546.50	39842.94
546.67	40023.16
546.83	39959.97
547.00	40346.15
547.17	39971.67
547.34	40128.48
547.50	40666.81
547.67	41013.21
547.84	40521.69
548.00	40694.89
548.17	40832.99
548.34	41064.70
548.51	40900.86
548.67	40608.29
548.84	40158.91
549.01	40896.18
549.18	40739.36
549.34	40722.98
549.51	40779.15
549.68	41146.62
549.84	41036.61
550.01	41263.64
550.18	40889.16
550.34	41268.33
550.51	41053.00
550.68	41244.92
550.84	40947.67
551.01	41603.02
551.18	41265.99
551.34	41024.91
551.51	41720.05
551.68	41237.90
551.84	41106.83
552.01	41294.07
552.18	41329.18
552.34	41057.68
552.51	41408.76
552.68	41319.82
552.84	41532.81
553.01	41759.84
553.18	41724.73
553.34	41532.81
553.51	41834.74
553.67	41813.67
553.84	41846.44
554.01	42043.04
554.17	41708.35
554.34	42300.50
554.51	42038.36
554.67	42635.20
554.84	42014.96
555.00	41982.19
555.17	41986.87
555.33	42106.24
555.50	42106.24
555.67	42176.45
555.83	42131.98
556.00	42209.22
556.16	42630.52
556.33	42696.05
556.50	42703.07
556.66	42089.85
556.83	42391.78
556.99	42962.87
557.16	42412.85
557.32	42473.70
557.49	42773.29
557.65	42433.91
557.82	42452.64
557.98	42775.63
558.15	42391.78
558.32	42602.43
558.48	42249.01
558.65	42682.01
558.81	42700.73
558.98	42515.83
559.14	42754.57
559.31	43035.43
559.47	42726.48
559.64	42906.70
559.80	42939.47
559.97	43236.72
560.13	42628.18
560.30	43189.91
560.46	43454.39
560.63	43320.98
560.79	43093.94
560.96	43281.19
561.12	43089.26
561.29	43096.28
561.45	43374.81
561.61	43187.56
561.78	43157.14
561.94	42909.04
562.11	43449.70
562.27	43288.21
562.44	43349.06
562.60	43255.44
562.77	43749.29
562.93	43442.68
563.10	43753.97
563.26	43531.62
563.42	43538.65
563.59	43295.23
563.75	43344.38
563.92	43585.46
564.08	43107.99
564.24	43636.95
564.41	43753.97
564.57	43480.13
564.74	43791.42
564.90	43650.99
565.07	43650.99
565.23	44065.27
565.39	43969.30
565.56	43618.22
565.72	43421.62
565.88	43550.35
566.05	43583.12
566.21	43885.04
566.38	43344.38
566.54	43761.00
566.70	43885.04
566.87	44135.48
567.03	43679.08
567.19	44020.80
567.36	43889.73
567.52	43988.03
567.68	43873.34
567.85	44238.47
568.01	43945.90
568.17	43786.74
568.34	43690.78
568.50	44011.43
568.66	43761.00
568.83	44116.76
568.99	43861.64
569.15	44320.38
569.32	43913.13
569.48	43622.90
569.64	44552.10
569.81	44030.16
569.97	44093.35
570.13	44189.31
570.30	44233.78
570.46	44091.01
570.62	43878.02
570.78	44133.14
570.95	44037.18
571.11	44119.10
571.27	43508.22
571.43	43959.94
571.60	44079.31
571.76	44009.09
571.92	44575.50
572.09	43695.46
572.25	43995.05
572.41	43962.28
572.57	43840.57
572.74	44744.02
572.90	44226.76
573.06	44304.00
573.22	44765.09
573.38	44790.83
573.55	44713.59
573.71	44769.77
573.87	44533.37
574.03	44516.99
574.20	44577.84
574.36	44402.30
574.52	44612.95
574.68	44416.35
574.84	44463.16
575.01	44800.19
575.17	44744.02
575.33	44685.51
575.49	44439.75
575.65	44184.63
575.82	44626.99
575.98	44226.76
576.14	44163.57
576.30	44619.97
576.46	44437.41
576.62	44825.94
576.79	44535.71
576.95	44065.27
577.11	44257.19
577.27	44561.46
577.43	44617.63
577.59	44917.22
577.75	44549.76
577.92	44683.17
578.08	44414.01
578.24	44868.07
578.40	44699.55
578.56	44584.86
578.72	44854.03
578.88	44748.70
579.04	44509.97
579.21	44545.08
579.37	44392.94
579.53	44832.96
579.69	44783.81
579.85	44584.86
580.01	44381.24
580.17	44416.35
580.33	44715.93
580.49	44940.63
580.65	44751.04
580.82	44533.37
580.98	44285.28
581.14	44261.87
581.30	44722.96
581.46	44374.22
581.62	44748.70
581.78	44577.84
581.94	44751.04
582.10	44477.20
582.26	44875.09
582.42	44671.46
582.58	44762.75
582.74	44493.58
582.90	44926.58
583.06	44886.79
583.22	44533.37
583.38	44996.80
583.54	44933.60
583.70	44942.97
583.86	45118.51
584.02	45280.00
584.18	44608.27
584.34	45179.36
584.50	45064.67
584.66	44980.42
584.82	44851.69
584.98	45181.70
585.14	45113.83
585.30	44931.26
585.46	45326.81
585.62	44739.34
585.78	45284.68
585.94	44610.61
586.10	44856.37
586.26	44673.81
586.42	45090.42
586.58	44790.83
586.74	44725.30
586.90	44381.24
587.06	44985.10
587.22	45057.65
587.38	44697.21
587.54	44669.12
587.70	45319.79
587.86	44790.83
588.02	44985.10
588.18	44622.31
588.34	44933.60
588.49	45244.90
588.65	44847.00
588.81	45184.04
588.97	45193.40
589.13	45059.99
589.29	44982.76
589.45	45188.72
589.61	45069.36
589.77	45305.75
589.93	45277.66
590.08	45017.86
590.24	45193.40
590.40	45794.92
590.56	45394.69
590.72	45095.10
590.88	45130.21
591.04	45092.76
591.20	45808.96
591.35	45268.30
591.51	45092.76
591.67	45858.12
591.83	45717.68
591.99	45020.20
592.15	44664.44
592.31	45446.18
592.46	45359.58
592.62	45392.35
592.78	45380.65
592.94	45492.99
593.10	45373.63
593.26	45483.63
593.41	45366.60
593.57	45883.86
593.73	45675.55
593.89	45855.78
594.05	45511.72
594.20	45710.66
594.36	45925.99
594.52	45380.65
594.68	45275.32
594.84	45392.35
594.99	45755.13
595.15	45200.43
595.31	45612.36
595.47	45411.07
595.62	45282.34
595.78	45642.79
595.94	45631.08
596.10	45731.73
596.25	45647.47
596.41	45837.05
596.57	45483.63
596.73	45883.86
596.88	45551.51
597.04	45668.53
597.20	45401.71
597.36	45940.04
597.51	45694.28
597.67	45593.64
597.83	45371.28
597.99	45420.44
598.14	45722.37
598.30	45996.21
598.46	45312.77
598.61	45722.37
598.77	45593.64
598.93	45993.87
599.09	45420.44
599.24	45993.87
599.40	45713.00
599.56	45839.39
599.71	46014.93
599.87	46092.17
600.03	46211.54
600.18	45984.51
600.34	45860.46
600.50	45935.35
600.65	45640.45
600.81	46103.87
600.97	46218.56
601.12	45869.82
601.28	45624.06
601.44	45860.46
601.59	45584.27
601.75	45668.53
601.91	46253.67
602.06	45820.67
602.22	45909.61
602.37	45715.34
602.53	45724.71
602.69	46064.08
602.84	45881.52
603.00	45956.42
603.16	45830.03
603.31	46005.57
603.47	45734.07
603.62	45993.87
603.78	46134.30
603.94	45886.20
604.09	45614.70
604.25	45446.18
604.40	45794.92
604.56	45713.00
604.71	46101.53
604.87	45923.65
605.03	45759.81
605.18	45579.59
605.34	45923.65
605.49	45965.78
605.65	45792.58
605.80	45731.73
605.96	45343.20
606.12	45357.24
606.27	45876.84
606.43	45535.12
606.58	45897.91
606.74	45626.40
606.89	45659.17
607.05	45453.20
607.20	45996.21
607.36	45661.51
607.51	46021.95
607.67	45661.51
607.82	45429.80
607.98	45350.22
608.13	45673.21
608.29	45354.90
608.44	45392.35
608.60	45478.95
608.75	46038.34
608.91	45851.09
609.06	45595.98
609.22	45488.31
609.37	45184.04
609.53	45661.51
609.68	45769.18
609.84	45319.79
609.99	45277.66
610.15	45521.08
610.30	44856.37
610.46	45350.22
610.61	45322.13
610.76	45483.63
610.92	45514.06
611.07	44959.35
611.23	45050.63
611.38	45542.14
611.54	45745.77
611.69	45312.77
611.84	45804.28
612.00	45036.59
612.15	45031.91
612.31	45406.39
612.46	45013.18
612.62	45043.61
612.77	45326.81
612.92	45558.53
613.08	44891.48
613.23	45120.85
613.39	44683.17
613.54	45155.96
613.69	45366.60
613.85	44690.19
614.00	45001.48
614.15	45289.37
614.31	44486.56
614.46	45251.92
614.62	45043.61
614.77	45031.91
614.92	45148.93
615.08	44900.84
615.23	45186.38
615.38	44928.92
615.54	44957.01
615.69	45074.04
615.84	44917.22
616.00	45111.49
616.15	45174.68
616.30	44851.69
616.46	44875.09
616.61	44697.21
616.76	44959.35
616.92	44964.03
617.07	44711.25
617.22	44516.99
617.37	45041.27
617.53	44751.04
617.68	44861.05
617.83	45041.27
617.99	45036.59
618.14	45177.02
618.29	44109.74
618.45	44512.31
618.60	44252.51
618.75	44151.87
618.90	44341.45
619.06	44292.30
619.21	44605.93
619.36	44596.57
619.51	44315.70
619.67	44334.43
619.82	44381.24
619.97	44416.35
620.12	44308.68
620.28	44268.89
620.43	44404.64
620.58	44664.44
620.73	44772.11
620.89	44416.35
621.04	44292.30
621.19	44229.10
621.34	44245.49
621.49	44184.63
621.65	44435.07
621.80	44444.43
621.95	44559.12
622.10	44411.67
622.25	44100.37
622.41	43995.05
622.56	44060.58
622.71	44278.25
622.86	44002.07
623.01	44343.79
623.16	43899.09
623.32	44336.77
623.47	44130.80
623.62	44222.08
623.77	43885.04
623.92	44041.86
624.07	44079.31
624.23	44282.94
624.38	44243.15
624.53	44273.57
624.68	43636.95
624.83	43863.98
624.98	43615.88
625.13	43428.64
625.29	43871.00
625.44	43470.77
625.59	43384.17
625.74	43538.65
625.89	43557.37
626.04	43629.93
626.19	43660.35
626.34	43423.96
626.49	43421.62
626.65	43131.39
626.80	43569.07
626.95	43196.93
627.10	43150.12
627.25	43208.63
627.40	43821.85
627.55	43643.97
627.70	43255.44
627.85	43580.78
628.00	43524.60
628.15	43330.34
628.30	42916.06
628.45	42866.91
628.60	42618.81
628.76	43199.27
628.91	42981.60
629.06	42548.60
629.21	42876.27
629.36	42639.88
629.51	42885.64
629.66	43292.89
629.81	43023.73
629.96	43138.41
630.11	42782.65
630.26	42918.40
630.41	43203.95
630.56	42913.72
630.71	42941.81
630.86	43030.75
631.01	42550.94
631.16	42403.49
631.31	42469.02
631.46	42934.79
631.61	43014.37
631.76	42843.51
631.91	42761.59
632.06	42803.72
632.21	43100.97
632.36	42658.60
632.51	42157.73
632.66	42319.23
632.81	42370.72
632.96	42845.85
633.10	42583.71
633.25	42452.64
633.40	42206.88
633.55	42653.92
633.70	42220.92
633.85	42433.91
634.00	41689.62
634.15	41972.83
634.30	42078.15
634.45	42674.99
634.60	42192.84
634.75	42232.63
634.90	42333.27
635.05	42426.89
635.19	41897.93
635.34	42660.94
635.49	42174.11
635.64	41942.40
635.79	42541.58
635.94	42124.96
636.09	42239.65
636.24	41813.67
636.39	42031.34
636.53	42183.48
636.68	41694.30
636.83	41605.36
636.98	41706.01
637.13	41558.55
637.28	41848.78
637.43	41729.41
637.57	41867.50
637.72	41588.98
637.87	41743.45
638.02	41462.59
638.17	41727.07
638.32	41495.36
638.46	41500.04
638.61	41352.58
638.76	41273.01
638.91	41413.44
639.06	41839.42
639.20	41074.06
639.35	41649.83
639.50	41177.04
639.65	41345.56
639.80	41752.82
639.94	41619.41
640.09	41794.95
640.24	41308.11
640.39	41305.77
640.54	40959.38
640.68	41661.54
640.83	41282.37
640.98	41380.67
641.13	40701.92
641.27	41565.57
641.42	40933.63
641.57	40957.03
641.72	40942.99
641.86	41139.60
642.01	40772.13
642.16	40505.31
642.31	40418.71
642.45	40947.67
642.60	40388.28
642.75	40886.82
642.90	41074.06
643.04	40875.12
643.19	40643.40
643.34	40893.84
643.48	40399.99
643.63	40556.80
643.78	40596.59
643.93	41249.60
644.07	40577.87
644.22	40907.88
644.37	40383.60
644.51	40528.72
644.66	40933.63
644.81	40933.63
644.95	40367.22
645.10	40769.79
645.25	40367.22
645.39	40341.47
645.54	40509.99
645.69	40643.40
645.83	40114.44
645.98	39880.39
646.13	40264.24
646.27	40285.30
646.42	39938.90
646.57	40250.19
646.71	40512.33
646.86	40329.77
647.00	40311.05
647.15	40594.25
647.30	40308.71
647.44	40018.48
647.59	39969.33
647.74	39796.13
647.88	40231.47
648.03	39838.26
648.17	40505.31
648.32	40009.12
648.47	40334.45
648.61	40013.80
648.76	40135.51
648.90	39763.36
649.05	39840.60
649.20	39754.00
649.34	39377.17
649.49	40004.44
649.63	39796.13
649.78	40177.64
649.92	39821.87
650.07	40051.25
650.21	40187.00
650.36	40074.65
650.51	40168.27
650.65	39847.62
650.80	39849.96
650.94	39959.97
651.09	39571.44
651.23	39454.41
651.38	39435.69
651.52	39426.32
651.67	39842.94
651.81	39323.34
651.96	39653.36
652.10	39667.40
652.25	39136.10
652.39	39407.60
652.54	39456.75
652.68	39564.42
652.83	39377.17
652.97	39328.02
653.12	39283.55
653.26	39093.97
653.41	39292.91
653.55	39199.29
653.70	39456.75
653.84	39082.27
653.99	39058.86
654.13	39583.14
654.27	38632.88
654.42	39150.14
654.56	39016.73
654.71	39105.67
654.85	39124.40
655.00	38983.96
655.14	39213.34
655.29	39344.41
655.43	39229.72
655.57	38724.16
655.72	38078.18
655.86	38499.47
656.01	38836.51
656.15	38167.12
656.30	38588.41
656.44	38831.83
656.58	38492.45
656.73	38078.18
656.87	38438.62
657.01	38007.96
657.16	38483.09
657.30	38572.03
657.45	38733.53
657.59	38185.84
657.73	38050.09
657.88	38529.90
658.02	38766.29
658.16	38609.48
658.31	38340.32
658.45	38206.90
658.60	38246.69
658.74	38375.42
658.88	37977.53
659.03	38103.92
659.17	37867.53
659.31	38007.96
659.46	38211.59
659.60	38373.08
659.74	37797.31
659.89	37813.70
660.03	37319.84
660.17	37647.52
660.32	37570.28
660.46	37523.47
660.60	37345.59
660.74	37759.86
660.89	37544.53
661.03	37235.58
661.17	36999.19
661.32	36896.20
661.46	37102.17
661.60	37357.29
661.74	37202.82
661.89	37048.34
662.03	37118.56
662.17	37156.00
662.31	36767.48
662.46	37310.48
662.60	36767.48
662.74	36591.94
662.88	36498.31
663.03	36512.36
663.17	36594.28
663.31	36793.22
663.45	36734.71
663.60	37198.13
663.74	36891.52
663.88	36636.41
664.02	36474.91
664.17	36563.85
664.31	36116.81
664.45	36404.69
664.59	36528.74
664.73	36477.25
664.88	36664.49
665.02	36135.53
665.16	35758.70
665.30	35541.03
665.44	35913.18
665.59	35711.89
665.73	35517.63
665.87	35440.39
666.01	35920.20
666.15	35945.95
666.29	35672.10
666.44	36037.23
666.58	35391.24
666.72	35274.21
666.86	35585.50
667.00	35754.02
667.14	35204.00
667.28	35330.39
667.43	35206.34
667.57	35461.46
667.71	35201.66
667.85	35421.67
667.99	35243.79
668.13	34707.80
668.27	34618.86
668.41	35138.46
668.56	34307.57
668.70	34494.82
668.84	34270.12
668.98	34265.44
669.12	34256.08
669.26	34639.93
669.40	34651.63
669.54	34565.03
669.68	34597.80
669.82	34244.38
669.96	34117.99
670.10	33762.23
670.25	34087.56
670.39	33755.21
670.53	33860.53
670.67	33762.23
670.81	34316.93
670.95	33881.60
671.09	33811.38
671.23	33720.10
671.37	33724.78
671.51	33914.36
671.65	33649.88
671.79	33558.60
671.93	33621.80
672.07	33785.63
672.21	33537.54
672.35	32868.14
672.49	33490.73
672.63	32973.47
672.77	32755.80
672.91	33076.45
673.05	32697.28
673.19	32481.95
673.33	32713.67
673.47	32734.73
673.61	32582.60
673.75	32254.92
673.89	32081.72
674.03	32343.86
674.17	32226.84
674.31	32072.36
674.45	31695.53
674.59	31796.18
674.73	32294.71
674.87	31725.96
675.01	31857.03
675.15	31728.30
675.29	31377.22
675.43	31557.44
675.56	31510.63
675.70	31255.51
675.84	30859.96
675.98	30293.55
676.12	30904.43
676.26	31428.71
676.40	31213.38
676.54	30670.38
676.68	30700.81
676.82	30497.18
676.96	30677.40
677.10	30611.87
677.23	30216.32
677.37	30445.69
677.51	30256.11
677.65	29968.22
677.79	29916.73
677.93	29869.92
678.07	29837.15
678.21	29528.20
678.34	29542.24
678.48	29294.14
678.62	29408.83
678.76	29090.52
678.90	29057.75
679.04	29628.84
679.18	29422.87
679.31	29167.76
679.45	28884.55
679.59	28800.29
679.73	29188.82
679.87	28760.50
680.00	28566.24
680.14	28723.05
680.28	28503.04
680.42	28339.21
680.56	28503.04
680.70	27917.91
680.83	27936.63
680.97	28041.96
681.11	27927.27
681.25	27686.20
681.39	27505.98
681.52	27543.42
681.66	26888.07
681.80	27182.98
681.94	26862.33
682.07	26923.18
682.21	27339.80
682.35	26923.18
682.49	27166.60
682.62	26951.27
682.76	26799.13
682.90	26775.73
683.04	26890.41
683.17	26735.94
683.31	26464.44
683.45	26059.52
683.59	25872.28
683.72	25766.96
683.86	25839.51
684.00	25809.09
684.13	25804.41
684.27	25495.46
684.41	25689.72
684.55	25455.67
684.68	25458.01
684.82	25359.70
684.96	25441.62
685.09	25106.93
685.23	25401.83
685.37	25642.91
685.50	25387.79
685.64	25315.23
685.78	24840.11
685.91	24702.01
686.05	24362.64
686.19	23927.30
686.32	24339.23
686.46	24004.53
686.60	23548.13
686.73	24151.99
686.87	24030.28
687.01	24283.06
687.14	24182.42
687.28	23707.29
687.42	23288.33
687.55	23431.10
687.69	23723.67
687.82	23267.27
687.96	23323.44
688.10	23693.24
688.23	23208.75
688.37	23297.69
688.50	23283.65
688.64	22986.40
688.78	23246.20
688.91	22696.17
689.05	22808.52
689.18	22696.17
689.32	22396.59
689.46	22356.80
689.59	22450.42
689.73	22705.54
689.86	22490.21
690.00	22286.58
690.13	22113.38
690.27	21965.93
690.41	21909.75
690.54	21638.25
690.68	21818.47
690.81	21493.14
690.95	21617.19
691.08	21209.93
691.22	21170.15
691.35	21039.08
691.49	21392.50
691.62	21247.38
691.76	20538.20
691.89	20790.98
692.03	20535.86
692.16	20271.38
692.30	20812.04
692.43	20374.36
692.57	20217.55
692.70	20189.46
692.84	20318.19
692.97	19892.21
693.11	19981.15
693.24	19852.42
693.38	19866.47
693.51	19543.47
693.65	19740.08
693.78	19410.06
693.92	19630.07
694.05	19328.14
694.19	19178.35
694.32	19192.39
694.45	19564.54
694.59	19178.35
694.72	19536.45
694.86	19080.05
694.99	18789.82
695.13	18972.38
695.26	18717.26
695.39	18586.19
695.53	18431.72
695.66	18635.35
695.80	18576.83
695.93	18654.07
696.07	18122.77
696.20	17921.48
696.33	17839.56
696.47	17565.72
696.60	17804.46
696.73	17778.71
696.87	17949.57
697.00	17687.43
697.14	17617.21
697.27	17467.42
697.40	17249.75
697.54	17294.22
697.67	17235.70
697.80	17224.00
697.94	17151.45
698.07	16952.50
698.21	16837.81
698.34	16901.01
698.47	16798.02
698.61	16671.64
698.74	16217.57
698.87	16411.84
699.01	16266.72
699.14	16252.68
699.27	16128.63
699.40	16346.30
699.54	15990.54
699.67	16149.70
699.80	16156.72
699.94	15971.82
700.07	15896.92
700.20	15838.41
700.34	15639.46
700.47	15833.72
700.60	15840.75
700.73	15587.97
700.87	15295.40
701.00	15379.66
701.13	15353.91
701.26	15300.08
701.40	15154.97
701.53	15073.05
701.66	15047.30
701.79	14932.62
701.93	15005.17
702.06	14548.77
702.19	14658.78
702.32	14707.93
702.46	14560.47
702.59	14478.55
702.72	14382.59
702.85	14356.85
702.99	14335.78
703.12	14190.67
703.25	14085.34
703.38	14167.26
703.51	14148.54
703.65	13888.74
703.78	13867.67
703.91	13661.71
704.04	13638.30
704.17	13495.53
704.31	13540.00
704.44	13467.44
704.57	13530.64
704.70	13558.72
704.83	13341.05
704.96	13266.16
705.10	13015.72
705.23	12863.58
>>>>>End Processed Spectral Data<<<<<
