SpectraSuite Data File
++++++++++++++++++++++++++++++++++++
Date: Fri Oct 25 10:48:23 EDT 2013
User: price-jones
Dark Spectrum Present: No
Reference Spectrum Present: No
Number of Sampled Component Spectra: 1
Spectrometers: USB2+H05261
Integration Time (usec): 100000 (USB2+H05261)
Spectra Averaged: 1 (USB2+H05261)
Boxcar Smoothing: 0 (USB2+H05261)
Correct for Electrical Dark: No (USB2+H05261)
Strobe/Lamp Enabled: No (USB2+H05261)
Correct for Detector Non-linearity: No (USB2+H05261)
Correct for Stray Light: No (USB2+H05261)
Number of Pixels in Processed Spectrum: 2048
>>>>>Begin Processed Spectral Data<<<<<
365.73	182.56
365.92	182.56
366.12	182.56
366.32	86.60
366.52	32.77
366.72	28.09
366.91	58.51
367.11	7.02
367.31	102.98
367.51	0.00
367.70	60.85
367.90	11.70
368.10	60.85
368.30	74.90
368.49	0.00
368.69	42.13
368.89	93.62
369.09	0.00
369.28	95.96
369.48	98.30
369.68	46.81
369.87	135.75
370.07	168.52
370.27	147.45
370.47	194.26
370.66	362.78
370.86	449.38
371.06	505.56
371.25	554.71
371.45	491.51
371.65	496.19
371.84	510.24
372.04	425.98
372.24	552.37
372.44	561.73
372.63	484.49
372.83	561.73
373.03	514.92
373.22	589.82
373.42	524.28
373.62	589.82
373.81	589.82
374.01	493.85
374.21	550.03
374.40	571.09
374.60	589.82
374.79	552.37
374.99	547.69
375.19	645.99
375.38	564.07
375.58	545.34
375.78	550.03
375.97	592.16
376.17	650.67
376.37	582.79
376.56	589.82
376.76	641.31
376.95	685.78
377.15	655.35
377.35	737.27
377.54	596.84
377.74	634.29
377.93	641.31
378.13	660.03
378.33	760.67
378.52	676.41
378.72	629.60
378.91	671.73
379.11	613.22
379.31	622.58
379.50	667.05
379.70	748.97
379.89	667.05
380.09	711.52
380.28	624.92
380.48	695.14
380.68	629.60
380.87	709.18
381.07	575.77
381.26	669.39
381.46	688.12
381.65	706.84
381.85	650.67
382.04	660.03
382.24	713.86
382.43	695.14
382.63	720.88
382.83	678.76
383.02	711.52
383.22	791.10
383.41	744.29
383.61	723.23
383.80	828.55
384.00	784.08
384.19	788.76
384.39	905.79
384.58	758.33
384.78	821.53
384.97	809.83
385.17	802.80
385.36	795.78
385.56	805.14
385.75	819.19
385.95	828.55
386.14	917.49
386.34	882.38
386.53	926.85
386.72	819.19
386.92	849.61
387.11	821.53
387.31	851.96
387.50	807.48
387.70	868.34
387.89	830.89
388.09	936.21
388.28	870.68
388.48	875.36
388.67	987.71
388.86	924.51
389.06	957.28
389.25	1001.75
389.45	964.30
389.64	976.00
389.84	1062.60
390.03	1004.09
390.22	1062.60
390.42	910.47
390.61	994.73
390.81	1027.50
391.00	1093.03
391.19	1071.97
391.39	1020.47
391.58	1036.86
391.78	1050.90
391.97	1132.82
392.16	1055.58
392.36	1163.25
392.55	1102.39
392.75	1015.79
392.94	1018.13
393.13	1013.45
393.33	968.98
393.52	1062.60
393.71	1069.62
393.91	1135.16
394.10	1121.12
394.29	1081.33
394.49	1188.99
394.68	1252.19
394.88	1256.87
395.07	1228.78
395.26	1128.14
395.46	1214.74
395.65	1235.80
395.84	1224.10
396.04	1233.46
396.23	1053.24
396.42	1170.27
396.62	1130.48
396.81	1100.05
397.00	1277.93
397.19	1324.74
397.39	1331.76
397.58	1345.81
397.77	1432.41
397.97	1350.49
398.16	1451.13
398.35	1507.30
398.55	1345.81
398.74	1554.12
398.93	1444.11
399.12	1453.47
399.32	1554.12
399.51	1394.96
399.70	1516.67
399.90	1481.56
400.09	1544.75
400.28	1598.59
400.47	1509.65
400.67	1577.52
400.86	1577.52
401.05	1593.90
401.24	1600.93
401.44	1619.65
401.63	1764.76
401.82	1633.69
402.01	1542.41
402.21	1788.17
402.40	1708.59
402.59	1715.61
402.78	1767.10
402.97	1692.21
403.17	1769.44
403.36	1746.04
403.55	1743.70
403.74	1832.64
403.93	1832.64
404.13	1888.81
404.32	1820.94
404.51	1774.13
404.70	1914.56
404.89	1783.49
405.09	1893.49
405.28	1811.57
405.47	1827.96
405.66	1818.60
405.85	2085.42
406.05	2069.03
406.24	1865.41
406.43	1989.46
406.62	2059.67
406.81	2157.97
407.00	1959.03
407.20	1996.48
407.39	2132.23
407.58	2043.29
407.77	2038.61
407.96	2125.21
408.15	2134.57
408.34	2183.72
408.54	2289.04
408.73	2284.36
408.92	2263.30
409.11	2242.23
409.30	2143.93
409.49	2153.29
409.68	2270.32
409.87	2272.66
410.07	2319.47
410.26	2340.54
410.45	2345.22
410.64	2321.81
410.83	2396.71
411.02	2448.20
411.21	2565.23
411.40	2541.82
411.59	2450.54
411.78	2511.39
411.98	2537.14
412.17	2527.78
412.36	2722.04
412.55	2729.06
412.74	2605.02
412.93	2684.59
413.12	2572.25
413.31	2700.98
413.50	2834.39
413.69	2761.83
413.88	2825.03
414.07	2846.09
414.26	2867.16
414.45	2841.41
414.64	2843.75
414.83	3035.67
415.02	2881.20
415.22	2998.23
415.41	3063.76
415.60	3042.70
415.79	3061.42
415.98	3236.96
416.17	3213.56
416.36	3143.34
416.55	3117.59
416.74	3267.39
416.93	3119.93
417.12	3276.75
417.31	3159.72
417.50	3173.77
417.69	3323.56
417.88	3199.51
418.07	3318.88
418.26	3363.35
418.45	3541.23
418.64	3501.44
418.83	3421.86
419.02	3531.87
419.21	3412.50
419.39	3482.72
419.58	3466.33
419.77	3426.54
419.96	3693.37
420.15	3592.72
420.34	3569.32
420.53	3719.11
420.72	3712.09
420.91	3772.94
421.10	3742.52
421.29	3630.17
421.48	3630.17
421.67	3798.69
421.86	3686.34
422.05	3770.60
422.24	3721.45
422.43	3489.74
422.61	3740.18
422.80	3861.88
422.99	3803.37
423.18	3857.20
423.37	3829.12
423.56	3840.82
423.75	3824.44
423.94	3887.63
424.13	3627.83
424.32	3852.52
424.50	3929.76
424.69	3981.25
424.88	3918.06
425.07	3796.35
425.26	3801.03
425.45	3929.76
425.64	3873.59
425.83	3822.09
426.01	3915.72
426.20	3873.59
426.39	3943.80
426.58	3976.57
426.77	3887.63
426.96	3721.45
427.15	3861.88
427.33	4079.55
427.52	3901.67
427.71	4095.94
427.90	4053.81
428.09	4014.02
428.28	4030.40
428.46	4119.34
428.65	4018.70
428.84	4149.77
429.03	4154.45
429.22	4044.45
429.40	4065.51
429.59	3992.95
429.78	3906.35
429.97	3693.37
430.16	4009.34
430.34	4051.47
430.53	4058.49
430.72	4049.13
430.91	4255.09
431.10	4194.24
431.28	4386.16
431.47	4603.83
431.66	4622.56
431.85	4573.41
432.03	4484.47
432.22	4585.11
432.41	4638.94
432.60	4671.71
432.79	4655.33
432.97	4587.45
433.16	4627.24
433.35	4669.37
433.54	4496.17
433.72	4535.96
433.91	4449.36
434.10	4643.62
434.28	4620.22
434.47	4779.37
434.66	4784.06
434.85	4851.93
435.03	4793.42
435.22	4910.44
435.41	4997.04
435.59	5018.11
435.78	4968.96
435.97	4950.23
436.16	4912.78
436.34	5027.47
436.53	5064.92
436.72	5046.20
436.90	4985.34
437.09	4910.44
437.28	4884.70
437.46	5191.31
437.65	5088.32
437.84	5128.11
438.02	5102.37
438.21	5111.73
438.40	5055.56
438.58	5160.88
438.77	5270.89
438.96	5261.52
439.14	5399.62
439.33	5495.58
439.52	5500.26
439.70	5584.52
439.89	5591.54
440.08	5495.58
440.26	5746.02
440.45	5628.99
440.63	5746.02
440.82	5731.97
441.01	5675.80
441.19	5930.92
441.38	5996.45
441.57	5975.39
441.75	6122.84
441.94	6057.31
442.12	6188.38
442.31	6221.14
442.50	6214.12
442.68	6286.68
442.87	6230.51
443.05	6188.38
443.24	6284.34
443.43	6148.59
443.61	6298.38
443.80	6286.68
443.98	6354.55
444.17	6078.37
444.35	6263.27
444.54	6502.01
444.73	6427.11
444.91	6459.88
445.10	6370.94
445.28	6303.06
445.47	6218.80
445.65	6186.04
445.84	6310.08
446.02	6338.17
446.21	6473.92
446.39	6497.33
446.58	6565.20
446.77	6436.47
446.95	6345.19
447.14	6431.79
447.32	6743.08
447.51	6448.18
447.69	6345.19
447.88	6392.00
448.06	6588.61
448.25	6485.62
448.43	6698.61
448.62	6560.52
448.80	6705.63
448.99	6637.76
449.17	6602.65
449.36	6679.89
449.54	6825.00
449.73	6778.19
449.91	6808.62
450.10	6874.15
450.28	7005.22
450.46	7103.53
450.65	7220.55
450.83	7002.88
451.02	6988.84
451.20	7173.74
451.39	6956.07
451.57	6895.22
451.76	7021.61
451.94	7082.46
452.13	7075.44
452.31	6932.67
452.49	6843.73
452.68	7007.56
452.86	7082.46
453.05	7274.38
453.23	7311.83
453.42	7117.57
453.60	7037.99
453.78	7171.40
453.97	7108.21
454.15	7239.28
454.34	7194.81
454.52	7262.68
454.70	7421.84
454.89	7232.26
455.07	7478.01
455.26	7449.93
455.44	7396.09
455.62	7648.87
455.81	7541.21
455.99	7597.38
456.17	7463.97
456.36	7564.61
456.54	7588.02
456.73	7761.22
456.91	7676.96
457.09	7962.50
457.28	7957.82
457.46	7850.16
457.64	7976.55
457.83	7805.69
458.01	7840.79
458.19	8208.26
458.38	8102.93
458.56	7957.82
458.74	8077.19
458.93	8079.53
459.11	7983.57
459.29	7995.27
459.48	8187.19
459.66	8217.62
459.84	8320.60
460.03	8372.10
460.21	8416.57
460.39	8243.37
460.57	8276.13
460.76	8507.85
460.94	8617.85
461.12	8531.25
461.31	8425.93
461.49	8535.93
461.67	8538.27
461.85	8748.92
462.04	8360.39
462.22	8985.32
462.40	8690.41
462.59	8573.38
462.77	8737.22
462.95	8706.79
463.13	8795.73
463.32	8659.98
463.50	8709.13
463.68	8718.50
463.86	8917.44
464.05	8510.19
464.23	8769.99
464.41	8840.20
464.59	8870.63
464.78	8975.95
464.96	8849.57
465.14	8800.41
465.32	9004.04
465.50	9092.98
465.69	9090.64
465.87	8997.02
466.05	8821.48
466.23	8961.91
466.41	9071.92
466.60	9249.80
466.78	9029.79
466.96	8966.59
467.14	9135.11
467.32	9172.56
467.51	9277.88
467.69	9006.38
467.87	9301.29
468.05	9151.49
468.23	9371.50
468.41	9179.58
468.60	9387.89
468.78	9521.30
468.96	9224.05
469.14	9511.94
469.32	9572.79
469.50	9329.38
469.69	9373.85
469.87	9570.45
470.05	9643.01
470.23	9514.28
470.41	9521.30
470.59	9617.26
470.77	9556.41
470.95	9806.84
471.14	9926.21
471.32	9799.82
471.50	10132.18
471.68	10045.58
471.86	10146.22
472.04	10029.20
472.22	10270.27
472.40	10099.41
472.58	10015.15
472.77	10183.67
472.95	10513.69
473.13	10450.49
473.31	10303.04
473.49	10115.80
473.67	10434.11
473.85	10455.17
474.03	10754.76
474.21	10796.89
474.39	10726.68
474.57	10956.05
474.75	10897.53
474.93	10808.59
475.12	11026.26
475.30	11007.54
475.48	10820.30
475.66	10937.32
475.84	11035.63
476.02	11229.89
476.20	11073.07
476.38	11529.48
476.56	11672.25
476.74	11702.68
476.92	11405.43
477.10	11627.78
477.28	11857.15
477.46	11700.34
477.64	11864.18
477.82	11941.41
478.00	12365.05
478.18	12456.33
478.36	12334.62
478.54	12219.94
478.72	12578.04
478.90	12456.33
479.08	12765.28
479.26	12652.94
479.44	12503.14
479.62	12868.27
479.80	13137.43
479.98	13174.88
480.16	13654.69
480.34	13315.31
480.52	13397.23
480.70	13429.99
480.88	13280.20
481.06	13544.68
481.24	13495.53
481.41	13853.63
481.59	13870.01
481.77	14209.39
481.95	14127.47
482.13	14389.61
482.31	14265.57
482.49	14712.61
482.67	14604.94
482.85	14485.58
483.03	14951.34
483.21	14984.11
483.39	14878.79
483.57	15101.14
483.74	15183.06
483.92	15152.63
484.10	15335.19
484.28	15309.44
484.46	15672.23
484.64	16020.97
484.82	15620.74
485.00	16002.24
485.18	16189.49
485.35	16402.47
485.53	15875.85
485.71	15915.64
485.89	16182.46
486.07	16411.84
486.25	16554.61
486.43	16769.94
486.61	16875.26
486.78	17167.83
486.96	17032.08
487.14	17469.76
487.32	17511.89
487.50	17877.01
487.68	17783.39
487.85	18033.83
488.03	18073.62
488.21	18300.65
488.39	17951.91
488.57	18256.18
488.75	18682.16
488.92	19101.11
489.10	19108.13
489.28	19023.87
489.46	19218.14
489.64	19129.20
489.81	19733.06
489.99	19634.75
490.17	19920.30
490.35	20123.93
490.53	19761.14
490.70	20042.01
490.88	20049.03
491.06	20470.33
491.24	20517.14
491.41	20393.09
491.59	20568.63
491.77	20465.64
491.95	20489.05
492.13	21013.33
492.30	21214.62
492.48	21184.19
492.66	21467.39
492.84	21525.91
493.01	21888.69
493.19	21666.34
493.37	22052.53
493.54	21907.41
493.72	22417.65
493.90	22043.17
494.08	22857.67
494.25	22546.38
494.43	22787.46
494.61	23049.60
494.79	23129.17
494.96	23197.05
495.14	22988.74
495.32	23372.59
495.49	23082.36
495.67	23623.03
495.85	23608.98
496.02	24016.24
496.20	23901.55
496.38	23927.30
496.55	24311.14
496.73	24521.79
496.91	24290.08
497.09	24657.54
497.26	24648.18
497.44	24634.14
497.62	24484.34
497.79	25083.52
497.97	24896.28
498.14	25223.95
498.32	25097.56
498.50	25216.93
498.67	25465.03
498.85	25247.36
499.03	25731.85
499.20	26052.50
499.38	26136.76
499.56	25738.87
499.73	26202.30
499.91	25909.73
500.08	26335.71
500.26	26001.01
500.44	26370.82
500.61	26604.87
500.79	26150.81
500.97	26499.55
501.14	27019.14
501.32	26792.11
501.49	26827.22
501.67	27037.87
501.84	27379.59
502.02	26955.95
502.20	27271.92
502.37	27527.04
502.55	27557.47
502.72	27498.95
502.90	27414.69
503.07	27878.12
503.25	27789.18
503.43	28032.60
503.60	27693.22
503.78	27927.27
503.95	27824.29
504.13	28067.70
504.30	28498.36
504.48	28170.69
504.65	28446.87
504.83	28706.67
505.01	28790.93
505.18	28725.39
505.36	29216.91
505.53	28470.28
505.71	29252.02
505.88	29486.07
506.06	28978.17
506.23	28929.02
506.41	28758.16
506.58	29305.85
506.76	29448.62
506.93	29663.95
507.11	29261.38
507.28	29462.66
507.46	29677.99
507.63	29860.55
507.81	29874.60
507.98	29652.25
508.16	30188.23
508.33	30323.98
508.50	30457.39
508.68	30373.13
508.85	30532.29
509.03	30141.42
509.20	30345.05
509.38	30998.06
509.55	31398.29
509.73	30803.79
509.90	31096.36
510.08	30967.63
510.25	30883.37
510.42	31536.38
510.60	31402.97
510.77	31665.11
510.95	31580.85
511.12	31213.38
511.30	31981.08
511.47	31632.34
511.64	31838.31
511.82	31786.82
511.99	32016.19
512.17	32144.92
512.34	32268.97
512.51	32240.88
512.69	32676.22
512.86	32332.16
513.04	32573.24
513.21	32449.19
513.38	32240.88
513.56	32369.61
513.73	32697.28
513.90	32575.58
514.08	32648.13
514.25	32507.70
514.43	32821.33
514.60	32996.87
514.77	32844.74
514.95	33179.43
515.12	33017.94
515.29	33237.95
515.47	33380.72
515.64	33684.99
515.81	33362.00
515.99	33434.55
516.16	33628.82
516.33	33310.50
516.51	33298.80
516.68	33055.39
516.85	33263.69
517.03	33298.80
517.20	33722.44
517.37	33890.96
517.54	33687.33
517.72	34054.79
517.89	33574.98
518.06	33916.70
518.24	34064.16
518.41	34192.89
518.58	34202.25
518.75	34206.93
518.93	34099.26
519.10	34738.23
519.27	34766.32
519.45	34962.92
519.62	35405.28
519.79	35012.07
519.96	34878.66
520.14	35335.07
520.31	34972.28
520.48	35271.87
520.65	35082.29
520.83	35494.22
521.00	35068.25
521.17	35522.31
521.34	35700.19
521.52	35775.09
521.69	35498.91
521.86	35889.77
522.03	35751.68
522.20	36172.98
522.38	35845.30
522.55	35613.59
522.72	36266.60
522.89	36053.61
523.07	36154.26
523.24	36077.02
523.41	36210.43
523.58	36282.98
523.75	37223.88
523.92	36566.19
524.10	36718.32
524.27	36453.84
524.44	37046.00
524.61	37516.45
524.78	37041.32
524.96	37457.93
525.13	37457.93
525.30	37638.15
525.47	37282.39
525.64	37329.20
525.81	37605.39
525.98	37296.44
526.16	36910.25
526.33	36999.19
526.50	37163.03
526.67	37069.40
526.84	36870.46
527.01	37020.25
527.18	36982.80
527.36	37731.78
527.53	38136.69
527.70	38284.14
527.87	38197.54
528.04	38094.56
528.21	38007.96
528.38	37642.84
528.55	38464.36
528.72	37923.70
528.89	38258.40
529.07	38756.93
529.24	37998.60
529.41	38719.48
529.58	38183.50
529.75	38466.70
529.92	38810.76
530.09	39161.84
530.26	38862.26
530.43	39243.76
530.60	38593.09
530.77	39290.57
530.94	39126.74
531.11	38836.51
531.28	39625.27
531.46	39377.17
531.63	39407.60
531.80	39049.50
531.97	39093.97
532.14	39639.31
532.31	38770.97
532.48	39309.30
532.65	39480.16
532.82	39337.38
532.99	39416.96
533.16	39042.48
533.33	39206.31
533.50	39966.99
533.67	40023.16
533.84	39491.86
534.01	39629.95
534.18	39653.36
534.35	40142.53
534.52	39894.43
534.69	40098.06
534.86	40346.15
535.03	40039.54
535.20	40304.02
535.37	40348.50
535.54	41008.53
535.71	40034.86
535.88	40547.44
536.05	40381.26
536.22	40474.88
536.38	40875.12
536.55	40430.41
536.72	40484.25
536.89	40238.49
537.06	40472.54
537.23	40856.39
537.40	40594.25
537.57	41067.04
537.74	40472.54
537.91	40910.22
538.08	41106.83
538.25	40655.11
538.42	40837.67
538.59	41443.87
538.75	40910.22
538.92	41127.89
539.09	40950.01
539.26	41099.81
539.43	40952.35
539.60	41570.25
539.77	41139.60
539.94	41525.78
540.11	41322.16
540.28	40987.46
540.44	41188.75
540.61	41127.89
540.78	41123.21
540.95	41574.94
541.12	40891.50
541.29	41317.48
541.46	41556.21
541.62	41846.44
541.79	41790.27
541.96	41544.51
542.13	41514.08
542.30	41703.67
542.47	42246.67
542.63	42026.66
542.80	41886.23
542.97	42033.68
543.14	42609.45
543.31	42356.67
543.48	42347.31
543.64	43012.02
543.81	42595.41
543.98	42618.81
544.15	42501.79
544.32	42653.92
544.48	42841.17
544.65	42359.02
544.82	43056.50
544.99	42462.00
545.16	43161.82
545.32	42351.99
545.49	42890.32
545.66	43459.07
545.83	42979.26
546.00	43122.03
546.16	43002.66
546.33	43316.29
546.50	42752.23
546.67	42848.19
546.83	42293.48
547.00	42923.08
547.17	42815.42
547.34	42979.26
547.50	43068.20
547.67	43796.10
547.84	43545.67
548.00	43213.31
548.17	43260.12
548.34	43316.29
548.51	43627.59
548.67	43583.12
548.84	43784.40
549.01	43316.29
549.18	43533.96
549.34	43880.36
549.51	43363.11
549.68	43913.13
549.84	43906.11
550.01	43714.19
550.18	43367.79
550.34	43662.69
550.51	43526.94
550.68	43414.60
550.84	43913.13
551.01	44154.21
551.18	43634.61
551.34	43768.02
551.51	43922.49
551.68	43753.97
551.84	44364.85
552.01	44058.24
552.18	44360.17
552.34	43749.29
552.51	44275.91
552.68	43826.53
552.84	44308.68
553.01	44486.56
553.18	44439.75
553.34	44374.22
553.51	44201.02
553.67	44198.68
553.84	44477.20
554.01	44739.34
554.17	44907.86
554.34	44996.80
554.51	44851.69
554.67	44664.44
554.84	44676.15
555.00	43887.39
555.17	44222.08
555.33	44793.17
555.50	44823.60
555.67	44779.13
555.83	45088.08
556.00	45174.68
556.16	45336.18
556.33	45104.46
556.50	44612.95
556.66	44617.63
556.83	44481.88
556.99	44669.12
557.16	45207.45
557.32	44856.37
557.49	44818.92
557.65	44383.58
557.82	45092.76
557.98	44699.55
558.15	45015.52
558.32	44989.78
558.48	44793.17
558.65	44776.79
558.81	45043.61
558.98	44994.46
559.14	45518.74
559.31	44858.71
559.47	45205.11
559.64	45659.17
559.80	45371.28
559.97	45235.53
560.13	45457.88
560.30	44973.39
560.46	45340.86
560.63	45106.80
560.79	45352.56
560.96	45223.83
561.12	45607.68
561.29	45546.82
561.45	45357.24
561.61	45387.67
561.78	45439.16
561.94	45085.74
562.11	45287.03
562.27	45331.50
562.44	45287.03
562.60	45902.59
562.77	45703.64
562.93	45198.09
563.10	45436.82
563.26	45242.56
563.42	45738.75
563.59	45237.87
563.75	45361.92
563.92	45729.39
564.08	45457.88
564.24	45722.37
564.41	46160.05
564.57	45490.65
564.74	45654.49
564.90	45523.42
565.07	45729.39
565.23	45584.27
565.39	45612.36
565.56	45858.12
565.72	45556.19
565.88	45464.91
566.05	45612.36
566.21	45542.14
566.38	45591.30
566.54	45507.04
566.70	46197.49
566.87	45923.65
567.03	45741.09
567.19	45890.88
567.36	45970.46
567.52	45902.59
567.68	46181.11
567.85	45731.73
568.01	45649.81
568.17	45387.67
568.34	45701.30
568.50	45691.94
568.66	45759.81
568.83	45827.69
568.99	45893.22
569.15	45619.38
569.32	45631.08
569.48	45563.21
569.64	46321.54
569.81	46174.09
569.97	46178.77
570.13	46195.15
570.30	45830.03
570.46	45848.75
570.62	45731.73
570.78	45638.11
570.95	45818.33
571.11	45942.38
571.27	45715.34
571.43	45741.09
571.60	46274.73
571.76	46181.11
571.92	45942.38
572.09	45830.03
572.25	46078.13
572.41	45731.73
572.57	46000.89
572.74	46279.41
572.90	46014.93
573.06	46138.98
573.22	46005.57
573.38	46017.27
573.55	45872.16
573.71	45951.74
573.87	46267.71
574.03	45886.20
574.20	46288.77
574.36	45811.31
574.52	46038.34
574.68	46466.66
574.84	46073.45
575.01	46358.99
575.17	46162.39
575.33	46075.79
575.49	45750.45
575.65	46223.24
575.82	46291.12
575.98	46155.36
576.14	46373.03
576.30	46183.45
576.46	46085.15
576.62	45954.08
576.79	46253.67
576.95	45696.62
577.11	46178.77
577.27	46057.06
577.43	46197.49
577.59	46131.96
577.75	45755.13
577.92	45846.41
578.08	45687.26
578.24	45736.41
578.40	45797.26
578.56	45890.88
578.72	46143.66
578.88	46031.32
579.04	46148.34
579.21	46052.38
579.37	45883.86
579.53	46113.23
579.69	45874.50
579.85	45937.69
580.01	46195.15
580.17	46052.38
580.33	46450.27
580.49	46155.36
580.65	46064.08
580.82	46085.15
580.98	46293.46
581.14	45834.71
581.30	46508.79
581.46	45916.63
581.62	46401.12
581.78	46089.83
581.94	46433.89
582.10	46120.26
582.26	46485.38
582.42	46473.68
582.58	46071.10
582.74	46279.41
582.90	46103.87
583.06	45956.42
583.22	46263.03
583.38	46522.83
583.54	46553.26
583.70	46066.42
583.86	46110.89
584.02	46293.46
584.18	46012.59
584.34	46031.32
584.50	46546.23
584.66	45970.46
584.82	46153.02
584.98	46714.75
585.14	46232.60
585.30	46246.65
585.46	46508.79
585.62	46286.43
585.78	46131.96
585.94	45925.99
586.10	46295.80
586.26	46321.54
586.42	46504.10
586.58	46461.97
586.74	46476.02
586.90	46167.07
587.06	46241.96
587.22	46466.66
587.38	46162.39
587.54	46302.82
587.70	46227.92
587.86	46239.62
588.02	46525.17
588.18	46319.20
588.34	46141.32
588.49	45933.01
588.65	45986.85
588.81	45687.26
588.97	45921.31
589.13	45947.06
589.29	45916.63
589.45	46307.50
589.61	45958.76
589.77	46265.37
589.93	46260.69
590.08	46560.28
590.24	46333.24
590.40	46438.57
590.56	46679.64
590.72	46384.74
590.88	46230.26
591.04	46667.94
591.20	46667.94
591.35	46841.14
591.51	47323.29
591.67	46555.60
591.83	46555.60
591.99	46202.18
592.15	46071.10
592.31	46787.31
592.46	46265.37
592.62	46230.26
592.78	46749.86
592.94	46890.29
593.10	46344.95
593.26	46630.49
593.41	46548.57
593.57	46373.03
593.73	45993.87
593.89	46532.19
594.05	46190.47
594.20	46815.40
594.36	46515.81
594.52	46389.42
594.68	46726.46
594.84	46464.32
594.99	47129.03
595.15	46218.56
595.31	46707.73
595.47	46487.72
595.62	46380.06
595.78	46534.53
595.94	46869.23
596.10	46899.65
596.25	46630.49
596.41	46646.88
596.57	46593.04
596.73	46651.56
596.88	46635.17
597.04	46600.07
597.20	46548.57
597.36	46426.87
597.51	46766.24
597.67	46845.82
597.83	46607.09
597.99	46679.64
598.14	46412.82
598.30	46663.26
598.46	46438.57
598.61	46522.83
598.77	46389.42
598.93	46466.66
599.09	46195.15
599.24	46972.21
599.40	46473.68
599.56	47070.51
599.71	46635.17
599.87	47124.35
600.03	46586.02
600.18	46789.65
600.34	46356.65
600.50	46775.61
600.65	46398.78
600.81	47126.69
600.97	46880.93
601.12	47061.15
601.28	46791.99
601.44	46569.64
601.59	46454.95
601.75	46141.32
601.91	46157.70
602.06	46457.29
602.22	46630.49
602.37	46349.63
602.53	46735.82
602.69	46831.78
602.84	46445.59
603.00	46752.20
603.16	46813.05
603.31	46286.43
603.47	46623.47
603.62	46426.87
603.78	46497.08
603.94	46576.66
604.09	46862.21
604.25	46766.24
604.40	46979.23
604.56	46953.49
604.71	46770.93
604.87	46253.67
605.03	46689.01
605.18	46351.97
605.34	46260.69
605.49	46064.08
605.65	46433.89
605.80	46373.03
605.96	46600.07
606.12	46869.23
606.27	46784.97
606.43	46466.66
606.58	46700.71
606.74	46555.60
606.89	46206.86
607.05	46450.27
607.20	46478.36
607.36	46396.44
607.51	46377.72
607.67	46686.67
607.82	46181.11
607.98	46630.49
608.13	46094.51
608.29	46148.34
608.44	45977.48
608.60	45935.35
608.75	45951.74
608.91	45853.44
609.06	46216.22
609.22	46164.73
609.37	46146.00
609.53	46106.21
609.68	46539.21
609.84	45881.52
609.99	46040.68
610.15	46181.11
610.30	46071.10
610.46	45666.19
610.61	46024.29
610.76	45965.78
610.92	46202.18
611.07	46064.08
611.23	45413.41
611.38	45792.58
611.54	45574.91
611.69	45715.34
611.84	45755.13
612.00	45867.48
612.15	45811.31
612.31	45670.87
612.46	45900.25
612.62	45738.75
612.77	45820.67
612.92	45787.90
613.08	45614.70
613.23	45694.28
613.39	45132.55
613.54	45418.10
613.69	45394.69
613.85	45411.07
614.00	45900.25
614.15	45652.15
614.31	45488.31
614.46	46082.81
614.62	45532.78
614.77	45738.75
614.92	45155.96
615.08	45703.64
615.23	45170.00
615.38	45160.64
615.54	45406.39
615.69	45427.46
615.84	44524.01
616.00	45350.22
616.15	45099.78
616.30	45207.45
616.46	45336.18
616.61	44767.43
616.76	45167.66
616.92	44814.24
617.07	45371.28
617.22	44432.73
617.37	44549.76
617.53	45654.49
617.68	44985.10
617.83	45258.94
617.99	45680.24
618.14	44917.22
618.29	45109.14
618.45	44793.17
618.60	44718.28
618.75	44797.85
618.90	44446.77
619.06	45041.27
619.21	44570.82
619.36	45432.14
619.51	44657.42
619.67	44748.70
619.82	44545.08
619.97	44891.48
620.12	44741.68
620.28	44711.25
620.43	44652.74
620.58	44589.55
620.73	44439.75
620.89	44460.82
621.04	44425.71
621.19	44334.43
621.34	44477.20
621.49	44414.01
621.65	44198.68
621.80	44421.03
621.95	44037.18
622.10	44481.88
622.25	44392.94
622.41	44318.04
622.56	44165.91
622.71	44142.50
622.86	44039.52
623.01	44304.00
623.16	44376.56
623.32	44538.05
623.47	44163.57
623.62	44355.49
623.77	44268.89
623.92	43962.28
624.07	43784.40
624.23	43669.72
624.38	44062.93
624.53	43840.57
624.68	44191.65
624.83	44336.77
624.98	43648.65
625.13	44086.33
625.29	44062.93
625.44	43995.05
625.59	43264.80
625.74	43285.87
625.89	43147.78
626.04	43138.41
626.19	44076.97
626.34	43426.30
626.49	43494.18
626.65	43592.48
626.80	43440.34
626.95	43133.73
627.10	43243.74
627.25	43482.47
627.40	42618.81
627.55	42831.80
627.70	42639.88
627.85	42583.71
628.00	43019.05
628.15	43328.00
628.30	42777.97
628.45	43089.26
628.60	43075.22
628.76	43182.88
628.91	43281.19
629.06	43358.42
629.21	42656.26
629.36	42466.68
629.51	42990.96
629.66	42560.30
629.81	43124.37
629.96	42616.47
630.11	42569.66
630.26	42864.57
630.41	43040.11
630.56	42674.99
630.71	42412.85
630.86	43028.41
631.01	42483.06
631.16	42614.13
631.31	42375.40
631.46	42036.02
631.61	42803.72
631.76	42373.06
631.91	42869.25
632.06	42768.61
632.21	42618.81
632.36	42799.04
632.51	42541.58
632.66	42747.54
632.81	42164.75
632.96	42251.35
633.10	41930.70
633.25	42026.66
633.40	41907.29
633.55	42642.22
633.70	42031.34
633.85	42251.35
634.00	42050.06
634.15	42431.57
634.30	42106.24
634.45	42473.70
634.60	41879.21
634.75	42260.71
634.90	41780.90
635.05	42216.24
635.19	42401.14
635.34	42433.91
635.49	41787.92
635.64	42115.60
635.79	41532.81
635.94	42064.11
636.09	41734.09
636.24	41490.68
636.39	41439.18
636.53	41787.92
636.68	41570.25
636.83	41670.90
636.98	41708.35
637.13	41249.60
637.28	41661.54
637.43	41483.66
637.57	41881.55
637.72	41834.74
637.87	41525.78
638.02	41483.66
638.17	41242.58
638.32	41029.59
638.46	41015.55
638.61	40767.45
638.76	41055.34
638.91	41392.37
639.06	40863.41
639.20	41240.24
639.35	41432.16
639.50	41123.21
639.65	41584.30
639.80	41432.16
639.94	40942.99
640.09	40928.95
640.24	40828.30
640.39	40964.06
640.54	40634.04
640.68	41242.58
640.83	41015.55
640.98	40832.99
641.13	40612.98
641.27	40992.14
641.42	40931.29
641.57	40713.62
641.72	40627.02
641.86	40666.81
642.01	40414.03
642.16	40652.76
642.31	40259.55
642.45	40570.85
642.60	40048.91
642.75	40329.77
642.90	40669.15
643.04	40643.40
643.19	40217.43
643.34	40512.33
643.48	40538.08
643.63	40608.29
643.78	40203.38
643.93	40091.04
644.07	40336.79
644.22	40165.93
644.37	39962.31
644.51	40353.18
644.66	40271.26
644.81	40051.25
644.95	40128.48
645.10	40465.52
645.25	40470.20
645.39	40126.14
645.54	40435.10
645.69	40280.62
645.83	40327.43
645.98	39887.41
646.13	40437.44
646.27	40280.62
646.42	39667.40
646.57	39681.44
646.71	39974.01
646.86	39847.62
647.00	40032.52
647.15	39735.27
647.30	39908.47
647.44	39765.70
647.59	39746.98
647.74	39620.59
647.88	39091.63
648.03	39150.14
648.17	39524.63
648.32	39484.84
648.47	39487.18
648.61	39714.21
648.76	40165.93
648.90	39140.78
649.05	39468.45
649.20	39728.25
649.34	39449.73
649.49	39234.40
649.63	39386.54
649.78	39545.69
649.92	39398.24
650.07	39709.53
650.21	38789.70
650.36	39531.65
650.51	39180.57
650.65	39782.09
650.80	39475.48
650.94	39309.30
651.09	39365.47
651.23	38906.73
651.38	39065.88
651.52	38948.85
651.67	38927.79
651.81	38728.84
651.96	39325.68
652.10	38672.67
652.25	38340.32
652.39	38550.96
652.54	38859.91
652.68	39126.74
652.83	39063.54
652.97	38684.37
653.12	38857.57
653.26	38553.30
653.41	39014.39
653.55	38501.81
653.70	38387.13
653.84	38911.41
653.99	38632.88
654.13	38457.34
654.27	38579.05
654.42	38866.94
654.56	38567.35
654.71	38459.68
654.85	38431.60
655.00	38064.13
655.14	38260.74
655.29	37965.83
655.43	38183.50
655.57	37977.53
655.72	38199.88
655.86	37846.46
656.01	37741.14
656.15	37883.91
656.30	37940.08
656.44	37904.98
656.58	37762.20
656.73	38106.26
656.87	37373.67
657.01	37909.66
657.16	37670.92
657.30	37581.98
657.45	37247.29
657.59	37546.87
657.73	37481.34
657.88	37448.57
658.02	37881.57
658.16	37378.36
658.31	37408.78
658.45	37895.61
658.60	37570.28
658.74	37518.79
658.88	37532.83
659.03	37801.99
659.17	37067.06
659.31	37479.00
659.46	37020.25
659.60	37514.11
659.74	37504.74
659.89	37275.37
660.03	37071.75
660.17	37256.65
660.32	37287.07
660.46	37031.96
660.60	37046.00
660.74	37057.70
660.89	36723.01
661.03	36985.15
661.17	37006.21
661.32	36224.47
661.46	36510.02
661.60	36463.21
661.74	36800.24
661.89	36758.11
662.03	36493.63
662.17	36692.58
662.31	36739.39
662.46	36636.41
662.60	36512.36
662.74	36271.28
662.88	36493.63
663.03	36418.74
663.17	36374.27
663.31	35922.54
663.45	36107.44
663.60	36364.90
663.74	35882.75
663.88	35819.56
664.02	35852.33
664.17	35969.35
664.31	35447.41
664.45	35295.28
664.59	35648.70
664.73	35971.69
664.88	35985.74
665.02	35269.53
665.16	35641.68
665.30	35550.40
665.44	35194.64
665.59	35292.94
665.73	35234.42
665.87	34895.05
666.01	34876.32
666.15	35278.89
666.29	35243.79
666.44	35309.32
666.58	34899.73
666.72	35241.45
666.86	35253.15
667.00	34958.24
667.14	34803.77
667.28	34586.10
667.43	34356.72
667.57	34321.62
667.71	34291.19
667.85	34328.64
667.99	34370.77
668.13	33926.07
668.27	34005.64
668.41	34501.84
668.56	34368.43
668.70	34115.65
668.84	34312.25
668.98	33724.78
669.12	34251.40
669.26	33886.28
669.40	33874.57
669.54	33752.87
669.68	33944.79
669.82	33479.02
669.96	33312.84
670.10	33139.65
670.25	34043.09
670.39	33668.61
670.53	33713.08
670.67	33266.03
670.81	33411.15
670.95	33949.47
671.09	33617.11
671.23	33441.57
671.37	33621.80
671.51	32912.61
671.65	33261.35
671.79	32636.43
671.93	32975.81
672.07	32767.50
672.21	32903.25
672.35	32374.29
672.49	32603.66
672.63	32779.20
672.77	32423.44
672.91	32528.77
673.05	32512.38
673.19	32521.74
673.33	32016.19
673.47	32271.31
673.61	31545.74
673.75	32063.00
673.89	31864.05
674.03	31791.50
674.17	31857.03
674.31	31754.05
674.45	31459.14
674.59	31791.50
674.73	31768.09
674.87	31686.17
675.01	31548.08
675.15	31585.53
675.29	31683.83
675.43	31475.52
675.56	31510.63
675.70	31211.04
675.84	31138.49
675.98	30012.69
676.12	30960.61
676.26	30487.82
676.40	30543.99
676.54	30738.26
676.68	30487.82
676.82	30272.49
676.96	30265.47
677.10	30000.99
677.23	29872.26
677.37	30204.61
677.51	30000.99
677.65	29998.65
677.79	29771.61
677.93	29858.21
678.07	29521.18
678.21	29357.34
678.34	29015.62
678.48	29685.01
678.62	29429.90
678.76	29277.76
678.90	29221.59
679.04	29237.97
679.18	29406.49
679.31	28531.13
679.45	28648.16
679.59	28524.11
679.73	28526.45
679.87	28617.73
680.00	28968.81
680.14	28182.39
680.28	28051.32
680.42	27826.63
680.56	28231.54
680.70	28123.88
680.83	27910.89
680.97	27410.01
681.11	27641.73
681.25	27353.84
681.39	27325.75
681.52	27723.65
681.66	27449.80
681.80	26939.57
681.94	27342.14
682.07	26902.12
682.21	27016.80
682.35	27108.08
682.49	26834.24
682.62	27030.85
682.76	26628.27
682.90	26431.67
683.04	26644.66
683.17	26654.02
683.31	26693.81
683.45	26239.75
683.59	26295.92
683.72	25818.45
683.86	25902.71
684.00	25876.96
684.13	26267.83
684.27	26015.05
684.41	25907.39
684.55	25638.23
684.68	25139.69
684.82	25439.28
684.96	25495.46
685.09	25326.94
685.23	25071.82
685.37	25127.99
685.50	25003.94
685.64	24800.32
685.78	24980.54
685.91	25006.28
686.05	24498.39
686.19	24339.23
686.32	24737.12
686.46	23995.17
686.60	24086.45
686.73	24039.64
686.87	23484.94
687.01	23580.90
687.14	23456.85
687.28	23543.45
687.42	23487.28
687.55	23300.03
687.69	23236.84
687.82	23171.30
687.96	23211.09
688.10	22986.40
688.23	23131.51
688.37	23068.32
688.50	22632.98
688.64	22731.28
688.78	22883.42
688.91	22661.07
689.05	22359.14
689.18	22677.45
689.32	21933.16
689.46	22359.14
689.59	22558.08
689.73	22614.26
689.86	22029.12
690.00	22204.66
690.13	22024.44
690.27	22136.79
690.41	22260.84
690.54	21666.34
690.68	21455.69
690.81	21612.51
690.95	21343.35
691.08	21308.24
691.22	21273.13
691.35	21413.56
691.49	21324.62
691.62	21474.42
691.76	20978.22
691.89	21106.95
692.03	21003.97
692.16	20702.04
692.30	20713.74
692.43	20734.81
692.57	20652.89
692.70	20610.76
692.84	20594.37
692.97	20229.25
693.11	20212.87
693.24	20142.65
693.38	19807.95
693.51	19484.96
693.65	19981.15
693.78	19960.09
693.92	19679.22
694.05	19758.80
694.19	19665.18
694.32	19494.32
694.45	19384.32
694.59	19389.00
694.72	19480.28
694.86	19159.63
694.99	18731.31
695.13	18822.59
695.26	18647.05
695.39	18743.01
695.53	18670.45
695.66	18892.80
695.80	18661.09
695.93	18637.69
696.07	18565.13
696.20	18331.08
696.33	18630.66
696.47	18251.50
696.60	18689.18
696.73	18319.37
696.87	18223.41
697.00	18265.54
697.14	17837.22
697.27	18200.01
697.40	17771.69
697.54	17987.02
697.67	17799.77
697.80	17673.39
697.94	17490.82
698.07	17355.07
698.21	17444.01
698.34	17387.84
698.47	17099.95
698.61	16858.88
698.74	16788.66
698.87	16999.31
699.01	16819.09
699.14	16905.69
699.27	16683.34
699.40	16664.61
699.54	16458.65
699.67	16439.92
699.80	16477.37
699.94	16372.05
700.07	16423.54
700.20	16442.26
700.34	15962.45
700.47	15985.86
700.60	15981.18
700.73	16201.19
700.87	16098.20
701.00	15730.74
701.13	15637.12
701.26	15887.56
701.40	15744.78
701.53	15690.95
701.66	15613.71
701.79	15410.09
701.93	15449.88
702.06	15274.34
702.19	15321.15
702.32	15311.78
702.46	14918.57
702.59	14799.21
702.72	14960.70
702.85	14979.43
702.99	15061.35
703.12	15215.82
703.25	14899.85
703.38	14637.71
703.51	14752.40
703.65	14853.04
703.78	14752.40
703.91	14396.64
704.04	14178.97
704.17	14389.61
704.31	14270.25
704.44	14167.26
704.57	13862.99
704.70	13652.34
704.83	14083.00
704.96	13973.00
705.10	14160.24
705.23	13818.52
>>>>>End Processed Spectral Data<<<<<
