SpectraSuite Data File
++++++++++++++++++++++++++++++++++++
Date: Fri Oct 25 11:34:20 EDT 2013
User: price-jones
Dark Spectrum Present: No
Reference Spectrum Present: No
Number of Sampled Component Spectra: 1
Spectrometers: USB2+H05261
Integration Time (usec): 100000 (USB2+H05261)
Spectra Averaged: 1 (USB2+H05261)
Boxcar Smoothing: 0 (USB2+H05261)
Correct for Electrical Dark: No (USB2+H05261)
Strobe/Lamp Enabled: No (USB2+H05261)
Correct for Detector Non-linearity: No (USB2+H05261)
Correct for Stray Light: No (USB2+H05261)
Number of Pixels in Processed Spectrum: 2048
>>>>>Begin Processed Spectral Data<<<<<
365.73	287.89
365.92	287.89
366.12	287.89
366.32	180.22
366.52	189.58
366.72	170.86
366.91	170.86
367.11	257.46
367.31	107.66
367.51	217.67
367.70	259.80
367.90	161.50
368.10	161.50
368.30	187.24
368.49	182.56
368.69	217.67
368.89	175.54
369.09	205.97
369.28	203.63
369.48	238.73
369.68	161.50
369.87	227.03
370.07	278.52
370.27	285.55
370.47	365.12
370.66	440.02
370.86	538.32
371.06	519.60
371.25	554.71
371.45	629.60
371.65	566.41
371.84	503.22
372.04	561.73
372.24	547.69
372.44	571.09
372.63	587.47
372.83	608.54
373.03	615.56
373.22	575.77
373.42	554.71
373.62	601.52
373.81	624.92
374.01	688.12
374.21	606.20
374.40	669.39
374.60	683.44
374.79	653.01
374.99	540.66
375.19	620.24
375.38	690.46
375.58	601.52
375.78	688.12
375.97	671.73
376.17	711.52
376.37	622.58
376.56	655.35
376.76	653.01
376.95	629.60
377.15	671.73
377.35	753.65
377.54	695.14
377.74	627.26
377.93	662.37
378.13	683.44
378.33	690.46
378.52	716.20
378.72	765.36
378.91	725.57
379.11	720.88
379.31	657.69
379.50	678.76
379.70	706.84
379.89	688.12
380.09	704.50
380.28	706.84
380.48	779.40
380.68	697.48
380.87	636.63
381.07	795.78
381.26	772.38
381.46	751.31
381.65	781.74
381.85	741.95
382.04	702.16
382.24	798.12
382.43	653.01
382.63	777.06
382.83	645.99
383.02	844.93
383.22	777.06
383.41	755.99
383.61	809.83
383.80	828.55
384.00	760.67
384.19	880.04
384.39	791.10
384.58	770.04
384.78	856.64
384.97	823.87
385.17	835.57
385.36	760.67
385.56	784.08
385.75	863.66
385.95	753.65
386.14	837.91
386.34	816.85
386.53	873.02
386.72	805.14
386.92	901.11
387.11	922.17
387.31	854.30
387.50	866.00
387.70	851.96
387.89	910.47
388.09	882.38
388.28	940.90
388.48	898.77
388.67	873.02
388.86	908.13
389.06	912.81
389.25	910.47
389.45	945.58
389.64	959.62
389.84	999.41
390.03	950.26
390.22	1029.84
390.42	992.39
390.61	901.11
390.81	987.71
391.00	985.37
391.19	959.62
391.39	954.94
391.58	985.37
391.78	964.30
391.97	1050.90
392.16	978.34
392.36	1074.31
392.55	1069.62
392.75	1039.20
392.94	1086.01
393.13	1125.80
393.33	980.68
393.52	1062.60
393.71	1121.12
393.91	1029.84
394.10	1109.41
394.29	1083.67
394.49	1057.92
394.68	1100.05
394.88	1100.05
395.07	1036.86
395.26	1167.93
395.46	1076.65
395.65	1135.16
395.84	1132.82
396.04	1207.72
396.23	1177.29
396.42	1137.50
396.62	1245.16
396.81	1170.27
397.00	1097.71
397.19	1153.88
397.39	1144.52
397.58	1179.63
397.77	1254.53
397.97	1242.82
398.16	1177.29
398.35	1193.67
398.55	1210.06
398.74	1291.98
398.93	1228.78
399.12	1219.42
399.32	1313.04
399.51	1172.61
399.70	1423.05
399.90	1366.87
400.09	1378.58
400.28	1390.28
400.47	1336.45
400.67	1357.51
400.86	1366.87
401.05	1432.41
401.24	1343.47
401.44	1423.05
401.63	1441.77
401.82	1451.13
402.01	1401.98
402.21	1453.47
402.40	1409.00
402.59	1476.88
402.78	1488.58
402.97	1509.65
403.17	1575.18
403.36	1462.83
403.55	1371.55
403.74	1544.75
403.93	1640.72
404.13	1483.90
404.32	1537.73
404.51	1511.99
404.70	1610.29
404.89	1619.65
405.09	1664.12
405.28	1540.07
405.47	1612.63
405.66	1673.48
405.85	1605.61
406.05	1678.16
406.24	1659.44
406.43	1703.91
406.62	1727.32
406.81	1692.21
407.00	1788.17
407.20	1753.06
407.39	1757.74
407.58	1703.91
407.77	1792.85
407.96	1823.28
408.15	1834.98
408.34	1874.77
408.54	1858.39
408.73	1879.45
408.92	1832.64
409.11	2001.16
409.30	1900.52
409.49	1973.07
409.68	1916.90
409.87	2005.84
410.07	1989.46
410.26	1919.24
410.45	1940.30
410.64	2038.61
410.83	2092.44
411.02	2057.33
411.21	2162.66
411.40	2120.53
411.59	2157.97
411.78	2129.89
411.98	2165.00
412.17	2139.25
412.36	2279.68
412.55	2197.76
412.74	2279.68
412.93	2242.23
413.12	2197.76
413.31	2328.83
413.50	2293.72
413.69	2401.39
413.88	2551.18
414.07	2366.28
414.26	2392.03
414.45	2490.33
414.64	2485.65
414.83	2443.52
415.02	2583.95
415.22	2457.56
415.41	2616.72
415.60	2661.19
415.79	2427.14
415.98	2588.63
416.17	2640.12
416.36	2693.96
416.55	2581.61
416.74	2679.91
416.93	2719.70
417.12	2764.17
417.31	2850.77
417.50	2764.17
417.69	2920.99
417.88	2871.84
418.07	2810.98
418.26	2860.13
418.45	2981.84
418.64	3005.25
418.83	2981.84
419.02	2871.84
419.21	2953.76
419.39	2984.18
419.58	2998.23
419.77	2951.42
419.96	3082.49
420.15	3056.74
420.34	2977.16
420.53	3150.36
420.72	3131.64
420.91	3262.71
421.10	3227.60
421.29	3258.03
421.48	3255.69
421.67	3091.85
421.86	3117.59
422.05	3225.26
422.24	3208.87
422.43	3356.33
422.61	3227.60
422.80	3258.03
422.99	3255.69
423.18	3398.46
423.37	3426.54
423.56	3246.32
423.75	3393.78
423.94	3302.50
424.13	3131.64
424.32	3227.60
424.50	3375.05
424.69	3473.36
424.88	3405.48
425.07	3251.00
425.26	3449.95
425.45	3468.67
425.64	3442.93
425.83	3370.37
426.01	3475.70
426.20	3213.56
426.39	3361.01
426.58	3492.08
426.77	3412.50
426.96	3482.72
427.15	3531.87
427.33	3499.10
427.52	3407.82
427.71	3552.93
427.90	3562.30
428.09	3550.59
428.28	3428.88
428.46	3574.00
428.65	3662.94
428.84	3625.49
429.03	3777.62
429.22	3641.87
429.40	3676.98
429.59	3672.30
429.78	3623.15
429.97	3471.01
430.16	3691.02
430.34	3728.47
430.53	3765.92
430.72	3681.66
430.91	3730.81
431.10	3812.73
431.28	3831.46
431.47	3784.65
431.66	3796.35
431.85	3836.14
432.03	4025.72
432.22	4037.42
432.41	3992.95
432.60	4086.58
432.79	3971.89
432.97	4145.09
433.16	4011.68
433.35	4072.53
433.54	4098.28
433.72	4072.53
433.91	4170.83
434.10	4072.53
434.28	4117.00
434.47	4140.41
434.66	4191.90
434.85	4154.45
435.03	4273.82
435.22	4142.75
435.41	4311.27
435.59	4170.83
435.78	4266.80
435.97	4252.75
436.16	4252.75
436.34	4145.09
436.53	4383.82
436.72	4334.67
436.90	4381.48
437.09	4278.50
437.28	4292.54
437.46	4440.00
437.65	4552.34
437.84	4589.79
438.02	4358.08
438.21	4500.85
438.40	4477.44
438.58	4547.66
438.77	4746.61
438.96	4613.20
439.14	4662.35
439.33	4901.08
439.52	4739.58
439.70	4833.21
439.89	4833.21
440.08	4973.64
440.26	4711.50
440.45	4793.42
440.63	5001.72
440.82	5088.32
441.01	4999.38
441.19	5130.45
441.38	5111.73
441.57	5116.41
441.75	5188.97
441.94	5282.59
442.12	5137.48
442.31	5418.34
442.50	5245.14
442.68	5359.83
442.87	5228.76
443.05	5338.76
443.24	5242.80
443.43	5359.83
443.61	5453.45
443.80	5561.11
443.98	5259.18
444.17	5203.01
444.35	5350.46
444.54	5514.30
444.73	5394.93
444.91	5565.79
445.10	5472.17
445.28	5397.28
445.47	5458.13
445.65	5528.35
445.84	5554.09
446.02	5596.22
446.21	5462.81
446.39	5589.20
446.58	5558.77
446.77	5516.64
446.95	5563.45
447.14	5547.07
447.32	5593.88
447.51	5593.88
447.69	5554.09
447.88	5692.18
448.06	5483.88
448.25	5586.86
448.43	5570.48
448.62	5839.64
448.80	5465.15
448.99	5788.14
449.17	5736.65
449.36	5757.72
449.54	5853.68
449.73	5914.53
449.91	5788.14
450.10	5891.13
450.28	6118.16
450.46	5912.19
450.65	6026.88
450.83	5893.47
451.02	5790.49
451.20	5951.98
451.39	5959.00
451.57	5886.45
451.76	5968.37
451.94	6054.97
452.13	6164.97
452.31	5888.79
452.49	6031.56
452.68	6141.57
452.86	6218.80
453.05	6256.25
453.23	6321.79
453.42	6064.33
453.60	6218.80
453.78	6132.20
453.97	6244.55
454.15	6263.27
454.34	6104.12
454.52	6492.65
454.70	6342.85
454.89	6333.49
455.07	6291.36
455.26	6324.13
455.44	6534.78
455.62	6455.20
455.81	6471.58
455.99	6476.26
456.17	6644.78
456.36	6604.99
456.54	6682.23
456.73	6595.63
456.91	6860.11
457.09	6932.67
457.28	6855.43
457.46	6789.89
457.64	6925.65
457.83	6810.96
458.01	7035.65
458.19	7016.93
458.38	6927.99
458.56	6906.92
458.74	6902.24
458.93	7023.95
459.11	6876.49
459.29	6998.20
459.48	7056.72
459.66	7002.88
459.84	7171.40
460.03	7133.95
460.21	7126.93
460.39	7033.31
460.57	7241.62
460.76	7318.86
460.94	7311.83
461.12	7337.58
461.31	7250.98
461.49	7283.75
461.67	7311.83
461.85	7349.28
462.04	7449.93
462.22	7822.07
462.40	7571.63
462.59	7489.71
462.77	7634.83
462.95	7761.22
463.13	7440.56
463.32	7585.68
463.50	7705.04
463.68	7634.83
463.86	7705.04
464.05	7573.97
464.23	7527.16
464.41	7616.10
464.59	7468.65
464.78	7765.90
464.96	7618.44
465.14	7761.22
465.32	7793.98
465.50	7777.60
465.69	7845.48
465.87	7723.77
466.05	7967.18
466.23	7808.03
466.41	7882.92
466.60	7967.18
466.78	7962.50
466.96	7913.35
467.14	7868.88
467.32	7957.82
467.51	8056.12
467.69	7857.18
467.87	8224.64
468.05	8138.04
468.23	7918.03
468.41	8074.85
468.60	8142.72
468.78	8201.24
468.96	8168.47
469.14	8301.88
469.32	8428.27
469.50	8222.30
469.69	8407.20
469.87	8587.43
470.05	8472.74
470.23	8423.59
470.41	8451.67
470.59	8578.06
470.77	8620.19
470.95	8489.12
471.14	8519.55
471.32	8491.46
471.50	8727.86
471.68	8765.31
471.86	8887.01
472.04	8819.14
472.22	8847.22
472.40	8711.47
472.58	8901.06
472.77	9090.64
472.95	9109.36
473.13	9348.10
473.31	9418.32
473.49	9013.40
473.67	9188.94
473.85	9132.77
474.03	9394.91
474.21	9582.15
474.39	9404.27
474.57	9547.05
474.75	9481.51
474.93	9668.75
475.12	9378.53
475.30	9568.11
475.48	9755.35
475.66	9813.87
475.84	9956.64
476.02	9724.93
476.20	10026.86
476.38	10235.16
476.56	10370.91
476.74	10171.97
476.92	10246.87
477.10	10221.12
477.28	10497.30
477.46	10200.05
477.64	10509.01
477.82	10621.35
478.00	10806.25
478.18	10780.51
478.36	10876.47
478.54	10958.39
478.72	10906.90
478.90	11040.31
479.08	11454.58
479.26	11332.87
479.44	11337.56
479.62	11508.41
479.80	11510.75
479.98	11815.02
480.16	11847.79
480.34	11721.40
480.52	11939.07
480.70	12032.69
480.88	11892.26
481.06	12191.85
481.24	12091.21
481.41	12020.99
481.59	12414.20
481.77	12564.00
481.95	12528.89
482.13	12681.02
482.31	12746.56
482.49	13149.13
482.67	12877.63
482.85	12851.88
483.03	13359.78
483.21	13181.90
483.39	13348.08
483.57	13198.28
483.74	13327.01
483.92	13778.73
484.10	13448.72
484.28	13965.98
484.46	13874.70
484.64	14436.42
484.82	14085.34
485.00	14293.65
485.18	14476.21
485.35	14817.93
485.53	14476.21
485.71	14516.00
485.89	14799.21
486.07	14979.43
486.25	14883.47
486.43	15136.24
486.61	15035.60
486.78	15307.10
486.96	15283.70
487.14	15470.94
487.32	15637.12
487.50	15765.85
487.68	15852.45
487.85	15983.52
488.03	15976.50
488.21	16215.23
488.39	16603.76
488.57	16622.48
488.75	16833.13
488.92	16922.07
489.10	16931.44
489.28	17018.04
489.46	17041.44
489.64	17315.28
489.81	17439.33
489.99	17603.17
490.17	17556.36
490.35	18078.30
490.53	17830.20
490.70	17874.67
490.88	17984.68
491.06	18174.26
491.24	18508.96
491.41	18338.10
491.59	18766.42
491.77	18583.85
491.95	18841.31
492.13	19133.88
492.30	18853.02
492.48	19080.05
492.66	19140.90
492.84	19475.60
493.01	19412.40
493.19	19513.05
493.37	19592.62
493.54	19861.79
493.72	19997.54
493.90	20039.67
494.08	20119.24
494.25	20332.23
494.43	20020.94
494.61	20704.38
494.79	20861.19
494.96	20577.99
495.14	20781.62
495.32	21191.21
495.49	20802.68
495.67	21060.14
495.85	21369.09
496.02	21259.09
496.20	21687.40
496.38	21617.19
496.55	21795.07
496.73	22429.35
496.91	21748.26
497.09	22277.22
497.26	22141.47
497.44	22260.84
497.62	22295.94
497.79	22675.11
497.97	22710.22
498.14	22888.10
498.32	23126.83
498.50	23089.38
498.67	23297.69
498.85	23201.73
499.03	23440.47
499.20	23300.03
499.38	23276.63
499.56	23381.95
499.73	23662.82
499.91	23501.32
500.08	23936.66
500.26	23939.00
500.44	24025.60
500.61	24250.29
500.79	23819.63
500.97	24428.17
501.14	24582.65
501.32	24617.75
501.49	24065.39
501.67	24641.16
501.84	24816.70
502.02	24645.84
502.20	24896.28
502.37	24980.54
502.55	24793.29
502.72	24863.51
502.90	25249.70
503.07	25025.01
503.25	25156.08
503.43	25235.66
503.60	25376.09
503.78	25680.36
503.95	25535.24
504.13	25788.02
504.30	25579.71
504.48	25336.30
504.65	25958.88
504.83	26436.35
505.01	26354.43
505.18	26125.06
505.36	26539.33
505.53	26029.10
505.71	26302.94
505.88	26637.64
506.06	26497.20
506.23	26862.33
506.41	26909.14
506.58	26902.12
506.76	27087.02
506.93	27054.25
507.11	26995.74
507.28	27147.87
507.46	27094.04
507.63	27491.93
507.81	27704.92
507.98	27522.36
508.16	27700.24
508.33	27435.76
508.50	27985.79
508.68	27798.54
508.85	27833.65
509.03	27775.14
509.20	28194.09
509.38	28343.89
509.55	28467.94
509.73	28624.75
509.90	28613.05
510.08	28219.84
510.25	28261.97
510.42	28507.72
510.60	28687.95
510.77	28467.94
510.95	29125.63
511.12	28879.87
511.30	29017.96
511.47	29139.67
511.64	29186.48
511.82	29357.34
511.99	29521.18
512.17	29509.47
512.34	29528.20
512.51	29986.94
512.69	30000.99
512.86	29750.55
513.04	30103.97
513.21	30040.78
513.38	30235.04
513.56	30333.34
513.73	29886.30
513.90	29720.12
514.08	30464.41
514.25	30333.34
514.43	30513.56
514.60	30483.14
514.77	30785.07
514.95	30733.57
515.12	30525.27
515.29	30714.85
515.47	31290.62
515.64	31246.15
515.81	31152.53
515.99	31356.16
516.16	31440.42
516.33	31030.82
516.51	31407.65
516.68	31393.61
516.85	31395.95
517.03	31608.93
517.20	31679.15
517.37	31941.29
517.54	31761.07
517.72	31810.22
517.89	31768.09
518.06	31852.35
518.24	32203.43
518.41	32261.94
518.58	31934.27
518.75	32156.62
518.93	32217.47
519.10	32254.92
519.27	32741.75
519.45	32283.01
519.62	32519.40
519.79	32762.82
519.96	32510.04
520.14	33116.24
520.31	32828.35
520.48	32828.35
520.65	33184.12
520.83	33282.42
521.00	33099.86
521.17	33282.42
521.34	33310.50
521.52	33312.84
521.69	33118.58
521.86	33528.17
522.03	33734.14
522.20	33853.51
522.38	33986.92
522.55	34171.82
522.72	34141.39
522.89	33802.02
523.07	34295.87
523.24	34265.44
523.41	34408.22
523.58	34265.44
523.75	34719.51
523.92	33879.25
524.10	34227.99
524.27	34438.64
524.44	34644.61
524.61	34897.39
524.78	34494.82
524.96	35239.11
525.13	35009.73
525.30	35124.42
525.47	34801.43
525.64	34946.54
525.81	35136.12
525.98	35058.88
526.16	35054.20
526.33	35285.92
526.50	35168.89
526.67	35264.85
526.84	35201.66
527.01	35318.68
527.18	35613.59
527.36	35859.35
527.53	35875.73
527.70	36032.55
527.87	36215.11
528.04	35952.97
528.21	35952.97
528.38	35550.40
528.55	36378.95
528.72	35655.72
528.89	36006.80
529.07	36034.89
529.24	36065.31
529.41	36072.34
529.58	36776.84
529.75	36044.25
529.92	36451.50
530.09	36381.29
530.26	36725.35
530.43	36671.51
530.60	36093.40
530.77	36392.99
530.94	36751.09
531.11	36535.76
531.28	36800.24
531.46	37158.34
531.63	37050.68
531.80	36678.54
531.97	37174.73
532.14	37258.99
532.31	36786.20
532.48	37310.48
532.65	37289.42
532.82	37141.96
532.99	37500.06
533.16	37338.57
533.33	37289.42
533.50	37579.64
533.67	37411.12
533.84	37163.03
534.01	37797.31
534.18	37738.80
534.35	37937.74
534.52	37717.73
534.69	38174.14
534.86	38082.86
535.03	37689.65
535.20	38391.81
535.37	38272.44
535.54	38625.86
535.71	38230.31
535.88	38124.99
536.05	38424.57
536.22	38623.52
536.38	38431.60
536.55	38693.74
536.72	38424.57
536.89	38361.38
537.06	38480.75
537.23	38848.21
537.40	38581.39
537.57	38085.20
537.74	38658.63
537.91	38724.16
538.08	38871.62
538.25	38497.13
538.42	39000.35
538.59	39131.42
538.75	38789.70
538.92	39297.59
539.09	39370.15
539.26	39203.97
539.43	39077.58
539.60	39484.84
539.77	39494.20
539.94	39772.72
540.11	39374.83
540.28	39346.75
540.44	39580.80
540.61	39234.40
540.78	39360.79
540.95	39758.68
541.12	39730.59
541.29	39700.17
541.46	40009.12
541.62	39945.92
541.79	40060.61
541.96	39580.80
542.13	39653.36
542.30	40018.48
542.47	39744.64
542.63	40374.24
542.80	40346.15
542.97	40889.16
543.14	40308.71
543.31	40521.69
543.48	40573.19
543.64	40933.63
543.81	40542.76
543.98	40591.91
544.15	40589.57
544.32	40713.62
544.48	41043.63
544.65	40903.20
544.82	41441.53
544.99	40486.59
545.16	40683.19
545.32	40917.25
545.49	41649.83
545.66	41460.25
545.83	41071.72
546.00	41577.28
546.16	41010.87
546.33	41413.44
546.50	41134.92
546.67	41474.29
546.83	40713.62
547.00	41284.71
547.17	41006.19
547.34	41357.27
547.50	41584.30
547.67	41684.94
547.84	41413.44
548.00	41862.82
548.17	41783.24
548.34	42117.94
548.51	42059.43
548.67	41937.72
548.84	42363.70
549.01	41886.23
549.18	42029.00
549.34	42302.84
549.51	42010.28
549.68	42188.16
549.84	41928.36
550.01	42122.62
550.18	41883.89
550.34	42316.89
550.51	42171.77
550.68	42628.18
550.84	42122.62
551.01	42476.04
551.18	42553.28
551.34	42234.97
551.51	42464.34
551.68	42071.13
551.84	42567.32
552.01	42277.10
552.18	42777.97
552.34	42628.18
552.51	43192.25
552.68	42546.26
552.84	42742.86
553.01	42988.62
553.18	42866.91
553.34	42632.86
553.51	43203.95
553.67	42876.27
553.84	43150.12
554.01	43051.81
554.17	43021.39
554.34	43452.05
554.51	42810.74
554.67	43529.28
554.84	42864.57
555.00	43540.99
555.17	43227.35
555.33	43548.01
555.50	43709.50
555.67	43363.11
555.83	43585.46
556.00	43482.47
556.16	44037.18
556.33	43522.26
556.50	43690.78
556.66	43599.50
556.83	43592.48
556.99	43983.35
557.16	43899.09
557.32	43835.89
557.49	43613.54
557.65	43367.79
557.82	43477.79
557.98	44032.50
558.15	43482.47
558.32	43768.02
558.48	43573.75
558.65	43526.94
558.81	43784.40
558.98	43878.02
559.14	43473.11
559.31	43562.05
559.47	43768.02
559.64	44186.97
559.80	43910.79
559.97	43770.36
560.13	43978.67
560.30	43775.04
560.46	44109.74
560.63	44130.80
560.79	44456.14
560.96	44289.96
561.12	44381.24
561.29	44512.31
561.45	44467.84
561.61	44444.43
561.78	43920.15
561.94	44491.24
562.11	44535.71
562.27	44460.82
562.44	44430.39
562.60	44989.78
562.77	43859.30
562.93	44032.50
563.10	44697.21
563.26	44376.56
563.42	44648.06
563.59	44430.39
563.75	44296.98
563.92	44109.74
564.08	44727.64
564.24	44797.85
564.41	44596.57
564.57	44975.73
564.74	44669.12
564.90	44692.53
565.07	45092.76
565.23	44577.84
565.39	44542.74
565.56	44947.65
565.72	44516.99
565.88	44732.32
566.05	45191.06
566.21	44868.07
566.38	44954.67
566.54	45214.47
566.70	44584.86
566.87	44999.14
567.03	45123.19
567.19	45113.83
567.36	45024.89
567.52	44720.62
567.68	44992.12
567.85	45359.58
568.01	45172.34
568.17	44737.00
568.34	45291.71
568.50	45242.56
568.66	44638.70
568.83	44629.34
568.99	45106.80
569.15	45198.09
569.32	45062.33
569.48	45001.48
569.64	45406.39
569.81	44961.69
569.97	45207.45
570.13	45408.73
570.30	44807.22
570.46	45062.33
570.62	45074.04
570.78	45092.76
570.95	45219.15
571.11	45399.37
571.27	45558.53
571.43	45146.59
571.60	45116.17
571.76	44980.42
571.92	45682.58
572.09	45352.56
572.25	45034.25
572.41	45249.58
572.57	45205.11
572.74	45909.61
572.90	45256.60
573.06	45312.77
573.22	45464.91
573.38	45890.88
573.55	45326.81
573.71	45794.92
573.87	45455.54
574.03	45715.34
574.20	45855.78
574.36	45359.58
574.52	45748.11
574.68	45736.41
574.84	45666.19
575.01	45500.01
575.17	45645.13
575.33	45439.16
575.49	45488.31
575.65	45628.74
575.82	45518.74
575.98	45485.97
576.14	45832.37
576.30	45694.28
576.46	45710.66
576.62	45553.85
576.79	45539.80
576.95	44933.60
577.11	45799.60
577.27	45467.25
577.43	45778.54
577.59	45654.49
577.75	45301.07
577.92	45207.45
578.08	45673.21
578.24	45102.12
578.40	45895.56
578.56	45696.62
578.72	45720.02
578.88	45902.59
579.04	45687.26
579.21	45478.95
579.37	45984.51
579.53	45703.64
579.69	45642.79
579.85	45645.13
580.01	45605.34
580.17	45886.20
580.33	46375.37
580.49	45890.88
580.65	45832.37
580.82	45844.07
580.98	45261.28
581.14	45471.93
581.30	45876.84
581.46	45703.64
581.62	45586.61
581.78	45638.11
581.94	45895.56
582.10	45930.67
582.26	45837.05
582.42	45525.76
582.58	45649.81
582.74	46248.99
582.90	45750.45
583.06	45956.42
583.22	45481.29
583.38	45933.01
583.54	46085.15
583.70	45869.82
583.86	46045.36
584.02	45855.78
584.18	46234.94
584.34	45881.52
584.50	45883.86
584.66	46167.07
584.82	46045.36
584.98	46333.24
585.14	46232.60
585.30	45909.61
585.46	46071.10
585.62	46108.55
585.78	45867.48
585.94	45640.45
586.10	45748.11
586.26	45937.69
586.42	46068.76
586.58	45797.26
586.74	46195.15
586.90	45916.63
587.06	46092.17
587.22	46248.99
587.38	45865.14
587.54	45874.50
587.70	46593.04
587.86	46295.80
588.02	46195.15
588.18	46288.77
588.34	46150.68
588.49	45766.84
588.65	45773.86
588.81	46206.86
588.97	45928.33
589.13	45673.21
589.29	46113.23
589.45	46363.67
589.61	46061.74
589.77	46363.67
589.93	46176.43
590.08	46274.73
590.24	46880.93
590.40	46670.28
590.56	46513.47
590.72	46314.52
590.88	46370.69
591.04	45993.87
591.20	46457.29
591.35	46557.94
591.51	46609.43
591.67	46520.49
591.83	46703.05
591.99	46380.06
592.15	46436.23
592.31	46199.83
592.46	46330.90
592.62	46380.06
592.78	46958.17
592.94	46588.36
593.10	46775.61
593.26	46712.41
593.41	46759.22
593.57	46829.44
593.73	46520.49
593.89	46632.83
594.05	46731.14
594.20	46614.11
594.36	47033.07
594.52	46522.83
594.68	46298.14
594.84	46686.67
594.99	47082.22
595.15	46773.27
595.31	46941.78
595.47	46567.30
595.62	46529.85
595.78	46461.97
595.94	46677.30
596.10	46855.18
596.25	46497.08
596.41	46960.51
596.57	46506.44
596.73	46916.04
596.88	46616.45
597.04	46747.52
597.20	46810.71
597.36	46857.52
597.51	46630.49
597.67	46625.81
597.83	46834.12
597.99	46660.92
598.14	46841.14
598.30	46501.76
598.46	46689.01
598.61	46632.83
598.77	46658.58
598.93	46557.94
599.09	46681.98
599.24	47075.19
599.40	46841.14
599.56	46878.59
599.71	47281.16
599.87	47227.33
600.03	47278.82
600.18	47033.07
600.34	47166.48
600.50	47105.62
600.65	46887.95
600.81	47009.66
600.97	47349.04
601.12	47260.10
601.28	46796.67
601.44	46747.52
601.59	46782.63
601.75	46445.59
601.91	47110.30
602.06	46827.10
602.22	46571.98
602.37	46988.60
602.53	47297.55
602.69	47089.24
602.84	47122.01
603.00	46609.43
603.16	46749.86
603.31	46845.82
603.47	47030.72
603.62	46579.00
603.78	47402.87
603.94	46869.23
604.09	46976.89
604.25	46782.63
604.40	46871.57
604.56	47105.62
604.71	47250.74
604.87	46586.02
605.03	46761.56
605.18	46887.95
605.34	46815.40
605.49	46623.47
605.65	46864.55
605.80	46801.35
605.96	46593.04
606.12	47016.68
606.27	46927.74
606.43	47178.18
606.58	46490.06
606.74	46852.84
606.89	46836.46
607.05	46787.31
607.20	47171.16
607.36	46707.73
607.51	46829.44
607.67	46677.30
607.82	46555.60
607.98	46410.48
608.13	46382.40
608.29	46298.14
608.44	46997.96
608.60	46150.68
608.75	46471.34
608.91	46527.51
609.06	46518.15
609.22	46649.22
609.37	46307.50
609.53	46763.90
609.68	46841.14
609.84	46431.55
609.99	46705.39
610.15	46358.99
610.30	46501.76
610.46	46630.49
610.61	46312.18
610.76	46787.31
610.92	46501.76
611.07	46373.03
611.23	46358.99
611.38	46171.75
611.54	46387.08
611.69	46546.23
611.84	46756.88
612.00	46274.73
612.15	46120.26
612.31	46569.64
612.46	46227.92
612.62	46497.08
612.77	46485.38
612.92	46375.37
613.08	46401.12
613.23	46569.64
613.39	46354.31
613.54	46068.76
613.69	46735.82
613.85	46129.62
614.00	46590.70
614.15	45823.01
614.31	45977.48
614.46	46162.39
614.62	46057.06
614.77	45844.07
614.92	46138.98
615.08	46258.35
615.23	46050.04
615.38	46323.88
615.54	46178.77
615.69	46443.25
615.84	45872.16
616.00	46293.46
616.15	46071.10
616.30	45631.08
616.46	45977.48
616.61	46295.80
616.76	45853.44
616.92	45937.69
617.07	46131.96
617.22	46010.25
617.37	46040.68
617.53	46131.96
617.68	45975.14
617.83	45511.72
617.99	45904.93
618.14	45998.55
618.29	45464.91
618.45	45628.74
618.60	45432.14
618.75	45432.14
618.90	45525.76
619.06	45841.73
619.21	45780.88
619.36	45991.53
619.51	45617.04
619.67	45139.57
619.82	45858.12
619.97	46122.60
620.12	45329.16
620.28	45570.23
620.43	45619.38
620.58	45350.22
620.73	45663.85
620.89	45799.60
621.04	46307.50
621.19	45610.02
621.34	45111.49
621.49	45373.63
621.65	45338.52
621.80	45230.85
621.95	45375.97
622.10	45607.68
622.25	45291.71
622.41	45265.96
622.56	45062.33
622.71	45357.24
622.86	45069.36
623.01	45284.68
623.16	45422.78
623.32	44971.05
623.47	45076.38
623.62	45294.05
623.77	45464.91
623.92	45249.58
624.07	45263.62
624.23	45249.58
624.38	45193.40
624.53	45354.90
624.68	44900.84
624.83	44737.00
624.98	45233.19
625.13	44687.85
625.29	44624.65
625.44	44879.77
625.59	44580.18
625.74	44996.80
625.89	44872.75
626.04	44378.90
626.19	44561.46
626.34	45055.31
626.49	44582.52
626.65	44505.29
626.80	44444.43
626.95	44329.75
627.10	44500.61
627.25	44765.09
627.40	44025.48
627.55	44568.48
627.70	44334.43
627.85	44554.44
628.00	44818.92
628.15	44414.01
628.30	43849.94
628.45	44144.84
628.60	44100.37
628.76	44009.09
628.91	44219.74
629.06	44023.14
629.21	44236.12
629.36	44027.82
629.51	44222.08
629.66	44278.25
629.81	44048.88
629.96	44186.97
630.11	43929.51
630.26	43952.92
630.41	43803.13
630.56	44390.60
630.71	44364.85
630.86	43833.55
631.01	43718.87
631.16	43463.75
631.31	43821.85
631.46	43725.89
631.61	43835.89
631.76	43770.36
631.91	43646.31
632.06	44313.36
632.21	44355.49
632.36	43786.74
632.51	43091.60
632.66	44041.86
632.81	43737.59
632.96	43627.59
633.10	43407.58
633.25	42796.70
633.40	43246.08
633.55	43798.44
633.70	43758.66
633.85	43517.58
634.00	43267.14
634.15	43480.13
634.30	43524.60
634.45	43016.71
634.60	43412.26
634.75	43662.69
634.90	43578.43
635.05	43136.07
635.19	43271.82
635.34	43379.49
635.49	43239.06
635.64	43126.71
635.79	43217.99
635.94	43187.56
636.09	43278.85
636.24	43089.26
636.39	43349.06
636.53	43234.38
636.68	42887.98
636.83	42829.46
636.98	42728.82
637.13	42590.73
637.28	42899.68
637.43	42817.76
637.57	42497.11
637.72	42864.57
637.87	42614.13
638.02	42651.58
638.17	42721.80
638.32	42768.61
638.46	42356.67
638.61	42410.51
638.76	42665.63
638.91	42810.74
639.06	41776.22
639.20	42185.82
639.35	42337.95
639.50	42340.29
639.65	42274.76
639.80	42312.20
639.94	42597.75
640.09	42665.63
640.24	42323.91
640.39	41855.80
640.54	42789.67
640.68	43065.86
640.83	42759.25
640.98	42522.85
641.13	41848.78
641.27	42602.43
641.42	41776.22
641.57	42073.47
641.72	42267.73
641.86	42141.35
642.01	41853.46
642.16	42272.42
642.31	41467.27
642.45	42017.30
642.60	41581.96
642.75	41783.24
642.90	42092.19
643.04	41736.43
643.19	41696.64
643.34	41677.92
643.48	41163.00
643.63	41886.23
643.78	41727.07
643.93	41837.08
644.07	42129.64
644.22	42010.28
644.37	41986.87
644.51	42005.59
644.66	41546.85
644.81	41457.91
644.95	41834.74
645.10	42115.60
645.25	41411.10
645.39	41486.00
645.54	41439.18
645.69	41106.83
645.83	41696.64
645.98	41132.57
646.13	41191.09
646.27	41120.87
646.42	41247.26
646.57	41308.11
646.71	41663.88
646.86	41273.01
647.00	41399.40
647.15	41273.01
647.30	41947.08
647.44	41148.96
647.59	41013.21
647.74	41254.28
647.88	41308.11
648.03	41404.08
648.17	41684.94
648.32	41273.01
648.47	41406.42
648.61	40856.39
648.76	41006.19
648.90	40364.88
649.05	41057.68
649.20	41387.69
649.34	41497.70
649.49	41088.10
649.63	41254.28
649.78	40587.23
649.92	41109.17
650.07	41263.64
650.21	40814.26
650.36	40837.67
650.51	40664.47
650.65	41013.21
650.80	40966.40
650.94	40636.38
651.09	40533.40
651.23	40151.89
651.38	40442.12
651.52	40502.97
651.67	40577.87
651.81	40669.15
651.96	40460.84
652.10	40360.20
652.25	39491.86
652.39	40353.18
652.54	40517.01
652.68	40158.91
652.83	40254.87
652.97	40856.39
653.12	39910.82
653.26	39838.26
653.41	40177.64
653.55	40179.98
653.70	40734.68
653.84	40730.00
653.99	40650.42
654.13	40184.66
654.27	39875.71
654.42	40699.58
654.56	39803.15
654.71	40376.58
654.85	40650.42
655.00	40456.16
655.14	39873.37
655.29	40074.65
655.43	40360.20
655.57	40215.08
655.72	39756.34
655.86	40074.65
656.01	39714.21
656.15	39929.54
656.30	39952.94
656.44	39861.66
656.58	40011.46
656.73	39550.37
656.87	39533.99
657.01	39388.88
657.16	39695.49
657.30	39367.81
657.45	39756.34
657.59	39700.17
657.73	39164.18
657.88	39494.20
658.02	39292.91
658.16	39817.19
658.31	39765.70
658.45	39449.73
658.60	39276.53
658.74	39187.59
658.88	38972.26
659.03	39168.87
659.17	39105.67
659.31	38600.12
659.46	38618.84
659.60	39456.75
659.74	38948.85
659.89	38469.04
660.03	38534.58
660.17	38953.54
660.32	38747.57
660.46	38796.72
660.60	38572.03
660.74	38911.41
660.89	38373.08
661.03	38672.67
661.17	38384.79
661.32	38160.09
661.46	38234.99
661.60	38110.94
661.74	38370.74
661.89	38178.82
662.03	38223.29
662.17	37731.78
662.31	37923.70
662.46	37926.04
662.60	37827.74
662.74	37785.61
662.88	37490.70
663.03	37490.70
663.17	37495.38
663.31	37446.23
663.45	37813.70
663.60	38120.31
663.74	37773.91
663.88	37502.40
664.02	37376.01
664.17	37586.66
664.31	37010.89
664.45	36971.10
664.59	37549.21
664.73	37258.99
664.88	37558.58
665.02	37209.84
665.16	37233.24
665.30	36952.38
665.44	36931.31
665.59	36715.98
665.73	36849.39
665.87	36222.13
666.01	36666.83
666.15	36605.98
666.29	36643.43
666.44	36804.92
666.58	36540.44
666.72	36011.48
666.86	36573.21
667.00	36292.35
667.14	36844.71
667.28	35857.01
667.43	36261.92
667.57	36615.34
667.71	35999.78
667.85	36315.75
667.99	36039.57
668.13	35529.33
668.27	35742.32
668.41	35835.94
668.56	35065.91
668.70	35587.85
668.84	35157.19
668.98	35344.43
669.12	35857.01
669.26	35318.68
669.40	35459.12
669.54	35398.26
669.68	35276.55
669.82	35236.77
669.96	35262.51
670.10	35044.84
670.25	34871.64
670.39	34897.39
670.53	35299.96
670.67	34611.84
670.81	34843.56
670.95	34778.02
671.09	34899.73
671.23	34368.43
671.37	34897.39
671.51	34345.02
671.65	34672.70
671.79	34483.11
671.93	34572.05
672.07	34546.31
672.21	34417.58
672.35	33790.31
672.49	33949.47
672.63	34206.93
672.77	33596.05
672.91	34326.30
673.05	33762.23
673.19	33818.40
673.33	33504.77
673.47	33460.30
673.61	33376.04
673.75	33333.91
673.89	33362.00
674.03	32861.12
674.17	32936.02
674.31	32903.25
674.45	33273.06
674.59	32849.42
674.73	32982.83
674.87	32720.69
675.01	32371.95
675.15	32275.99
675.29	32348.54
675.43	32037.25
675.56	32620.05
675.70	32102.79
675.84	32362.59
675.98	31178.28
676.12	31892.14
676.26	32165.98
676.40	31519.99
676.54	31669.79
676.68	31948.31
676.82	31269.56
676.96	31447.44
677.10	31264.88
677.23	31524.68
677.37	31388.92
677.51	31204.02
677.65	30991.03
677.79	30888.05
677.93	30888.05
678.07	30700.81
678.21	30256.11
678.34	30600.16
678.48	30174.19
678.62	30012.69
678.76	30071.20
678.90	30033.75
679.04	30213.98
679.18	30403.56
679.31	29788.00
679.45	29708.42
679.59	30026.73
679.73	29778.64
679.87	29193.50
680.00	29755.23
680.14	29509.47
680.28	29790.34
680.42	29530.54
680.56	28765.18
680.70	28914.98
680.83	28687.95
680.97	28549.85
681.11	28678.58
681.25	27992.81
681.39	27672.15
681.52	28119.20
681.66	28231.54
681.80	27913.23
681.94	27513.00
682.07	27718.96
682.21	28044.30
682.35	27796.20
682.49	27702.58
682.62	27742.37
682.76	27721.30
682.90	27379.59
683.04	27475.55
683.17	27484.91
683.31	27246.18
683.45	27213.41
683.59	26382.52
683.72	26771.05
683.86	26431.67
684.00	26698.49
684.13	26387.20
684.27	26417.63
684.41	26232.72
684.55	26450.39
684.68	26352.09
684.82	25811.43
684.96	25654.61
685.09	25804.41
685.23	25759.94
685.37	26417.63
685.50	25935.48
685.64	25678.02
685.78	25376.09
685.91	25378.43
686.05	25394.81
686.19	25008.62
686.32	25036.71
686.46	24971.18
686.60	24243.27
686.73	24950.11
686.87	24980.54
687.01	24655.20
687.14	24739.46
687.28	24748.82
687.42	24540.52
687.55	24554.56
687.69	24180.07
687.82	24133.26
687.96	23800.91
688.10	24032.62
688.23	24067.73
688.37	23997.51
688.50	23793.89
688.64	23613.66
688.78	23543.45
688.91	23461.53
689.05	23480.25
689.18	23197.05
689.32	22817.88
689.46	23063.64
689.59	22782.77
689.73	23030.87
689.86	23285.99
690.00	22906.82
690.13	22937.25
690.27	22642.34
690.41	22778.09
690.54	22370.84
690.68	22448.08
690.81	22047.85
690.95	21989.33
691.08	22029.12
691.22	21682.72
691.35	21666.34
691.49	21916.78
691.62	21809.11
691.76	21418.24
691.89	21223.98
692.03	21076.52
692.16	21160.78
692.30	21174.83
692.43	21202.91
692.57	20893.96
692.70	20673.95
692.84	21022.69
692.97	20425.86
693.11	20613.10
693.24	20311.17
693.38	20170.74
693.51	20255.00
693.65	19960.09
693.78	20109.88
693.92	19847.74
694.05	20051.37
694.19	20037.33
694.32	19779.87
694.45	19829.02
694.59	20126.27
694.72	19810.29
694.86	19585.60
694.99	19337.51
695.13	19119.84
695.26	18974.72
695.39	18876.42
695.53	18902.17
695.66	19014.51
695.80	18913.87
695.93	18911.53
696.07	18501.93
696.20	18448.10
696.33	18235.11
696.47	18211.71
696.60	18256.18
696.73	18555.77
696.87	18441.08
697.00	18111.07
697.14	18038.51
697.27	17963.61
697.40	17790.41
697.54	17921.48
697.67	17928.50
697.80	17549.34
697.94	17734.24
698.07	17130.38
698.21	17572.74
698.34	17322.30
698.47	17303.58
698.61	16762.92
698.74	16922.07
698.87	17008.67
699.01	16533.54
699.14	16566.31
699.27	16847.18
699.40	16643.55
699.54	16568.65
699.67	16184.80
699.80	16798.02
699.94	16362.69
700.07	16276.09
700.20	15896.92
700.34	16123.95
700.47	16159.06
700.60	16414.18
700.73	16072.46
700.87	15634.78
701.00	15611.37
701.13	15487.32
701.26	15618.39
701.40	15735.42
701.53	15286.04
701.66	15407.75
701.79	15311.78
701.93	15307.10
702.06	14923.26
702.19	14970.07
702.32	15091.77
702.46	14965.39
702.59	14771.12
702.72	15103.48
702.85	15077.73
702.99	14824.95
703.12	14670.48
703.25	14331.10
703.38	14478.55
703.51	14621.33
703.65	14244.50
703.78	14113.43
703.91	13956.61
704.04	14113.43
704.17	13802.14
704.31	14101.73
704.44	13839.59
704.57	13860.65
704.70	13996.40
704.83	13689.79
704.96	13734.26
705.10	13490.85
705.23	13596.17
>>>>>End Processed Spectral Data<<<<<
