SpectraSuite Data File
++++++++++++++++++++++++++++++++++++
Date: Fri Oct 25 10:43:39 EDT 2013
User: price-jones
Dark Spectrum Present: No
Reference Spectrum Present: No
Number of Sampled Component Spectra: 1
Spectrometers: USB2+H05261
Integration Time (usec): 100000 (USB2+H05261)
Spectra Averaged: 1 (USB2+H05261)
Boxcar Smoothing: 0 (USB2+H05261)
Correct for Electrical Dark: No (USB2+H05261)
Strobe/Lamp Enabled: No (USB2+H05261)
Correct for Detector Non-linearity: No (USB2+H05261)
Correct for Stray Light: No (USB2+H05261)
Number of Pixels in Processed Spectrum: 2048
>>>>>Begin Processed Spectral Data<<<<<
365.73	72.56
365.92	72.56
366.12	72.56
366.32	0.00
366.52	0.00
366.72	51.49
366.91	9.36
367.11	4.68
367.31	14.04
367.51	0.00
367.70	77.24
367.90	0.00
368.10	30.43
368.30	72.56
368.49	32.77
368.69	65.54
368.89	14.04
369.09	23.41
369.28	91.28
369.48	0.00
369.68	23.41
369.87	58.51
370.07	23.41
370.27	182.56
370.47	215.33
370.66	376.83
370.86	447.04
371.06	395.55
371.25	475.13
371.45	477.47
371.65	512.58
371.84	484.49
372.04	442.36
372.24	489.17
372.44	484.49
372.63	498.53
372.83	559.39
373.03	477.47
373.22	482.15
373.42	477.47
373.62	561.73
373.81	587.47
374.01	613.22
374.21	543.00
374.40	557.05
374.60	596.84
374.79	545.34
374.99	528.96
375.19	606.20
375.38	505.56
375.58	547.69
375.78	519.60
375.97	528.96
376.17	718.54
376.37	676.41
376.56	601.52
376.76	571.09
376.95	634.29
377.15	695.14
377.35	697.48
377.54	681.10
377.74	631.94
377.93	655.35
378.13	603.86
378.33	655.35
378.52	671.73
378.72	718.54
378.91	650.67
379.11	671.73
379.31	690.46
379.50	713.86
379.70	711.52
379.89	744.29
380.09	702.16
380.28	692.80
380.48	725.57
380.68	620.24
380.87	688.12
381.07	774.72
381.26	746.63
381.46	739.61
381.65	788.76
381.85	720.88
382.04	624.92
382.24	737.27
382.43	788.76
382.63	638.97
382.83	755.99
383.02	770.04
383.22	798.12
383.41	688.12
383.61	788.76
383.80	692.80
384.00	716.20
384.19	826.21
384.39	730.25
384.58	798.12
384.78	802.80
384.97	802.80
385.17	737.27
385.36	823.87
385.56	840.25
385.75	847.27
385.95	793.44
386.14	856.64
386.34	891.74
386.53	863.66
386.72	877.70
386.92	880.04
387.11	847.27
387.31	877.70
387.50	821.53
387.70	849.61
387.89	837.91
388.09	877.70
388.28	882.38
388.48	922.17
388.67	964.30
388.86	966.64
389.06	1011.11
389.25	1022.81
389.45	1032.18
389.64	1015.79
389.84	1043.88
390.03	1039.20
390.22	1020.47
390.42	1135.16
390.61	1081.33
390.81	1053.24
391.00	1130.48
391.19	1055.58
391.39	1036.86
391.58	1067.28
391.78	1013.45
391.97	1081.33
392.16	999.41
392.36	1088.35
392.55	1039.20
392.75	994.73
392.94	1053.24
393.13	1032.18
393.33	1013.45
393.52	978.34
393.71	1001.75
393.91	1151.54
394.10	1153.88
394.29	1167.93
394.49	1219.42
394.68	1240.48
394.88	1156.22
395.07	1196.01
395.26	1186.65
395.46	1210.06
395.65	1217.08
395.84	1212.40
396.04	1327.08
396.23	1193.67
396.42	1111.75
396.62	1163.25
396.81	1228.78
397.00	1231.12
397.19	1198.35
397.39	1282.61
397.58	1362.19
397.77	1364.53
397.97	1432.41
398.16	1369.21
398.35	1434.75
398.55	1392.62
398.74	1516.67
398.93	1605.61
399.12	1483.90
399.32	1535.39
399.51	1495.60
399.70	1502.62
399.90	1701.57
400.09	1577.52
400.28	1689.87
400.47	1589.22
400.67	1626.67
400.86	1673.48
401.05	1746.04
401.24	1673.48
401.44	1724.97
401.63	1694.55
401.82	1748.38
402.01	1689.87
402.21	1781.15
402.40	1760.08
402.59	1750.72
402.78	1706.25
402.97	1732.00
403.17	1769.44
403.36	1732.00
403.55	1834.98
403.74	1905.20
403.93	1886.47
404.13	1863.07
404.32	1926.26
404.51	1961.37
404.70	1893.49
404.89	1949.67
405.09	1994.14
405.28	1970.73
405.47	1895.83
405.66	1930.94
405.85	2069.03
406.05	1956.69
406.24	2015.20
406.43	2120.53
406.62	2106.48
406.81	2181.38
407.00	1949.67
407.20	2118.18
407.39	2043.29
407.58	2139.25
407.77	2183.72
407.96	2218.83
408.15	2275.00
408.34	2331.17
408.54	2354.58
408.73	2289.04
408.92	2431.82
409.11	2387.35
409.30	2319.47
409.49	2275.00
409.68	2232.87
409.87	2263.30
410.07	2417.77
410.26	2389.69
410.45	2441.18
410.64	2502.03
410.83	2562.89
411.02	2520.76
411.21	2656.51
411.40	2539.48
411.59	2534.80
411.78	2710.34
411.98	2715.02
412.17	2572.25
412.36	2743.11
412.55	2644.81
412.74	2724.38
412.93	2663.53
413.12	2677.57
413.31	2796.94
413.50	2745.45
413.69	2836.73
413.88	2920.99
414.07	2935.03
414.26	2932.69
414.45	2946.73
414.64	3117.59
414.83	3098.87
415.02	3124.62
415.22	3138.66
415.41	3110.57
415.60	3094.19
415.79	3272.07
415.98	3414.84
416.17	3346.97
416.36	3400.80
416.55	3332.92
416.74	3363.35
416.93	3323.56
417.12	3358.67
417.31	3389.10
417.50	3290.79
417.69	3524.85
417.88	3660.60
418.07	3382.07
418.26	3463.99
418.45	3417.18
418.64	3578.68
418.83	3531.87
419.02	3632.51
419.21	3686.34
419.39	3667.62
419.58	3562.30
419.77	3651.24
419.96	3609.11
420.15	3808.05
420.34	3754.22
420.53	3932.10
420.72	3852.52
420.91	3784.65
421.10	3864.22
421.29	4009.34
421.48	3955.51
421.67	3885.29
421.86	3929.76
422.05	3754.22
422.24	3999.98
422.43	3810.39
422.61	3882.95
422.80	4046.79
422.99	4025.72
423.18	3885.29
423.37	4074.87
423.56	3929.76
423.75	4042.11
423.94	3875.93
424.13	3768.26
424.32	3735.50
424.50	4016.36
424.69	4081.89
424.88	3964.87
425.07	4016.36
425.26	3873.59
425.45	4042.11
425.64	3840.82
425.83	4051.47
426.01	3990.61
426.20	3999.98
426.39	4154.45
426.58	3918.06
426.77	4011.68
426.96	4002.32
427.15	4032.74
427.33	4072.53
427.52	4014.02
427.71	4138.07
427.90	4081.89
428.09	4292.54
428.28	4124.02
428.46	4147.43
428.65	4299.56
428.84	4194.24
429.03	4322.97
429.22	4091.26
429.40	4196.58
429.59	4290.20
429.78	3969.55
429.97	3985.93
430.16	3957.85
430.34	4065.51
430.53	4189.56
430.72	4161.47
430.91	4187.22
431.10	4367.44
431.28	4657.67
431.47	4741.93
431.66	4762.99
431.85	4610.86
432.03	4788.74
432.22	4744.27
432.41	4601.49
432.60	4744.27
432.79	4681.07
432.97	4887.04
433.16	4842.57
433.35	4758.31
433.54	4674.05
433.72	4697.46
433.91	4730.22
434.10	4821.50
434.28	4910.44
434.47	4868.31
434.66	4929.17
434.85	4980.66
435.03	5006.41
435.22	4882.36
435.41	5001.72
435.59	4861.29
435.78	5067.26
435.97	5261.52
436.16	5048.54
436.34	5057.90
436.53	5116.41
436.72	5448.77
436.90	5102.37
437.09	5301.31
437.28	5135.14
437.46	5107.05
437.65	5221.74
437.84	5151.52
438.02	5270.89
438.21	5221.74
438.40	5095.35
438.58	5483.88
438.77	5397.28
438.96	5568.13
439.14	5610.26
439.33	5724.95
439.52	5547.07
439.70	5607.92
439.89	5837.30
440.08	5617.29
440.26	5715.59
440.45	5685.16
440.63	5982.41
440.82	5907.51
441.01	6134.54
441.19	5928.58
441.38	6195.40
441.57	6218.80
441.75	6270.30
441.94	6410.73
442.12	6502.01
442.31	6384.98
442.50	6492.65
442.68	6291.36
442.87	6265.61
443.05	6349.87
443.24	6415.41
443.43	6497.33
443.61	6534.78
443.80	6761.81
443.98	6509.03
444.17	6333.49
444.35	6614.35
444.54	6768.83
444.73	6686.91
444.91	6719.68
445.10	6619.04
445.28	6525.41
445.47	6567.54
445.65	6525.41
445.84	6649.46
446.02	6588.61
446.21	6663.51
446.39	6630.74
446.58	6745.42
446.77	6719.68
446.95	6710.32
447.14	6644.78
447.32	6785.21
447.51	6675.21
447.69	6752.45
447.88	6794.58
448.06	6722.02
448.25	6864.79
448.43	6923.30
448.62	6871.81
448.80	7012.24
448.99	6871.81
449.17	6712.66
449.36	6932.67
449.54	7122.25
449.73	7007.56
449.91	7152.68
450.10	7155.02
450.28	7389.07
450.46	7300.13
450.65	7428.86
450.83	7239.28
451.02	7454.61
451.20	7454.61
451.39	7283.75
451.57	7279.07
451.76	7363.33
451.94	7286.09
452.13	7447.58
452.31	7309.49
452.49	7218.21
452.68	7440.56
452.86	7243.96
453.05	7438.22
453.23	7531.84
453.42	7330.56
453.60	7431.20
453.78	7510.78
453.97	7517.80
454.15	7250.98
454.34	7328.22
454.52	7702.70
454.70	7524.82
454.89	7396.09
455.07	7665.25
455.26	7599.72
455.44	7817.39
455.62	7871.22
455.81	7852.50
455.99	7922.71
456.17	7857.18
456.36	7915.69
456.54	8229.32
456.73	8222.30
456.91	8292.52
457.09	8161.45
457.28	8224.64
457.46	8051.44
457.64	8257.41
457.83	8194.22
458.01	8201.24
458.19	8442.31
458.38	8287.84
458.56	8351.03
458.74	8381.46
458.93	8313.58
459.11	8393.16
459.29	8442.31
459.48	8519.55
459.66	8358.05
459.84	8358.05
460.03	8627.21
460.21	8702.11
460.39	8652.96
460.57	8472.74
460.76	8720.84
460.94	8561.68
461.12	8702.11
461.31	8938.51
461.49	8702.11
461.67	8816.80
461.85	8769.99
462.04	8922.12
462.22	9252.14
462.40	9036.81
462.59	9036.81
462.77	8865.95
462.95	9149.15
463.13	9088.30
463.32	8959.57
463.50	9092.98
463.68	9085.96
463.86	8994.68
464.05	9263.84
464.23	8929.14
464.41	9008.72
464.59	9212.35
464.78	9371.50
464.96	9128.09
465.14	9252.14
465.32	9305.97
465.50	9329.38
465.69	9474.49
465.87	9334.06
466.05	9345.76
466.23	9277.88
466.41	9202.99
466.60	9404.27
466.78	9193.62
466.96	9341.08
467.14	9411.29
467.32	9455.76
467.51	9577.47
467.69	9521.30
467.87	9479.17
468.05	9837.27
468.23	9460.45
468.41	9685.14
468.60	9497.89
468.78	9586.83
468.96	9462.79
469.14	9689.82
469.32	10001.11
469.50	9729.61
469.69	9832.59
469.87	10101.75
470.05	10001.11
470.23	10064.30
470.41	9937.91
470.59	10054.94
470.77	9888.76
470.95	10078.35
471.14	10083.03
471.32	10171.97
471.50	10148.56
471.68	10457.51
471.86	10317.08
472.04	10382.62
472.22	10619.01
472.40	10478.58
472.58	10174.31
472.77	10485.60
472.95	10700.93
473.13	11171.38
473.31	10754.76
473.49	10658.80
473.67	10630.71
473.85	10572.20
474.03	11194.78
474.21	11108.18
474.39	10986.47
474.57	11070.73
474.75	11190.10
474.93	11356.28
475.12	11449.90
475.30	11515.44
475.48	11330.53
475.66	11412.45
475.84	11211.17
476.02	11426.50
476.20	11536.50
476.38	11836.09
476.56	12002.27
476.74	12121.63
476.92	12112.27
477.10	12100.57
477.28	12224.62
477.46	12482.08
477.64	12306.54
477.82	12709.11
478.00	12776.98
478.18	12645.91
478.36	12791.03
478.54	12758.26
478.72	12861.24
478.90	13235.73
479.08	13252.11
479.26	13291.90
479.44	13137.43
479.62	13319.99
479.80	13432.33
479.98	13628.94
480.16	13823.20
480.34	13745.97
480.52	14026.83
480.70	13877.04
480.88	13907.46
481.06	14075.98
481.24	14155.56
481.41	14464.51
481.59	14494.94
481.77	14406.00
481.95	14656.43
482.13	14511.32
482.31	14743.03
482.49	15199.44
482.67	15028.58
482.85	15297.74
483.03	15234.55
483.21	15391.36
483.39	15559.88
483.57	15339.87
483.74	15700.31
483.92	15789.25
484.10	15676.91
484.28	15946.07
484.46	16369.71
484.64	16875.26
484.82	16191.83
485.00	16306.51
485.18	16224.59
485.35	16840.15
485.53	16386.09
485.71	16257.36
485.89	16486.73
486.07	16634.19
486.25	16959.52
486.43	16966.54
486.61	17216.98
486.78	17221.66
486.96	17345.71
487.14	18075.96
487.32	17989.36
487.50	18015.10
487.68	18216.39
487.85	18609.60
488.03	18946.64
488.21	18780.46
488.39	18677.48
488.57	18916.21
488.75	18892.80
488.92	19236.86
489.10	19197.07
489.28	19604.33
489.46	19978.81
489.64	19950.73
489.81	20432.88
489.99	20247.97
490.17	20264.36
490.35	20697.36
490.53	20587.35
490.70	20542.88
490.88	20287.76
491.06	20893.96
491.24	20685.65
491.41	21020.35
491.59	20884.60
491.77	20816.72
491.95	21322.28
492.13	21535.27
492.30	21954.22
492.48	21956.57
492.66	22132.11
492.84	21884.01
493.01	22415.31
493.19	22197.64
493.37	22370.84
493.54	22518.29
493.72	22778.09
493.90	22831.93
494.08	23421.74
494.25	23255.56
494.43	23538.77
494.61	23613.66
494.79	23941.34
494.96	23388.97
495.14	23601.96
495.32	24006.87
495.49	23927.30
495.67	24144.97
495.85	24687.97
496.02	24400.08
496.20	24596.69
496.38	24411.79
496.55	24790.95
496.73	25294.17
496.91	24687.97
497.09	25254.38
497.26	25516.52
497.44	25263.74
497.62	25132.67
497.79	25621.84
497.97	25490.77
498.14	25539.93
498.32	25568.01
498.50	25858.24
498.67	26441.03
498.85	26295.92
499.03	26759.34
499.20	26356.77
499.38	26466.78
499.56	26487.84
499.73	26541.68
499.91	27262.56
500.08	27058.93
500.26	26555.72
500.44	26951.27
500.61	27072.98
500.79	27014.46
500.97	27243.84
501.14	27557.47
501.32	27274.26
501.49	27175.96
501.67	27337.46
501.84	27754.07
502.02	27777.48
502.20	27782.16
502.37	27859.40
502.55	27786.84
502.72	28329.84
502.90	28266.65
503.07	28060.68
503.25	28402.40
503.43	27953.02
503.60	28659.86
503.78	28701.99
503.95	28465.60
504.13	28617.73
504.30	28751.14
504.48	28809.65
504.65	29102.22
504.83	29486.07
505.01	29872.26
505.18	29539.90
505.36	29551.60
505.53	29560.97
505.71	29785.66
505.88	30017.37
506.06	29876.94
506.23	30265.47
506.41	29696.72
506.58	29912.05
506.76	30253.76
506.93	30333.34
507.11	30106.31
507.28	30438.67
507.46	30361.43
507.63	30043.12
507.81	30881.03
507.98	30216.32
508.16	30506.54
508.33	31094.02
508.50	31051.89
508.68	30501.86
508.85	31463.82
509.03	31246.15
509.20	31407.65
509.38	31548.08
509.55	31555.10
509.73	31763.41
509.90	31576.17
510.08	31952.99
510.25	31604.25
510.42	31992.78
510.60	32428.12
510.77	31915.54
510.95	32011.51
511.12	32467.91
511.30	32114.49
511.47	32376.63
511.64	32610.68
511.82	32484.30
511.99	32891.55
512.17	32570.90
512.34	32430.46
512.51	32699.62
512.69	32744.09
512.86	32739.41
513.04	33081.13
513.21	33134.96
513.38	33053.05
513.56	33284.76
513.73	32919.63
513.90	32849.42
514.08	33111.56
514.25	33429.87
514.43	33567.96
514.60	33362.00
514.77	33757.55
514.95	33804.36
515.12	33682.65
515.29	33921.38
515.47	34218.63
515.64	34389.49
515.81	34307.57
515.99	34288.85
516.16	33537.54
516.33	34012.66
516.51	33813.72
516.68	33525.83
516.85	33649.88
517.03	34073.52
517.20	34068.84
517.37	34199.91
517.54	34668.02
517.72	34593.12
517.89	33986.92
518.06	33844.15
518.24	34015.01
518.41	34747.59
518.58	35049.52
518.75	34792.06
518.93	35019.10
519.10	34972.28
519.27	34913.77
519.45	34937.18
519.62	35431.03
519.79	35524.65
519.96	35573.80
520.14	35943.61
520.31	35505.93
520.48	36187.02
520.65	35821.90
520.83	36039.57
521.00	36165.96
521.17	36500.65
521.34	36137.87
521.52	36374.27
521.69	36556.83
521.86	36973.44
522.03	36833.01
522.20	36229.15
522.38	36940.68
522.55	36802.58
522.72	36980.46
522.89	36428.10
523.07	36690.24
523.24	36933.65
523.41	37088.13
523.58	37083.45
523.75	37556.24
523.92	37443.89
524.10	37429.85
524.27	37691.99
524.44	37862.85
524.61	37743.48
524.78	37778.59
524.96	37804.33
525.13	37940.08
525.30	38003.28
525.47	38288.82
525.64	38347.34
525.81	37930.72
525.98	37701.35
526.16	37523.47
526.33	37706.03
526.50	37708.37
526.67	37371.33
526.84	37329.20
527.01	38054.77
527.18	37970.51
527.36	38340.32
527.53	38410.53
527.70	38665.65
527.87	38682.03
528.04	38188.18
528.21	39157.16
528.38	38822.47
528.55	39161.84
528.72	38799.06
528.89	39571.44
529.07	39339.72
529.24	38962.90
529.41	39225.04
529.58	39058.86
529.75	39152.48
529.92	40013.80
530.09	39573.78
530.26	39559.73
530.43	39533.99
530.60	39583.14
530.77	39604.20
530.94	39885.07
531.11	39538.67
531.28	40065.29
531.46	39641.65
531.63	39761.02
531.80	40217.43
531.97	39606.55
532.14	39784.43
532.31	39267.17
532.48	40030.18
532.65	40046.57
532.82	39718.89
532.99	39878.05
533.16	40088.70
533.33	39974.01
533.50	40348.50
533.67	40306.37
533.84	40421.05
534.01	40524.04
534.18	39943.58
534.35	40552.12
534.52	40486.59
534.69	40301.68
534.86	40807.24
535.03	40802.56
535.20	40971.08
535.37	41464.93
535.54	41301.09
535.71	41099.81
535.88	40959.38
536.05	40615.32
536.22	41015.55
536.38	41001.50
536.55	41055.34
536.72	40847.03
536.89	40589.57
537.06	41067.04
537.23	41310.46
537.40	40898.52
537.57	41287.05
537.74	41364.29
537.91	42139.00
538.08	41478.97
538.25	41832.39
538.42	41619.41
538.59	41471.95
538.75	41125.55
538.92	41336.20
539.09	41577.28
539.26	41759.84
539.43	41645.15
539.60	41792.61
539.77	41544.51
539.94	41916.65
540.11	41785.58
540.28	41677.92
540.44	41684.94
540.61	41890.91
540.78	41865.16
540.95	41511.74
541.12	41701.32
541.29	42174.11
541.46	42480.72
541.62	42258.37
541.79	43068.20
541.96	41780.90
542.13	42202.20
542.30	42389.44
542.47	42117.94
542.63	42010.28
542.80	42534.56
542.97	42604.77
543.14	42649.24
543.31	42810.74
543.48	42660.94
543.64	43173.52
543.81	43243.74
543.98	43199.27
544.15	43157.14
544.32	42976.92
544.48	43030.75
544.65	43335.02
544.82	43536.30
544.99	42962.87
545.16	43243.74
545.32	43363.11
545.49	43608.86
545.66	44053.56
545.83	43356.08
546.00	43475.45
546.16	43129.05
546.33	43463.75
546.50	43236.72
546.67	43686.10
546.83	43225.01
547.00	43494.18
547.17	43538.65
547.34	43210.97
547.50	43587.80
547.67	43529.28
547.84	43863.98
548.00	43821.85
548.17	44439.75
548.34	44076.97
548.51	44477.20
548.67	44648.06
548.84	43863.98
549.01	43901.43
549.18	43606.52
549.34	43903.77
549.51	43981.01
549.68	44128.46
549.84	43924.83
550.01	44264.21
550.18	43812.49
550.34	44528.69
550.51	44318.04
550.68	44339.11
550.84	43973.98
551.01	44437.41
551.18	44395.28
551.34	44406.98
551.51	44884.45
551.68	45102.12
551.84	44891.48
552.01	44334.43
552.18	44451.45
552.34	44133.14
552.51	44769.77
552.68	44425.71
552.84	44751.04
553.01	44818.92
553.18	44619.97
553.34	44973.39
553.51	44641.04
553.67	44868.07
553.84	44865.73
554.01	44928.92
554.17	45013.18
554.34	45202.77
554.51	44861.05
554.67	45111.49
554.84	45249.58
555.00	44685.51
555.17	45003.82
555.33	45148.93
555.50	45261.28
555.67	45158.30
555.83	44818.92
556.00	44825.94
556.16	45312.77
556.33	45148.93
556.50	45354.90
556.66	45324.47
556.83	44734.66
556.99	45212.13
557.16	45546.82
557.32	45532.78
557.49	45797.26
557.65	45109.14
557.82	45130.21
557.98	45425.12
558.15	45413.41
558.32	45359.58
558.48	45296.39
558.65	45471.93
558.81	45038.93
558.98	45202.77
559.14	45038.93
559.31	45233.19
559.47	45167.66
559.64	45406.39
559.80	45284.68
559.97	45118.51
560.13	45137.23
560.30	45432.14
560.46	45408.73
560.63	45684.92
560.79	46225.58
560.96	45708.32
561.12	45429.80
561.29	45151.27
561.45	45656.83
561.61	45698.96
561.78	45301.07
561.94	45331.50
562.11	45399.37
562.27	45436.82
562.44	45780.88
562.60	46251.33
562.77	45879.18
562.93	45818.33
563.10	45895.56
563.26	45509.38
563.42	45705.98
563.59	45841.73
563.75	45553.85
563.92	45858.12
564.08	45427.46
564.24	46323.88
564.41	46026.63
564.57	45710.66
564.74	46171.75
564.90	45897.91
565.07	45492.99
565.23	45986.85
565.39	45773.86
565.56	46014.93
565.72	45516.40
565.88	46234.94
566.05	45762.15
566.21	45762.15
566.38	45886.20
566.54	46279.41
566.70	46258.35
566.87	46038.34
567.03	46082.81
567.19	46241.96
567.36	46146.00
567.52	46094.51
567.68	46689.01
567.85	45755.13
568.01	46246.65
568.17	45947.06
568.34	46410.48
568.50	45717.68
568.66	46024.29
568.83	46108.55
568.99	45703.64
569.15	45918.97
569.32	46108.55
569.48	46052.38
569.64	46197.49
569.81	46469.00
569.97	45872.16
570.13	45968.12
570.30	45928.33
570.46	46115.58
570.62	46007.91
570.78	45436.82
570.95	45923.65
571.11	45909.61
571.27	45780.88
571.43	46330.90
571.60	46136.64
571.76	46248.99
571.92	46085.15
572.09	45916.63
572.25	46120.26
572.41	46600.07
572.57	46777.95
572.74	46199.83
572.90	45940.04
573.06	46501.76
573.22	46288.77
573.38	46394.10
573.55	45830.03
573.71	46529.85
573.87	46677.30
574.03	46349.63
574.20	46138.98
574.36	46143.66
574.52	46195.15
574.68	46010.25
574.84	46529.85
575.01	46300.48
575.17	46225.58
575.33	46293.46
575.49	46117.92
575.65	46272.39
575.82	45930.67
575.98	45951.74
576.14	46494.74
576.30	46246.65
576.46	46005.57
576.62	46136.64
576.79	46309.84
576.95	46211.54
577.11	46461.97
577.27	46885.61
577.43	46644.54
577.59	45879.18
577.75	45918.97
577.92	45776.20
578.08	45940.04
578.24	45923.65
578.40	45661.51
578.56	46136.64
578.72	46579.00
578.88	46405.80
579.04	46401.12
579.21	46216.22
579.37	45940.04
579.53	46351.97
579.69	45876.84
579.85	45745.77
580.01	46506.44
580.17	46028.98
580.33	46731.14
580.49	46298.14
580.65	46656.24
580.82	46094.51
580.98	46447.93
581.14	46068.76
581.30	46466.66
581.46	45895.56
581.62	46164.73
581.78	46700.71
581.94	46522.83
582.10	46445.59
582.26	46541.55
582.42	46522.83
582.58	46417.50
582.74	46113.23
582.90	46864.55
583.06	46520.49
583.22	46436.23
583.38	46443.25
583.54	46543.89
583.70	46291.12
583.86	46777.95
584.02	46438.57
584.18	46742.84
584.34	46370.69
584.50	46417.50
584.66	46078.13
584.82	46073.45
584.98	46227.92
585.14	46724.11
585.30	45682.58
585.46	46223.24
585.62	46045.36
585.78	46293.46
585.94	46162.39
586.10	46466.66
586.26	46527.51
586.42	46480.70
586.58	46553.26
586.74	46401.12
586.90	46438.57
587.06	46532.19
587.22	46405.80
587.38	46546.23
587.54	46681.98
587.70	46834.12
587.86	46487.72
588.02	46438.57
588.18	46291.12
588.34	46052.38
588.49	45736.41
588.65	45909.61
588.81	45954.08
588.97	46078.13
589.13	45799.60
589.29	46085.15
589.45	46078.13
589.61	46021.95
589.77	46351.97
589.93	46412.82
590.08	46443.25
590.24	46696.03
590.40	46979.23
590.56	46555.60
590.72	46536.87
590.88	46031.32
591.04	46457.29
591.20	47290.52
591.35	46679.64
591.51	46845.82
591.67	46454.95
591.83	46621.13
591.99	46417.50
592.15	46335.59
592.31	46747.52
592.46	46726.46
592.62	46309.84
592.78	46742.84
592.94	46351.97
593.10	46609.43
593.26	46583.68
593.41	46398.78
593.57	46564.96
593.73	46366.01
593.89	46469.00
594.05	46808.37
594.20	46471.34
594.36	46604.75
594.52	46501.76
594.68	47136.05
594.84	46667.94
594.99	46036.00
595.15	46342.61
595.31	46871.57
595.47	46387.08
595.62	46480.70
595.78	46789.65
595.94	46738.16
596.10	46560.28
596.25	46511.13
596.41	46705.39
596.57	46312.18
596.73	46234.94
596.88	46824.76
597.04	46703.05
597.20	46759.22
597.36	46464.32
597.51	46827.10
597.67	46075.79
597.83	46438.57
597.99	47079.88
598.14	46494.74
598.30	46677.30
598.46	46202.18
598.61	46857.52
598.77	46232.60
598.93	46843.48
599.09	46370.69
599.24	47164.14
599.40	47058.81
599.56	46497.08
599.71	46625.81
599.87	46646.88
600.03	46323.88
600.18	46410.48
600.34	46536.87
600.50	46504.10
600.65	46384.74
600.81	46831.78
600.97	46534.53
601.12	47112.64
601.28	46302.82
601.44	46267.71
601.59	46508.79
601.75	46103.87
601.91	46171.75
602.06	46181.11
602.22	46478.36
602.37	46471.34
602.53	46417.50
602.69	46810.71
602.84	46742.84
603.00	46646.88
603.16	46719.43
603.31	46745.18
603.47	46806.03
603.62	46284.09
603.78	46445.59
603.94	46927.74
604.09	46740.50
604.25	46731.14
604.40	45986.85
604.56	46244.30
604.71	46904.34
604.87	46459.63
605.03	46628.15
605.18	46061.74
605.34	46501.76
605.49	46270.05
605.65	46717.09
605.80	46361.33
605.96	46309.84
606.12	46443.25
606.27	46431.55
606.43	46267.71
606.58	46527.51
606.74	46438.57
606.89	46256.01
607.05	45911.95
607.20	46120.26
607.36	46377.72
607.51	46389.42
607.67	46347.29
607.82	46536.87
607.98	46195.15
608.13	46092.17
608.29	46197.49
608.44	45792.58
608.60	45670.87
608.75	45687.26
608.91	45694.28
609.06	45867.48
609.22	46436.23
609.37	45621.72
609.53	46700.71
609.68	46211.54
609.84	46330.90
609.99	46057.06
610.15	46199.83
610.30	46007.91
610.46	45820.67
610.61	45879.18
610.76	45972.80
610.92	46052.38
611.07	45666.19
611.23	45701.30
611.38	46092.17
611.54	45844.07
611.69	45698.96
611.84	45516.40
612.00	45560.87
612.15	45750.45
612.31	45961.10
612.46	45560.87
612.62	45933.01
612.77	45357.24
612.92	45397.03
613.08	45462.57
613.23	45373.63
613.39	45139.57
613.54	44917.22
613.69	45291.71
613.85	44872.75
614.00	45521.08
614.15	45713.00
614.31	45256.60
614.46	46260.69
614.62	45504.70
614.77	45544.48
614.92	45397.03
615.08	45385.33
615.23	44910.20
615.38	44891.48
615.54	44418.69
615.69	44598.91
615.84	45132.55
616.00	45233.19
616.15	45270.64
616.30	45331.50
616.46	44968.71
616.61	44973.39
616.76	45027.23
616.92	44830.62
617.07	45258.94
617.22	45153.62
617.37	44467.84
617.53	45160.64
617.68	45151.27
617.83	44959.35
617.99	44907.86
618.14	44882.11
618.29	44226.76
618.45	44112.08
618.60	44683.17
618.75	44821.26
618.90	44285.28
619.06	44582.52
619.21	44641.04
619.36	44701.89
619.51	44318.04
619.67	44432.73
619.82	44608.27
619.97	44690.19
620.12	44406.98
620.28	43845.26
620.43	44650.40
620.58	44552.10
620.73	44446.77
620.89	44163.57
621.04	44266.55
621.19	44690.19
621.34	44219.74
621.49	44598.91
621.65	44247.83
621.80	44446.77
621.95	44194.00
622.10	43936.54
622.25	43828.87
622.41	44397.62
622.56	44102.71
622.71	44165.91
622.86	44083.99
623.01	43789.08
623.16	44016.11
623.32	43772.70
623.47	43821.85
623.62	44002.07
623.77	43491.83
623.92	44404.64
624.07	44133.14
624.23	43810.15
624.38	43480.13
624.53	43997.39
624.68	43601.84
624.83	44191.65
624.98	43248.42
625.13	43196.93
625.29	43707.16
625.44	43475.45
625.59	43414.60
625.74	43180.54
625.89	43367.79
626.04	43194.59
626.19	43194.59
626.34	43779.72
626.49	43157.14
626.65	43288.21
626.80	43496.52
626.95	42953.51
627.10	43187.56
627.25	43522.26
627.40	43040.11
627.55	42848.19
627.70	42527.53
627.85	43112.67
628.00	43051.81
628.15	43173.52
628.30	42665.63
628.45	43248.42
628.60	43166.50
628.76	42829.46
628.91	42724.14
629.06	42960.53
629.21	42747.54
629.36	42511.15
629.51	43028.41
629.66	42494.77
629.81	42728.82
629.96	42244.33
630.11	42459.66
630.26	42925.42
630.41	42763.93
630.56	42564.98
630.71	42433.91
630.86	42717.12
631.01	42667.97
631.16	42131.98
631.31	42230.29
631.46	41968.15
631.61	41794.95
631.76	42642.22
631.91	42660.94
632.06	42101.56
632.21	42429.23
632.36	42902.02
632.51	42019.64
632.66	42115.60
632.81	41968.15
632.96	42021.98
633.10	42061.77
633.25	42417.53
633.40	42199.86
633.55	42401.14
633.70	42424.55
633.85	42043.04
634.00	42036.02
634.15	42349.65
634.30	41652.17
634.45	41731.75
634.60	41783.24
634.75	41282.37
634.90	41659.20
635.05	41464.93
635.19	41963.46
635.34	41813.67
635.49	41813.67
635.64	41612.38
635.79	41631.11
635.94	41457.91
636.09	41703.67
636.24	41038.95
636.39	41315.14
636.53	41181.73
636.68	41340.88
636.83	41064.70
636.98	41345.56
637.13	41413.44
637.28	41443.87
637.43	41888.57
637.57	41397.06
637.72	41242.58
637.87	40989.80
638.02	41464.93
638.17	41308.11
638.32	41134.92
638.46	40928.95
638.61	41233.22
638.76	40643.40
638.91	41184.07
639.06	41322.16
639.20	41397.06
639.35	41399.40
639.50	41120.87
639.65	41118.53
639.80	40662.13
639.94	40912.56
640.09	40711.28
640.24	40694.89
640.39	40538.08
640.54	40790.86
640.68	40589.57
640.83	40582.55
640.98	40594.25
641.13	40629.36
641.27	40481.91
641.42	40205.72
641.57	40219.77
641.72	40505.31
641.86	40194.02
642.01	40308.71
642.16	40212.74
642.31	39915.50
642.45	40432.75
642.60	40275.94
642.75	40425.73
642.90	40437.44
643.04	40203.38
643.19	39981.03
643.34	39763.36
643.48	39988.05
643.63	39983.37
643.78	40313.39
643.93	40025.50
644.07	40133.17
644.22	39686.12
644.37	39887.41
644.51	40168.27
644.66	39941.24
644.81	39873.37
644.95	39756.34
645.10	40161.25
645.25	39859.32
645.39	40002.10
645.54	39679.10
645.69	39746.98
645.83	39810.17
645.98	39669.74
646.13	39541.01
646.27	40495.95
646.42	39665.06
646.57	39187.59
646.71	39564.42
646.86	40037.20
647.00	38876.30
647.15	39583.14
647.30	39749.32
647.44	39580.80
647.59	39428.66
647.74	39531.65
647.88	38864.60
648.03	39360.79
648.17	39519.95
648.32	38712.46
648.47	39161.84
648.61	38794.38
648.76	39559.73
648.90	39161.84
649.05	38873.96
649.20	39290.57
649.34	39655.70
649.49	38455.00
649.63	38958.22
649.78	38878.64
649.92	38754.59
650.07	39407.60
650.21	38808.42
650.36	39131.42
650.51	38932.47
650.65	39309.30
650.80	39536.33
650.94	39714.21
651.09	39122.05
651.23	38813.10
651.38	38660.97
651.52	38611.82
651.67	38515.86
651.81	38803.74
651.96	38799.06
652.10	38518.20
652.25	38724.16
652.39	38796.72
652.54	38939.49
652.68	38515.86
652.83	38263.08
652.97	38738.21
653.12	38455.00
653.26	38614.16
653.41	38120.31
653.55	38749.91
653.70	38534.58
653.84	38480.75
653.99	38230.31
654.13	38225.63
654.27	38316.91
654.42	38066.47
654.56	38536.92
654.71	37937.74
654.85	37949.45
655.00	38040.73
655.14	37998.60
655.29	37743.48
655.43	37890.93
655.57	37436.87
655.72	37521.13
655.86	37699.01
656.01	37347.93
656.15	37125.58
656.30	37071.75
656.44	37584.32
656.58	37652.20
656.73	37743.48
656.87	37139.62
657.01	37020.25
657.16	37244.94
657.30	36872.80
657.45	37500.06
657.59	36840.03
657.73	36985.15
657.88	37598.37
658.02	37256.65
658.16	37677.94
658.31	37560.92
658.45	37439.21
658.60	37347.93
658.74	37413.46
658.88	37193.45
659.03	37219.20
659.17	37156.00
659.31	36680.88
659.46	36830.67
659.60	37092.81
659.74	36987.49
659.89	36964.08
660.03	36603.64
660.17	37240.26
660.32	36910.25
660.46	36615.34
660.60	36774.50
660.74	36411.71
660.89	36601.30
661.03	36708.96
661.17	36723.01
661.32	36133.19
661.46	36254.90
661.60	36133.19
661.74	36306.39
661.89	36182.34
662.03	36458.52
662.17	36180.00
662.31	36343.84
662.46	36678.54
662.60	36353.20
662.74	36591.94
662.88	35810.20
663.03	35835.94
663.17	36257.24
663.31	35665.08
663.45	35730.62
663.60	35770.41
663.74	35751.68
663.88	35461.46
664.02	35079.95
664.17	35438.05
664.31	34691.42
664.45	35096.33
664.59	35227.40
664.73	35161.87
664.88	35047.18
665.02	35033.14
665.16	35358.47
665.30	34642.27
665.44	34810.79
665.59	35005.05
665.73	35175.91
665.87	34576.73
666.01	34885.68
666.15	34848.24
666.29	34899.73
666.44	34866.96
666.58	34986.33
666.72	34394.17
666.86	34541.63
667.00	34623.54
667.14	34398.85
667.28	34714.83
667.43	34040.75
667.57	34677.38
667.71	34588.44
667.85	34410.56
667.99	34185.86
668.13	34174.16
668.27	34459.71
668.41	34328.64
668.56	33809.04
668.70	33979.90
668.84	33338.59
668.98	33584.35
669.12	33560.94
669.26	33830.10
669.40	33163.05
669.54	33345.61
669.68	33565.62
669.82	33181.77
669.96	32814.31
670.10	33270.72
670.25	33329.23
670.39	33198.16
670.53	33006.23
670.67	32748.78
670.81	33364.34
670.95	33195.82
671.09	32713.67
671.23	32624.73
671.37	32811.97
671.51	32570.90
671.65	32601.32
671.79	32594.30
671.93	31864.05
672.07	32484.30
672.21	32247.90
672.35	32699.62
672.49	32547.49
672.63	32304.07
672.77	32259.60
672.91	31957.67
673.05	32421.10
673.19	31651.06
673.33	31971.72
673.47	31927.25
673.61	31632.34
673.75	31407.65
673.89	31185.30
674.03	31356.16
674.17	31517.65
674.31	31452.12
674.45	31351.48
674.59	31651.06
674.73	31658.09
674.87	31180.62
675.01	31019.12
675.15	30543.99
675.29	30820.17
675.43	30986.35
675.56	31419.35
675.70	30934.86
675.84	31140.83
675.98	29731.83
676.12	30836.56
676.26	30721.87
676.40	30515.90
676.54	30412.92
676.68	30342.70
676.82	29795.02
676.96	29593.73
677.10	29958.86
677.23	29764.59
677.37	29680.33
677.51	30026.73
677.65	29752.89
677.79	29113.92
677.93	29090.52
678.07	28912.64
678.21	29010.94
678.34	28788.59
678.48	28652.84
678.62	28917.32
678.76	28591.98
678.90	28425.81
679.04	28304.10
679.18	28678.58
679.31	28056.00
679.45	27962.38
679.59	28327.50
679.73	28271.33
679.87	28058.34
680.00	28212.82
680.14	28198.77
680.28	28039.62
680.42	27550.45
680.56	27587.89
680.70	27435.76
680.83	27615.98
680.97	27393.63
681.11	27557.47
681.25	27122.13
681.39	27527.04
681.52	27222.77
681.66	27185.32
681.80	26705.51
681.94	26913.82
682.07	26761.69
682.21	26644.66
682.35	26719.56
682.49	26604.87
682.62	26579.12
682.76	26256.13
682.90	26340.39
683.04	26295.92
683.17	26026.76
683.31	25663.97
683.45	25951.86
683.59	25748.23
683.72	25968.24
683.86	25745.89
684.00	25799.73
684.13	25345.66
684.27	25331.62
684.41	25022.67
684.55	25223.95
684.68	24940.75
684.82	25085.86
684.96	25158.42
685.09	24739.46
685.23	24678.61
685.37	24643.50
685.50	24795.64
685.64	24683.29
685.78	24507.75
685.91	24540.52
686.05	24142.63
686.19	23896.87
686.32	24025.60
686.46	23903.89
686.60	23304.71
686.73	23758.78
686.87	23094.07
687.01	23234.50
687.14	22963.00
687.28	23115.13
687.42	23349.18
687.55	23300.03
687.69	23253.22
687.82	23049.60
687.96	22803.84
688.10	22843.63
688.23	23009.81
688.37	22787.46
688.50	22590.85
688.64	22677.45
688.78	22286.58
688.91	22132.11
689.05	22089.98
689.18	21994.01
689.32	21743.58
689.46	22408.29
689.59	22352.12
689.73	22127.42
689.86	21935.50
690.00	21951.88
690.13	21701.45
690.27	21408.88
690.41	21348.03
690.54	21174.83
690.68	21055.46
690.81	21544.63
690.95	21348.03
691.08	21296.53
691.22	21221.64
691.35	21116.31
691.49	21137.38
691.62	20964.18
691.76	21310.58
691.89	20828.43
692.03	20746.51
692.16	20875.24
692.30	20503.09
692.43	20442.24
692.57	20137.97
692.70	20194.14
692.84	19700.29
692.97	19852.42
693.11	20009.24
693.24	19726.04
693.38	19700.29
693.51	19763.48
693.65	19829.02
693.78	19220.48
693.92	19630.07
694.05	19545.81
694.19	19522.41
694.32	19709.65
694.45	19414.74
694.59	19171.33
694.72	18934.93
694.86	18743.01
694.99	18792.16
695.13	18885.78
695.26	18757.05
695.39	18703.22
695.53	18771.10
695.66	18911.53
695.80	18810.89
695.93	18651.73
696.07	18583.85
696.20	18403.63
696.33	18478.53
696.47	18097.02
696.60	17895.74
696.73	17860.63
696.87	18284.26
697.00	17785.73
697.14	17556.36
697.27	17518.91
697.40	17394.86
697.54	17525.93
697.67	17324.65
697.80	17266.13
697.94	17170.17
698.07	17352.73
698.21	17146.76
698.34	17252.09
698.47	17301.24
698.61	16863.56
698.74	16805.05
698.87	16940.80
699.01	16762.92
699.14	16535.88
699.27	16390.77
699.40	16374.39
699.54	16350.98
699.67	16229.27
699.80	16205.87
699.94	16257.36
700.07	16030.33
700.20	16297.15
700.34	15995.22
700.47	15878.19
700.60	15807.98
700.73	16201.19
700.87	15599.67
701.00	15634.78
701.13	15400.72
701.26	15653.50
701.40	15538.82
701.53	15243.91
701.66	15178.37
701.79	15176.03
701.93	15049.64
702.06	15115.18
702.19	14937.30
702.32	14705.59
702.46	14911.55
702.59	14946.66
702.72	14759.42
702.85	14862.40
702.99	14724.31
703.12	14644.73
703.25	14551.11
703.38	14445.79
703.51	14513.66
703.65	14295.99
703.78	14171.94
703.91	13774.05
704.04	14221.10
704.17	14029.17
704.31	14160.24
704.44	13764.69
704.57	13769.37
704.70	13802.14
704.83	13713.20
704.96	13640.64
705.10	13628.94
705.23	13437.02
>>>>>End Processed Spectral Data<<<<<
