SpectraSuite Data File
++++++++++++++++++++++++++++++++++++
Date: Fri Oct 25 11:33:57 EDT 2013
User: price-jones
Dark Spectrum Present: No
Reference Spectrum Present: No
Number of Sampled Component Spectra: 1
Spectrometers: USB2+H05261
Integration Time (usec): 100000 (USB2+H05261)
Spectra Averaged: 1 (USB2+H05261)
Boxcar Smoothing: 0 (USB2+H05261)
Correct for Electrical Dark: No (USB2+H05261)
Strobe/Lamp Enabled: No (USB2+H05261)
Correct for Detector Non-linearity: No (USB2+H05261)
Correct for Stray Light: No (USB2+H05261)
Number of Pixels in Processed Spectrum: 2048
>>>>>Begin Processed Spectral Data<<<<<
365.73	264.48
365.92	264.48
366.12	264.48
366.32	182.56
366.52	194.26
366.72	196.60
366.91	191.92
367.11	161.50
367.31	191.92
367.51	152.13
367.70	128.73
367.90	222.35
368.10	191.92
368.30	210.65
368.49	191.92
368.69	262.14
368.89	191.92
369.09	201.29
369.28	205.97
369.48	175.54
369.68	210.65
369.87	203.63
370.07	224.69
370.27	283.20
370.47	386.19
370.66	451.72
370.86	425.98
371.06	557.05
371.25	550.03
371.45	547.69
371.65	664.71
371.84	538.32
372.04	538.32
372.24	571.09
372.44	524.28
372.63	510.24
372.83	653.01
373.03	554.71
373.22	566.41
373.42	568.75
373.62	624.92
373.81	599.18
374.01	676.41
374.21	610.88
374.40	620.24
374.60	704.50
374.79	622.58
374.99	664.71
375.19	678.76
375.38	608.54
375.58	662.37
375.78	748.97
375.97	660.03
376.17	741.95
376.37	678.76
376.56	631.94
376.76	662.37
376.95	615.56
377.15	788.76
377.35	627.26
377.54	751.31
377.74	641.31
377.93	683.44
378.13	683.44
378.33	669.39
378.52	727.91
378.72	737.27
378.91	660.03
379.11	676.41
379.31	716.20
379.50	683.44
379.70	713.86
379.89	779.40
380.09	690.46
380.28	685.78
380.48	730.25
380.68	760.67
380.87	709.18
381.07	816.85
381.26	744.29
381.46	781.74
381.65	779.40
381.85	727.91
382.04	716.20
382.24	795.78
382.43	770.04
382.63	812.17
382.83	725.57
383.02	833.23
383.22	849.61
383.41	784.08
383.61	814.51
383.80	814.51
384.00	896.43
384.19	798.12
384.39	786.42
384.58	777.06
384.78	807.48
384.97	793.44
385.17	814.51
385.36	833.23
385.56	826.21
385.75	774.72
385.95	786.42
386.14	858.98
386.34	753.65
386.53	812.17
386.72	847.27
386.92	882.38
387.11	894.08
387.31	957.28
387.50	901.11
387.70	842.59
387.89	901.11
388.09	891.74
388.28	882.38
388.48	875.36
388.67	964.30
388.86	912.81
389.06	929.19
389.25	983.02
389.45	919.83
389.64	1015.79
389.84	990.05
390.03	931.53
390.22	976.00
390.42	1018.13
390.61	945.58
390.81	926.85
391.00	1036.86
391.19	1008.77
391.39	976.00
391.58	992.39
391.78	1015.79
391.97	926.85
392.16	1006.43
392.36	1123.46
392.55	1025.15
392.75	1032.18
392.94	1039.20
393.13	1039.20
393.33	999.41
393.52	1013.45
393.71	1095.37
393.91	1102.39
394.10	1027.50
394.29	1041.54
394.49	1067.28
394.68	1043.88
394.88	1114.10
395.07	1071.97
395.26	1130.48
395.46	1174.95
395.65	1184.31
395.84	1191.33
396.04	1170.27
396.23	1107.07
396.42	1149.20
396.62	1294.32
396.81	1179.63
397.00	1146.86
397.19	1160.91
397.39	1289.64
397.58	1240.48
397.77	1252.19
397.97	1245.16
398.16	1198.35
398.35	1299.00
398.55	1315.38
398.74	1364.53
398.93	1345.81
399.12	1284.95
399.32	1268.57
399.51	1320.06
399.70	1380.92
399.90	1345.81
400.09	1399.64
400.28	1406.66
400.47	1359.85
400.67	1373.89
400.86	1420.71
401.05	1460.49
401.24	1416.02
401.44	1352.83
401.63	1420.71
401.82	1416.02
402.01	1411.34
402.21	1404.32
402.40	1411.34
402.59	1467.52
402.78	1490.92
402.97	1612.63
403.17	1605.61
403.36	1472.20
403.55	1474.54
403.74	1682.85
403.93	1509.65
404.13	1563.48
404.32	1652.42
404.51	1469.86
404.70	1586.88
404.89	1589.22
405.09	1526.03
405.28	1717.95
405.47	1563.48
405.66	1664.12
405.85	1685.19
406.05	1720.29
406.24	1717.95
406.43	1741.36
406.62	1767.10
406.81	1860.73
407.00	1771.79
407.20	1750.72
407.39	1769.44
407.58	1860.73
407.77	1804.55
407.96	1799.87
408.15	1823.28
408.34	1858.39
408.54	1954.35
408.73	1912.22
408.92	1902.86
409.11	2022.22
409.30	1916.90
409.49	1959.03
409.68	2066.69
409.87	2078.40
410.07	2106.48
410.26	2050.31
410.45	1947.33
410.64	1998.82
410.83	2085.42
411.02	2054.99
411.21	2113.50
411.40	2043.29
411.59	2062.01
411.78	2141.59
411.98	2162.66
412.17	2214.15
412.36	2190.74
412.55	2246.91
412.74	2282.02
412.93	2286.70
413.12	2317.13
413.31	2354.58
413.50	2380.32
413.69	2438.84
413.88	2438.84
414.07	2509.05
414.26	2436.50
414.45	2553.52
414.64	2490.33
414.83	2565.23
415.02	2544.16
415.22	2567.57
415.41	2712.68
415.60	2544.16
415.79	2633.10
415.98	2700.98
416.17	2747.79
416.36	2752.47
416.55	2696.30
416.74	2789.92
416.93	2768.85
417.12	2801.62
417.31	2850.77
417.50	2897.58
417.69	2899.92
417.88	2911.63
418.07	2991.20
418.26	2925.67
418.45	2909.29
418.64	3045.04
418.83	3021.63
419.02	3112.91
419.21	3007.59
419.39	3176.11
419.58	3101.21
419.77	3040.36
419.96	3192.49
420.15	3150.36
420.34	3199.51
420.53	3126.96
420.72	3143.34
420.91	3321.22
421.10	3220.58
421.29	3164.40
421.48	3166.74
421.67	3267.39
421.86	3363.35
422.05	3279.09
422.24	3321.22
422.43	3192.49
422.61	3353.99
422.80	3419.52
422.99	3485.06
423.18	3419.52
423.37	3356.33
423.56	3412.50
423.75	3389.10
423.94	3332.92
424.13	3115.25
424.32	3236.96
424.50	3368.03
424.69	3459.31
424.88	3515.48
425.07	3370.37
425.26	3332.92
425.45	3384.41
425.64	3487.40
425.83	3531.87
426.01	3545.91
426.20	3403.14
426.39	3440.59
426.58	3435.91
426.77	3342.28
426.96	3578.68
427.15	3574.00
427.33	3494.42
427.52	3428.88
427.71	3475.70
427.90	3658.26
428.09	3658.26
428.28	3688.68
428.46	3543.57
428.65	3501.44
428.84	3852.52
429.03	3770.60
429.22	3719.11
429.40	3646.55
429.59	3733.15
429.78	3515.48
429.97	3641.87
430.16	3679.32
430.34	3852.52
430.53	3915.72
430.72	3702.73
430.91	3911.04
431.10	3777.62
431.28	3854.86
431.47	3962.53
431.66	3929.76
431.85	3967.21
432.03	3971.89
432.22	3962.53
432.41	4126.36
432.60	3932.10
432.79	4016.36
432.97	4219.99
433.16	4102.96
433.35	4077.21
433.54	4135.73
433.72	4074.87
433.91	4114.66
434.10	4173.18
434.28	4173.18
434.47	4140.41
434.66	4079.55
434.85	4271.48
435.03	4311.27
435.22	4381.48
435.41	4411.91
435.59	4437.66
435.78	4468.08
435.97	4353.40
436.16	4294.88
436.34	4376.80
436.53	4344.03
436.72	4414.25
436.90	4512.55
437.09	4468.08
437.28	4451.70
437.46	4475.10
437.65	4557.02
437.84	4587.45
438.02	4660.01
438.21	4547.66
438.40	4575.75
438.58	4596.81
438.77	4863.63
438.96	4758.31
439.14	4720.86
439.33	4842.57
439.52	4933.85
439.70	4882.36
439.89	4985.34
440.08	4863.63
440.26	4865.97
440.45	4868.31
440.63	5071.94
440.82	5231.10
441.01	5203.01
441.19	5104.71
441.38	5203.01
441.57	5245.14
441.75	5252.16
441.94	5322.38
442.12	5423.02
442.31	5434.72
442.50	5497.92
442.68	5226.42
442.87	5502.60
443.05	5277.91
443.24	5476.85
443.43	5535.37
443.61	5441.75
443.80	5589.20
443.98	5462.81
444.17	5191.31
444.35	5486.22
444.54	5781.12
444.73	5523.66
444.91	5479.19
445.10	5586.86
445.28	5577.50
445.47	5596.22
445.65	5624.31
445.84	5680.48
446.02	5666.44
446.21	5757.72
446.39	5537.71
446.58	5863.04
446.77	5636.01
446.95	5577.50
447.14	5540.05
447.32	5750.70
447.51	5682.82
447.69	5678.14
447.88	5778.78
448.06	5734.31
448.25	5806.87
448.43	5844.32
448.62	5729.63
448.80	5713.25
448.99	5804.53
449.17	5729.63
449.36	5827.93
449.54	5968.37
449.73	6061.99
449.91	5905.17
450.10	6038.58
450.28	6134.54
450.46	6019.86
450.65	5893.47
450.83	5884.11
451.02	6040.92
451.20	6073.69
451.39	6085.39
451.57	6139.23
451.76	6169.65
451.94	6197.74
452.13	6321.79
452.31	6214.12
452.49	6097.10
452.68	6207.10
452.86	6342.85
453.05	6312.42
453.23	6427.11
453.42	6249.23
453.60	6237.53
453.78	6256.25
453.97	6242.21
454.15	6239.87
454.34	6319.45
454.52	6532.44
454.70	6516.05
454.89	6492.65
455.07	6651.80
455.26	6303.06
455.44	6722.02
455.62	6668.19
455.81	6619.04
455.99	6780.53
456.17	6722.02
456.36	6551.16
456.54	6703.29
456.73	6874.15
456.91	6902.24
457.09	6986.50
457.28	7190.13
457.46	6918.62
457.64	7108.21
457.83	6956.07
458.01	6846.07
458.19	7150.34
458.38	6927.99
458.56	7164.38
458.74	7108.21
458.93	7026.29
459.11	7108.21
459.29	7138.63
459.48	7183.10
459.66	7152.68
459.84	7272.04
460.03	7332.90
460.21	7269.70
460.39	7187.79
460.57	7300.13
460.76	7293.11
460.94	7321.20
461.12	7569.29
461.31	7410.14
461.49	7311.83
461.67	7510.78
461.85	7655.89
462.04	7522.48
462.22	7730.79
462.40	7730.79
462.59	7548.23
462.77	7681.64
462.95	7765.90
463.13	7513.12
463.32	7676.96
463.50	7613.76
463.68	7878.24
463.86	7894.63
464.05	7868.88
464.23	7627.81
464.41	7815.05
464.59	7801.01
464.78	7889.95
464.96	7838.45
465.14	7765.90
465.32	7990.59
465.50	7976.55
465.69	8037.40
465.87	7974.21
466.05	8152.09
466.23	8025.70
466.41	8009.31
466.60	8264.43
466.78	8077.19
466.96	8058.46
467.14	8156.77
467.32	7957.82
467.51	8292.52
467.69	7957.82
467.87	8121.66
468.05	8250.39
468.23	8290.18
468.41	8318.26
468.60	8294.86
468.78	8472.74
468.96	8390.82
469.14	8430.61
469.32	8332.31
469.50	8351.03
469.69	8531.25
469.87	8664.66
470.05	8613.17
470.23	8477.42
470.41	8620.19
470.59	8837.86
470.77	8814.46
470.95	8692.75
471.14	8894.04
471.32	8496.14
471.50	8964.25
471.68	8994.68
471.86	9118.73
472.04	9137.45
472.22	8978.30
472.40	9022.77
472.58	8950.21
472.77	9076.60
472.95	9247.46
473.13	9514.28
473.31	9469.81
473.49	9226.39
473.67	9507.26
473.85	9380.87
474.03	9755.35
474.21	9668.75
474.39	9516.62
474.57	9675.77
474.75	9848.97
474.93	9738.97
475.12	9865.36
475.30	10026.86
475.48	9863.02
475.66	10080.69
475.84	9809.19
476.02	10054.94
476.20	10186.01
476.38	10097.07
476.56	10527.73
476.74	10445.81
476.92	10443.47
477.10	10303.04
477.28	10621.35
477.46	10581.56
477.64	10841.36
477.82	10871.79
478.00	11084.78
478.18	10899.87
478.36	11257.98
478.54	11297.77
478.72	11260.32
478.90	11410.11
479.08	11344.58
479.26	11667.57
479.44	11651.19
479.62	11702.68
479.80	11712.04
479.98	11782.26
480.16	12166.10
480.34	11861.84
480.52	12161.42
480.70	12025.67
480.88	11981.20
481.06	12285.47
481.24	12109.93
481.41	12484.42
481.59	12594.42
481.77	12566.34
481.95	12697.41
482.13	13097.64
482.31	12847.20
482.49	13006.36
482.67	13219.35
482.85	13149.13
483.03	13568.09
483.21	13568.09
483.39	13745.97
483.57	13624.26
483.74	13671.07
483.92	13954.27
484.10	13825.54
484.28	14291.31
484.46	14373.23
484.64	14274.93
484.82	14244.50
485.00	14548.77
485.18	14714.95
485.35	14951.34
485.53	14836.66
485.71	14988.79
485.89	15176.03
486.07	15215.82
486.25	15091.77
486.43	15499.03
486.61	15410.09
486.78	15489.67
486.96	15906.28
487.14	15707.34
487.32	16170.76
487.50	16325.24
487.68	16056.08
487.85	16681.00
488.03	16704.40
488.21	16645.89
488.39	16783.98
488.57	17006.33
488.75	16947.82
488.92	17039.10
489.10	17385.50
489.28	17135.06
489.46	17362.09
489.64	17626.57
489.81	18134.47
489.99	17977.65
490.17	18097.02
490.35	18455.12
490.53	18235.11
490.70	18689.18
490.88	18340.44
491.06	18567.47
491.24	18572.15
491.41	18956.00
491.59	18808.54
491.77	18993.45
491.95	18771.10
492.13	19391.34
492.30	19438.15
492.48	19456.87
492.66	19405.38
492.84	19686.25
493.01	19754.12
493.19	20276.06
493.37	19997.54
493.54	20313.51
493.72	20449.26
493.90	20297.13
494.08	20369.68
494.25	20945.45
494.43	20617.78
494.61	20842.47
494.79	20599.05
494.96	20779.28
495.14	21055.46
495.32	21600.80
495.49	21453.35
495.67	21781.03
495.85	21666.34
496.02	21701.45
496.20	22244.45
496.38	22169.55
496.55	22235.09
496.73	22452.76
496.91	22764.05
497.09	22845.97
497.26	22644.68
497.44	22684.47
497.62	23250.88
497.79	23075.34
497.97	22698.52
498.14	23438.12
498.32	23414.72
498.50	23370.25
498.67	23604.30
498.85	23428.76
499.03	24058.37
499.20	24065.39
499.38	23756.44
499.56	24051.34
499.73	24093.47
499.91	24393.06
500.08	24428.17
500.26	24194.12
500.44	24484.34
500.61	24744.14
500.79	24224.54
500.97	24552.22
501.14	24856.49
501.32	25130.33
501.49	25338.64
501.67	25125.65
501.84	25223.95
502.02	25453.33
502.20	25493.12
502.37	25329.28
502.55	25172.46
502.72	25591.42
502.90	25624.18
503.07	25336.30
503.25	25919.09
503.43	25912.07
503.60	25972.92
503.78	25940.16
503.95	25949.52
504.13	26431.67
504.30	26558.06
504.48	26471.46
504.65	26560.40
504.83	26850.63
505.01	26787.43
505.18	26787.43
505.36	27119.79
505.53	27063.61
505.71	27133.83
505.88	27054.25
506.06	26930.20
506.23	27557.47
506.41	27072.98
506.58	27482.57
506.76	27405.33
506.93	27695.56
507.11	27461.51
507.28	27620.66
507.46	27896.85
507.63	28233.88
507.81	28353.25
507.98	28161.33
508.16	28093.45
508.33	28137.92
508.50	28306.44
508.68	28610.71
508.85	28657.52
509.03	28556.88
509.20	28741.78
509.38	28985.19
509.55	29092.86
509.73	29134.99
509.90	29174.78
510.08	29490.75
510.25	29411.17
510.42	29603.10
510.60	29584.37
510.77	29214.57
510.95	30033.75
511.12	29546.92
511.30	29759.91
511.47	30206.95
511.64	29853.53
511.82	30160.14
511.99	29656.93
512.17	29979.92
512.34	30515.90
512.51	30506.54
512.69	30426.96
512.86	30295.89
513.04	30752.30
513.21	30153.12
513.38	30733.57
513.56	30630.59
513.73	30518.25
513.90	30831.88
514.08	30665.70
514.25	31082.31
514.43	31704.90
514.60	31140.83
514.77	30988.69
514.95	31367.86
515.12	31239.13
515.29	31197.00
515.47	31501.27
515.64	31777.45
515.81	31536.38
515.99	32072.36
516.16	32027.89
516.33	31882.78
516.51	32224.50
516.68	32203.43
516.85	32421.10
517.03	32268.97
517.20	32467.91
517.37	32498.34
517.54	32481.95
517.72	32606.00
517.89	32723.03
518.06	32730.05
518.24	32449.19
518.41	32170.66
518.58	32514.72
518.75	32500.68
518.93	32929.00
519.10	33003.89
519.27	33097.52
519.45	33186.46
519.62	32872.82
519.79	33326.89
519.96	33593.71
520.14	33317.53
520.31	33160.71
520.48	33235.61
520.65	33392.42
520.83	33996.28
521.00	34150.76
521.17	33827.76
521.34	33937.77
521.52	33986.92
521.69	34323.96
521.86	34218.63
522.03	34291.19
522.20	34504.18
522.38	34469.07
522.55	34609.50
522.72	35033.14
522.89	34731.21
523.07	35416.99
523.24	34637.59
523.41	34862.28
523.58	34892.71
523.75	35786.79
523.92	34960.58
524.10	35030.80
524.27	34951.22
524.44	35316.34
524.61	35295.28
524.78	35477.84
524.96	35461.46
525.13	35494.22
525.30	36194.04
525.47	35943.61
525.64	35814.88
525.81	35854.67
525.98	35728.28
526.16	35915.52
526.33	35910.84
526.50	36128.51
526.67	35838.28
526.84	36257.24
527.01	36486.61
527.18	36666.83
527.36	36135.53
527.53	36875.14
527.70	36568.53
527.87	36301.71
528.04	36418.74
528.21	36741.73
528.38	36844.71
528.55	36968.76
528.72	36610.66
528.89	36877.48
529.07	36622.36
529.24	36898.55
529.41	37062.38
529.58	37027.28
529.75	36828.33
529.92	36978.12
530.09	36994.51
530.26	37200.47
530.43	37434.53
530.60	37139.62
530.77	37467.30
530.94	37764.54
531.11	37647.52
531.28	37572.62
531.46	37853.48
531.63	37921.36
531.80	37551.56
531.97	38087.54
532.14	37968.17
532.31	37902.64
532.48	37965.83
532.65	38522.88
532.82	37881.57
532.99	38164.78
533.16	38115.62
533.33	38473.73
533.50	38677.35
533.67	38183.50
533.84	38209.25
534.01	38625.86
534.18	38714.80
534.35	38918.43
534.52	38707.78
534.69	39103.33
534.86	38848.21
535.03	38916.09
535.20	39370.15
535.37	38675.01
535.54	39323.34
535.71	38951.20
535.88	38838.85
536.05	38653.95
536.22	39187.59
536.38	39313.98
536.55	39466.11
536.72	39665.06
536.89	39213.34
537.06	39704.85
537.23	39475.48
537.40	39295.25
537.57	39466.11
537.74	39367.81
537.91	39557.39
538.08	39641.65
538.25	39208.65
538.42	39208.65
538.59	39948.26
538.75	39651.02
538.92	39812.51
539.09	39838.26
539.26	40027.84
539.43	39995.07
539.60	40027.84
539.77	40388.28
539.94	40479.57
540.11	40217.43
540.28	39981.03
540.44	40561.48
540.61	40608.29
540.78	40231.47
540.95	40399.99
541.12	40367.22
541.29	40465.52
541.46	40531.06
541.62	40666.81
541.79	41244.92
541.96	40577.87
542.13	40624.68
542.30	40390.62
542.47	40830.65
542.63	40966.40
542.80	41137.26
542.97	41539.83
543.14	41546.85
543.31	41336.20
543.48	41163.00
543.64	41605.36
543.81	41748.14
543.98	41280.03
544.15	41558.55
544.32	41642.81
544.48	41991.55
544.65	41698.98
544.82	42085.17
544.99	41783.24
545.16	41736.43
545.32	41713.03
545.49	42120.28
545.66	42293.48
545.83	42321.57
546.00	42298.16
546.16	42323.91
546.33	42106.24
546.50	41666.22
546.67	42300.50
546.83	42129.64
547.00	42014.96
547.17	42052.41
547.34	42717.12
547.50	42651.58
547.67	42569.66
547.84	42192.84
548.00	42405.83
548.17	42553.28
548.34	43009.68
548.51	43005.00
548.67	42588.39
548.84	42855.21
549.01	43016.71
549.18	42721.80
549.34	42761.59
549.51	43203.95
549.68	43276.51
549.84	43402.89
550.01	43281.19
550.18	42693.71
550.34	43487.15
550.51	43332.68
550.68	43325.66
550.84	42522.85
551.01	43311.61
551.18	43405.23
551.34	43075.22
551.51	43629.93
551.68	43192.25
551.84	43276.51
552.01	43332.68
552.18	43068.20
552.34	43330.34
552.51	43463.75
552.68	43442.68
552.84	43442.68
553.01	43374.81
553.18	43683.76
553.34	44060.58
553.51	43358.42
553.67	43552.69
553.84	44083.99
554.01	43676.74
554.17	43796.10
554.34	44208.04
554.51	43639.29
554.67	44322.72
554.84	44105.06
555.00	44196.34
555.17	43945.90
555.33	44343.79
555.50	44390.60
555.67	43981.01
555.83	43934.20
556.00	44231.44
556.16	45038.93
556.33	44367.20
556.50	44226.76
556.66	44254.85
556.83	44332.09
556.99	44678.49
557.16	44456.14
557.32	44807.22
557.49	44676.15
557.65	44402.30
557.82	44603.59
557.98	44341.45
558.15	44961.69
558.32	44783.81
558.48	44439.75
558.65	44650.40
558.81	44949.99
558.98	44664.44
559.14	44891.48
559.31	45132.55
559.47	44505.29
559.64	44893.82
559.80	45254.26
559.97	45177.02
560.13	44683.17
560.30	44460.82
560.46	45350.22
560.63	45099.78
560.79	45151.27
560.96	45291.71
561.12	45385.33
561.29	45422.78
561.45	45174.68
561.61	45490.65
561.78	45083.40
561.94	45310.43
562.11	45310.43
562.27	45052.97
562.44	45607.68
562.60	45532.78
562.77	45544.48
562.93	45219.15
563.10	45755.13
563.26	45717.68
563.42	45579.59
563.59	45284.68
563.75	45242.56
563.92	45198.09
564.08	45216.81
564.24	45223.83
564.41	45771.52
564.57	45605.34
564.74	46110.89
564.90	45551.51
565.07	45457.88
565.23	45551.51
565.39	45797.26
565.56	45659.17
565.72	45469.59
565.88	45551.51
566.05	45572.57
566.21	46342.61
566.38	45483.63
566.54	45741.09
566.70	45617.04
566.87	45886.20
567.03	45322.13
567.19	45963.44
567.36	45860.46
567.52	45790.24
567.68	45818.33
567.85	46131.96
568.01	46284.09
568.17	45610.02
568.34	45925.99
568.50	45741.09
568.66	45883.86
568.83	45944.72
568.99	45951.74
569.15	45954.08
569.32	45942.38
569.48	45886.20
569.64	46429.21
569.81	45956.42
569.97	46174.09
570.13	46309.84
570.30	46227.92
570.46	46117.92
570.62	45790.24
570.78	46351.97
570.95	46061.74
571.11	46295.80
571.27	45893.22
571.43	46410.48
571.60	45993.87
571.76	46143.66
571.92	46150.68
572.09	45797.26
572.25	46171.75
572.41	45918.97
572.57	46174.09
572.74	46529.85
572.90	46204.52
573.06	46199.83
573.22	46639.86
573.38	46342.61
573.55	46653.90
573.71	46635.17
573.87	46604.75
574.03	46532.19
574.20	46740.50
574.36	45738.75
574.52	46712.41
574.68	46101.53
574.84	46710.07
575.01	46777.95
575.17	46817.74
575.33	46726.46
575.49	46642.20
575.65	46541.55
575.82	46358.99
575.98	46312.18
576.14	46707.73
576.30	46700.71
576.46	46527.51
576.62	46426.87
576.79	46883.27
576.95	46197.49
577.11	46452.61
577.27	46770.93
577.43	46579.00
577.59	46567.30
577.75	46611.77
577.92	46457.29
578.08	46579.00
578.24	46801.35
578.40	46958.17
578.56	46511.13
578.72	46440.91
578.88	46726.46
579.04	46930.08
579.21	46466.66
579.37	46298.14
579.53	46555.60
579.69	46480.70
579.85	46494.74
580.01	46670.28
580.17	46672.62
580.33	47114.98
580.49	46864.55
580.65	46927.74
580.82	46845.82
580.98	46883.27
581.14	46274.73
581.30	46761.56
581.46	46569.64
581.62	46693.69
581.78	46780.29
581.94	47180.52
582.10	46754.54
582.26	47157.11
582.42	46642.20
582.58	46827.10
582.74	46492.40
582.90	46602.41
583.06	46597.73
583.22	46480.70
583.38	46967.53
583.54	47030.72
583.70	46831.78
583.86	46674.96
584.02	46614.11
584.18	47367.76
584.34	46997.96
584.50	46902.00
584.66	46976.89
584.82	46883.27
584.98	47288.18
585.14	47285.84
585.30	46946.47
585.46	47150.09
585.62	46539.21
585.78	46902.00
585.94	46316.86
586.10	46820.08
586.26	46576.66
586.42	46644.54
586.58	46897.31
586.74	46670.28
586.90	46651.56
587.06	46761.56
587.22	47007.32
587.38	47021.36
587.54	47456.70
587.70	47297.55
587.86	46927.74
588.02	47124.35
588.18	47096.26
588.34	46855.18
588.49	46726.46
588.65	46880.93
588.81	46969.87
588.97	46960.51
589.13	47016.68
589.29	47269.46
589.45	47217.97
589.61	47405.21
589.77	47274.14
589.93	46873.91
590.08	47339.68
590.24	47501.17
590.40	47246.05
590.56	47295.21
590.72	47281.16
590.88	47054.13
591.04	47182.86
591.20	47477.77
591.35	47337.33
591.51	47505.85
591.67	47320.95
591.83	47246.05
591.99	47653.31
592.15	47124.35
592.31	47480.11
592.46	47409.89
592.62	47428.62
592.78	47494.15
592.94	47555.00
593.10	47721.18
593.26	47767.99
593.41	47840.55
593.57	47730.54
593.73	47522.24
593.89	48002.05
594.05	47480.11
594.20	47669.69
594.36	47957.58
594.52	47878.00
594.68	47650.97
594.84	47545.64
594.99	48102.69
595.15	47487.13
595.31	47547.98
595.47	47374.78
595.62	47599.47
595.78	47634.58
595.94	47505.85
596.10	47540.96
596.25	48067.58
596.41	47779.70
596.57	47346.70
596.73	47484.79
596.88	47910.77
597.04	47777.36
597.20	47625.22
597.36	47374.78
597.51	47803.10
597.67	47435.64
597.83	47332.65
597.99	47931.83
598.14	47704.80
598.30	47863.96
598.46	47302.23
598.61	48086.31
598.77	47861.61
598.93	47803.10
599.09	47763.31
599.24	48020.77
599.40	47688.42
599.56	47742.25
599.71	48350.79
599.87	48051.20
600.03	48315.68
600.18	47863.96
600.34	47702.46
600.50	48023.11
600.65	47821.83
600.81	48154.18
600.97	48158.86
601.12	47899.06
601.28	48093.33
601.44	47749.27
601.59	47819.49
601.75	47941.19
601.91	48144.82
602.06	47580.75
602.22	48383.55
602.37	47660.33
602.53	47828.85
602.69	48004.39
602.84	47852.25
603.00	47473.09
603.16	48020.77
603.31	47868.64
603.47	48224.40
603.62	47789.06
603.78	47992.68
603.94	48114.39
604.09	48196.31
604.25	47639.26
604.40	47590.11
604.56	47711.82
604.71	48098.01
604.87	47323.29
605.03	47786.72
605.18	47730.54
605.34	47803.10
605.49	47571.39
605.65	47976.30
605.80	47707.14
605.96	47318.61
606.12	47746.93
606.27	47765.65
606.43	47604.16
606.58	47746.93
606.74	47880.34
606.89	47805.44
607.05	47711.82
607.20	47737.57
607.36	48039.50
607.51	47620.54
607.67	47496.49
607.82	47496.49
607.98	47414.57
608.13	47667.35
608.29	47468.40
608.44	47838.21
608.60	47143.07
608.75	47653.31
608.91	47662.67
609.06	47384.15
609.22	47793.74
609.37	47552.66
609.53	47988.00
609.68	47725.86
609.84	47381.80
609.99	47365.42
610.15	47332.65
610.30	47880.34
610.46	47454.36
610.61	47332.65
610.76	47414.57
610.92	47295.21
611.07	47379.46
611.23	47400.53
611.38	47356.06
611.54	47402.87
611.69	47388.83
611.84	47484.79
612.00	47636.92
612.15	46808.37
612.31	47515.22
612.46	47019.02
612.62	46777.95
612.77	47042.43
612.92	47145.41
613.08	47145.41
613.23	47133.71
613.39	47082.22
613.54	47475.43
613.69	47213.29
613.85	47246.05
614.00	47213.29
614.15	47058.81
614.31	46941.78
614.46	46866.89
614.62	46815.40
614.77	47105.62
614.92	46911.36
615.08	46801.35
615.23	46810.71
615.38	46960.51
615.54	46972.21
615.69	46990.94
615.84	47110.30
616.00	47327.97
616.15	47538.62
616.30	47112.64
616.46	46902.00
616.61	46927.74
616.76	46740.50
616.92	46890.29
617.07	47597.13
617.22	46862.21
617.37	46651.56
617.53	46525.17
617.68	46763.90
617.83	46784.97
617.99	46993.28
618.14	46859.87
618.29	46354.31
618.45	46452.61
618.60	46141.32
618.75	46410.48
618.90	46651.56
619.06	46646.88
619.21	46946.47
619.36	46850.50
619.51	46527.51
619.67	46344.95
619.82	46476.02
619.97	46429.21
620.12	46511.13
620.28	46857.52
620.43	46174.09
620.58	46789.65
620.73	46595.38
620.89	46326.22
621.04	46777.95
621.19	46602.41
621.34	46216.22
621.49	45991.53
621.65	46199.83
621.80	46621.13
621.95	46277.07
622.10	46438.57
622.25	46298.14
622.41	46457.29
622.56	46405.80
622.71	46185.79
622.86	46265.37
623.01	46501.76
623.16	45839.39
623.32	45811.31
623.47	46239.62
623.62	46305.16
623.77	45862.80
623.92	46211.54
624.07	45848.75
624.23	46431.55
624.38	46031.32
624.53	45907.27
624.68	45986.85
624.83	45542.14
624.98	45844.07
625.13	45619.38
625.29	45399.37
625.44	45935.35
625.59	45790.24
625.74	45741.09
625.89	45668.53
626.04	45469.59
626.19	45551.51
626.34	45635.77
626.49	45495.33
626.65	45067.02
626.80	45439.16
626.95	45043.61
627.10	45338.52
627.25	45478.95
627.40	45291.71
627.55	45380.65
627.70	45390.01
627.85	45965.78
628.00	45308.09
628.15	45303.41
628.30	44870.41
628.45	44952.33
628.60	44832.96
628.76	44975.73
628.91	45132.55
629.06	44699.55
629.21	45020.20
629.36	44765.09
629.51	44793.17
629.66	45170.00
629.81	44814.24
629.96	45219.15
630.11	45553.85
630.26	44762.75
630.41	44847.00
630.56	44538.05
630.71	44830.62
630.86	45078.72
631.01	44121.44
631.16	44582.52
631.31	44509.97
631.46	44638.70
631.61	45254.26
631.76	44697.21
631.91	44886.79
632.06	45184.04
632.21	45280.00
632.36	44861.05
632.51	44201.02
632.66	44868.07
632.81	44659.76
632.96	44521.67
633.10	44591.89
633.25	44669.12
633.40	44685.51
633.55	44858.71
633.70	44411.67
633.85	44091.01
634.00	44210.38
634.15	44165.91
634.30	44053.56
634.45	44252.51
634.60	43964.62
634.75	44362.51
634.90	44418.69
635.05	44369.54
635.19	43805.47
635.34	44158.89
635.49	44194.00
635.64	43672.06
635.79	44278.25
635.94	44091.01
636.09	44477.20
636.24	44016.11
636.39	44304.00
636.53	44172.93
636.68	43728.23
636.83	43695.46
636.98	43812.49
637.13	43697.80
637.28	43480.13
637.43	43615.88
637.57	43878.02
637.72	43662.69
637.87	43660.35
638.02	43835.89
638.17	43381.83
638.32	43856.96
638.46	43723.55
638.61	43384.17
638.76	43356.08
638.91	43749.29
639.06	43501.20
639.20	43360.76
639.35	43606.52
639.50	43185.22
639.65	44046.54
639.80	43484.81
639.94	43517.58
640.09	43445.02
640.24	43250.76
640.39	42993.30
640.54	43068.20
640.68	43494.18
640.83	43274.16
640.98	43089.26
641.13	43047.13
641.27	43674.40
641.42	43234.38
641.57	43295.23
641.72	42944.15
641.86	43047.13
642.01	42831.80
642.16	42557.96
642.31	42529.87
642.45	43225.01
642.60	42389.44
642.75	42658.60
642.90	43187.56
643.04	42967.55
643.19	43028.41
643.34	42721.80
643.48	42541.58
643.63	42836.48
643.78	42738.18
643.93	43618.22
644.07	43264.80
644.22	42906.70
644.37	42204.54
644.51	42469.02
644.66	42520.51
644.81	42351.99
644.95	42796.70
645.10	42417.53
645.25	42567.32
645.39	42616.47
645.54	42246.67
645.69	42153.05
645.83	41940.06
645.98	42150.71
646.13	42586.05
646.27	42433.91
646.42	42040.70
646.57	42274.76
646.71	42080.49
646.86	42501.79
647.00	42588.39
647.15	42462.00
647.30	42405.83
647.44	42277.10
647.59	42094.53
647.74	42178.79
647.88	41907.29
648.03	42197.52
648.17	42497.11
648.32	42216.24
648.47	42047.72
648.61	41879.21
648.76	41982.19
648.90	41614.72
649.05	41570.25
649.20	41727.07
649.34	41776.22
649.49	41556.21
649.63	41872.18
649.78	41996.23
649.92	41909.63
650.07	42293.48
650.21	41968.15
650.36	42010.28
650.51	41734.09
650.65	41874.52
650.80	41956.44
650.94	42227.95
651.09	41497.70
651.23	41511.74
651.38	41708.35
651.52	41069.38
651.67	41322.16
651.81	41230.88
651.96	41368.97
652.10	41163.00
652.25	41324.50
652.39	41258.96
652.54	41474.29
652.68	41160.66
652.83	41476.63
652.97	41186.41
653.12	41514.08
653.26	41041.29
653.41	41343.22
653.55	41109.17
653.70	41680.26
653.84	41521.10
653.99	41916.65
654.13	41118.53
654.27	41106.83
654.42	41329.18
654.56	40690.21
654.71	40950.01
654.85	40875.12
655.00	40933.63
655.14	41013.21
655.29	41345.56
655.43	41141.94
655.57	40753.41
655.72	40596.59
655.86	40741.71
656.01	40650.42
656.15	40390.62
656.30	41006.19
656.44	40868.09
656.58	40500.63
656.73	40891.50
656.87	40554.46
657.01	40201.04
657.16	40446.80
657.30	40360.20
657.45	40360.20
657.59	40325.09
657.73	40123.80
657.88	40563.82
658.02	40177.64
658.16	40425.73
658.31	40376.58
658.45	40687.87
658.60	39985.71
658.74	40182.32
658.88	40259.55
659.03	39761.02
659.17	40102.74
659.31	40016.14
659.46	39754.00
659.60	40229.13
659.74	39618.25
659.89	39519.95
660.03	39564.42
660.17	39255.46
660.32	40023.16
660.46	39573.78
660.60	39021.41
660.74	39578.46
660.89	39711.87
661.03	39489.52
661.17	39161.84
661.32	38815.44
661.46	39262.49
661.60	38693.74
661.74	39346.75
661.89	39075.24
662.03	39494.20
662.17	38803.74
662.31	38829.49
662.46	39042.48
662.60	38976.94
662.74	38799.06
662.88	38494.79
663.03	38412.87
663.17	38281.80
663.31	38146.05
663.45	38438.62
663.60	39150.14
663.74	38895.02
663.88	38600.12
664.02	38136.69
664.17	38864.60
664.31	38078.18
664.45	38169.46
664.59	37940.08
664.73	38305.21
664.88	38321.59
665.02	38099.24
665.16	38045.41
665.30	37867.53
665.44	38059.45
665.59	37699.01
665.73	37539.85
665.87	37338.57
666.01	38169.46
666.15	37766.88
666.29	37734.12
666.44	37521.13
666.58	37371.33
666.72	37214.52
666.86	37200.47
667.00	37612.41
667.14	37298.78
667.28	37041.32
667.43	37202.82
667.57	37188.77
667.71	37113.87
667.85	37413.46
667.99	36879.82
668.13	36748.75
668.27	36905.57
668.41	36217.45
668.56	36610.66
668.70	36477.25
668.84	36165.96
668.98	35959.99
669.12	36720.66
669.26	36353.20
669.40	36264.26
669.54	36163.62
669.68	36339.16
669.82	35779.77
669.96	35871.05
670.10	35775.09
670.25	35730.62
670.39	36062.97
670.53	35880.41
670.67	35660.40
670.81	35974.03
670.95	35707.21
671.09	35241.45
671.23	35241.45
671.37	35758.70
671.51	35407.62
671.65	35215.70
671.79	35150.17
671.93	35316.34
672.07	35402.94
672.21	35400.60
672.35	34356.72
672.49	34771.00
672.63	34668.02
672.77	34541.63
672.91	34766.32
673.05	34513.54
673.19	34712.49
673.33	34588.44
673.47	34794.40
673.61	33797.34
673.75	34050.11
673.89	33764.57
674.03	34094.58
674.17	33605.41
674.31	33783.29
674.45	33689.67
674.59	33741.16
674.73	33816.06
674.87	33579.67
675.01	33149.01
675.15	33394.76
675.29	33186.46
675.43	33088.15
675.56	33352.63
675.70	32924.32
675.84	32898.57
675.98	32236.20
676.12	32727.71
676.26	32779.20
676.40	32446.85
676.54	31796.18
676.68	32568.55
676.82	31852.35
676.96	32362.59
677.10	32404.72
677.23	32357.91
677.37	31967.04
677.51	31941.29
677.65	31690.85
677.79	31578.51
677.93	31417.01
678.07	31630.00
678.21	31557.44
678.34	31199.34
678.48	30778.04
678.62	31108.06
678.76	31037.84
678.90	30874.01
679.04	30906.77
679.18	30862.30
679.31	30497.18
679.45	30565.06
679.59	30216.32
679.73	30277.17
679.87	30143.76
680.00	30068.86
680.14	30256.11
680.28	30110.99
680.42	30202.27
680.56	29582.03
680.70	29682.67
680.83	29261.38
680.97	29649.91
681.11	29385.43
681.25	29149.03
681.39	28950.09
681.52	29289.46
681.66	28645.82
681.80	28245.58
681.94	28587.30
682.07	28760.50
682.21	28599.01
682.35	28175.37
682.49	28268.99
682.62	28147.28
682.76	28266.65
682.90	28283.03
683.04	28156.64
683.17	28084.09
683.31	27545.76
683.45	27524.70
683.59	27470.87
683.72	27454.48
683.86	27358.52
684.00	27281.28
684.13	27283.62
684.27	27431.08
684.41	27080.00
684.55	26962.97
684.68	26508.91
684.82	26855.31
684.96	26548.70
685.09	26471.46
685.23	26724.24
685.37	26867.01
685.50	27023.83
685.64	26693.81
685.78	26096.97
685.91	26426.99
686.05	25811.43
686.19	25577.37
686.32	25977.61
686.46	25535.24
686.60	24975.86
686.73	25568.01
686.87	24954.79
687.01	25701.42
687.14	25411.20
687.28	25067.14
687.42	25111.61
687.55	25118.63
687.69	25050.75
687.82	24847.13
687.96	24865.85
688.10	24643.50
688.23	24790.95
688.37	24442.21
688.50	24556.90
688.64	24386.04
688.78	24364.98
688.91	24444.56
689.05	24236.25
689.18	23852.40
689.32	23414.72
689.46	23623.03
689.59	23482.59
689.73	23461.53
689.86	23597.28
690.00	23302.37
690.13	23388.97
690.27	23407.70
690.41	23105.77
690.54	22469.14
690.68	22611.92
690.81	22551.06
690.95	22572.13
691.08	22457.44
691.22	22412.97
691.35	22340.41
691.49	22237.43
691.62	22286.58
691.76	21645.27
691.89	21795.07
692.03	21556.33
692.16	21750.60
692.30	21621.87
692.43	21603.14
692.57	21289.51
692.70	21362.07
692.84	21343.35
692.97	21032.05
693.11	21319.94
693.24	20896.30
693.38	20482.03
693.51	20945.45
693.65	20535.86
693.78	20624.80
693.92	20498.41
694.05	20255.00
694.19	20229.25
694.32	20449.26
694.45	20634.16
694.59	20308.83
694.72	20130.95
694.86	20243.29
694.99	19868.81
695.13	19971.79
695.26	19426.45
695.39	19264.95
695.53	19442.83
695.66	19592.62
695.80	19051.96
695.93	19435.81
696.07	19061.32
696.20	19026.21
696.33	18731.31
696.47	18934.93
696.60	18801.52
696.73	18977.06
696.87	18956.00
697.00	18384.91
697.14	18382.57
697.27	18562.79
697.40	18525.34
697.54	18363.84
697.67	18256.18
697.80	18036.17
697.94	18085.32
698.07	17862.97
698.21	17963.61
698.34	17558.70
698.47	17874.67
698.61	17474.44
698.74	17170.17
698.87	17387.84
699.01	17399.54
699.14	17177.19
699.27	17160.81
699.40	17359.75
699.54	16718.45
699.67	16772.28
699.80	17310.60
699.94	16980.59
700.07	16718.45
700.20	16718.45
700.34	16463.33
700.47	16578.01
700.60	16835.47
700.73	16556.95
700.87	16264.38
701.00	15871.17
701.13	16060.76
701.26	15850.11
701.40	16025.65
701.53	15571.58
701.66	15939.05
701.79	15758.83
701.93	15332.85
702.06	15286.04
702.19	15482.64
702.32	15611.37
702.46	15412.43
702.59	15616.05
702.72	15611.37
702.85	15318.81
702.99	15159.65
703.12	15091.77
703.25	14883.47
703.38	14714.95
703.51	14693.88
703.65	14581.54
703.78	14546.43
703.91	14427.06
704.04	14277.27
704.17	14349.82
704.31	14260.88
704.44	14202.37
704.57	14272.59
704.70	14066.62
704.83	13937.89
704.96	13710.86
705.10	13750.65
705.23	13701.50
>>>>>End Processed Spectral Data<<<<<
