SpectraSuite Data File
++++++++++++++++++++++++++++++++++++
Date: Fri Oct 25 10:47:26 EDT 2013
User: price-jones
Dark Spectrum Present: No
Reference Spectrum Present: No
Number of Sampled Component Spectra: 1
Spectrometers: USB2+H05261
Integration Time (usec): 100000 (USB2+H05261)
Spectra Averaged: 1 (USB2+H05261)
Boxcar Smoothing: 0 (USB2+H05261)
Correct for Electrical Dark: No (USB2+H05261)
Strobe/Lamp Enabled: No (USB2+H05261)
Correct for Detector Non-linearity: No (USB2+H05261)
Correct for Stray Light: No (USB2+H05261)
Number of Pixels in Processed Spectrum: 2048
>>>>>Begin Processed Spectral Data<<<<<
365.73	154.48
365.92	154.48
366.12	154.48
366.32	72.56
366.52	65.54
366.72	37.45
366.91	0.00
367.11	58.51
367.31	21.06
367.51	56.17
367.70	84.26
367.90	77.24
368.10	14.04
368.30	42.13
368.49	56.17
368.69	53.83
368.89	91.28
369.09	46.81
369.28	2.34
369.48	105.32
369.68	63.19
369.87	119.37
370.07	142.77
370.27	154.48
370.47	220.01
370.66	390.87
370.86	411.93
371.06	414.27
371.25	442.36
371.45	489.17
371.65	482.15
371.84	393.21
372.04	440.02
372.24	519.60
372.44	402.57
372.63	517.26
372.83	503.22
373.03	449.38
373.22	468.11
373.42	470.45
373.62	498.53
373.81	517.26
374.01	592.16
374.21	447.04
374.40	472.79
374.60	547.69
374.79	531.30
374.99	547.69
375.19	503.22
375.38	568.75
375.58	545.34
375.78	514.92
375.97	592.16
376.17	608.54
376.37	622.58
376.56	531.30
376.76	575.77
376.95	631.94
377.15	657.69
377.35	629.60
377.54	606.20
377.74	636.63
377.93	521.94
378.13	538.32
378.33	685.78
378.52	676.41
378.72	622.58
378.91	660.03
379.11	669.39
379.31	561.73
379.50	636.63
379.70	631.94
379.89	634.29
380.09	685.78
380.28	648.33
380.48	667.05
380.68	636.63
380.87	620.24
381.07	631.94
381.26	688.12
381.46	606.20
381.65	695.14
381.85	678.76
382.04	655.35
382.24	711.52
382.43	653.01
382.63	634.29
382.83	683.44
383.02	748.97
383.22	664.71
383.41	706.84
383.61	798.12
383.80	748.97
384.00	758.33
384.19	704.50
384.39	692.80
384.58	711.52
384.78	755.99
384.97	791.10
385.17	711.52
385.36	833.23
385.56	739.61
385.75	798.12
385.95	695.14
386.14	830.89
386.34	732.59
386.53	781.74
386.72	734.93
386.92	809.83
387.11	793.44
387.31	760.67
387.50	770.04
387.70	809.83
387.89	758.33
388.09	784.08
388.28	894.08
388.48	760.67
388.67	814.51
388.86	891.74
389.06	905.79
389.25	961.96
389.45	847.27
389.64	880.04
389.84	947.92
390.03	1025.15
390.22	954.94
390.42	875.36
390.61	873.02
390.81	961.96
391.00	936.21
391.19	945.58
391.39	882.38
391.58	964.30
391.78	976.00
391.97	964.30
392.16	1008.77
392.36	994.73
392.55	966.64
392.75	994.73
392.94	957.28
393.13	922.17
393.33	954.94
393.52	957.28
393.71	1071.97
393.91	999.41
394.10	964.30
394.29	1064.94
394.49	1114.10
394.68	1076.65
394.88	1060.26
395.07	1153.88
395.26	1135.16
395.46	1188.99
395.65	1135.16
395.84	1114.10
396.04	1046.22
396.23	1219.42
396.42	1076.65
396.62	1086.01
396.81	1135.16
397.00	1142.18
397.19	1118.78
397.39	1100.05
397.58	1266.23
397.77	1139.84
397.97	1226.44
398.16	1233.46
398.35	1329.42
398.55	1242.82
398.74	1203.04
398.93	1350.49
399.12	1284.95
399.32	1308.36
399.51	1266.23
399.70	1299.00
399.90	1383.26
400.09	1411.34
400.28	1385.60
400.47	1334.11
400.67	1472.20
400.86	1434.75
401.05	1355.17
401.24	1401.98
401.44	1406.66
401.63	1481.56
401.82	1383.26
402.01	1409.00
402.21	1455.81
402.40	1458.15
402.59	1516.67
402.78	1533.05
402.97	1586.88
403.17	1577.52
403.36	1575.18
403.55	1542.41
403.74	1558.80
403.93	1614.97
404.13	1678.16
404.32	1626.67
404.51	1664.12
404.70	1654.76
404.89	1619.65
405.09	1675.82
405.28	1734.34
405.47	1626.67
405.66	1619.65
405.85	1736.68
406.05	1755.40
406.24	1708.59
406.43	1753.06
406.62	1710.93
406.81	1870.09
407.00	1748.38
407.20	1827.96
407.39	1776.47
407.58	1844.34
407.77	1916.90
407.96	1886.47
408.15	2010.52
408.34	1886.47
408.54	1926.26
408.73	1902.86
408.92	2003.50
409.11	1961.37
409.30	2038.61
409.49	2066.69
409.68	1940.30
409.87	2097.12
410.07	2113.50
410.26	2047.97
410.45	2043.29
410.64	2155.63
410.83	2160.31
411.02	2209.47
411.21	2249.25
411.40	2160.31
411.59	2279.68
411.78	2202.44
411.98	2246.91
412.17	2286.70
412.36	2321.81
412.55	2363.94
412.74	2335.85
412.93	2373.30
413.12	2410.75
413.31	2527.78
413.50	2429.48
413.69	2541.82
413.88	2640.12
414.07	2595.65
414.26	2476.29
414.45	2569.91
414.64	2551.18
414.83	2527.78
415.02	2637.78
415.22	2656.51
415.41	2829.71
415.60	2637.78
415.79	2752.47
415.98	2715.02
416.17	2930.35
416.36	2822.69
416.55	2881.20
416.74	2822.69
416.93	2839.07
417.12	2878.86
417.31	3002.91
417.50	2946.73
417.69	3038.02
417.88	3019.29
418.07	3021.63
418.26	3150.36
418.45	3112.91
418.64	3016.95
418.83	3110.57
419.02	3248.66
419.21	3152.70
419.39	3218.24
419.58	3126.96
419.77	3204.19
419.96	3204.19
420.15	3309.52
420.34	3290.79
420.53	3293.13
420.72	3332.92
420.91	3344.63
421.10	3398.46
421.29	3463.99
421.48	3337.60
421.67	3405.48
421.86	3431.23
422.05	3368.03
422.24	3314.20
422.43	3403.14
422.61	3421.86
422.80	3393.78
422.99	3473.36
423.18	3398.46
423.37	3496.76
423.56	3571.66
423.75	3463.99
423.94	3501.44
424.13	3204.19
424.32	3414.84
424.50	3501.44
424.69	3695.71
424.88	3552.93
425.07	3454.63
425.26	3454.63
425.45	3513.14
425.64	3494.42
425.83	3454.63
426.01	3611.45
426.20	3630.17
426.39	3506.12
426.58	3552.93
426.77	3529.53
426.96	3489.74
427.15	3616.13
427.33	3597.40
427.52	3721.45
427.71	3644.21
427.90	3604.42
428.09	3595.06
428.28	3758.90
428.46	3620.81
428.65	3859.54
428.84	3698.05
429.03	3786.99
429.22	3735.50
429.40	3896.99
429.59	3763.58
429.78	3684.00
429.97	3609.11
430.16	3637.19
430.34	3588.04
430.53	3719.11
430.72	3915.72
430.91	3922.74
431.10	3892.31
431.28	4109.98
431.47	4088.92
431.66	4018.70
431.85	4065.51
432.03	4236.37
432.22	4212.96
432.41	4060.83
432.60	4044.45
432.79	4109.98
432.97	4341.69
433.16	4184.88
433.35	4182.54
433.54	4294.88
433.72	4257.43
433.91	4215.30
434.10	4266.80
434.28	4184.88
434.47	4388.50
434.66	4346.37
434.85	4376.80
435.03	4496.17
435.22	4358.08
435.41	4503.19
435.59	4524.26
435.78	4418.93
435.97	4648.30
436.16	4477.44
436.34	4557.02
436.53	4496.17
436.72	4643.62
436.90	4479.79
437.09	4601.49
437.28	4610.86
437.46	4573.41
437.65	4657.67
437.84	4746.61
438.02	4566.39
438.21	4606.17
438.40	4748.95
438.58	4770.01
438.77	4842.57
438.96	4807.46
439.14	4898.74
439.33	5109.39
439.52	4917.47
439.70	4922.15
439.89	4915.12
440.08	5109.39
440.26	5069.60
440.45	5053.22
440.63	5174.92
440.82	5303.65
441.01	5231.10
441.19	5186.63
441.38	5348.12
441.57	5338.76
441.75	5481.53
441.94	5533.03
442.12	5542.39
442.31	5659.42
442.50	5586.86
442.68	5572.82
442.87	5713.25
443.05	5696.86
443.24	5858.36
443.43	5614.95
443.61	5549.41
443.80	5804.53
443.98	5631.33
444.17	5727.29
444.35	5790.49
444.54	5893.47
444.73	5884.11
444.91	5760.06
445.10	5591.54
445.28	5750.70
445.47	5589.20
445.65	5717.93
445.84	5879.43
446.02	5731.97
446.21	5830.27
446.39	5921.56
446.58	5935.60
446.77	5940.28
446.95	5785.80
447.14	5916.87
447.32	6019.86
447.51	5767.08
447.69	5837.30
447.88	6061.99
448.06	6073.69
448.25	6113.48
448.43	6017.52
448.62	5888.79
448.80	5884.11
448.99	6040.92
449.17	6101.78
449.36	5947.30
449.54	6047.94
449.73	6356.90
449.91	6277.32
450.10	6291.36
450.28	6207.10
450.46	6279.66
450.65	6282.00
450.83	6356.90
451.02	6251.57
451.20	6293.70
451.39	6314.77
451.57	6307.74
451.76	6406.05
451.94	6534.78
452.13	6539.46
452.31	6551.16
452.49	6319.45
452.68	6431.79
452.86	6504.35
453.05	6607.33
453.23	6490.31
453.42	6480.94
453.60	6614.35
453.78	6651.80
453.97	6377.96
454.15	6389.66
454.34	6431.79
454.52	6710.32
454.70	6689.25
454.89	6951.39
455.07	6778.19
455.26	6785.21
455.44	6757.13
455.62	6743.08
455.81	6911.60
455.99	6743.08
456.17	7023.95
456.36	7026.29
456.54	6876.49
456.73	7077.78
456.91	7131.61
457.09	7267.36
457.28	7225.23
457.46	7204.17
457.64	7431.20
457.83	7180.76
458.01	7173.74
458.19	7403.11
458.38	7239.28
458.56	7534.18
458.74	7332.90
458.93	7384.39
459.11	7281.41
459.29	7293.11
459.48	7393.75
459.66	7286.09
459.84	7459.29
460.03	7496.74
460.21	7438.22
460.39	7679.30
460.57	7641.85
460.76	7527.16
460.94	7566.95
461.12	7747.17
461.31	7662.91
461.49	7644.19
461.67	7520.14
461.85	7826.75
462.04	7737.81
462.22	8327.63
462.40	7896.97
462.59	7964.84
462.77	7990.59
462.95	7894.63
463.13	7934.42
463.32	7786.96
463.50	8053.78
463.68	7953.14
463.86	7997.61
464.05	7946.12
464.23	8023.36
464.41	8116.98
464.59	8002.29
464.78	8285.50
464.96	8269.11
465.14	8182.51
465.32	8175.49
465.50	8243.37
465.69	8404.86
465.87	8402.52
466.05	8236.35
466.23	8250.39
466.41	8177.83
466.60	8362.73
466.78	8189.53
466.96	8131.02
467.14	8124.00
467.32	8329.97
467.51	8669.34
467.69	8276.13
467.87	8381.46
468.05	8769.99
468.23	8706.79
468.41	8493.80
468.60	8585.08
468.78	8711.47
468.96	8564.02
469.14	8617.85
469.32	8718.50
469.50	8571.04
469.69	8730.20
469.87	8709.13
470.05	8709.13
470.23	8692.75
470.41	8861.27
470.59	9048.51
470.77	8746.58
470.95	9015.74
471.14	9156.18
471.32	9041.49
471.50	9191.28
471.68	9277.88
471.86	9228.73
472.04	9088.30
472.22	9565.77
472.40	9135.11
472.58	9465.13
472.77	9420.66
472.95	9376.19
473.13	9916.85
473.31	9427.68
473.49	9495.55
473.67	9572.79
473.85	9673.43
474.03	10040.90
474.21	9668.75
474.39	9827.91
474.57	9790.46
474.75	9987.07
474.93	10076.01
475.12	10036.22
475.30	10108.77
475.48	9987.07
475.66	9984.73
475.84	10026.86
476.02	10223.46
476.20	10345.17
476.38	10417.72
476.56	10878.81
476.74	10523.05
476.92	10485.60
477.10	10616.67
477.28	10839.02
477.46	10787.53
477.64	10890.51
477.82	11068.39
478.00	11173.72
478.18	11295.43
478.36	11321.17
478.54	11318.83
478.72	11290.74
478.90	11751.83
479.08	11698.00
479.26	11859.49
479.44	11847.79
479.62	11910.99
479.80	12030.35
479.98	12056.10
480.16	12362.71
480.34	12229.30
480.52	12451.65
480.70	12322.92
480.88	12252.70
481.06	12554.63
481.24	12430.59
481.41	12629.53
481.59	12807.41
481.77	12919.76
481.95	13121.04
482.13	12985.29
482.31	13064.87
482.49	13420.63
482.67	13514.25
482.85	13640.64
483.03	13441.70
483.21	13706.18
483.39	14040.87
483.57	14005.77
483.74	13965.98
483.92	14050.24
484.10	13855.97
484.28	14150.88
484.46	14574.52
484.64	14747.72
484.82	14406.00
485.00	14637.71
485.18	14916.23
485.35	15140.93
485.53	15000.49
485.71	14970.07
485.89	15449.88
486.07	15218.16
486.25	15220.50
486.43	15466.26
486.61	15580.95
486.78	15901.60
486.96	15761.17
487.14	15800.96
487.32	16112.25
487.50	15999.90
487.68	16453.97
487.85	16615.46
488.03	16648.23
488.21	17039.10
488.39	16964.20
488.57	17277.83
488.75	16823.77
488.92	17315.28
489.10	17568.06
489.28	17851.27
489.46	17783.39
489.64	17612.53
489.81	18328.74
489.99	18422.36
490.17	18094.68
490.35	18361.50
490.53	18354.48
490.70	18745.35
490.88	18284.26
491.06	19068.34
491.24	18913.87
491.41	18890.46
491.59	18977.06
491.77	18810.89
491.95	19407.72
492.13	19445.17
492.30	19564.54
492.48	19868.81
492.66	19754.12
492.84	19852.42
493.01	20065.41
493.19	19955.41
493.37	20432.88
493.54	20418.83
493.72	20439.90
493.90	20575.65
494.08	20915.03
494.25	21301.22
494.43	21212.28
494.61	20877.58
494.79	21223.98
494.96	20989.92
495.14	21378.45
495.32	21802.09
495.49	21675.70
495.67	21565.70
495.85	22052.53
496.02	22199.98
496.20	21977.63
496.38	22331.05
496.55	22246.79
496.73	22850.65
496.91	22593.19
497.09	22553.40
497.26	23091.73
497.44	22604.89
497.62	22991.08
497.79	23122.15
497.97	23021.51
498.14	23311.74
498.32	23335.14
498.50	23742.39
498.67	23498.98
498.85	23903.89
499.03	23983.47
499.20	24168.37
499.38	23924.96
499.56	24320.51
499.73	24514.77
499.91	24236.25
500.08	24512.43
500.26	24203.48
500.44	24645.84
500.61	24596.69
500.79	24467.96
500.97	24627.12
501.14	25184.16
501.32	25015.65
501.49	25071.82
501.67	25455.67
501.84	24950.11
502.02	25537.59
502.20	25792.70
502.37	25706.10
502.55	25837.17
502.72	25727.17
502.90	25799.73
503.07	25858.24
503.25	26111.02
503.43	25846.54
503.60	25942.50
503.78	26115.70
503.95	26129.74
504.13	26272.51
504.30	26324.01
504.48	25937.82
504.65	26347.41
504.83	26764.03
505.01	26918.50
505.18	26836.58
505.36	27201.71
505.53	27108.08
505.71	27035.53
505.88	27407.67
506.06	26969.99
506.23	27278.94
506.41	27187.66
506.58	27754.07
506.76	27756.41
506.93	27798.54
507.11	27449.80
507.28	27545.76
507.46	27548.11
507.63	27623.00
507.81	28229.20
507.98	27941.32
508.16	27728.33
508.33	28112.17
508.50	28357.93
508.68	28294.74
508.85	28760.50
509.03	28430.49
509.20	28765.18
509.38	28828.38
509.55	28861.15
509.73	28793.27
509.90	28919.66
510.08	29010.94
510.25	28790.93
510.42	29032.00
510.60	29209.89
510.77	29809.06
510.95	29642.88
511.12	29429.90
511.30	29490.75
511.47	30228.02
511.64	29961.20
511.82	29851.19
511.99	29682.67
512.17	29687.36
512.34	29905.02
512.51	30155.46
512.69	30412.92
512.86	29883.96
513.04	30202.27
513.21	30246.74
513.38	30810.81
513.56	30487.82
513.73	30455.05
513.90	30813.15
514.08	30721.87
514.25	30878.69
514.43	31129.12
514.60	31070.61
514.77	30749.96
514.95	31292.96
515.12	31108.06
515.29	31503.61
515.47	31431.05
515.64	31728.30
515.81	31292.96
515.99	31538.72
516.16	31995.12
516.33	31728.30
516.51	31468.50
516.68	31360.84
516.85	31185.30
517.03	31782.13
517.20	31824.26
517.37	31793.84
517.54	31955.33
517.72	31952.99
517.89	32098.11
518.06	32032.57
518.24	32140.24
518.41	32285.35
518.58	32254.92
518.75	32072.36
518.93	32748.78
519.10	32755.80
519.27	32404.72
519.45	33053.05
519.62	32851.76
519.79	32704.31
519.96	33043.68
520.14	33413.49
520.31	33214.54
520.48	33315.19
520.65	33116.24
520.83	33432.21
521.00	33275.40
521.17	33476.68
521.34	33191.14
521.52	33799.68
521.69	34117.99
521.86	33490.73
522.03	33937.77
522.20	33539.88
522.38	33916.70
522.55	33818.40
522.72	33771.59
522.89	34387.15
523.07	34022.03
523.24	34239.70
523.41	34562.69
523.58	34082.88
523.75	34499.50
523.92	34712.49
524.10	34506.52
524.27	34558.01
524.44	34363.75
524.61	35168.89
524.78	34373.11
524.96	35519.97
525.13	34754.61
525.30	35784.45
525.47	35473.16
525.64	35239.11
525.81	35215.70
525.98	35271.87
526.16	35009.73
526.33	35337.41
526.50	35344.43
526.67	35239.11
526.84	35220.38
527.01	35271.87
527.18	35524.65
527.36	35845.30
527.53	35864.03
527.70	36444.48
527.87	36435.12
528.04	36121.49
528.21	35765.73
528.38	36039.57
528.55	36095.74
528.72	35849.99
528.89	36631.72
529.07	36329.80
529.24	36254.90
529.41	36282.98
529.58	36229.15
529.75	36666.83
529.92	36512.36
530.09	36287.67
530.26	36954.72
530.43	36627.04
530.60	36439.80
530.77	36730.03
530.94	36907.91
531.11	37043.66
531.28	36954.72
531.46	37088.13
531.63	37240.26
531.80	36992.17
531.97	37172.39
532.14	37476.66
532.31	37338.57
532.48	37261.33
532.65	37895.61
532.82	37205.16
532.99	37464.96
533.16	36828.33
533.33	37734.12
533.50	37860.51
533.67	38078.18
533.84	37357.29
534.01	38000.94
534.18	37619.43
534.35	37762.20
534.52	37628.79
534.69	37724.75
534.86	37935.40
535.03	37610.07
535.20	38155.41
535.37	38565.01
535.54	38490.11
535.71	38511.17
535.88	38621.18
536.05	38466.70
536.22	38340.32
536.38	38412.87
536.55	38600.12
536.72	38712.46
536.89	37841.78
537.06	38436.28
537.23	38433.94
537.40	38621.18
537.57	38466.70
537.74	38630.54
537.91	39047.16
538.08	38883.32
538.25	38672.67
538.42	39042.48
538.59	38944.17
538.75	38288.82
538.92	38981.62
539.09	39117.37
539.26	39019.07
539.43	38880.98
539.60	39311.64
539.77	38913.75
539.94	39218.02
540.11	38974.60
540.28	39047.16
540.44	39086.95
540.61	39791.45
540.78	39002.69
540.95	39517.60
541.12	39096.31
541.29	39360.79
541.46	39100.99
541.62	39454.41
541.79	40084.01
541.96	39201.63
542.13	39723.57
542.30	39461.43
542.47	40034.86
542.63	39681.44
542.80	39849.96
542.97	40346.15
543.14	40741.71
543.31	40390.62
543.48	40690.21
543.64	40685.53
543.81	40584.89
543.98	40149.55
544.15	40863.41
544.32	40907.88
544.48	40982.78
544.65	40718.30
544.82	40706.60
544.99	40528.72
545.16	40573.19
545.32	40612.98
545.49	41181.73
545.66	41055.34
545.83	40910.22
546.00	40994.48
546.16	40825.96
546.33	40652.76
546.50	40360.20
546.67	40854.05
546.83	40570.85
547.00	41134.92
547.17	40570.85
547.34	40919.59
547.50	41160.66
547.67	41055.34
547.84	40914.90
548.00	41549.19
548.17	41532.81
548.34	41752.82
548.51	41408.76
548.67	41748.14
548.84	41867.50
549.01	41345.56
549.18	41085.76
549.34	41450.89
549.51	41581.96
549.68	41773.88
549.84	41909.63
550.01	41855.80
550.18	42094.53
550.34	42171.77
550.51	41741.11
550.68	41631.11
550.84	41605.36
551.01	41584.30
551.18	41633.45
551.34	41792.61
551.51	42036.02
551.68	41998.57
551.84	42122.62
552.01	42195.18
552.18	41942.40
552.34	41673.24
552.51	42087.51
552.68	41778.56
552.84	42361.36
553.01	42621.16
553.18	42689.03
553.34	42265.39
553.51	42377.74
553.67	41989.21
553.84	42588.39
554.01	42387.10
554.17	42831.80
554.34	43082.24
554.51	42426.89
554.67	42869.25
554.84	42885.64
555.00	42623.50
555.17	42586.05
555.33	42394.12
555.50	42639.88
555.67	42478.38
555.83	42829.46
556.00	42658.60
556.16	43129.05
556.33	43007.34
556.50	42864.57
556.66	43182.88
556.83	42616.47
556.99	42944.15
557.16	42948.83
557.32	43236.72
557.49	42611.79
557.65	42773.29
557.82	43044.79
557.98	43349.06
558.15	43262.46
558.32	43283.53
558.48	43175.86
558.65	43285.87
558.81	43400.55
558.98	42880.95
559.14	43358.42
559.31	43133.73
559.47	43136.07
559.64	43477.79
559.80	43346.72
559.97	43459.07
560.13	42930.11
560.30	42916.06
560.46	43213.31
560.63	43304.59
560.79	43728.23
560.96	43896.75
561.12	43622.90
561.29	43852.28
561.45	43189.91
561.61	43161.82
561.78	43592.48
561.94	43412.26
562.11	43201.61
562.27	43421.62
562.44	43335.02
562.60	43770.36
562.77	43941.22
562.93	44004.41
563.10	43533.96
563.26	43215.65
563.42	43487.15
563.59	43709.50
563.75	43721.21
563.92	43995.05
564.08	43840.57
564.24	43606.52
564.41	43873.34
564.57	43608.86
564.74	43569.07
564.90	43945.90
565.07	44320.38
565.23	44102.71
565.39	44002.07
565.56	44083.99
565.72	43742.27
565.88	44027.82
566.05	43936.54
566.21	43576.09
566.38	43863.98
566.54	43854.62
566.70	44289.96
566.87	44273.57
567.03	43938.88
567.19	44439.75
567.36	43854.62
567.52	44081.65
567.68	44032.50
567.85	44095.69
568.01	44198.68
568.17	43924.83
568.34	43882.70
568.50	44053.56
568.66	43927.17
568.83	44224.42
568.99	44037.18
569.15	44245.49
569.32	44128.46
569.48	43861.64
569.64	44437.41
569.81	44311.02
569.97	44676.15
570.13	44416.35
570.30	43805.47
570.46	44418.69
570.62	44121.44
570.78	44179.95
570.95	44304.00
571.11	44383.58
571.27	43835.89
571.43	44250.17
571.60	44369.54
571.76	44299.32
571.92	44254.85
572.09	44329.75
572.25	44453.79
572.41	44079.31
572.57	44392.94
572.74	44573.16
572.90	44339.11
573.06	44418.69
573.22	44062.93
573.38	44453.79
573.55	44238.47
573.71	44364.85
573.87	44002.07
574.03	44081.65
574.20	44360.17
574.36	44182.29
574.52	44629.34
574.68	45104.46
574.84	44584.86
575.01	44437.41
575.17	43957.60
575.33	44116.76
575.49	44491.24
575.65	44669.12
575.82	44594.23
575.98	44629.34
576.14	44858.71
576.30	44348.47
576.46	44437.41
576.62	44671.46
576.79	44142.50
576.95	44032.50
577.11	44114.42
577.27	44348.47
577.43	45097.44
577.59	44498.26
577.75	44474.86
577.92	44418.69
578.08	43861.64
578.24	44285.28
578.40	44477.20
578.56	44751.04
578.72	44179.95
578.88	44631.68
579.04	44645.72
579.21	44177.61
579.37	44683.17
579.53	44526.35
579.69	44238.47
579.85	45036.59
580.01	44528.69
580.17	44666.78
580.33	44807.22
580.49	44797.85
580.65	44921.90
580.82	44570.82
580.98	44399.96
581.14	44100.37
581.30	44664.44
581.46	44135.48
581.62	44535.71
581.78	44783.81
581.94	44961.69
582.10	44509.97
582.26	44610.61
582.42	44999.14
582.58	44821.26
582.74	44500.61
582.90	44804.88
583.06	44746.36
583.22	44835.30
583.38	44886.79
583.54	44706.57
583.70	44053.56
583.86	44804.88
584.02	44175.27
584.18	44790.83
584.34	44636.36
584.50	44746.36
584.66	44133.14
584.82	44648.06
584.98	44807.22
585.14	44697.21
585.30	44783.81
585.46	44641.04
585.62	44470.18
585.78	44652.74
585.94	44425.71
586.10	44509.97
586.26	44596.57
586.42	44596.57
586.58	44758.06
586.74	44516.99
586.90	44126.12
587.06	44516.99
587.22	44603.59
587.38	44554.44
587.54	44940.63
587.70	45029.57
587.86	44844.66
588.02	44816.58
588.18	44985.10
588.34	44767.43
588.49	44945.31
588.65	43978.67
588.81	44921.90
588.97	44460.82
589.13	44357.83
589.29	44648.06
589.45	45247.24
589.61	44659.76
589.77	45078.72
589.93	44395.28
590.08	45083.40
590.24	44954.67
590.40	45228.51
590.56	44889.13
590.72	44978.07
590.88	44664.44
591.04	45127.87
591.20	44804.88
591.35	45146.59
591.51	45581.93
591.67	44678.49
591.83	44849.35
591.99	44832.96
592.15	44683.17
592.31	44776.79
592.46	44912.54
592.62	45076.38
592.78	45146.59
592.94	44865.73
593.10	45020.20
593.26	45036.59
593.41	45106.80
593.57	44900.84
593.73	45043.61
593.89	45123.19
594.05	44823.60
594.20	44683.17
594.36	45287.03
594.52	44999.14
594.68	45022.54
594.84	44861.05
594.99	45642.79
595.15	44793.17
595.31	44957.01
595.47	44886.79
595.62	45111.49
595.78	44982.76
595.94	44947.65
596.10	45413.41
596.25	45071.70
596.41	44879.77
596.57	44903.18
596.73	45221.49
596.88	45041.27
597.04	44940.63
597.20	44865.73
597.36	45436.82
597.51	45111.49
597.67	44938.29
597.83	45165.32
597.99	44945.31
598.14	45375.97
598.30	44697.21
598.46	44896.16
598.61	44971.05
598.77	44519.33
598.93	44968.71
599.09	45151.27
599.24	45635.77
599.40	45558.53
599.56	45294.05
599.71	45155.96
599.87	45645.13
600.03	45280.00
600.18	45404.05
600.34	45144.25
600.50	45359.58
600.65	45104.46
600.81	44910.20
600.97	45378.31
601.12	45502.35
601.28	45469.59
601.44	45006.16
601.59	45139.57
601.75	45059.99
601.91	45181.70
602.06	44957.01
602.22	44996.80
602.37	45050.63
602.53	44828.28
602.69	45317.45
602.84	45146.59
603.00	44652.74
603.16	45338.52
603.31	44779.13
603.47	44683.17
603.62	45134.89
603.78	44999.14
603.94	44912.54
604.09	45179.36
604.25	45422.78
604.40	44919.56
604.56	44699.55
604.71	44790.83
604.87	44814.24
605.03	44989.78
605.18	45188.72
605.34	45233.19
605.49	44425.71
605.65	45191.06
605.80	44802.53
605.96	45268.30
606.12	44797.85
606.27	44917.22
606.43	44912.54
606.58	44905.52
606.74	44626.99
606.89	44446.77
607.05	44720.62
607.20	45202.77
607.36	45013.18
607.51	45301.07
607.67	44804.88
607.82	44760.40
607.98	44961.69
608.13	44531.03
608.29	44449.11
608.44	44423.37
608.60	44376.56
608.75	44231.44
608.91	44498.26
609.06	44350.81
609.22	44718.28
609.37	44219.74
609.53	44432.73
609.68	44612.95
609.84	44999.14
609.99	44870.41
610.15	44233.78
610.30	44451.45
610.46	44278.25
610.61	44348.47
610.76	44626.99
610.92	44360.17
611.07	44364.85
611.23	44142.50
611.38	44172.93
611.54	44210.38
611.69	44432.73
611.84	44086.33
612.00	44538.05
612.15	44285.28
612.31	44194.00
612.46	43988.03
612.62	44821.26
612.77	44421.03
612.92	44692.53
613.08	44224.42
613.23	44098.03
613.39	44442.09
613.54	44023.14
613.69	44329.75
613.85	44231.44
614.00	44027.82
614.15	44568.48
614.31	44025.48
614.46	44311.02
614.62	44069.95
614.77	43941.22
614.92	44172.93
615.08	44133.14
615.23	43819.51
615.38	43756.32
615.54	43573.75
615.69	43775.04
615.84	43643.97
616.00	43571.41
616.15	44116.76
616.30	43915.47
616.46	43964.62
616.61	43510.56
616.76	44060.58
616.92	43433.32
617.07	43746.95
617.22	43508.22
617.37	43267.14
617.53	44285.28
617.68	43550.35
617.83	43650.99
617.99	43887.39
618.14	43484.81
618.29	43489.49
618.45	43531.62
618.60	43732.91
618.75	43737.59
618.90	43695.46
619.06	43959.94
619.21	43880.36
619.36	43882.70
619.51	43470.77
619.67	43342.04
619.82	43540.99
619.97	43571.41
620.12	42602.43
620.28	42494.77
620.43	43594.82
620.58	42993.30
620.73	43194.59
620.89	42934.79
621.04	43187.56
621.19	42902.02
621.34	42866.91
621.49	43126.71
621.65	42794.36
621.80	43086.92
621.95	42686.69
622.10	42918.40
622.25	42937.13
622.41	42696.05
622.56	42677.33
622.71	43098.62
622.86	43035.43
623.01	42852.87
623.16	42742.86
623.32	42997.98
623.47	43082.24
623.62	42768.61
623.77	42536.90
623.92	42766.27
624.07	42703.07
624.23	42438.59
624.38	42234.97
624.53	41961.12
624.68	42918.40
624.83	42553.28
624.98	42625.84
625.13	42232.63
625.29	42691.37
625.44	42246.67
625.59	42831.80
625.74	42714.78
625.89	42160.07
626.04	41794.95
626.19	41865.16
626.34	42202.20
626.49	42274.76
626.65	42344.97
626.80	42305.18
626.95	42211.56
627.10	42176.45
627.25	41958.78
627.40	41968.15
627.55	41511.74
627.70	41401.74
627.85	41588.98
628.00	41766.86
628.15	42483.06
628.30	42183.48
628.45	42485.40
628.60	41684.94
628.76	42171.77
628.91	41895.59
629.06	42199.86
629.21	41303.43
629.36	41481.31
629.51	41827.71
629.66	41359.61
629.81	41427.48
629.96	41624.09
630.11	41736.43
630.26	42059.43
630.41	42073.47
630.56	41523.44
630.71	41471.95
630.86	41635.79
631.01	41764.52
631.16	41326.84
631.31	41165.34
631.46	41099.81
631.61	41607.70
631.76	41656.85
631.91	41469.61
632.06	41326.84
632.21	41130.23
632.36	41141.94
632.51	40931.29
632.66	41303.43
632.81	40964.06
632.96	41467.27
633.10	41085.76
633.25	41127.89
633.40	41125.55
633.55	41226.20
633.70	41127.89
633.85	40641.06
634.00	41132.57
634.15	40715.96
634.30	40828.30
634.45	40638.72
634.60	40957.03
634.75	40804.90
634.90	40648.08
635.05	40701.92
635.19	40648.08
635.34	41144.28
635.49	40931.29
635.64	41020.23
635.79	40587.23
635.94	40507.65
636.09	40502.97
636.24	40559.14
636.39	40187.00
636.53	40187.00
636.68	40147.21
636.83	39782.09
636.98	40634.04
637.13	40121.46
637.28	40701.92
637.43	40779.15
637.57	40715.96
637.72	40629.36
637.87	40348.50
638.02	39861.66
638.17	40210.40
638.32	40051.25
638.46	39929.54
638.61	39931.88
638.76	40385.94
638.91	40498.29
639.06	40280.62
639.20	40088.70
639.35	40343.81
639.50	39758.68
639.65	39981.03
639.80	40210.40
639.94	39941.24
640.09	39899.11
640.24	39412.28
640.39	39508.24
640.54	39688.46
640.68	39636.97
640.83	39517.60
640.98	39578.46
641.13	39700.17
641.27	39922.52
641.42	39723.57
641.57	39562.08
641.72	39723.57
641.86	39828.90
642.01	39529.31
642.16	39449.73
642.31	39271.85
642.45	38953.54
642.60	39168.87
642.75	39033.11
642.90	39180.57
643.04	39295.25
643.19	39192.27
643.34	39367.81
643.48	39299.94
643.63	39234.40
643.78	38941.83
643.93	39021.41
644.07	38543.94
644.22	39215.68
644.37	38948.85
644.51	39044.82
644.66	39246.10
644.81	38888.00
644.95	39222.70
645.10	39194.61
645.25	39222.70
645.39	39044.82
645.54	39325.68
645.69	38714.80
645.83	39175.89
645.98	38848.21
646.13	39131.42
646.27	38885.66
646.42	38831.83
646.57	38520.54
646.71	39295.25
646.86	38951.20
647.00	38829.49
647.15	38918.43
647.30	38763.95
647.44	38419.89
647.59	38471.39
647.74	38499.47
647.88	38656.29
648.03	38770.97
648.17	38714.80
648.32	38375.42
648.47	38340.32
648.61	38429.26
648.76	38995.67
648.90	38534.58
649.05	38754.59
649.20	38101.58
649.34	38185.84
649.49	38295.85
649.63	38291.16
649.78	38520.54
649.92	38204.56
650.07	38422.23
650.21	38162.43
650.36	38181.16
650.51	37991.58
650.65	38665.65
650.80	38841.19
650.94	38389.47
651.09	38279.46
651.23	38204.56
651.38	37919.02
651.52	38038.39
651.67	37928.38
651.81	37792.63
651.96	38286.48
652.10	38031.36
652.25	37720.07
652.39	37904.98
652.54	37989.24
652.68	37684.97
652.83	38003.28
652.97	38033.71
653.12	37977.53
653.26	37937.74
653.41	37970.51
653.55	37640.50
653.70	37603.05
653.84	37825.40
653.99	37549.21
654.13	38066.47
654.27	37429.85
654.42	37383.04
654.56	37427.51
654.71	37699.01
654.85	37521.13
655.00	37352.61
655.14	37024.93
655.29	37102.17
655.43	37280.05
655.57	37392.40
655.72	37146.64
655.86	36971.10
656.01	36882.16
656.15	36966.42
656.30	36858.76
656.44	36718.32
656.58	37027.28
656.73	36704.28
656.87	37116.22
657.01	36739.39
657.16	36744.07
657.30	36533.42
657.45	36751.09
657.59	36737.05
657.73	36687.90
657.88	36458.52
658.02	36598.96
658.16	36961.74
658.31	37015.57
658.45	36868.12
658.60	36769.82
658.74	36463.21
658.88	36444.48
659.03	36472.57
659.17	36268.94
659.31	35892.12
659.46	36388.31
659.60	36400.01
659.74	36367.24
659.89	36238.51
660.03	35945.95
660.17	36194.04
660.32	36060.63
660.46	36601.30
660.60	36294.69
660.74	36587.25
660.89	36198.73
661.03	35622.95
661.17	35721.26
661.32	35707.21
661.46	35934.24
661.60	35496.56
661.74	35964.67
661.89	35896.80
662.03	35564.44
662.17	35695.51
662.31	35115.06
662.46	35634.66
662.60	35477.84
662.74	35304.64
662.88	35681.47
663.03	35267.19
663.17	35391.24
663.31	35185.27
663.45	35365.49
663.60	35573.80
663.74	34831.85
663.88	34976.97
664.02	35117.40
664.17	35271.87
664.31	34553.33
664.45	34967.60
664.59	34976.97
664.73	34904.41
664.88	34871.64
665.02	34089.90
665.16	34438.64
665.30	34602.48
665.44	35079.95
665.59	34242.04
665.73	33996.28
665.87	34218.63
666.01	34249.06
666.15	33759.89
666.29	34235.02
666.44	34258.42
666.58	34216.29
666.72	34272.46
666.86	33837.12
667.00	34368.43
667.14	34160.12
667.28	33647.54
667.43	33722.44
667.57	33734.14
667.71	33558.60
667.85	33582.01
667.99	33572.64
668.13	33476.68
668.27	33652.22
668.41	33764.57
668.56	32931.34
668.70	33535.20
668.84	33574.98
668.98	33385.40
669.12	33479.02
669.26	33174.75
669.40	33102.20
669.54	32877.51
669.68	32856.44
669.82	33404.13
669.96	32849.42
670.10	32603.66
670.25	32601.32
670.39	32856.44
670.53	32701.96
670.67	32776.86
670.81	32683.24
670.95	32620.05
671.09	32292.37
671.23	32191.73
671.37	32734.73
671.51	32449.19
671.65	32313.44
671.79	31903.84
671.93	32156.62
672.07	32343.86
672.21	32053.64
672.35	31868.73
672.49	31859.37
672.63	32180.03
672.77	31957.67
672.91	31835.97
673.05	31241.47
673.19	31620.64
673.33	31679.15
673.47	31332.75
673.61	31150.19
673.75	31012.10
673.89	30960.61
674.03	30630.59
674.17	30635.27
674.31	31290.62
674.45	30782.73
674.59	31201.68
674.73	31211.04
674.87	31232.11
675.01	30644.63
675.15	30806.13
675.29	31084.65
675.43	30953.58
675.56	30672.72
675.70	30274.83
675.84	30646.97
675.98	29427.56
676.12	29886.30
676.26	29846.51
676.40	29780.98
676.54	29685.01
676.68	29476.71
676.82	29724.80
676.96	29556.28
677.10	29397.13
677.23	29326.91
677.37	29230.95
677.51	29301.17
677.65	29167.76
677.79	28837.74
677.93	28914.98
678.07	28912.64
678.21	28741.78
678.34	28709.01
678.48	28961.79
678.62	28535.81
678.76	28629.43
678.90	28673.90
679.04	28629.43
679.18	28369.63
679.31	28191.75
679.45	27700.24
679.59	27791.52
679.73	27452.14
679.87	27618.32
680.00	27716.62
680.14	27718.96
680.28	27323.41
680.42	27236.81
680.56	27119.79
680.70	27356.18
680.83	26939.57
680.97	27262.56
681.11	26967.65
681.25	27037.87
681.39	26780.41
681.52	27028.51
681.66	26663.38
681.80	26785.09
681.94	26380.18
682.07	26614.23
682.21	26340.39
682.35	26022.08
682.49	26188.25
682.62	26061.87
682.76	25839.51
682.90	25979.95
683.04	25916.75
683.17	25617.16
683.31	25954.20
683.45	26139.10
683.59	25752.91
683.72	25488.43
683.86	25099.90
684.00	25223.95
684.13	25233.32
684.27	25223.95
684.41	24875.21
684.55	24868.19
684.68	24737.12
684.82	24683.29
684.96	24793.29
685.09	24720.74
685.23	24446.90
685.37	24283.06
685.50	24027.94
685.64	24362.64
685.78	24444.56
685.91	24098.16
686.05	24119.22
686.19	23573.88
686.32	24095.82
686.46	23744.73
686.60	23445.15
686.73	23461.53
686.87	23831.33
687.01	23513.02
687.14	23178.33
687.28	23047.26
687.42	23044.91
687.55	23119.81
687.69	23431.10
687.82	22815.54
687.96	22965.34
688.10	22630.64
688.23	22789.80
688.37	22532.34
688.50	22485.53
688.64	22059.55
688.78	22031.46
688.91	22136.79
689.05	22057.21
689.18	22326.37
689.32	21546.97
689.46	22073.59
689.59	22125.08
689.73	22295.94
689.86	21919.12
690.00	21675.70
690.13	21633.57
690.27	21488.46
690.41	21500.16
690.54	21315.26
690.68	21099.93
690.81	21172.49
690.95	20713.74
691.08	20823.75
691.22	21142.06
691.35	21069.50
691.49	20781.62
691.62	20985.24
691.76	20851.83
691.89	20793.32
692.03	20563.95
692.16	20402.45
692.30	20231.59
692.43	20182.44
692.57	20166.06
692.70	19955.41
692.84	20135.63
692.97	19634.75
693.11	19817.32
693.24	19697.95
693.38	19386.66
693.51	19524.75
693.65	19267.29
693.78	19342.19
693.92	19389.00
694.05	19295.38
694.19	19168.99
694.32	18998.13
694.45	18977.06
694.59	18890.46
694.72	18864.72
694.86	18878.76
694.99	18731.31
695.13	18665.77
695.26	18398.95
695.39	18235.11
695.53	18272.56
695.66	18228.09
695.80	18253.84
695.93	18256.18
696.07	18169.58
696.20	18183.62
696.33	18045.53
696.47	18090.00
696.60	17860.63
696.73	17673.39
696.87	17769.35
697.00	17502.53
697.14	17631.26
697.27	17568.06
697.40	17745.94
697.54	17451.03
697.67	17326.99
697.80	17378.48
697.94	16968.88
698.07	16713.77
698.21	16968.88
698.34	16833.13
698.47	16783.98
698.61	16648.23
698.74	16599.08
698.87	16723.13
699.01	16465.67
699.14	16386.09
699.27	16414.18
699.40	16449.28
699.54	16262.04
699.67	15896.92
699.80	16086.50
699.94	16018.63
700.07	16074.80
700.20	15974.16
700.34	15707.34
700.47	15922.66
700.60	15885.22
700.73	15941.39
700.87	15946.07
701.00	15260.29
701.13	15543.50
701.26	15309.44
701.40	15272.00
701.53	15360.94
701.66	15321.15
701.79	15236.89
701.93	15307.10
702.06	15026.24
702.19	14813.25
702.32	14991.13
702.46	14939.64
702.59	14752.40
702.72	14668.14
702.85	14506.64
702.99	14796.87
703.12	14682.18
703.25	14773.46
703.38	14328.76
703.51	14017.47
703.65	14417.70
703.78	14281.95
703.91	14307.69
704.04	13888.74
704.17	14139.18
704.31	13839.59
704.44	13628.94
704.57	13504.89
704.70	13380.84
704.83	13638.30
704.96	13540.00
705.10	13909.80
705.23	13745.97
>>>>>End Processed Spectral Data<<<<<
