SpectraSuite Data File
++++++++++++++++++++++++++++++++++++
Date: Fri Oct 25 10:43:53 EDT 2013
User: price-jones
Dark Spectrum Present: No
Reference Spectrum Present: No
Number of Sampled Component Spectra: 1
Spectrometers: USB2+H05261
Integration Time (usec): 100000 (USB2+H05261)
Spectra Averaged: 1 (USB2+H05261)
Boxcar Smoothing: 0 (USB2+H05261)
Correct for Electrical Dark: No (USB2+H05261)
Strobe/Lamp Enabled: No (USB2+H05261)
Correct for Detector Non-linearity: No (USB2+H05261)
Correct for Stray Light: No (USB2+H05261)
Number of Pixels in Processed Spectrum: 2048
>>>>>Begin Processed Spectral Data<<<<<
365.73	86.60
365.92	86.60
366.12	86.60
366.32	0.00
366.52	0.00
366.72	51.49
366.91	14.04
367.11	74.90
367.31	67.88
367.51	39.79
367.70	0.00
367.90	105.32
368.10	58.51
368.30	25.75
368.49	0.00
368.69	72.56
368.89	79.58
369.09	39.79
369.28	39.79
369.48	42.13
369.68	25.75
369.87	63.19
370.07	91.28
370.27	131.07
370.47	147.45
370.66	404.91
370.86	400.23
371.06	517.26
371.25	456.40
371.45	390.87
371.65	447.04
371.84	468.11
372.04	496.19
372.24	526.62
372.44	512.58
372.63	484.49
372.83	463.43
373.03	477.47
373.22	482.15
373.42	524.28
373.62	503.22
373.81	627.26
374.01	573.43
374.21	561.73
374.40	517.26
374.60	552.37
374.79	587.47
374.99	526.62
375.19	634.29
375.38	580.45
375.58	585.13
375.78	685.78
375.97	678.76
376.17	638.97
376.37	638.97
376.56	660.03
376.76	615.56
376.95	624.92
377.15	685.78
377.35	723.23
377.54	723.23
377.74	613.22
377.93	634.29
378.13	671.73
378.33	688.12
378.52	622.58
378.72	737.27
378.91	641.31
379.11	622.58
379.31	617.90
379.50	678.76
379.70	622.58
379.89	709.18
380.09	699.82
380.28	748.97
380.48	732.59
380.68	720.88
380.87	713.86
381.07	692.80
381.26	837.91
381.46	791.10
381.65	748.97
381.85	685.78
382.04	753.65
382.24	765.36
382.43	746.63
382.63	739.61
382.83	777.06
383.02	720.88
383.22	851.96
383.41	758.33
383.61	795.78
383.80	791.10
384.00	816.85
384.19	821.53
384.39	795.78
384.58	917.49
384.78	922.17
384.97	823.87
385.17	807.48
385.36	763.01
385.56	858.98
385.75	873.02
385.95	800.46
386.14	791.10
386.34	884.72
386.53	891.74
386.72	870.68
386.92	851.96
387.11	851.96
387.31	919.83
387.50	854.30
387.70	947.92
387.89	847.27
388.09	919.83
388.28	816.85
388.48	931.53
388.67	976.00
388.86	968.98
389.06	987.71
389.25	903.45
389.45	964.30
389.64	1069.62
389.84	1043.88
390.03	985.37
390.22	1046.22
390.42	1043.88
390.61	990.05
390.81	1036.86
391.00	1114.10
391.19	1135.16
391.39	1069.62
391.58	1123.46
391.78	985.37
391.97	1142.18
392.16	1060.26
392.36	1064.94
392.55	1053.24
392.75	1004.09
392.94	1048.56
393.13	1048.56
393.33	968.98
393.52	1097.71
393.71	1046.22
393.91	1067.28
394.10	1149.20
394.29	1151.54
394.49	1193.67
394.68	1221.76
394.88	1191.33
395.07	1322.40
395.26	1301.34
395.46	1254.53
395.65	1315.38
395.84	1263.89
396.04	1252.19
396.23	1254.53
396.42	1228.78
396.62	1179.63
396.81	1224.10
397.00	1158.57
397.19	1266.23
397.39	1371.55
397.58	1413.68
397.77	1401.98
397.97	1444.11
398.16	1413.68
398.35	1507.30
398.55	1572.84
398.74	1537.73
398.93	1570.50
399.12	1453.47
399.32	1523.69
399.51	1626.67
399.70	1666.46
399.90	1629.01
400.09	1565.82
400.28	1589.22
400.47	1575.18
400.67	1680.50
400.86	1689.87
401.05	1685.19
401.24	1753.06
401.44	1872.43
401.63	1804.55
401.82	1694.55
402.01	1797.53
402.21	1926.26
402.40	1860.73
402.59	1727.32
402.78	1755.40
402.97	1788.17
403.17	1771.79
403.36	1900.52
403.55	1867.75
403.74	1949.67
403.93	1930.94
404.13	1914.56
404.32	1870.09
404.51	1874.77
404.70	1898.17
404.89	1996.48
405.09	2083.08
405.28	2003.50
405.47	2054.99
405.66	2010.52
405.85	2108.82
406.05	1961.37
406.24	2106.48
406.43	2186.06
406.62	2125.21
406.81	2162.66
407.00	2059.67
407.20	2054.99
407.39	2221.17
407.58	2197.76
407.77	2289.04
407.96	2291.38
408.15	2242.23
408.34	2366.28
408.54	2277.34
408.73	2406.07
408.92	2363.94
409.11	2347.56
409.30	2300.75
409.49	2448.20
409.68	2408.41
409.87	2385.01
410.07	2424.80
410.26	2417.77
410.45	2417.77
410.64	2576.93
410.83	2567.57
411.02	2644.81
411.21	2715.02
411.40	2623.74
411.59	2663.53
411.78	2658.85
411.98	2726.72
412.17	2768.85
412.36	2771.19
412.55	2843.75
412.74	2841.41
412.93	2883.54
413.12	2874.18
413.31	2953.76
413.50	2904.60
413.69	3045.04
413.88	3056.74
414.07	3009.93
414.26	3089.51
414.45	3150.36
414.64	2979.50
414.83	3096.53
415.02	3122.27
415.22	3173.77
415.41	3293.13
415.60	3302.50
415.79	3316.54
415.98	3251.00
416.17	3258.03
416.36	3267.39
416.55	3349.31
416.74	3365.69
416.93	3346.97
417.12	3410.16
417.31	3382.07
417.50	3482.72
417.69	3548.25
417.88	3480.38
418.07	3482.72
418.26	3508.46
418.45	3599.74
418.64	3815.07
418.83	3681.66
419.02	3667.62
419.21	3801.03
419.39	3791.67
419.58	3669.96
419.77	3658.26
419.96	3714.43
420.15	3660.60
420.34	3815.07
420.53	3822.09
420.72	4046.79
420.91	3955.51
421.10	3974.23
421.29	3915.72
421.48	3873.59
421.67	4042.11
421.86	3943.80
422.05	4058.49
422.24	3850.18
422.43	3861.88
422.61	4049.13
422.80	4187.22
422.99	4037.42
423.18	4039.76
423.37	4072.53
423.56	4051.47
423.75	3988.27
423.94	4042.11
424.13	3786.99
424.32	3822.09
424.50	4074.87
424.69	4056.15
424.88	4112.32
425.07	4079.55
425.26	4002.32
425.45	3964.87
425.64	4058.49
425.83	4187.22
426.01	4093.60
426.20	4138.07
426.39	4208.28
426.58	4189.56
426.77	3969.55
426.96	4131.05
427.15	4032.74
427.33	4152.11
427.52	4081.89
427.71	4255.09
427.90	4297.22
428.09	4252.75
428.28	4320.63
428.46	4236.37
428.65	4210.62
428.84	4320.63
429.03	4280.84
429.22	4203.60
429.40	4243.39
429.59	4236.37
429.78	3960.19
429.97	3946.14
430.16	4180.20
430.34	4236.37
430.53	4329.99
430.72	4416.59
430.91	4327.65
431.10	4575.75
431.28	4517.23
431.47	4753.63
431.66	4772.35
431.85	4751.29
432.03	4814.48
432.22	4655.33
432.41	4877.68
432.60	4821.50
432.79	4657.67
432.97	5076.62
433.16	5013.43
433.35	4856.61
433.54	4819.16
433.72	4940.87
433.91	4800.44
434.10	4873.00
434.28	4959.60
434.47	4884.70
434.66	5053.22
434.85	5170.24
435.03	5207.69
435.22	5097.69
435.41	5245.14
435.59	5203.01
435.78	5235.78
435.97	5165.56
436.16	5270.89
436.34	5273.23
436.53	5186.63
436.72	5270.89
436.90	5242.80
437.09	5334.08
437.28	5245.14
437.46	5252.16
437.65	5380.89
437.84	5366.85
438.02	5172.58
438.21	5439.40
438.40	5355.15
438.58	5444.09
438.77	5558.77
438.96	5603.24
439.14	5671.12
439.33	5806.87
439.52	5900.49
439.70	5626.65
439.89	5816.23
440.08	5895.81
440.26	5914.53
440.45	5940.28
440.63	5891.13
440.82	6235.19
441.01	6118.16
441.19	6235.19
441.38	6317.11
441.57	6377.96
441.75	6345.19
441.94	6539.46
442.12	6345.19
442.31	6534.78
442.50	6424.77
442.68	6494.99
442.87	6626.06
443.05	6616.69
443.24	6366.26
443.43	6558.18
443.61	6801.60
443.80	7016.93
443.98	6539.46
444.17	6274.98
444.35	6827.34
444.54	6773.51
444.73	6572.22
444.91	6906.92
445.10	6583.93
445.28	6616.69
445.47	6691.59
445.65	6539.46
445.84	6759.47
446.02	6612.01
446.21	6710.32
446.39	6841.39
446.58	6832.02
446.77	6890.54
446.95	6703.29
447.14	6967.77
447.32	7019.27
447.51	6923.30
447.69	6684.57
447.88	6916.28
448.06	6984.16
448.25	7155.02
448.43	7009.90
448.62	6883.52
448.80	6890.54
448.99	7040.33
449.17	7021.61
449.36	6916.28
449.54	7126.93
449.73	7293.11
449.91	7272.04
450.10	7260.34
450.28	7431.20
450.46	7447.58
450.65	7323.54
450.83	7478.01
451.02	7513.12
451.20	7454.61
451.39	7370.35
451.57	7332.90
451.76	7220.55
451.94	7442.90
452.13	7368.01
452.31	7262.68
452.49	7316.51
452.68	7337.58
452.86	7487.37
453.05	7389.07
453.23	7438.22
453.42	7424.18
453.60	7562.27
453.78	7665.25
453.97	7730.79
454.15	7810.37
454.34	7646.53
454.52	7824.41
454.70	7899.31
454.89	7747.17
455.07	7756.54
455.26	8004.63
455.44	7854.84
455.62	7896.97
455.81	7992.93
455.99	8156.77
456.17	8107.62
456.36	8004.63
456.54	8070.17
456.73	8187.19
456.91	8442.31
457.09	8341.67
457.28	8547.64
457.46	8301.88
457.64	8285.50
457.83	8168.47
458.01	8297.20
458.19	8491.46
458.38	8236.35
458.56	8606.15
458.74	8521.89
458.93	8446.99
459.11	8489.12
459.29	8362.73
459.48	8470.40
459.66	8521.89
459.84	8638.92
460.03	8744.24
460.21	8779.35
460.39	8994.68
460.57	8905.74
460.76	8894.04
460.94	9011.06
461.12	8879.99
461.31	8922.12
461.49	8837.86
461.67	8957.23
461.85	8922.12
462.04	8971.27
462.22	9207.67
462.40	9263.84
462.59	9263.84
462.77	9149.15
462.95	9181.92
463.13	9090.64
463.32	9298.95
463.50	9233.41
463.68	9137.45
463.86	9301.29
464.05	9085.96
464.23	9172.56
464.41	9380.87
464.59	9062.55
464.78	9420.66
464.96	9301.29
465.14	9151.49
465.32	9432.36
465.50	9476.83
465.69	9502.58
465.87	9465.13
466.05	9476.83
466.23	9408.95
466.41	9518.96
466.60	9509.60
466.78	9430.02
466.96	9362.14
467.14	9570.45
467.32	9500.23
467.51	9755.35
467.69	9418.32
467.87	9935.57
468.05	9713.22
468.23	9886.42
468.41	9785.78
468.60	9781.10
468.78	9755.35
468.96	9797.48
469.14	10078.35
469.32	9881.74
469.50	9687.48
469.69	10066.64
469.87	9867.70
470.05	9930.89
470.23	10162.61
470.41	10097.07
470.59	10284.31
470.77	9987.07
470.95	10038.56
471.14	10464.54
471.32	10118.14
471.50	10593.26
471.68	10551.14
471.86	10574.54
472.04	10754.76
472.22	10757.10
472.40	10476.24
472.58	10677.52
472.77	10792.21
472.95	10754.76
473.13	11089.46
473.31	10700.93
473.49	10752.42
473.67	10899.87
473.85	10920.94
474.03	11267.34
474.21	11602.04
474.39	11363.30
474.57	11204.14
474.75	11428.84
474.93	11412.45
475.12	11506.07
475.30	11620.76
475.48	11578.63
475.66	11737.79
475.84	11403.09
476.02	11653.53
476.20	11566.93
476.38	11880.56
476.56	12196.53
476.74	12297.17
476.92	12098.23
477.10	12049.08
477.28	12479.74
477.46	12383.77
477.64	12706.77
477.82	12748.90
478.00	13001.68
478.18	12725.49
478.36	12683.36
478.54	13151.47
478.72	13181.90
478.90	13387.86
479.08	13151.47
479.26	13359.78
479.44	13935.55
479.62	13703.84
479.80	13582.13
479.98	13954.27
480.16	13980.02
480.34	14188.33
480.52	14066.62
480.70	14265.57
480.88	13942.57
481.06	14413.02
481.24	14473.87
481.41	14724.31
481.59	14857.72
481.77	14773.46
481.95	14698.56
482.13	15021.56
482.31	14700.90
482.49	15243.91
482.67	15356.25
482.85	15405.41
483.03	15679.25
483.21	15630.10
483.39	15639.46
483.57	15592.65
483.74	16006.92
483.92	15934.37
484.10	15805.64
484.28	16177.78
484.46	16362.69
484.64	16812.07
484.82	16393.11
485.00	16535.88
485.18	17060.16
485.35	17008.67
485.53	16489.07
485.71	16491.41
485.89	16903.35
486.07	16744.19
486.25	16716.11
486.43	17254.43
486.61	17263.79
486.78	17462.74
486.96	17877.01
487.14	18328.74
487.32	18111.07
487.50	18228.09
487.68	18380.23
487.85	19051.96
488.03	18789.82
488.21	18972.38
488.39	18808.54
488.57	18972.38
488.75	19070.68
488.92	19662.84
489.10	19513.05
489.28	19936.68
489.46	20016.26
489.64	20184.78
489.81	20641.18
489.99	20416.49
490.17	20900.98
490.35	20830.77
490.53	20893.96
490.70	20769.91
490.88	21170.15
491.06	21546.97
491.24	21418.24
491.41	21385.47
491.59	21146.74
491.77	21326.96
491.95	22019.76
492.13	21811.45
492.30	22043.17
492.48	22265.52
492.66	22274.88
492.84	22661.07
493.01	22532.34
493.19	22640.00
493.37	22904.48
493.54	23089.38
493.72	23297.69
493.90	23494.30
494.08	23463.87
494.25	23379.61
494.43	23777.50
494.61	23843.04
494.79	24418.81
494.96	24151.99
495.14	24016.24
495.32	24318.17
495.49	24292.42
495.67	24254.97
495.85	24961.81
496.02	24737.12
496.20	24563.92
496.38	25032.03
496.55	25338.64
496.73	25748.23
496.91	25549.29
497.09	25591.42
497.26	25649.93
497.44	26003.35
497.62	25577.37
497.79	25832.49
497.97	25862.92
498.14	26120.38
498.32	26082.93
498.50	26321.66
498.67	26883.39
498.85	26546.36
499.03	27012.12
499.20	26850.63
499.38	27274.26
499.56	27063.61
499.73	27171.28
499.91	27112.77
500.08	27527.04
500.26	26628.27
500.44	27271.92
500.61	27222.77
500.79	27056.59
500.97	27330.44
501.14	27866.42
501.32	27756.41
501.49	27768.12
501.67	27697.90
501.84	27920.25
502.02	28264.31
502.20	28343.89
502.37	28545.17
502.55	28489.00
502.72	28634.11
502.90	28421.13
503.07	28650.50
503.25	28760.50
503.43	28744.12
503.60	28657.52
503.78	28900.94
503.95	28926.68
504.13	29010.94
504.30	29240.31
504.48	29362.02
504.65	29785.66
504.83	30031.41
505.01	29706.08
505.18	29926.09
505.36	29860.55
505.53	30022.05
505.71	30338.02
505.88	30625.91
506.06	30132.06
506.23	30223.34
506.41	30558.03
506.58	30576.76
506.76	30625.91
506.93	30984.01
507.11	30143.76
507.28	30892.73
507.46	30326.32
507.63	30948.90
507.81	30941.88
507.98	30810.81
508.16	31084.65
508.33	31159.55
508.50	31271.90
508.68	31419.35
508.85	31955.33
509.03	31613.62
509.20	31700.22
509.38	31784.48
509.55	32208.11
509.73	32098.11
509.90	31938.95
510.08	32048.96
510.25	32198.75
510.42	32154.28
510.60	32395.35
510.77	32236.20
510.95	32369.61
511.12	32765.16
511.30	32638.77
511.47	32701.96
511.64	33046.02
511.82	33308.16
511.99	33010.92
512.17	32917.29
512.34	33160.71
512.51	33771.59
512.69	33329.23
512.86	33383.06
513.04	33528.17
513.21	33530.51
513.38	33221.56
513.56	33692.01
513.73	33572.64
513.90	33881.60
514.08	33951.81
514.25	33684.99
514.43	34029.05
514.60	33500.09
514.77	33907.34
514.95	34260.76
515.12	34225.65
515.29	34293.53
515.47	35093.99
515.64	35250.81
515.81	34794.40
515.99	34342.68
516.16	34450.35
516.33	34373.11
516.51	34263.10
516.68	33816.06
516.85	34120.33
517.03	34309.91
517.20	34658.65
517.37	35374.86
517.54	35246.13
517.72	34618.86
517.89	34539.29
518.06	34579.07
518.24	34890.37
518.41	35150.17
518.58	34941.86
518.75	35138.46
518.93	35580.82
519.10	35019.10
519.27	35868.71
519.45	35604.23
519.62	35747.00
519.79	36346.18
519.96	36191.70
520.14	36074.68
520.31	36229.15
520.48	36257.24
520.65	36645.77
520.83	36708.96
521.00	36788.54
521.17	36428.10
521.34	36737.05
521.52	36605.98
521.69	36711.30
521.86	36896.20
522.03	36739.39
522.20	37490.70
522.38	36975.78
522.55	37013.23
522.72	36931.31
522.89	36886.84
523.07	37092.81
523.24	37261.33
523.41	37628.79
523.58	37652.20
523.75	38122.65
523.92	37727.10
524.10	38361.38
524.27	38155.41
524.44	38129.67
524.61	38082.86
524.78	38436.28
524.96	38366.06
525.13	38279.46
525.30	38160.09
525.47	38370.74
525.64	38745.23
525.81	38508.83
525.98	38312.23
526.16	38132.01
526.33	37780.93
526.50	37890.93
526.67	37729.44
526.84	38326.27
527.01	38099.24
527.18	38281.80
527.36	38803.74
527.53	38911.41
527.70	39271.85
527.87	39332.70
528.04	39302.28
528.21	38890.34
528.38	38871.62
528.55	39435.69
528.72	39522.29
528.89	39812.51
529.07	39620.59
529.24	39269.51
529.41	39438.03
529.58	39290.57
529.75	39215.68
529.92	39452.07
530.09	39725.91
530.26	39875.71
530.43	40037.20
530.60	39541.01
530.77	39873.37
530.94	40334.45
531.11	40390.62
531.28	40446.80
531.46	40275.94
531.63	40685.53
531.80	40172.96
531.97	40423.39
532.14	39922.52
532.31	39873.37
532.48	40519.35
532.65	40205.72
532.82	40343.81
532.99	40378.92
533.16	40156.57
533.33	41083.42
533.50	41205.13
533.67	41055.34
533.84	40477.22
534.01	40818.94
534.18	40629.36
534.35	41216.83
534.52	40704.26
534.69	41132.57
534.86	41212.15
535.03	41010.87
535.20	41645.15
535.37	41525.78
535.54	41926.02
535.71	41406.42
535.88	41326.84
536.05	41537.49
536.22	41228.54
536.38	41675.58
536.55	41476.63
536.72	41263.64
536.89	40870.43
537.06	41387.69
537.23	41654.51
537.40	41743.45
537.57	41584.30
537.74	41691.96
537.91	42286.46
538.08	42216.24
538.25	41521.10
538.42	42314.55
538.59	42440.93
538.75	41345.56
538.92	41766.86
539.09	42150.71
539.26	41930.70
539.43	41867.50
539.60	42103.90
539.77	41813.67
539.94	42487.74
540.11	42284.12
540.28	41984.53
540.44	42178.79
540.61	42412.85
540.78	42192.84
540.95	42478.38
541.12	42373.06
541.29	42398.80
541.46	42447.96
541.62	42499.45
541.79	42836.48
541.96	42401.14
542.13	42913.72
542.30	42494.77
542.47	42532.22
542.63	42588.39
542.80	43051.81
542.97	42792.01
543.14	43232.04
543.31	43475.45
543.48	43641.63
543.64	43658.01
543.81	43601.84
543.98	43400.55
544.15	43786.74
544.32	43557.37
544.48	43995.05
544.65	43798.44
544.82	43952.92
544.99	43459.07
545.16	43707.16
545.32	43398.21
545.49	43756.32
545.66	44451.45
545.83	44559.12
546.00	43730.57
546.16	43927.17
546.33	43873.34
546.50	43545.67
546.67	43936.54
546.83	43819.51
547.00	44051.22
547.17	43578.43
547.34	43533.96
547.50	43859.30
547.67	44126.12
547.84	43920.15
548.00	44044.20
548.17	44512.31
548.34	44367.20
548.51	44861.05
548.67	44261.87
548.84	44465.50
549.01	43915.47
549.18	43880.36
549.34	44608.27
549.51	44809.56
549.68	44854.03
549.84	44706.57
550.01	44931.26
550.18	44905.52
550.34	44533.37
550.51	44631.68
550.68	44655.08
550.84	44238.47
551.01	44800.19
551.18	44488.90
551.34	44449.11
551.51	44807.22
551.68	45181.70
551.84	45305.75
552.01	45153.62
552.18	44772.11
552.34	44891.48
552.51	44744.02
552.68	44938.29
552.84	45420.44
553.01	45186.38
553.18	45067.02
553.34	45188.72
553.51	45062.33
553.67	45455.54
553.84	45614.70
554.01	45317.45
554.17	45586.61
554.34	45258.94
554.51	45556.19
554.67	45361.92
554.84	45741.09
555.00	45106.80
555.17	45280.00
555.33	45652.15
555.50	44999.14
555.67	45476.61
555.83	45441.50
556.00	45525.76
556.16	45598.32
556.33	45481.29
556.50	45668.53
556.66	45490.65
556.83	45511.72
556.99	45434.48
557.16	45853.44
557.32	45586.61
557.49	45656.83
557.65	45422.78
557.82	45654.49
557.98	45614.70
558.15	45406.39
558.32	46080.47
558.48	45027.23
558.65	45567.89
558.81	45397.03
558.98	45516.40
559.14	46017.27
559.31	45865.14
559.47	45617.04
559.64	46181.11
559.80	45944.72
559.97	46143.66
560.13	45642.79
560.30	45977.48
560.46	45944.72
560.63	46377.72
560.79	46176.43
560.96	45820.67
561.12	46117.92
561.29	46026.63
561.45	45638.11
561.61	45677.90
561.78	46092.17
561.94	45490.65
562.11	45839.39
562.27	45640.45
562.44	46347.29
562.60	46206.86
562.77	46010.25
562.93	46492.40
563.10	46347.29
563.26	46066.42
563.42	46426.87
563.59	46160.05
563.75	45996.21
563.92	46349.63
564.08	46195.15
564.24	46522.83
564.41	46047.70
564.57	46607.09
564.74	46202.18
564.90	46099.19
565.07	46134.30
565.23	45961.10
565.39	46192.81
565.56	46410.48
565.72	46326.22
565.88	46239.62
566.05	46202.18
566.21	46141.32
566.38	46036.00
566.54	46433.89
566.70	46445.59
566.87	46375.37
567.03	46595.38
567.19	46817.74
567.36	46312.18
567.52	46206.86
567.68	46822.42
567.85	46260.69
568.01	46696.03
568.17	46548.57
568.34	46525.17
568.50	46476.02
568.66	46068.76
568.83	46663.26
568.99	46440.91
569.15	46490.06
569.32	46087.49
569.48	46384.74
569.64	46745.18
569.81	46335.59
569.97	46302.82
570.13	46457.29
570.30	46087.49
570.46	46459.63
570.62	46511.13
570.78	46089.83
570.95	46146.00
571.11	46368.35
571.27	46248.99
571.43	46387.08
571.60	46497.08
571.76	46073.45
571.92	46499.42
572.09	46309.84
572.25	46511.13
572.41	46721.77
572.57	46801.35
572.74	47047.11
572.90	46529.85
573.06	47325.63
573.22	46813.05
573.38	46450.27
573.55	46321.54
573.71	46712.41
573.87	46894.97
574.03	46529.85
574.20	46859.87
574.36	47009.66
574.52	46955.83
574.68	46440.91
574.84	46696.03
575.01	46768.58
575.17	46506.44
575.33	46251.33
575.49	46637.51
575.65	46588.36
575.82	46342.61
575.98	46480.70
576.14	47002.64
576.30	47009.66
576.46	46452.61
576.62	46499.42
576.79	46459.63
576.95	46564.96
577.11	46707.73
577.27	47035.41
577.43	46852.84
577.59	46473.68
577.75	46082.81
577.92	46110.89
578.08	46068.76
578.24	46450.27
578.40	46405.80
578.56	46834.12
578.72	46646.88
578.88	46953.49
579.04	46473.68
579.21	46618.79
579.37	46747.52
579.53	46604.75
579.69	46454.95
579.85	46663.26
580.01	46946.47
580.17	46452.61
580.33	46663.26
580.49	46653.90
580.65	46724.11
580.82	46784.97
580.98	46752.20
581.14	46398.78
581.30	46934.76
581.46	46576.66
581.62	46897.31
581.78	46686.67
581.94	47079.88
582.10	46845.82
582.26	47000.30
582.42	46897.31
582.58	46869.23
582.74	46705.39
582.90	46934.76
583.06	47035.41
583.22	46770.93
583.38	47105.62
583.54	47157.11
583.70	46967.53
583.86	47000.30
584.02	46803.69
584.18	46834.12
584.34	46794.33
584.50	46738.16
584.66	46873.91
584.82	46941.78
584.98	46944.12
585.14	46756.88
585.30	46527.51
585.46	46473.68
585.62	46602.41
585.78	46611.77
585.94	46499.42
586.10	46838.80
586.26	46670.28
586.42	46621.13
586.58	46852.84
586.74	46742.84
586.90	46670.28
587.06	46635.17
587.22	46822.42
587.38	46777.95
587.54	47178.18
587.70	46642.20
587.86	46597.73
588.02	46520.49
588.18	46761.56
588.34	46506.44
588.49	45918.97
588.65	46043.02
588.81	46396.44
588.97	46052.38
589.13	45949.40
589.29	45844.07
589.45	46457.29
589.61	46604.75
589.77	46593.04
589.93	46674.96
590.08	47201.58
590.24	46859.87
590.40	47016.68
590.56	47353.72
590.72	46911.36
590.88	46401.12
591.04	46768.58
591.20	47136.05
591.35	46787.31
591.51	46754.54
591.67	47222.65
591.83	46827.10
591.99	46340.27
592.15	46845.82
592.31	46616.45
592.46	47253.08
592.62	46852.84
592.78	46726.46
592.94	47037.75
593.10	46986.25
593.26	47201.58
593.41	46988.60
593.57	46665.60
593.73	46878.59
593.89	47035.41
594.05	46761.56
594.20	46703.05
594.36	47255.42
594.52	46719.43
594.68	46672.62
594.84	46602.41
594.99	46759.22
595.15	46958.17
595.31	46983.91
595.47	46719.43
595.62	46848.16
595.78	46789.65
595.94	47311.59
596.10	46642.20
596.25	47009.66
596.41	47037.75
596.57	46639.86
596.73	46827.10
596.88	46770.93
597.04	46965.19
597.20	46820.08
597.36	47054.13
597.51	47079.88
597.67	47023.70
597.83	46951.15
597.99	46983.91
598.14	46672.62
598.30	46557.94
598.46	46686.67
598.61	47030.72
598.77	46417.50
598.93	47056.47
599.09	47026.04
599.24	47370.10
599.40	47040.09
599.56	46953.49
599.71	47000.30
599.87	47051.79
600.03	46698.37
600.18	46721.77
600.34	47100.94
600.50	46876.25
600.65	46672.62
600.81	47150.09
600.97	47079.88
601.12	46955.83
601.28	46986.25
601.44	46869.23
601.59	46366.01
601.75	46909.02
601.91	46759.22
602.06	46829.44
602.22	47166.48
602.37	46616.45
602.53	46974.55
602.69	47402.87
602.84	46780.29
603.00	46637.51
603.16	46932.42
603.31	46946.47
603.47	47107.96
603.62	46546.23
603.78	46700.71
603.94	47098.60
604.09	47334.99
604.25	46817.74
604.40	46789.65
604.56	46686.67
604.71	46836.46
604.87	46864.55
605.03	47246.05
605.18	46691.35
605.34	46752.20
605.49	46469.00
605.65	46806.03
605.80	46864.55
605.96	46487.72
606.12	46988.60
606.27	46728.80
606.43	46616.45
606.58	46796.67
606.74	46876.25
606.89	46487.72
607.05	46932.42
607.20	46958.17
607.36	46487.72
607.51	46593.04
607.67	46796.67
607.82	46564.96
607.98	46506.44
608.13	46827.10
608.29	46368.35
608.44	45942.38
608.60	46340.27
608.75	46258.35
608.91	46564.96
609.06	46354.31
609.22	46614.11
609.37	46344.95
609.53	46653.90
609.68	46291.12
609.84	46501.76
609.99	46508.79
610.15	45900.25
610.30	46349.63
610.46	46190.47
610.61	46431.55
610.76	46061.74
610.92	45979.82
611.07	46181.11
611.23	46253.67
611.38	46274.73
611.54	46160.05
611.69	45989.19
611.84	45265.96
612.00	46000.89
612.15	45783.22
612.31	46258.35
612.46	46127.28
612.62	46117.92
612.77	45771.52
612.92	45958.76
613.08	45930.67
613.23	46138.98
613.39	45272.98
613.54	45354.90
613.69	45837.05
613.85	45415.76
614.00	45703.64
614.15	45773.86
614.31	45818.33
614.46	45942.38
614.62	45694.28
614.77	45783.22
614.92	45675.55
615.08	45745.77
615.23	45378.31
615.38	45525.76
615.54	45558.53
615.69	45415.76
615.84	45240.21
616.00	45897.91
616.15	45698.96
616.30	45574.91
616.46	45427.46
616.61	44701.89
616.76	45071.70
616.92	44781.47
617.07	45256.60
617.22	44898.50
617.37	45312.77
617.53	45581.93
617.68	45881.52
617.83	45902.59
617.99	45146.59
618.14	44884.45
618.29	44854.03
618.45	44720.62
618.60	44847.00
618.75	44549.76
618.90	44783.81
619.06	44678.49
619.21	45015.52
619.36	45560.87
619.51	45284.68
619.67	44699.55
619.82	44683.17
619.97	44727.64
620.12	44495.92
620.28	43929.51
620.43	44692.53
620.58	44896.16
620.73	44861.05
620.89	44713.59
621.04	44720.62
621.19	44809.56
621.34	45006.16
621.49	44446.77
621.65	44790.83
621.80	44612.95
621.95	44582.52
622.10	44432.73
622.25	44371.88
622.41	44240.81
622.56	44561.46
622.71	44685.51
622.86	44315.70
623.01	44615.29
623.16	44217.40
623.32	44039.52
623.47	44273.57
623.62	44133.14
623.77	43945.90
623.92	44406.98
624.07	44250.17
624.23	43636.95
624.38	44009.09
624.53	43667.37
624.68	44271.23
624.83	44069.95
624.98	44119.10
625.13	44095.69
625.29	43585.46
625.44	43611.20
625.59	43639.29
625.74	43194.59
625.89	43695.46
626.04	43428.64
626.19	43503.54
626.34	43835.89
626.49	43714.19
626.65	43849.94
626.80	43723.55
626.95	44018.46
627.10	43674.40
627.25	43555.03
627.40	42988.62
627.55	42672.65
627.70	42857.55
627.85	43016.71
628.00	43140.75
628.15	43260.12
628.30	43320.98
628.45	43491.83
628.60	43225.01
628.76	43168.84
628.91	43323.32
629.06	42696.05
629.21	42726.48
629.36	42656.26
629.51	42927.77
629.66	42958.19
629.81	42806.06
629.96	42916.06
630.11	43042.45
630.26	43159.48
630.41	43365.45
630.56	43044.79
630.71	42948.83
630.86	43047.13
631.01	42698.39
631.16	42239.65
631.31	42490.09
631.46	42190.50
631.61	42682.01
631.76	42564.98
631.91	42281.78
632.06	42829.46
632.21	42763.93
632.36	42895.00
632.51	42312.20
632.66	42314.55
632.81	42122.62
632.96	42478.38
633.10	42335.61
633.25	42499.45
633.40	42440.93
633.55	42405.83
633.70	42218.58
633.85	42562.64
634.00	42520.51
634.15	42366.04
634.30	42192.84
634.45	42040.70
634.60	42139.00
634.75	42534.56
634.90	42024.32
635.05	42106.24
635.19	41872.18
635.34	41860.48
635.49	41755.16
635.64	42014.96
635.79	42080.49
635.94	42054.75
636.09	41771.54
636.24	41394.71
636.39	41263.64
636.53	41556.21
636.68	41888.57
636.83	41647.49
636.98	41790.27
637.13	41869.84
637.28	42101.56
637.43	41951.76
637.57	41883.89
637.72	41497.70
637.87	41081.08
638.02	41326.84
638.17	41675.58
638.32	41642.81
638.46	41918.99
638.61	41265.99
638.76	41008.53
638.91	41144.28
639.06	41326.84
639.20	41642.81
639.35	41783.24
639.50	41368.97
639.65	41228.54
639.80	40549.78
639.94	41090.44
640.09	40917.25
640.24	40889.16
640.39	40638.72
640.54	40804.90
640.68	41137.26
640.83	41174.70
640.98	40451.48
641.13	41244.92
641.27	41392.37
641.42	40577.87
641.57	40336.79
641.72	40739.36
641.86	40355.52
642.01	40194.02
642.16	40306.37
642.31	40318.07
642.45	40463.18
642.60	39910.82
642.75	40519.35
642.90	40521.69
643.04	40297.00
643.19	40774.47
643.34	40369.56
643.48	40095.72
643.63	40306.37
643.78	40252.53
643.93	40446.80
644.07	40371.90
644.22	40074.65
644.37	40332.11
644.51	40165.93
644.66	40116.78
644.81	40465.52
644.95	40165.93
645.10	40339.13
645.25	40512.33
645.39	39995.07
645.54	40098.06
645.69	40137.85
645.83	39817.19
645.98	39739.96
646.13	39674.42
646.27	40149.55
646.42	39924.86
646.57	39550.37
646.71	39477.82
646.86	39765.70
647.00	39854.64
647.15	39941.24
647.30	40044.23
647.44	39716.55
647.59	39819.53
647.74	39335.04
647.88	39517.60
648.03	39728.25
648.17	39840.60
648.32	39484.84
648.47	39681.44
648.61	39407.60
648.76	40119.12
648.90	39573.78
649.05	39475.48
649.20	39232.06
649.34	39480.16
649.49	39171.21
649.63	38880.98
649.78	39213.34
649.92	39253.12
650.07	39655.70
650.21	39461.43
650.36	39501.22
650.51	39136.10
650.65	39533.99
650.80	39690.80
650.94	39615.91
651.09	39203.97
651.23	39112.69
651.38	39049.50
651.52	39000.35
651.67	38550.96
651.81	38878.64
651.96	38625.86
652.10	38733.53
652.25	38979.28
652.39	38749.91
652.54	39077.58
652.68	38976.94
652.83	38581.39
652.97	39030.77
653.12	39201.63
653.26	38637.56
653.41	38813.10
653.55	38476.07
653.70	38698.42
653.84	38972.26
653.99	38471.39
654.13	38565.01
654.27	38225.63
654.42	38178.82
654.56	38574.37
654.71	38813.10
654.85	38085.20
655.00	38302.87
655.14	38298.19
655.29	37563.26
655.43	38029.02
655.57	37860.51
655.72	37951.79
655.86	38148.39
656.01	37385.38
656.15	37092.81
656.30	37607.73
656.44	37743.48
656.58	37530.49
656.73	37640.50
656.87	37818.38
657.01	37553.90
657.16	38148.39
657.30	37366.65
657.45	37174.73
657.59	37467.30
657.73	37720.07
657.88	37855.82
658.02	37799.65
658.16	37881.57
658.31	37993.92
658.45	37691.99
658.60	37684.97
658.74	37720.07
658.88	37780.93
659.03	37273.03
659.17	37408.78
659.31	37029.62
659.46	37301.12
659.60	37392.40
659.74	37537.51
659.89	37151.32
660.03	37200.47
660.17	36996.85
660.32	37296.44
660.46	37371.33
660.60	36945.36
660.74	37027.28
660.89	36299.37
661.03	36570.87
661.17	36704.28
661.32	36849.39
661.46	36676.19
661.60	36549.81
661.74	36334.48
661.89	36498.31
662.03	36631.72
662.17	36622.36
662.31	36566.19
662.46	36723.01
662.60	36547.47
662.74	36053.61
662.88	36542.78
663.03	36210.43
663.17	36163.62
663.31	36107.44
663.45	35866.37
663.60	36306.39
663.74	36032.55
663.88	35978.72
664.02	35667.42
664.17	35833.60
664.31	35768.07
664.45	35482.52
664.59	35374.86
664.73	35629.98
664.88	35697.85
665.02	35409.96
665.16	34962.92
665.30	35321.02
665.44	35342.09
665.59	35119.74
665.73	35306.98
665.87	35051.86
666.01	35309.32
666.15	34714.83
666.29	35517.63
666.44	35033.14
666.58	35243.79
666.72	35211.02
666.86	34930.16
667.00	34855.26
667.14	34370.77
667.28	34696.10
667.43	34843.56
667.57	34668.02
667.71	34831.85
667.85	34319.28
667.99	34333.32
668.13	34466.73
668.27	34649.29
668.41	34698.44
668.56	34258.42
668.70	34457.37
668.84	34054.79
668.98	33766.91
669.12	34075.86
669.26	33862.87
669.40	33816.06
669.54	33362.00
669.68	33462.64
669.82	33483.70
669.96	33689.67
670.10	33205.18
670.25	33528.17
670.39	33177.09
670.53	33277.74
670.67	33392.42
670.81	33591.37
670.95	32994.53
671.09	33352.63
671.23	32851.76
671.37	33174.75
671.51	32816.65
671.65	32673.88
671.79	32814.31
671.93	32739.41
672.07	33085.81
672.21	32549.83
672.35	32610.68
672.49	32730.05
672.63	32811.97
672.77	32666.86
672.91	31840.65
673.05	32039.59
673.19	32294.71
673.33	31901.50
673.47	31393.61
673.61	31789.16
673.75	31962.36
673.89	31835.97
674.03	31571.49
674.17	31751.71
674.31	31957.67
674.45	31637.02
674.59	31461.48
674.73	31534.04
674.87	31435.74
675.01	31131.47
675.15	31454.46
675.29	31185.30
675.43	31077.63
675.56	31302.32
675.70	30899.75
675.84	30555.69
675.98	30204.61
676.12	30955.93
676.26	30368.45
676.40	30614.21
676.54	30888.05
676.68	30490.16
676.82	29982.26
676.96	30017.37
677.10	30265.47
677.23	30061.84
677.37	30192.91
677.51	30075.88
677.65	29633.52
677.79	29240.31
677.93	29670.97
678.07	29266.06
678.21	28851.78
678.34	29448.62
678.48	28648.16
678.62	29118.60
678.76	28774.55
678.90	28584.96
679.04	28802.63
679.18	28416.44
679.31	28666.88
679.45	28648.16
679.59	28297.08
679.73	28629.43
679.87	28716.03
680.00	28070.04
680.14	28219.84
680.28	28423.47
680.42	27889.82
680.56	27889.82
680.70	27772.80
680.83	27754.07
680.97	27936.63
681.11	27372.57
681.25	27402.99
681.39	27601.94
681.52	27487.25
681.66	27218.09
681.80	27150.21
681.94	27339.80
682.07	27023.83
682.21	26567.42
682.35	26885.73
682.49	26979.36
682.62	26869.35
682.76	26574.44
682.90	26415.29
683.04	26679.77
683.17	26118.04
683.31	26218.68
683.45	26244.43
683.59	25741.21
683.72	25891.01
683.86	26113.36
684.00	25923.77
684.13	25905.05
684.27	25600.78
684.41	25656.95
684.55	25439.28
684.68	25500.14
684.82	25142.03
684.96	25469.71
685.09	25132.67
685.23	24872.87
685.37	24790.95
685.50	25209.91
685.64	24865.85
685.78	24734.78
685.91	24570.94
686.05	24592.01
686.19	23784.52
686.32	23988.15
686.46	23669.84
686.60	23403.02
686.73	23501.32
686.87	23431.10
687.01	23454.51
687.14	23096.41
687.28	23222.80
687.42	23159.60
687.55	23398.34
687.69	23290.67
687.82	22958.31
687.96	23316.42
688.10	23117.47
688.23	22885.76
688.37	22932.57
688.50	22656.39
688.64	23012.15
688.78	22679.79
688.91	22511.27
689.05	22513.61
689.18	22080.61
689.32	22171.89
689.46	22342.75
689.59	22298.28
689.73	21968.27
689.86	22384.88
690.00	21582.08
690.13	21790.39
690.27	21495.48
690.41	21841.88
690.54	21266.11
690.68	21493.14
690.81	21151.42
690.95	21451.01
691.08	21369.09
691.22	21254.40
691.35	21530.59
691.49	21301.22
691.62	21219.30
691.76	20833.11
691.89	20872.90
692.03	20638.84
692.16	20900.98
692.30	20142.65
692.43	20751.19
692.57	20290.10
692.70	20470.33
692.84	20222.23
692.97	20025.62
693.11	19814.98
693.24	19711.99
693.38	19793.91
693.51	19889.87
693.65	19924.98
693.78	19658.16
693.92	19604.33
694.05	19440.49
694.19	19431.13
694.32	19206.44
694.45	19417.08
694.59	19353.89
694.72	19089.41
694.86	19096.43
694.99	18944.30
695.13	18834.29
695.26	19019.19
695.39	18941.96
695.53	18953.66
695.66	18668.11
695.80	18504.28
695.93	18380.23
696.07	18583.85
696.20	18260.86
696.33	18597.90
696.47	18380.23
696.60	18012.76
696.73	18214.05
696.87	17935.53
697.00	18157.88
697.14	17638.28
697.27	17792.75
697.40	17341.03
697.54	17420.61
697.67	17158.47
697.80	17516.57
697.94	17104.64
698.07	17394.86
698.21	17444.01
698.34	17369.12
698.47	17172.51
698.61	17177.19
698.74	16840.15
698.87	17198.26
699.01	16748.87
699.14	16755.90
699.27	16489.07
699.40	16489.07
699.54	16489.07
699.67	16507.80
699.80	16175.44
699.94	16367.37
700.07	16233.96
700.20	16266.72
700.34	16189.49
700.47	16098.20
700.60	16189.49
700.73	15925.00
700.87	15927.35
701.00	15793.94
701.13	15639.46
701.26	15449.88
701.40	15503.71
701.53	15541.16
701.66	15709.68
701.79	15227.53
701.93	15393.70
702.06	14916.23
702.19	15030.92
702.32	14876.44
702.46	14925.60
702.59	15066.03
702.72	15035.60
702.85	14820.27
702.99	14885.81
703.12	14693.88
703.25	14703.25
703.38	14555.79
703.51	14356.85
703.65	14471.53
703.78	14415.36
703.91	13975.34
704.04	14132.15
704.17	14223.44
704.31	14174.28
704.44	13916.83
704.57	14202.37
704.70	13977.68
704.83	14066.62
704.96	13710.86
705.10	13825.54
705.23	13593.83
>>>>>End Processed Spectral Data<<<<<
