SpectraSuite Data File
++++++++++++++++++++++++++++++++++++
Date: Fri Oct 25 10:44:36 EDT 2013
User: price-jones
Dark Spectrum Present: No
Reference Spectrum Present: No
Number of Sampled Component Spectra: 1
Spectrometers: USB2+H05261
Integration Time (usec): 100000 (USB2+H05261)
Spectra Averaged: 1 (USB2+H05261)
Boxcar Smoothing: 0 (USB2+H05261)
Correct for Electrical Dark: No (USB2+H05261)
Strobe/Lamp Enabled: No (USB2+H05261)
Correct for Detector Non-linearity: No (USB2+H05261)
Correct for Stray Light: No (USB2+H05261)
Number of Pixels in Processed Spectrum: 2048
>>>>>Begin Processed Spectral Data<<<<<
365.73	149.79
365.92	149.79
366.12	149.79
366.32	60.85
366.52	0.00
366.72	58.51
366.91	21.06
367.11	21.06
367.31	30.43
367.51	102.98
367.70	63.19
367.90	23.41
368.10	58.51
368.30	39.79
368.49	0.00
368.69	0.00
368.89	37.45
369.09	0.00
369.28	44.47
369.48	42.13
369.68	91.28
369.87	93.62
370.07	46.81
370.27	102.98
370.47	220.01
370.66	360.44
370.86	428.32
371.06	440.02
371.25	472.79
371.45	433.00
371.65	416.62
371.84	369.80
372.04	348.74
372.24	507.90
372.44	442.36
372.63	498.53
372.83	505.56
373.03	519.60
373.22	535.98
373.42	521.94
373.62	470.45
373.81	512.58
374.01	594.50
374.21	545.34
374.40	547.69
374.60	538.32
374.79	543.00
374.99	505.56
375.19	554.71
375.38	550.03
375.58	568.75
375.78	533.64
375.97	512.58
376.17	592.16
376.37	489.17
376.56	559.39
376.76	582.79
376.95	589.82
377.15	617.90
377.35	589.82
377.54	608.54
377.74	620.24
377.93	538.32
378.13	564.07
378.33	636.63
378.52	610.88
378.72	657.69
378.91	552.37
379.11	631.94
379.31	566.41
379.50	589.82
379.70	664.71
379.89	655.35
380.09	582.79
380.28	653.01
380.48	585.13
380.68	664.71
380.87	645.99
381.07	631.94
381.26	706.84
381.46	702.16
381.65	617.90
381.85	678.76
382.04	699.82
382.24	641.31
382.43	655.35
382.63	667.05
382.83	664.71
383.02	741.95
383.22	653.01
383.41	662.37
383.61	690.46
383.80	645.99
384.00	648.33
384.19	697.48
384.39	720.88
384.58	744.29
384.78	823.87
384.97	746.63
385.17	755.99
385.36	770.04
385.56	744.29
385.75	786.42
385.95	795.78
386.14	767.70
386.34	840.25
386.53	753.65
386.72	863.66
386.92	826.21
387.11	931.53
387.31	777.06
387.50	812.17
387.70	905.79
387.89	816.85
388.09	849.61
388.28	805.14
388.48	793.44
388.67	833.23
388.86	919.83
389.06	922.17
389.25	933.87
389.45	887.06
389.64	858.98
389.84	926.85
390.03	938.55
390.22	1048.56
390.42	924.51
390.61	910.47
390.81	887.06
391.00	931.53
391.19	959.62
391.39	987.71
391.58	1022.81
391.78	1022.81
391.97	908.13
392.16	971.32
392.36	978.34
392.55	915.15
392.75	891.74
392.94	926.85
393.13	973.66
393.33	1043.88
393.52	978.34
393.71	1114.10
393.91	940.90
394.10	980.68
394.29	1034.52
394.49	1034.52
394.68	1111.75
394.88	1118.78
395.07	1186.65
395.26	1107.07
395.46	1088.35
395.65	1130.48
395.84	1217.08
396.04	1186.65
396.23	1086.01
396.42	1146.86
396.62	1111.75
396.81	1153.88
397.00	1158.57
397.19	1144.52
397.39	1193.67
397.58	1245.16
397.77	1231.12
397.97	1322.40
398.16	1331.76
398.35	1238.14
398.55	1214.74
398.74	1287.29
398.93	1306.02
399.12	1373.89
399.32	1324.74
399.51	1327.08
399.70	1387.94
399.90	1437.09
400.09	1507.30
400.28	1350.49
400.47	1341.13
400.67	1490.92
400.86	1397.30
401.05	1455.81
401.24	1444.11
401.44	1509.65
401.63	1521.35
401.82	1507.30
402.01	1378.58
402.21	1504.96
402.40	1476.88
402.59	1631.35
402.78	1568.16
402.97	1544.75
403.17	1530.71
403.36	1701.57
403.55	1650.08
403.74	1757.74
403.93	1631.35
404.13	1645.40
404.32	1636.03
404.51	1619.65
404.70	1764.76
404.89	1687.53
405.09	1715.61
405.28	1652.42
405.47	1703.91
405.66	1764.76
405.85	1710.93
406.05	1694.55
406.24	1790.51
406.43	1816.26
406.62	1764.76
406.81	1923.92
407.00	1830.30
407.20	1834.98
407.39	1811.57
407.58	1874.77
407.77	1886.47
407.96	1898.17
408.15	1912.22
408.34	1970.73
408.54	1980.09
408.73	2031.58
408.92	2047.97
409.11	2078.40
409.30	2033.93
409.49	1949.67
409.68	2165.00
409.87	2106.48
410.07	2111.16
410.26	2106.48
410.45	2115.84
410.64	2167.34
410.83	2228.19
411.02	2296.07
411.21	2321.81
411.40	2258.62
411.59	2314.79
411.78	2225.85
411.98	2352.24
412.17	2289.04
412.36	2366.28
412.55	2399.05
412.74	2459.90
412.93	2349.90
413.12	2401.39
413.31	2544.16
413.50	2375.64
413.69	2490.33
413.88	2574.59
414.07	2560.55
414.26	2567.57
414.45	2588.63
414.64	2504.37
414.83	2738.43
415.02	2778.22
415.22	2693.96
415.41	2815.66
415.60	2825.03
415.79	2792.26
415.98	2869.50
416.17	2862.48
416.36	2965.46
416.55	2834.39
416.74	2953.76
416.93	2846.09
417.12	2855.45
417.31	3059.08
417.50	2995.89
417.69	3091.85
417.88	3213.56
418.07	3000.57
418.26	3267.39
418.45	3190.15
418.64	3201.85
418.83	3361.01
419.02	3077.80
419.21	3171.43
419.39	3379.73
419.58	3225.26
419.77	3234.62
419.96	3183.13
420.15	3339.94
420.34	3185.47
420.53	3372.71
420.72	3550.59
420.91	3386.76
421.10	3328.24
421.29	3480.38
421.48	3454.63
421.67	3431.23
421.86	3489.74
422.05	3328.24
422.24	3379.73
422.43	3407.82
422.61	3424.20
422.80	3459.31
422.99	3515.48
423.18	3478.04
423.37	3592.72
423.56	3637.19
423.75	3541.23
423.94	3478.04
424.13	3368.03
424.32	3386.76
424.50	3665.28
424.69	3705.07
424.88	3632.51
425.07	3606.77
425.26	3468.67
425.45	3452.29
425.64	3398.46
425.83	3655.92
426.01	3716.77
426.20	3688.68
426.39	3618.47
426.58	3576.34
426.77	3648.90
426.96	3585.70
427.15	3688.68
427.33	3674.64
427.52	3665.28
427.71	3625.49
427.90	3672.30
428.09	3915.72
428.28	3805.71
428.46	3826.78
428.65	3786.99
428.84	3880.61
429.03	3964.87
429.22	3763.58
429.40	3634.85
429.59	3808.05
429.78	3719.11
429.97	3754.22
430.16	3639.53
430.34	3913.38
430.53	3754.22
430.72	3953.16
430.91	3810.39
431.10	4018.70
431.28	4065.51
431.47	4028.06
431.66	4100.62
431.85	4011.68
432.03	4198.92
432.22	4243.39
432.41	4168.49
432.60	4196.58
432.79	4306.59
432.97	4397.87
433.16	4374.46
433.35	4327.65
433.54	4374.46
433.72	4372.12
433.91	4311.27
434.10	4135.73
434.28	4287.86
434.47	4442.34
434.66	4341.69
434.85	4285.52
435.03	4730.22
435.22	4397.87
435.41	4496.17
435.59	4491.49
435.78	4774.69
435.97	4552.34
436.16	4564.04
436.34	4723.20
436.53	4671.71
436.72	4660.01
436.90	4599.15
437.09	4634.26
437.28	4704.48
437.46	4636.60
437.65	4650.64
437.84	4737.24
438.02	4580.43
438.21	4716.18
438.40	4615.54
438.58	4809.80
438.77	5025.13
438.96	4882.36
439.14	4926.83
439.33	5060.24
439.52	4950.23
439.70	5097.69
439.89	5036.83
440.08	5207.69
440.26	5116.41
440.45	5298.97
440.63	5387.91
440.82	5481.53
441.01	5214.71
441.19	5397.28
441.38	5378.55
441.57	5465.15
441.75	5458.13
441.94	5607.92
442.12	5621.97
442.31	5776.44
442.50	5762.40
442.68	5720.27
442.87	5654.73
443.05	5727.29
443.24	5916.87
443.43	5781.12
443.61	5902.83
443.80	5942.62
443.98	5678.14
444.17	5504.94
444.35	5860.70
444.54	5900.49
444.73	6022.20
444.91	5809.21
445.10	5664.10
445.28	5933.26
445.47	5703.89
445.65	5767.08
445.84	5797.51
446.02	6061.99
446.21	5891.13
446.39	5930.92
446.58	5893.47
446.77	5916.87
446.95	5865.38
447.14	5849.00
447.32	5989.43
447.51	5844.32
447.69	6057.31
447.88	6012.84
448.06	6122.84
448.25	6022.20
448.43	5956.66
448.62	6059.65
448.80	6047.94
448.99	6221.14
449.17	6274.98
449.36	6106.46
449.54	6420.09
449.73	6342.85
449.91	6544.14
450.10	6338.17
450.28	6506.69
450.46	6415.41
450.65	6328.81
450.83	6480.94
451.02	6415.41
451.20	6544.14
451.39	6663.51
451.57	6513.71
451.76	6387.32
451.94	6513.71
452.13	6675.21
452.31	6590.95
452.49	6448.18
452.68	6630.74
452.86	6436.47
453.05	6654.14
453.23	6576.91
453.42	6525.41
453.60	6597.97
453.78	6670.53
453.97	6523.07
454.15	6773.51
454.34	6677.55
454.52	6832.02
454.70	6679.89
454.89	6855.43
455.07	6778.19
455.26	7033.31
455.44	7061.40
455.62	7094.16
455.81	6972.46
455.99	7140.97
456.17	7026.29
456.36	7148.00
456.54	7225.23
456.73	7220.55
456.91	7279.07
457.09	7321.20
457.28	7405.46
457.46	7272.04
457.64	7407.80
457.83	7248.64
458.01	7211.19
458.19	7396.09
458.38	7288.43
458.56	7531.84
458.74	7400.77
458.93	7648.87
459.11	7382.05
459.29	7475.67
459.48	7552.91
459.66	7454.61
459.84	7604.40
460.03	7712.07
460.21	7775.26
460.39	7758.88
460.57	7529.50
460.76	7721.43
460.94	7791.64
461.12	7627.81
461.31	7812.71
461.49	7882.92
461.67	7901.65
461.85	8205.92
462.04	7946.12
462.22	8028.04
462.40	8205.92
462.59	8077.19
462.77	8039.74
462.95	8175.49
463.13	8154.43
463.32	8180.17
463.50	8056.12
463.68	8231.66
463.86	8306.56
464.05	8100.59
464.23	7946.12
464.41	8231.66
464.59	8173.15
464.78	8428.27
464.96	8294.86
465.14	8264.43
465.32	8234.00
465.50	8479.76
465.69	8425.93
465.87	8191.88
466.05	8409.54
466.23	8325.29
466.41	8250.39
466.60	8311.24
466.78	8273.79
466.96	8327.63
467.14	8219.96
467.32	8557.00
467.51	8589.77
467.69	8315.92
467.87	8561.68
468.05	8603.81
468.23	8554.66
468.41	8711.47
468.60	8723.18
468.78	8753.60
468.96	8791.05
469.14	8777.01
469.32	8837.86
469.50	8578.06
469.69	8711.47
469.87	8964.25
470.05	9083.62
470.23	8945.53
470.41	8795.73
470.59	8966.59
470.77	8896.38
470.95	9160.86
471.14	9029.79
471.32	8882.33
471.50	9394.91
471.68	9366.82
471.86	9376.19
472.04	9343.42
472.22	9745.99
472.40	9530.66
472.58	9387.89
472.77	9364.48
472.95	9713.22
473.13	9921.53
473.31	9565.77
473.49	9727.27
473.67	9596.20
473.85	9554.07
474.03	9909.83
474.21	10080.69
474.39	10012.81
474.57	9954.30
474.75	10303.04
474.93	10384.96
475.12	10193.03
475.30	10265.59
475.48	10200.05
475.66	10204.74
475.84	10389.64
476.02	10340.49
476.20	10427.09
476.38	10693.91
476.56	10874.13
476.74	10881.15
476.92	10803.91
477.10	10684.55
477.28	10946.69
477.46	10799.23
477.64	11382.03
477.82	11180.74
478.00	11555.22
478.18	11290.74
478.36	11126.91
478.54	11646.51
478.72	11688.64
478.90	11878.22
479.08	11903.96
479.26	11936.73
479.44	11908.65
479.62	12259.73
479.80	12367.39
479.98	12102.91
480.16	12479.74
480.34	12119.29
480.52	12678.68
480.70	12685.70
480.88	12304.20
481.06	12641.23
481.24	12688.04
481.41	12772.30
481.59	12779.32
481.77	13261.48
481.95	12943.16
482.13	13252.11
482.31	13324.67
482.49	13535.32
482.67	13558.72
482.85	13809.16
483.03	13727.24
483.21	13767.03
483.39	14113.43
483.57	14193.01
483.74	14305.35
483.92	14335.78
484.10	14223.44
484.28	14466.85
484.46	14934.96
484.64	14860.06
484.82	14654.09
485.00	15087.09
485.18	15002.83
485.35	15269.66
485.53	15070.71
485.71	15073.05
485.89	15248.59
486.07	15403.07
486.25	15506.05
486.43	15712.02
486.61	15644.14
486.78	15765.85
486.96	16013.95
487.14	16245.66
487.32	16381.41
487.50	16269.06
487.68	16631.85
487.85	16603.76
488.03	16762.92
488.21	17090.59
488.39	17163.15
488.57	17039.10
488.75	17214.64
488.92	17504.87
489.10	17561.04
489.28	17734.24
489.46	18008.08
489.64	18157.88
489.81	18305.33
489.99	18328.74
490.17	18302.99
490.35	18712.58
490.53	18338.10
490.70	18778.12
490.88	18874.08
491.06	18913.87
491.24	19173.67
491.41	19194.73
491.59	19524.75
491.77	18979.40
491.95	19672.20
492.13	19637.09
492.30	19655.82
492.48	20109.88
492.66	20280.74
492.84	19861.79
493.01	20271.38
493.19	20409.47
493.37	20369.68
493.54	20695.02
493.72	20638.84
493.90	20711.40
494.08	21191.21
494.25	21219.30
494.43	21219.30
494.61	21556.33
494.79	21378.45
494.96	21418.24
495.14	21633.57
495.32	21891.03
495.49	21568.04
495.67	22082.95
495.85	22111.04
496.02	22476.16
496.20	22319.35
496.38	22501.91
496.55	22569.79
496.73	22850.65
496.91	22862.35
497.09	23183.01
497.26	23150.24
497.44	23019.17
497.62	23023.85
497.79	23653.45
497.97	23239.18
498.14	23772.82
498.32	23520.04
498.50	23917.93
498.67	24276.04
498.85	23899.21
499.03	24271.36
499.20	23978.79
499.38	23941.34
499.56	24472.64
499.73	24238.59
499.91	24570.94
500.08	24725.42
500.26	24173.05
500.44	24184.76
500.61	24690.31
500.79	24805.00
500.97	24966.49
501.14	25378.43
501.32	25254.38
501.49	25366.73
501.67	25146.72
501.84	25734.19
502.02	25474.39
502.20	25532.90
502.37	25802.07
502.55	26080.59
502.72	26010.37
502.90	25907.39
503.07	25792.70
503.25	26148.46
503.43	25935.48
503.60	26199.96
503.78	25972.92
503.95	26218.68
504.13	26525.29
504.30	26490.18
504.48	26508.91
504.65	26560.40
504.83	26857.65
505.01	27503.64
505.18	27103.40
505.36	27115.11
505.53	27321.07
505.71	27400.65
505.88	27648.75
506.06	27232.13
506.23	27543.42
506.41	27276.60
506.58	27400.65
506.76	27920.25
506.93	28133.24
507.11	27777.48
507.28	27580.87
507.46	27737.69
507.63	28105.15
507.81	28072.39
507.98	27658.11
508.16	28400.06
508.33	28472.62
508.50	28772.21
508.68	28723.05
508.85	29111.58
509.03	28566.24
509.20	28748.80
509.38	29001.58
509.55	29193.50
509.73	28959.45
509.90	28844.76
510.08	28858.81
510.25	29048.39
510.42	29242.65
510.60	29378.40
510.77	29675.65
510.95	29720.12
511.12	29905.02
511.30	29867.58
511.47	30171.85
511.64	30235.04
511.82	30551.01
511.99	30054.82
512.17	30223.34
512.34	30031.41
512.51	30038.44
512.69	30478.46
512.86	30387.18
513.04	30869.33
513.21	30492.50
513.38	30700.81
513.56	30981.67
513.73	30162.48
513.90	30637.61
514.08	30927.84
514.25	31082.31
514.43	30909.11
514.60	30780.39
514.77	31220.41
514.95	31274.24
515.12	31201.68
515.29	31391.26
515.47	31817.24
515.64	31613.62
515.81	31379.56
515.99	31606.59
516.16	31873.42
516.33	31571.49
516.51	31758.73
516.68	31185.30
516.85	31637.02
517.03	31955.33
517.20	31838.31
517.37	32144.92
517.54	32144.92
517.72	31924.91
517.89	31901.50
518.06	31821.92
518.24	31967.04
518.41	31873.42
518.58	32292.37
518.75	32388.33
518.93	32606.00
519.10	32357.91
519.27	32865.80
519.45	32699.62
519.62	33085.81
519.79	32636.43
519.96	33076.45
520.14	33261.35
520.31	33544.56
520.48	33282.42
520.65	32975.81
520.83	33312.84
521.00	33773.93
521.17	33792.65
521.34	33687.33
521.52	33907.34
521.69	33661.58
521.86	34068.84
522.03	34443.32
522.20	33846.49
522.38	34452.69
522.55	33886.28
522.72	34714.83
522.89	34082.88
523.07	34518.22
523.24	34216.29
523.41	34623.54
523.58	34490.13
523.75	35112.72
523.92	34951.22
524.10	34883.34
524.27	34845.90
524.44	34771.00
524.61	35159.53
524.78	35051.86
524.96	35435.71
525.13	35253.15
525.30	35424.01
525.47	36374.27
525.64	35494.22
525.81	35452.09
525.98	35477.84
526.16	35126.76
526.33	34831.85
526.50	35424.01
526.67	35166.55
526.84	35299.96
527.01	35175.91
527.18	35358.47
527.36	35938.93
527.53	36371.92
527.70	36517.04
527.87	36095.74
528.04	35978.72
528.21	36521.72
528.38	36060.63
528.55	36180.00
528.72	36273.62
528.89	36776.84
529.07	36512.36
529.24	36327.45
529.41	36617.68
529.58	36388.31
529.75	36453.84
529.92	36851.73
530.09	36533.42
530.26	36896.20
530.43	36774.50
530.60	36400.01
530.77	37111.53
530.94	36692.58
531.11	36673.85
531.28	37116.22
531.46	37364.31
531.63	36912.59
531.80	37020.25
531.97	37493.04
532.14	37376.01
532.31	37034.30
532.48	37539.85
532.65	37731.78
532.82	36980.46
532.99	37490.70
533.16	37113.87
533.33	37823.06
533.50	37787.95
533.67	37783.27
533.84	37406.44
534.01	37783.27
534.18	37865.19
534.35	37703.69
534.52	37890.93
534.69	38295.85
534.86	38026.68
535.03	38026.68
535.20	38281.80
535.37	38534.58
535.54	38438.62
535.71	38190.52
535.88	38852.89
536.05	38602.46
536.22	38906.73
536.38	38759.27
536.55	38359.04
536.72	38164.78
536.89	38071.15
537.06	38763.95
537.23	38609.48
537.40	38476.07
537.57	38946.51
537.74	38944.17
537.91	39140.78
538.08	39159.50
538.25	38635.22
538.42	38899.70
538.59	39028.43
538.75	38803.74
538.92	38918.43
539.09	38890.34
539.26	39323.34
539.43	39419.30
539.60	39166.52
539.77	38836.51
539.94	39058.86
540.11	39405.26
540.28	39599.52
540.44	39281.21
540.61	39578.46
540.78	39290.57
540.95	39711.87
541.12	39435.69
541.29	39618.25
541.46	39431.01
541.62	39447.39
541.79	39936.56
541.96	39744.64
542.13	39587.82
542.30	39791.45
542.47	39859.32
542.63	39868.69
542.80	39959.97
542.97	40240.83
543.14	40346.15
543.31	40641.06
543.48	40561.48
543.64	40877.46
543.81	40458.50
543.98	41097.47
544.15	40435.10
544.32	40989.80
544.48	40980.44
544.65	40549.78
544.82	40760.43
544.99	40549.78
545.16	40715.96
545.32	40680.85
545.49	41322.16
545.66	40870.43
545.83	41287.05
546.00	41064.70
546.16	41296.41
546.33	40746.39
546.50	41123.21
546.67	40893.84
546.83	40575.53
547.00	41118.53
547.17	41043.63
547.34	41022.57
547.50	40893.84
547.67	41333.86
547.84	40952.35
548.00	41570.25
548.17	42000.91
548.34	41006.19
548.51	41879.21
548.67	41853.46
548.84	41734.09
549.01	41661.54
549.18	41539.83
549.34	41301.09
549.51	41432.16
549.68	41820.69
549.84	41928.36
550.01	42272.42
550.18	41478.97
550.34	41963.46
550.51	41804.31
550.68	41839.42
550.84	41956.44
551.01	42178.79
551.18	42153.05
551.34	41951.76
551.51	42204.54
551.68	42115.60
551.84	41954.10
552.01	41776.22
552.18	42040.70
552.34	41982.19
552.51	42117.94
552.68	42251.35
552.84	42153.05
553.01	42649.24
553.18	42171.77
553.34	42256.03
553.51	42204.54
553.67	42337.95
553.84	42363.70
554.01	42548.60
554.17	42670.31
554.34	42501.79
554.51	42520.51
554.67	42895.00
554.84	42462.00
555.00	42281.78
555.17	42649.24
555.33	42717.12
555.50	42820.10
555.67	42574.34
555.83	42323.91
556.00	42719.46
556.16	43372.47
556.33	42789.67
556.50	42719.46
556.66	43044.79
556.83	42550.94
556.99	42869.25
557.16	43063.52
557.32	43292.89
557.49	42789.67
557.65	43159.48
557.82	42904.36
557.98	42948.83
558.15	43107.99
558.32	42843.51
558.48	43400.55
558.65	43171.18
558.81	43009.68
558.98	43007.34
559.14	43171.18
559.31	43030.75
559.47	43236.72
559.64	43423.96
559.80	43456.73
559.97	43086.92
560.13	42780.31
560.30	43349.06
560.46	43131.39
560.63	43564.39
560.79	43510.56
560.96	43508.22
561.12	43583.12
561.29	43276.51
561.45	43342.04
561.61	43447.36
561.78	43217.99
561.94	43180.54
562.11	43335.02
562.27	43475.45
562.44	43856.96
562.60	43943.56
562.77	43693.12
562.93	43517.58
563.10	43950.58
563.26	43466.09
563.42	43730.57
563.59	43449.70
563.75	43381.83
563.92	43599.50
564.08	44137.82
564.24	43786.74
564.41	43669.72
564.57	43430.98
564.74	43646.31
564.90	44039.52
565.07	43571.41
565.23	43636.95
565.39	44079.31
565.56	43962.28
565.72	43854.62
565.88	43683.76
566.05	43917.81
566.21	44172.93
566.38	43725.89
566.54	44100.37
566.70	44179.95
566.87	44098.03
567.03	44037.18
567.19	44500.61
567.36	43955.26
567.52	43779.72
567.68	43899.09
567.85	44179.95
568.01	43997.39
568.17	43761.00
568.34	44062.93
568.50	44114.42
568.66	43742.27
568.83	43812.49
568.99	43599.50
569.15	43466.09
569.32	44182.29
569.48	43742.27
569.64	44112.08
569.81	44332.09
569.97	44435.07
570.13	43910.79
570.30	43894.41
570.46	44102.71
570.62	43929.51
570.78	43863.98
570.95	43929.51
571.11	44289.96
571.27	44264.21
571.43	43636.95
571.60	44224.42
571.76	44100.37
571.92	44465.50
572.09	44603.59
572.25	43775.04
572.41	44306.34
572.57	44201.02
572.74	44210.38
572.90	44147.18
573.06	44371.88
573.22	43978.67
573.38	44236.12
573.55	43910.79
573.71	44243.15
573.87	43854.62
574.03	43941.22
574.20	44271.23
574.36	44250.17
574.52	44528.69
574.68	44027.82
574.84	44236.12
575.01	43917.81
575.17	44414.01
575.33	44219.74
575.49	44191.65
575.65	44622.31
575.82	44306.34
575.98	44037.18
576.14	44198.68
576.30	44804.88
576.46	44306.34
576.62	44107.40
576.79	44182.29
576.95	44161.23
577.11	44474.86
577.27	44294.64
577.43	44250.17
577.59	44467.84
577.75	44046.54
577.92	43934.20
578.08	44060.58
578.24	44147.18
578.40	43901.43
578.56	44016.11
578.72	43819.51
578.88	44580.18
579.04	44641.04
579.21	44069.95
579.37	44102.71
579.53	44741.68
579.69	44341.45
579.85	44409.32
580.01	44320.38
580.17	44222.08
580.33	44666.78
580.49	44357.83
580.65	44252.51
580.82	44212.72
580.98	44055.90
581.14	44278.25
581.30	44552.10
581.46	44886.79
581.62	44318.04
581.78	44378.90
581.94	45071.70
582.10	44669.12
582.26	44102.71
582.42	44203.36
582.58	44458.48
582.74	44540.39
582.90	44741.68
583.06	44556.78
583.22	44205.70
583.38	44776.79
583.54	44423.37
583.70	44615.29
583.86	44800.19
584.02	44282.94
584.18	44751.04
584.34	44566.14
584.50	44240.81
584.66	44275.91
584.82	44088.67
584.98	45071.70
585.14	44154.21
585.30	44346.13
585.46	44507.63
585.62	44692.53
585.78	44364.85
585.94	43913.13
586.10	44308.68
586.26	44280.60
586.42	44807.22
586.58	44814.24
586.74	44828.28
586.90	44584.86
587.06	44612.95
587.22	44615.29
587.38	44266.55
587.54	44664.44
587.70	44301.66
587.86	44502.95
588.02	44982.76
588.18	44926.58
588.34	44219.74
588.49	44229.10
588.65	43964.62
588.81	43945.90
588.97	44542.74
589.13	43899.09
589.29	44547.42
589.45	44226.76
589.61	44648.06
589.77	44786.15
589.93	44231.44
590.08	44669.12
590.24	44676.15
590.40	44856.37
590.56	44718.28
590.72	44910.20
590.88	44605.93
591.04	44516.99
591.20	45092.76
591.35	45064.67
591.51	45226.17
591.67	44793.17
591.83	44563.80
591.99	44830.62
592.15	44952.33
592.31	44807.22
592.46	44713.59
592.62	44835.30
592.78	44905.52
592.94	45085.74
593.10	44729.98
593.26	45134.89
593.41	44758.06
593.57	44825.94
593.73	44622.31
593.89	44776.79
594.05	44809.56
594.20	44722.96
594.36	44788.49
594.52	44966.37
594.68	44847.00
594.84	44704.23
594.99	44914.88
595.15	44818.92
595.31	44704.23
595.47	44882.11
595.62	45057.65
595.78	44912.54
595.94	45181.70
596.10	45102.12
596.25	45078.72
596.41	45153.62
596.57	44928.92
596.73	44594.23
596.88	44521.67
597.04	44832.96
597.20	45109.14
597.36	45345.54
597.51	45158.30
597.67	45118.51
597.83	44645.72
597.99	44584.86
598.14	45193.40
598.30	45085.74
598.46	44811.90
598.61	44959.35
598.77	44023.14
598.93	44697.21
599.09	44882.11
599.24	45883.86
599.40	45148.93
599.56	45193.40
599.71	45324.47
599.87	45364.26
600.03	44708.91
600.18	45027.23
600.34	44734.66
600.50	45081.06
600.65	45242.56
600.81	45305.75
600.97	44957.01
601.12	45092.76
601.28	45207.45
601.44	44931.26
601.59	44767.43
601.75	44891.48
601.91	44818.92
602.06	44636.36
602.22	44718.28
602.37	44477.20
602.53	44964.03
602.69	45661.51
602.84	44470.18
603.00	44643.38
603.16	44769.77
603.31	44973.39
603.47	44839.98
603.62	44722.96
603.78	45013.18
603.94	44699.55
604.09	45179.36
604.25	44978.07
604.40	45125.53
604.56	44842.32
604.71	44971.05
604.87	44526.35
605.03	44596.57
605.18	44928.92
605.34	44556.78
605.49	44601.25
605.65	44516.99
605.80	44467.84
605.96	44989.78
606.12	44940.63
606.27	45317.45
606.43	44617.63
606.58	44451.45
606.74	44938.29
606.89	44973.39
607.05	44729.98
607.20	44744.02
607.36	44652.74
607.51	44921.90
607.67	44374.22
607.82	44598.91
607.98	44402.30
608.13	44369.54
608.29	44505.29
608.44	44112.08
608.60	44163.57
608.75	44493.58
608.91	44175.27
609.06	44287.62
609.22	44493.58
609.37	44280.60
609.53	44505.29
609.68	44486.56
609.84	44610.61
609.99	44128.46
610.15	44294.64
610.30	44416.35
610.46	44154.21
610.61	44339.11
610.76	44418.69
610.92	44304.00
611.07	44542.74
611.23	44512.31
611.38	44322.72
611.54	44191.65
611.69	44144.84
611.84	43810.15
612.00	44299.32
612.15	43735.25
612.31	44877.43
612.46	44055.90
612.62	44191.65
612.77	44116.76
612.92	44308.68
613.08	43882.70
613.23	44083.99
613.39	43714.19
613.54	43353.74
613.69	43959.94
613.85	43739.93
614.00	43931.86
614.15	44259.53
614.31	43917.81
614.46	44371.88
614.62	44268.89
614.77	43784.40
614.92	43948.24
615.08	43739.93
615.23	43681.42
615.38	43557.37
615.54	43650.99
615.69	43690.78
615.84	43578.43
616.00	44002.07
616.15	43484.81
616.30	44013.77
616.46	43281.19
616.61	43501.20
616.76	43356.08
616.92	42761.59
617.07	43049.47
617.22	43037.77
617.37	43084.58
617.53	42918.40
617.68	43686.10
617.83	43866.32
617.99	43620.56
618.14	43524.60
618.29	43578.43
618.45	43000.32
618.60	43157.14
618.75	43147.78
618.90	43295.23
619.06	43339.70
619.21	43363.11
619.36	43290.55
619.51	43154.80
619.67	43597.16
619.82	43309.27
619.97	43353.74
620.12	43278.85
620.28	42759.25
620.43	42595.41
620.58	42939.47
620.73	42864.57
620.89	43171.18
621.04	42948.83
621.19	43082.24
621.34	43112.67
621.49	42869.25
621.65	42667.97
621.80	42859.89
621.95	42267.73
622.10	42370.72
622.25	42342.63
622.41	42567.32
622.56	42550.94
622.71	42527.53
622.86	42693.71
623.01	42693.71
623.16	42483.06
623.32	42567.32
623.47	42689.03
623.62	42426.89
623.77	42314.55
623.92	42574.34
624.07	42405.83
624.23	42436.25
624.38	42167.09
624.53	41921.34
624.68	42108.58
624.83	42029.00
624.98	42478.38
625.13	42113.26
625.29	42234.97
625.44	42120.28
625.59	41584.30
625.74	42150.71
625.89	41612.38
626.04	41769.20
626.19	42024.32
626.34	42155.39
626.49	42260.71
626.65	42136.66
626.80	42038.36
626.95	41972.83
627.10	41682.60
627.25	41633.45
627.40	41598.34
627.55	41420.46
627.70	41368.97
627.85	41654.51
628.00	41275.35
628.15	41989.21
628.30	41331.52
628.45	41696.64
628.60	41729.41
628.76	41317.48
628.91	41792.61
629.06	41120.87
629.21	41326.84
629.36	41588.98
629.51	41373.65
629.66	41343.22
629.81	40973.42
629.96	41380.67
630.11	41476.63
630.26	41401.74
630.41	41621.75
630.56	41310.46
630.71	41214.49
630.86	41120.87
631.01	41029.59
631.16	41095.13
631.31	41177.04
631.46	40975.76
631.61	41001.50
631.76	40940.65
631.91	40928.95
632.06	41291.73
632.21	41287.05
632.36	41322.16
632.51	40795.54
632.66	40657.45
632.81	40423.39
632.96	40568.51
633.10	40786.18
633.25	41006.19
633.40	40591.91
633.55	41160.66
633.70	40568.51
633.85	40783.83
634.00	40720.64
634.15	40463.18
634.30	40439.78
634.45	40493.61
634.60	40577.87
634.75	40711.28
634.90	40304.02
635.05	40266.58
635.19	40381.26
635.34	40458.50
635.49	40371.90
635.64	40304.02
635.79	40313.39
635.94	40013.80
636.09	40215.08
636.24	40161.25
636.39	39477.82
636.53	39889.75
636.68	39533.99
636.83	40210.40
636.98	39969.33
637.13	39941.24
637.28	39861.66
637.43	40390.62
637.57	40708.94
637.72	39798.47
637.87	39735.27
638.02	39744.64
638.17	39936.56
638.32	39435.69
638.46	39746.98
638.61	39646.33
638.76	40105.08
638.91	39849.96
639.06	39716.55
639.20	39871.03
639.35	39983.37
639.50	40156.57
639.65	39976.35
639.80	39737.62
639.94	39669.74
640.09	39447.39
640.24	39157.16
640.39	39360.79
640.54	39129.08
640.68	39508.24
640.83	39491.86
640.98	39339.72
641.13	38998.01
641.27	39702.51
641.42	39356.11
641.57	39566.76
641.72	39213.34
641.86	38763.95
642.01	38590.75
642.16	39166.52
642.31	38597.77
642.45	39232.06
642.60	39292.91
642.75	39063.54
642.90	39166.52
643.04	39159.50
643.19	38990.98
643.34	38738.21
643.48	38621.18
643.63	38916.09
643.78	38511.17
643.93	38628.20
644.07	38539.26
644.22	38852.89
644.37	38576.71
644.51	38705.44
644.66	38831.83
644.81	38749.91
644.95	39428.66
645.10	39040.14
645.25	39037.80
645.39	38958.22
645.54	38866.94
645.69	38827.15
645.83	38618.84
645.98	38515.86
646.13	38675.01
646.27	38602.46
646.42	38719.48
646.57	38513.52
646.71	38024.34
646.86	38541.60
647.00	38345.00
647.15	38728.84
647.30	38822.47
647.44	38265.42
647.59	38581.39
647.74	38422.23
647.88	38176.48
648.03	38431.60
648.17	38307.55
648.32	38183.50
648.47	38347.34
648.61	37977.53
648.76	38373.08
648.90	38600.12
649.05	37724.75
649.20	38412.87
649.34	37963.49
649.49	37668.58
649.63	37858.17
649.78	37904.98
649.92	37862.85
650.07	38581.39
650.21	37556.24
650.36	37862.85
650.51	37722.41
650.65	38462.02
650.80	38110.94
650.94	37841.78
651.09	37455.59
651.23	37743.48
651.38	37734.12
651.52	37476.66
651.67	37490.70
651.81	37317.50
651.96	37123.24
652.10	37666.24
652.25	37703.69
652.39	37479.00
652.54	37659.22
652.68	37544.53
652.83	38164.78
652.97	37598.37
653.12	37619.43
653.26	37146.64
653.41	37581.98
653.55	37242.60
653.70	37102.17
653.84	37441.55
653.99	37525.81
654.13	37254.31
654.27	37263.67
654.42	37071.75
654.56	37160.69
654.71	37244.94
654.85	36797.90
655.00	37156.00
655.14	37102.17
655.29	36737.05
655.43	37013.23
655.57	36772.16
655.72	36720.66
655.86	36400.01
656.01	36666.83
656.15	36627.04
656.30	36767.48
656.44	36528.74
656.58	36720.66
656.73	36830.67
656.87	36734.71
657.01	36559.17
657.16	37024.93
657.30	36376.61
657.45	36123.83
657.59	36023.19
657.73	36002.12
657.88	36465.55
658.02	35957.65
658.16	36861.10
658.31	36507.68
658.45	36521.72
658.60	36378.95
658.74	35903.82
658.88	36559.17
659.03	36369.58
659.17	36048.93
659.31	35945.95
659.46	35945.95
659.60	36109.78
659.74	36198.73
659.89	35672.10
660.03	35784.45
660.17	36084.04
660.32	35765.73
660.46	36105.10
660.60	35725.94
660.74	35981.06
660.89	35983.40
661.03	35747.00
661.17	35564.44
661.32	35433.37
661.46	35599.55
661.60	35428.69
661.74	35463.80
661.89	35487.20
662.03	35117.40
662.17	35271.87
662.31	34803.77
662.46	35541.03
662.60	35365.49
662.74	35189.95
662.88	35033.14
663.03	34731.21
663.17	34843.56
663.31	34506.52
663.45	34733.55
663.60	34375.45
663.74	34768.66
663.88	34836.53
664.02	34480.77
664.17	35093.99
664.31	34487.79
664.45	34590.78
664.59	34600.14
664.73	34408.22
664.88	34433.96
665.02	34169.48
665.16	34366.09
665.30	34216.29
665.44	34010.32
665.59	33804.36
665.73	33764.57
665.87	34148.42
666.01	34057.14
666.15	33844.15
666.29	34106.29
666.44	33982.24
666.58	33600.73
666.72	33612.43
666.86	33830.10
667.00	34106.29
667.14	33511.79
667.28	33352.63
667.43	33085.81
667.57	33357.32
667.71	33268.37
667.85	33097.52
667.99	33439.23
668.13	33268.37
668.27	33439.23
668.41	33385.40
668.56	33202.84
668.70	32861.12
668.84	32978.15
668.98	33125.60
669.12	32790.91
669.26	32587.28
669.40	32381.31
669.54	32830.69
669.68	32708.99
669.82	32559.19
669.96	32503.02
670.10	32322.80
670.25	32830.69
670.39	32444.51
670.53	32301.73
670.67	32205.77
670.81	32617.71
670.95	32320.46
671.09	32414.08
671.23	31772.77
671.37	31992.78
671.51	31943.63
671.65	32009.17
671.79	31463.82
671.93	31435.74
672.07	31550.42
672.21	31768.09
672.35	31803.20
672.49	31281.26
672.63	31445.10
672.77	31566.81
672.91	31562.12
673.05	31393.61
673.19	31339.77
673.33	31143.17
673.47	30712.51
673.61	30822.51
673.75	30801.45
673.89	30602.50
674.03	30389.52
674.17	30754.64
674.31	30672.72
674.45	30686.76
674.59	30934.86
674.73	30885.71
674.87	30462.07
675.01	30586.12
675.15	30279.51
675.29	30403.56
675.43	30366.11
675.56	30291.21
675.70	30396.54
675.84	29923.75
675.98	29301.17
676.12	30347.39
676.26	30033.75
676.40	29446.28
676.54	29563.31
676.68	29303.51
676.82	28964.13
676.96	29240.31
677.10	29291.80
677.23	29057.75
677.37	29001.58
677.51	28582.62
677.65	28896.25
677.79	28561.56
677.93	28512.41
678.07	28467.94
678.21	28287.71
678.34	28271.33
678.48	27840.67
678.62	28322.82
678.76	27665.13
678.90	27976.42
679.04	27894.50
679.18	28182.39
679.31	27529.38
679.45	27412.35
679.59	27276.60
679.73	27307.03
679.87	27489.59
680.00	27246.18
680.14	27232.13
680.28	27344.48
680.42	27395.97
680.56	27084.68
680.70	27185.32
680.83	26972.33
680.97	27047.23
681.11	27398.31
681.25	26705.51
681.39	26565.08
681.52	26576.78
681.66	26632.96
681.80	26513.59
681.94	26288.90
682.07	26443.37
682.21	26403.58
682.35	25996.33
682.49	26279.54
682.62	25961.22
682.76	25701.42
682.90	25364.39
683.04	25525.88
683.17	25495.46
683.31	25453.33
683.45	25188.85
683.59	24898.62
683.72	25259.06
683.86	24744.14
684.00	24926.71
684.13	24692.65
684.27	24912.66
684.41	24797.98
684.55	24631.80
684.68	24332.21
684.82	24697.33
684.96	24699.67
685.09	24606.05
685.23	24360.30
685.37	24135.60
685.50	24465.62
685.64	23681.54
685.78	23517.70
685.91	23620.69
686.05	23536.43
686.19	23508.34
686.32	23744.73
686.46	23143.22
686.60	23084.70
686.73	23124.49
686.87	23253.22
687.01	22848.31
687.14	22913.84
687.28	22780.43
687.42	22782.77
687.55	22719.58
687.69	22635.32
687.82	22806.18
687.96	22733.62
688.10	22906.82
688.23	22284.24
688.37	22031.46
688.50	22230.41
688.64	21699.11
688.78	22118.06
688.91	22265.52
689.05	22104.02
689.18	21884.01
689.32	21664.00
689.46	21619.53
689.59	21792.73
689.73	21963.59
689.86	21544.63
690.00	21165.46
690.13	21298.88
690.27	21034.39
690.41	21160.78
690.54	20924.39
690.68	20877.58
690.81	20673.95
690.95	20657.57
691.08	20755.87
691.22	20320.53
691.35	20596.71
691.49	20875.24
691.62	20875.24
691.76	20423.51
691.89	20173.08
692.03	20114.56
692.16	20067.75
692.30	20006.90
692.43	19854.76
692.57	19571.56
692.70	19829.02
692.84	19374.95
692.97	19440.49
693.11	19293.04
693.24	19580.92
693.38	19590.28
693.51	19489.64
693.65	19403.04
693.78	19447.51
693.92	19185.37
694.05	19218.14
694.19	18909.19
694.32	18970.04
694.45	18574.49
694.59	18459.81
694.72	18946.64
694.86	18703.22
694.99	18342.78
695.13	18260.86
695.26	18424.70
695.39	18216.39
695.53	18029.15
695.66	18230.43
695.80	18043.19
695.93	18211.71
696.07	17797.43
696.20	18045.53
696.33	17804.46
696.47	17685.09
696.60	17820.84
696.73	17633.60
696.87	17586.79
697.00	17554.02
697.14	17460.40
697.27	17163.15
697.40	17334.01
697.54	17259.11
697.67	17200.60
697.80	17301.24
697.94	16924.41
698.07	16692.70
698.21	16589.72
698.34	16786.32
698.47	16800.37
698.61	16339.28
698.74	16229.27
698.87	16056.08
699.01	16114.59
699.14	15812.66
699.27	15889.90
699.40	16276.09
699.54	15887.56
699.67	15609.03
699.80	15929.69
699.94	15789.25
700.07	15983.52
700.20	15712.02
700.34	15382.00
700.47	15840.75
700.60	15651.16
700.73	16002.24
700.87	15826.70
701.00	15248.59
701.13	15145.61
701.26	15311.78
701.40	15274.34
701.53	14782.82
701.66	15077.73
701.79	15005.17
701.93	14703.25
702.06	14967.73
702.19	14789.85
702.32	14801.55
702.46	14361.53
702.59	14614.30
702.72	14558.13
702.85	14604.94
702.99	14604.94
703.12	14457.49
703.25	13834.91
703.38	14073.64
703.51	14097.05
703.65	14017.47
703.78	13900.44
703.91	14083.00
704.04	14303.01
704.17	14085.34
704.31	13958.96
704.44	13584.47
704.57	13951.93
704.70	13586.81
704.83	13640.64
704.96	13635.96
705.10	13483.83
705.23	13532.98
>>>>>End Processed Spectral Data<<<<<
