SpectraSuite Data File
++++++++++++++++++++++++++++++++++++
Date: Fri Oct 25 10:44:46 EDT 2013
User: price-jones
Dark Spectrum Present: No
Reference Spectrum Present: No
Number of Sampled Component Spectra: 1
Spectrometers: USB2+H05261
Integration Time (usec): 100000 (USB2+H05261)
Spectra Averaged: 1 (USB2+H05261)
Boxcar Smoothing: 0 (USB2+H05261)
Correct for Electrical Dark: No (USB2+H05261)
Strobe/Lamp Enabled: No (USB2+H05261)
Correct for Detector Non-linearity: No (USB2+H05261)
Correct for Stray Light: No (USB2+H05261)
Number of Pixels in Processed Spectrum: 2048
>>>>>Begin Processed Spectral Data<<<<<
365.73	182.56
365.92	182.56
366.12	182.56
366.32	53.83
366.52	0.00
366.72	81.92
366.91	32.77
367.11	46.81
367.31	0.00
367.51	0.00
367.70	0.00
367.90	11.70
368.10	0.00
368.30	25.75
368.49	14.04
368.69	56.17
368.89	74.90
369.09	25.75
369.28	119.37
369.48	35.11
369.68	86.60
369.87	105.32
370.07	53.83
370.27	166.18
370.47	201.29
370.66	369.80
370.86	411.93
371.06	430.66
371.25	461.09
371.45	435.34
371.65	465.77
371.84	390.87
372.04	477.47
372.24	475.13
372.44	454.06
372.63	479.81
372.83	428.32
373.03	482.15
373.22	496.19
373.42	503.22
373.62	437.68
373.81	514.92
374.01	491.51
374.21	545.34
374.40	580.45
374.60	587.47
374.79	524.28
374.99	486.83
375.19	592.16
375.38	489.17
375.58	566.41
375.78	519.60
375.97	575.77
376.17	554.71
376.37	582.79
376.56	599.18
376.76	545.34
376.95	573.43
377.15	566.41
377.35	631.94
377.54	592.16
377.74	594.50
377.93	608.54
378.13	681.10
378.33	645.99
378.52	645.99
378.72	587.47
378.91	662.37
379.11	606.20
379.31	650.67
379.50	587.47
379.70	645.99
379.89	655.35
380.09	704.50
380.28	660.03
380.48	648.33
380.68	589.82
380.87	638.97
381.07	669.39
381.26	706.84
381.46	627.26
381.65	634.29
381.85	667.05
382.04	634.29
382.24	582.79
382.43	739.61
382.63	641.31
382.83	716.20
383.02	676.41
383.22	702.16
383.41	669.39
383.61	587.47
383.80	753.65
384.00	645.99
384.19	744.29
384.39	723.23
384.58	720.88
384.78	716.20
384.97	741.95
385.17	697.48
385.36	711.52
385.56	748.97
385.75	711.52
385.95	772.38
386.14	746.63
386.34	748.97
386.53	793.44
386.72	798.12
386.92	784.08
387.11	709.18
387.31	826.21
387.50	861.32
387.70	830.89
387.89	833.23
388.09	814.51
388.28	830.89
388.48	866.00
388.67	847.27
388.86	863.66
389.06	926.85
389.25	875.36
389.45	926.85
389.64	844.93
389.84	940.90
390.03	903.45
390.22	936.21
390.42	849.61
390.61	837.91
390.81	819.19
391.00	940.90
391.19	985.37
391.39	1046.22
391.58	971.32
391.78	908.13
391.97	926.85
392.16	912.81
392.36	1076.65
392.55	1069.62
392.75	978.34
392.94	889.40
393.13	901.11
393.33	915.15
393.52	1013.45
393.71	980.68
393.91	1006.43
394.10	959.62
394.29	1100.05
394.49	1008.77
394.68	1057.92
394.88	1069.62
395.07	1137.50
395.26	1055.58
395.46	1135.16
395.65	1062.60
395.84	1095.37
396.04	1086.01
396.23	1060.26
396.42	1086.01
396.62	1116.44
396.81	1137.50
397.00	1090.69
397.19	1139.84
397.39	1235.80
397.58	1207.72
397.77	1245.16
397.97	1196.01
398.16	1282.61
398.35	1282.61
398.55	1331.76
398.74	1270.91
398.93	1352.83
399.12	1329.42
399.32	1301.34
399.51	1397.30
399.70	1380.92
399.90	1362.19
400.09	1371.55
400.28	1390.28
400.47	1467.52
400.67	1444.11
400.86	1434.75
401.05	1462.83
401.24	1542.41
401.44	1511.99
401.63	1455.81
401.82	1404.32
402.01	1519.01
402.21	1577.52
402.40	1542.41
402.59	1533.05
402.78	1490.92
402.97	1605.61
403.17	1652.42
403.36	1640.72
403.55	1673.48
403.74	1664.12
403.93	1647.74
404.13	1685.19
404.32	1675.82
404.51	1694.55
404.70	1600.93
404.89	1710.93
405.09	1827.96
405.28	1713.27
405.47	1678.16
405.66	1769.44
405.85	1764.76
406.05	1732.00
406.24	1741.36
406.43	1870.09
406.62	1839.66
406.81	1886.47
407.00	1884.13
407.20	1788.17
407.39	1816.26
407.58	1940.30
407.77	2045.63
407.96	1989.46
408.15	2012.86
408.34	1968.39
408.54	1912.22
408.73	2033.93
408.92	2066.69
409.11	1968.39
409.30	2008.18
409.49	1989.46
409.68	2132.23
409.87	2003.50
410.07	2045.63
410.26	2157.97
410.45	2157.97
410.64	2200.10
410.83	2225.85
411.02	2122.87
411.21	2328.83
411.40	2282.02
411.59	2410.75
411.78	2382.67
411.98	2286.70
412.17	2300.75
412.36	2445.86
412.55	2392.03
412.74	2340.54
412.93	2530.12
413.12	2352.24
413.31	2562.89
413.50	2560.55
413.69	2455.22
413.88	2637.78
414.07	2523.10
414.26	2628.42
414.45	2672.89
414.64	2822.69
414.83	2661.19
415.02	2745.45
415.22	2796.94
415.41	2829.71
415.60	2750.13
415.79	2878.86
415.98	3000.57
416.17	2892.90
416.36	2841.41
416.55	2832.05
416.74	3045.04
416.93	3007.59
417.12	3077.80
417.31	3035.67
417.50	2991.20
417.69	3143.34
417.88	3150.36
418.07	3269.73
418.26	3103.55
418.45	3166.74
418.64	3173.77
418.83	3253.34
419.02	3098.87
419.21	3295.47
419.39	3358.67
419.58	3133.98
419.77	3269.73
419.96	3300.16
420.15	3332.92
420.34	3353.99
420.53	3363.35
420.72	3485.06
420.91	3391.44
421.10	3545.91
421.29	3583.36
421.48	3344.63
421.67	3536.55
421.86	3461.65
422.05	3496.76
422.24	3365.69
422.43	3466.33
422.61	3515.48
422.80	3442.93
422.99	3571.66
423.18	3566.98
423.37	3627.83
423.56	3522.51
423.75	3665.28
423.94	3461.65
424.13	3279.09
424.32	3365.69
424.50	3658.26
424.69	3726.13
424.88	3684.00
425.07	3566.98
425.26	3529.53
425.45	3513.14
425.64	3499.10
425.83	3433.57
426.01	3597.40
426.20	3557.61
426.39	3658.26
426.58	3749.54
426.77	3548.25
426.96	3627.83
427.15	3473.36
427.33	3653.58
427.52	3641.87
427.71	3768.26
427.90	3756.56
428.09	3871.25
428.28	3695.71
428.46	3899.33
428.65	3775.28
428.84	3808.05
429.03	3918.06
429.22	3651.24
429.40	3810.39
429.59	3782.31
429.78	3742.52
429.97	3611.45
430.16	3707.41
430.34	3667.62
430.53	3887.63
430.72	3735.50
430.91	3878.27
431.10	4007.00
431.28	4018.70
431.47	4140.41
431.66	4037.42
431.85	4067.85
432.03	4243.39
432.22	4093.60
432.41	4273.82
432.60	4301.90
432.79	4166.15
432.97	4250.41
433.16	4341.69
433.35	4301.90
433.54	4379.14
433.72	4327.65
433.91	4276.16
434.10	4360.42
434.28	4344.03
434.47	4451.70
434.66	4587.45
434.85	4416.59
435.03	4435.32
435.22	4447.02
435.41	4538.30
435.59	4479.79
435.78	4568.73
435.97	4720.86
436.16	4589.79
436.34	4624.90
436.53	4664.69
436.72	4650.64
436.90	4514.89
437.09	4781.71
437.28	4545.32
437.46	4734.90
437.65	4734.90
437.84	4786.40
438.02	4732.56
438.21	4844.91
438.40	4695.11
438.58	4908.10
438.77	4912.78
438.96	4805.12
439.14	5048.54
439.33	5097.69
439.52	4994.70
439.70	5135.14
439.89	5156.20
440.08	5004.07
440.26	5301.31
440.45	5128.11
440.63	5228.76
440.82	5451.11
441.01	5371.53
441.19	5493.24
441.38	5479.19
441.57	5575.16
441.75	5547.07
441.94	5668.78
442.12	5636.01
442.31	5722.61
442.50	5849.00
442.68	5537.71
442.87	5757.72
443.05	5713.25
443.24	5856.02
443.43	5792.83
443.61	5909.85
443.80	5898.15
443.98	5650.05
444.17	5724.95
444.35	5720.27
444.54	5947.30
444.73	5825.59
444.91	5956.66
445.10	5844.32
445.28	5839.64
445.47	5916.87
445.65	5851.34
445.84	5923.90
446.02	5935.60
446.21	5963.68
446.39	5933.26
446.58	6033.90
446.77	5891.13
446.95	5867.72
447.14	5849.00
447.32	6115.82
447.51	6162.63
447.69	6052.63
447.88	6080.71
448.06	6069.01
448.25	5973.05
448.43	6122.84
448.62	6038.58
448.80	6211.78
448.99	6300.72
449.17	6101.78
449.36	6057.31
449.54	6317.11
449.73	6401.37
449.91	6305.40
450.10	6410.73
450.28	6590.95
450.46	6544.14
450.65	6511.37
450.83	6513.71
451.02	6469.24
451.20	6595.63
451.39	6635.42
451.57	6644.78
451.76	6506.69
451.94	6520.73
452.13	6597.97
452.31	6466.90
452.49	6457.54
452.68	6541.80
452.86	6602.65
453.05	6733.72
453.23	6696.27
453.42	6541.80
453.60	6651.80
453.78	6829.68
453.97	6642.44
454.15	6731.38
454.34	6815.64
454.52	6843.73
454.70	6780.53
454.89	6803.94
455.07	6707.98
455.26	7026.29
455.44	7068.42
455.62	7091.82
455.81	7059.06
455.99	7272.04
456.17	7124.59
456.36	7115.23
456.54	7274.38
456.73	7164.38
456.91	7255.66
457.09	7274.38
457.28	7424.18
457.46	7349.28
457.64	7433.54
457.83	7225.23
458.01	7197.15
458.19	7499.08
458.38	7396.09
458.56	7393.75
458.74	7576.31
458.93	7456.95
459.11	7630.15
459.29	7662.91
459.48	7653.55
459.66	7695.68
459.84	7630.15
460.03	7688.66
460.21	7836.11
460.39	7749.51
460.57	7861.86
460.76	7840.79
460.94	7768.24
461.12	7995.27
461.31	7847.82
461.49	7990.59
461.67	7709.72
461.85	8231.66
462.04	7943.78
462.22	8205.92
462.40	8067.83
462.59	7854.84
462.77	8182.51
462.95	8025.70
463.13	7908.67
463.32	7948.46
463.50	8383.80
463.68	8262.09
463.86	8018.68
464.05	8344.01
464.23	8226.98
464.41	8510.19
464.59	8170.81
464.78	8112.30
464.96	8217.62
465.14	8339.33
465.32	8346.35
465.50	8355.71
465.69	8479.76
465.87	8524.23
466.05	8512.53
466.23	8325.29
466.41	8493.80
466.60	8549.98
466.78	8430.61
466.96	8545.30
467.14	8449.33
467.32	8610.83
467.51	8800.41
467.69	8425.93
467.87	8648.28
468.05	8720.84
468.23	8545.30
468.41	8725.52
468.60	8798.07
468.78	8905.74
468.96	8760.63
469.14	9139.79
469.32	9050.85
469.50	8664.66
469.69	8896.38
469.87	9181.92
470.05	8997.02
470.23	9256.82
470.41	9004.04
470.59	9144.47
470.77	9177.24
470.95	9362.14
471.14	9228.73
471.32	9055.53
471.50	9102.34
471.68	9467.47
471.86	9525.98
472.04	9521.30
472.22	9614.92
472.40	9465.13
472.58	9640.67
472.77	9647.69
472.95	9710.88
473.13	9795.14
473.31	9668.75
473.49	9589.17
473.67	9881.74
473.85	9926.21
474.03	10038.56
474.21	9994.09
474.39	10176.65
474.57	10190.69
474.75	10157.92
474.93	10239.84
475.12	10139.20
475.30	10455.17
475.48	10466.88
475.66	10186.01
475.84	10473.90
476.02	10595.61
476.20	10532.41
476.38	10637.73
476.56	10991.16
476.74	10986.47
476.92	10586.24
477.10	10752.42
477.28	11030.94
477.46	10960.73
477.64	11227.55
477.82	11571.61
478.00	11623.10
478.18	11330.53
478.36	11627.78
478.54	11782.26
478.72	11939.07
478.90	11899.28
479.08	12011.63
479.26	12159.08
479.44	12126.32
479.62	12271.43
479.80	12217.60
479.98	12065.46
480.16	12449.31
480.34	12437.61
480.52	12718.47
480.70	12559.31
480.88	12397.82
481.06	12629.53
481.24	12643.57
481.41	12882.31
481.59	13252.11
481.77	13240.41
481.95	13188.92
482.13	13530.64
482.31	13437.02
482.49	13790.44
482.67	13399.57
482.85	13994.06
483.03	13977.68
483.21	14038.53
483.39	14216.41
483.57	13933.21
483.74	14340.46
483.92	14424.72
484.10	14307.69
484.28	14429.40
484.46	14918.57
484.64	15119.86
484.82	14527.71
485.00	14993.47
485.18	14782.82
485.35	15241.57
485.53	14834.32
485.71	14771.12
485.89	15433.49
486.07	15353.91
486.25	15611.37
486.43	15878.19
486.61	15681.59
486.78	15892.24
486.96	16262.04
487.14	16435.24
487.32	16390.77
487.50	16840.15
487.68	16996.97
487.85	16896.33
488.03	17090.59
488.21	16961.86
488.39	17078.89
488.57	17556.36
488.75	17497.84
488.92	17649.98
489.10	17907.44
489.28	17692.11
489.46	18122.77
489.64	18052.55
489.81	18780.46
489.99	18665.77
490.17	18455.12
490.35	19047.28
490.53	18614.28
490.70	19164.31
490.88	19019.19
491.06	19063.66
491.24	19131.54
491.41	19110.47
491.59	19555.18
491.77	19302.40
491.95	19613.69
492.13	19768.16
492.30	19826.68
492.48	20100.52
492.66	20046.69
492.84	20086.48
493.01	20503.09
493.19	20020.94
493.37	20807.36
493.54	20365.00
493.72	20720.76
493.90	20790.98
494.08	21137.38
494.25	21259.09
494.43	21446.33
494.61	21724.85
494.79	21570.38
494.96	21783.37
495.14	21750.60
495.32	21891.03
495.49	21928.48
495.67	22073.59
495.85	22174.24
496.02	22401.27
496.20	22689.15
496.38	22944.27
496.55	23030.87
496.73	23035.55
496.91	22909.16
497.09	23168.96
497.26	23482.59
497.44	23080.02
497.62	23122.15
497.79	23360.89
497.97	23140.88
498.14	23534.09
498.32	23765.80
498.50	23950.70
498.67	24315.83
498.85	23751.76
499.03	24166.03
499.20	24243.27
499.38	23927.30
499.56	24629.46
499.73	24776.91
499.91	24566.26
500.08	24847.13
500.26	24709.04
500.44	24662.22
500.61	24812.02
500.79	24975.86
500.97	24898.62
501.14	25259.06
501.32	25406.52
501.49	25167.78
501.67	25205.23
501.84	25209.91
502.02	25638.23
502.20	25991.65
502.37	26195.28
502.55	25685.04
502.72	26466.78
502.90	25928.45
503.07	25795.04
503.25	26333.37
503.43	26387.20
503.60	26445.71
503.78	26312.30
503.95	26483.16
504.13	26295.92
504.30	26551.04
504.48	26946.59
504.65	26857.65
504.83	27204.05
505.01	27449.80
505.18	27026.17
505.36	27419.38
505.53	27470.87
505.71	27447.46
505.88	28114.52
506.06	27484.91
506.23	27278.94
506.41	27733.01
506.58	27871.10
506.76	27791.52
506.93	28030.26
507.11	28002.17
507.28	28285.37
507.46	28215.16
507.63	28257.29
507.81	28198.77
507.98	28350.91
508.16	28320.48
508.33	28528.79
508.50	28978.17
508.68	28854.12
508.85	29076.48
509.03	28917.32
509.20	28790.93
509.38	29020.30
509.55	29504.79
509.73	29415.85
509.90	29486.07
510.08	29465.00
510.25	29518.84
510.42	29315.21
510.60	29502.45
510.77	29738.85
510.95	30204.61
511.12	29722.46
511.30	30115.67
511.47	30024.39
511.64	30075.88
511.82	30316.96
511.99	30080.56
512.17	30115.67
512.34	29935.45
512.51	30551.01
512.69	31168.91
512.86	30178.87
513.04	30864.64
513.21	30639.95
513.38	30930.18
513.56	30792.09
513.73	30529.95
513.90	31173.60
514.08	31021.46
514.25	31318.71
514.43	30892.73
514.60	31344.45
514.77	31351.48
514.95	31414.67
515.12	31365.52
515.29	31489.57
515.47	31873.42
515.64	32095.77
515.81	31695.53
515.99	32086.40
516.16	31971.72
516.33	31683.83
516.51	31838.31
516.68	31924.91
516.85	31992.78
517.03	31557.44
517.20	32079.38
517.37	32081.72
517.54	32414.08
517.72	32240.88
517.89	32376.63
518.06	31810.22
518.24	32240.88
518.41	32341.52
518.58	32657.49
518.75	32716.01
518.93	32844.74
519.10	32484.30
519.27	32842.40
519.45	33095.18
519.62	33268.37
519.79	32879.85
519.96	33130.28
520.14	33364.34
520.31	32980.49
520.48	33481.36
520.65	33752.87
520.83	33727.12
521.00	34068.84
521.17	33930.75
521.34	33930.75
521.52	33659.24
521.69	33757.55
521.86	33923.72
522.03	34162.46
522.20	34511.20
522.38	34286.51
522.55	34450.35
522.72	34117.99
522.89	34611.84
523.07	34431.62
523.24	34384.81
523.41	34787.38
523.58	34775.68
523.75	34878.66
523.92	35304.64
524.10	35292.94
524.27	35056.54
524.44	34888.03
524.61	35431.03
524.78	35419.33
524.96	35330.39
525.13	35440.39
525.30	35206.34
525.47	35379.54
525.64	35676.79
525.81	35615.93
525.98	35318.68
526.16	35402.94
526.33	35505.93
526.50	35908.50
526.67	35426.35
526.84	35737.64
527.01	35517.63
527.18	35431.03
527.36	36030.21
527.53	36212.77
527.70	36266.60
527.87	36112.13
528.04	36271.28
528.21	36582.57
528.38	36299.37
528.55	36676.19
528.72	37008.55
528.89	36591.94
529.07	36294.69
529.24	36985.15
529.41	36708.96
529.58	37041.32
529.75	36584.91
529.92	36952.38
530.09	36772.16
530.26	36605.98
530.43	36996.85
530.60	37132.60
530.77	36989.83
530.94	37361.97
531.11	37427.51
531.28	37390.06
531.46	37212.18
531.63	37378.36
531.80	37329.20
531.97	37525.81
532.14	37495.38
532.31	37001.53
532.48	37624.11
532.65	37619.43
532.82	37301.12
532.99	37787.95
533.16	37385.38
533.33	37663.90
533.50	38120.31
533.67	38000.94
533.84	38057.11
534.01	38089.88
534.18	38036.05
534.35	38302.87
534.52	38019.66
534.69	38487.77
534.86	38469.04
535.03	38249.03
535.20	38618.84
535.37	38609.48
535.54	38883.32
535.71	38218.61
535.88	38384.79
536.05	38384.79
536.22	38667.99
536.38	38756.93
536.55	39037.80
536.72	38572.03
536.89	38700.76
537.06	38356.70
537.23	38888.00
537.40	38845.87
537.57	38878.64
537.74	38473.73
537.91	38979.28
538.08	39192.27
538.25	38637.56
538.42	38972.26
538.59	39012.05
538.75	38979.28
538.92	39023.75
539.09	39222.70
539.26	39236.74
539.43	39330.36
539.60	39641.65
539.77	39196.95
539.94	39739.96
540.11	39253.12
540.28	39370.15
540.44	39714.21
540.61	39431.01
540.78	39693.15
540.95	39526.97
541.12	39243.76
541.29	39126.74
541.46	40172.96
541.62	39866.34
541.79	39833.58
541.96	39688.46
542.13	39962.31
542.30	39751.66
542.47	40404.67
542.63	39906.13
542.80	40409.35
542.97	40500.63
543.14	40502.97
543.31	40629.36
543.48	40081.67
543.64	40697.24
543.81	41055.34
543.98	41062.36
544.15	40779.15
544.32	41263.64
544.48	41069.38
544.65	40563.82
544.82	40727.66
544.99	40336.79
545.16	41020.23
545.32	41153.64
545.49	41523.44
545.66	41514.08
545.83	41375.99
546.00	41324.50
546.16	41750.48
546.33	40886.82
546.50	40694.89
546.67	41118.53
546.83	40409.35
547.00	41102.15
547.17	41090.44
547.34	41434.50
547.50	41415.78
547.67	41935.38
547.84	41462.59
548.00	41743.45
548.17	41633.45
548.34	41354.93
548.51	41640.47
548.67	41628.77
548.84	41785.58
549.01	41610.04
549.18	41385.35
549.34	41808.99
549.51	42075.81
549.68	41949.42
549.84	41904.95
550.01	41832.39
550.18	41951.76
550.34	42405.83
550.51	42160.07
550.68	42150.71
550.84	41881.55
551.01	42124.96
551.18	42005.59
551.34	42047.72
551.51	41928.36
551.68	42438.59
551.84	42300.50
552.01	42188.16
552.18	42342.63
552.34	42258.37
552.51	42450.30
552.68	42078.15
552.84	42724.14
553.01	42939.47
553.18	42403.49
553.34	42607.11
553.51	42602.43
553.67	42415.19
553.84	43119.69
554.01	42761.59
554.17	42553.28
554.34	42806.06
554.51	43093.94
554.67	42997.98
554.84	42822.44
555.00	42721.80
555.17	42873.93
555.33	42913.72
555.50	42567.32
555.67	42543.92
555.83	42569.66
556.00	42829.46
556.16	43138.41
556.33	42878.61
556.50	42974.58
556.66	43054.15
556.83	42939.47
556.99	43414.60
557.16	43335.02
557.32	43344.38
557.49	43346.72
557.65	43145.44
557.82	42822.44
557.98	43328.00
558.15	43192.25
558.32	43122.03
558.48	43072.88
558.65	43386.51
558.81	43037.77
558.98	42934.79
559.14	43309.27
559.31	43208.63
559.47	43679.08
559.64	43606.52
559.80	43739.93
559.97	43178.20
560.13	43173.52
560.30	43194.59
560.46	43283.53
560.63	43522.26
560.79	43496.52
560.96	43686.10
561.12	43510.56
561.29	43761.00
561.45	43601.84
561.61	43325.66
561.78	43503.54
561.94	43599.50
562.11	43592.48
562.27	43641.63
562.44	43686.10
562.60	44121.44
562.77	43819.51
562.93	43449.70
563.10	43433.32
563.26	43419.28
563.42	43978.67
563.59	43763.34
563.75	43597.16
563.92	43805.47
564.08	43798.44
564.24	43852.28
564.41	43859.30
564.57	43721.21
564.74	43716.53
564.90	44058.24
565.07	44243.15
565.23	43604.18
565.39	44208.04
565.56	44123.78
565.72	44191.65
565.88	44067.61
566.05	43721.21
566.21	43756.32
566.38	43526.94
566.54	44020.80
566.70	44392.94
566.87	44418.69
567.03	43906.11
567.19	44643.38
567.36	44182.29
567.52	44210.38
567.68	44678.49
567.85	44013.77
568.01	44091.01
568.17	44175.27
568.34	44423.37
568.50	43978.67
568.66	43854.62
568.83	44371.88
568.99	43934.20
569.15	44128.46
569.32	43793.76
569.48	43948.24
569.64	44329.75
569.81	44423.37
569.97	44182.29
570.13	44318.04
570.30	43849.94
570.46	43908.45
570.62	43856.96
570.78	43817.17
570.95	44069.95
571.11	44222.08
571.27	43852.28
571.43	44292.30
571.60	43707.16
571.76	43880.36
571.92	44493.58
572.09	44287.62
572.25	43985.69
572.41	44147.18
572.57	44247.83
572.74	44552.10
572.90	44423.37
573.06	44254.85
573.22	44561.46
573.38	44175.27
573.55	44542.74
573.71	44854.03
573.87	44507.63
574.03	44158.89
574.20	44151.87
574.36	44465.50
574.52	44608.27
574.68	44521.67
574.84	44512.31
575.01	43955.26
575.17	44240.81
575.33	44360.17
575.49	44137.82
575.65	44568.48
575.82	44680.83
575.98	44044.20
576.14	44856.37
576.30	44196.34
576.46	44168.25
576.62	44865.73
576.79	44032.50
576.95	44069.95
577.11	44598.91
577.27	44233.78
577.43	44390.60
577.59	44605.93
577.75	44301.66
577.92	43650.99
578.08	44271.23
578.24	44446.77
578.40	44397.62
578.56	44425.71
578.72	44395.28
578.88	44935.95
579.04	44662.10
579.21	44025.48
579.37	44491.24
579.53	44266.55
579.69	44409.32
579.85	44292.30
580.01	44512.31
580.17	44210.38
580.33	44882.11
580.49	44135.48
580.65	44994.46
580.82	44584.86
580.98	44524.01
581.14	44470.18
581.30	44601.25
581.46	44598.91
581.62	44769.77
581.78	44374.22
581.94	44891.48
582.10	44432.73
582.26	44425.71
582.42	44601.25
582.58	44287.62
582.74	44744.02
582.90	44949.99
583.06	44952.33
583.22	45031.91
583.38	44992.12
583.54	44999.14
583.70	44587.21
583.86	44538.05
584.02	44353.15
584.18	44746.36
584.34	44388.26
584.50	44453.79
584.66	44500.61
584.82	44186.97
584.98	44966.37
585.14	44774.45
585.30	44582.52
585.46	44584.86
585.62	44231.44
585.78	44423.37
585.94	44493.58
586.10	44119.10
586.26	44278.25
586.42	44683.17
586.58	44629.34
586.74	44828.28
586.90	44259.53
587.06	44619.97
587.22	44605.93
587.38	44474.86
587.54	44694.87
587.70	44753.38
587.86	45027.23
588.02	44617.63
588.18	44751.04
588.34	44666.78
588.49	44156.55
588.65	43683.76
588.81	44011.43
588.97	44680.83
589.13	44046.54
589.29	44460.82
589.45	44460.82
589.61	44549.76
589.77	44854.03
589.93	44814.24
590.08	44779.13
590.24	44893.82
590.40	44655.08
590.56	45144.25
590.72	45088.08
590.88	44280.60
591.04	44907.86
591.20	45074.04
591.35	44900.84
591.51	45137.23
591.67	45083.40
591.83	45146.59
591.99	44428.05
592.15	44987.44
592.31	44961.69
592.46	44856.37
592.62	44921.90
592.78	44680.83
592.94	45050.63
593.10	45160.64
593.26	45036.59
593.41	44802.53
593.57	44634.02
593.73	44739.34
593.89	44821.26
594.05	44959.35
594.20	44854.03
594.36	44844.66
594.52	44919.56
594.68	45071.70
594.84	44821.26
594.99	45076.38
595.15	45179.36
595.31	45439.16
595.47	45055.31
595.62	45127.87
595.78	45027.23
595.94	45230.85
596.10	45050.63
596.25	45059.99
596.41	45078.72
596.57	45333.84
596.73	44615.29
596.88	44886.79
597.04	45244.90
597.20	45450.86
597.36	44905.52
597.51	45315.11
597.67	45228.51
597.83	45247.24
597.99	45287.03
598.14	45390.01
598.30	45064.67
598.46	45160.64
598.61	44837.64
598.77	44552.10
598.93	44722.96
599.09	44708.91
599.24	45181.70
599.40	45401.71
599.56	45347.88
599.71	44982.76
599.87	45221.49
600.03	45144.25
600.18	45017.86
600.34	45013.18
600.50	45001.48
600.65	44933.60
600.81	45209.79
600.97	45567.89
601.12	45242.56
601.28	45368.94
601.44	44830.62
601.59	44861.05
601.75	44797.85
601.91	45092.76
602.06	44868.07
602.22	45085.74
602.37	45102.12
602.53	44748.70
602.69	45294.05
602.84	45184.04
603.00	45188.72
603.16	44795.51
603.31	44535.71
603.47	44900.84
603.62	44790.83
603.78	45141.91
603.94	45013.18
604.09	45132.55
604.25	45151.27
604.40	44528.69
604.56	45177.02
604.71	44844.66
604.87	44734.66
605.03	44851.69
605.18	44786.15
605.34	44825.94
605.49	44928.92
605.65	44863.39
605.80	44685.51
605.96	45160.64
606.12	44676.15
606.27	44772.11
606.43	44699.55
606.58	44839.98
606.74	44512.31
606.89	44924.24
607.05	45132.55
607.20	44980.42
607.36	45022.54
607.51	45537.46
607.67	45174.68
607.82	44500.61
607.98	44940.63
608.13	44392.94
608.29	44336.77
608.44	44376.56
608.60	44165.91
608.75	44451.45
608.91	45031.91
609.06	44137.82
609.22	44545.08
609.37	44186.97
609.53	44329.75
609.68	44285.28
609.84	44502.95
609.99	44839.98
610.15	44626.99
610.30	44320.38
610.46	44203.36
610.61	44463.16
610.76	44512.31
610.92	44458.48
611.07	44453.79
611.23	44617.63
611.38	44327.41
611.54	44275.91
611.69	44767.43
611.84	44364.85
612.00	44048.88
612.15	43931.86
612.31	44507.63
612.46	44107.40
612.62	44463.16
612.77	44030.16
612.92	44755.72
613.08	43934.20
613.23	44296.98
613.39	44268.89
613.54	43552.69
613.69	44135.48
613.85	44177.61
614.00	44414.01
614.15	44191.65
614.31	44336.77
614.46	44570.82
614.62	44210.38
614.77	43688.44
614.92	43550.35
615.08	43758.66
615.23	43922.49
615.38	43957.60
615.54	43599.50
615.69	43973.98
615.84	43344.38
616.00	43955.26
616.15	43803.13
616.30	44123.78
616.46	43576.09
616.61	43232.04
616.76	43636.95
616.92	43676.74
617.07	43611.20
617.22	43246.08
617.37	43622.90
617.53	43845.26
617.68	43655.67
617.83	43395.87
617.99	43997.39
618.14	43487.15
618.29	43503.54
618.45	43515.24
618.60	43253.10
618.75	43243.74
618.90	43489.49
619.06	43133.73
619.21	43508.22
619.36	43548.01
619.51	43201.61
619.67	43276.51
619.82	43452.05
619.97	43686.10
620.12	43438.00
620.28	43054.15
620.43	42752.23
620.58	43325.66
620.73	43283.53
620.89	43416.94
621.04	43021.39
621.19	42569.66
621.34	42817.76
621.49	43112.67
621.65	42784.99
621.80	42637.54
621.95	42733.50
622.10	43201.61
622.25	42359.02
622.41	42424.55
622.56	42209.22
622.71	42806.06
622.86	42682.01
623.01	42845.85
623.16	42909.04
623.32	42803.72
623.47	43248.42
623.62	42777.97
623.77	42333.27
623.92	42663.28
624.07	42256.03
624.23	41872.18
624.38	42363.70
624.53	42038.36
624.68	42340.29
624.83	42359.02
624.98	42375.40
625.13	42124.96
625.29	42614.13
625.44	42085.17
625.59	42548.60
625.74	41748.14
625.89	42157.73
626.04	41659.20
626.19	41904.95
626.34	41715.37
626.49	42396.46
626.65	42054.75
626.80	42288.80
626.95	42321.57
627.10	42089.85
627.25	41727.07
627.40	41682.60
627.55	41748.14
627.70	41418.12
627.85	41462.59
628.00	41888.57
628.15	41656.85
628.30	41247.26
628.45	42094.53
628.60	41549.19
628.76	41956.44
628.91	41837.08
629.06	41617.07
629.21	41729.41
629.36	41624.09
629.51	41294.07
629.66	41249.60
629.81	41528.13
629.96	41193.43
630.11	41563.23
630.26	41539.83
630.41	41633.45
630.56	41525.78
630.71	41776.22
630.86	40907.88
631.01	40896.18
631.16	41308.11
631.31	41048.32
631.46	40807.24
631.61	41240.24
631.76	41158.32
631.91	41170.02
632.06	41361.95
632.21	40947.67
632.36	41160.66
632.51	40926.61
632.66	40776.81
632.81	40509.99
632.96	40414.03
633.10	40502.97
633.25	40765.11
633.40	41219.17
633.55	40641.06
633.70	40388.28
633.85	40741.71
634.00	40322.75
634.15	40687.87
634.30	40643.40
634.45	40451.48
634.60	40872.78
634.75	40601.27
634.90	40224.45
635.05	40715.96
635.19	40238.49
635.34	40313.39
635.49	40273.60
635.64	40107.42
635.79	40538.08
635.94	40198.70
636.09	40076.99
636.24	40362.54
636.39	40238.49
636.53	40172.96
636.68	39959.97
636.83	40287.64
636.98	40423.39
637.13	39704.85
637.28	40210.40
637.43	40598.93
637.57	40519.35
637.72	40179.98
637.87	40156.57
638.02	39934.22
638.17	40168.27
638.32	39875.71
638.46	40100.40
638.61	40060.61
638.76	39533.99
638.91	39929.54
639.06	40109.76
639.20	39966.99
639.35	39966.99
639.50	39702.51
639.65	39978.69
639.80	40353.18
639.94	39512.92
640.09	39763.36
640.24	39592.50
640.39	39454.41
640.54	39611.23
640.68	39601.86
640.83	39431.01
640.98	39419.30
641.13	38976.94
641.27	39491.86
641.42	39431.01
641.57	39548.03
641.72	39196.95
641.86	39164.18
642.01	38948.85
642.16	39166.52
642.31	38934.81
642.45	39124.40
642.60	39063.54
642.75	39459.09
642.90	39318.66
643.04	39445.05
643.19	38986.30
643.34	38904.38
643.48	38738.21
643.63	38808.42
643.78	38857.57
643.93	38803.74
644.07	38827.15
644.22	38866.94
644.37	38265.42
644.51	38836.51
644.66	39035.45
644.81	38974.60
644.95	39079.92
645.10	38834.17
645.25	39145.46
645.39	38904.38
645.54	38642.24
645.69	38770.97
645.83	38689.06
645.98	38904.38
646.13	38675.01
646.27	38536.92
646.42	38916.09
646.57	37904.98
646.71	38478.41
646.86	38742.89
647.00	38778.00
647.15	38803.74
647.30	38398.83
647.44	37984.55
647.59	38403.51
647.74	38450.32
647.88	38602.46
648.03	38787.36
648.17	39026.09
648.32	38029.02
648.47	38429.26
648.61	37949.45
648.76	38293.50
648.90	38391.81
649.05	38438.62
649.20	38340.32
649.34	38279.46
649.49	38068.81
649.63	37853.48
649.78	37949.45
649.92	38204.56
650.07	38700.76
650.21	37904.98
650.36	37661.56
650.51	38012.64
650.65	38256.06
650.80	38066.47
650.94	38094.56
651.09	37825.40
651.23	37757.52
651.38	38007.96
651.52	37645.18
651.67	37539.85
651.81	37593.68
651.96	37535.17
652.10	37390.06
652.25	37401.76
652.39	38045.41
652.54	37490.70
652.68	37893.27
652.83	37888.59
652.97	37785.61
653.12	37532.83
653.26	38003.28
653.41	37031.96
653.55	37312.82
653.70	37532.83
653.84	37516.45
653.99	37420.48
654.13	37287.07
654.27	37188.77
654.42	37027.28
654.56	37354.95
654.71	37060.04
654.85	37352.61
655.00	37511.77
655.14	37064.72
655.29	36980.46
655.43	37188.77
655.57	37296.44
655.72	36807.26
655.86	36362.56
656.01	36720.66
656.15	36800.24
656.30	36617.68
656.44	36985.15
656.58	36460.87
656.73	36556.83
656.87	36856.42
657.01	36613.00
657.16	37038.98
657.30	36823.65
657.45	36236.17
657.59	36453.84
657.73	36634.06
657.88	37432.19
658.02	36746.41
658.16	36486.61
658.31	36692.58
658.45	36629.38
658.60	36559.17
658.74	36308.73
658.88	36353.20
659.03	36222.13
659.17	36154.26
659.31	36030.21
659.46	36058.29
659.60	36313.41
659.74	36250.22
659.89	35894.46
660.03	36060.63
660.17	36065.31
660.32	36098.08
660.46	36229.15
660.60	36020.84
660.74	35571.46
660.89	35681.47
661.03	35735.30
661.17	35515.29
661.32	35335.07
661.46	35377.20
661.60	35220.38
661.74	35864.03
661.89	35803.17
662.03	35428.69
662.17	35157.19
662.31	35098.67
662.46	35637.00
662.60	35510.61
662.74	35185.27
662.88	35009.73
663.03	35002.71
663.17	34476.09
663.31	34347.36
663.45	34658.65
663.60	35030.80
663.74	35182.93
663.88	34871.64
664.02	34911.43
664.17	35159.53
664.31	34476.09
664.45	34529.92
664.59	34443.32
664.73	34227.99
664.88	34670.36
665.02	34330.98
665.16	34227.99
665.30	34398.85
665.44	34295.87
665.59	33977.56
665.73	34295.87
665.87	34087.56
666.01	34211.61
666.15	34188.21
666.29	33394.76
666.44	34209.27
666.58	34064.16
666.72	34150.76
666.86	34075.86
667.00	34007.98
667.14	33474.34
667.28	33472.00
667.43	33177.09
667.57	33773.93
667.71	33303.48
667.85	33261.35
667.99	33123.26
668.13	33322.21
668.27	33230.93
668.41	33567.96
668.56	33230.93
668.70	33092.83
668.84	33266.03
668.98	32898.57
669.12	32776.86
669.26	32840.06
669.40	32589.62
669.54	32879.85
669.68	32683.24
669.82	32624.73
669.96	32503.02
670.10	32261.94
670.25	32671.54
670.39	32449.19
670.53	32313.44
670.67	32187.05
670.81	32416.42
670.95	32456.21
671.09	32217.47
671.23	32147.26
671.37	32432.80
671.51	31917.89
671.65	31585.53
671.79	31695.53
671.93	31374.88
672.07	32297.05
672.21	31744.69
672.35	31800.86
672.49	32130.87
672.63	31653.40
672.77	31606.59
672.91	31103.38
673.05	31550.42
673.19	31475.52
673.33	31442.76
673.47	31323.39
673.61	31140.83
673.75	30679.74
673.89	30817.83
674.03	30347.39
674.17	30485.48
674.31	30967.63
674.45	30815.49
674.59	30866.98
674.73	30665.70
674.87	30398.88
675.01	30286.53
675.15	30459.73
675.29	30492.50
675.43	30548.67
675.56	29900.34
675.70	30181.21
675.84	29699.06
675.98	29298.83
676.12	29879.28
676.26	29736.51
676.40	29844.17
676.54	29390.11
676.68	29799.70
676.82	29303.51
676.96	29502.45
677.10	29333.93
677.23	29532.88
677.37	29158.39
677.51	28809.65
677.65	28744.12
677.79	28959.45
677.93	28484.32
678.07	28891.57
678.21	28341.55
678.34	28341.55
678.48	28292.40
678.62	28224.52
678.76	28011.53
678.90	27721.30
679.04	27674.49
679.18	27960.04
679.31	27637.05
679.45	27711.94
679.59	27534.06
679.73	27412.35
679.87	27866.42
680.00	27477.89
680.14	27056.59
680.28	27133.83
680.42	27035.53
680.56	27227.45
680.70	26703.17
680.83	27274.26
680.97	27505.98
681.11	26948.93
681.25	26649.34
681.39	26579.12
681.52	26422.31
681.66	26324.01
681.80	26476.14
681.94	26403.58
682.07	26272.51
682.21	26129.74
682.35	25827.81
682.49	26274.85
682.62	26064.21
682.76	26045.48
682.90	26031.44
683.04	25621.84
683.17	25699.08
683.31	25572.69
683.45	25289.49
683.59	25149.06
683.72	25085.86
683.86	25053.09
684.00	25127.99
684.13	24978.20
684.27	25254.38
684.41	24496.05
684.55	24699.67
684.68	24772.23
684.82	24505.41
684.96	24364.98
685.09	24500.73
685.23	24383.70
685.37	24058.37
685.50	24023.26
685.64	24175.39
685.78	23847.72
685.91	24177.73
686.05	23690.90
686.19	23847.72
686.32	23276.63
686.46	23405.36
686.60	23197.05
686.73	23358.55
686.87	22965.34
687.01	23405.36
687.14	22920.87
687.28	22862.35
687.42	22773.41
687.55	22890.44
687.69	22946.61
687.82	22963.00
687.96	22899.80
688.10	22443.40
688.23	22625.96
688.37	22033.80
688.50	22125.08
688.64	22160.19
688.78	22141.47
688.91	22298.28
689.05	22324.03
689.18	21881.67
689.32	21715.49
689.46	21731.87
689.59	21912.10
689.73	21668.68
689.86	21661.66
690.00	21577.40
690.13	21659.32
690.27	21394.84
690.41	21170.15
690.54	20886.94
690.68	20891.62
690.81	20840.13
690.95	20666.93
691.08	20910.35
691.22	20650.55
691.35	21064.82
691.49	20741.83
691.62	20877.58
691.76	20692.68
691.89	20374.36
692.03	20056.05
692.16	20322.87
692.30	20135.63
692.43	19726.04
692.57	19758.80
692.70	19957.75
692.84	19803.27
692.97	19782.21
693.11	19527.09
693.24	19646.46
693.38	19232.18
693.51	19171.33
693.65	19339.85
693.78	19452.19
693.92	19482.62
694.05	19143.24
694.19	19197.07
694.32	19110.47
694.45	18703.22
694.59	18572.15
694.72	18373.21
694.86	18977.06
694.99	18478.53
695.13	18455.12
695.26	18689.18
695.39	18452.78
695.53	18611.94
695.66	18237.45
695.80	18363.84
695.93	18218.73
696.07	17949.57
696.20	17994.04
696.33	17975.31
696.47	18097.02
696.60	17685.09
696.73	17818.50
696.87	17582.10
697.00	17862.97
697.14	17362.09
697.27	17315.28
697.40	17401.88
697.54	17270.81
697.67	17135.06
697.80	17202.94
697.94	16982.93
698.07	16865.90
698.21	16585.04
698.34	16709.08
698.47	16627.17
698.61	16437.58
698.74	16416.52
698.87	16189.49
699.01	15843.09
699.14	16051.39
699.27	16290.13
699.40	16152.04
699.54	15955.43
699.67	15751.81
699.80	15981.18
699.94	15508.39
700.07	15922.66
700.20	15630.10
700.34	15569.24
700.47	15786.91
700.60	15831.38
700.73	15765.85
700.87	15688.61
701.00	15431.15
701.13	15304.76
701.26	15131.56
701.40	15227.53
701.53	15178.37
701.66	15220.50
701.79	14972.41
701.93	15047.30
702.06	15007.52
702.19	14930.28
702.32	14878.79
702.46	14621.33
702.59	14567.49
702.72	14197.69
702.85	14497.28
702.99	14511.32
703.12	14431.74
703.25	14298.33
703.38	14106.41
703.51	14111.09
703.65	14150.88
703.78	14087.68
703.91	13916.83
704.04	13895.76
704.17	13696.82
704.31	13935.55
704.44	13767.03
704.57	13523.62
704.70	13621.92
704.83	13540.00
704.96	13823.20
705.10	13465.10
705.23	13413.61
>>>>>End Processed Spectral Data<<<<<
