SpectraSuite Data File
++++++++++++++++++++++++++++++++++++
Date: Fri Oct 25 10:43:17 EDT 2013
User: price-jones
Dark Spectrum Present: No
Reference Spectrum Present: No
Number of Sampled Component Spectra: 1
Spectrometers: USB2+H05261
Integration Time (usec): 100000 (USB2+H05261)
Spectra Averaged: 1 (USB2+H05261)
Boxcar Smoothing: 0 (USB2+H05261)
Correct for Electrical Dark: No (USB2+H05261)
Strobe/Lamp Enabled: No (USB2+H05261)
Correct for Detector Non-linearity: No (USB2+H05261)
Correct for Stray Light: No (USB2+H05261)
Number of Pixels in Processed Spectrum: 2048
>>>>>Begin Processed Spectral Data<<<<<
365.73	142.77
365.92	142.77
366.12	142.77
366.32	126.39
366.52	7.02
366.72	0.00
366.91	65.54
367.11	7.02
367.31	0.00
367.51	18.72
367.70	42.13
367.90	60.85
368.10	0.00
368.30	51.49
368.49	0.00
368.69	39.79
368.89	28.09
369.09	39.79
369.28	2.34
369.48	60.85
369.68	110.01
369.87	63.19
370.07	105.32
370.27	117.03
370.47	180.22
370.66	320.65
370.86	411.93
371.06	524.28
371.25	531.30
371.45	360.44
371.65	486.83
371.84	440.02
372.04	454.06
372.24	493.85
372.44	449.38
372.63	463.43
372.83	433.00
373.03	484.49
373.22	517.26
373.42	552.37
373.62	557.05
373.81	517.26
374.01	613.22
374.21	479.81
374.40	543.00
374.60	653.01
374.79	580.45
374.99	571.09
375.19	613.22
375.38	636.63
375.58	491.51
375.78	589.82
375.97	643.65
376.17	631.94
376.37	571.09
376.56	638.97
376.76	627.26
376.95	620.24
377.15	622.58
377.35	608.54
377.54	641.31
377.74	620.24
377.93	596.84
378.13	671.73
378.33	641.31
378.52	695.14
378.72	601.52
378.91	695.14
379.11	681.10
379.31	678.76
379.50	622.58
379.70	730.25
379.89	709.18
380.09	716.20
380.28	650.67
380.48	662.37
380.68	580.45
380.87	650.67
381.07	678.76
381.26	667.05
381.46	678.76
381.65	685.78
381.85	734.93
382.04	720.88
382.24	702.16
382.43	676.41
382.63	653.01
382.83	613.22
383.02	725.57
383.22	716.20
383.41	667.05
383.61	746.63
383.80	788.76
384.00	779.40
384.19	730.25
384.39	819.19
384.58	819.19
384.78	779.40
384.97	800.46
385.17	800.46
385.36	833.23
385.56	760.67
385.75	718.54
385.95	809.83
386.14	875.36
386.34	781.74
386.53	805.14
386.72	812.17
386.92	887.06
387.11	873.02
387.31	877.70
387.50	924.51
387.70	819.19
387.89	814.51
388.09	917.49
388.28	884.72
388.48	919.83
388.67	894.08
388.86	837.91
389.06	957.28
389.25	926.85
389.45	933.87
389.64	933.87
389.84	994.73
390.03	964.30
390.22	976.00
390.42	1076.65
390.61	1015.79
390.81	1008.77
391.00	1050.90
391.19	1053.24
391.39	1046.22
391.58	1102.39
391.78	1027.50
391.97	1067.28
392.16	999.41
392.36	1015.79
392.55	1046.22
392.75	1004.09
392.94	1041.54
393.13	1039.20
393.33	966.64
393.52	1032.18
393.71	1043.88
393.91	1114.10
394.10	1083.67
394.29	1186.65
394.49	1165.59
394.68	1170.27
394.88	1149.20
395.07	1226.44
395.26	1261.55
395.46	1196.01
395.65	1231.12
395.84	1214.74
396.04	1235.80
396.23	1238.14
396.42	1165.59
396.62	1158.57
396.81	1256.87
397.00	1256.87
397.19	1345.81
397.39	1287.29
397.58	1401.98
397.77	1317.72
397.97	1383.26
398.16	1404.32
398.35	1474.54
398.55	1458.15
398.74	1488.58
398.93	1509.65
399.12	1488.58
399.32	1519.01
399.51	1469.86
399.70	1575.18
399.90	1614.97
400.09	1570.50
400.28	1640.72
400.47	1572.84
400.67	1659.44
400.86	1652.42
401.05	1607.95
401.24	1682.85
401.44	1652.42
401.63	1809.23
401.82	1701.57
402.01	1755.40
402.21	1748.38
402.40	1764.76
402.59	1678.16
402.78	1760.08
402.97	1710.93
403.17	1790.51
403.36	1703.91
403.55	1834.98
403.74	1928.60
403.93	1802.21
404.13	1802.21
404.32	1834.98
404.51	1795.19
404.70	1877.11
404.89	1961.37
405.09	1987.11
405.28	1989.46
405.47	1956.69
405.66	1937.96
405.85	2017.54
406.05	1980.09
406.24	2010.52
406.43	2050.31
406.62	2033.93
406.81	2071.37
407.00	2005.84
407.20	2043.29
407.39	2045.63
407.58	2059.67
407.77	2078.40
407.96	2165.00
408.15	2340.54
408.34	2207.13
408.54	2282.02
408.73	2223.51
408.92	2342.88
409.11	2349.90
409.30	2260.96
409.49	2286.70
409.68	2312.45
409.87	2342.88
410.07	2260.96
410.26	2331.17
410.45	2284.36
410.64	2420.11
410.83	2504.37
411.02	2506.71
411.21	2466.92
411.40	2504.37
411.59	2609.70
411.78	2581.61
411.98	2600.34
412.17	2567.57
412.36	2647.15
412.55	2743.11
412.74	2654.17
412.93	2792.26
413.12	2654.17
413.31	2942.05
413.50	2857.79
413.69	2902.26
413.88	2752.47
414.07	2895.24
414.26	3016.95
414.45	2890.56
414.64	2918.65
414.83	3014.61
415.02	2925.67
415.22	3054.40
415.41	3105.89
415.60	3176.11
415.79	3227.60
415.98	3101.21
416.17	3145.68
416.36	3197.17
416.55	3255.69
416.74	3187.81
416.93	3220.58
417.12	3246.32
417.31	3300.16
417.50	3377.39
417.69	3435.91
417.88	3471.01
418.07	3337.60
418.26	3478.04
418.45	3407.82
418.64	3478.04
418.83	3538.89
419.02	3524.85
419.21	3613.79
419.39	3508.46
419.58	3588.04
419.77	3471.01
419.96	3599.74
420.15	3578.68
420.34	3761.24
420.53	3667.62
420.72	3716.77
420.91	3847.84
421.10	3770.60
421.29	3794.01
421.48	3857.20
421.67	3833.80
421.86	3801.03
422.05	3691.02
422.24	3798.69
422.43	3878.27
422.61	3950.82
422.80	3819.75
422.99	3810.39
423.18	3889.97
423.37	4067.85
423.56	3948.48
423.75	3946.14
423.94	3983.59
424.13	3618.47
424.32	3742.52
424.50	3836.14
424.69	3920.40
424.88	4105.30
425.07	3796.35
425.26	3784.65
425.45	3953.16
425.64	3796.35
425.83	3911.04
426.01	4086.58
426.20	3908.69
426.39	3988.27
426.58	3981.25
426.77	3962.53
426.96	3882.95
427.15	3999.98
427.33	4025.72
427.52	4030.40
427.71	4124.02
427.90	4060.83
428.09	4278.50
428.28	4203.60
428.46	4166.15
428.65	4156.79
428.84	4231.69
429.03	4257.43
429.22	4105.30
429.40	4100.62
429.59	4117.00
429.78	3957.85
429.97	3866.56
430.16	4049.13
430.34	4046.79
430.53	4121.68
430.72	4112.32
430.91	4327.65
431.10	4381.48
431.28	4449.36
431.47	4608.51
431.66	4620.22
431.85	4435.32
432.03	4505.53
432.22	4648.30
432.41	4624.90
432.60	4683.41
432.79	4746.61
432.97	4777.03
433.16	4704.48
433.35	4599.15
433.54	4692.77
433.72	4603.83
433.91	4709.16
434.10	4683.41
434.28	4744.27
434.47	4781.71
434.66	4903.42
434.85	4865.97
435.03	4905.76
435.22	4917.47
435.41	5116.41
435.59	4868.31
435.78	5104.71
435.97	5020.45
436.16	5083.64
436.34	5036.83
436.53	5107.05
436.72	5181.95
436.90	5020.45
437.09	5287.27
437.28	5100.03
437.46	5039.17
437.65	5226.42
437.84	5146.84
438.02	5107.05
438.21	5245.14
438.40	5203.01
438.58	5359.83
438.77	5263.86
438.96	5432.38
439.14	5446.43
439.33	5692.18
439.52	5448.77
439.70	5584.52
439.89	5617.29
440.08	5668.78
440.26	5767.08
440.45	5605.58
440.63	5930.92
440.82	5923.90
441.01	5982.41
441.19	5905.17
441.38	6071.35
441.57	6061.99
441.75	6186.04
441.94	6279.66
442.12	6249.23
442.31	6307.74
442.50	6054.97
442.68	6296.04
442.87	6228.17
443.05	6200.08
443.24	6211.78
443.43	6399.02
443.61	6399.02
443.80	6609.67
443.98	6246.89
444.17	6064.33
444.35	6413.07
444.54	6581.59
444.73	6609.67
444.91	6413.07
445.10	6480.94
445.28	6392.00
445.47	6300.72
445.65	6396.68
445.84	6462.22
446.02	6516.05
446.21	6349.87
446.39	6518.39
446.58	6661.16
446.77	6621.38
446.95	6492.65
447.14	6588.61
447.32	6717.34
447.51	6656.48
447.69	6494.99
447.88	6630.74
448.06	6595.63
448.25	6733.72
448.43	6707.98
448.62	6623.72
448.80	6705.63
448.99	6710.32
449.17	6834.36
449.36	6993.52
449.54	6675.21
449.73	6942.03
449.91	7066.08
450.10	7077.78
450.28	7049.69
450.46	7012.24
450.65	7098.84
450.83	7077.78
451.02	7157.36
451.20	7190.13
451.39	7162.04
451.57	6991.18
451.76	7178.42
451.94	7187.79
452.13	7241.62
452.31	7250.98
452.49	7187.79
452.68	7183.10
452.86	7162.04
453.05	7316.51
453.23	7389.07
453.42	7290.77
453.60	7304.81
453.78	7344.60
453.97	7269.70
454.15	7267.36
454.34	7360.98
454.52	7360.98
454.70	7480.35
454.89	7452.27
455.07	7604.40
455.26	7466.31
455.44	7793.98
455.62	7730.79
455.81	7749.51
455.99	7559.93
456.17	7779.94
456.36	7695.68
456.54	7927.39
456.73	8044.42
456.91	8201.24
457.09	7943.78
457.28	8248.05
457.46	7840.79
457.64	7997.61
457.83	8126.34
458.01	8121.66
458.19	8182.51
458.38	7997.61
458.56	8135.70
458.74	8086.55
458.93	8023.36
459.11	8166.13
459.29	8065.49
459.48	8175.49
459.66	8325.29
459.84	8201.24
460.03	8470.40
460.21	8524.23
460.39	8416.57
460.57	8533.59
460.76	8671.68
460.94	8449.33
461.12	8470.40
461.31	8678.71
461.49	8723.18
461.67	8645.94
461.85	8713.81
462.04	8812.12
462.22	9404.27
462.40	8910.42
462.59	8713.81
462.77	8807.44
462.95	8842.54
463.13	9004.04
463.32	8889.35
463.50	9071.92
463.68	8737.22
463.86	8894.04
464.05	8903.40
464.23	8723.18
464.41	9025.11
464.59	8950.21
464.78	9172.56
464.96	8980.64
465.14	9041.49
465.32	9062.55
465.50	9186.60
465.69	9392.57
465.87	9303.63
466.05	9259.16
466.23	9224.05
466.41	9224.05
466.60	9448.74
466.78	9064.89
466.96	9397.25
467.14	9238.09
467.32	9228.73
467.51	9415.98
467.69	9193.62
467.87	9577.47
468.05	9380.87
468.23	9228.73
468.41	9413.63
468.60	9453.42
468.78	9577.47
468.96	9460.45
469.14	9575.13
469.32	9607.90
469.50	9423.00
469.69	9696.84
469.87	9769.40
470.05	9755.35
470.23	9839.61
470.41	9736.63
470.59	10162.61
470.77	9884.08
470.95	9762.37
471.14	10122.82
471.32	9713.22
471.50	10090.05
471.68	10249.21
471.86	10214.10
472.04	10305.38
472.22	10417.72
472.40	10136.86
472.58	10354.53
472.77	10487.94
472.95	10490.28
473.13	10848.38
473.31	10558.16
473.49	10342.83
473.67	10415.38
473.85	10616.67
474.03	10729.02
474.21	10902.22
474.39	10839.02
474.57	10998.18
474.75	10991.16
474.93	10991.16
475.12	11005.20
475.30	11236.91
475.48	11014.56
475.66	11227.55
475.84	11138.61
476.02	11325.85
476.20	11138.61
476.38	11618.42
476.56	11882.90
476.74	11688.64
476.92	11641.82
477.10	11721.40
477.28	12018.65
477.46	11967.16
477.64	11957.80
477.82	12358.03
478.00	12351.01
478.18	12313.56
478.36	12524.21
478.54	12521.87
478.72	12685.70
478.90	12727.83
479.08	12933.80
479.26	12992.31
479.44	12938.48
479.62	13252.11
479.80	13165.51
479.98	13547.02
480.16	13226.37
480.34	13397.23
480.52	13717.88
480.70	13460.42
480.88	13540.00
481.06	13769.37
481.24	13926.19
481.41	14036.19
481.59	14019.81
481.77	14249.18
481.95	13973.00
482.13	14457.49
482.31	14469.19
482.49	14902.19
482.67	15075.39
482.85	14728.99
483.03	15276.68
483.21	15300.08
483.39	15438.17
483.57	15220.50
483.74	15374.98
483.92	15421.79
484.10	15243.91
484.28	15744.78
484.46	15819.68
484.64	16102.89
484.82	16105.23
485.00	16149.70
485.18	16542.91
485.35	16339.28
485.53	16016.29
485.71	16042.03
485.89	16287.79
486.07	16542.91
486.25	16542.91
486.43	16816.75
486.61	17053.14
486.78	17039.10
486.96	16996.97
487.14	17530.61
487.32	17769.35
487.50	17659.34
487.68	18195.32
487.85	18029.15
488.03	18607.26
488.21	18410.65
488.39	18218.73
488.57	18618.96
488.75	18228.09
488.92	18925.57
489.10	19105.79
489.28	19213.46
489.46	19508.37
489.64	19763.48
489.81	19829.02
489.99	19964.77
490.17	20149.67
490.35	20226.91
490.53	20004.56
490.70	20561.61
490.88	20664.59
491.06	20542.88
491.24	20381.38
491.41	20856.51
491.59	20592.03
491.77	20453.94
491.95	20798.00
492.13	21184.19
492.30	21319.94
492.48	21397.18
492.66	21546.97
492.84	21373.77
493.01	21706.13
493.19	21869.97
493.37	22221.05
493.54	22022.10
493.72	22553.40
493.90	22504.25
494.08	22874.06
494.25	22920.87
494.43	23281.31
494.61	23019.17
494.79	23140.88
494.96	23007.47
495.14	23339.82
495.32	23807.93
495.49	23475.57
495.67	23744.73
495.85	23779.84
496.02	23924.96
496.20	24198.80
496.38	24290.08
496.55	24250.29
496.73	24690.31
496.91	24538.18
497.09	24510.09
497.26	24835.42
497.44	24821.38
497.62	24877.55
497.79	25202.89
497.97	25048.41
498.14	25401.83
498.32	25570.35
498.50	25713.13
498.67	25998.67
498.85	25745.89
499.03	25804.41
499.20	26038.46
499.38	26366.13
499.56	26410.60
499.73	26148.46
499.91	26174.21
500.08	26792.11
500.26	26096.97
500.44	26485.50
500.61	26785.09
500.79	26546.36
500.97	26520.61
501.14	26977.01
501.32	26719.56
501.49	27056.59
501.67	26904.46
501.84	27295.33
502.02	27182.98
502.20	27253.20
502.37	27744.71
502.55	27580.87
502.72	27758.75
502.90	27770.46
503.07	27702.58
503.25	27988.13
503.43	27716.62
503.60	28020.89
503.78	28074.73
503.95	27943.66
504.13	28116.86
504.30	28596.67
504.48	28458.57
504.65	28783.91
504.83	28685.61
505.01	28968.81
505.18	28987.53
505.36	29364.36
505.53	29413.51
505.71	29294.14
505.88	29500.11
506.06	29116.26
506.23	29450.96
506.41	29584.37
506.58	29912.05
506.76	29862.90
506.93	29724.80
507.11	29605.44
507.28	29778.64
507.46	29514.16
507.63	29804.38
507.81	29876.94
507.98	29759.91
508.16	30277.17
508.33	30590.80
508.50	30389.52
508.68	30506.54
508.85	30511.22
509.03	30696.13
509.20	31012.10
509.38	30864.64
509.55	30810.81
509.73	31232.11
509.90	31009.76
510.08	31604.25
510.25	31599.57
510.42	31536.38
510.60	31199.34
510.77	31454.46
510.95	31737.66
511.12	31732.98
511.30	31625.32
511.47	32205.77
511.64	31751.71
511.82	31992.78
511.99	31798.52
512.17	32294.71
512.34	31718.94
512.51	32280.67
512.69	32617.71
512.86	32383.65
513.04	32786.22
513.21	32629.41
513.38	32818.99
513.56	32357.91
513.73	32486.64
513.90	32687.92
514.08	32437.48
514.25	32914.95
514.43	32924.32
514.60	33251.99
514.77	33364.34
514.95	33582.01
515.12	33102.20
515.29	33427.53
515.47	34059.48
515.64	33574.98
515.81	33289.44
515.99	33696.69
516.16	33649.88
516.33	33181.77
516.51	33352.63
516.68	32950.06
516.85	32889.21
517.03	33347.95
517.20	33764.57
517.37	33797.34
517.54	33855.85
517.72	33844.15
517.89	33474.34
518.06	33905.00
518.24	33963.51
518.41	34431.62
518.58	34321.62
518.75	34410.56
518.93	34771.00
519.10	34660.99
519.27	35243.79
519.45	34799.08
519.62	34731.21
519.79	35302.30
519.96	35646.36
520.14	34937.18
520.31	35117.40
520.48	35145.48
520.65	35321.02
520.83	35454.44
521.00	35583.16
521.17	34916.11
521.34	35962.33
521.52	35594.87
521.69	36116.81
521.86	35887.43
522.03	36421.08
522.20	36107.44
522.38	36065.31
522.55	36060.63
522.72	36009.14
522.89	36013.82
523.07	36240.86
523.24	36418.74
523.41	36444.48
523.58	36374.27
523.75	37223.88
523.92	36898.55
524.10	36961.74
524.27	36856.42
524.44	36999.19
524.61	36954.72
524.78	37156.00
524.96	37221.54
525.13	37628.79
525.30	37743.48
525.47	37563.26
525.64	36980.46
525.81	37354.95
525.98	36943.02
526.16	37006.21
526.33	37034.30
526.50	37148.98
526.67	36959.40
526.84	37376.01
527.01	37195.79
527.18	37525.81
527.36	37881.57
527.53	37556.24
527.70	38263.08
527.87	37799.65
528.04	37933.06
528.21	38164.78
528.38	38003.28
528.55	38323.93
528.72	38052.43
528.89	38902.04
529.07	38169.46
529.24	38565.01
529.41	38614.16
529.58	38667.99
529.75	38700.76
529.92	38721.82
530.09	38888.00
530.26	39100.99
530.43	38925.45
530.60	38679.69
530.77	39040.14
530.94	39349.09
531.11	38904.38
531.28	38831.83
531.46	38948.85
531.63	39304.62
531.80	39068.22
531.97	38892.68
532.14	39627.61
532.31	38731.18
532.48	39019.07
532.65	39344.41
532.82	39166.52
532.99	39814.85
533.16	39489.52
533.33	39433.35
533.50	39962.31
533.67	39835.92
533.84	39550.37
534.01	39447.39
534.18	39693.15
534.35	40182.32
534.52	39723.57
534.69	39779.74
534.86	40261.90
535.03	40456.16
535.20	40318.07
535.37	40776.81
535.54	40282.96
535.71	40580.21
535.88	40341.47
536.05	40245.51
536.22	40587.23
536.38	40591.91
536.55	40224.45
536.72	40364.88
536.89	39955.29
537.06	40364.88
537.23	40795.54
537.40	41008.53
537.57	40205.72
537.74	40968.74
537.91	41155.98
538.08	40996.82
538.25	40559.14
538.42	41090.44
538.59	41244.92
538.75	40662.13
538.92	40931.29
539.09	41106.83
539.26	40713.62
539.43	41013.21
539.60	40938.31
539.77	40872.78
539.94	40830.65
540.11	41116.19
540.28	41404.08
540.44	41303.43
540.61	41198.11
540.78	40996.82
540.95	41057.68
541.12	41277.69
541.29	41368.97
541.46	41427.48
541.62	41727.07
541.79	41502.38
541.96	41656.85
542.13	41490.68
542.30	41820.69
542.47	41675.58
542.63	42244.33
542.80	41654.51
542.97	41954.10
543.14	42178.79
543.31	42082.83
543.48	42398.80
543.64	42808.40
543.81	42445.62
543.98	42499.45
544.15	42263.05
544.32	42754.57
544.48	42738.18
544.65	42373.06
544.82	42918.40
544.99	42635.20
545.16	42326.25
545.32	42237.31
545.49	42944.15
545.66	43012.02
545.83	43171.18
546.00	42838.83
546.16	43007.34
546.33	42869.25
546.50	42230.29
546.67	43267.14
546.83	42548.60
547.00	42880.95
547.17	42890.32
547.34	42653.92
547.50	43154.80
547.67	43438.00
547.84	43152.46
548.00	43203.95
548.17	43335.02
548.34	43426.30
548.51	43491.83
548.67	43730.57
548.84	43402.89
549.01	43381.83
549.18	43152.46
549.34	43538.65
549.51	43655.67
549.68	43253.10
549.84	43660.35
550.01	44034.84
550.18	43360.76
550.34	43398.21
550.51	43517.58
550.68	43599.50
550.84	43276.51
551.01	43674.40
551.18	43470.77
551.34	43594.82
551.51	43463.75
551.68	43639.29
551.84	43999.73
552.01	43077.56
552.18	43882.70
552.34	43342.04
552.51	44196.34
552.68	43894.41
552.84	43784.40
553.01	44395.28
553.18	43711.84
553.34	44060.58
553.51	44381.24
553.67	44133.14
553.84	44444.43
554.01	44732.32
554.17	44949.99
554.34	44395.28
554.51	44514.65
554.67	44154.21
554.84	44252.51
555.00	43997.39
555.17	44252.51
555.33	44446.77
555.50	44720.62
555.67	44383.58
555.83	44603.59
556.00	44430.39
556.16	44535.71
556.33	44360.17
556.50	44421.03
556.66	44509.97
556.83	44273.57
556.99	44528.69
557.16	44776.79
557.32	44814.24
557.49	44706.57
557.65	44376.56
557.82	44615.29
557.98	44645.72
558.15	44329.75
558.32	44676.15
558.48	44481.88
558.65	44591.89
558.81	44591.89
558.98	44725.30
559.14	44512.31
559.31	44971.05
559.47	44994.46
559.64	44645.72
559.80	45155.96
559.97	44762.75
560.13	44650.40
560.30	45162.98
560.46	44924.24
560.63	45294.05
560.79	45368.94
560.96	45382.99
561.12	45338.52
561.29	44809.56
561.45	44945.31
561.61	45057.65
561.78	44912.54
561.94	45045.95
562.11	45261.28
562.27	45020.20
562.44	45282.34
562.60	45535.12
562.77	45448.52
562.93	45310.43
563.10	45521.08
563.26	45315.11
563.42	45378.31
563.59	45413.41
563.75	45265.96
563.92	45497.67
564.08	45329.16
564.24	45226.17
564.41	45516.40
564.57	45144.25
564.74	45048.29
564.90	45167.66
565.07	45184.04
565.23	45242.56
565.39	45485.97
565.56	45546.82
565.72	45081.06
565.88	44999.14
566.05	44912.54
566.21	45366.60
566.38	45109.14
566.54	45397.03
566.70	45780.88
566.87	45935.35
567.03	45595.98
567.19	45996.21
567.36	45787.90
567.52	45368.94
567.68	45694.28
567.85	45404.05
568.01	45916.63
568.17	45326.81
568.34	45804.28
568.50	45844.07
568.66	45450.86
568.83	45228.51
568.99	45343.20
569.15	45647.47
569.32	45640.45
569.48	44989.78
569.64	45804.28
569.81	45584.27
569.97	45546.82
570.13	45797.26
570.30	45111.49
570.46	45151.27
570.62	45455.54
570.78	45310.43
570.95	45289.37
571.11	45434.48
571.27	45434.48
571.43	45684.92
571.60	45750.45
571.76	45705.98
571.92	45708.32
572.09	45518.74
572.25	45883.86
572.41	45429.80
572.57	45675.55
572.74	45965.78
572.90	45546.82
573.06	45478.95
573.22	45577.25
573.38	45708.32
573.55	45579.59
573.71	46162.39
573.87	45708.32
574.03	45617.04
574.20	45851.09
574.36	45553.85
574.52	45537.46
574.68	45762.15
574.84	45600.66
575.01	45528.10
575.17	45893.22
575.33	45345.54
575.49	45734.07
575.65	45715.34
575.82	45539.80
575.98	45219.15
576.14	46141.32
576.30	45689.60
576.46	45670.87
576.62	45556.19
576.79	45874.50
576.95	45144.25
577.11	45780.88
577.27	45937.69
577.43	45453.20
577.59	45600.66
577.75	45783.22
577.92	45352.56
578.08	45659.17
578.24	45722.37
578.40	45385.33
578.56	45497.67
578.72	45668.53
578.88	45717.68
579.04	45748.11
579.21	45364.26
579.37	45741.09
579.53	45579.59
579.69	45546.82
579.85	45848.75
580.01	45694.28
580.17	45572.57
580.33	45497.67
580.49	45673.21
580.65	45762.15
580.82	45914.29
580.98	45998.55
581.14	45507.04
581.30	45975.14
581.46	45497.67
581.62	45720.02
581.78	45780.88
581.94	46054.72
582.10	45848.75
582.26	45998.55
582.42	46057.06
582.58	45720.02
582.74	45565.55
582.90	46059.40
583.06	45935.35
583.22	46328.56
583.38	46007.91
583.54	45970.46
583.70	45923.65
583.86	46220.90
584.02	45282.34
584.18	45839.39
584.34	45907.27
584.50	46024.29
584.66	46129.62
584.82	45579.59
584.98	45954.08
585.14	46356.65
585.30	45586.61
585.46	46075.79
585.62	45029.57
585.78	45418.10
585.94	45062.33
586.10	45858.12
586.26	45570.23
586.42	46066.42
586.58	46429.21
586.74	45694.28
586.90	45956.42
587.06	45977.48
587.22	45986.85
587.38	45600.66
587.54	45450.86
587.70	45902.59
587.86	45572.57
588.02	45769.18
588.18	45984.51
588.34	45717.68
588.49	45305.75
588.65	45106.80
588.81	45481.29
588.97	45312.77
589.13	45495.33
589.29	45549.17
589.45	45282.34
589.61	45801.94
589.77	46234.94
589.93	45783.22
590.08	46024.29
590.24	46043.02
590.40	45872.16
590.56	46302.82
590.72	46131.96
590.88	46007.91
591.04	46127.28
591.20	46309.84
591.35	46300.48
591.51	46328.56
591.67	45621.72
591.83	46171.75
591.99	45954.08
592.15	45799.60
592.31	46024.29
592.46	45993.87
592.62	46312.18
592.78	46068.76
592.94	46368.35
593.10	46199.83
593.26	46241.96
593.41	46202.18
593.57	46342.61
593.73	45904.93
593.89	45865.14
594.05	45628.74
594.20	46031.32
594.36	46183.45
594.52	46258.35
594.68	46087.49
594.84	45759.81
594.99	45961.10
595.15	45909.61
595.31	46305.16
595.47	46401.12
595.62	46593.04
595.78	46171.75
595.94	46405.80
596.10	46045.36
596.25	45860.46
596.41	45839.39
596.57	45815.99
596.73	45940.04
596.88	45881.52
597.04	45947.06
597.20	46230.26
597.36	46263.03
597.51	46101.53
597.67	45808.96
597.83	45851.09
597.99	46209.20
598.14	45762.15
598.30	46054.72
598.46	46181.11
598.61	46026.63
598.77	45965.78
598.93	46174.09
599.09	45722.37
599.24	46539.21
599.40	46155.36
599.56	46581.34
599.71	46075.79
599.87	45677.90
600.03	45881.52
600.18	45923.65
600.34	45886.20
600.50	45815.99
600.65	45776.20
600.81	45937.69
600.97	46153.02
601.12	46272.39
601.28	46286.43
601.44	46176.43
601.59	46101.53
601.75	46075.79
601.91	46115.58
602.06	45687.26
602.22	46153.02
602.37	45830.03
602.53	45977.48
602.69	46447.93
602.84	46291.12
603.00	46078.13
603.16	46012.59
603.31	45827.69
603.47	45759.81
603.62	45797.26
603.78	45947.06
603.94	45839.39
604.09	46073.45
604.25	46124.94
604.40	45867.48
604.56	45904.93
604.71	46199.83
604.87	46089.83
605.03	46218.56
605.18	45542.14
605.34	45975.14
605.49	45612.36
605.65	46073.45
605.80	45411.07
605.96	46010.25
606.12	46054.72
606.27	45860.46
606.43	46078.13
606.58	46007.91
606.74	45708.32
606.89	45897.91
607.05	45951.74
607.20	45869.82
607.36	45961.10
607.51	46169.41
607.67	45998.55
607.82	45385.33
607.98	45605.34
608.13	45315.11
608.29	45705.98
608.44	45226.17
608.60	45474.27
608.75	45677.90
608.91	45287.03
609.06	45158.30
609.22	45223.83
609.37	45387.67
609.53	45818.33
609.68	45518.74
609.84	45287.03
609.99	45310.43
610.15	45020.20
610.30	45106.80
610.46	44971.05
610.61	45167.66
610.76	45359.58
610.92	45186.38
611.07	45642.79
611.23	45581.93
611.38	45570.23
611.54	45027.23
611.69	45141.91
611.84	44877.43
612.00	45394.69
612.15	44835.30
612.31	45186.38
612.46	45050.63
612.62	45174.68
612.77	45162.98
612.92	45202.77
613.08	45319.79
613.23	44872.75
613.39	44690.19
613.54	44720.62
613.69	44891.48
613.85	44847.00
614.00	45006.16
614.15	45333.84
614.31	44729.98
614.46	44835.30
614.62	45003.82
614.77	44722.96
614.92	44428.05
615.08	45001.48
615.23	44222.08
615.38	44886.79
615.54	44657.42
615.69	44870.41
615.84	44512.31
616.00	44500.61
616.15	44287.62
616.30	44355.49
616.46	44350.81
616.61	44449.11
616.76	44292.30
616.92	44002.07
617.07	44516.99
617.22	44463.16
617.37	44395.28
617.53	44404.64
617.68	44458.48
617.83	44428.05
617.99	44385.92
618.14	43990.37
618.29	44165.91
618.45	44048.88
618.60	44114.42
618.75	43901.43
618.90	43971.64
619.06	43779.72
619.21	44140.16
619.36	43629.93
619.51	44074.63
619.67	43936.54
619.82	43878.02
619.97	44126.12
620.12	43665.03
620.28	43597.16
620.43	43817.17
620.58	43971.64
620.73	44149.53
620.89	43786.74
621.04	43988.03
621.19	44224.42
621.34	43887.39
621.49	43955.26
621.65	43756.32
621.80	43882.70
621.95	43550.35
622.10	43894.41
622.25	43646.31
622.41	43117.35
622.56	43889.73
622.71	43964.62
622.86	43695.46
623.01	43339.70
623.16	43990.37
623.32	43009.68
623.47	43484.81
623.62	43325.66
623.77	43140.75
623.92	43283.53
624.07	43042.45
624.23	42967.55
624.38	43475.45
624.53	43292.89
624.68	43217.99
624.83	43306.93
624.98	43412.26
625.13	42717.12
625.29	42967.55
625.44	43054.15
625.59	42389.44
625.74	43058.84
625.89	42983.94
626.04	42616.47
626.19	43016.71
626.34	43281.19
626.49	42579.03
626.65	42658.60
626.80	43208.63
626.95	42501.79
627.10	42515.83
627.25	42326.25
627.40	42003.25
627.55	42614.13
627.70	42237.31
627.85	42237.31
628.00	42733.50
628.15	42354.33
628.30	42473.70
628.45	42728.82
628.60	42082.83
628.76	42370.72
628.91	42677.33
629.06	42277.10
629.21	42188.16
629.36	41956.44
629.51	42211.56
629.66	42157.73
629.81	41698.98
629.96	42103.90
630.11	42438.59
630.26	42342.63
630.41	42199.86
630.56	42244.33
630.71	42174.11
630.86	42176.45
631.01	41528.13
631.16	41598.34
631.31	41474.29
631.46	41287.05
631.61	41698.98
631.76	41493.02
631.91	42349.65
632.06	41720.05
632.21	41799.63
632.36	41855.80
632.51	41387.69
632.66	41720.05
632.81	40992.14
632.96	41799.63
633.10	41647.49
633.25	41556.21
633.40	41422.80
633.55	41493.02
633.70	41170.02
633.85	40978.10
634.00	41263.64
634.15	41340.88
634.30	41076.40
634.45	41280.03
634.60	40996.82
634.75	41230.88
634.90	41038.95
635.05	40879.80
635.19	41095.13
635.34	41160.66
635.49	41031.93
635.64	40961.72
635.79	40980.44
635.94	40603.61
636.09	40734.68
636.24	40690.21
636.39	40732.34
636.53	40767.45
636.68	40671.49
636.83	40966.40
636.98	40818.94
637.13	40968.74
637.28	41038.95
637.43	41146.62
637.57	40842.35
637.72	40715.96
637.87	40781.49
638.02	40252.53
638.17	40570.85
638.32	40591.91
638.46	40357.86
638.61	40161.25
638.76	40535.74
638.91	40519.35
639.06	40580.21
639.20	40289.98
639.35	40505.31
639.50	40364.88
639.65	40779.15
639.80	40631.70
639.94	40446.80
640.09	40341.47
640.24	40634.04
640.39	39990.39
640.54	40182.32
640.68	40133.17
640.83	39810.17
640.98	39854.64
641.13	39580.80
641.27	40378.92
641.42	39744.64
641.57	39889.75
641.72	40147.21
641.86	40072.31
642.01	39452.07
642.16	39662.72
642.31	39859.32
642.45	39917.84
642.60	39297.59
642.75	39503.56
642.90	39840.60
643.04	39746.98
643.19	38939.49
643.34	39007.37
643.48	39613.57
643.63	39789.11
643.78	39328.02
643.93	39620.59
644.07	39335.04
644.22	39248.44
644.37	39353.77
644.51	39021.41
644.66	39920.18
644.81	39594.84
644.95	39611.23
645.10	39264.83
645.25	38974.60
645.39	39328.02
645.54	39512.92
645.69	38667.99
645.83	39166.52
645.98	38761.61
646.13	39494.20
646.27	39283.55
646.42	38806.08
646.57	39192.27
646.71	38934.81
646.86	39599.52
647.00	39040.14
647.15	38895.02
647.30	39651.02
647.44	38586.07
647.59	38948.85
647.74	38836.51
647.88	38731.18
648.03	38663.31
648.17	38433.94
648.32	38831.83
648.47	38876.30
648.61	38831.83
648.76	38902.04
648.90	38541.60
649.05	38553.30
649.20	39133.76
649.34	38824.81
649.49	38139.03
649.63	38316.91
649.78	38658.63
649.92	38588.41
650.07	38693.74
650.21	38536.92
650.36	38473.73
650.51	38295.85
650.65	38955.88
650.80	38405.85
650.94	38565.01
651.09	38354.36
651.23	38092.22
651.38	38604.80
651.52	37841.78
651.67	38218.61
651.81	37656.88
651.96	38010.30
652.10	38216.27
652.25	38246.69
652.39	38459.68
652.54	38550.96
652.68	37818.38
652.83	38162.43
652.97	38452.66
653.12	38349.68
653.26	38117.96
653.41	37853.48
653.55	37860.51
653.70	38136.69
653.84	37787.95
653.99	37586.66
654.13	37209.84
654.27	37631.13
654.42	38251.38
654.56	38017.32
654.71	38031.36
654.85	37937.74
655.00	37699.01
655.14	37270.69
655.29	37322.18
655.43	37366.65
655.57	37184.09
655.72	36966.42
655.86	36964.08
656.01	36830.67
656.15	36526.40
656.30	36779.18
656.44	36655.13
656.58	37141.96
656.73	37097.49
656.87	37315.16
657.01	36961.74
657.16	37092.81
657.30	36610.66
657.45	36671.51
657.59	37289.42
657.73	36664.49
657.88	37083.45
658.02	36978.12
658.16	37329.20
658.31	37015.57
658.45	36762.79
658.60	37050.68
658.74	37003.87
658.88	37074.09
659.03	36856.42
659.17	36397.67
659.31	36531.08
659.46	36046.59
659.60	36465.55
659.74	36346.18
659.89	36196.38
660.03	36137.87
660.17	36673.85
660.32	36306.39
660.46	36355.54
660.60	36456.18
660.74	36025.53
660.89	36158.94
661.03	36107.44
661.17	36320.43
661.32	36030.21
661.46	36013.82
661.60	35637.00
661.74	35526.99
661.89	35571.46
662.03	35639.34
662.17	35943.61
662.31	35819.56
662.46	35723.60
662.60	36226.81
662.74	35782.11
662.88	35667.42
663.03	35089.31
663.17	35309.32
663.31	35407.62
663.45	35108.04
663.60	35400.60
663.74	34888.03
663.88	34691.42
664.02	35129.10
664.17	35360.81
664.31	34913.77
664.45	34993.35
664.59	34415.24
664.73	35260.17
664.88	34747.59
665.02	34632.91
665.16	34504.18
665.30	34394.17
665.44	34433.96
665.59	34448.00
665.73	34532.26
665.87	34230.33
666.01	34600.14
666.15	34263.10
666.29	34326.30
666.44	34291.19
666.58	34260.76
666.72	34092.24
666.86	34066.50
667.00	34015.01
667.14	33958.83
667.28	34298.21
667.43	34211.61
667.57	34195.23
667.71	33778.61
667.85	33598.39
667.99	33780.95
668.13	33785.63
668.27	33659.24
668.41	33624.14
668.56	33369.02
668.70	33507.11
668.84	33125.60
668.98	33462.64
669.12	33406.47
669.26	33226.24
669.40	33436.89
669.54	32982.83
669.68	32980.49
669.82	32217.47
669.96	33123.26
670.10	32872.82
670.25	32648.13
670.39	32510.04
670.53	32828.35
670.67	32795.59
670.81	32334.50
670.95	32421.10
671.09	32383.65
671.23	32002.14
671.37	32252.58
671.51	32400.04
671.65	32046.62
671.79	31817.24
671.93	31915.54
672.07	31875.76
672.21	31789.16
672.35	32215.13
672.49	31945.97
672.63	32004.49
672.77	31861.71
672.91	31721.28
673.05	31531.70
673.19	31477.86
673.33	31545.74
673.47	31379.56
673.61	30859.96
673.75	31072.95
673.89	31475.52
674.03	31026.14
674.17	30593.14
674.31	30869.33
674.45	30932.52
674.59	30855.28
674.73	31129.12
674.87	30782.73
675.01	31044.87
675.15	30796.77
675.29	30787.41
675.43	30441.01
675.56	30724.21
675.70	30429.30
675.84	30635.27
675.98	29450.96
676.12	30263.13
676.26	30237.38
676.40	29790.34
676.54	30183.55
676.68	29937.79
676.82	29401.81
676.96	29853.53
677.10	29813.74
677.23	29991.62
677.37	29205.20
677.51	29233.29
677.65	29013.28
677.79	28709.01
677.93	29020.30
678.07	28811.99
678.21	28636.45
678.34	28615.39
678.48	28257.29
678.62	28734.76
678.76	28222.18
678.90	28219.84
679.04	28315.80
679.18	28364.95
679.31	27524.70
679.45	27805.56
679.59	27852.38
679.73	27850.03
679.87	27672.15
680.00	27772.80
680.14	27845.35
680.28	26904.46
680.42	27562.15
680.56	27690.88
680.70	27098.72
680.83	27180.64
680.97	27098.72
681.11	27087.02
681.25	27096.38
681.39	27014.46
681.52	26672.74
681.66	26607.21
681.80	26597.85
681.94	26134.42
682.07	26134.42
682.21	25993.99
682.35	25949.52
682.49	26075.91
682.62	25996.33
682.76	25862.92
682.90	25977.61
683.04	26022.08
683.17	25790.36
683.31	25692.06
683.45	25673.34
683.59	25736.53
683.72	25645.25
683.86	25120.97
684.00	25053.09
684.13	24624.78
684.27	25006.28
684.41	24975.86
684.55	24774.57
684.68	24540.52
684.82	24772.23
684.96	25069.48
685.09	24631.80
685.23	24191.78
685.37	24479.66
685.50	24151.99
685.64	24533.50
685.78	24215.18
685.91	24144.97
686.05	23864.10
686.19	23772.82
686.32	23414.72
686.46	23681.54
686.60	23194.71
686.73	22916.19
686.87	23082.36
687.01	22822.56
687.14	22862.35
687.28	22874.06
687.42	22871.72
687.55	22778.09
687.69	23047.26
687.82	22834.27
687.96	22834.27
688.10	22476.16
688.23	22712.56
688.37	22403.61
688.50	22354.46
688.64	22361.48
688.78	22190.62
688.91	21795.07
689.05	21678.04
689.18	22075.93
689.32	21586.76
689.46	21848.90
689.59	22101.68
689.73	22192.96
689.86	21575.06
690.00	22001.04
690.13	21275.47
690.27	21104.61
690.41	21247.38
690.54	21219.30
690.68	21453.35
690.81	21343.35
690.95	21097.59
691.08	21092.91
691.22	20987.58
691.35	20978.22
691.49	20779.28
691.62	20828.43
691.76	20332.23
691.89	20449.26
692.03	20655.23
692.16	20130.95
692.30	20156.69
692.43	20163.72
692.57	19550.49
692.70	19515.39
692.84	20039.67
692.97	19578.58
693.11	19449.85
693.24	19438.15
693.38	19524.75
693.51	19356.23
693.65	19501.34
693.78	19517.73
693.92	19185.37
694.05	19328.14
694.19	19147.92
694.32	19168.99
694.45	19452.19
694.59	19014.51
694.72	18810.89
694.86	18799.18
694.99	18806.20
695.13	18555.77
695.26	18504.28
695.39	18602.58
695.53	18588.53
695.66	18527.68
695.80	18115.75
695.93	18361.50
696.07	17956.59
696.20	18036.17
696.33	17893.40
696.47	17687.43
696.60	17813.82
696.73	17748.28
696.87	17785.73
697.00	17420.61
697.14	17261.45
697.27	17123.36
697.40	17069.53
697.54	17273.15
697.67	17305.92
697.80	17057.82
697.94	16973.56
698.07	17067.19
698.21	16847.18
698.34	16917.39
698.47	16688.02
698.61	16769.94
698.74	16512.48
698.87	16559.29
699.01	16374.39
699.14	16355.66
699.27	16119.27
699.40	16149.70
699.54	16004.58
699.67	16020.97
699.80	15665.21
699.94	15838.41
700.07	16137.99
700.20	15913.30
700.34	15833.72
700.47	15826.70
700.60	15817.34
700.73	15672.23
700.87	15517.75
701.00	15477.96
701.13	15269.66
701.26	15370.30
701.40	15246.25
701.53	14967.73
701.66	15351.57
701.79	15063.69
701.93	15307.10
702.06	14920.92
702.19	14597.92
702.32	14881.13
702.46	15009.86
702.59	14743.03
702.72	14576.86
702.85	14698.56
702.99	14333.44
703.12	14347.48
703.25	14569.83
703.38	14462.17
703.51	14223.44
703.65	14150.88
703.78	13762.35
703.91	13743.63
704.04	13790.44
704.17	13762.35
704.31	13635.96
704.44	13862.99
704.57	13453.40
704.70	13469.78
704.83	13659.37
704.96	13762.35
705.10	13359.78
705.23	13165.51
>>>>>End Processed Spectral Data<<<<<
