SpectraSuite Data File
++++++++++++++++++++++++++++++++++++
Date: Fri Oct 25 10:47:24 EDT 2013
User: price-jones
Dark Spectrum Present: No
Reference Spectrum Present: No
Number of Sampled Component Spectra: 1
Spectrometers: USB2+H05261
Integration Time (usec): 100000 (USB2+H05261)
Spectra Averaged: 1 (USB2+H05261)
Boxcar Smoothing: 0 (USB2+H05261)
Correct for Electrical Dark: No (USB2+H05261)
Strobe/Lamp Enabled: No (USB2+H05261)
Correct for Detector Non-linearity: No (USB2+H05261)
Correct for Stray Light: No (USB2+H05261)
Number of Pixels in Processed Spectrum: 2048
>>>>>Begin Processed Spectral Data<<<<<
365.73	105.32
365.92	105.32
366.12	105.32
366.32	74.90
366.52	39.79
366.72	58.51
366.91	0.00
367.11	79.58
367.31	7.02
367.51	25.75
367.70	0.00
367.90	16.38
368.10	11.70
368.30	77.24
368.49	30.43
368.69	77.24
368.89	42.13
369.09	44.47
369.28	35.11
369.48	112.35
369.68	102.98
369.87	145.11
370.07	98.30
370.27	124.05
370.47	292.57
370.66	315.97
370.86	402.57
371.06	433.00
371.25	486.83
371.45	500.87
371.65	442.36
371.84	435.34
372.04	442.36
372.24	425.98
372.44	433.00
372.63	440.02
372.83	444.70
373.03	533.64
373.22	491.51
373.42	533.64
373.62	486.83
373.81	465.77
374.01	580.45
374.21	517.26
374.40	575.77
374.60	512.58
374.79	493.85
374.99	594.50
375.19	594.50
375.38	620.24
375.58	606.20
375.78	603.86
375.97	543.00
376.17	620.24
376.37	627.26
376.56	620.24
376.76	566.41
376.95	559.39
377.15	653.01
377.35	594.50
377.54	664.71
377.74	573.43
377.93	580.45
378.13	683.44
378.33	603.86
378.52	613.22
378.72	601.52
378.91	685.78
379.11	615.56
379.31	587.47
379.50	629.60
379.70	638.97
379.89	720.88
380.09	606.20
380.28	547.69
380.48	634.29
380.68	669.39
380.87	631.94
381.07	763.01
381.26	664.71
381.46	676.41
381.65	641.31
381.85	681.10
382.04	702.16
382.24	653.01
382.43	702.16
382.63	622.58
382.83	685.78
383.02	671.73
383.22	653.01
383.41	674.07
383.61	676.41
383.80	807.48
384.00	786.42
384.19	739.61
384.39	767.70
384.58	781.74
384.78	737.27
384.97	648.33
385.17	702.16
385.36	739.61
385.56	807.48
385.75	823.87
385.95	819.19
386.14	807.48
386.34	873.02
386.53	725.57
386.72	765.36
386.92	809.83
387.11	873.02
387.31	784.08
387.50	772.38
387.70	802.80
387.89	844.93
388.09	837.91
388.28	802.80
388.48	786.42
388.67	844.93
388.86	837.91
389.06	954.94
389.25	875.36
389.45	882.38
389.64	947.92
389.84	919.83
390.03	1036.86
390.22	915.15
390.42	814.51
390.61	919.83
390.81	837.91
391.00	936.21
391.19	938.55
391.39	1027.50
391.58	1013.45
391.78	875.36
391.97	1043.88
392.16	894.08
392.36	1034.52
392.55	908.13
392.75	968.98
392.94	915.15
393.13	980.68
393.33	880.04
393.52	938.55
393.71	1015.79
393.91	1025.15
394.10	1015.79
394.29	1067.28
394.49	1086.01
394.68	1116.44
394.88	1020.47
395.07	1088.35
395.26	1076.65
395.46	1081.33
395.65	1069.62
395.84	1198.35
396.04	1149.20
396.23	1158.57
396.42	1130.48
396.62	1109.41
396.81	1181.97
397.00	1177.29
397.19	1184.31
397.39	1210.06
397.58	1247.51
397.77	1284.95
397.97	1181.97
398.16	1270.91
398.35	1299.00
398.55	1268.57
398.74	1294.32
398.93	1284.95
399.12	1322.40
399.32	1315.38
399.51	1287.29
399.70	1345.81
399.90	1409.00
400.09	1364.53
400.28	1387.94
400.47	1490.92
400.67	1453.47
400.86	1425.39
401.05	1511.99
401.24	1458.15
401.44	1519.01
401.63	1516.67
401.82	1584.54
402.01	1451.13
402.21	1521.35
402.40	1504.96
402.59	1540.07
402.78	1558.80
402.97	1582.20
403.17	1556.46
403.36	1551.78
403.55	1668.80
403.74	1610.29
403.93	1633.69
404.13	1696.89
404.32	1673.48
404.51	1647.74
404.70	1631.35
404.89	1750.72
405.09	1724.97
405.28	1724.97
405.47	1727.32
405.66	1820.94
405.85	1736.68
406.05	1771.79
406.24	1802.21
406.43	1769.44
406.62	1870.09
406.81	1870.09
407.00	1870.09
407.20	1748.38
407.39	1795.19
407.58	1984.77
407.77	1881.79
407.96	2064.35
408.15	1959.03
408.34	1881.79
408.54	1998.82
408.73	1928.60
408.92	2078.40
409.11	2064.35
409.30	2071.37
409.49	1959.03
409.68	2003.50
409.87	2071.37
410.07	2155.63
410.26	2090.10
410.45	2230.53
410.64	2076.06
410.83	2083.08
411.02	2293.72
411.21	2193.08
411.40	2258.62
411.59	2345.22
411.78	2317.13
411.98	2282.02
412.17	2335.85
412.36	2422.45
412.55	2394.37
412.74	2347.56
412.93	2427.14
413.12	2518.42
413.31	2513.74
413.50	2445.86
413.69	2590.97
413.88	2595.65
414.07	2605.02
414.26	2612.04
414.45	2729.06
414.64	2595.65
414.83	2789.92
415.02	2679.91
415.22	2764.17
415.41	2743.11
415.60	2729.06
415.79	2876.52
415.98	2864.82
416.17	2766.51
416.36	2785.24
416.55	2956.10
416.74	3026.31
416.93	3016.95
417.12	3002.91
417.31	2909.29
417.50	3049.72
417.69	3045.04
417.88	3119.93
418.07	3126.96
418.26	3073.12
418.45	3070.78
418.64	3234.62
418.83	3082.49
419.02	3218.24
419.21	3243.98
419.39	3133.98
419.58	3101.21
419.77	3236.96
419.96	3346.97
420.15	3234.62
420.34	3246.32
420.53	3368.03
420.72	3405.48
420.91	3389.10
421.10	3370.37
421.29	3538.89
421.48	3356.33
421.67	3393.78
421.86	3506.12
422.05	3391.44
422.24	3482.72
422.43	3389.10
422.61	3496.76
422.80	3468.67
422.99	3541.23
423.18	3541.23
423.37	3566.98
423.56	3475.70
423.75	3454.63
423.94	3396.12
424.13	3351.65
424.32	3524.85
424.50	3559.95
424.69	3698.05
424.88	3618.47
425.07	3506.12
425.26	3569.32
425.45	3520.17
425.64	3487.40
425.83	3564.64
426.01	3672.30
426.20	3646.55
426.39	3536.55
426.58	3637.19
426.77	3688.68
426.96	3571.66
427.15	3639.53
427.33	3719.11
427.52	3709.75
427.71	3688.68
427.90	3693.37
428.09	3775.28
428.28	3681.66
428.46	3843.16
428.65	3756.56
428.84	3985.93
429.03	3913.38
429.22	3672.30
429.40	3789.33
429.59	3691.02
429.78	3655.92
429.97	3618.47
430.16	3775.28
430.34	3850.18
430.53	3763.58
430.72	3941.46
430.91	3878.27
431.10	4009.34
431.28	4095.94
431.47	4095.94
431.66	4234.03
431.85	4145.09
432.03	4131.05
432.22	4264.46
432.41	4196.58
432.60	4329.99
432.79	4208.28
432.97	4262.12
433.16	4308.93
433.35	4248.07
433.54	4219.99
433.72	4470.42
433.91	4332.33
434.10	4325.31
434.28	4266.80
434.47	4461.06
434.66	4351.06
434.85	4535.96
435.03	4533.62
435.22	4386.16
435.41	4622.56
435.59	4514.89
435.78	4624.90
435.97	4664.69
436.16	4685.75
436.34	4489.15
436.53	4730.22
436.72	4706.82
436.90	4575.75
437.09	4678.73
437.28	4620.22
437.46	4667.03
437.65	4610.86
437.84	4823.84
438.02	4575.75
438.21	4709.16
438.40	4739.58
438.58	4873.00
438.77	4723.20
438.96	4840.23
439.14	4917.47
439.33	5083.64
439.52	5287.27
439.70	5046.20
439.89	5078.96
440.08	5210.03
440.26	5188.97
440.45	5188.97
440.63	5179.61
440.82	5455.79
441.01	5345.78
441.19	5284.93
441.38	5490.90
441.57	5533.03
441.75	5537.71
441.94	5502.60
442.12	5621.97
442.31	5624.31
442.50	5703.89
442.68	5636.01
442.87	5734.31
443.05	5778.78
443.24	5820.91
443.43	5724.95
443.61	5657.07
443.80	5696.86
443.98	5813.89
444.17	5678.14
444.35	5734.31
444.54	5856.02
444.73	5989.43
444.91	5867.72
445.10	5797.51
445.28	5701.54
445.47	5891.13
445.65	5781.12
445.84	5926.24
446.02	6029.22
446.21	5963.68
446.39	5825.59
446.58	5865.38
446.77	5916.87
446.95	5762.40
447.14	5937.94
447.32	5982.41
447.51	5947.30
447.69	5975.39
447.88	5926.24
448.06	6150.93
448.25	6036.24
448.43	6150.93
448.62	6057.31
448.80	6073.69
448.99	6143.91
449.17	6162.63
449.36	6057.31
449.54	6195.40
449.73	6422.43
449.91	6289.02
450.10	6445.84
450.28	6466.90
450.46	6464.56
450.65	6455.20
450.83	6548.82
451.02	6530.09
451.20	6647.12
451.39	6616.69
451.57	6253.91
451.76	6361.58
451.94	6455.20
452.13	6558.18
452.31	6661.16
452.49	6471.58
452.68	6539.46
452.86	6534.78
453.05	6349.87
453.23	6607.33
453.42	6553.50
453.60	6583.93
453.78	6722.02
453.97	6630.74
454.15	6616.69
454.34	6588.61
454.52	6939.69
454.70	6710.32
454.89	6794.58
455.07	6670.53
455.26	6799.26
455.44	6920.96
455.62	6988.84
455.81	6902.24
455.99	6956.07
456.17	6974.80
456.36	7096.50
456.54	7084.80
456.73	7386.73
456.91	7304.81
457.09	7236.94
457.28	7339.92
457.46	7344.60
457.64	7321.20
457.83	7330.56
458.01	7192.47
458.19	7524.82
458.38	7377.37
458.56	7447.58
458.74	7405.46
458.93	7531.84
459.11	7431.20
459.29	7454.61
459.48	7683.98
459.66	7407.80
459.84	7513.12
460.03	7566.95
460.21	7702.70
460.39	7688.66
460.57	7566.95
460.76	7740.15
460.94	7737.81
461.12	7878.24
461.31	7606.74
461.49	7791.64
461.67	7503.76
461.85	7850.16
462.04	7871.22
462.22	8376.78
462.40	8098.25
462.59	8170.81
462.77	7990.59
462.95	8044.42
463.13	8028.04
463.32	7997.61
463.50	8037.40
463.68	8149.75
463.86	8332.31
464.05	7999.95
464.23	8271.45
464.41	8269.11
464.59	8138.04
464.78	8311.24
464.96	8273.79
465.14	8304.22
465.32	8241.03
465.50	8381.46
465.69	8435.29
465.87	8250.39
466.05	8334.65
466.23	8332.31
466.41	8348.69
466.60	8702.11
466.78	8404.86
466.96	8491.46
467.14	8369.76
467.32	8702.11
467.51	8472.74
467.69	8306.56
467.87	8484.44
468.05	8657.64
468.23	8444.65
468.41	8524.23
468.60	8528.91
468.78	8692.75
468.96	8634.24
469.14	8809.78
469.32	9004.04
469.50	8688.07
469.69	8664.66
469.87	8917.44
470.05	8844.88
470.23	9071.92
470.41	8814.46
470.59	9097.66
470.77	9095.32
470.95	9207.67
471.14	9202.99
471.32	8992.34
471.50	9235.75
471.68	9254.48
471.86	9509.60
472.04	9427.68
472.22	9476.83
472.40	9298.95
472.58	9458.10
472.77	9511.94
472.95	9586.83
473.13	9884.08
473.31	9533.00
473.49	9593.86
473.67	9603.22
473.85	9844.29
474.03	9991.75
474.21	10045.58
474.39	10005.79
474.57	9874.72
474.75	10017.49
474.93	10031.54
475.12	10225.80
475.30	10279.63
475.48	10258.57
475.66	10352.19
475.84	10225.80
476.02	10422.41
476.20	10223.46
476.38	10527.73
476.56	10946.69
476.74	10658.80
476.92	10787.53
477.10	10574.54
477.28	11070.73
477.46	10897.53
477.64	11211.17
477.82	11220.53
478.00	11592.67
478.18	11454.58
478.36	11309.47
478.54	11604.38
478.72	11597.35
478.90	11859.49
479.08	11742.47
479.26	11826.73
479.44	11864.18
479.62	12020.99
479.80	12074.82
479.98	12341.64
480.16	12468.03
480.34	12184.83
480.52	12645.91
480.70	12503.14
480.88	12463.35
481.06	12587.40
481.24	12894.01
481.41	13062.53
481.59	12957.21
481.77	13329.35
481.95	13156.15
482.13	13453.40
482.31	13422.97
482.49	13621.92
482.67	13448.72
482.85	13404.25
483.03	13776.39
483.21	13804.48
483.39	14024.49
483.57	13989.38
483.74	14111.09
483.92	14195.35
484.10	14200.03
484.28	14391.95
484.46	14871.76
484.64	14951.34
484.82	14651.75
485.00	14775.80
485.18	14904.53
485.35	15391.36
485.53	15192.42
485.71	15133.90
485.89	15433.49
486.07	15243.91
486.25	15218.16
486.43	15590.31
486.61	15850.11
486.78	15967.13
486.96	15941.39
487.14	16372.05
487.32	16329.92
487.50	16327.58
487.68	16709.08
487.85	16847.18
488.03	16697.38
488.21	16898.67
488.39	17029.74
488.57	17425.29
488.75	17247.41
488.92	17820.84
489.10	17568.06
489.28	17909.78
489.46	18052.55
489.64	18008.08
489.81	18412.99
489.99	18572.15
490.17	18675.13
490.35	18466.83
490.53	18455.12
490.70	18787.48
490.88	18576.83
491.06	19054.30
491.24	19349.21
491.41	19248.57
491.59	19264.95
491.77	19112.81
491.95	19590.28
492.13	19894.55
492.30	20058.39
492.48	20121.59
492.66	20107.54
492.84	20212.87
493.01	20362.66
493.19	20264.36
493.37	20533.52
493.54	20437.56
493.72	20779.28
493.90	20711.40
494.08	21214.62
494.25	21584.42
494.43	21467.39
494.61	21736.56
494.79	21844.22
494.96	21280.15
495.14	21579.74
495.32	22022.10
495.49	21942.52
495.67	22010.40
495.85	22160.19
496.02	22061.89
496.20	22195.30
496.38	22499.57
496.55	22487.87
496.73	23082.36
496.91	22752.35
497.09	22998.10
497.26	23030.87
497.44	23096.41
497.62	23122.15
497.79	23414.72
497.97	23103.43
498.14	23571.54
498.32	23796.23
498.50	23796.23
498.67	23807.93
498.85	23889.85
499.03	24348.59
499.20	24182.42
499.38	24301.78
499.56	24210.50
499.73	24692.65
499.91	24414.13
500.08	24821.38
500.26	24482.00
500.44	24779.25
500.61	24849.47
500.79	24699.67
500.97	25020.33
501.14	25233.32
501.32	25160.76
501.49	25380.77
501.67	25350.34
501.84	25532.90
502.02	25542.27
502.20	25820.79
502.37	25965.90
502.55	25757.60
502.72	26087.61
502.90	26113.36
503.07	26143.78
503.25	26008.03
503.43	26490.18
503.60	26136.76
503.78	26471.46
503.95	26487.84
504.13	26656.36
504.30	26712.53
504.48	26394.22
504.65	26560.40
504.83	27194.68
505.01	27058.93
505.18	26948.93
505.36	27665.13
505.53	27140.85
505.71	27370.22
505.88	27402.99
506.06	27510.66
506.23	27929.61
506.41	27494.27
506.58	27686.20
506.76	27744.71
506.93	27850.03
507.11	28191.75
507.28	27674.49
507.46	27838.33
507.63	28093.45
507.81	28116.86
507.98	28379.00
508.16	28547.51
508.33	28584.96
508.50	28727.74
508.68	28540.49
508.85	29116.26
509.03	28732.42
509.20	29216.91
509.38	29369.04
509.55	28891.57
509.73	28966.47
509.90	29500.11
510.08	29017.96
510.25	29455.64
510.42	29549.26
510.60	29614.80
510.77	29280.10
510.95	29795.02
511.12	29874.60
511.30	29799.70
511.47	30015.03
511.64	30010.35
511.82	30539.31
511.99	30087.59
512.17	30314.62
512.34	30127.38
512.51	30558.03
512.69	30221.00
512.86	30314.62
513.04	31012.10
513.21	30663.36
513.38	30789.75
513.56	30677.40
513.73	30534.63
513.90	30962.95
514.08	30721.87
514.25	31000.40
514.43	30895.07
514.60	31154.87
514.77	31136.15
514.95	31377.22
515.12	31475.52
515.29	31367.86
515.47	31527.02
515.64	32072.36
515.81	31606.59
515.99	31625.32
516.16	31676.81
516.33	31974.06
516.51	32013.85
516.68	31756.39
516.85	31400.63
517.03	32107.47
517.20	31744.69
517.37	32283.01
517.54	32643.45
517.72	32371.95
517.89	32112.15
518.06	32271.31
518.24	32538.13
518.41	32252.58
518.58	32676.22
518.75	32496.00
518.93	32706.65
519.10	32795.59
519.27	33235.61
519.45	32891.55
519.62	33027.30
519.79	33518.81
519.96	33008.58
520.14	33542.22
520.31	33294.12
520.48	33663.93
520.65	33221.56
520.83	33799.68
521.00	33331.57
521.17	34103.95
521.34	34094.58
521.52	33699.03
521.69	34232.68
521.86	33851.17
522.03	34436.30
522.20	33993.94
522.38	34356.72
522.55	34251.40
522.72	34260.76
522.89	34213.95
523.07	34466.73
523.24	34022.03
523.41	34789.72
523.58	34274.80
523.75	34436.30
523.92	34941.86
524.10	35323.36
524.27	34831.85
524.44	35000.37
524.61	34897.39
524.78	34976.97
524.96	35391.24
525.13	35452.09
525.30	35454.44
525.47	35180.59
525.64	35454.44
525.81	35800.83
525.98	35882.75
526.16	35227.40
526.33	35192.30
526.50	35798.49
526.67	35613.59
526.84	35562.10
527.01	35426.35
527.18	35920.20
527.36	36116.81
527.53	36072.34
527.70	36383.63
527.87	36507.68
528.04	35983.40
528.21	36416.40
528.38	36004.46
528.55	35913.18
528.72	36760.45
528.89	36910.25
529.07	36311.07
529.24	36187.02
529.41	36652.79
529.58	36720.66
529.75	36671.51
529.92	36879.82
530.09	36634.06
530.26	37048.34
530.43	37043.66
530.60	37097.49
530.77	36814.29
530.94	37179.41
531.11	37053.02
531.28	37528.15
531.46	37282.39
531.63	37481.34
531.80	37275.37
531.97	37794.97
532.14	37364.31
532.31	37495.38
532.48	37474.32
532.65	37991.58
532.82	37745.82
532.99	37984.55
533.16	37457.93
533.33	37893.27
533.50	37841.78
533.67	37888.59
533.84	37528.15
534.01	37883.91
534.18	37869.87
534.35	38274.78
534.52	38394.15
534.69	38197.54
534.86	38440.96
535.03	38010.30
535.20	38703.10
535.37	38803.74
535.54	38572.03
535.71	38174.14
535.88	38574.37
536.05	38242.01
536.22	38565.01
536.38	38822.47
536.55	38829.49
536.72	38600.12
536.89	38710.12
537.06	38625.86
537.23	39007.37
537.40	38574.37
537.57	38766.29
537.74	39248.44
537.91	39117.37
538.08	39056.52
538.25	38862.26
538.42	39431.01
538.59	39276.53
538.75	39250.78
538.92	39318.66
539.09	39274.19
539.26	39093.97
539.43	39746.98
539.60	39110.35
539.77	39377.17
539.94	39363.13
540.11	39192.27
540.28	39477.82
540.44	39608.89
540.61	39496.54
540.78	39566.76
540.95	39484.84
541.12	39393.56
541.29	39454.41
541.46	39709.53
541.62	39915.50
541.79	39864.00
541.96	39838.26
542.13	39798.47
542.30	39786.77
542.47	40325.09
542.63	40179.98
542.80	40065.29
542.97	40629.36
543.14	40727.66
543.31	40854.05
543.48	40875.12
543.64	41228.54
543.81	40795.54
543.98	40748.73
544.15	40758.09
544.32	40493.61
544.48	41034.27
544.65	40875.12
544.82	40774.47
544.99	40545.10
545.16	40807.24
545.32	40439.78
545.49	41361.95
545.66	41509.40
545.83	41265.99
546.00	41504.72
546.16	41284.71
546.33	40896.18
546.50	40762.77
546.67	41177.04
546.83	40868.09
547.00	41120.87
547.17	41294.07
547.34	41247.26
547.50	41298.75
547.67	41794.95
547.84	41343.22
548.00	42080.49
548.17	41656.85
548.34	41418.12
548.51	42047.72
548.67	41596.00
548.84	41647.49
549.01	41748.14
549.18	41497.70
549.34	41986.87
549.51	42099.22
549.68	41851.12
549.84	41773.88
550.01	42270.08
550.18	41333.86
550.34	42239.65
550.51	42291.14
550.68	42106.24
550.84	41909.63
551.01	41848.78
551.18	41766.86
551.34	41907.29
551.51	42607.11
551.68	42054.75
551.84	42417.53
552.01	41790.27
552.18	42103.90
552.34	42239.65
552.51	42494.77
552.68	42440.93
552.84	42581.37
553.01	42761.59
553.18	42784.99
553.34	42454.98
553.51	42443.27
553.67	42583.71
553.84	42410.51
554.01	43098.62
554.17	43042.45
554.34	42747.54
554.51	42759.25
554.67	43105.65
554.84	43166.50
555.00	42553.28
555.17	42918.40
555.33	42588.39
555.50	42841.17
555.67	43138.41
555.83	43192.25
556.00	42937.13
556.16	43206.29
556.33	43414.60
556.50	43107.99
556.66	42911.38
556.83	42953.51
556.99	42972.24
557.16	43178.20
557.32	43449.70
557.49	43538.65
557.65	42759.25
557.82	42794.36
557.98	43299.91
558.15	43075.22
558.32	43585.46
558.48	43580.78
558.65	43416.94
558.81	43126.71
558.98	43552.69
559.14	43152.46
559.31	43557.37
559.47	43711.84
559.64	43784.40
559.80	43971.64
559.97	43627.59
560.13	43550.35
560.30	43517.58
560.46	43803.13
560.63	43929.51
560.79	43901.43
560.96	43709.50
561.12	43981.01
561.29	43824.19
561.45	44027.82
561.61	43498.86
561.78	43618.22
561.94	43620.56
562.11	43438.00
562.27	43526.94
562.44	44095.69
562.60	44039.52
562.77	43959.94
562.93	43959.94
563.10	44041.86
563.26	43934.20
563.42	43812.49
563.59	43653.33
563.75	43999.73
563.92	43873.34
564.08	43782.06
564.24	44088.67
564.41	44107.40
564.57	43360.76
564.74	44470.18
564.90	44191.65
565.07	44053.56
565.23	44067.61
565.39	44226.76
565.56	44287.62
565.72	43852.28
565.88	43915.47
566.05	43917.81
566.21	44004.41
566.38	44058.24
566.54	44456.14
566.70	44252.51
566.87	44390.60
567.03	44472.52
567.19	44889.13
567.36	44285.28
567.52	44233.78
567.68	44299.32
567.85	44109.74
568.01	44240.81
568.17	44027.82
568.34	44575.50
568.50	44287.62
568.66	44062.93
568.83	44385.92
568.99	44123.78
569.15	44189.31
569.32	44172.93
569.48	44154.21
569.64	44786.15
569.81	44587.21
569.97	44201.02
570.13	44189.31
570.30	44102.71
570.46	43910.79
570.62	44067.61
570.78	44030.16
570.95	43711.84
571.11	44474.86
571.27	44315.70
571.43	44491.24
571.60	44540.39
571.76	44271.23
571.92	44432.73
572.09	44404.64
572.25	44231.44
572.41	44423.37
572.57	44699.55
572.74	44858.71
572.90	44619.97
573.06	44741.68
573.22	44596.57
573.38	44669.12
573.55	44589.55
573.71	44708.91
573.87	44715.93
574.03	44722.96
574.20	44390.60
574.36	44474.86
574.52	44638.70
574.68	45160.64
574.84	44357.83
575.01	44671.46
575.17	44884.45
575.33	44142.50
575.49	44552.10
575.65	44610.61
575.82	45193.40
575.98	44896.16
576.14	44809.56
576.30	44608.27
576.46	44388.26
576.62	44233.78
576.79	44563.80
576.95	44196.34
577.11	44650.40
577.27	44460.82
577.43	44737.00
577.59	44350.81
577.75	44720.62
577.92	44465.50
578.08	44205.70
578.24	44589.55
578.40	44830.62
578.56	44741.68
578.72	44636.36
578.88	44985.10
579.04	44772.11
579.21	44278.25
579.37	44694.87
579.53	44472.52
579.69	44601.25
579.85	44596.57
580.01	44879.77
580.17	45088.08
580.33	44935.95
580.49	44680.83
580.65	44830.62
580.82	44540.39
580.98	44669.12
581.14	44673.81
581.30	45167.66
581.46	45109.14
581.62	44910.20
581.78	44694.87
581.94	45207.45
582.10	44870.41
582.26	44903.18
582.42	45081.06
582.58	44311.02
582.74	44598.91
582.90	44875.09
583.06	44619.97
583.22	44933.60
583.38	44849.35
583.54	45022.54
583.70	44954.67
583.86	44655.08
584.02	44697.21
584.18	45031.91
584.34	45130.21
584.50	45165.32
584.66	44526.35
584.82	44556.78
584.98	45191.06
585.14	44931.26
585.30	44519.33
585.46	44832.96
585.62	44587.21
585.78	44933.60
585.94	44360.17
586.10	44477.20
586.26	44788.49
586.42	44790.83
586.58	45120.85
586.74	44692.53
586.90	44346.13
587.06	44439.75
587.22	44842.32
587.38	44741.68
587.54	44940.63
587.70	45324.47
587.86	45193.40
588.02	44903.18
588.18	45113.83
588.34	44669.12
588.49	44219.74
588.65	44327.41
588.81	44252.51
588.97	44690.19
589.13	44481.88
589.29	44931.26
589.45	44839.98
589.61	44851.69
589.77	45031.91
589.93	45008.50
590.08	45045.95
590.24	44952.33
590.40	44914.88
590.56	45258.94
590.72	45261.28
590.88	44727.64
591.04	44966.37
591.20	45223.83
591.35	45322.13
591.51	45174.68
591.67	44912.54
591.83	44781.47
591.99	44802.53
592.15	44245.49
592.31	44914.88
592.46	44973.39
592.62	44746.36
592.78	45352.56
592.94	45153.62
593.10	45392.35
593.26	45614.70
593.41	45125.53
593.57	44898.50
593.73	44975.73
593.89	44891.48
594.05	44877.43
594.20	44861.05
594.36	45057.65
594.52	45120.85
594.68	44818.92
594.84	44999.14
594.99	45495.33
595.15	45085.74
595.31	45027.23
595.47	45104.46
595.62	45635.77
595.78	45294.05
595.94	45443.84
596.10	45050.63
596.25	45315.11
596.41	45251.92
596.57	45174.68
596.73	45532.78
596.88	45146.59
597.04	45137.23
597.20	45209.79
597.36	45240.21
597.51	45460.23
597.67	45469.59
597.83	45549.17
597.99	45460.23
598.14	44989.78
598.30	44926.58
598.46	45214.47
598.61	45118.51
598.77	45249.58
598.93	45322.13
599.09	44961.69
599.24	46064.08
599.40	45308.09
599.56	45177.02
599.71	45272.98
599.87	45104.46
600.03	45186.38
600.18	45141.91
600.34	45230.85
600.50	44996.80
600.65	45193.40
600.81	45577.25
600.97	45310.43
601.12	45825.35
601.28	45485.97
601.44	45029.57
601.59	45392.35
601.75	44830.62
601.91	45340.86
602.06	44935.95
602.22	45020.20
602.37	45076.38
602.53	45254.26
602.69	45434.48
602.84	44870.41
603.00	45141.91
603.16	45205.11
603.31	44980.42
603.47	44823.60
603.62	44954.67
603.78	45235.53
603.94	45340.86
604.09	45586.61
604.25	45471.93
604.40	45258.94
604.56	44945.31
604.71	45214.47
604.87	45102.12
605.03	45195.74
605.18	44898.50
605.34	44928.92
605.49	44896.16
605.65	45088.08
605.80	44802.53
605.96	45256.60
606.12	45195.74
606.27	45256.60
606.43	45240.21
606.58	44954.67
606.74	44734.66
606.89	45001.48
607.05	45071.70
607.20	44954.67
607.36	45127.87
607.51	45097.44
607.67	45123.19
607.82	44830.62
607.98	44741.68
608.13	44921.90
608.29	44835.30
608.44	44851.69
608.60	44645.72
608.75	44786.15
608.91	44605.93
609.06	44854.03
609.22	45153.62
609.37	44769.77
609.53	44748.70
609.68	44919.56
609.84	44449.11
609.99	44926.58
610.15	44596.57
610.30	44416.35
610.46	44509.97
610.61	44271.23
610.76	44629.34
610.92	44896.16
611.07	45134.89
611.23	44837.64
611.38	44491.24
611.54	44526.35
611.69	44648.06
611.84	44301.66
612.00	44729.98
612.15	44336.77
612.31	44947.65
612.46	44516.99
612.62	44594.23
612.77	44037.18
612.92	44814.24
613.08	44271.23
613.23	44425.71
613.39	44147.18
613.54	44165.91
613.69	44212.72
613.85	44320.38
614.00	44055.90
614.15	44535.71
614.31	44226.76
614.46	44577.84
614.62	44516.99
614.77	44273.57
614.92	44098.03
615.08	43728.23
615.23	44292.30
615.38	43901.43
615.54	43922.49
615.69	44282.94
615.84	43646.31
616.00	43700.14
616.15	44123.78
616.30	43852.28
616.46	43950.58
616.61	43723.55
616.76	44037.18
616.92	43461.41
617.07	43812.49
617.22	43875.68
617.37	43716.53
617.53	43639.29
617.68	44032.50
617.83	43936.54
617.99	43999.73
618.14	43440.34
618.29	43847.60
618.45	43171.18
618.60	43796.10
618.75	43777.38
618.90	43608.86
619.06	43611.20
619.21	44135.48
619.36	43597.16
619.51	43636.95
619.67	43412.26
619.82	43407.58
619.97	43756.32
620.12	43243.74
620.28	43096.28
620.43	43199.27
620.58	43690.78
620.73	43241.40
620.89	43131.39
621.04	43285.87
621.19	43288.21
621.34	43232.04
621.49	43026.07
621.65	42862.23
621.80	43400.55
621.95	42993.30
622.10	43196.93
622.25	42775.63
622.41	43030.75
622.56	43405.23
622.71	43084.58
622.86	42967.55
623.01	43136.07
623.16	42972.24
623.32	42887.98
623.47	43028.41
623.62	43058.84
623.77	43103.31
623.92	42948.83
624.07	42480.72
624.23	42775.63
624.38	42733.50
624.53	42941.81
624.68	42782.65
624.83	42934.79
624.98	42490.09
625.13	42391.78
625.29	42682.01
625.44	42717.12
625.59	42642.22
625.74	42529.87
625.89	42323.91
626.04	41886.23
626.19	42487.74
626.34	42810.74
626.49	42291.14
626.65	41989.21
626.80	42595.41
626.95	42391.78
627.10	42047.72
627.25	41881.55
627.40	42256.03
627.55	41801.97
627.70	41495.36
627.85	41748.14
628.00	41698.98
628.15	42267.73
628.30	42080.49
628.45	42141.35
628.60	41493.02
628.76	41986.87
628.91	42021.98
629.06	41958.78
629.21	41762.18
629.36	41837.08
629.51	41563.23
629.66	41558.55
629.81	41174.70
629.96	41743.45
630.11	41792.61
630.26	42021.98
630.41	41769.20
630.56	41851.12
630.71	41869.84
630.86	41752.82
631.01	41153.64
631.16	41876.86
631.31	41333.86
631.46	41015.55
631.61	41612.38
631.76	41448.55
631.91	41558.55
632.06	41574.94
632.21	41034.27
632.36	41549.19
632.51	41427.48
632.66	41460.25
632.81	40636.38
632.96	41233.22
633.10	41069.38
633.25	41102.15
633.40	41060.02
633.55	41155.98
633.70	40961.72
633.85	40940.65
634.00	41244.92
634.15	41041.29
634.30	41296.41
634.45	41034.27
634.60	40500.63
634.75	40648.08
634.90	40673.83
635.05	40481.91
635.19	40699.58
635.34	41507.06
635.49	40788.52
635.64	40840.01
635.79	40631.70
635.94	40322.75
636.09	40727.66
636.24	40718.30
636.39	40191.68
636.53	40210.40
636.68	40435.10
636.83	40479.57
636.98	40528.72
637.13	40498.29
637.28	40390.62
637.43	40849.37
637.57	40788.52
637.72	40196.36
637.87	40671.49
638.02	40678.51
638.17	40332.11
638.32	40074.65
638.46	39936.56
638.61	40430.41
638.76	40095.72
638.91	40245.51
639.06	40285.30
639.20	40240.83
639.35	40463.18
639.50	39945.92
639.65	40072.31
639.80	40341.47
639.94	39913.16
640.09	40191.68
640.24	39957.63
640.39	39739.96
640.54	39765.70
640.68	39597.18
640.83	40095.72
640.98	39772.72
641.13	39386.54
641.27	40254.87
641.42	39634.63
641.57	39995.07
641.72	39988.05
641.86	39028.43
642.01	39360.79
642.16	39353.77
642.31	38810.76
642.45	39084.61
642.60	38852.89
642.75	39147.80
642.90	39185.25
643.04	39634.63
643.19	39227.38
643.34	39704.85
643.48	39681.44
643.63	39414.62
643.78	39091.63
643.93	39138.44
644.07	39292.91
644.22	39115.03
644.37	39091.63
644.51	38941.83
644.66	39213.34
644.81	39515.26
644.95	39260.15
645.10	39269.51
645.25	39526.97
645.39	39225.04
645.54	39531.65
645.69	38878.64
645.83	38817.78
645.98	38845.87
646.13	38691.40
646.27	38871.62
646.42	39044.82
646.57	39044.82
646.71	38958.22
646.86	38618.84
647.00	39091.63
647.15	39358.45
647.30	38838.85
647.44	38986.30
647.59	38866.94
647.74	38195.20
647.88	38906.73
648.03	38525.22
648.17	38677.35
648.32	38682.03
648.47	38567.35
648.61	38410.53
648.76	39093.97
648.90	38396.49
649.05	38635.22
649.20	38557.99
649.34	38499.47
649.49	38120.31
649.63	38696.08
649.78	38246.69
649.92	38501.81
650.07	38761.61
650.21	38373.08
650.36	38361.38
650.51	38061.79
650.65	38412.87
650.80	38745.23
650.94	38494.79
651.09	38216.27
651.23	38101.58
651.38	38309.89
651.52	37755.18
651.67	38277.12
651.81	37806.67
651.96	37687.31
652.10	37834.76
652.25	37818.38
652.39	37801.99
652.54	37759.86
652.68	37869.87
652.83	37993.92
652.97	38094.56
653.12	38094.56
653.26	37942.42
653.41	37738.80
653.55	37642.84
653.70	38099.24
653.84	37619.43
653.99	37677.94
654.13	37549.21
654.27	37902.64
654.42	37603.05
654.56	37310.48
654.71	37635.81
654.85	37610.07
655.00	37572.62
655.14	37284.73
655.29	37043.66
655.43	37127.92
655.57	36865.78
655.72	37303.46
655.86	37230.90
656.01	37041.32
656.15	37326.86
656.30	37050.68
656.44	37223.88
656.58	36828.33
656.73	36964.08
656.87	37041.32
657.01	37013.23
657.16	36699.60
657.30	36765.14
657.45	36584.91
657.59	36802.58
657.73	36898.55
657.88	36559.17
658.02	36524.06
658.16	36655.13
658.31	37160.69
658.45	36833.01
658.60	36793.22
658.74	36879.82
658.88	36601.30
659.03	36357.88
659.17	35901.48
659.31	36329.80
659.46	35962.33
659.60	36510.02
659.74	36247.88
659.89	36060.63
660.03	36348.52
660.17	36250.22
660.32	36222.13
660.46	36631.72
660.60	36540.44
660.74	36004.46
660.89	36488.95
661.03	36400.01
661.17	35878.07
661.32	35665.08
661.46	36037.23
661.60	35482.52
661.74	35676.79
661.89	35468.48
662.03	35941.27
662.17	35765.73
662.31	35264.85
662.46	35629.98
662.60	35555.08
662.74	35463.80
662.88	35489.54
663.03	35428.69
663.17	35400.60
663.31	35138.46
663.45	35480.18
663.60	35433.37
663.74	34813.13
663.88	34939.52
664.02	34843.56
664.17	35072.93
664.31	34745.25
664.45	34918.45
664.59	35016.75
664.73	34932.50
664.88	34782.70
665.02	34382.47
665.16	34691.42
665.30	34567.37
665.44	34328.64
665.59	34181.18
665.73	34080.54
665.87	34089.90
666.01	34291.19
666.15	34265.44
666.29	34134.37
666.44	34326.30
666.58	34450.35
666.72	34232.68
666.86	34452.69
667.00	34380.13
667.14	33900.32
667.28	33839.47
667.43	33876.91
667.57	34005.64
667.71	33479.02
667.85	33425.19
667.99	33610.09
668.13	33233.27
668.27	33530.51
668.41	33689.67
668.56	32891.55
668.70	33947.13
668.84	33385.40
668.98	33078.79
669.12	33450.94
669.26	33181.77
669.40	32952.40
669.54	33113.90
669.68	33085.81
669.82	33104.54
669.96	33109.22
670.10	32943.04
670.25	33397.10
670.39	33291.78
670.53	32737.07
670.67	32383.65
670.81	32620.05
670.95	32596.64
671.09	32734.73
671.23	32870.48
671.37	32191.73
671.51	31964.70
671.65	31871.07
671.79	32004.49
671.93	32290.03
672.07	31936.61
672.21	31878.10
672.35	31894.48
672.49	31864.05
672.63	31864.05
672.77	31868.73
672.91	31555.10
673.05	31562.12
673.19	31583.19
673.33	31239.13
673.47	31325.73
673.61	31283.60
673.75	30869.33
673.89	31140.83
674.03	30686.76
674.17	30979.33
674.31	31264.88
674.45	30654.00
674.59	31204.02
674.73	31218.07
674.87	30815.49
675.01	31016.78
675.15	30646.97
675.29	30927.84
675.43	30747.62
675.56	30803.79
675.70	30471.43
675.84	30281.85
675.98	29003.92
676.12	30448.03
676.26	29951.84
676.40	29699.06
676.54	29661.61
676.68	29670.97
676.82	29315.21
676.96	29841.83
677.10	29333.93
677.23	29528.20
677.37	29462.66
677.51	29095.20
677.65	29069.45
677.79	28793.27
677.93	28999.24
678.07	28627.09
678.21	28697.31
678.34	28472.62
678.48	28643.48
678.62	28257.29
678.76	28205.80
678.90	28594.32
679.04	28500.70
679.18	28524.11
679.31	28245.58
679.45	27833.65
679.59	27714.28
679.73	27580.87
679.87	27754.07
680.00	27360.86
680.14	27559.81
680.28	27264.90
680.42	27274.26
680.56	27564.49
680.70	27374.91
680.83	27225.11
680.97	26906.80
681.11	27201.71
681.25	26944.25
681.39	26773.39
681.52	27379.59
681.66	26726.58
681.80	26757.00
681.94	26644.66
682.07	26539.33
682.21	26429.33
682.35	26244.43
682.49	26745.30
682.62	26342.73
682.76	26199.96
682.90	26134.42
683.04	26017.40
683.17	26024.42
683.31	25930.80
683.45	25935.48
683.59	25415.88
683.72	25394.81
683.86	25179.48
684.00	25078.84
684.13	25392.47
684.27	25539.93
684.41	25333.96
684.55	24978.20
684.68	24891.60
684.82	24552.22
684.96	24486.68
685.09	24460.94
685.23	24542.86
685.37	24751.17
685.50	24568.60
685.64	24491.37
685.78	23892.19
685.91	24116.88
686.05	24121.56
686.19	23545.79
686.32	23976.45
686.46	23524.72
686.60	23662.82
686.73	23573.88
686.87	23578.56
687.01	23459.19
687.14	23194.71
687.28	23049.60
687.42	23311.74
687.55	23131.51
687.69	23049.60
687.82	22684.47
687.96	22845.97
688.10	22860.01
688.23	22684.47
688.37	22476.16
688.50	22284.24
688.64	22307.65
688.78	22349.78
688.91	22192.96
689.05	22061.89
689.18	22214.02
689.32	21593.78
689.46	21982.31
689.59	22038.48
689.73	22181.26
689.86	21544.63
690.00	21752.94
690.13	21802.09
690.27	21418.24
690.41	21472.07
690.54	21142.06
690.68	21092.91
690.81	21116.31
690.95	20872.90
691.08	20947.79
691.22	21181.85
691.35	20734.81
691.49	21018.01
691.62	20819.07
691.76	20816.72
691.89	20589.69
692.03	20673.95
692.16	20109.88
692.30	20552.24
692.43	20292.44
692.57	19908.60
692.70	20063.07
692.84	20236.27
692.97	19833.70
693.11	19372.61
693.24	19857.10
693.38	19697.95
693.51	19686.25
693.65	19555.18
693.78	19410.06
693.92	19623.05
694.05	19414.74
694.19	19187.71
694.32	19110.47
694.45	19164.31
694.59	18712.58
694.72	18944.30
694.86	18640.03
694.99	18909.19
695.13	18607.26
695.26	18462.15
695.39	18216.39
695.53	18178.94
695.66	18408.31
695.80	18394.27
695.93	18387.25
696.07	17844.24
696.20	18073.62
696.33	18207.03
696.47	18040.85
696.60	18075.96
696.73	18153.20
696.87	18221.07
697.00	17657.00
697.14	17895.74
697.27	17659.34
697.40	17729.56
697.54	17429.97
697.67	17109.32
697.80	17163.15
697.94	17085.91
698.07	17200.60
698.21	17329.33
698.34	17200.60
698.47	17202.94
698.61	16805.05
698.74	16732.49
698.87	16699.72
699.01	16194.17
699.14	16400.13
699.27	16301.83
699.40	16264.38
699.54	16304.17
699.67	15943.73
699.80	15866.49
699.94	15990.54
700.07	15782.23
700.20	16056.08
700.34	15866.49
700.47	15686.27
700.60	15917.98
700.73	15770.53
700.87	15555.20
701.00	15407.75
701.13	15417.11
701.26	15412.43
701.40	15349.23
701.53	15082.41
701.66	15328.17
701.79	15157.31
701.93	15129.22
702.06	14956.02
702.19	14616.65
702.32	15037.94
702.46	15068.37
702.59	14441.11
702.72	14572.18
702.85	14635.37
702.99	14633.03
703.12	14532.39
703.25	14911.55
703.38	14272.59
703.51	14328.76
703.65	14164.92
703.78	14331.10
703.91	14083.00
704.04	14202.37
704.17	14040.87
704.31	13912.14
704.44	13912.14
704.57	13657.03
704.70	13476.80
704.83	13551.70
704.96	13820.86
705.10	13930.87
705.23	13731.92
>>>>>End Processed Spectral Data<<<<<
