SpectraSuite Data File
++++++++++++++++++++++++++++++++++++
Date: Fri Oct 25 11:34:39 EDT 2013
User: price-jones
Dark Spectrum Present: No
Reference Spectrum Present: No
Number of Sampled Component Spectra: 1
Spectrometers: USB2+H05261
Integration Time (usec): 100000 (USB2+H05261)
Spectra Averaged: 1 (USB2+H05261)
Boxcar Smoothing: 0 (USB2+H05261)
Correct for Electrical Dark: No (USB2+H05261)
Strobe/Lamp Enabled: No (USB2+H05261)
Correct for Detector Non-linearity: No (USB2+H05261)
Correct for Stray Light: No (USB2+H05261)
Number of Pixels in Processed Spectrum: 2048
>>>>>Begin Processed Spectral Data<<<<<
365.73	264.48
365.92	264.48
366.12	264.48
366.32	203.63
366.52	198.95
366.72	135.75
366.91	156.82
367.11	250.44
367.31	156.82
367.51	168.52
367.70	182.56
367.90	191.92
368.10	187.24
368.30	308.95
368.49	229.37
368.69	227.03
368.89	159.16
369.09	168.52
369.28	229.37
369.48	203.63
369.68	161.50
369.87	264.48
370.07	283.20
370.27	271.50
370.47	318.31
370.66	433.00
370.86	479.81
371.06	465.77
371.25	505.56
371.45	496.19
371.65	552.37
371.84	585.13
372.04	564.07
372.24	550.03
372.44	594.50
372.63	643.65
372.83	554.71
373.03	645.99
373.22	568.75
373.42	594.50
373.62	627.26
373.81	671.73
374.01	631.94
374.21	676.41
374.40	603.86
374.60	655.35
374.79	606.20
374.99	585.13
375.19	650.67
375.38	631.94
375.58	648.33
375.78	634.29
375.97	606.20
376.17	650.67
376.37	657.69
376.56	629.60
376.76	709.18
376.95	683.44
377.15	732.59
377.35	690.46
377.54	777.06
377.74	720.88
377.93	678.76
378.13	683.44
378.33	716.20
378.52	662.37
378.72	587.47
378.91	737.27
379.11	678.76
379.31	653.01
379.50	676.41
379.70	692.80
379.89	730.25
380.09	744.29
380.28	713.86
380.48	678.76
380.68	732.59
380.87	695.14
381.07	753.65
381.26	732.59
381.46	791.10
381.65	730.25
381.85	734.93
382.04	765.36
382.24	699.82
382.43	819.19
382.63	755.99
382.83	753.65
383.02	748.97
383.22	758.33
383.41	753.65
383.61	830.89
383.80	739.61
384.00	828.55
384.19	870.68
384.39	727.91
384.58	786.42
384.78	830.89
384.97	767.70
385.17	821.53
385.36	814.51
385.56	798.12
385.75	777.06
385.95	791.10
386.14	851.96
386.34	861.32
386.53	903.45
386.72	858.98
386.92	882.38
387.11	821.53
387.31	938.55
387.50	835.57
387.70	912.81
387.89	917.49
388.09	870.68
388.28	945.58
388.48	931.53
388.67	903.45
388.86	931.53
389.06	875.36
389.25	887.06
389.45	929.19
389.64	861.32
389.84	884.72
390.03	901.11
390.22	877.70
390.42	976.00
390.61	903.45
390.81	968.98
391.00	903.45
391.19	1048.56
391.39	931.53
391.58	1032.18
391.78	870.68
391.97	973.66
392.16	987.71
392.36	1022.81
392.55	1018.13
392.75	1022.81
392.94	1100.05
393.13	1067.28
393.33	940.90
393.52	1013.45
393.71	1011.11
393.91	1001.75
394.10	1025.15
394.29	1053.24
394.49	950.26
394.68	1086.01
394.88	1055.58
395.07	1102.39
395.26	1104.73
395.46	1086.01
395.65	1128.14
395.84	1102.39
396.04	1177.29
396.23	1191.33
396.42	1207.72
396.62	1149.20
396.81	1221.76
397.00	1130.48
397.19	1128.14
397.39	1116.44
397.58	1228.78
397.77	1146.86
397.97	1184.31
398.16	1137.50
398.35	1142.18
398.55	1151.54
398.74	1284.95
398.93	1320.06
399.12	1242.82
399.32	1212.40
399.51	1259.21
399.70	1226.44
399.90	1268.57
400.09	1226.44
400.28	1362.19
400.47	1364.53
400.67	1425.39
400.86	1357.51
401.05	1301.34
401.24	1380.92
401.44	1446.45
401.63	1306.02
401.82	1460.49
402.01	1390.28
402.21	1465.18
402.40	1373.89
402.59	1427.73
402.78	1476.88
402.97	1446.45
403.17	1497.94
403.36	1495.60
403.55	1495.60
403.74	1476.88
403.93	1493.26
404.13	1589.22
404.32	1516.67
404.51	1502.62
404.70	1647.74
404.89	1507.30
405.09	1586.88
405.28	1607.95
405.47	1603.27
405.66	1565.82
405.85	1621.99
406.05	1666.46
406.24	1671.14
406.43	1675.82
406.62	1769.44
406.81	1795.19
407.00	1708.59
407.20	1739.02
407.39	1734.34
407.58	1710.93
407.77	1734.34
407.96	1825.62
408.15	1809.23
408.34	1764.76
408.54	1827.96
408.73	1825.62
408.92	1746.04
409.11	1898.17
409.30	1921.58
409.49	1989.46
409.68	1923.92
409.87	1895.83
410.07	1909.88
410.26	1944.99
410.45	1870.09
410.64	1982.43
410.83	1975.41
411.02	2026.90
411.21	2097.12
411.40	2029.24
411.59	2052.65
411.78	2087.76
411.98	2148.61
412.17	2153.29
412.36	2153.29
412.55	2073.71
412.74	2347.56
412.93	2165.00
413.12	2155.63
413.31	2373.30
413.50	2246.91
413.69	2317.13
413.88	2275.00
414.07	2293.72
414.26	2366.28
414.45	2392.03
414.64	2375.64
414.83	2438.84
415.02	2408.41
415.22	2614.38
415.41	2497.35
415.60	2523.10
415.79	2452.88
415.98	2567.57
416.17	2558.21
416.36	2516.08
416.55	2588.63
416.74	2719.70
416.93	2565.23
417.12	2661.19
417.31	2785.24
417.50	2745.45
417.69	2860.13
417.88	2869.50
418.07	2743.11
418.26	2698.64
418.45	2747.79
418.64	2949.08
418.83	2853.11
419.02	2885.88
419.21	2974.82
419.39	2918.65
419.58	2857.79
419.77	2923.33
419.96	3098.87
420.15	2972.48
420.34	2949.08
420.53	2974.82
420.72	3082.49
420.91	2958.44
421.10	3040.36
421.29	3155.04
421.48	3014.61
421.67	3094.19
421.86	3143.34
422.05	3176.11
422.24	3141.00
422.43	3136.32
422.61	3274.41
422.80	3220.58
422.99	3265.05
423.18	3361.01
423.37	3206.53
423.56	3314.20
423.75	3265.05
423.94	3169.09
424.13	3124.62
424.32	2960.78
424.50	3321.22
424.69	3332.92
424.88	3372.71
425.07	3314.20
425.26	3227.60
425.45	3372.71
425.64	3332.92
425.83	3272.07
426.01	3255.69
426.20	3295.47
426.39	3281.43
426.58	3197.17
426.77	3265.05
426.96	3302.50
427.15	3358.67
427.33	3316.54
427.52	3321.22
427.71	3417.18
427.90	3442.93
428.09	3466.33
428.28	3566.98
428.46	3536.55
428.65	3499.10
428.84	3592.72
429.03	3534.21
429.22	3449.95
429.40	3599.74
429.59	3566.98
429.78	3468.67
429.97	3431.23
430.16	3632.51
430.34	3681.66
430.53	3726.13
430.72	3630.17
430.91	3482.72
431.10	3566.98
431.28	3735.50
431.47	3904.01
431.66	3791.67
431.85	3660.60
432.03	3726.13
432.22	3920.40
432.41	3889.97
432.60	3892.31
432.79	3864.22
432.97	4021.04
433.16	3801.03
433.35	3826.78
433.54	3871.25
433.72	4049.13
433.91	3913.38
434.10	3950.82
434.28	4016.36
434.47	4007.00
434.66	4100.62
434.85	4063.17
435.03	4187.22
435.22	4112.32
435.41	4205.94
435.59	4170.83
435.78	4142.75
435.97	4194.24
436.16	4051.47
436.34	4095.94
436.53	4353.40
436.72	4212.96
436.90	4170.83
437.09	4273.82
437.28	4142.75
437.46	4287.86
437.65	4430.63
437.84	4395.53
438.02	4442.34
438.21	4407.23
438.40	4472.76
438.58	4561.70
438.77	4610.86
438.96	4491.49
439.14	4599.15
439.33	4580.43
439.52	4716.18
439.70	4732.56
439.89	4676.39
440.08	4830.87
440.26	4814.48
440.45	4770.01
440.63	4823.84
440.82	4931.51
441.01	4755.97
441.19	4851.93
441.38	5011.09
441.57	4985.34
441.75	4924.49
441.94	5203.01
442.12	5057.90
442.31	5188.97
442.50	5228.76
442.68	5100.03
442.87	5179.61
443.05	5224.08
443.24	5179.61
443.43	5149.18
443.61	5224.08
443.80	5401.96
443.98	5090.67
444.17	5029.81
444.35	5324.72
444.54	5476.85
444.73	5373.87
444.91	5404.30
445.10	5348.12
445.28	5406.64
445.47	5331.74
445.65	5362.17
445.84	5448.77
446.02	5341.10
446.21	5497.92
446.39	5441.75
446.58	5516.64
446.77	5497.92
446.95	5247.48
447.14	5596.22
447.32	5563.45
447.51	5462.81
447.69	5418.34
447.88	5469.83
448.06	5603.24
448.25	5514.30
448.43	5439.40
448.62	5530.69
448.80	5504.94
448.99	5636.01
449.17	5638.35
449.36	5430.04
449.54	5636.01
449.73	5806.87
449.91	5959.00
450.10	5860.70
450.28	5783.46
450.46	5867.72
450.65	5783.46
450.83	5696.86
451.02	5757.72
451.20	5865.38
451.39	5788.14
451.57	5785.80
451.76	5898.15
451.94	5841.98
452.13	6076.03
452.31	5980.07
452.49	6120.50
452.68	5858.36
452.86	5900.49
453.05	6076.03
453.23	6071.35
453.42	5966.03
453.60	6176.67
453.78	6050.28
453.97	6153.27
454.15	6279.66
454.34	6106.46
454.52	6338.17
454.70	6143.91
454.89	6190.72
455.07	6207.10
455.26	6267.95
455.44	6392.00
455.62	6298.38
455.81	6204.76
455.99	6331.15
456.17	6431.79
456.36	6487.96
456.54	6490.31
456.73	6642.44
456.91	6544.14
457.09	6740.74
457.28	6715.00
457.46	6485.62
457.64	6656.48
457.83	6593.29
458.01	6506.69
458.19	6815.64
458.38	6665.85
458.56	6815.64
458.74	6862.45
458.93	6754.79
459.11	6927.99
459.29	6883.52
459.48	6839.05
459.66	6993.52
459.84	6930.33
460.03	7112.89
460.21	7211.19
460.39	7026.29
460.57	6963.09
460.76	7045.01
460.94	7026.29
461.12	7272.04
461.31	7185.44
461.49	7047.35
461.67	7204.17
461.85	7227.57
462.04	7030.97
462.22	7501.42
462.40	7267.36
462.59	7578.65
462.77	7391.41
462.95	7398.43
463.13	7581.00
463.32	7337.58
463.50	7321.20
463.68	7372.69
463.86	7466.31
464.05	7459.29
464.23	7419.50
464.41	7595.04
464.59	7318.86
464.78	7604.40
464.96	7604.40
465.14	7545.89
465.32	7721.43
465.50	7709.72
465.69	7747.17
465.87	7658.23
466.05	7564.61
466.23	7623.12
466.41	7679.30
466.60	7817.39
466.78	7623.12
466.96	7597.38
467.14	7793.98
467.32	7861.86
467.51	7875.90
467.69	7660.57
467.87	7920.37
468.05	7950.80
468.23	7723.77
468.41	7812.71
468.60	8021.02
468.78	8011.65
468.96	7906.33
469.14	8084.21
469.32	8297.20
469.50	7976.55
469.69	8369.76
469.87	8318.26
470.05	8264.43
470.23	8465.72
470.41	8102.93
470.59	8313.58
470.77	8229.32
470.95	8322.94
471.14	8484.44
471.32	8507.85
471.50	8638.92
471.68	8306.56
471.86	8512.53
472.04	8725.52
472.22	8809.78
472.40	8819.14
472.58	8746.58
472.77	8631.90
472.95	8842.54
473.13	9071.92
473.31	8861.27
473.49	9027.45
473.67	8950.21
473.85	8863.61
474.03	9348.10
474.21	9228.73
474.39	9390.23
474.57	9219.37
474.75	9294.27
474.93	9474.49
475.12	9371.50
475.30	9453.42
475.48	9437.04
475.66	9439.38
475.84	9500.23
476.02	9743.65
476.20	9767.06
476.38	9750.67
476.56	9825.57
476.74	9942.60
476.92	9930.89
477.10	9982.38
477.28	10052.60
477.46	10104.09
477.64	10317.08
477.82	10326.44
478.00	10443.47
478.18	10494.96
478.36	10375.59
478.54	10733.70
478.72	10890.51
478.90	10710.29
479.08	11012.22
479.26	11042.65
479.44	10927.96
479.62	11197.12
479.80	11197.12
479.98	11342.24
480.16	11513.10
480.34	11585.65
480.52	11513.10
480.70	11634.80
480.88	11466.28
481.06	11688.64
481.24	11716.72
481.41	11857.15
481.59	11899.28
481.77	12091.21
481.95	12163.76
482.13	12182.49
482.31	12217.60
482.49	12489.10
482.67	12430.59
482.85	12739.54
483.03	12730.17
483.21	12765.28
483.39	13064.87
483.57	12966.57
483.74	13050.83
483.92	13275.52
484.10	13266.16
484.28	13605.53
484.46	13579.79
484.64	14029.17
484.82	13715.54
485.00	13949.59
485.18	14183.65
485.35	13937.89
485.53	14047.90
485.71	14155.56
485.89	14724.31
486.07	14527.71
486.25	14583.88
486.43	14670.48
486.61	14902.19
486.78	14939.64
486.96	15061.35
487.14	15332.85
487.32	15159.65
487.50	15522.43
487.68	15279.02
487.85	15740.10
488.03	15822.02
488.21	15917.98
488.39	16159.06
488.57	16166.08
488.75	15988.20
488.92	16301.83
489.10	16278.43
489.28	16889.31
489.46	16713.77
489.64	16765.26
489.81	17235.70
489.99	17151.45
490.17	17088.25
490.35	17465.08
490.53	17476.78
490.70	17806.80
490.88	17495.50
491.06	17961.27
491.24	17596.15
491.41	17762.33
491.59	18340.44
491.77	17874.67
491.95	18352.14
492.13	18677.48
492.30	18441.08
492.48	18527.68
492.66	18752.37
492.84	18609.60
493.01	18892.80
493.19	18768.76
493.37	19035.58
493.54	19527.09
493.72	19353.89
493.90	19606.67
494.08	19690.93
494.25	19580.92
494.43	19782.21
494.61	19756.46
494.79	19922.64
494.96	19868.81
495.14	20056.05
495.32	20519.48
495.49	20411.81
495.67	20774.60
495.85	20762.89
496.02	20823.75
496.20	21163.12
496.38	20879.92
496.55	21099.93
496.73	21614.85
496.91	21158.44
497.09	21364.41
497.26	21500.16
497.44	21605.49
497.62	21909.75
497.79	22246.79
497.97	21996.35
498.14	22272.54
498.32	22143.81
498.50	22253.81
498.67	22232.75
498.85	22162.53
499.03	22642.34
499.20	22817.88
499.38	22747.67
499.56	23194.71
499.73	23154.92
499.91	23454.51
500.08	23297.69
500.26	23094.07
500.44	23480.25
500.61	23054.28
500.79	23384.29
500.97	23688.56
501.14	24210.50
501.32	24105.18
501.49	23606.64
501.67	24107.52
501.84	24425.83
502.02	24236.25
502.20	23999.85
502.37	24135.60
502.55	24547.54
502.72	24790.95
502.90	24458.60
503.07	24381.36
503.25	24652.86
503.43	24297.10
503.60	24819.04
503.78	24999.26
503.95	24922.02
504.13	24790.95
504.30	25102.25
504.48	25111.61
504.65	25544.61
504.83	25530.56
505.01	25781.00
505.18	25418.22
505.36	25493.12
505.53	25755.26
505.71	25837.17
505.88	25745.89
506.06	26040.80
506.23	26125.06
506.41	25954.20
506.58	26647.00
506.76	26522.95
506.93	26398.90
507.11	26298.26
507.28	26822.54
507.46	26551.04
507.63	26672.74
507.81	26726.58
507.98	26651.68
508.16	26984.04
508.33	26780.41
508.50	26937.23
508.68	27424.06
508.85	27405.33
509.03	27407.67
509.20	27623.00
509.38	27576.19
509.55	27290.65
509.73	27438.10
509.90	27679.18
510.08	27555.13
510.25	27716.62
510.42	27882.80
510.60	28072.39
510.77	28245.58
510.95	28245.58
511.12	28229.20
511.30	28477.30
511.47	28173.03
511.64	28343.89
511.82	28444.53
511.99	28231.54
512.17	28704.33
512.34	28577.94
512.51	29116.26
512.69	29244.99
512.86	28811.99
513.04	29291.80
513.21	29317.55
513.38	29364.36
513.56	29263.72
513.73	29092.86
513.90	29329.25
514.08	29514.16
514.25	29394.79
514.43	29607.78
514.60	30061.84
514.77	29940.13
514.95	29769.27
515.12	29619.48
515.29	29979.92
515.47	30293.55
515.64	30008.01
515.81	30136.74
515.99	30223.34
516.16	30827.20
516.33	30225.68
516.51	30511.22
516.68	30307.60
516.85	30354.41
517.03	30878.69
517.20	30904.43
517.37	31028.48
517.54	30775.70
517.72	31157.21
517.89	31463.82
518.06	31075.29
518.24	31103.38
518.41	30836.56
518.58	31274.24
518.75	31072.95
518.93	31648.72
519.10	31159.55
519.27	31758.73
519.45	31557.44
519.62	31901.50
519.79	31644.04
519.96	31938.95
520.14	31920.23
520.31	31681.49
520.48	31929.59
520.65	32212.79
520.83	32313.44
521.00	32589.62
521.17	32472.59
521.34	32708.99
521.52	32416.42
521.69	32432.80
521.86	32622.39
522.03	32877.51
522.20	32952.40
522.38	33289.44
522.55	33067.09
522.72	32694.94
522.89	33132.62
523.07	33539.88
523.24	33521.15
523.41	33291.78
523.58	33317.53
523.75	33734.14
523.92	33572.64
524.10	33757.55
524.27	33542.22
524.44	33736.48
524.61	33750.52
524.78	33818.40
524.96	34050.11
525.13	33979.90
525.30	34101.61
525.47	33626.48
525.64	34218.63
525.81	34181.18
525.98	34377.79
526.16	34307.57
526.33	34356.72
526.50	34389.49
526.67	34361.40
526.84	34539.29
527.01	34604.82
527.18	34836.53
527.36	34717.17
527.53	34593.12
527.70	35030.80
527.87	35178.25
528.04	34679.72
528.21	35007.39
528.38	34487.79
528.55	35082.29
528.72	35166.55
528.89	34948.88
529.07	34923.13
529.24	34998.03
529.41	35569.12
529.58	35051.86
529.75	35377.20
529.92	35779.77
530.09	35309.32
530.26	35264.85
530.43	35501.25
530.60	35035.48
530.77	35236.77
530.94	35487.20
531.11	35861.69
531.28	36020.84
531.46	35721.26
531.63	36067.66
531.80	36126.17
531.97	35988.08
532.14	36243.20
532.31	36224.47
532.48	36194.04
532.65	36493.63
532.82	35906.16
532.99	36259.58
533.16	36198.73
533.33	36596.62
533.50	36587.25
533.67	36388.31
533.84	35978.72
534.01	36868.12
534.18	36786.20
534.35	36542.78
534.52	36683.22
534.69	37340.91
534.86	37317.50
535.03	37092.81
535.20	37198.13
535.37	37359.63
535.54	37195.79
535.71	37102.17
535.88	37493.04
536.05	37610.07
536.22	37467.30
536.38	37158.34
536.55	37144.30
536.72	37593.68
536.89	37338.57
537.06	37628.79
537.23	37975.19
537.40	37738.80
537.57	37542.19
537.74	37738.80
537.91	38396.49
538.08	38169.46
538.25	37535.17
538.42	37684.97
538.59	38162.43
538.75	38171.80
538.92	38141.37
539.09	38384.79
539.26	38703.10
539.43	37897.95
539.60	38380.10
539.77	38059.45
539.94	38471.39
540.11	38462.02
540.28	38550.96
540.44	38707.78
540.61	38635.22
540.78	38403.51
540.95	38693.74
541.12	38471.39
541.29	38628.20
541.46	38785.02
541.62	38735.87
541.79	38749.91
541.96	38565.01
542.13	38682.03
542.30	38806.08
542.47	39220.36
542.63	38672.67
542.80	39262.49
542.97	39152.48
543.14	39456.75
543.31	39482.50
543.48	39557.39
543.64	39702.51
543.81	40278.28
543.98	39859.32
544.15	39835.92
544.32	39613.57
544.48	40137.85
544.65	39885.07
544.82	39709.53
544.99	39824.22
545.16	40252.53
545.32	39782.09
545.49	39927.20
545.66	40409.35
545.83	39910.82
546.00	40519.35
546.16	40231.47
546.33	40217.43
546.50	40179.98
546.67	40598.93
546.83	39859.32
547.00	40435.10
547.17	40020.82
547.34	40793.20
547.50	40486.59
547.67	40563.82
547.84	40790.86
548.00	40858.73
548.17	41357.27
548.34	40687.87
548.51	40935.97
548.67	40795.54
548.84	40884.48
549.01	40882.14
549.18	40861.07
549.34	41265.99
549.51	40781.49
549.68	40828.30
549.84	40854.05
550.01	41532.81
550.18	40854.05
550.34	41106.83
550.51	41184.07
550.68	41502.38
550.84	40879.80
551.01	41710.69
551.18	41338.54
551.34	41270.67
551.51	41553.87
551.68	41228.54
551.84	41064.70
552.01	41387.69
552.18	41427.48
552.34	41244.92
552.51	41698.98
552.68	41287.05
552.84	41521.10
553.01	42024.32
553.18	41703.67
553.34	41993.89
553.51	41652.17
553.67	41780.90
553.84	41460.25
554.01	41888.57
554.17	41935.38
554.34	41944.74
554.51	42108.58
554.67	41876.86
554.84	42101.56
555.00	42178.79
555.17	41811.33
555.33	42518.17
555.50	42321.57
555.67	41794.95
555.83	42183.48
556.00	42401.14
556.16	42932.45
556.33	42494.77
556.50	42150.71
556.66	42239.65
556.83	42253.69
556.99	42993.30
557.16	43093.94
557.32	42747.54
557.49	42749.88
557.65	42078.15
557.82	42899.68
557.98	42829.46
558.15	42515.83
558.32	42801.38
558.48	42799.04
558.65	42745.20
558.81	42756.91
558.98	42707.76
559.14	42707.76
559.31	43342.04
559.47	42864.57
559.64	42813.08
559.80	42902.02
559.97	42902.02
560.13	42958.19
560.30	43103.31
560.46	42981.60
560.63	43019.05
560.79	43107.99
560.96	43555.03
561.12	43082.24
561.29	43054.15
561.45	43435.66
561.61	42890.32
561.78	43201.61
561.94	43522.26
562.11	43405.23
562.27	43365.45
562.44	43454.39
562.60	43496.52
562.77	43374.81
562.93	43002.66
563.10	43468.43
563.26	43372.47
563.42	43545.67
563.59	43220.33
563.75	43210.97
563.92	42735.84
564.08	43938.88
564.24	43681.42
564.41	43505.88
564.57	43199.27
564.74	43611.20
564.90	43643.97
565.07	43475.45
565.23	43274.16
565.39	43384.17
565.56	44006.75
565.72	43510.56
565.88	43885.04
566.05	43447.36
566.21	43625.25
566.38	43845.26
566.54	43728.23
566.70	44341.45
566.87	43887.39
567.03	43604.18
567.19	44013.77
567.36	43878.02
567.52	43756.32
567.68	44100.37
567.85	44032.50
568.01	43835.89
568.17	43716.53
568.34	44212.72
568.50	44208.04
568.66	43402.89
568.83	43969.30
568.99	43819.51
569.15	43906.11
569.32	44121.44
569.48	44231.44
569.64	44538.05
569.81	43775.04
569.97	44364.85
570.13	44119.10
570.30	43999.73
570.46	44299.32
570.62	44266.55
570.78	44151.87
570.95	44018.46
571.11	44514.65
571.27	44013.77
571.43	44184.63
571.60	44210.38
571.76	43969.30
571.92	44252.51
572.09	44069.95
572.25	44231.44
572.41	44088.67
572.57	44430.39
572.74	44722.96
572.90	44245.49
573.06	44678.49
573.22	44589.55
573.38	44385.92
573.55	44435.07
573.71	44533.37
573.87	44694.87
574.03	44304.00
574.20	44472.52
574.36	44676.15
574.52	44481.88
574.68	44790.83
574.84	44615.29
575.01	44650.40
575.17	44446.77
575.33	44626.99
575.49	44414.01
575.65	44470.18
575.82	44449.11
575.98	44385.92
576.14	44617.63
576.30	44552.10
576.46	44491.24
576.62	44318.04
576.79	44594.23
576.95	44217.40
577.11	44098.03
577.27	44514.65
577.43	44458.48
577.59	44453.79
577.75	44411.67
577.92	44669.12
578.08	44545.08
578.24	44732.32
578.40	45045.95
578.56	44966.37
578.72	44861.05
578.88	44832.96
579.04	44832.96
579.21	44561.46
579.37	44638.70
579.53	44863.39
579.69	44762.75
579.85	44690.19
580.01	44807.22
580.17	44535.71
580.33	44666.78
580.49	44584.86
580.65	44914.88
580.82	44809.56
580.98	44690.19
581.14	44378.90
581.30	44889.13
581.46	44437.41
581.62	44783.81
581.78	44521.67
581.94	44839.98
582.10	44713.59
582.26	44409.32
582.42	44385.92
582.58	44741.68
582.74	44516.99
582.90	44582.52
583.06	44697.21
583.22	44491.24
583.38	44797.85
583.54	44893.82
583.70	44837.64
583.86	45184.04
584.02	45202.77
584.18	45111.49
584.34	44678.49
584.50	44973.39
584.66	45226.17
584.82	44856.37
584.98	45067.02
585.14	45329.16
585.30	44261.87
585.46	44715.93
585.62	44545.08
585.78	44776.79
585.94	44538.05
586.10	44524.01
586.26	44758.06
586.42	44715.93
586.58	45088.08
586.74	44910.20
586.90	45127.87
587.06	45113.83
587.22	45294.05
587.38	44369.54
587.54	44982.76
587.70	45439.16
587.86	45244.90
588.02	44900.84
588.18	45125.53
588.34	45050.63
588.49	45048.29
588.65	44933.60
588.81	44739.34
588.97	44809.56
589.13	45031.91
589.29	44905.52
589.45	45406.39
589.61	45301.07
589.77	45280.00
589.93	44732.32
590.08	45542.14
590.24	45567.89
590.40	45502.35
590.56	45600.66
590.72	45289.37
590.88	45188.72
591.04	45125.53
591.20	45675.55
591.35	45497.67
591.51	45993.87
591.67	45780.88
591.83	45832.37
591.99	45387.67
592.15	45247.24
592.31	45045.95
592.46	45209.79
592.62	45593.64
592.78	45727.05
592.94	45167.66
593.10	45860.46
593.26	45839.39
593.41	45390.01
593.57	45780.88
593.73	45483.63
593.89	46256.01
594.05	45799.60
594.20	45687.26
594.36	45904.93
594.52	45748.11
594.68	45595.98
594.84	45230.85
594.99	45474.27
595.15	45249.58
595.31	45855.78
595.47	45617.04
595.62	45567.89
595.78	45331.50
595.94	45909.61
596.10	45771.52
596.25	45478.95
596.41	45413.41
596.57	45347.88
596.73	45827.69
596.88	45766.84
597.04	45687.26
597.20	45918.97
597.36	45759.81
597.51	45652.15
597.67	45558.53
597.83	45134.89
597.99	45689.60
598.14	45638.11
598.30	45935.35
598.46	45823.01
598.61	46223.24
598.77	45972.80
598.93	45745.77
599.09	45914.29
599.24	45727.05
599.40	45947.06
599.56	45659.17
599.71	46366.01
599.87	46321.54
600.03	45923.65
600.18	46028.98
600.34	45558.53
600.50	46096.85
600.65	45853.44
600.81	46260.69
600.97	45797.26
601.12	45832.37
601.28	45965.78
601.44	45785.56
601.59	45724.71
601.75	45600.66
601.91	46220.90
602.06	46045.36
602.22	45743.43
602.37	45818.33
602.53	45717.68
602.69	46085.15
602.84	45837.05
603.00	45741.09
603.16	45783.22
603.31	45624.06
603.47	46019.61
603.62	45837.05
603.78	46185.79
603.94	46120.26
604.09	45963.44
604.25	45483.63
604.40	45815.99
604.56	45570.23
604.71	46131.96
604.87	45872.16
605.03	45778.54
605.18	45844.07
605.34	45441.50
605.49	45741.09
605.65	45832.37
605.80	45591.30
605.96	45956.42
606.12	45567.89
606.27	45897.91
606.43	45766.84
606.58	45883.86
606.74	45635.77
606.89	45553.85
607.05	46256.01
607.20	45642.79
607.36	45425.12
607.51	45846.41
607.67	45790.24
607.82	45572.57
607.98	45876.84
608.13	45713.00
608.29	45542.14
608.44	45556.19
608.60	45556.19
608.75	45607.68
608.91	45666.19
609.06	45462.57
609.22	45935.35
609.37	45233.19
609.53	45551.51
609.68	45818.33
609.84	45237.87
609.99	45364.26
610.15	45612.36
610.30	45413.41
610.46	45485.97
610.61	45317.45
610.76	45420.44
610.92	45301.07
611.07	45282.34
611.23	45006.16
611.38	45446.18
611.54	45434.48
611.69	45144.25
611.84	45394.69
612.00	45127.87
612.15	45457.88
612.31	45478.95
612.46	45198.09
612.62	45441.50
612.77	45141.91
612.92	45495.33
613.08	45387.67
613.23	45062.33
613.39	45102.12
613.54	45153.62
613.69	45668.53
613.85	45120.85
614.00	45429.80
614.15	45230.85
614.31	45104.46
614.46	44975.73
614.62	45015.52
614.77	44772.11
614.92	44949.99
615.08	45062.33
615.23	45221.49
615.38	45212.13
615.54	45127.87
615.69	44938.29
615.84	45132.55
616.00	45525.76
616.15	45261.28
616.30	45193.40
616.46	44498.26
616.61	45064.67
616.76	45146.59
616.92	44849.35
617.07	45148.93
617.22	44914.88
617.37	44676.15
617.53	45020.20
617.68	44580.18
617.83	44580.18
617.99	45109.14
618.14	45050.63
618.29	44364.85
618.45	44748.70
618.60	44451.45
618.75	44236.12
618.90	44652.74
619.06	44872.75
619.21	44275.91
619.36	44498.26
619.51	44582.52
619.67	44315.70
619.82	44502.95
619.97	44376.56
620.12	44280.60
620.28	44442.09
620.43	44299.32
620.58	44729.98
620.73	44685.51
620.89	44624.65
621.04	44638.70
621.19	44385.92
621.34	44397.62
621.49	43995.05
621.65	44491.24
621.80	44484.22
621.95	44615.29
622.10	44425.71
622.25	43995.05
622.41	44238.47
622.56	44287.62
622.71	44533.37
622.86	44229.10
623.01	44320.38
623.16	44229.10
623.32	43480.13
623.47	43800.79
623.62	44037.18
623.77	43913.13
623.92	44332.09
624.07	43753.97
624.23	44165.91
624.38	44030.16
624.53	44289.96
624.68	43707.16
624.83	43632.27
624.98	43718.87
625.13	43311.61
625.29	43910.79
625.44	44041.86
625.59	43784.40
625.74	43625.25
625.89	43700.14
626.04	43346.72
626.19	43328.00
626.34	43311.61
626.49	43426.30
626.65	43061.18
626.80	43676.74
626.95	43620.56
627.10	42756.91
627.25	43789.08
627.40	43709.50
627.55	43578.43
627.70	43412.26
627.85	43356.08
628.00	43243.74
628.15	43065.86
628.30	42689.03
628.45	43070.54
628.60	43363.11
628.76	42679.67
628.91	43262.46
629.06	42841.17
629.21	43054.15
629.36	42831.80
629.51	43049.47
629.66	43091.60
629.81	42698.39
629.96	42934.79
630.11	43405.23
630.26	42656.26
630.41	42813.08
630.56	42782.65
630.71	43161.82
630.86	42862.23
631.01	42756.91
631.16	42628.18
631.31	42511.15
631.46	42651.58
631.61	42920.74
631.76	42579.03
631.91	42953.51
632.06	43007.34
632.21	43098.62
632.36	42768.61
632.51	42312.20
632.66	42639.88
632.81	42401.14
632.96	42684.35
633.10	42607.11
633.25	42473.70
633.40	42532.22
633.55	42822.44
633.70	42408.17
633.85	42286.46
634.00	42344.97
634.15	41991.55
634.30	42178.79
634.45	42066.45
634.60	42014.96
634.75	42256.03
634.90	42040.70
635.05	42361.36
635.19	42131.98
635.34	42375.40
635.49	42064.11
635.64	42164.75
635.79	42237.31
635.94	42693.71
636.09	42256.03
636.24	41944.74
636.39	42047.72
636.53	42309.86
636.68	41820.69
636.83	41851.12
636.98	41617.07
637.13	41628.77
637.28	41354.93
637.43	41801.97
637.57	41869.84
637.72	41404.08
637.87	41883.89
638.02	41759.84
638.17	41570.25
638.32	41486.00
638.46	41294.07
638.61	41354.93
638.76	40858.73
638.91	41668.56
639.06	41333.86
639.20	41141.94
639.35	41521.10
639.50	41263.64
639.65	41633.45
639.80	41617.07
639.94	41600.68
640.09	41570.25
640.24	41287.05
640.39	40975.76
640.54	41050.66
640.68	41202.79
640.83	41439.18
640.98	41380.67
641.13	41216.83
641.27	41823.03
641.42	41116.19
641.57	40865.75
641.72	41123.21
641.86	41120.87
642.01	40989.80
642.16	40842.35
642.31	40095.72
642.45	41282.37
642.60	40814.26
642.75	40872.78
642.90	41017.89
643.04	40699.58
643.19	41020.23
643.34	41045.97
643.48	40748.73
643.63	40430.41
643.78	40484.25
643.93	40748.73
644.07	40673.83
644.22	40624.68
644.37	40437.44
644.51	41170.02
644.66	40671.49
644.81	40865.75
644.95	40311.05
645.10	40783.83
645.25	40472.54
645.39	40332.11
645.54	40205.72
645.69	40297.00
645.83	40016.14
645.98	40278.28
646.13	40250.19
646.27	40278.28
646.42	39674.42
646.57	40268.92
646.71	40304.02
646.86	40598.93
647.00	40577.87
647.15	40435.10
647.30	40210.40
647.44	40079.33
647.59	40201.04
647.74	39971.67
647.88	40308.71
648.03	40226.79
648.17	40650.42
648.32	40325.09
648.47	40488.93
648.61	39782.09
648.76	40318.07
648.90	39842.94
649.05	39651.02
649.20	40175.30
649.34	40055.93
649.49	40133.17
649.63	39707.19
649.78	39449.73
649.92	40030.18
650.07	40327.43
650.21	39866.34
650.36	40058.27
650.51	40098.06
650.65	39988.05
650.80	39576.12
650.94	39842.94
651.09	39838.26
651.23	39086.95
651.38	39344.41
651.52	39152.48
651.67	39384.19
651.81	39737.62
651.96	39409.94
652.10	39599.52
652.25	39353.77
652.39	39171.21
652.54	39543.35
652.68	38770.97
652.83	39065.88
652.97	39201.63
653.12	38895.02
653.26	39044.82
653.41	39395.90
653.55	39442.71
653.70	39515.26
653.84	39370.15
653.99	39423.98
654.13	39012.05
654.27	38892.68
654.42	38993.32
654.56	38916.09
654.71	38906.73
654.85	38700.76
655.00	38869.28
655.14	39086.95
655.29	39164.18
655.43	39150.14
655.57	39014.39
655.72	38602.46
655.86	38611.82
656.01	38770.97
656.15	38389.47
656.30	38574.37
656.44	38707.78
656.58	38813.10
656.73	38686.71
656.87	38078.18
657.01	37977.53
657.16	38719.48
657.30	38316.91
657.45	38202.22
657.59	38656.29
657.73	38279.46
657.88	38588.41
658.02	38717.14
658.16	38817.78
658.31	38672.67
658.45	38429.26
658.60	38078.18
658.74	38347.34
658.88	37909.66
659.03	38164.78
659.17	38132.01
659.31	37785.61
659.46	38148.39
659.60	38115.62
659.74	37794.97
659.89	37600.71
660.03	37338.57
660.17	37837.10
660.32	37839.44
660.46	37776.25
660.60	37235.58
660.74	37567.94
660.89	37759.86
661.03	37420.48
661.17	37301.12
661.32	37347.93
661.46	37464.96
661.60	37127.92
661.74	36989.83
661.89	37216.86
662.03	37130.26
662.17	37340.91
662.31	36683.22
662.46	36978.12
662.60	36643.43
662.74	36634.06
662.88	36613.00
663.03	36884.50
663.17	36531.08
663.31	36292.35
663.45	36526.40
663.60	37006.21
663.74	36842.37
663.88	36500.65
664.02	36676.19
664.17	36657.47
664.31	36566.19
664.45	36077.02
664.59	36341.50
664.73	36531.08
664.88	36189.36
665.02	35391.24
665.16	36325.11
665.30	36165.96
665.44	35899.14
665.59	35721.26
665.73	35629.98
665.87	35545.72
666.01	35878.07
666.15	35440.39
666.29	35398.26
666.44	36198.73
666.58	35601.89
666.72	35538.69
666.86	35211.02
667.00	35426.35
667.14	35545.72
667.28	35201.66
667.43	34934.84
667.57	35702.53
667.71	35122.08
667.85	35461.46
667.99	35108.04
668.13	34436.30
668.27	34642.27
668.41	34759.30
668.56	34579.07
668.70	34789.72
668.84	34330.98
668.98	34143.74
669.12	34745.25
669.26	34476.09
669.40	34504.18
669.54	34464.39
669.68	34487.79
669.82	34574.39
669.96	34096.92
670.10	33666.27
670.25	34017.35
670.39	34057.14
670.53	33846.49
670.67	34036.07
670.81	34281.83
670.95	34122.67
671.09	33680.31
671.23	33720.10
671.37	34127.35
671.51	33504.77
671.65	33631.16
671.79	33582.01
671.93	33593.71
672.07	33759.89
672.21	33462.64
672.35	32556.85
672.49	33343.27
672.63	33029.64
672.77	33235.61
672.91	33244.97
673.05	32910.27
673.19	32383.65
673.33	32580.26
673.47	32741.75
673.61	32044.27
673.75	31983.42
673.89	32275.99
674.03	32107.47
674.17	31578.51
674.31	31590.21
674.45	31878.10
674.59	32196.41
674.73	31704.90
674.87	31449.78
675.01	31740.00
675.15	31527.02
675.29	31569.15
675.43	31367.86
675.56	31395.95
675.70	31541.06
675.84	31414.67
675.98	29951.84
676.12	30785.07
676.26	31021.46
676.40	31166.57
676.54	30829.54
676.68	30728.89
676.82	30391.86
676.96	30480.80
677.10	30834.22
677.23	30476.12
677.37	30845.92
677.51	30274.83
677.65	30192.91
677.79	30005.67
677.93	29926.09
678.07	29745.87
678.21	29607.78
678.34	29614.80
678.48	29546.92
678.62	29516.50
678.76	29364.36
678.90	29280.10
679.04	29284.78
679.18	29549.26
679.31	28669.22
679.45	28601.35
679.59	29071.79
679.73	28980.51
679.87	28538.15
680.00	28676.24
680.14	28709.01
680.28	28486.66
680.42	28554.54
680.56	28266.65
680.70	28467.94
680.83	27814.93
680.97	27793.86
681.11	27934.29
681.25	27950.68
681.39	27091.70
681.52	27845.35
681.66	27428.74
681.80	27049.57
681.94	27035.53
682.07	27084.68
682.21	26913.82
682.35	26930.20
682.49	26780.41
682.62	26675.09
682.76	26916.16
682.90	26876.37
683.04	26298.26
683.17	26689.13
683.31	26501.89
683.45	25886.32
683.59	26113.36
683.72	25881.64
683.86	26103.99
684.00	25811.43
684.13	25598.44
684.27	25776.32
684.41	25788.02
684.55	25724.83
684.68	25551.63
684.82	25315.23
684.96	24844.79
685.09	25167.78
685.23	25453.33
685.37	25319.92
685.50	25184.16
685.64	25151.40
685.78	24584.99
685.91	24730.10
686.05	24809.68
686.19	24011.56
686.32	24372.00
686.46	24116.88
686.60	23971.77
686.73	24100.50
686.87	23896.87
687.01	24217.52
687.14	23997.51
687.28	23960.06
687.42	23807.93
687.55	23707.29
687.69	23506.00
687.82	23241.52
687.96	23063.64
688.10	23578.56
688.23	23215.77
688.37	23370.25
688.50	23269.61
688.64	23119.81
688.78	23040.23
688.91	22661.07
689.05	22696.17
689.18	22611.92
689.32	22441.06
689.46	22141.47
689.59	22143.81
689.73	22579.15
689.86	22361.48
690.00	21867.63
690.13	22293.60
690.27	22125.08
690.41	21986.99
690.54	21825.50
690.68	21584.42
690.81	21671.02
690.95	21441.65
691.08	21413.56
691.22	21245.04
691.35	21193.55
691.49	21359.73
691.62	20919.71
691.76	20690.34
691.89	20339.26
692.03	20732.47
692.16	20587.35
692.30	20580.33
692.43	20542.88
692.57	20264.36
692.70	20416.49
692.84	20152.01
692.97	19847.74
693.11	19882.85
693.24	19847.74
693.38	19829.02
693.51	19625.39
693.65	19775.19
693.78	19620.71
693.92	19494.32
694.05	19367.93
694.19	19297.72
694.32	19344.53
694.45	19569.22
694.59	19276.65
694.72	19190.05
694.86	19016.85
694.99	18693.86
695.13	18712.58
695.26	18471.51
695.39	18508.96
695.53	18244.48
695.66	18548.75
695.80	18134.47
695.93	18354.48
696.07	18155.54
696.20	17848.93
696.33	17783.39
696.47	17427.63
696.60	17783.39
696.73	17905.10
696.87	17785.73
697.00	17778.71
697.14	17647.64
697.27	17479.12
697.40	17268.47
697.54	17441.67
697.67	17366.78
697.80	17308.26
697.94	17291.88
698.07	17184.21
698.21	16994.63
698.34	16793.34
698.47	16341.62
698.61	16468.01
698.74	16491.41
698.87	16493.76
699.01	16224.59
699.14	16608.44
699.27	16308.85
699.40	16245.66
699.54	16133.31
699.67	16191.83
699.80	16159.06
699.94	15939.05
700.07	16046.71
700.20	15772.87
700.34	15653.50
700.47	15637.12
700.60	15772.87
700.73	15482.64
700.87	15489.67
701.00	15370.30
701.13	15321.15
701.26	15026.24
701.40	15204.12
701.53	15000.49
701.66	14934.96
701.79	14965.39
701.93	14630.69
702.06	14462.17
702.19	14904.53
702.32	14766.44
702.46	14871.76
702.59	14712.61
702.72	14635.37
702.85	14618.99
702.99	14448.13
703.12	14218.75
703.25	14153.22
703.38	13958.96
703.51	14157.90
703.65	14073.64
703.78	13603.19
703.91	13589.15
704.04	13668.73
704.17	13584.47
704.31	13598.51
704.44	13589.15
704.57	13429.99
704.70	13645.32
704.83	13184.24
704.96	13451.06
705.10	12957.21
705.23	13200.62
>>>>>End Processed Spectral Data<<<<<
