SpectraSuite Data File
++++++++++++++++++++++++++++++++++++
Date: Fri Oct 25 10:44:14 EDT 2013
User: price-jones
Dark Spectrum Present: No
Reference Spectrum Present: No
Number of Sampled Component Spectra: 1
Spectrometers: USB2+H05261
Integration Time (usec): 100000 (USB2+H05261)
Spectra Averaged: 1 (USB2+H05261)
Boxcar Smoothing: 0 (USB2+H05261)
Correct for Electrical Dark: No (USB2+H05261)
Strobe/Lamp Enabled: No (USB2+H05261)
Correct for Detector Non-linearity: No (USB2+H05261)
Correct for Stray Light: No (USB2+H05261)
Number of Pixels in Processed Spectrum: 2048
>>>>>Begin Processed Spectral Data<<<<<
365.73	198.95
365.92	198.95
366.12	198.95
366.32	51.49
366.52	0.00
366.72	63.19
366.91	18.72
367.11	0.00
367.31	0.00
367.51	0.00
367.70	65.54
367.90	60.85
368.10	0.00
368.30	0.00
368.49	81.92
368.69	25.75
368.89	4.68
369.09	86.60
369.28	9.36
369.48	51.49
369.68	46.81
369.87	56.17
370.07	46.81
370.27	84.26
370.47	154.48
370.66	407.25
370.86	486.83
371.06	479.81
371.25	512.58
371.45	428.32
371.65	435.34
371.84	437.68
372.04	444.70
372.24	552.37
372.44	435.34
372.63	561.73
372.83	477.47
373.03	468.11
373.22	496.19
373.42	454.06
373.62	538.32
373.81	486.83
374.01	561.73
374.21	575.77
374.40	538.32
374.60	538.32
374.79	575.77
374.99	554.71
375.19	575.77
375.38	484.49
375.58	547.69
375.78	571.09
375.97	575.77
376.17	636.63
376.37	585.13
376.56	545.34
376.76	594.50
376.95	627.26
377.15	709.18
377.35	638.97
377.54	674.07
377.74	638.97
377.93	657.69
378.13	763.01
378.33	657.69
378.52	685.78
378.72	594.50
378.91	674.07
379.11	648.33
379.31	566.41
379.50	561.73
379.70	655.35
379.89	683.44
380.09	629.60
380.28	624.92
380.48	674.07
380.68	655.35
380.87	641.31
381.07	770.04
381.26	697.48
381.46	746.63
381.65	727.91
381.85	760.67
382.04	746.63
382.24	667.05
382.43	634.29
382.63	634.29
382.83	699.82
383.02	746.63
383.22	777.06
383.41	723.23
383.61	702.16
383.80	791.10
384.00	709.18
384.19	765.36
384.39	802.80
384.58	770.04
384.78	816.85
384.97	821.53
385.17	863.66
385.36	819.19
385.56	805.14
385.75	814.51
385.95	856.64
386.14	798.12
386.34	880.04
386.53	830.89
386.72	938.55
386.92	903.45
387.11	877.70
387.31	875.36
387.50	823.87
387.70	877.70
387.89	861.32
388.09	842.59
388.28	933.87
388.48	858.98
388.67	882.38
388.86	854.30
389.06	950.26
389.25	980.68
389.45	915.15
389.64	894.08
389.84	1071.97
390.03	992.39
390.22	973.66
390.42	985.37
390.61	980.68
390.81	1004.09
391.00	1071.97
391.19	952.60
391.39	1039.20
391.58	1095.37
391.78	1083.67
391.97	1081.33
392.16	1034.52
392.36	1022.81
392.55	976.00
392.75	992.39
392.94	940.90
393.13	1027.50
393.33	910.47
393.52	1088.35
393.71	1137.50
393.91	1083.67
394.10	1090.69
394.29	1125.80
394.49	1200.69
394.68	1252.19
394.88	1277.93
395.07	1254.53
395.26	1252.19
395.46	1294.32
395.65	1259.21
395.84	1238.14
396.04	1212.40
396.23	1214.74
396.42	1090.69
396.62	1263.89
396.81	1254.53
397.00	1238.14
397.19	1151.54
397.39	1334.11
397.58	1383.26
397.77	1399.64
397.97	1357.51
398.16	1509.65
398.35	1500.28
398.55	1378.58
398.74	1446.45
398.93	1582.20
399.12	1533.05
399.32	1533.05
399.51	1514.33
399.70	1523.69
399.90	1462.83
400.09	1629.01
400.28	1577.52
400.47	1568.16
400.67	1636.03
400.86	1666.46
401.05	1668.80
401.24	1682.85
401.44	1722.63
401.63	1706.25
401.82	1617.31
402.01	1678.16
402.21	1825.62
402.40	1732.00
402.59	1633.69
402.78	1785.83
402.97	1631.35
403.17	1760.08
403.36	1767.10
403.55	1937.96
403.74	1937.96
403.93	1858.39
404.13	1837.32
404.32	1823.28
404.51	1858.39
404.70	1874.77
404.89	1806.89
405.09	1975.41
405.28	1802.21
405.47	1919.24
405.66	1846.68
405.85	1984.77
406.05	1909.88
406.24	2106.48
406.43	1937.96
406.62	2043.29
406.81	2087.76
407.00	2162.66
407.20	1952.01
407.39	2076.06
407.58	2122.87
407.77	2169.68
407.96	2087.76
408.15	2321.81
408.34	2289.04
408.54	2232.87
408.73	2265.64
408.92	2279.68
409.11	2338.20
409.30	2291.38
409.49	2239.89
409.68	2352.24
409.87	2410.75
410.07	2361.60
410.26	2394.37
410.45	2307.77
410.64	2335.85
410.83	2513.74
411.02	2483.31
411.21	2438.84
411.40	2628.42
411.59	2546.50
411.78	2623.74
411.98	2640.12
412.17	2586.29
412.36	2708.00
412.55	2789.92
412.74	2848.43
412.93	2881.20
413.12	2586.29
413.31	2967.80
413.50	2815.66
413.69	2906.95
413.88	2885.88
414.07	2920.99
414.26	2932.69
414.45	2930.35
414.64	2984.18
414.83	3047.38
415.02	2899.92
415.22	3030.99
415.41	3108.23
415.60	3082.49
415.79	3206.53
415.98	3337.60
416.17	3258.03
416.36	3124.62
416.55	3241.64
416.74	3293.13
416.93	3155.04
417.12	3351.65
417.31	3201.85
417.50	3288.45
417.69	3489.74
417.88	3414.84
418.07	3435.91
418.26	3379.73
418.45	3471.01
418.64	3559.95
418.83	3634.85
419.02	3611.45
419.21	3714.43
419.39	3637.19
419.58	3627.83
419.77	3510.80
419.96	3672.30
420.15	3695.71
420.34	3583.36
420.53	3679.32
420.72	3779.97
420.91	3801.03
421.10	3798.69
421.29	3686.34
421.48	3812.73
421.67	3817.41
421.86	3740.18
422.05	3833.80
422.24	3705.07
422.43	3847.84
422.61	3922.74
422.80	3801.03
422.99	3803.37
423.18	3882.95
423.37	4037.42
423.56	3908.69
423.75	3826.78
423.94	3831.46
424.13	3742.52
424.32	3712.09
424.50	3859.54
424.69	3981.25
424.88	3950.82
425.07	3782.31
425.26	3833.80
425.45	3936.78
425.64	3854.86
425.83	3913.38
426.01	3904.01
426.20	4070.19
426.39	4086.58
426.58	3988.27
426.77	4084.23
426.96	4046.79
427.15	3932.10
427.33	4081.89
427.52	4035.08
427.71	4035.08
427.90	4135.73
428.09	4168.49
428.28	4126.36
428.46	4163.81
428.65	4135.73
428.84	4121.68
429.03	4187.22
429.22	4112.32
429.40	4142.75
429.59	4109.98
429.78	3981.25
429.97	3990.61
430.16	4100.62
430.34	4266.80
430.53	4119.34
430.72	4098.28
430.91	4135.73
431.10	4339.35
431.28	4381.48
431.47	4589.79
431.66	4545.32
431.85	4561.70
432.03	4550.00
432.22	4791.08
432.41	4627.24
432.60	4610.86
432.79	4617.88
432.97	4805.12
433.16	4667.03
433.35	4636.60
433.54	4751.29
433.72	4765.33
433.91	4685.75
434.10	4847.25
434.28	4772.35
434.47	4826.18
434.66	4957.25
434.85	4812.14
435.03	5139.82
435.22	4985.34
435.41	5057.90
435.59	5139.82
435.78	4926.83
435.97	5261.52
436.16	5210.03
436.34	5128.11
436.53	5034.49
436.72	5165.56
436.90	4990.02
437.09	5013.43
437.28	5137.48
437.46	5188.97
437.65	5156.20
437.84	5149.18
438.02	5170.24
438.21	5263.86
438.40	5114.07
438.58	5263.86
438.77	5563.45
438.96	5549.41
439.14	5746.02
439.33	5661.76
439.52	5643.03
439.70	5675.80
439.89	5731.97
440.08	5633.67
440.26	5703.89
440.45	5547.07
440.63	5841.98
440.82	6022.20
441.01	5596.22
441.19	6026.88
441.38	6153.27
441.57	5942.62
441.75	6052.63
441.94	6176.67
442.12	6300.72
442.31	6265.61
442.50	6359.24
442.68	6204.76
442.87	6045.60
443.05	6321.79
443.24	6408.39
443.43	6434.13
443.61	6450.52
443.80	6452.86
443.98	6363.92
444.17	6282.00
444.35	6394.34
444.54	6651.80
444.73	6553.50
444.91	6478.60
445.10	6368.60
445.28	6466.90
445.47	6354.55
445.65	6237.53
445.84	6497.33
446.02	6551.16
446.21	6361.58
446.39	6483.28
446.58	6663.51
446.77	6597.97
446.95	6478.60
447.14	6574.56
447.32	6686.91
447.51	6609.67
447.69	6754.79
447.88	6719.68
448.06	6710.32
448.25	6745.42
448.43	6899.90
448.62	6766.49
448.80	6771.17
448.99	6693.93
449.17	6785.21
449.36	6991.18
449.54	6794.58
449.73	7040.33
449.91	7260.34
450.10	7108.21
450.28	7155.02
450.46	7272.04
450.65	7255.66
450.83	7349.28
451.02	7173.74
451.20	7281.41
451.39	7150.34
451.57	7133.95
451.76	7059.06
451.94	7236.94
452.13	7255.66
452.31	7290.77
452.49	7087.14
452.68	7080.12
452.86	7227.57
453.05	7199.49
453.23	7419.50
453.42	7227.57
453.60	7325.88
453.78	7400.77
453.97	7428.86
454.15	7426.52
454.34	7250.98
454.52	7602.06
454.70	7562.27
454.89	7531.84
455.07	7585.68
455.26	7674.62
455.44	7754.19
455.62	7639.51
455.81	7861.86
455.99	7838.45
456.17	7639.51
456.36	7964.84
456.54	8023.36
456.73	8063.15
456.91	8112.30
457.09	8002.29
457.28	8292.52
457.46	7929.74
457.64	8145.06
457.83	8287.84
458.01	8093.57
458.19	8135.70
458.38	8037.40
458.56	8318.26
458.74	8266.77
458.93	8114.64
459.11	8224.64
459.29	8339.33
459.48	8327.63
459.66	8161.45
459.84	8442.31
460.03	8528.91
460.21	8638.92
460.39	8442.31
460.57	8624.87
460.76	8383.80
460.94	8781.69
461.12	8697.43
461.31	8706.79
461.49	8498.49
461.67	8631.90
461.85	8800.41
462.04	8718.50
462.22	8987.66
462.40	9076.60
462.59	8943.19
462.77	8809.78
462.95	8837.86
463.13	8835.52
463.32	9053.19
463.50	8929.14
463.68	8889.35
463.86	8954.89
464.05	9121.07
464.23	8872.97
464.41	9160.86
464.59	8823.82
464.78	9191.28
464.96	9085.96
465.14	9207.67
465.32	9104.68
465.50	9224.05
465.69	9118.73
465.87	9263.84
466.05	9156.18
466.23	9174.90
466.41	9249.80
466.60	9448.74
466.78	9231.07
466.96	9186.60
467.14	9401.93
467.32	9479.17
467.51	9624.28
467.69	9160.86
467.87	9540.02
468.05	9589.17
468.23	9493.21
468.41	9362.14
468.60	9191.28
468.78	9458.10
468.96	9441.72
469.14	9745.99
469.32	9804.50
469.50	9605.56
469.69	9804.50
469.87	9659.39
470.05	9781.10
470.23	9851.31
470.41	9760.03
470.59	10111.11
470.77	9774.08
470.95	9888.76
471.14	9912.17
471.32	10003.45
471.50	10157.92
471.68	10038.56
471.86	10298.36
472.04	10555.82
472.22	10684.55
472.40	10391.98
472.58	10438.79
472.77	10328.78
472.95	10431.77
473.13	10733.70
473.31	10541.77
473.49	10579.22
473.67	10501.98
473.85	10621.35
474.03	10981.79
474.21	10979.45
474.39	11138.61
474.57	11126.91
474.75	11117.54
474.93	11047.33
475.12	11124.57
475.30	11286.06
475.48	11227.55
475.66	11171.38
475.84	11407.77
476.02	11274.36
476.20	11466.28
476.38	11332.87
476.56	11885.24
476.74	11754.17
476.92	11700.34
477.10	11714.38
477.28	12112.27
477.46	12025.67
477.64	12154.40
477.82	12313.56
478.00	12533.57
478.18	12585.06
478.36	12690.38
478.54	12688.04
478.72	12610.81
478.90	12889.33
479.08	13067.21
479.26	13198.28
479.44	13078.91
479.62	13406.59
479.80	13207.64
479.98	13317.65
480.16	13706.18
480.34	13694.47
480.52	13865.33
480.70	13715.54
480.88	13542.34
481.06	13991.72
481.24	13844.27
481.41	13825.54
481.59	14441.11
481.77	14157.90
481.95	14270.25
482.13	14780.48
482.31	14413.02
482.49	14846.02
482.67	15131.56
482.85	15169.01
483.03	15262.63
483.21	15218.16
483.39	15367.96
483.57	15349.23
483.74	15506.05
483.92	15536.48
484.10	15494.35
484.28	15784.57
484.46	15946.07
484.64	16404.81
484.82	15824.36
485.00	16219.91
485.18	16343.96
485.35	16418.86
485.53	15861.81
485.71	16116.93
485.89	16325.24
486.07	16060.76
486.25	16496.10
486.43	16730.15
486.61	17062.51
486.78	17303.58
486.96	17142.08
487.14	17757.64
487.32	17790.41
487.50	18111.07
487.68	18274.90
487.85	18679.82
488.03	18403.63
488.21	18625.98
488.39	18368.52
488.57	18347.46
488.75	18724.29
488.92	18813.23
489.10	19342.19
489.28	19096.43
489.46	19819.66
489.64	19953.07
489.81	20142.65
489.99	20332.23
490.17	19894.55
490.35	20533.52
490.53	20299.47
490.70	20472.67
490.88	20552.24
491.06	20690.34
491.24	20793.32
491.41	20570.97
491.59	20863.54
491.77	20697.36
491.95	21013.33
492.13	21483.78
492.30	21729.53
492.48	21266.11
492.66	22029.12
492.84	21720.17
493.01	22139.13
493.19	22143.81
493.37	22284.24
493.54	22106.36
493.72	22534.68
493.90	22581.49
494.08	22773.41
494.25	23227.48
494.43	23082.36
494.61	23775.16
494.79	23332.80
494.96	23552.81
495.14	23321.10
495.32	23564.51
495.49	23527.06
495.67	23726.01
495.85	24025.60
496.02	24140.29
496.20	24156.67
496.38	24254.97
496.55	24514.77
496.73	25095.22
496.91	24687.97
497.09	24966.49
497.26	25266.08
497.44	24795.64
497.62	25329.28
497.79	25509.50
497.97	24926.71
498.14	25188.85
498.32	25532.90
498.50	25827.81
498.67	26263.15
498.85	25844.20
499.03	26017.40
499.20	25937.82
499.38	25895.69
499.56	26237.41
499.73	26614.23
499.91	26206.98
500.08	26223.36
500.26	26331.03
500.44	26508.91
500.61	26609.55
500.79	26780.41
500.97	26848.29
501.14	27243.84
501.32	26916.16
501.49	27042.55
501.67	27285.97
501.84	27391.29
502.02	27578.53
502.20	27793.86
502.37	28123.88
502.55	27751.73
502.72	27831.31
502.90	28210.48
503.07	27756.41
503.25	28137.92
503.43	28002.17
503.60	28151.96
503.78	28060.68
503.95	28327.50
504.13	28503.04
504.30	28816.68
504.48	28416.44
504.65	28882.21
504.83	28641.14
505.01	29537.56
505.18	28767.52
505.36	29530.54
505.53	29280.10
505.71	29729.48
505.88	29584.37
506.06	29013.28
506.23	29708.42
506.41	29621.82
506.58	29818.42
506.76	29731.83
506.93	29902.68
507.11	29926.09
507.28	30122.69
507.46	29968.22
507.63	30157.80
507.81	30401.22
507.98	29982.26
508.16	30118.01
508.33	30368.45
508.50	30878.69
508.68	30581.44
508.85	31211.04
509.03	30986.35
509.20	31201.68
509.38	31124.44
509.55	31384.24
509.73	31292.96
509.90	31648.72
510.08	31407.65
510.25	31122.10
510.42	31564.46
510.60	31796.18
510.77	31812.56
510.95	31889.80
511.12	32189.39
511.30	32292.37
511.47	32273.65
511.64	32224.50
511.82	32732.39
511.99	31852.35
512.17	32109.81
512.34	32112.15
512.51	32421.10
512.69	32926.66
512.86	32332.16
513.04	32818.99
513.21	32587.28
513.38	32921.98
513.56	32828.35
513.73	32921.98
513.90	33106.88
514.08	33029.64
514.25	33034.32
514.43	32985.17
514.60	33254.33
514.77	33621.80
514.95	33420.51
515.12	33404.13
515.29	33312.84
515.47	34066.50
515.64	34223.31
515.81	33565.62
515.99	33570.30
516.16	33692.01
516.33	33277.74
516.51	33535.20
516.68	33418.17
516.85	33530.51
517.03	33244.97
517.20	34031.39
517.37	34003.30
517.54	34277.15
517.72	34462.05
517.89	33813.72
518.06	34050.11
518.24	33975.22
518.41	34183.52
518.58	34389.49
518.75	34742.91
518.93	34916.11
519.10	34330.98
519.27	35068.25
519.45	35154.85
519.62	34962.92
519.79	35484.86
519.96	35110.38
520.14	35381.88
520.31	35061.22
520.48	35505.93
520.65	35578.48
520.83	36105.10
521.00	36329.80
521.17	35723.60
521.34	36067.66
521.52	35892.12
521.69	36212.77
521.86	36126.17
522.03	36364.90
522.20	36318.09
522.38	36336.82
522.55	36556.83
522.72	36238.51
522.89	36477.25
523.07	37036.64
523.24	36718.32
523.41	36825.99
523.58	36926.63
523.75	37542.19
523.92	37118.56
524.10	37226.22
524.27	37212.18
524.44	37521.13
524.61	37160.69
524.78	37390.06
524.96	37219.20
525.13	37773.91
525.30	37394.74
525.47	38059.45
525.64	37240.26
525.81	37614.75
525.98	37289.42
526.16	37361.97
526.33	37603.05
526.50	37699.01
526.67	37172.39
526.84	37460.27
527.01	37345.59
527.18	37397.08
527.36	38099.24
527.53	38204.56
527.70	38513.52
527.87	38288.82
528.04	38387.13
528.21	38417.55
528.38	38614.16
528.55	38532.24
528.72	38752.25
528.89	38895.02
529.07	38628.20
529.24	38707.78
529.41	38623.52
529.58	38614.16
529.75	38611.82
529.92	39337.38
530.09	38937.15
530.26	39636.97
530.43	39077.58
530.60	39110.35
530.77	39337.38
530.94	39585.48
531.11	39648.68
531.28	39297.59
531.46	39381.85
531.63	39536.33
531.80	39335.04
531.97	39323.34
532.14	39409.94
532.31	38948.85
532.48	39445.05
532.65	39487.18
532.82	39955.29
532.99	40055.93
533.16	39421.64
533.33	39814.85
533.50	40612.98
533.67	39945.92
533.84	40165.93
534.01	40055.93
534.18	39934.22
534.35	40034.86
534.52	40320.41
534.69	40175.30
534.86	40645.74
535.03	40444.46
535.20	41027.25
535.37	40790.86
535.54	40868.09
535.71	40634.04
535.88	40432.75
536.05	40470.20
536.22	40690.21
536.38	40631.70
536.55	40708.94
536.72	41097.47
536.89	40774.47
537.06	40907.88
537.23	41244.92
537.40	41097.47
537.57	41071.72
537.74	41249.60
537.91	41205.13
538.08	41137.26
538.25	40807.24
538.42	41441.53
538.59	41413.44
538.75	41291.73
538.92	41034.27
539.09	41270.67
539.26	41773.88
539.43	41429.82
539.60	41434.50
539.77	41177.04
539.94	40917.25
540.11	41062.36
540.28	41687.28
540.44	41563.23
540.61	41617.07
540.78	41308.11
540.95	41914.31
541.12	41361.95
541.29	41251.94
541.46	41853.46
541.62	41961.12
541.79	42176.45
541.96	41413.44
542.13	41696.64
542.30	41977.51
542.47	42110.92
542.63	41984.53
542.80	42600.09
542.97	42471.36
543.14	42663.28
543.31	42822.44
543.48	42536.90
543.64	43014.37
543.81	42878.61
543.98	42831.80
544.15	43187.56
544.32	42923.08
544.48	43072.88
544.65	43131.39
544.82	42820.10
544.99	42436.25
545.16	42958.19
545.32	42902.02
545.49	43445.02
545.66	43452.05
545.83	43482.47
546.00	43318.64
546.16	43267.14
546.33	43463.75
546.50	42532.22
546.67	42831.80
546.83	43138.41
547.00	43288.21
547.17	43227.35
547.34	43278.85
547.50	43442.68
547.67	43384.17
547.84	43393.53
548.00	43889.73
548.17	43742.27
548.34	43686.10
548.51	44081.65
548.67	43969.30
548.84	43847.60
549.01	43828.87
549.18	43945.90
549.34	43461.41
549.51	44091.01
549.68	43871.00
549.84	44013.77
550.01	44308.68
550.18	43847.60
550.34	43753.97
550.51	44161.23
550.68	43957.60
550.84	43529.28
551.01	44353.15
551.18	44273.57
551.34	44222.08
551.51	44463.16
551.68	44397.62
551.84	44217.40
552.01	43878.02
552.18	43957.60
552.34	44034.84
552.51	44334.43
552.68	44308.68
552.84	44343.79
553.01	44421.03
553.18	44479.54
553.34	43997.39
553.51	43931.86
553.67	44566.14
553.84	44697.21
554.01	44404.64
554.17	44849.35
554.34	44411.67
554.51	44694.87
554.67	45226.17
554.84	45191.06
555.00	44961.69
555.17	44847.00
555.33	44538.05
555.50	44444.43
555.67	44514.65
555.83	44722.96
556.00	44725.30
556.16	45181.70
556.33	45162.98
556.50	44739.34
556.66	44458.48
556.83	44194.00
556.99	45219.15
557.16	45382.99
557.32	45492.99
557.49	45525.76
557.65	44821.26
557.82	45118.51
557.98	45305.75
558.15	45027.23
558.32	45160.64
558.48	45216.81
558.65	44999.14
558.81	44797.85
558.98	44608.27
559.14	44854.03
559.31	45120.85
559.47	45518.74
559.64	45764.49
559.80	45305.75
559.97	45303.41
560.13	44837.64
560.30	45104.46
560.46	45504.70
560.63	45640.45
560.79	45605.34
560.96	45251.92
561.12	45600.66
561.29	45048.29
561.45	45357.24
561.61	44999.14
561.78	45790.24
561.94	45198.09
562.11	45490.65
562.27	44938.29
562.44	45336.18
562.60	45123.19
562.77	45734.07
562.93	45507.04
563.10	45600.66
563.26	45240.21
563.42	45823.01
563.59	45312.77
563.75	45483.63
563.92	45769.18
564.08	45455.54
564.24	45801.94
564.41	45652.15
564.57	45373.63
564.74	45666.19
564.90	45933.01
565.07	45879.18
565.23	45687.26
565.39	45792.58
565.56	45322.13
565.72	45315.11
565.88	45722.37
566.05	45537.46
566.21	45521.08
566.38	45724.71
566.54	46031.32
566.70	46167.07
566.87	46010.25
567.03	45563.21
567.19	46349.63
567.36	45336.18
567.52	46117.92
567.68	46342.61
567.85	45727.05
568.01	45724.71
568.17	45406.39
568.34	45738.75
568.50	45773.86
568.66	46312.18
568.83	45942.38
568.99	45783.22
569.15	45844.07
569.32	46078.13
569.48	45502.35
569.64	46040.68
569.81	45579.59
569.97	46092.17
570.13	46024.29
570.30	45701.30
570.46	45567.89
570.62	45558.53
570.78	45621.72
570.95	45455.54
571.11	45642.79
571.27	45975.14
571.43	45785.56
571.60	45626.40
571.76	45991.53
571.92	46092.17
572.09	45532.78
572.25	45614.70
572.41	45610.02
572.57	46094.51
572.74	46199.83
572.90	46309.84
573.06	45998.55
573.22	46246.65
573.38	45872.16
573.55	45914.29
573.71	46525.17
573.87	46476.02
574.03	46129.62
574.20	45989.19
574.36	45652.15
574.52	46321.54
574.68	46260.69
574.84	46157.70
575.01	46284.09
575.17	45933.01
575.33	45535.12
575.49	45705.98
575.65	45865.14
575.82	46075.79
575.98	45984.51
576.14	46312.18
576.30	46143.66
576.46	46366.01
576.62	46143.66
576.79	46012.59
576.95	45825.35
577.11	46319.20
577.27	46036.00
577.43	45933.01
577.59	46075.79
577.75	45869.82
577.92	45736.41
578.08	45507.04
578.24	45958.76
578.40	45797.26
578.56	45949.40
578.72	46068.76
578.88	46431.55
579.04	46131.96
579.21	45937.69
579.37	46103.87
579.53	46476.02
579.69	45954.08
579.85	46384.74
580.01	46445.59
580.17	45942.38
580.33	46068.76
580.49	46218.56
580.65	45897.91
580.82	46031.32
580.98	46005.57
581.14	45755.13
581.30	46328.56
581.46	46529.85
581.62	46389.42
581.78	46199.83
581.94	46656.24
582.10	46150.68
582.26	45998.55
582.42	46330.90
582.58	46277.07
582.74	46146.00
582.90	46181.11
583.06	46571.98
583.22	46508.79
583.38	46155.36
583.54	46094.51
583.70	46438.57
583.86	46356.65
584.02	46120.26
584.18	46326.22
584.34	46351.97
584.50	46197.49
584.66	46307.50
584.82	46169.41
584.98	46651.56
585.14	46717.09
585.30	46384.74
585.46	46047.70
585.62	46146.00
585.78	46232.60
585.94	45984.51
586.10	46246.65
586.26	46124.94
586.42	46445.59
586.58	46263.03
586.74	46361.33
586.90	46143.66
587.06	46073.45
587.22	46576.66
587.38	45848.75
587.54	46263.03
587.70	46485.38
587.86	46284.09
588.02	46466.66
588.18	46274.73
588.34	46272.39
588.49	45895.56
588.65	45368.94
588.81	45684.92
588.97	45818.33
589.13	45815.99
589.29	45935.35
589.45	46204.52
589.61	46082.81
589.77	46216.22
589.93	46302.82
590.08	46511.13
590.24	46131.96
590.40	46934.76
590.56	46653.90
590.72	46527.51
590.88	45698.96
591.04	46232.60
591.20	46398.78
591.35	46412.82
591.51	46824.76
591.67	46314.52
591.83	46426.87
591.99	46089.83
592.15	46064.08
592.31	46358.99
592.46	46237.28
592.62	46094.51
592.78	46431.55
592.94	46398.78
593.10	46623.47
593.26	46394.10
593.41	46848.16
593.57	46447.93
593.73	46693.69
593.89	46665.60
594.05	46408.14
594.20	46295.80
594.36	46918.38
594.52	46363.67
594.68	46050.04
594.84	45916.63
594.99	46703.05
595.15	46417.50
595.31	46206.86
595.47	46256.01
595.62	46476.02
595.78	46270.05
595.94	46768.58
596.10	46471.34
596.25	46969.87
596.41	46546.23
596.57	46689.01
596.73	46719.43
596.88	46171.75
597.04	46464.32
597.20	46274.73
597.36	46138.98
597.51	47040.09
597.67	46560.28
597.83	46593.04
597.99	46569.64
598.14	46288.77
598.30	46485.38
598.46	46508.79
598.61	46494.74
598.77	46106.21
598.93	46028.98
599.09	46335.59
599.24	46944.12
599.40	46557.94
599.56	46143.66
599.71	46541.55
599.87	46808.37
600.03	46344.95
600.18	46707.73
600.34	46490.06
600.50	46340.27
600.65	46396.44
600.81	46579.00
600.97	46677.30
601.12	46843.48
601.28	46506.44
601.44	46529.85
601.59	46469.00
601.75	45993.87
601.91	46618.79
602.06	46188.13
602.22	46674.96
602.37	46281.75
602.53	46258.35
602.69	46595.38
602.84	46115.58
603.00	46443.25
603.16	46469.00
603.31	46415.16
603.47	46571.98
603.62	46579.00
603.78	47107.96
603.94	46429.21
604.09	46749.86
604.25	46356.65
604.40	46000.89
604.56	46696.03
604.71	46564.96
604.87	46073.45
605.03	46749.86
605.18	46340.27
605.34	46143.66
605.49	46150.68
605.65	46384.74
605.80	45933.01
605.96	46787.31
606.12	46387.08
606.27	46766.24
606.43	46038.34
606.58	46419.84
606.74	45993.87
606.89	46351.97
607.05	46405.80
607.20	46270.05
607.36	46206.86
607.51	46284.09
607.67	46138.98
607.82	46307.50
607.98	45972.80
608.13	45762.15
608.29	45591.30
608.44	45380.65
608.60	45801.94
608.75	45729.39
608.91	45998.55
609.06	45752.79
609.22	46476.02
609.37	45766.84
609.53	45958.76
609.68	45986.85
609.84	45970.46
609.99	45743.43
610.15	45886.20
610.30	45633.42
610.46	45462.57
610.61	45951.74
610.76	45640.45
610.92	46050.04
611.07	46384.74
611.23	45993.87
611.38	45605.34
611.54	45720.02
611.69	45666.19
611.84	45687.26
612.00	45537.46
612.15	45478.95
612.31	45427.46
612.46	45539.80
612.62	45883.86
612.77	45897.91
612.92	45839.39
613.08	45532.78
613.23	45530.44
613.39	44942.97
613.54	45116.17
613.69	45530.44
613.85	45392.35
614.00	45326.81
614.15	45837.05
614.31	45099.78
614.46	45436.82
614.62	45593.64
614.77	45453.20
614.92	45500.01
615.08	45127.87
615.23	44247.83
615.38	45191.06
615.54	44790.83
615.69	45485.97
615.84	45052.97
616.00	45408.73
616.15	44996.80
616.30	45132.55
616.46	44875.09
616.61	44706.57
616.76	44643.38
616.92	44460.82
617.07	44453.79
617.22	44524.01
617.37	44762.75
617.53	44898.50
617.68	45146.59
617.83	44837.64
617.99	44547.42
618.14	45041.27
618.29	44884.45
618.45	44545.08
618.60	44629.34
618.75	44814.24
618.90	44720.62
619.06	44711.25
619.21	44683.17
619.36	44975.73
619.51	44772.11
619.67	44540.39
619.82	44425.71
619.97	44837.64
620.12	44355.49
620.28	44062.93
620.43	44402.30
620.58	44673.81
620.73	44058.24
620.89	44147.18
621.04	44868.07
621.19	44514.65
621.34	44287.62
621.49	43971.64
621.65	44208.04
621.80	44416.35
621.95	43622.90
622.10	44289.96
622.25	43831.21
622.41	43555.03
622.56	44198.68
622.71	44500.61
622.86	43929.51
623.01	44053.56
623.16	44128.46
623.32	43768.02
623.47	44027.82
623.62	43793.76
623.77	44074.63
623.92	44067.61
624.07	43798.44
624.23	43536.30
624.38	43639.29
624.53	43739.93
624.68	43400.55
624.83	43545.67
624.98	43548.01
625.13	42829.46
625.29	43550.35
625.44	43393.53
625.59	43143.09
625.74	42986.28
625.89	43091.60
626.04	43077.56
626.19	43093.94
626.34	43026.07
626.49	43517.58
626.65	43330.34
626.80	43379.49
626.95	43117.35
627.10	43187.56
627.25	42946.49
627.40	43049.47
627.55	42700.73
627.70	42218.58
627.85	42478.38
628.00	42845.85
628.15	43145.44
628.30	42897.34
628.45	43126.71
628.60	42937.13
628.76	42955.85
628.91	42583.71
629.06	42579.03
629.21	42513.49
629.36	42337.95
629.51	42504.13
629.66	42293.48
629.81	42101.56
629.96	42497.11
630.11	42525.19
630.26	42370.72
630.41	42904.36
630.56	42443.27
630.71	42279.44
630.86	42337.95
631.01	42263.05
631.16	42295.82
631.31	42181.13
631.46	41794.95
631.61	42515.83
631.76	41862.82
631.91	42040.70
632.06	41675.58
632.21	42263.05
632.36	42644.56
632.51	42089.85
632.66	41694.30
632.81	41329.18
632.96	41752.82
633.10	41888.57
633.25	42316.89
633.40	42305.18
633.55	42171.77
633.70	41940.06
633.85	42047.72
634.00	41675.58
634.15	41965.81
634.30	41551.53
634.45	41759.84
634.60	41794.95
634.75	41315.14
634.90	41638.13
635.05	41844.10
635.19	41624.09
635.34	42005.59
635.49	41560.89
635.64	41556.21
635.79	41453.23
635.94	41270.67
636.09	41383.01
636.24	41364.29
636.39	41345.56
636.53	41287.05
636.68	41427.48
636.83	41584.30
636.98	41053.00
637.13	41017.89
637.28	41282.37
637.43	41872.18
637.57	41504.72
637.72	41294.07
637.87	41097.47
638.02	41193.43
638.17	41469.61
638.32	41404.08
638.46	41027.25
638.61	41029.59
638.76	40886.82
638.91	41078.74
639.06	40989.80
639.20	41354.93
639.35	41263.64
639.50	40872.78
639.65	41350.24
639.80	41010.87
639.94	40435.10
640.09	40437.44
640.24	40622.34
640.39	40357.86
640.54	40308.71
640.68	40652.76
640.83	40512.33
640.98	40254.87
641.13	40418.71
641.27	40783.83
641.42	40336.79
641.57	40481.91
641.72	40229.13
641.86	40123.80
642.01	40442.12
642.16	40133.17
642.31	39948.26
642.45	40385.94
642.60	40187.00
642.75	40456.16
642.90	40360.20
643.04	40039.54
643.19	39791.45
643.34	40313.39
643.48	39721.23
643.63	39810.17
643.78	39660.38
643.93	39969.33
644.07	39552.71
644.22	40069.97
644.37	39952.94
644.51	39866.34
644.66	39737.62
644.81	39948.26
644.95	40399.99
645.10	39737.62
645.25	39985.71
645.39	39922.52
645.54	40065.29
645.69	39484.84
645.83	39604.20
645.98	39627.61
646.13	39653.36
646.27	39351.43
646.42	39571.44
646.57	39428.66
646.71	39543.35
646.86	39798.47
647.00	39164.18
647.15	39468.45
647.30	39466.11
647.44	39669.74
647.59	39246.10
647.74	39700.17
647.88	39428.66
648.03	39519.95
648.17	39585.48
648.32	38934.81
648.47	38981.62
648.61	38983.96
648.76	39358.45
648.90	38920.77
649.05	39035.45
649.20	39196.95
649.34	38974.60
649.49	39070.56
649.63	39225.04
649.78	38813.10
649.92	38864.60
650.07	38855.23
650.21	38478.41
650.36	38796.72
650.51	39225.04
650.65	39576.12
650.80	39686.12
650.94	39110.35
651.09	38724.16
651.23	39030.77
651.38	38761.61
651.52	38653.95
651.67	38611.82
651.81	38298.19
651.96	38153.07
652.10	38927.79
652.25	38239.67
652.39	38766.29
652.54	39042.48
652.68	38801.40
652.83	38602.46
652.97	38686.71
653.12	38473.73
653.26	38658.63
653.41	38401.17
653.55	38204.56
653.70	38850.55
653.84	38628.20
653.99	37998.60
654.13	38057.11
654.27	38281.80
654.42	37961.15
654.56	38162.43
654.71	38284.14
654.85	37855.82
655.00	38415.21
655.14	37771.57
655.29	37886.25
655.43	37879.23
655.57	37413.46
655.72	37486.02
655.86	37193.45
656.01	37397.08
656.15	37205.16
656.30	37738.80
656.44	37462.61
656.58	37282.39
656.73	37193.45
656.87	37572.62
657.01	37612.41
657.16	37516.45
657.30	37345.59
657.45	37074.09
657.59	37352.61
657.73	37596.03
657.88	37844.12
658.02	37563.26
658.16	37888.59
658.31	37645.18
658.45	37301.12
658.60	37282.39
658.74	37270.69
658.88	37275.37
659.03	37083.45
659.17	37359.63
659.31	37022.59
659.46	37310.48
659.60	37022.59
659.74	37071.75
659.89	36727.69
660.03	36720.66
660.17	36921.95
660.32	36882.16
660.46	37008.55
660.60	36758.11
660.74	36643.43
660.89	36893.86
661.03	36416.40
661.17	36449.16
661.32	35997.44
661.46	36823.65
661.60	36163.62
661.74	36498.31
661.89	36669.17
662.03	36334.48
662.17	35772.75
662.31	36608.32
662.46	36428.10
662.60	36390.65
662.74	36088.72
662.88	35945.95
663.03	36023.19
663.17	35964.67
663.31	35805.52
663.45	35480.18
663.60	35744.66
663.74	35938.93
663.88	36072.34
664.02	35470.82
664.17	35693.17
664.31	35594.87
664.45	35491.88
664.59	35496.56
664.73	35407.62
664.88	35241.45
665.02	35489.54
665.16	35056.54
665.30	34850.58
665.44	35028.46
665.59	34913.77
665.73	34700.78
665.87	34796.74
666.01	34962.92
666.15	34913.77
666.29	35358.47
666.44	34986.33
666.58	34899.73
666.72	34604.82
666.86	34712.49
667.00	34824.83
667.14	34581.42
667.28	34398.85
667.43	34499.50
667.57	34565.03
667.71	34022.03
667.85	34611.84
667.99	33984.58
668.13	34176.50
668.27	34188.21
668.41	34642.27
668.56	34134.37
668.70	33949.47
668.84	34167.14
668.98	33434.55
669.12	33645.20
669.26	33773.93
669.40	33338.59
669.54	33376.04
669.68	33640.52
669.82	33589.03
669.96	33191.14
670.10	33228.59
670.25	33493.07
670.39	33181.77
670.53	32671.54
670.67	33383.06
670.81	33390.08
670.95	33200.50
671.09	32980.49
671.23	32734.73
671.37	32783.88
671.51	32627.07
671.65	32699.62
671.79	32020.87
671.93	32627.07
672.07	32755.80
672.21	32631.75
672.35	32254.92
672.49	32577.92
672.63	32788.56
672.77	32275.99
672.91	32311.10
673.05	32004.49
673.19	31976.40
673.33	31920.23
673.47	31559.78
673.61	31765.75
673.75	31709.58
673.89	31632.34
674.03	31269.56
674.17	31674.47
674.31	31253.17
674.45	31302.32
674.59	31356.16
674.73	31695.53
674.87	31622.98
675.01	31281.26
675.15	30705.49
675.29	30845.92
675.43	30487.82
675.56	31194.66
675.70	31005.08
675.84	30506.54
675.98	29942.47
676.12	30754.64
676.26	30506.54
676.40	30398.88
676.54	30356.75
676.68	30541.65
676.82	29923.75
676.96	30003.33
677.10	30132.06
677.23	30064.18
677.37	29685.01
677.51	29802.04
677.65	29252.02
677.79	29156.05
677.93	29350.32
678.07	29216.91
678.21	28835.40
678.34	28980.51
678.48	28875.19
678.62	28774.55
678.76	28718.37
678.90	28561.56
679.04	28334.53
679.18	28374.31
679.31	28177.71
679.45	28257.29
679.59	27817.27
679.73	28051.32
679.87	27903.87
680.00	27805.56
680.14	28046.64
680.28	27737.69
680.42	27948.34
680.56	27866.42
680.70	27564.49
680.83	27840.67
680.97	27449.80
681.11	27424.06
681.25	27402.99
681.39	27456.82
681.52	27377.25
681.66	27129.15
681.80	27337.46
681.94	27220.43
682.07	26888.07
682.21	26787.43
682.35	26742.96
682.49	26749.98
682.62	26377.84
682.76	26499.55
682.90	26272.51
683.04	26607.21
683.17	26401.24
683.31	26010.37
683.45	25907.39
683.59	25731.85
683.72	25680.36
683.86	25575.03
684.00	25713.13
684.13	25783.34
684.27	25544.61
684.41	25233.32
684.55	25219.27
684.68	25235.66
684.82	25165.44
684.96	24971.18
685.09	24720.74
685.23	25041.39
685.37	24821.38
685.50	24807.34
685.64	24528.81
685.78	24577.97
685.91	24507.75
686.05	24416.47
686.19	23950.70
686.32	23917.93
686.46	23580.90
686.60	23545.79
686.73	23356.21
686.87	23190.03
687.01	23367.91
687.14	23367.91
687.28	23229.82
687.42	23206.41
687.55	23271.95
687.69	23075.34
687.82	22799.16
687.96	23213.43
688.10	23257.90
688.23	22492.55
688.37	22616.60
688.50	22391.91
688.64	22595.53
688.78	22555.74
688.91	22317.01
689.05	22504.25
689.18	22551.06
689.32	22040.82
689.46	22305.31
689.59	22010.40
689.73	22258.49
689.86	21867.63
690.00	21886.35
690.13	21715.49
690.27	21874.65
690.41	21516.54
690.54	21549.31
690.68	21315.26
690.81	21415.90
690.95	21371.43
691.08	21352.71
691.22	21214.62
691.35	21102.27
691.49	21467.39
691.62	21130.36
691.76	20891.62
691.89	21034.39
692.03	20893.96
692.16	20732.47
692.30	20594.37
692.43	20161.37
692.57	20336.91
692.70	20121.59
692.84	20119.24
692.97	20002.22
693.11	20278.40
693.24	19901.58
693.38	20067.75
693.51	19761.14
693.65	19831.36
693.78	19864.13
693.92	19864.13
694.05	19278.99
694.19	19276.65
694.32	19604.33
694.45	19089.41
694.59	18874.08
694.72	19068.34
694.86	18902.17
694.99	18939.62
695.13	18860.04
695.26	18761.73
695.39	18738.33
695.53	19000.47
695.66	18661.09
695.80	18548.75
695.93	18766.42
696.07	18277.24
696.20	18492.57
696.33	18218.73
696.47	18134.47
696.60	18026.81
696.73	17804.46
696.87	17919.14
697.00	18185.96
697.14	17642.96
697.27	17472.10
697.40	17816.16
697.54	17830.20
697.67	17329.33
697.80	17296.56
697.94	17334.01
698.07	17142.08
698.21	17184.21
698.34	16926.75
698.47	16762.92
698.61	16739.51
698.74	16807.39
698.87	16582.70
699.01	16350.98
699.14	16353.32
699.27	16355.66
699.40	16442.26
699.54	16100.55
699.67	16325.24
699.80	16322.90
699.94	16177.78
700.07	16020.97
700.20	15868.83
700.34	15983.52
700.47	15770.53
700.60	16257.36
700.73	16081.82
700.87	15866.49
701.00	15894.58
701.13	15543.50
701.26	15440.51
701.40	15482.64
701.53	15360.94
701.66	15339.87
701.79	15367.96
701.93	15304.76
702.06	15087.09
702.19	14937.30
702.32	14906.87
702.46	14815.59
702.59	14913.89
702.72	14965.39
702.85	14998.15
702.99	14932.62
703.12	14626.01
703.25	14452.81
703.38	14242.16
703.51	14546.43
703.65	14607.28
703.78	14382.59
703.91	14235.14
704.04	14389.61
704.17	14185.99
704.31	14349.82
704.44	13926.19
704.57	14066.62
704.70	13956.61
704.83	13844.27
704.96	13715.54
705.10	13738.94
705.23	13666.39
>>>>>End Processed Spectral Data<<<<<
