SpectraSuite Data File
++++++++++++++++++++++++++++++++++++
Date: Fri Oct 25 11:33:09 EDT 2013
User: price-jones
Dark Spectrum Present: No
Reference Spectrum Present: No
Number of Sampled Component Spectra: 1
Spectrometers: USB2+H05261
Integration Time (usec): 100000 (USB2+H05261)
Spectra Averaged: 1 (USB2+H05261)
Boxcar Smoothing: 0 (USB2+H05261)
Correct for Electrical Dark: No (USB2+H05261)
Strobe/Lamp Enabled: No (USB2+H05261)
Correct for Detector Non-linearity: No (USB2+H05261)
Correct for Stray Light: No (USB2+H05261)
Number of Pixels in Processed Spectrum: 2048
>>>>>Begin Processed Spectral Data<<<<<
365.73	327.68
365.92	327.68
366.12	327.68
366.32	175.54
366.52	191.92
366.72	196.60
366.91	173.20
367.11	163.84
367.31	152.13
367.51	187.24
367.70	121.71
367.90	156.82
368.10	203.63
368.30	163.84
368.49	215.33
368.69	196.60
368.89	145.11
369.09	189.58
369.28	241.08
369.48	180.22
369.68	163.84
369.87	229.37
370.07	222.35
370.27	278.52
370.47	311.29
370.66	484.49
370.86	479.81
371.06	573.43
371.25	573.43
371.45	519.60
371.65	550.03
371.84	578.11
372.04	596.84
372.24	636.63
372.44	638.97
372.63	641.31
372.83	592.16
373.03	620.24
373.22	524.28
373.42	594.50
373.62	543.00
373.81	655.35
374.01	634.29
374.21	622.58
374.40	690.46
374.60	678.76
374.79	774.72
374.99	704.50
375.19	699.82
375.38	662.37
375.58	678.76
375.78	606.20
375.97	697.48
376.17	720.88
376.37	695.14
376.56	723.23
376.76	699.82
376.95	723.23
377.15	685.78
377.35	692.80
377.54	702.16
377.74	753.65
377.93	664.71
378.13	641.31
378.33	683.44
378.52	725.57
378.72	727.91
378.91	674.07
379.11	690.46
379.31	711.52
379.50	763.01
379.70	741.95
379.89	795.78
380.09	751.31
380.28	718.54
380.48	706.84
380.68	730.25
380.87	791.10
381.07	727.91
381.26	781.74
381.46	751.31
381.65	837.91
381.85	816.85
382.04	807.48
382.24	786.42
382.43	676.41
382.63	720.88
382.83	751.31
383.02	837.91
383.22	791.10
383.41	849.61
383.61	784.08
383.80	758.33
384.00	891.74
384.19	788.76
384.39	730.25
384.58	847.27
384.78	816.85
384.97	828.55
385.17	807.48
385.36	844.93
385.56	814.51
385.75	812.17
385.95	795.78
386.14	889.40
386.34	922.17
386.53	940.90
386.72	910.47
386.92	816.85
387.11	882.38
387.31	882.38
387.50	964.30
387.70	929.19
387.89	903.45
388.09	910.47
388.28	978.34
388.48	887.06
388.67	903.45
388.86	891.74
389.06	926.85
389.25	957.28
389.45	903.45
389.64	943.24
389.84	961.96
390.03	910.47
390.22	983.02
390.42	915.15
390.61	912.81
390.81	983.02
391.00	959.62
391.19	999.41
391.39	912.81
391.58	1043.88
391.78	952.60
391.97	1008.77
392.16	1011.11
392.36	1011.11
392.55	1029.84
392.75	997.07
392.94	1060.26
393.13	1086.01
393.33	997.07
393.52	1071.97
393.71	1095.37
393.91	1111.75
394.10	1083.67
394.29	1123.46
394.49	1102.39
394.68	1142.18
394.88	1128.14
395.07	1139.84
395.26	1282.61
395.46	1235.80
395.65	1207.72
395.84	1228.78
396.04	1261.55
396.23	1205.38
396.42	1214.74
396.62	1191.33
396.81	1252.19
397.00	1214.74
397.19	1214.74
397.39	1277.93
397.58	1228.78
397.77	1142.18
397.97	1315.38
398.16	1329.42
398.35	1289.64
398.55	1275.59
398.74	1308.36
398.93	1320.06
399.12	1348.15
399.32	1240.48
399.51	1392.62
399.70	1352.83
399.90	1355.17
400.09	1357.51
400.28	1392.62
400.47	1364.53
400.67	1488.58
400.86	1380.92
401.05	1462.83
401.24	1479.22
401.44	1439.43
401.63	1521.35
401.82	1481.56
402.01	1420.71
402.21	1476.88
402.40	1430.07
402.59	1540.07
402.78	1455.81
402.97	1528.37
403.17	1544.75
403.36	1483.90
403.55	1528.37
403.74	1624.33
403.93	1563.48
404.13	1633.69
404.32	1598.59
404.51	1600.93
404.70	1629.01
404.89	1549.43
405.09	1694.55
405.28	1753.06
405.47	1717.95
405.66	1701.57
405.85	1727.32
406.05	1629.01
406.24	1764.76
406.43	1675.82
406.62	1720.29
406.81	1771.79
407.00	1778.81
407.20	1776.47
407.39	1865.41
407.58	1930.94
407.77	1851.36
407.96	1849.02
408.15	1851.36
408.34	1846.68
408.54	1930.94
408.73	1949.67
408.92	1970.73
409.11	1963.71
409.30	2019.88
409.49	2033.93
409.68	1984.77
409.87	2118.18
410.07	2066.69
410.26	2146.27
410.45	2129.89
410.64	2047.97
410.83	2167.34
411.02	2118.18
411.21	2176.70
411.40	2223.51
411.59	2209.47
411.78	2214.15
411.98	2132.23
412.17	2183.72
412.36	2286.70
412.55	2333.51
412.74	2326.49
412.93	2415.43
413.12	2399.05
413.31	2370.96
413.50	2424.80
413.69	2263.30
413.88	2525.44
414.07	2502.03
414.26	2583.95
414.45	2464.58
414.64	2576.93
414.83	2649.49
415.02	2539.48
415.22	2658.85
415.41	2548.84
415.60	2651.83
415.79	2633.10
415.98	2621.40
416.17	2693.96
416.36	2738.43
416.55	2745.45
416.74	2740.77
416.93	2766.51
417.12	2864.82
417.31	2867.16
417.50	2892.90
417.69	2974.82
417.88	2925.67
418.07	2956.10
418.26	2967.80
418.45	2885.88
418.64	3080.14
418.83	3021.63
419.02	2993.55
419.21	3241.64
419.39	3155.04
419.58	3026.31
419.77	3112.91
419.96	3171.43
420.15	3143.34
420.34	3173.77
420.53	3131.64
420.72	3236.96
420.91	3260.37
421.10	3365.69
421.29	3272.07
421.48	3251.00
421.67	3309.52
421.86	3365.69
422.05	3400.80
422.24	3475.70
422.43	3426.54
422.61	3438.25
422.80	3391.44
422.99	3353.99
423.18	3538.89
423.37	3517.83
423.56	3529.53
423.75	3473.36
423.94	3295.47
424.13	3157.38
424.32	3337.60
424.50	3463.99
424.69	3510.80
424.88	3658.26
425.07	3433.57
425.26	3463.99
425.45	3468.67
425.64	3506.12
425.83	3480.38
426.01	3492.08
426.20	3379.73
426.39	3566.98
426.58	3548.25
426.77	3473.36
426.96	3581.02
427.15	3569.32
427.33	3602.08
427.52	3508.46
427.71	3480.38
427.90	3662.94
428.09	3644.21
428.28	3786.99
428.46	3784.65
428.65	3705.07
428.84	3859.54
429.03	3775.28
429.22	3691.02
429.40	3712.09
429.59	3721.45
429.78	3611.45
429.97	3667.62
430.16	3808.05
430.34	3985.93
430.53	4042.11
430.72	3850.18
430.91	3861.88
431.10	3747.20
431.28	3990.61
431.47	4037.42
431.66	3906.35
431.85	3836.14
432.03	4119.34
432.22	4159.13
432.41	3964.87
432.60	4093.60
432.79	4039.76
432.97	4140.41
433.16	4236.37
433.35	4067.85
433.54	4124.02
433.72	4168.49
433.91	4086.58
434.10	4140.41
434.28	4334.67
434.47	4381.48
434.66	4386.16
434.85	4257.43
435.03	4271.48
435.22	4456.38
435.41	4547.66
435.59	4320.63
435.78	4416.59
435.97	4482.13
436.16	4507.87
436.34	4381.48
436.53	4454.04
436.72	4475.10
436.90	4379.14
437.09	4470.42
437.28	4496.17
437.46	4475.10
437.65	4669.37
437.84	4571.07
438.02	4596.81
438.21	4468.08
438.40	4674.05
438.58	4695.11
438.77	4891.72
438.96	4676.39
439.14	4858.95
439.33	4940.87
439.52	4896.40
439.70	4908.10
439.89	5130.45
440.08	5132.79
440.26	4990.02
440.45	5132.79
440.63	5004.07
440.82	5156.20
441.01	5088.32
441.19	5247.48
441.38	5348.12
441.57	5345.78
441.75	5259.18
441.94	5416.00
442.12	5394.93
442.31	5343.44
442.50	5504.94
442.68	5406.64
442.87	5467.49
443.05	5614.95
443.24	5640.69
443.43	5584.52
443.61	5558.77
443.80	5774.10
443.98	5659.42
444.17	5387.91
444.35	5603.24
444.54	5652.39
444.73	5561.11
444.91	5530.69
445.10	5612.60
445.28	5664.10
445.47	5799.85
445.65	5678.14
445.84	5673.46
446.02	5720.27
446.21	5722.61
446.39	5696.86
446.58	5870.06
446.77	5762.40
446.95	5710.91
447.14	5851.34
447.32	5757.72
447.51	5989.43
447.69	5942.62
447.88	5893.47
448.06	5940.28
448.25	5823.25
448.43	5722.61
448.62	5720.27
448.80	5802.19
448.99	6083.05
449.17	6066.67
449.36	5799.85
449.54	6003.47
449.73	6087.73
449.91	6083.05
450.10	6092.41
450.28	6031.56
450.46	6263.27
450.65	6211.78
450.83	6174.33
451.02	6120.50
451.20	6342.85
451.39	6277.32
451.57	6260.93
451.76	6120.50
451.94	6319.45
452.13	6305.40
452.31	6345.19
452.49	5980.07
452.68	6384.98
452.86	6441.15
453.05	6616.69
453.23	6389.66
453.42	6459.88
453.60	6490.31
453.78	6530.09
453.97	6389.66
454.15	6530.09
454.34	6396.68
454.52	6623.72
454.70	6607.33
454.89	6558.18
455.07	6670.53
455.26	6733.72
455.44	6773.51
455.62	6628.40
455.81	6813.30
455.99	6871.81
456.17	6782.87
456.36	6930.33
456.54	6932.67
456.73	7089.48
456.91	7021.61
457.09	7026.29
457.28	7061.40
457.46	7030.97
457.64	7122.25
457.83	7152.68
458.01	7138.63
458.19	7295.45
458.38	7232.26
458.56	7201.83
458.74	7311.83
458.93	7396.09
459.11	7351.62
459.29	7148.00
459.48	7405.46
459.66	7316.51
459.84	7609.08
460.03	7524.82
460.21	7403.11
460.39	7342.26
460.57	7370.35
460.76	7428.86
460.94	7503.76
461.12	7632.49
461.31	7431.20
461.49	7660.57
461.67	7545.89
461.85	7658.23
462.04	7611.42
462.22	7943.78
462.40	8023.36
462.59	7719.09
462.77	7679.30
462.95	7817.39
463.13	7646.53
463.32	7744.83
463.50	7990.59
463.68	8049.10
463.86	7957.82
464.05	7791.64
464.23	8035.06
464.41	8156.77
464.59	7894.63
464.78	8154.43
464.96	8042.08
465.14	7969.52
465.32	8168.47
465.50	8269.11
465.69	8189.53
465.87	8156.77
466.05	8021.02
466.23	8294.86
466.41	8175.49
466.60	8283.16
466.78	8336.99
466.96	8259.75
467.14	8273.79
467.32	8624.87
467.51	8329.97
467.69	8549.98
467.87	8397.84
468.05	8535.93
468.23	8446.99
468.41	8365.07
468.60	8585.08
468.78	8727.86
468.96	8369.76
469.14	8669.34
469.32	8772.33
469.50	8491.46
469.69	8519.55
469.87	8872.97
470.05	8901.06
470.23	8865.95
470.41	8842.54
470.59	9011.06
470.77	9137.45
470.95	8865.95
471.14	9057.87
471.32	8814.46
471.50	9025.11
471.68	9074.26
471.86	9069.58
472.04	9172.56
472.22	9493.21
472.40	9132.77
472.58	9490.87
472.77	9430.02
472.95	9387.89
473.13	9760.03
473.31	9565.77
473.49	9617.26
473.67	9469.81
473.85	9605.56
474.03	9710.88
474.21	9635.99
474.39	9776.42
474.57	9921.53
474.75	10143.88
474.93	10246.87
475.12	10026.86
475.30	9942.60
475.48	10101.75
475.66	10214.10
475.84	10345.17
476.02	10457.51
476.20	10284.31
476.38	10665.82
476.56	10595.61
476.74	10672.84
476.92	10672.84
477.10	10630.71
477.28	10773.49
477.46	10829.66
477.64	10920.94
477.82	11000.52
478.00	11269.68
478.18	11201.80
478.36	11389.05
478.54	11639.48
478.72	11358.62
478.90	11698.00
479.08	11796.30
479.26	11761.19
479.44	11836.09
479.62	11896.94
479.80	11960.14
479.98	11964.82
480.16	12358.03
480.34	12278.45
480.52	12456.33
480.70	12386.12
480.88	12248.02
481.06	12795.71
481.24	12411.86
481.41	12552.29
481.59	12793.37
481.77	13034.44
481.95	13050.83
482.13	13114.02
482.31	12980.61
482.49	13305.95
482.67	13504.89
482.85	13633.62
483.03	13696.82
483.21	13614.90
483.39	13895.76
483.57	13879.38
483.74	13862.99
483.92	14132.15
484.10	14066.62
484.28	14490.26
484.46	14544.09
484.64	14677.50
484.82	14387.27
485.00	15131.56
485.18	15215.82
485.35	15384.34
485.53	15087.09
485.71	15435.83
485.89	15602.01
486.07	15482.64
486.25	15733.08
486.43	15836.06
486.61	15831.38
486.78	15665.21
486.96	15964.79
487.14	16421.20
487.32	16257.36
487.50	16514.82
487.68	16641.21
487.85	16776.96
488.03	16903.35
488.21	17296.56
488.39	17067.19
488.57	17273.15
488.75	17130.38
488.92	17575.08
489.10	17612.53
489.28	17628.92
489.46	18352.14
489.64	17935.53
489.81	18394.27
489.99	18097.02
490.17	18530.02
490.35	18766.42
490.53	18794.50
490.70	18906.85
490.88	18948.98
491.06	19023.87
491.24	19012.17
491.41	19087.07
491.59	19515.39
491.77	19463.90
491.95	19627.73
492.13	19594.96
492.30	19688.59
492.48	19838.38
492.66	19964.77
492.84	19807.95
493.01	20198.82
493.19	20386.07
493.37	20519.48
493.54	20755.87
493.72	20884.60
493.90	21252.06
494.08	20915.03
494.25	21156.10
494.43	21120.99
494.61	21146.74
494.79	21530.59
494.96	21369.09
495.14	21806.77
495.32	21769.32
495.49	22251.47
495.67	22129.77
495.85	22199.98
496.02	22228.07
496.20	22551.06
496.38	22396.59
496.55	22590.85
496.73	22845.97
496.91	22759.37
497.09	23344.50
497.26	22930.23
497.44	22960.66
497.62	23288.33
497.79	23501.32
497.97	23365.57
498.14	23828.99
498.32	23859.42
498.50	23807.93
498.67	23864.10
498.85	23985.81
499.03	24294.76
499.20	24252.63
499.38	24369.66
499.56	24259.65
499.73	24807.34
499.91	24741.80
500.08	25394.81
500.26	24957.13
500.44	24683.29
500.61	25160.76
500.79	25053.09
500.97	25212.25
501.14	25790.36
501.32	25727.17
501.49	25579.71
501.67	25694.40
501.84	25799.73
502.02	25944.84
502.20	25689.72
502.37	26111.02
502.55	26314.64
502.72	26047.82
502.90	25891.01
503.07	26139.10
503.25	26384.86
503.43	26204.64
503.60	26459.76
503.78	26567.42
503.95	26672.74
504.13	27138.51
504.30	26803.82
504.48	27019.14
504.65	27557.47
504.83	27016.80
505.01	27501.29
505.18	27274.26
505.36	27751.73
505.53	27552.79
505.71	27473.21
505.88	27728.33
506.06	27580.87
506.23	27749.39
506.41	27833.65
506.58	28180.05
506.76	28051.32
506.93	28016.21
507.11	28489.00
507.28	28100.47
507.46	28671.56
507.63	28404.74
507.81	28627.09
507.98	28348.57
508.16	28561.56
508.33	28608.37
508.50	28945.41
508.68	29029.66
508.85	29404.15
509.03	29209.89
509.20	29413.51
509.38	29530.54
509.55	29752.89
509.73	29584.37
509.90	29434.58
510.08	29640.54
510.25	29968.22
510.42	29846.51
510.60	29942.47
510.77	29989.28
510.95	30436.33
511.12	29855.87
511.30	30199.93
511.47	30459.73
511.64	30298.23
511.82	30441.01
511.99	30541.65
512.17	30646.97
512.34	30787.41
512.51	30883.37
512.69	31023.80
512.86	31098.70
513.04	31297.64
513.21	31215.72
513.38	31501.27
513.56	31168.91
513.73	31672.13
513.90	31236.79
514.08	31232.11
514.25	32055.98
514.43	31974.06
514.60	32165.98
514.77	32025.55
514.95	31960.02
515.12	31810.22
515.29	31957.67
515.47	32613.02
515.64	32444.51
515.81	32020.87
515.99	32219.81
516.16	32767.50
516.33	32772.18
516.51	32992.19
516.68	32503.02
516.85	32816.65
517.03	33160.71
517.20	32996.87
517.37	32814.31
517.54	33268.37
517.72	32947.72
517.89	33237.95
518.06	32978.15
518.24	33326.89
518.41	33446.26
518.58	33254.33
518.75	33287.10
518.93	33582.01
519.10	33352.63
519.27	33888.62
519.45	34024.37
519.62	34202.25
519.79	34127.35
519.96	34103.95
520.14	33975.22
520.31	33860.53
520.48	34323.96
520.65	34251.40
520.83	34567.37
521.00	34653.97
521.17	34448.00
521.34	34871.64
521.52	34642.27
521.69	34934.84
521.86	35089.31
522.03	35037.82
522.20	35292.94
522.38	35276.55
522.55	35674.45
522.72	35622.95
522.89	35208.68
523.07	36091.06
523.24	35416.99
523.41	35625.29
523.58	35522.31
523.75	35894.46
523.92	35468.48
524.10	36037.23
524.27	36025.53
524.44	36065.31
524.61	36004.46
524.78	36418.74
524.96	36299.37
525.13	36128.51
525.30	36418.74
525.47	36524.06
525.64	36180.00
525.81	36854.08
525.98	36910.25
526.16	36297.03
526.33	36503.00
526.50	36954.72
526.67	36570.87
526.84	37296.44
527.01	37401.76
527.18	37392.40
527.36	37060.04
527.53	37188.77
527.70	37780.93
527.87	37825.40
528.04	37261.33
528.21	37336.23
528.38	37551.56
528.55	37305.80
528.72	37226.22
528.89	37460.27
529.07	37439.21
529.24	37469.64
529.41	37855.82
529.58	38190.52
529.75	37787.95
529.92	37841.78
530.09	38295.85
530.26	38398.83
530.43	38101.58
530.60	37893.27
530.77	38045.41
530.94	38199.88
531.11	38160.09
531.28	38274.78
531.46	38478.41
531.63	38291.16
531.80	38288.82
531.97	38455.00
532.14	38663.31
532.31	38422.23
532.48	38525.22
532.65	38951.20
532.82	38562.67
532.99	38756.93
533.16	39199.29
533.33	39192.27
533.50	39089.29
533.67	38827.15
533.84	38836.51
534.01	39428.66
534.18	38946.51
534.35	39365.47
534.52	39398.24
534.69	39990.39
534.86	39784.43
535.03	39789.11
535.20	39459.09
535.37	39971.67
535.54	39974.01
535.71	39852.30
535.88	40526.38
536.05	39545.69
536.22	40706.60
536.38	40079.33
536.55	39922.52
536.72	40048.91
536.89	40095.72
537.06	39880.39
537.23	40163.59
537.40	40156.57
537.57	40367.22
537.74	40055.93
537.91	40528.72
538.08	40598.93
538.25	40278.28
538.42	40847.03
538.59	40669.15
538.75	40566.16
538.92	41010.87
539.09	41097.47
539.26	40460.84
539.43	40690.21
539.60	41329.18
539.77	41109.17
539.94	41415.78
540.11	41287.05
540.28	41354.93
540.44	41261.30
540.61	41038.95
540.78	40879.80
540.95	41610.04
541.12	41027.25
541.29	41219.17
541.46	41254.28
541.62	41794.95
541.79	42017.30
541.96	41427.48
542.13	41673.24
542.30	41312.80
542.47	41659.20
542.63	41668.56
542.80	42057.09
542.97	42234.97
543.14	42501.79
543.31	42403.49
543.48	41839.42
543.64	42548.60
543.81	42494.77
543.98	42827.12
544.15	42546.26
544.32	42518.17
544.48	42801.38
544.65	42890.32
544.82	42284.12
544.99	42784.99
545.16	43442.68
545.32	42799.04
545.49	43000.32
545.66	43398.21
545.83	42752.23
546.00	42944.15
546.16	42843.51
546.33	42518.17
546.50	42700.73
546.67	43309.27
546.83	42873.93
547.00	43271.82
547.17	42660.94
547.34	43093.94
547.50	43456.73
547.67	43388.85
547.84	43564.39
548.00	43400.55
548.17	43756.32
548.34	43496.52
548.51	43702.48
548.67	43636.95
548.84	43510.56
549.01	43548.01
549.18	43817.17
549.34	44037.18
549.51	44121.44
549.68	43915.47
549.84	43615.88
550.01	44027.82
550.18	43693.12
550.34	43772.70
550.51	44128.46
550.68	43948.24
550.84	43810.15
551.01	44079.31
551.18	44285.28
551.34	43938.88
551.51	44542.74
551.68	44046.54
551.84	44472.52
552.01	43889.73
552.18	44425.71
552.34	44374.22
552.51	44027.82
552.68	44399.96
552.84	44369.54
553.01	44231.44
553.18	44425.71
553.34	45104.46
553.51	44430.39
553.67	44491.24
553.84	44732.32
554.01	44823.60
554.17	44858.71
554.34	44917.22
554.51	44872.75
554.67	45057.65
554.84	44980.42
555.00	44603.59
555.17	45315.11
555.33	44935.95
555.50	44886.79
555.67	45258.94
555.83	45361.92
556.00	45191.06
556.16	45778.54
556.33	45413.41
556.50	45343.20
556.66	45530.44
556.83	45092.76
556.99	44996.80
557.16	45652.15
557.32	45984.51
557.49	45661.51
557.65	45333.84
557.82	45736.41
557.98	45268.30
558.15	45092.76
558.32	46101.53
558.48	45574.91
558.65	45631.08
558.81	45694.28
558.98	45230.85
559.14	45727.05
559.31	45514.06
559.47	45844.07
559.64	45471.93
559.80	45975.14
559.97	45916.63
560.13	45897.91
560.30	45909.61
560.46	46295.80
560.63	46120.26
560.79	45963.44
560.96	45930.67
561.12	45610.02
561.29	46092.17
561.45	45949.40
561.61	45989.19
561.78	46115.58
561.94	46068.76
562.11	45771.52
562.27	46298.14
562.44	46120.26
562.60	46333.24
562.77	46347.29
562.93	45993.87
563.10	46349.63
563.26	46298.14
563.42	46787.31
563.59	46127.28
563.75	46473.68
563.92	46471.34
564.08	46110.89
564.24	46539.21
564.41	46422.19
564.57	46213.88
564.74	46117.92
564.90	46415.16
565.07	46457.29
565.23	46344.95
565.39	46314.52
565.56	46817.74
565.72	46363.67
565.88	46618.79
566.05	46588.36
566.21	46632.83
566.38	46635.17
566.54	46155.36
566.70	46581.34
566.87	46511.13
567.03	46658.58
567.19	46754.54
567.36	46834.12
567.52	46351.97
567.68	46944.12
567.85	46953.49
568.01	46976.89
568.17	46981.57
568.34	46461.97
568.50	46747.52
568.66	46618.79
568.83	46796.67
568.99	46902.00
569.15	46637.51
569.32	46965.19
569.48	46756.88
569.64	47353.72
569.81	46756.88
569.97	47337.33
570.13	47201.58
570.30	46955.83
570.46	46789.65
570.62	46953.49
570.78	46913.70
570.95	46630.49
571.11	46834.12
571.27	46806.03
571.43	46983.91
571.60	46960.51
571.76	46892.63
571.92	46909.02
572.09	46909.02
572.25	47466.06
572.41	46801.35
572.57	46946.47
572.74	47756.29
572.90	46913.70
573.06	47208.61
573.22	47421.59
573.38	47295.21
573.55	47442.66
573.71	47379.46
573.87	47061.15
574.03	47136.05
574.20	47709.48
574.36	47386.49
574.52	47435.64
574.68	47297.55
574.84	47320.95
575.01	47433.30
575.17	47533.94
575.33	47641.60
575.49	47210.95
575.65	47405.21
575.82	47402.87
575.98	46990.94
576.14	47791.40
576.30	47894.38
576.46	47524.58
576.62	47344.36
576.79	47526.92
576.95	47562.03
577.11	47019.02
577.27	47657.99
577.43	47412.23
577.59	47337.33
577.75	47559.69
577.92	47260.10
578.08	47599.47
578.24	47636.92
578.40	47585.43
578.56	47707.14
578.72	47372.44
578.88	47723.52
579.04	47323.29
579.21	47557.35
579.37	47449.68
579.53	47821.83
579.69	47063.49
579.85	47519.90
580.01	47454.36
580.17	47489.47
580.33	47224.99
580.49	47494.15
580.65	47817.14
580.82	47402.87
580.98	47276.48
581.14	47463.72
581.30	47873.32
581.46	47185.20
581.62	47459.04
581.78	47246.05
581.94	47566.71
582.10	47299.89
582.26	47466.06
582.42	47742.25
582.58	47676.71
582.74	47622.88
582.90	47796.08
583.06	47679.05
583.22	47721.18
583.38	47657.99
583.54	47875.66
583.70	47709.48
583.86	48020.77
584.02	48048.86
584.18	48032.47
584.34	47749.27
584.50	48048.86
584.66	47765.65
584.82	47332.65
584.98	47714.16
585.14	48224.40
585.30	47721.18
585.46	48114.39
585.62	47892.04
585.78	47892.04
585.94	47639.26
586.10	47531.60
586.26	47566.71
586.42	47210.95
586.58	47973.96
586.74	48025.45
586.90	47854.59
587.06	47751.61
587.22	48175.25
587.38	47950.56
587.54	48170.57
587.70	48144.82
587.86	48303.98
588.02	47976.30
588.18	47950.56
588.34	47948.21
588.49	48081.63
588.65	47590.11
588.81	47976.30
588.97	48119.07
589.13	47725.86
589.29	47929.49
589.45	48189.29
589.61	47714.16
589.77	48128.44
589.93	48088.65
590.08	48025.45
590.24	48210.35
590.40	48238.44
590.56	48362.49
590.72	48357.81
590.88	48023.11
591.04	48034.81
591.20	48493.56
591.35	48186.95
591.51	48329.72
591.67	48226.74
591.83	48554.41
591.99	48175.25
592.15	47779.70
592.31	47908.43
592.46	48467.81
592.62	48353.13
592.78	48006.73
592.94	48956.99
593.10	48460.79
593.26	48561.44
593.41	48636.33
593.57	48325.04
593.73	48430.36
593.89	48626.97
594.05	48736.98
594.20	48563.78
594.36	49078.69
594.52	48919.54
594.68	48339.08
594.84	48217.38
594.99	48533.35
595.15	48327.38
595.31	48802.51
595.47	48208.01
595.62	48470.15
595.78	48547.39
595.94	48573.14
596.10	48264.19
596.25	48666.76
596.41	48584.84
596.57	48219.72
596.73	48846.98
596.88	48935.92
597.04	48659.74
597.20	48870.39
597.36	48512.28
597.51	48538.03
597.67	48481.86
597.83	48421.00
597.99	48699.53
598.14	48769.74
598.30	48570.80
598.46	48631.65
598.61	48708.89
598.77	48535.69
598.93	48905.49
599.09	48247.80
599.24	48601.22
599.40	48886.77
599.56	48797.83
599.71	49148.91
599.87	49174.66
600.03	48809.53
600.18	48734.63
600.34	48605.91
600.50	48615.27
600.65	48605.91
600.81	48900.81
600.97	48884.43
601.12	48673.78
601.28	48772.08
601.44	49050.61
601.59	48493.56
601.75	48741.66
601.91	48839.96
602.06	48790.81
602.22	48968.69
602.37	48708.89
602.53	48594.20
602.69	48694.85
602.84	48863.36
603.00	48514.62
603.16	48802.51
603.31	48638.67
603.47	48545.05
603.62	48671.44
603.78	48802.51
603.94	48865.70
604.09	49001.46
604.25	48549.73
604.40	48664.42
604.56	48905.49
604.71	49315.09
604.87	48563.78
605.03	48444.41
605.18	48811.87
605.34	48584.84
605.49	48516.96
605.65	48500.58
605.80	48619.95
605.96	48603.56
606.12	48865.70
606.27	48942.94
606.43	48680.80
606.58	48739.32
606.74	48912.52
606.89	48385.89
607.05	48898.47
607.20	48662.08
607.36	48732.29
607.51	48418.66
607.67	48514.62
607.82	48203.33
607.98	48711.23
608.13	48622.29
608.29	48783.79
608.44	48926.56
608.60	48329.72
608.75	48498.24
608.91	48516.96
609.06	48538.03
609.22	48547.39
609.37	48032.47
609.53	48580.16
609.68	48823.58
609.84	48671.44
609.99	48638.67
610.15	48250.14
610.30	48851.66
610.46	48577.82
610.61	48446.75
610.76	48294.61
610.92	48044.18
611.07	48175.25
611.23	47908.43
611.38	48215.04
611.54	48446.75
611.69	48327.38
611.84	48252.48
612.00	48458.45
612.15	47870.98
612.31	48360.15
612.46	47934.17
612.62	48261.85
612.77	48154.18
612.92	48493.56
613.08	48226.74
613.23	48371.85
613.39	47962.26
613.54	48109.71
613.69	48479.52
613.85	48147.16
614.00	48219.72
614.15	48149.50
614.31	47742.25
614.46	47845.23
614.62	48186.95
614.77	47828.85
614.92	47962.26
615.08	48105.03
615.23	48341.42
615.38	48177.59
615.54	48210.35
615.69	48133.12
615.84	47709.48
616.00	47728.20
616.15	47852.25
616.30	48030.13
616.46	47746.93
616.61	47775.02
616.76	47997.37
616.92	47885.02
617.07	48018.43
617.22	47861.61
617.37	47533.94
617.53	47931.83
617.68	47323.29
617.83	47445.00
617.99	47665.01
618.14	47711.82
618.29	47667.35
618.45	47526.92
618.60	47288.18
618.75	47796.08
618.90	47735.23
619.06	47517.56
619.21	47826.51
619.36	47477.77
619.51	47290.52
619.67	47234.35
619.82	47779.70
619.97	47775.02
620.12	47552.66
620.28	47428.62
620.43	47601.82
620.58	47517.56
620.73	47824.17
620.89	47728.20
621.04	47587.77
621.19	47356.06
621.34	47138.39
621.49	47072.85
621.65	46866.89
621.80	47728.20
621.95	47203.92
622.10	46742.84
622.25	47285.84
622.41	46909.02
622.56	46967.53
622.71	47199.24
622.86	47250.74
623.01	46993.28
623.16	46894.97
623.32	47054.13
623.47	46951.15
623.62	47250.74
623.77	47414.57
623.92	47374.78
624.07	46700.71
624.23	46941.78
624.38	46920.72
624.53	46941.78
624.68	46415.16
624.83	46450.27
624.98	46841.14
625.13	46607.09
625.29	46436.23
625.44	46691.35
625.59	46937.10
625.74	46693.69
625.89	46066.42
626.04	46630.49
626.19	46541.55
626.34	46157.70
626.49	46349.63
626.65	46012.59
626.80	46939.44
626.95	46410.48
627.10	46522.83
627.25	46487.72
627.40	46138.98
627.55	46394.10
627.70	46188.13
627.85	46880.93
628.00	46808.37
628.15	46436.23
628.30	45972.80
628.45	45691.94
628.60	45528.10
628.76	45890.88
628.91	46286.43
629.06	45956.42
629.21	45453.20
629.36	45862.80
629.51	46167.07
629.66	46082.81
629.81	45956.42
629.96	45874.50
630.11	45862.80
630.26	45509.38
630.41	46012.59
630.56	45904.93
630.71	46099.19
630.86	45141.91
631.01	45631.08
631.16	45502.35
631.31	45827.69
631.46	45701.30
631.61	46071.10
631.76	46021.95
631.91	45560.87
632.06	45776.20
632.21	45996.21
632.36	45743.43
632.51	45214.47
632.66	46106.21
632.81	45603.00
632.96	45411.07
633.10	45228.51
633.25	45469.59
633.40	45378.31
633.55	45525.76
633.70	45347.88
633.85	44776.79
634.00	44861.05
634.15	45174.68
634.30	44940.63
634.45	45263.62
634.60	45251.92
634.75	45209.79
634.90	45067.02
635.05	45195.74
635.19	45148.93
635.34	45291.71
635.49	44882.11
635.64	45336.18
635.79	45406.39
635.94	45029.57
636.09	45478.95
636.24	44957.01
636.39	45186.38
636.53	45275.32
636.68	44748.70
636.83	44959.35
636.98	44610.61
637.13	44406.98
637.28	44542.74
637.43	44673.81
637.57	44479.54
637.72	44737.00
637.87	44212.72
638.02	44545.08
638.17	44741.68
638.32	44498.26
638.46	44538.05
638.61	44566.14
638.76	44456.14
638.91	44533.37
639.06	44009.09
639.20	44411.67
639.35	44367.20
639.50	44175.27
639.65	44531.03
639.80	44561.46
639.94	44601.25
640.09	44610.61
640.24	44065.27
640.39	44212.72
640.54	43995.05
640.68	44004.41
640.83	44580.18
640.98	44044.20
641.13	43761.00
641.27	44446.77
641.42	44196.34
641.57	44327.41
641.72	44079.31
641.86	43878.02
642.01	43903.77
642.16	44172.93
642.31	43817.17
642.45	44165.91
642.60	43959.94
642.75	43746.95
642.90	44587.21
643.04	43814.83
643.19	43704.82
643.34	43761.00
643.48	43620.56
643.63	43810.15
643.78	43515.24
643.93	43742.27
644.07	43966.96
644.22	43269.48
644.37	43173.52
644.51	43627.59
644.66	43910.79
644.81	43714.19
644.95	43044.79
645.10	43487.15
645.25	43695.46
645.39	43248.42
645.54	43225.01
645.69	43213.31
645.83	42937.13
645.98	43133.73
646.13	42951.17
646.27	43161.82
646.42	42721.80
646.57	43007.34
646.71	43318.64
646.86	43367.79
647.00	43318.64
647.15	43386.51
647.30	43241.40
647.44	43168.84
647.59	43208.63
647.74	43009.68
647.88	43093.94
648.03	43014.37
648.17	43430.98
648.32	43072.88
648.47	43632.27
648.61	42632.86
648.76	42822.44
648.90	42642.22
649.05	42754.57
649.20	42712.44
649.34	42986.28
649.49	43072.88
649.63	43007.34
649.78	42726.48
649.92	43040.11
650.07	42939.47
650.21	43005.00
650.36	43042.45
650.51	42738.18
650.65	43203.95
650.80	42831.80
650.94	42756.91
651.09	42703.07
651.23	42033.68
651.38	42426.89
651.52	42220.92
651.67	42183.48
651.81	42412.85
651.96	42363.70
652.10	41750.48
652.25	41888.57
652.39	42246.67
652.54	42663.28
652.68	42199.86
652.83	41883.89
652.97	42370.72
653.12	42120.28
653.26	42085.17
653.41	42012.62
653.55	42078.15
653.70	42279.44
653.84	42199.86
653.99	42136.66
654.13	42501.79
654.27	41530.47
654.42	41900.27
654.56	41951.76
654.71	41731.75
654.85	41593.66
655.00	41968.15
655.14	42050.06
655.29	42216.24
655.43	42010.28
655.57	41626.43
655.72	41322.16
655.86	41918.99
656.01	41670.90
656.15	41600.68
656.30	41251.94
656.44	41532.81
656.58	41572.60
656.73	41221.52
656.87	41752.82
657.01	41268.33
657.16	41640.47
657.30	41368.97
657.45	41270.67
657.59	41113.85
657.73	41090.44
657.88	41504.72
658.02	41064.70
658.16	41546.85
658.31	41031.93
658.45	41687.28
658.60	40966.40
658.74	41123.21
658.88	41254.28
659.03	40816.60
659.17	40484.25
659.31	41134.92
659.46	40825.96
659.60	40439.78
659.74	41088.10
659.89	40472.54
660.03	40399.99
660.17	40666.81
660.32	40596.59
660.46	40168.27
660.60	40341.47
660.74	40322.75
660.89	40659.79
661.03	39952.94
661.17	40194.02
661.32	39817.19
661.46	40575.53
661.60	39896.77
661.74	40114.44
661.89	39601.86
662.03	40102.74
662.17	39948.26
662.31	39938.90
662.46	39330.36
662.60	39335.04
662.74	39590.16
662.88	39721.23
663.03	39264.83
663.17	39426.32
663.31	39515.26
663.45	39463.77
663.60	39871.03
663.74	39445.05
663.88	39110.35
664.02	38920.77
664.17	39428.66
664.31	39377.17
664.45	39086.95
664.59	38897.36
664.73	38663.31
664.88	39210.99
665.02	38785.02
665.16	39133.76
665.30	38759.27
665.44	38944.17
665.59	38649.27
665.73	38780.34
665.87	38143.71
666.01	38745.23
666.15	38352.02
666.29	38157.75
666.44	38391.81
666.58	38529.90
666.72	38059.45
666.86	38029.02
667.00	38260.74
667.14	37783.27
667.28	38064.13
667.43	38167.12
667.57	38438.62
667.71	38295.85
667.85	38405.85
667.99	37858.17
668.13	38038.39
668.27	37317.50
668.41	37275.37
668.56	37338.57
668.70	36725.35
668.84	36912.59
668.98	36858.76
669.12	37123.24
669.26	37017.91
669.40	37216.86
669.54	37177.07
669.68	36776.84
669.82	36643.43
669.96	36690.24
670.10	36507.68
670.25	36844.71
670.39	36591.94
670.53	36484.27
670.67	36554.49
670.81	36964.08
670.95	36540.44
671.09	35995.10
671.23	36549.81
671.37	36165.96
671.51	36086.38
671.65	35976.37
671.79	36182.34
671.93	36322.77
672.07	36105.10
672.21	36011.48
672.35	35737.64
672.49	35805.52
672.63	35211.02
672.77	35548.06
672.91	35416.99
673.05	35597.21
673.19	35115.06
673.33	35037.82
673.47	34955.90
673.61	34756.96
673.75	34852.92
673.89	35143.14
674.03	34555.67
674.17	34251.40
674.31	34251.40
674.45	34457.37
674.59	34677.38
674.73	34340.34
674.87	34197.57
675.01	34295.87
675.15	34405.88
675.29	34075.86
675.43	33645.20
675.56	34153.10
675.70	34087.56
675.84	33413.49
675.98	32556.85
676.12	33509.45
676.26	33729.46
676.40	33439.23
676.54	33345.61
676.68	33191.14
676.82	32631.75
676.96	33090.49
677.10	33153.69
677.23	33013.26
677.37	32964.10
677.51	32638.77
677.65	32425.78
677.79	32208.11
677.93	32149.60
678.07	32432.80
678.21	31679.15
678.34	32098.11
678.48	31627.66
678.62	31934.27
678.76	31555.10
678.90	31974.06
679.04	31756.39
679.18	31770.43
679.31	31260.20
679.45	31175.94
679.59	31211.04
679.73	30623.57
679.87	30998.06
680.00	30721.87
680.14	31012.10
680.28	30843.58
680.42	30771.02
680.56	30705.49
680.70	30543.99
680.83	30316.96
680.97	29970.56
681.11	30223.34
681.25	29780.98
681.39	29895.66
681.52	29986.94
681.66	29385.43
681.80	29177.12
681.94	28975.83
682.07	29202.86
682.21	29191.16
682.35	29062.43
682.49	29200.52
682.62	29034.35
682.76	28964.13
682.90	28772.21
683.04	28713.69
683.17	28629.43
683.31	28217.50
683.45	28306.44
683.59	27857.06
683.72	27798.54
683.86	28198.77
684.00	28048.98
684.13	27964.72
684.27	27662.79
684.41	27711.94
684.55	27908.55
684.68	27393.63
684.82	27552.79
684.96	27068.30
685.09	27239.15
685.23	27255.54
685.37	27608.96
685.50	27648.75
685.64	27131.49
685.78	26689.13
685.91	27044.89
686.05	26749.98
686.19	25991.65
686.32	26438.69
686.46	25989.31
686.60	25853.56
686.73	25750.57
686.87	26132.08
687.01	26291.24
687.14	26047.82
687.28	25930.80
687.42	25724.83
687.55	25757.60
687.69	25420.56
687.82	25149.06
687.96	25039.05
688.10	25525.88
688.23	25116.29
688.37	25006.28
688.50	25455.67
688.64	24856.49
688.78	24975.86
688.91	24573.28
689.05	24671.59
689.18	24320.51
689.32	24196.46
689.46	24032.62
689.59	24180.07
689.73	24304.12
689.86	24079.43
690.00	24070.07
690.13	23726.01
690.27	23466.21
690.41	23962.40
690.54	23599.62
690.68	23686.22
690.81	23164.28
690.95	22909.16
691.08	23178.33
691.22	22724.26
691.35	22878.74
691.49	23222.80
691.62	23316.42
691.76	22567.45
691.89	22382.54
692.03	22073.59
692.16	22204.66
692.30	22085.30
692.43	21891.03
692.57	21933.16
692.70	21820.81
692.84	22246.79
692.97	21649.96
693.11	21607.83
693.24	21413.56
693.38	21624.21
693.51	20957.16
693.65	21357.39
693.78	21029.71
693.92	21188.87
694.05	20828.43
694.19	20929.07
694.32	21071.84
694.45	21254.40
694.59	21081.21
694.72	20695.02
694.86	20634.16
694.99	20318.19
695.13	20442.24
695.26	20262.02
695.39	19791.57
695.53	20046.69
695.66	19824.34
695.80	20283.08
695.93	19826.68
696.07	19433.47
696.20	19194.73
696.33	19461.55
696.47	19271.97
696.60	19711.99
696.73	19346.87
696.87	19328.14
697.00	19271.97
697.14	18984.09
697.27	18618.96
697.40	18548.75
697.54	18635.35
697.67	18719.60
697.80	18558.11
697.94	18616.62
698.07	18431.72
698.21	18251.50
698.34	18499.59
698.47	18249.16
698.61	17689.77
698.74	17685.09
698.87	17881.69
699.01	17806.80
699.14	17839.56
699.27	17731.90
699.40	17554.02
699.54	17355.07
699.67	17547.00
699.80	17039.10
699.94	17261.45
700.07	16978.25
700.20	17158.47
700.34	16648.23
700.47	16879.94
700.60	16781.64
700.73	16903.35
700.87	16603.76
701.00	16596.74
701.13	16168.42
701.26	16332.26
701.40	16568.65
701.53	16219.91
701.66	16215.23
701.79	16126.29
701.93	15861.81
702.06	15826.70
702.19	15613.71
702.32	15815.00
702.46	15929.69
702.59	16119.27
702.72	15735.42
702.85	15999.90
702.99	15676.91
703.12	15590.31
703.25	15234.55
703.38	15276.68
703.51	14993.47
703.65	15068.37
703.78	14902.19
703.91	14445.79
704.04	14677.50
704.17	14436.42
704.31	14567.49
704.44	14520.68
704.57	14457.49
704.70	14527.71
704.83	14162.58
704.96	14068.96
705.10	14160.24
705.23	13968.32
>>>>>End Processed Spectral Data<<<<<
