SpectraSuite Data File
++++++++++++++++++++++++++++++++++++
Date: Fri Oct 25 10:44:00 EDT 2013
User: price-jones
Dark Spectrum Present: No
Reference Spectrum Present: No
Number of Sampled Component Spectra: 1
Spectrometers: USB2+H05261
Integration Time (usec): 100000 (USB2+H05261)
Spectra Averaged: 1 (USB2+H05261)
Boxcar Smoothing: 0 (USB2+H05261)
Correct for Electrical Dark: No (USB2+H05261)
Strobe/Lamp Enabled: No (USB2+H05261)
Correct for Detector Non-linearity: No (USB2+H05261)
Correct for Stray Light: No (USB2+H05261)
Number of Pixels in Processed Spectrum: 2048
>>>>>Begin Processed Spectral Data<<<<<
365.73	124.05
365.92	124.05
366.12	124.05
366.32	98.30
366.52	0.00
366.72	53.83
366.91	51.49
367.11	18.72
367.31	0.00
367.51	0.00
367.70	0.00
367.90	79.58
368.10	4.68
368.30	4.68
368.49	0.00
368.69	28.09
368.89	46.81
369.09	0.00
369.28	9.36
369.48	77.24
369.68	147.45
369.87	91.28
370.07	93.62
370.27	126.39
370.47	105.32
370.66	355.76
370.86	425.98
371.06	489.17
371.25	538.32
371.45	514.92
371.65	507.90
371.84	463.43
372.04	447.04
372.24	550.03
372.44	500.87
372.63	486.83
372.83	526.62
373.03	514.92
373.22	559.39
373.42	465.77
373.62	580.45
373.81	533.64
374.01	594.50
374.21	561.73
374.40	550.03
374.60	629.60
374.79	596.84
374.99	592.16
375.19	645.99
375.38	580.45
375.58	580.45
375.78	638.97
375.97	622.58
376.17	613.22
376.37	615.56
376.56	671.73
376.76	653.01
376.95	594.50
377.15	629.60
377.35	636.63
377.54	685.78
377.74	641.31
377.93	664.71
378.13	657.69
378.33	645.99
378.52	627.26
378.72	737.27
378.91	720.88
379.11	631.94
379.31	620.24
379.50	608.54
379.70	681.10
379.89	580.45
380.09	645.99
380.28	683.44
380.48	648.33
380.68	606.20
380.87	720.88
381.07	690.46
381.26	739.61
381.46	650.67
381.65	697.48
381.85	741.95
382.04	685.78
382.24	685.78
382.43	638.97
382.63	697.48
382.83	730.25
383.02	744.29
383.22	798.12
383.41	725.57
383.61	758.33
383.80	730.25
384.00	823.87
384.19	758.33
384.39	795.78
384.58	819.19
384.78	788.76
384.97	898.77
385.17	823.87
385.36	816.85
385.56	826.21
385.75	767.70
385.95	842.59
386.14	798.12
386.34	821.53
386.53	891.74
386.72	837.91
386.92	844.93
387.11	952.60
387.31	800.46
387.50	873.02
387.70	844.93
387.89	931.53
388.09	849.61
388.28	896.43
388.48	903.45
388.67	917.49
388.86	917.49
389.06	922.17
389.25	978.34
389.45	954.94
389.64	980.68
389.84	987.71
390.03	1032.18
390.22	947.92
390.42	926.85
390.61	1022.81
390.81	1039.20
391.00	1013.45
391.19	1088.35
391.39	1025.15
391.58	1125.80
391.78	992.39
391.97	1069.62
392.16	1039.20
392.36	1064.94
392.55	985.37
392.75	999.41
392.94	1027.50
393.13	940.90
393.33	1050.90
393.52	1093.03
393.71	1055.58
393.91	1013.45
394.10	1114.10
394.29	1132.82
394.49	1205.38
394.68	1299.00
394.88	1263.89
395.07	1334.11
395.26	1179.63
395.46	1170.27
395.65	1254.53
395.84	1254.53
396.04	1210.06
396.23	1090.69
396.42	1188.99
396.62	1219.42
396.81	1320.06
397.00	1254.53
397.19	1273.25
397.39	1341.13
397.58	1399.64
397.77	1289.64
397.97	1483.90
398.16	1357.51
398.35	1418.36
398.55	1418.36
398.74	1530.71
398.93	1523.69
399.12	1481.56
399.32	1582.20
399.51	1596.25
399.70	1633.69
399.90	1612.63
400.09	1624.33
400.28	1507.30
400.47	1586.88
400.67	1734.34
400.86	1741.36
401.05	1694.55
401.24	1764.76
401.44	1788.17
401.63	1764.76
401.82	1802.21
402.01	1682.85
402.21	1734.34
402.40	1830.30
402.59	1680.50
402.78	1851.36
402.97	1799.87
403.17	1839.66
403.36	1811.57
403.55	1830.30
403.74	1902.86
403.93	1844.34
404.13	1863.07
404.32	1809.23
404.51	1877.11
404.70	1970.73
404.89	1827.96
405.09	1977.75
405.28	1980.09
405.47	1980.09
405.66	1935.62
405.85	2057.33
406.05	1944.99
406.24	2057.33
406.43	1996.48
406.62	2033.93
406.81	2136.91
407.00	2054.99
407.20	2136.91
407.39	2066.69
407.58	2218.83
407.77	2101.80
407.96	2125.21
408.15	2289.04
408.34	2239.89
408.54	2218.83
408.73	2253.94
408.92	2193.08
409.11	2394.37
409.30	2354.58
409.49	2265.64
409.68	2298.41
409.87	2260.96
410.07	2385.01
410.26	2455.22
410.45	2443.52
410.64	2438.84
410.83	2492.67
411.02	2600.34
411.21	2605.02
411.40	2469.27
411.59	2677.57
411.78	2693.96
411.98	2682.25
412.17	2712.68
412.36	2609.70
412.55	2754.81
412.74	2705.66
412.93	2799.28
413.12	2867.16
413.31	2860.13
413.50	2736.09
413.69	2888.22
413.88	3124.62
414.07	3000.57
414.26	2958.44
414.45	2906.95
414.64	3045.04
414.83	3197.17
415.02	2956.10
415.22	3091.85
415.41	3080.14
415.60	3227.60
415.79	3241.64
415.98	3386.76
416.17	3269.73
416.36	3316.54
416.55	3316.54
416.74	3239.30
416.93	3251.00
417.12	3279.09
417.31	3431.23
417.50	3365.69
417.69	3515.48
417.88	3438.25
418.07	3454.63
418.26	3419.52
418.45	3578.68
418.64	3709.75
418.83	3627.83
419.02	3574.00
419.21	3695.71
419.39	3620.81
419.58	3588.04
419.77	3562.30
419.96	3667.62
420.15	3770.60
420.34	3676.98
420.53	3803.37
420.72	3880.61
420.91	3815.07
421.10	3733.15
421.29	3798.69
421.48	3836.14
421.67	4107.64
421.86	3868.91
422.05	3875.93
422.24	3786.99
422.43	3885.29
422.61	3911.04
422.80	4117.00
422.99	3920.40
423.18	3878.27
423.37	4030.40
423.56	3929.76
423.75	4028.06
423.94	4037.42
424.13	3681.66
424.32	3768.26
424.50	4084.23
424.69	4180.20
424.88	4035.08
425.07	3896.99
425.26	3782.31
425.45	3794.01
425.64	3981.25
425.83	3971.89
426.01	4028.06
426.20	4044.45
426.39	4095.94
426.58	4002.32
426.77	3929.76
426.96	4002.32
427.15	4117.00
427.33	4163.81
427.52	4128.70
427.71	4166.15
427.90	4088.92
428.09	4196.58
428.28	4320.63
428.46	4138.07
428.65	4114.66
428.84	4273.82
429.03	4432.97
429.22	4124.02
429.40	4140.41
429.59	4109.98
429.78	3969.55
429.97	3962.53
430.16	4056.15
430.34	4133.39
430.53	4271.48
430.72	4276.16
430.91	4264.46
431.10	4418.93
431.28	4519.57
431.47	4622.56
431.66	4592.13
431.85	4496.17
432.03	4697.46
432.22	4713.84
432.41	4601.49
432.60	4753.63
432.79	4835.55
432.97	4814.48
433.16	4643.62
433.35	4856.61
433.54	4784.06
433.72	4821.50
433.91	4688.09
434.10	4830.87
434.28	4798.10
434.47	4945.55
434.66	4952.57
434.85	4877.68
435.03	5006.41
435.22	5139.82
435.41	5121.09
435.59	5123.43
435.78	5137.48
435.97	5214.71
436.16	5186.63
436.34	5100.03
436.53	5254.50
436.72	5280.25
436.90	5032.15
437.09	5214.71
437.28	5053.22
437.46	5263.86
437.65	5252.16
437.84	5179.61
438.02	5249.82
438.21	5142.16
438.40	5219.39
438.58	5418.34
438.77	5343.44
438.96	5476.85
439.14	5666.44
439.33	5680.48
439.52	5823.25
439.70	5624.31
439.89	5720.27
440.08	5617.29
440.26	5729.63
440.45	5748.36
440.63	5923.90
440.82	6061.99
441.01	6029.22
441.19	6183.70
441.38	6366.26
441.57	6230.51
441.75	6321.79
441.94	6331.15
442.12	6289.02
442.31	6399.02
442.50	6354.55
442.68	6256.25
442.87	6370.94
443.05	6544.14
443.24	6647.12
443.43	6415.41
443.61	6534.78
443.80	6689.25
443.98	6431.79
444.17	6307.74
444.35	6619.04
444.54	6787.55
444.73	6574.56
444.91	6616.69
445.10	6597.97
445.28	6607.33
445.47	6511.37
445.65	6480.94
445.84	6576.91
446.02	6630.74
446.21	6593.29
446.39	6616.69
446.58	6604.99
446.77	6853.09
446.95	6572.22
447.14	6841.39
447.32	6719.68
447.51	6693.93
447.69	6700.95
447.88	6822.66
448.06	6839.05
448.25	6747.76
448.43	6927.99
448.62	6693.93
448.80	6651.80
448.99	6972.46
449.17	6925.65
449.36	6825.00
449.54	7133.95
449.73	7201.83
449.91	7267.36
450.10	7087.14
450.28	7260.34
450.46	7344.60
450.65	7293.11
450.83	7236.94
451.02	7295.45
451.20	7218.21
451.39	7318.86
451.57	7176.08
451.76	7297.79
451.94	7372.69
452.13	7304.81
452.31	7199.49
452.49	7229.91
452.68	7197.15
452.86	7239.28
453.05	7389.07
453.23	7414.82
453.42	7365.67
453.60	7358.64
453.78	7513.12
453.97	7510.78
454.15	7276.73
454.34	7431.20
454.52	7550.57
454.70	7513.12
454.89	7489.71
455.07	7726.11
455.26	7737.81
455.44	7866.54
455.62	7880.58
455.81	7866.54
455.99	7826.75
456.17	7688.66
456.36	7887.61
456.54	8035.06
456.73	8138.04
456.91	8039.74
457.09	8070.17
457.28	8318.26
457.46	8079.53
457.64	8222.30
457.83	8177.83
458.01	8070.17
458.19	8496.14
458.38	8231.66
458.56	8439.97
458.74	8365.07
458.93	8299.54
459.11	8479.76
459.29	8318.26
459.48	8294.86
459.66	8374.44
459.84	8421.25
460.03	8634.24
460.21	8592.11
460.39	8697.43
460.57	8629.56
460.76	8744.24
460.94	8659.98
461.12	8741.90
461.31	8762.97
461.49	8727.86
461.67	9081.28
461.85	8922.12
462.04	8769.99
462.22	9156.18
462.40	9144.47
462.59	8884.67
462.77	9041.49
462.95	8971.27
463.13	8997.02
463.32	9186.60
463.50	9207.67
463.68	9263.84
463.86	9212.35
464.05	9022.77
464.23	9057.87
464.41	9053.19
464.59	9076.60
464.78	9247.46
464.96	9247.46
465.14	8994.68
465.32	9146.81
465.50	9301.29
465.69	9385.55
465.87	9362.14
466.05	9221.71
466.23	9352.78
466.41	9350.44
466.60	9502.58
466.78	9170.22
466.96	9399.59
467.14	9582.15
467.32	9399.59
467.51	9640.67
467.69	9418.32
467.87	9481.51
468.05	9675.77
468.23	9516.62
468.41	9668.75
468.60	9727.27
468.78	9748.33
468.96	9603.22
469.14	10026.86
469.32	9980.04
469.50	9710.88
469.69	9928.55
469.87	10061.96
470.05	10005.79
470.23	9846.63
470.41	9865.36
470.59	10122.82
470.77	10071.33
470.95	10026.86
471.14	10066.64
471.32	10108.77
471.50	10562.84
471.68	10340.49
471.86	10597.95
472.04	10544.11
472.22	10752.42
472.40	10616.67
472.58	10403.68
472.77	10630.71
472.95	10509.01
473.13	10878.81
473.31	10387.30
473.49	10834.34
473.67	10668.16
473.85	10768.80
474.03	10937.32
474.21	11190.10
474.39	11243.93
474.57	10986.47
474.75	11208.83
474.93	11332.87
475.12	11187.76
475.30	11318.83
475.48	11325.85
475.66	11452.24
475.84	11414.79
476.02	11510.75
476.20	11307.13
476.38	11733.11
476.56	12072.48
476.74	11730.76
476.92	11695.66
477.10	11854.81
477.28	12325.26
477.46	12109.93
477.64	12510.16
477.82	12512.50
478.00	12725.49
478.18	12704.43
478.36	12643.57
478.54	12837.84
478.72	12823.80
478.90	13116.36
479.08	13277.86
479.26	13217.01
479.44	13390.20
479.62	13441.70
479.80	13600.85
479.98	13635.96
480.16	13844.27
480.34	13734.26
480.52	13937.89
480.70	14022.15
480.88	13736.60
481.06	13973.00
481.24	14129.81
481.41	14501.96
481.59	14448.13
481.77	14621.33
481.95	14207.05
482.13	14862.40
482.31	14836.66
482.49	15047.30
482.67	15220.50
482.85	15051.99
483.03	15332.85
483.21	15405.41
483.39	15536.48
483.57	15403.07
483.74	15690.95
483.92	15744.78
484.10	15704.99
484.28	16042.03
484.46	16266.72
484.64	16458.65
484.82	16173.10
485.00	16191.83
485.18	16699.72
485.35	16556.95
485.53	16489.07
485.71	16264.38
485.89	16732.49
486.07	16720.79
486.25	16842.50
486.43	16884.62
486.61	17039.10
486.78	17694.45
486.96	17579.76
487.14	17626.57
487.32	17902.76
487.50	18228.09
487.68	18581.51
487.85	18448.10
488.03	18768.76
488.21	18948.98
488.39	18558.11
488.57	18721.95
488.75	19168.99
488.92	19389.00
489.10	19871.15
489.28	19573.90
489.46	19943.70
489.64	19822.00
489.81	20430.54
489.99	20152.01
490.17	20402.45
490.35	20308.83
490.53	20594.37
490.70	20517.14
490.88	20746.51
491.06	20781.62
491.24	20954.82
491.41	20926.73
491.59	21277.81
491.77	20947.79
491.95	21415.90
492.13	21394.84
492.30	21771.66
492.48	21923.80
492.66	22366.16
492.84	22092.32
493.01	22298.28
493.19	22120.40
493.37	22373.18
493.54	22537.02
493.72	22750.01
493.90	23201.73
494.08	23491.96
494.25	23620.69
494.43	23070.66
494.61	23527.06
494.79	23419.40
494.96	23955.38
495.14	23697.92
495.32	23756.44
495.49	24215.18
495.67	24142.63
495.85	24400.08
496.02	24496.05
496.20	24491.37
496.38	24683.29
496.55	25172.46
496.73	25322.26
496.91	24926.71
497.09	24910.32
497.26	25582.06
497.44	25371.41
497.62	26038.46
497.79	25582.06
497.97	25539.93
498.14	26040.80
498.32	25891.01
498.50	26188.25
498.67	26202.30
498.85	26096.97
499.03	26504.23
499.20	26324.01
499.38	26621.25
499.56	26838.92
499.73	26431.67
499.91	26693.81
500.08	26888.07
500.26	26586.15
500.44	26731.26
500.61	26855.31
500.79	26693.81
500.97	26981.70
501.14	27508.32
501.32	27363.20
501.49	27562.15
501.67	27655.77
501.84	27494.27
502.02	28077.07
502.20	28100.47
502.37	28437.51
502.55	27878.12
502.72	28278.35
502.90	28261.97
503.07	28489.00
503.25	28460.91
503.43	28439.85
503.60	28545.17
503.78	28243.24
503.95	28526.45
504.13	28489.00
504.30	28716.03
504.48	28842.42
504.65	29282.44
504.83	29670.97
505.01	29425.22
505.18	29172.44
505.36	29544.58
505.53	29682.67
505.71	29872.26
505.88	30185.89
506.06	29905.02
506.23	29883.96
506.41	29895.66
506.58	30431.65
506.76	30221.00
506.93	29825.45
507.11	30422.28
507.28	30319.30
507.46	29933.11
507.63	30473.78
507.81	30764.00
507.98	30279.51
508.16	30824.86
508.33	30738.26
508.50	31360.84
508.68	31014.44
508.85	31307.01
509.03	31285.94
509.20	31456.80
509.38	31440.42
509.55	31735.32
509.73	31580.85
509.90	31519.99
510.08	31587.87
510.25	31704.90
510.42	31632.34
510.60	32121.51
510.77	32006.83
510.95	32641.11
511.12	32320.46
511.30	32320.46
511.47	32561.53
511.64	32814.31
511.82	32758.14
511.99	32538.13
512.17	32559.19
512.34	32100.45
512.51	32627.07
512.69	33057.73
512.86	32996.87
513.04	33338.59
513.21	33212.20
513.38	32973.47
513.56	33481.36
513.73	33277.74
513.90	33326.89
514.08	32896.23
514.25	33450.94
514.43	33603.07
514.60	33481.36
514.77	33462.64
514.95	34050.11
515.12	34057.14
515.29	33666.27
515.47	33930.75
515.64	34501.84
515.81	34227.99
515.99	34148.42
516.16	34106.29
516.33	33961.17
516.51	34143.74
516.68	33532.86
516.85	33596.05
517.03	33755.21
517.20	34155.44
517.37	34595.46
517.54	34778.02
517.72	34614.18
517.89	34817.81
518.06	34000.96
518.24	34478.43
518.41	34677.38
518.58	34548.65
518.75	35056.54
518.93	35072.93
519.10	34878.66
519.27	35585.50
519.45	35342.09
519.62	35814.88
519.79	35716.58
519.96	35363.15
520.14	35875.73
520.31	35716.58
520.48	35620.61
520.65	35470.82
520.83	36081.70
521.00	36301.71
521.17	36336.82
521.34	36114.47
521.52	36421.08
521.69	36706.62
521.86	36730.03
522.03	36842.37
522.20	36552.15
522.38	36601.30
522.55	37034.30
522.72	37010.89
522.89	36627.04
523.07	37284.73
523.24	36943.02
523.41	37184.09
523.58	37113.87
523.75	37446.23
523.92	37755.18
524.10	37380.70
524.27	37565.60
524.44	37528.15
524.61	38043.07
524.78	38014.98
524.96	37933.06
525.13	37745.82
525.30	38206.90
525.47	38274.78
525.64	38162.43
525.81	37869.87
525.98	37570.28
526.16	37684.97
526.33	37904.98
526.50	37820.72
526.67	37500.06
526.84	37500.06
527.01	37869.87
527.18	38284.14
527.36	38417.55
527.53	38721.82
527.70	38815.44
527.87	39014.39
528.04	38391.81
528.21	38960.56
528.38	39187.59
528.55	38958.22
528.72	38941.83
528.89	39412.28
529.07	39173.55
529.24	38717.14
529.41	39250.78
529.58	39065.88
529.75	38752.25
529.92	39323.34
530.09	39526.97
530.26	39262.49
530.43	39721.23
530.60	39295.25
530.77	39754.00
530.94	39995.07
531.11	39227.38
531.28	39868.69
531.46	39821.87
531.63	39952.94
531.80	40009.12
531.97	40201.04
532.14	39737.62
532.31	39449.73
532.48	39578.46
532.65	39997.41
532.82	40076.99
532.99	40528.72
533.16	40203.38
533.33	40500.63
533.50	40456.16
533.67	40601.27
533.84	40055.93
534.01	40402.33
534.18	40105.08
534.35	40627.02
534.52	40449.14
534.69	40711.28
534.86	40790.86
535.03	41020.23
535.20	41373.65
535.37	41167.68
535.54	41446.21
535.71	40966.40
535.88	40889.16
536.05	40877.46
536.22	41336.20
536.38	41317.48
536.55	40868.09
536.72	41148.96
536.89	40800.22
537.06	40928.95
537.23	41317.48
537.40	41432.16
537.57	41390.03
537.74	41413.44
537.91	41212.15
538.08	41813.67
538.25	41757.50
538.42	42036.02
538.59	41996.23
538.75	41518.76
538.92	41544.51
539.09	41621.75
539.26	42024.32
539.43	41354.93
539.60	41799.63
539.77	41773.88
539.94	42092.19
540.11	41621.75
540.28	41621.75
540.44	41638.13
540.61	41696.64
540.78	41600.68
540.95	41811.33
541.12	41827.71
541.29	41926.02
541.46	42258.37
541.62	42515.83
541.79	42251.35
541.96	42127.30
542.13	42050.06
542.30	42216.24
542.47	42108.58
542.63	42677.33
542.80	42871.59
542.97	42916.06
543.14	42611.79
543.31	43061.18
543.48	43143.09
543.64	43351.40
543.81	43398.21
543.98	43136.07
544.15	43159.48
544.32	43466.09
544.48	43634.61
544.65	43166.50
544.82	43484.81
544.99	43332.68
545.16	43267.14
545.32	43276.51
545.49	43711.84
545.66	43859.30
545.83	43482.47
546.00	43908.45
546.16	43335.02
546.33	43725.89
546.50	43253.10
546.67	44095.69
546.83	43690.78
547.00	43791.42
547.17	43660.35
547.34	43365.45
547.50	43536.30
547.67	43899.09
547.84	44098.03
548.00	43887.39
548.17	43995.05
548.34	43861.64
548.51	44168.25
548.67	43995.05
548.84	43796.10
549.01	43777.38
549.18	43737.59
549.34	44296.98
549.51	44465.50
549.68	44315.70
549.84	44299.32
550.01	44729.98
550.18	44222.08
550.34	44488.90
550.51	44158.89
550.68	44467.84
550.84	43910.79
551.01	44678.49
551.18	44273.57
551.34	44570.82
551.51	44694.87
551.68	44886.79
551.84	45064.67
552.01	45001.48
552.18	44535.71
552.34	44467.84
552.51	44451.45
552.68	44093.35
552.84	44524.01
553.01	44879.77
553.18	44638.70
553.34	44781.47
553.51	44917.22
553.67	45029.57
553.84	45425.12
554.01	45202.77
554.17	44980.42
554.34	45071.70
554.51	45064.67
554.67	45366.60
554.84	45586.61
555.00	45013.18
555.17	45127.87
555.33	45574.91
555.50	44704.23
555.67	45120.85
555.83	45174.68
556.00	45233.19
556.16	45301.07
556.33	45439.16
556.50	45104.46
556.66	45394.69
556.83	44708.91
556.99	45523.42
557.16	45308.09
557.32	45315.11
557.49	45663.85
557.65	45085.74
557.82	45371.28
557.98	45216.81
558.15	45399.37
558.32	45698.96
558.48	45265.96
558.65	44823.60
558.81	45380.65
558.98	45340.86
559.14	45647.47
559.31	45010.84
559.47	45507.04
559.64	45563.21
559.80	45607.68
559.97	45572.57
560.13	45078.72
560.30	45315.11
560.46	45923.65
560.63	45560.87
560.79	45921.31
560.96	45881.52
561.12	45247.24
561.29	45565.55
561.45	45848.75
561.61	45544.48
561.78	45160.64
561.94	45731.73
562.11	45408.73
562.27	45373.63
562.44	45689.60
562.60	46213.88
562.77	46036.00
562.93	45806.62
563.10	46057.06
563.26	45443.84
563.42	45780.88
563.59	45731.73
563.75	45567.89
563.92	46225.58
564.08	45930.67
564.24	45951.74
564.41	45530.44
564.57	45846.41
564.74	45731.73
564.90	46021.95
565.07	45975.14
565.23	46059.40
565.39	45890.88
565.56	46024.29
565.72	45577.25
565.88	45907.27
566.05	45684.92
566.21	45975.14
566.38	46213.88
566.54	45874.50
566.70	46153.02
566.87	46309.84
567.03	46227.92
567.19	46422.19
567.36	46241.96
567.52	46047.70
567.68	46113.23
567.85	46157.70
568.01	46326.22
568.17	46204.52
568.34	46295.80
568.50	46082.81
568.66	46108.55
568.83	46146.00
568.99	45963.44
569.15	45876.84
569.32	45881.52
569.48	46232.60
569.64	46410.48
569.81	46258.35
569.97	45778.54
570.13	46080.47
570.30	45797.26
570.46	45764.49
570.62	46036.00
570.78	45773.86
570.95	45832.37
571.11	46153.02
571.27	46080.47
571.43	46263.03
571.60	46347.29
571.76	45815.99
571.92	46361.33
572.09	46092.17
572.25	46024.29
572.41	46408.14
572.57	46918.38
572.74	46749.86
572.90	46263.03
573.06	46492.40
573.22	46124.94
573.38	46663.26
573.55	46131.96
573.71	46546.23
573.87	46511.13
574.03	46480.70
574.20	46281.75
574.36	46227.92
574.52	46630.49
574.68	46277.07
574.84	46464.32
575.01	46377.72
575.17	46199.83
575.33	45951.74
575.49	46211.54
575.65	46499.42
575.82	46644.54
575.98	46277.07
576.14	46319.20
576.30	46433.89
576.46	45823.01
576.62	46085.15
576.79	46623.47
576.95	46546.23
577.11	46188.13
577.27	46438.57
577.43	46499.42
577.59	46429.21
577.75	46436.23
577.92	45989.19
578.08	46197.49
578.24	46302.82
578.40	45893.22
578.56	46569.64
578.72	46216.22
578.88	46515.81
579.04	46300.48
579.21	46438.57
579.37	46569.64
579.53	46258.35
579.69	46363.67
579.85	46232.60
580.01	46843.48
580.17	46417.50
580.33	46478.36
580.49	46457.29
580.65	46630.49
580.82	46246.65
580.98	45961.10
581.14	46309.84
581.30	46873.91
581.46	46366.01
581.62	46555.60
581.78	46368.35
581.94	46972.21
582.10	46206.86
582.26	46543.89
582.42	46550.91
582.58	46501.76
582.74	46485.38
582.90	46642.20
583.06	46618.79
583.22	46754.54
583.38	46997.96
583.54	46976.89
583.70	46920.72
583.86	46419.84
584.02	46288.77
584.18	46595.38
584.34	46157.70
584.50	46185.79
584.66	46899.65
584.82	46131.96
584.98	46637.51
585.14	46607.09
585.30	46169.41
585.46	46134.30
585.62	46164.73
585.78	46326.22
585.94	46204.52
586.10	46698.37
586.26	46335.59
586.42	46588.36
586.58	47140.73
586.74	46873.91
586.90	46127.28
587.06	46436.23
587.22	46508.79
587.38	46066.42
587.54	46780.29
587.70	46340.27
587.86	46234.94
588.02	46571.98
588.18	46408.14
588.34	46457.29
588.49	45851.09
588.65	45759.81
588.81	45984.51
588.97	46234.94
589.13	45979.82
589.29	46176.43
589.45	46539.21
589.61	46335.59
589.77	46588.36
589.93	46422.19
590.08	46607.09
590.24	46876.25
590.40	46740.50
590.56	47021.36
590.72	46625.81
590.88	46330.90
591.04	46461.97
591.20	46997.96
591.35	47117.32
591.51	47515.22
591.67	46515.81
591.83	46347.29
591.99	46511.13
592.15	46506.44
592.31	46733.48
592.46	46773.27
592.62	46410.48
592.78	46373.03
592.94	46677.30
593.10	46855.18
593.26	46909.02
593.41	46784.97
593.57	46005.57
593.73	46012.59
593.89	46609.43
594.05	46955.83
594.20	46906.68
594.36	46506.44
594.52	46555.60
594.68	46375.37
594.84	46326.22
594.99	46887.95
595.15	46815.40
595.31	46913.70
595.47	46953.49
595.62	46595.38
595.78	46813.05
595.94	46536.87
596.10	47379.46
596.25	46829.44
596.41	46490.06
596.57	46829.44
596.73	47068.17
596.88	46377.72
597.04	46504.10
597.20	46728.80
597.36	46478.36
597.51	46698.37
597.67	46794.33
597.83	46777.95
597.99	46899.65
598.14	46932.42
598.30	46415.16
598.46	46791.99
598.61	46497.08
598.77	46857.52
598.93	46335.59
599.09	46871.57
599.24	46803.69
599.40	47014.34
599.56	46681.98
599.71	46780.29
599.87	46607.09
600.03	46791.99
600.18	46483.04
600.34	46501.76
600.50	46667.94
600.65	46721.77
600.81	46859.87
600.97	47042.43
601.12	47086.90
601.28	46997.96
601.44	46696.03
601.59	46693.69
601.75	45963.44
601.91	46806.03
602.06	46347.29
602.22	46731.14
602.37	46679.64
602.53	46581.34
602.69	46932.42
602.84	46571.98
603.00	46277.07
603.16	46560.28
603.31	46265.37
603.47	46852.84
603.62	46541.55
603.78	46817.74
603.94	46813.05
604.09	46829.44
604.25	46384.74
604.40	46543.89
604.56	46553.26
604.71	47004.98
604.87	46681.98
605.03	46700.71
605.18	46183.45
605.34	45998.55
605.49	46461.97
605.65	46469.00
605.80	46944.12
605.96	46157.70
606.12	46787.31
606.27	46707.73
606.43	46508.79
606.58	46595.38
606.74	46328.56
606.89	46363.67
607.05	46476.02
607.20	46747.52
607.36	46382.40
607.51	46452.61
607.67	46646.88
607.82	46366.01
607.98	46162.39
608.13	45778.54
608.29	46358.99
608.44	46033.66
608.60	45865.14
608.75	46204.52
608.91	46174.09
609.06	45979.82
609.22	46508.79
609.37	46272.39
609.53	46412.82
609.68	46258.35
609.84	46075.79
609.99	46153.02
610.15	45900.25
610.30	46094.51
610.46	45792.58
610.61	45741.09
610.76	46138.98
610.92	46527.51
611.07	45935.35
611.23	45937.69
611.38	46028.98
611.54	46017.27
611.69	45701.30
611.84	45537.46
612.00	45469.59
612.15	45294.05
612.31	46199.83
612.46	45776.20
612.62	45797.26
612.77	45940.04
612.92	46099.19
613.08	46052.38
613.23	45687.26
613.39	45326.81
613.54	45336.18
613.69	45509.38
613.85	45687.26
614.00	45530.44
614.15	45727.05
614.31	45404.05
614.46	46080.47
614.62	45256.60
614.77	45895.56
614.92	45368.94
615.08	45492.99
615.23	45361.92
615.38	45024.89
615.54	45029.57
615.69	45207.45
615.84	45322.13
616.00	45415.76
616.15	45062.33
616.30	45181.70
616.46	45291.71
616.61	45340.86
616.76	45359.58
616.92	44706.57
617.07	44961.69
617.22	44814.24
617.37	44973.39
617.53	44811.90
617.68	45329.16
617.83	44924.24
617.99	45029.57
618.14	44818.92
618.29	45219.15
618.45	44259.53
618.60	44683.17
618.75	44540.39
618.90	44830.62
619.06	44577.84
619.21	44516.99
619.36	44875.09
619.51	44760.40
619.67	44584.86
619.82	44744.02
619.97	44559.12
620.12	44847.00
620.28	44559.12
620.43	44804.88
620.58	44666.78
620.73	45067.02
620.89	44598.91
621.04	44320.38
621.19	44521.67
621.34	44947.65
621.49	44247.83
621.65	44399.96
621.80	44481.88
621.95	44259.53
622.10	44385.92
622.25	43522.26
622.41	44062.93
622.56	44069.95
622.71	44570.82
622.86	44444.43
623.01	44140.16
623.16	44044.20
623.32	44142.50
623.47	44130.80
623.62	44065.27
623.77	44201.02
623.92	43959.94
624.07	43873.34
624.23	43992.71
624.38	43922.49
624.53	43973.98
624.68	43674.40
624.83	44095.69
624.98	43833.55
625.13	43299.91
625.29	43779.72
625.44	43421.62
625.59	43613.54
625.74	43173.52
625.89	43438.00
626.04	43332.68
626.19	43283.53
626.34	43468.43
626.49	43674.40
626.65	43213.31
626.80	43320.98
626.95	43370.13
627.10	43489.49
627.25	43562.05
627.40	42672.65
627.55	42857.55
627.70	42770.95
627.85	42824.78
628.00	42674.99
628.15	43363.11
628.30	43372.47
628.45	43342.04
628.60	42873.93
628.76	42855.21
628.91	43152.46
629.06	42340.29
629.21	42546.26
629.36	42974.58
629.51	42232.63
629.66	42373.06
629.81	42548.60
629.96	42651.58
630.11	42548.60
630.26	43433.32
630.41	42583.71
630.56	42300.50
630.71	42658.60
630.86	42689.03
631.01	42625.84
631.16	42450.30
631.31	42380.08
631.46	42134.32
631.61	42302.84
631.76	42237.31
631.91	42251.35
632.06	42714.78
632.21	42824.78
632.36	42586.05
632.51	42029.00
632.66	42192.84
632.81	41963.46
632.96	42204.54
633.10	41897.93
633.25	41986.87
633.40	42220.92
633.55	42106.24
633.70	42419.87
633.85	42089.85
634.00	41804.31
634.15	42241.99
634.30	41745.80
634.45	41736.43
634.60	41993.89
634.75	42019.64
634.90	41993.89
635.05	41759.84
635.19	41738.77
635.34	42298.16
635.49	42052.41
635.64	42021.98
635.79	41560.89
635.94	41511.74
636.09	41563.23
636.24	41310.46
636.39	41165.34
636.53	41495.36
636.68	41422.80
636.83	41380.67
636.98	41865.16
637.13	41357.27
637.28	42014.96
637.43	41937.72
637.57	42019.64
637.72	41315.14
637.87	41247.26
638.02	41710.69
638.17	41530.47
638.32	41394.71
638.46	41134.92
638.61	41013.21
638.76	40910.22
638.91	41453.23
639.06	41212.15
639.20	41289.39
639.35	41310.46
639.50	41081.08
639.65	41062.36
639.80	41214.49
639.94	41081.08
640.09	41034.27
640.24	40446.80
640.39	40772.13
640.54	40229.13
640.68	41062.36
640.83	41029.59
640.98	40603.61
641.13	40505.31
641.27	41050.66
641.42	40802.56
641.57	40561.48
641.72	40058.27
641.86	40566.16
642.01	40407.01
642.16	39955.29
642.31	40062.95
642.45	40325.09
642.60	40432.75
642.75	40669.15
642.90	40701.92
643.04	40472.54
643.19	40367.22
643.34	40048.91
643.48	40802.56
643.63	39917.84
643.78	40271.26
643.93	40488.93
644.07	40081.67
644.22	40189.34
644.37	39732.93
644.51	40360.20
644.66	39400.58
644.81	39999.76
644.95	40608.29
645.10	39613.57
645.25	40128.48
645.39	40163.59
645.54	40212.74
645.69	40114.44
645.83	39894.43
645.98	40086.36
646.13	39367.81
646.27	40243.17
646.42	40222.11
646.57	39426.32
646.71	39674.42
646.86	39665.06
647.00	40163.59
647.15	39501.22
647.30	39239.08
647.44	39526.97
647.59	39187.59
647.74	39374.83
647.88	39648.68
648.03	39604.20
648.17	39929.54
648.32	39821.87
648.47	39377.17
648.61	39203.97
648.76	39772.72
648.90	39201.63
649.05	39353.77
649.20	39316.32
649.34	39075.24
649.49	38888.00
649.63	39084.61
649.78	39178.23
649.92	39548.03
650.07	39187.59
650.21	39414.62
650.36	39370.15
650.51	39122.05
650.65	39796.13
650.80	39405.26
650.94	39571.44
651.09	38478.41
651.23	39040.14
651.38	38939.49
651.52	38494.79
651.67	38883.32
651.81	38759.27
651.96	38782.68
652.10	38569.69
652.25	39012.05
652.39	38794.38
652.54	38660.97
652.68	38738.21
652.83	38785.02
652.97	38689.06
653.12	39040.14
653.26	38621.18
653.41	38822.47
653.55	38609.48
653.70	38602.46
653.84	38377.76
653.99	38272.44
654.13	38307.55
654.27	38082.86
654.42	37900.29
654.56	38211.59
654.71	38223.29
654.85	38471.39
655.00	38431.60
655.14	37748.16
655.29	37890.93
655.43	37811.35
655.57	38298.19
655.72	37535.17
655.86	37600.71
656.01	37071.75
656.15	37289.42
656.30	37441.55
656.44	37500.06
656.58	37560.92
656.73	37668.58
656.87	37696.67
657.01	37308.14
657.16	37443.89
657.30	37172.39
657.45	37060.04
657.59	37095.15
657.73	37832.42
657.88	37876.89
658.02	37961.15
658.16	38206.90
658.31	37479.00
658.45	37560.92
658.60	37366.65
658.74	37745.82
658.88	37270.69
659.03	36835.35
659.17	37104.51
659.31	37003.87
659.46	37055.36
659.60	37064.72
659.74	37383.04
659.89	36847.05
660.03	37036.64
660.17	37322.18
660.32	36854.08
660.46	36790.88
660.60	36966.42
660.74	36971.10
660.89	37158.34
661.03	36229.15
661.17	36699.60
661.32	36605.98
661.46	36257.24
661.60	36645.77
661.74	36620.02
661.89	36086.38
662.03	36477.25
662.17	36641.09
662.31	36250.22
662.46	36692.58
662.60	36704.28
662.74	36070.00
662.88	36418.74
663.03	35826.58
663.17	35985.74
663.31	36013.82
663.45	35674.45
663.60	35805.52
663.74	35782.11
663.88	35885.09
664.02	35653.38
664.17	35573.80
664.31	35157.19
664.45	35463.80
664.59	35269.53
664.73	35522.31
664.88	35828.92
665.02	35124.42
665.16	35330.39
665.30	35388.90
665.44	35508.27
665.59	34862.28
665.73	35208.68
665.87	34745.25
666.01	35283.58
666.15	35229.74
666.29	35023.78
666.44	35051.86
666.58	35119.74
666.72	35035.48
666.86	34611.84
667.00	34979.31
667.14	34595.46
667.28	34003.30
667.43	34625.89
667.57	34534.60
667.71	34771.00
667.85	34789.72
667.99	34312.25
668.13	34129.69
668.27	34852.92
668.41	34361.40
668.56	34022.03
668.70	34092.24
668.84	34066.50
668.98	33848.83
669.12	33872.23
669.26	33874.57
669.40	33593.71
669.54	33500.09
669.68	33195.82
669.82	33359.66
669.96	33280.08
670.10	32872.82
670.25	33298.80
670.39	33364.34
670.53	33315.19
670.67	32964.10
670.81	33270.72
670.95	32732.39
671.09	33083.47
671.23	33149.01
671.37	32751.12
671.51	32968.79
671.65	32690.26
671.79	32737.07
671.93	32910.27
672.07	33010.92
672.21	32788.56
672.35	32355.57
672.49	32524.08
672.63	32573.24
672.77	32095.77
672.91	32573.24
673.05	32280.67
673.19	31847.67
673.33	31917.89
673.47	31768.09
673.61	31805.54
673.75	31461.48
673.89	31367.86
674.03	31377.22
674.17	31555.10
674.31	31288.28
674.45	31613.62
674.59	31391.26
674.73	31709.58
674.87	31452.12
675.01	30988.69
675.15	30948.90
675.29	31108.06
675.43	31019.12
675.56	31213.38
675.70	30991.03
675.84	30646.97
675.98	29898.00
676.12	30630.59
676.26	30586.12
676.40	30693.79
676.54	30843.58
676.68	30546.33
676.82	29972.90
676.96	30164.82
677.10	30462.07
677.23	30045.46
677.37	29631.18
677.51	29907.37
677.65	29820.77
677.79	29296.49
677.93	29673.31
678.07	29235.63
678.21	28840.08
678.34	28994.56
678.48	28884.55
678.62	29067.11
678.76	28613.05
678.90	28575.60
679.04	28479.64
679.18	28545.17
679.31	28306.44
679.45	28507.72
679.59	28170.69
679.73	28325.16
679.87	28154.30
680.00	28161.33
680.14	28020.89
680.28	28245.58
680.42	27796.20
680.56	27718.96
680.70	27665.13
680.83	27840.67
680.97	27475.55
681.11	27803.22
681.25	27292.99
681.39	27438.10
681.52	27665.13
681.66	27311.71
681.80	27452.14
681.94	27271.92
682.07	26874.03
682.21	26738.28
682.35	26396.56
682.49	27124.47
682.62	26436.35
682.76	26288.90
682.90	26391.88
683.04	26476.14
683.17	25752.91
683.31	26590.83
683.45	26087.61
683.59	25766.96
683.72	25703.76
683.86	25848.88
684.00	25956.54
684.13	25844.20
684.27	25537.59
684.41	25081.18
684.55	25406.52
684.68	25479.07
684.82	25111.61
684.96	24978.20
685.09	25249.70
685.23	24819.04
685.37	24826.06
685.50	24907.98
685.64	24982.88
685.78	24563.92
685.91	24458.60
686.05	24367.32
686.19	24182.42
686.32	23838.36
686.46	23800.91
686.60	23632.39
686.73	23524.72
686.87	23068.32
687.01	23098.75
687.14	23138.54
687.28	23145.56
687.42	23475.57
687.55	23295.35
687.69	23342.16
687.82	22750.01
687.96	22927.89
688.10	23035.55
688.23	22951.29
688.37	22843.63
688.50	22398.93
688.64	22553.40
688.78	22665.75
688.91	22525.32
689.05	22443.40
689.18	22263.18
689.32	22139.13
689.46	22160.19
689.59	22595.53
689.73	22511.27
689.86	22022.10
690.00	22061.89
690.13	22087.64
690.27	21944.86
690.41	21645.27
690.54	21111.63
690.68	21399.52
690.81	21493.14
690.95	21633.57
691.08	20982.90
691.22	21172.49
691.35	21081.21
691.49	21504.84
691.62	21362.07
691.76	21432.29
691.89	21088.23
692.03	20900.98
692.16	20556.93
692.30	20783.96
692.43	20397.77
692.57	20042.01
692.70	20170.74
692.84	20042.01
692.97	20044.35
693.11	19772.85
693.24	20240.95
693.38	19470.92
693.51	19843.06
693.65	19744.76
693.78	19814.98
693.92	19548.15
694.05	19618.37
694.19	19503.68
694.32	19049.62
694.45	19424.11
694.59	19166.65
694.72	19400.70
694.86	19278.99
694.99	18824.93
695.13	19140.90
695.26	18881.10
695.39	18583.85
695.53	18974.72
695.66	18899.83
695.80	18717.26
695.93	18574.49
696.07	18277.24
696.20	18464.49
696.33	18396.61
696.47	18333.42
696.60	17846.58
696.73	17933.18
696.87	18118.09
697.00	18122.77
697.14	17556.36
697.27	17472.10
697.40	17614.87
697.54	17551.68
697.67	17282.52
697.80	17401.88
697.94	17341.03
698.07	17174.85
698.21	17214.64
698.34	16996.97
698.47	17123.36
698.61	16854.20
698.74	16798.02
698.87	16641.21
699.01	16552.27
699.14	16603.76
699.27	16395.45
699.40	16491.41
699.54	16505.46
699.67	16093.52
699.80	16341.62
699.94	15871.17
700.07	16250.34
700.20	15948.41
700.34	16313.53
700.47	16002.24
700.60	16142.67
700.73	16037.35
700.87	15744.78
701.00	15697.97
701.13	15726.06
701.26	15683.93
701.40	15351.57
701.53	15440.51
701.66	15379.66
701.79	15281.36
701.93	14946.66
702.06	14757.08
702.19	15023.90
702.32	15037.94
702.46	14820.27
702.59	14862.40
702.72	14883.47
702.85	14965.39
702.99	14904.53
703.12	14691.54
703.25	14422.38
703.38	14354.51
703.51	14593.24
703.65	14403.66
703.78	14310.04
703.91	14176.62
704.04	14122.79
704.17	14174.28
704.31	14185.99
704.44	13970.66
704.57	13848.95
704.70	13987.04
704.83	13919.17
704.96	13841.93
705.10	13722.56
705.23	13577.45
>>>>>End Processed Spectral Data<<<<<
