SpectraSuite Data File
++++++++++++++++++++++++++++++++++++
Date: Fri Oct 25 10:44:22 EDT 2013
User: price-jones
Dark Spectrum Present: No
Reference Spectrum Present: No
Number of Sampled Component Spectra: 1
Spectrometers: USB2+H05261
Integration Time (usec): 100000 (USB2+H05261)
Spectra Averaged: 1 (USB2+H05261)
Boxcar Smoothing: 0 (USB2+H05261)
Correct for Electrical Dark: No (USB2+H05261)
Strobe/Lamp Enabled: No (USB2+H05261)
Correct for Detector Non-linearity: No (USB2+H05261)
Correct for Stray Light: No (USB2+H05261)
Number of Pixels in Processed Spectrum: 2048
>>>>>Begin Processed Spectral Data<<<<<
365.73	79.58
365.92	79.58
366.12	79.58
366.32	0.00
366.52	23.41
366.72	14.04
366.91	25.75
367.11	67.88
367.31	0.00
367.51	11.70
367.70	44.47
367.90	25.75
368.10	0.00
368.30	44.47
368.49	42.13
368.69	37.45
368.89	65.54
369.09	23.41
369.28	18.72
369.48	72.56
369.68	9.36
369.87	42.13
370.07	84.26
370.27	152.13
370.47	236.39
370.66	341.72
370.86	416.62
371.06	435.34
371.25	484.49
371.45	430.66
371.65	482.15
371.84	442.36
372.04	498.53
372.24	425.98
372.44	414.27
372.63	493.85
372.83	540.66
373.03	535.98
373.22	524.28
373.42	470.45
373.62	547.69
373.81	524.28
374.01	610.88
374.21	624.92
374.40	564.07
374.60	543.00
374.79	606.20
374.99	636.63
375.19	704.50
375.38	676.41
375.58	622.58
375.78	603.86
375.97	599.18
376.17	629.60
376.37	634.29
376.56	657.69
376.76	683.44
376.95	592.16
377.15	559.39
377.35	664.71
377.54	662.37
377.74	636.63
377.93	692.80
378.13	681.10
378.33	669.39
378.52	641.31
378.72	685.78
378.91	674.07
379.11	662.37
379.31	697.48
379.50	734.93
379.70	720.88
379.89	760.67
380.09	699.82
380.28	770.04
380.48	748.97
380.68	702.16
380.87	737.27
381.07	741.95
381.26	779.40
381.46	716.20
381.65	753.65
381.85	858.98
382.04	777.06
382.24	725.57
382.43	755.99
382.63	688.12
382.83	688.12
383.02	746.63
383.22	699.82
383.41	734.93
383.61	788.76
383.80	777.06
384.00	767.70
384.19	882.38
384.39	781.74
384.58	748.97
384.78	809.83
384.97	830.89
385.17	730.25
385.36	791.10
385.56	779.40
385.75	816.85
385.95	840.25
386.14	837.91
386.34	833.23
386.53	926.85
386.72	873.02
386.92	908.13
387.11	861.32
387.31	898.77
387.50	957.28
387.70	833.23
387.89	901.11
388.09	971.32
388.28	889.40
388.48	938.55
388.67	976.00
388.86	947.92
389.06	938.55
389.25	1034.52
389.45	938.55
389.64	1057.92
389.84	1048.56
390.03	1013.45
390.22	994.73
390.42	1011.11
390.61	1074.31
390.81	1095.37
391.00	1069.62
391.19	1050.90
391.39	1144.52
391.58	1074.31
391.78	1088.35
391.97	1081.33
392.16	1151.54
392.36	1064.94
392.55	1081.33
392.75	1013.45
392.94	999.41
393.13	1025.15
393.33	1039.20
393.52	1076.65
393.71	1083.67
393.91	1146.86
394.10	1097.71
394.29	1153.88
394.49	1125.80
394.68	1100.05
394.88	1299.00
395.07	1210.06
395.26	1289.64
395.46	1231.12
395.65	1343.47
395.84	1247.51
396.04	1228.78
396.23	1177.29
396.42	1043.88
396.62	1259.21
396.81	1160.91
397.00	1282.61
397.19	1329.42
397.39	1390.28
397.58	1430.07
397.77	1451.13
397.97	1507.30
398.16	1565.82
398.35	1469.86
398.55	1472.20
398.74	1516.67
398.93	1511.99
399.12	1493.26
399.32	1586.88
399.51	1582.20
399.70	1685.19
399.90	1724.97
400.09	1643.06
400.28	1806.89
400.47	1668.80
400.67	1624.33
400.86	1724.97
401.05	1785.83
401.24	1783.49
401.44	1774.13
401.63	1708.59
401.82	1860.73
402.01	1837.32
402.21	1767.10
402.40	1837.32
402.59	1849.02
402.78	1886.47
402.97	1844.34
403.17	1954.35
403.36	1844.34
403.55	1893.49
403.74	1893.49
403.93	1921.58
404.13	1811.57
404.32	1820.94
404.51	1996.48
404.70	2031.58
404.89	1893.49
405.09	2125.21
405.28	2026.90
405.47	2024.56
405.66	2026.90
405.85	2052.65
406.05	2090.10
406.24	2036.27
406.43	2069.03
406.62	2193.08
406.81	2094.78
407.00	2244.57
407.20	2172.02
407.39	2108.82
407.58	2153.29
407.77	2307.77
407.96	2300.75
408.15	2314.79
408.34	2253.94
408.54	2401.39
408.73	2338.20
408.92	2382.67
409.11	2452.88
409.30	2370.96
409.49	2377.98
409.68	2410.75
409.87	2333.51
410.07	2485.65
410.26	2443.52
410.45	2487.99
410.64	2537.14
410.83	2731.41
411.02	2539.48
411.21	2726.72
411.40	2825.03
411.59	2715.02
411.78	2810.98
411.98	2729.06
412.17	2733.75
412.36	2829.71
412.55	2775.88
412.74	2789.92
412.93	2846.09
413.12	2918.65
413.31	2974.82
413.50	2963.12
413.69	2995.89
413.88	3026.31
414.07	3098.87
414.26	3023.97
414.45	3054.40
414.64	3077.80
414.83	3269.73
415.02	3190.15
415.22	3206.53
415.41	3274.41
415.60	3236.96
415.79	3260.37
415.98	3295.47
416.17	3396.12
416.36	3309.52
416.55	3339.94
416.74	3389.10
416.93	3304.84
417.12	3517.83
417.31	3595.06
417.50	3473.36
417.69	3618.47
417.88	3578.68
418.07	3531.87
418.26	3665.28
418.45	3655.92
418.64	3667.62
418.83	3803.37
419.02	3665.28
419.21	3721.45
419.39	3779.97
419.58	3637.19
419.77	3618.47
419.96	3728.47
420.15	3887.63
420.34	3719.11
420.53	3941.46
420.72	3786.99
420.91	3913.38
421.10	4035.08
421.29	3943.80
421.48	3955.51
421.67	3906.35
421.86	3955.51
422.05	3913.38
422.24	3990.61
422.43	4018.70
422.61	3934.44
422.80	4131.05
422.99	4058.49
423.18	4112.32
423.37	3974.23
423.56	3925.08
423.75	4023.38
423.94	3976.57
424.13	3899.33
424.32	3836.14
424.50	4121.68
424.69	4163.81
424.88	4194.24
425.07	3960.19
425.26	4147.43
425.45	4035.08
425.64	4053.81
425.83	4145.09
426.01	4201.26
426.20	4007.00
426.39	4126.36
426.58	3985.93
426.77	4023.38
426.96	3967.21
427.15	4124.02
427.33	4147.43
427.52	4161.47
427.71	4388.50
427.90	4325.31
428.09	4306.59
428.28	4442.34
428.46	4369.78
428.65	4458.72
428.84	4276.16
429.03	4379.14
429.22	4283.18
429.40	4292.54
429.59	4341.69
429.78	4009.34
429.97	4063.17
430.16	4074.87
430.34	4318.29
430.53	4430.63
430.72	4273.82
430.91	4395.53
431.10	4498.51
431.28	4739.58
431.47	4814.48
431.66	4786.40
431.85	4795.76
432.03	4734.90
432.22	4882.36
432.41	4734.90
432.60	4704.48
432.79	4940.87
432.97	5006.41
433.16	4957.25
433.35	4610.86
433.54	4791.08
433.72	4882.36
433.91	4849.59
434.10	4865.97
434.28	4947.89
434.47	4964.28
434.66	5104.71
434.85	5228.76
435.03	5029.81
435.22	5165.56
435.41	5259.18
435.59	5266.21
435.78	5256.84
435.97	5383.23
436.16	5247.48
436.34	5434.72
436.53	5219.39
436.72	5533.03
436.90	5172.58
437.09	5324.72
437.28	5242.80
437.46	5320.04
437.65	5411.32
437.84	5378.55
438.02	5364.51
438.21	5247.48
438.40	5327.06
438.58	5579.84
438.77	5582.18
438.96	5607.92
439.14	5652.39
439.33	5900.49
439.52	5741.33
439.70	5827.93
439.89	5870.06
440.08	5987.09
440.26	5998.79
440.45	5895.81
440.63	5905.17
440.82	6176.67
441.01	6197.74
441.19	6181.35
441.38	6218.80
441.57	6181.35
441.75	6511.37
441.94	6558.18
442.12	6459.88
442.31	6698.61
442.50	6654.14
442.68	6541.80
442.87	6527.75
443.05	6394.34
443.24	6574.56
443.43	6651.80
443.61	6724.36
443.80	6885.86
443.98	6768.83
444.17	6427.11
444.35	6703.29
444.54	6677.55
444.73	6761.81
444.91	6677.55
445.10	6810.96
445.28	6740.74
445.47	6619.04
445.65	6677.55
445.84	6799.26
446.02	6806.28
446.21	6717.34
446.39	6775.85
446.58	6785.21
446.77	6822.66
446.95	6759.47
447.14	6841.39
447.32	6986.50
447.51	7077.78
447.69	7037.99
447.88	6995.86
448.06	6906.92
448.25	6839.05
448.43	7084.80
448.62	7012.24
448.80	6895.22
448.99	7002.88
449.17	6951.39
449.36	7098.84
449.54	7201.83
449.73	7403.11
449.91	7522.48
450.10	7302.47
450.28	7445.24
450.46	7274.38
450.65	7531.84
450.83	7478.01
451.02	7438.22
451.20	7447.58
451.39	7393.75
451.57	7407.80
451.76	7328.22
451.94	7510.78
452.13	7564.61
452.31	7487.37
452.49	7452.27
452.68	7403.11
452.86	7382.05
453.05	7611.42
453.23	7616.10
453.42	7461.63
453.60	7599.72
453.78	7611.42
453.97	7791.64
454.15	7669.94
454.34	7616.10
454.52	7812.71
454.70	7749.51
454.89	7822.07
455.07	7707.38
455.26	7801.01
455.44	8236.35
455.62	8114.64
455.81	7960.16
455.99	8304.22
456.17	8112.30
456.36	8156.77
456.54	8011.65
456.73	8365.07
456.91	8526.57
457.09	8428.27
457.28	8454.02
457.46	8196.56
457.64	8451.67
457.83	8355.71
458.01	8100.59
458.19	8503.17
458.38	8489.12
458.56	8575.72
458.74	8664.66
458.93	8449.33
459.11	8554.66
459.29	8610.83
459.48	8730.20
459.66	8535.93
459.84	8641.26
460.03	8793.39
460.21	8964.25
460.39	8723.18
460.57	8741.90
460.76	9085.96
460.94	8940.85
461.12	8945.53
461.31	8992.34
461.49	8945.53
461.67	8840.20
461.85	9102.34
462.04	9163.20
462.22	9324.69
462.40	9334.06
462.59	9200.65
462.77	9170.22
462.95	9097.66
463.13	9231.07
463.32	9355.12
463.50	9378.53
463.68	9451.08
463.86	9413.63
464.05	9128.09
464.23	9151.49
464.41	9483.85
464.59	9238.09
464.78	9511.94
464.96	9495.55
465.14	9420.66
465.32	9528.32
465.50	9790.46
465.69	9516.62
465.87	9603.22
466.05	9540.02
466.23	9493.21
466.41	9661.73
466.60	9671.09
466.78	9565.77
466.96	9465.13
467.14	9579.81
467.32	9867.70
467.51	9554.07
467.69	9612.58
467.87	9895.78
468.05	9923.87
468.23	9795.14
468.41	9563.43
468.60	9748.33
468.78	9968.34
468.96	9919.19
469.14	9977.70
469.32	10066.64
469.50	9860.68
469.69	10113.45
469.87	10111.11
470.05	9966.00
470.23	10246.87
470.41	10132.18
470.59	10118.14
470.77	10216.44
470.95	10523.05
471.14	10518.37
471.32	10209.42
471.50	10885.83
471.68	10466.88
471.86	10747.74
472.04	10703.27
472.22	11012.22
472.40	10864.77
472.58	10834.34
472.77	10782.85
472.95	10881.15
473.13	11260.32
473.31	10841.36
473.49	10839.02
473.67	10937.32
473.85	10934.98
474.03	11323.51
474.21	11335.21
474.39	11583.31
474.57	11281.38
474.75	11618.42
474.93	11461.60
475.12	11445.22
475.30	11566.93
475.48	11557.57
475.66	11517.78
475.84	11398.41
476.02	11698.00
476.20	11623.10
476.38	12194.19
476.56	12510.16
476.74	12154.40
476.92	12201.21
477.10	12131.00
477.28	12592.08
477.46	12833.16
477.64	12800.39
477.82	12737.20
478.00	12957.21
478.18	12975.93
478.36	13193.60
478.54	13125.72
478.72	13099.98
478.90	13362.12
479.08	13640.64
479.26	13565.74
479.44	13584.47
479.62	13495.53
479.80	13713.20
479.98	13874.70
480.16	14347.48
480.34	14232.80
480.52	14422.38
480.70	14452.81
480.88	14242.16
481.06	14345.14
481.24	14422.38
481.41	14899.85
481.59	15084.75
481.77	14860.06
481.95	15136.24
482.13	15213.48
482.31	14860.06
482.49	15461.58
482.67	15288.38
482.85	15538.82
483.03	15398.38
483.21	15667.55
483.39	15742.44
483.57	15875.85
483.74	16175.44
483.92	16128.63
484.10	16107.57
484.28	16187.14
484.46	16496.10
484.64	16470.35
484.82	16673.98
485.00	16610.78
485.18	16872.92
485.35	16959.52
485.53	16631.85
485.71	16580.36
485.89	17067.19
486.07	17076.55
486.25	16842.50
486.43	17352.73
486.61	17645.30
486.78	17790.41
486.96	17741.26
487.14	18438.74
487.32	18387.25
487.50	18602.58
487.68	19058.98
487.85	19047.28
488.03	18904.51
488.21	19302.40
488.39	18806.20
488.57	19309.42
488.75	19417.08
488.92	19728.38
489.10	19957.75
489.28	19936.68
489.46	20280.74
489.64	20269.04
489.81	20798.00
489.99	20652.89
490.17	21055.46
490.35	20847.15
490.53	20732.47
490.70	21034.39
490.88	21179.51
491.06	21596.12
491.24	20982.90
491.41	21495.48
491.59	21619.53
491.77	21202.91
491.95	21584.42
492.13	21933.16
492.30	22174.24
492.48	22192.96
492.66	22398.93
492.84	22223.39
493.01	22431.69
493.19	22621.28
493.37	22801.50
493.54	23023.85
493.72	23070.66
493.90	23414.72
494.08	23529.41
494.25	23971.77
494.43	23718.99
494.61	23878.15
494.79	24430.51
494.96	24294.76
495.14	24156.67
495.32	24383.70
495.49	24606.05
495.67	24680.95
495.85	24828.40
496.02	25165.44
496.20	25324.60
496.38	25289.49
496.55	25656.95
496.73	26178.89
496.91	25553.97
497.09	25727.17
497.26	25806.75
497.44	25961.22
497.62	26043.14
497.79	26225.70
497.97	25781.00
498.14	26066.55
498.32	26333.37
498.50	26410.60
498.67	27091.70
498.85	26768.71
499.03	27016.80
499.20	26780.41
499.38	27215.75
499.56	27026.17
499.73	27300.01
499.91	27550.45
500.08	27295.33
500.26	27410.01
500.44	27400.65
500.61	27388.95
500.79	27557.47
500.97	27559.81
501.14	27828.97
501.32	27613.64
501.49	27821.95
501.67	28301.76
501.84	28517.09
502.02	28177.71
502.20	28460.91
502.37	28334.53
502.55	28512.41
502.72	28514.75
502.90	28680.92
503.07	28804.97
503.25	28858.81
503.43	29008.60
503.60	28811.99
503.78	28938.38
503.95	28968.81
504.13	29408.83
504.30	29575.01
504.48	29380.74
504.65	29598.41
504.83	29940.13
505.01	30029.07
505.18	30024.39
505.36	30272.49
505.53	30087.59
505.71	30789.75
505.88	30375.47
506.06	30176.53
506.23	30534.63
506.41	30384.83
506.58	30581.44
506.76	30356.75
506.93	30862.30
507.11	30899.75
507.28	31098.70
507.46	30675.06
507.63	31096.36
507.81	30991.03
507.98	31262.54
508.16	31562.12
508.33	31281.26
508.50	31304.67
508.68	32105.13
508.85	32165.98
509.03	31962.36
509.20	31770.43
509.38	32332.16
509.55	32297.05
509.73	32070.02
509.90	32063.00
510.08	32100.45
510.25	32044.27
510.42	32517.06
510.60	32528.77
510.77	32507.70
510.95	32978.15
511.12	32893.89
511.30	33102.20
511.47	33666.27
511.64	33401.79
511.82	33596.05
511.99	33165.39
512.17	33113.90
512.34	33479.02
512.51	33343.27
512.69	33596.05
512.86	33710.74
513.04	34096.92
513.21	34029.05
513.38	33680.31
513.56	33818.40
513.73	33448.60
513.90	33867.55
514.08	33851.17
514.25	34267.78
514.43	33965.85
514.60	34298.21
514.77	34284.17
514.95	34792.06
515.12	34438.64
515.29	34078.20
515.47	34726.53
515.64	34675.04
515.81	34899.73
515.99	34543.97
516.16	34864.62
516.33	34288.85
516.51	34721.85
516.68	34195.23
516.85	33621.80
517.03	34263.10
517.20	34782.70
517.37	35166.55
517.54	35285.92
517.72	35093.99
517.89	35061.22
518.06	34918.45
518.24	34808.45
518.41	35129.10
518.58	35187.61
518.75	35344.43
518.93	35800.83
519.10	35728.28
519.27	35910.84
519.45	35821.90
519.62	36156.60
519.79	36002.12
519.96	36273.62
520.14	36446.82
520.31	36362.56
520.48	36163.62
520.65	36432.78
520.83	36692.58
521.00	37102.17
521.17	36823.65
521.34	36931.31
521.52	37518.79
521.69	37170.05
521.86	37570.28
522.03	36999.19
522.20	37397.08
522.38	37294.10
522.55	37525.81
522.72	37703.69
522.89	37392.40
523.07	37397.08
523.24	37205.16
523.41	38012.64
523.58	38227.97
523.75	38366.06
523.92	38169.46
524.10	38274.78
524.27	38092.22
524.44	37804.33
524.61	38728.84
524.78	38375.42
524.96	38469.04
525.13	38232.65
525.30	39049.50
525.47	39021.41
525.64	38944.17
525.81	38305.21
525.98	38597.77
526.16	38579.05
526.33	38497.13
526.50	38637.56
526.67	38314.57
526.84	37949.45
527.01	38160.09
527.18	38682.03
527.36	39112.69
527.53	39299.94
527.70	39559.73
527.87	39505.90
528.04	39421.64
528.21	39559.73
528.38	39344.41
528.55	39810.17
528.72	40002.10
528.89	40112.10
529.07	39938.90
529.24	39702.51
529.41	40027.84
529.58	39643.99
529.75	40013.80
529.92	39709.53
530.09	40231.47
530.26	40072.31
530.43	40390.62
530.60	40484.25
530.77	40381.26
530.94	40535.74
531.11	40662.13
531.28	40549.78
531.46	40233.81
531.63	40491.27
531.80	40498.29
531.97	40065.29
532.14	40217.43
532.31	40128.48
532.48	40620.00
532.65	40519.35
532.82	40538.08
532.99	40711.28
533.16	40538.08
533.33	40402.33
533.50	40947.67
533.67	41308.11
533.84	40725.32
534.01	41324.50
534.18	40935.97
534.35	41333.86
534.52	41045.97
534.69	41219.17
534.86	41511.74
535.03	41500.04
535.20	41963.46
535.37	41832.39
535.54	42113.26
535.71	41411.10
535.88	41551.53
536.05	41551.53
536.22	41738.77
536.38	41563.23
536.55	41823.03
536.72	41600.68
536.89	41502.38
537.06	41713.03
537.23	41813.67
537.40	41720.05
537.57	42274.76
537.74	41926.02
537.91	42146.03
538.08	42157.73
538.25	42080.49
538.42	41975.17
538.59	42426.89
538.75	42171.77
538.92	42424.55
539.09	42462.00
539.26	42553.28
539.43	42281.78
539.60	42440.93
539.77	42485.40
539.94	42337.95
540.11	42220.92
540.28	42330.93
540.44	42588.39
540.61	42141.35
540.78	42646.90
540.95	42122.62
541.12	42457.32
541.29	42637.54
541.46	42583.71
541.62	42855.21
541.79	43426.30
541.96	42754.57
542.13	42621.16
542.30	42883.30
542.47	42810.74
542.63	43262.46
542.80	43131.39
542.97	43997.39
543.14	43824.19
543.31	43662.69
543.48	43775.04
543.64	44079.31
543.81	44128.46
543.98	44189.31
544.15	44158.89
544.32	43871.00
544.48	44020.80
544.65	44184.63
544.82	44013.77
544.99	43484.81
545.16	43599.50
545.32	43948.24
545.49	44610.61
545.66	44027.82
545.83	44186.97
546.00	44240.81
546.16	43992.71
546.33	44058.24
546.50	43819.51
546.67	44264.21
546.83	43892.07
547.00	44280.60
547.17	44135.48
547.34	43803.13
547.50	44329.75
547.67	44252.51
547.84	44624.65
548.00	44034.84
548.17	44987.44
548.34	44793.17
548.51	44898.50
548.67	44753.38
548.84	44786.15
549.01	44804.88
549.18	44465.50
549.34	44514.65
549.51	44783.81
549.68	45097.44
549.84	44900.84
550.01	45141.91
550.18	44765.09
550.34	45001.48
550.51	45034.25
550.68	45020.20
550.84	44795.51
551.01	45612.36
551.18	45404.05
551.34	45146.59
551.51	45006.16
551.68	45291.71
551.84	45212.13
552.01	45191.06
552.18	45184.04
552.34	45294.05
552.51	45338.52
552.68	45502.35
552.84	45605.34
553.01	45450.86
553.18	45315.11
553.34	45319.79
553.51	45045.95
553.67	45420.44
553.84	46099.19
554.01	45862.80
554.17	45467.25
554.34	45579.59
554.51	45642.79
554.67	46061.74
554.84	45443.84
555.00	45771.52
555.17	45591.30
555.33	45890.88
555.50	45481.29
555.67	45862.80
555.83	45528.10
556.00	45900.25
556.16	45759.81
556.33	45598.32
556.50	45720.02
556.66	46082.81
556.83	45598.32
556.99	45715.34
557.16	46057.06
557.32	45954.08
557.49	46146.00
557.65	45778.54
557.82	46106.21
557.98	46146.00
558.15	45677.90
558.32	46087.49
558.48	45502.35
558.65	45783.22
558.81	45595.98
558.98	46017.27
559.14	45710.66
559.31	45956.42
559.47	45720.02
559.64	46450.27
559.80	46183.45
559.97	46630.49
560.13	46024.29
560.30	45890.88
560.46	46174.09
560.63	46417.50
560.79	46623.47
560.96	46454.95
561.12	46511.13
561.29	46396.44
561.45	45797.26
561.61	46288.77
561.78	45986.85
561.94	46092.17
562.11	45998.55
562.27	46679.64
562.44	46272.39
562.60	46508.79
562.77	46632.83
562.93	46763.90
563.10	46473.68
563.26	46265.37
563.42	46494.74
563.59	46635.17
563.75	45933.01
563.92	46515.81
564.08	46576.66
564.24	46623.47
564.41	46616.45
564.57	46637.51
564.74	46370.69
564.90	46358.99
565.07	46628.15
565.23	46464.32
565.39	46670.28
565.56	46660.92
565.72	45986.85
565.88	46529.85
566.05	46326.22
566.21	46637.51
566.38	46211.54
566.54	46571.98
566.70	46766.24
566.87	47075.19
567.03	46550.91
567.19	46934.76
567.36	46600.07
567.52	46651.56
567.68	46674.96
567.85	46808.37
568.01	46791.99
568.17	46794.33
568.34	47004.98
568.50	46899.65
568.66	46101.53
568.83	47164.14
568.99	46541.55
569.15	46586.02
569.32	46808.37
569.48	46740.50
569.64	47283.50
569.81	46962.85
569.97	46447.93
570.13	46588.36
570.30	46820.08
570.46	46213.88
570.62	46178.77
570.78	46543.89
570.95	46557.94
571.11	47304.57
571.27	46511.13
571.43	46946.47
571.60	46806.03
571.76	46590.70
571.92	46749.86
572.09	46932.42
572.25	47065.83
572.41	46794.33
572.57	47007.32
572.74	47374.78
572.90	46967.53
573.06	47077.54
573.22	46705.39
573.38	46696.03
573.55	46845.82
573.71	46747.52
573.87	47180.52
574.03	46904.34
574.20	47075.19
574.36	46967.53
574.52	46904.34
574.68	47023.70
574.84	46932.42
575.01	46906.68
575.17	46677.30
575.33	46689.01
575.49	46380.06
575.65	47051.79
575.82	46995.62
575.98	46892.63
576.14	47103.28
576.30	47393.51
576.46	46934.76
576.62	46873.91
576.79	46616.45
576.95	46773.27
577.11	46864.55
577.27	47091.58
577.43	47072.85
577.59	46527.51
577.75	46539.21
577.92	46171.75
578.08	46714.75
578.24	46560.28
578.40	46628.15
578.56	47033.07
578.72	46976.89
578.88	46728.80
579.04	47037.75
579.21	46768.58
579.37	46749.86
579.53	47028.38
579.69	46412.82
579.85	46405.80
580.01	47253.08
580.17	47147.75
580.33	47199.24
580.49	47267.12
580.65	46791.99
580.82	46813.05
580.98	46932.42
581.14	47271.80
581.30	47124.35
581.46	47100.94
581.62	47545.64
581.78	47215.63
581.94	47405.21
582.10	47035.41
582.26	47173.50
582.42	46763.90
582.58	47133.71
582.74	46686.67
582.90	46742.84
583.06	47302.23
583.22	47058.81
583.38	47393.51
583.54	47543.30
583.70	47021.36
583.86	47342.02
584.02	46918.38
584.18	47152.43
584.34	47033.07
584.50	46550.91
584.66	46897.31
584.82	46864.55
584.98	47332.65
585.14	47356.06
585.30	47107.96
585.46	47175.84
585.62	46604.75
585.78	47033.07
585.94	46328.56
586.10	47129.03
586.26	47136.05
586.42	47236.69
586.58	47222.65
586.74	47002.64
586.90	46932.42
587.06	47297.55
587.22	46831.78
587.38	46775.61
587.54	47217.97
587.70	47021.36
587.86	47140.73
588.02	47082.22
588.18	47391.17
588.34	46892.63
588.49	46817.74
588.65	46382.40
588.81	46501.76
588.97	46665.60
589.13	46342.61
589.29	46539.21
589.45	46871.57
589.61	46693.69
589.77	47124.35
589.93	46745.18
590.08	47072.85
590.24	47157.11
590.40	47143.07
590.56	47400.53
590.72	47571.39
590.88	46735.82
591.04	47365.42
591.20	47395.85
591.35	47470.75
591.51	47201.58
591.67	47241.37
591.83	47065.83
591.99	47023.70
592.15	47037.75
592.31	47173.50
592.46	46759.22
592.62	47098.60
592.78	47283.50
592.94	47379.46
593.10	46979.23
593.26	47243.71
593.41	46946.47
593.57	46831.78
593.73	47119.66
593.89	47203.92
594.05	47257.76
594.20	47040.09
594.36	47344.36
594.52	46714.75
594.68	47199.24
594.84	47051.79
594.99	47459.04
595.15	47217.97
595.31	47419.25
595.47	47342.02
595.62	47370.10
595.78	46831.78
595.94	47138.39
596.10	47440.32
596.25	47093.92
596.41	47611.18
596.57	47185.20
596.73	47426.28
596.88	47320.95
597.04	47351.38
597.20	47061.15
597.36	47243.71
597.51	47826.51
597.67	47224.99
597.83	47437.98
597.99	46969.87
598.14	47435.64
598.30	47122.01
598.46	47100.94
598.61	47421.59
598.77	46894.97
598.93	47171.16
599.09	47264.78
599.24	47978.64
599.40	47393.51
599.56	47351.38
599.71	47475.43
599.87	47260.10
600.03	47255.42
600.18	47140.73
600.34	47257.76
600.50	47552.66
600.65	47145.41
600.81	47356.06
600.97	47274.14
601.12	47215.63
601.28	47360.74
601.44	46890.29
601.59	47016.68
601.75	46841.14
601.91	46909.02
602.06	46782.63
602.22	47129.03
602.37	46824.76
602.53	46866.89
602.69	47426.28
602.84	47297.55
603.00	46960.51
603.16	47358.40
603.31	47246.05
603.47	47028.38
603.62	47459.04
603.78	47426.28
603.94	47131.37
604.09	47379.46
604.25	47304.57
604.40	47089.24
604.56	47360.74
604.71	46789.65
604.87	46768.58
605.03	47423.93
605.18	46504.10
605.34	46911.36
605.49	46923.06
605.65	46955.83
605.80	47297.55
605.96	46857.52
606.12	46656.24
606.27	47072.85
606.43	46742.84
606.58	46925.40
606.74	46473.68
606.89	47012.00
607.05	46630.49
607.20	46789.65
607.36	46887.95
607.51	46979.23
607.67	47077.54
607.82	47154.77
607.98	46672.62
608.13	46417.50
608.29	46726.46
608.44	46747.52
608.60	46377.72
608.75	46553.26
608.91	46747.52
609.06	46485.38
609.22	46969.87
609.37	46431.55
609.53	46806.03
609.68	46382.40
609.84	46770.93
609.99	46681.98
610.15	46579.00
610.30	46368.35
610.46	46391.76
610.61	46358.99
610.76	46461.97
610.92	46597.73
611.07	46843.48
611.23	46417.50
611.38	46253.67
611.54	46108.55
611.69	46206.86
611.84	46527.51
612.00	46197.49
612.15	45734.07
612.31	46033.66
612.46	46309.84
612.62	46099.19
612.77	46309.84
612.92	46747.52
613.08	45865.14
613.23	46256.01
613.39	46185.79
613.54	45734.07
613.69	46061.74
613.85	45766.84
614.00	46087.49
614.15	46321.54
614.31	46321.54
614.46	46616.45
614.62	46169.41
614.77	45982.16
614.92	46232.60
615.08	45902.59
615.23	45837.05
615.38	46082.81
615.54	45818.33
615.69	45734.07
615.84	45893.22
616.00	45731.73
616.15	45713.00
616.30	45970.46
616.46	45780.88
616.61	45380.65
616.76	45268.30
616.92	45710.66
617.07	44713.59
617.22	45006.16
617.37	45202.77
617.53	45734.07
617.68	45764.49
617.83	45785.56
617.99	45869.82
618.14	45364.26
618.29	45485.97
618.45	45212.13
618.60	45198.09
618.75	45455.54
618.90	45387.67
619.06	45457.88
619.21	45186.38
619.36	45607.68
619.51	45425.12
619.67	44921.90
619.82	45614.70
619.97	45221.49
620.12	45160.64
620.28	44854.03
620.43	45244.90
620.58	44837.64
620.73	45109.14
620.89	44954.67
621.04	44910.20
621.19	44804.88
621.34	45118.51
621.49	44423.37
621.65	44563.80
621.80	45181.70
621.95	44669.12
622.10	44720.62
622.25	44339.11
622.41	44472.52
622.56	44769.77
622.71	44479.54
622.86	44203.36
623.01	45141.91
623.16	44194.00
623.32	44390.60
623.47	44355.49
623.62	44495.92
623.77	44011.43
623.92	44411.67
624.07	44601.25
624.23	44467.84
624.38	44514.65
624.53	43981.01
624.68	44477.20
624.83	44072.29
624.98	44163.57
625.13	43665.03
625.29	44123.78
625.44	43936.54
625.59	44032.50
625.74	43213.31
625.89	43662.69
626.04	43950.58
626.19	43655.67
626.34	43866.32
626.49	43634.61
626.65	43615.88
626.80	44341.45
626.95	44184.63
627.10	43337.36
627.25	43901.43
627.40	43508.22
627.55	43168.84
627.70	43379.49
627.85	43344.38
628.00	43466.09
628.15	43786.74
628.30	43278.85
628.45	43632.27
628.60	43449.70
628.76	43639.29
628.91	43405.23
629.06	43667.37
629.21	43419.28
629.36	43639.29
629.51	42892.66
629.66	43316.29
629.81	42862.23
629.96	43070.54
630.11	43229.69
630.26	43587.80
630.41	43283.53
630.56	43440.34
630.71	43136.07
630.86	42815.42
631.01	42831.80
631.16	43070.54
631.31	42906.70
631.46	42557.96
631.61	43173.52
631.76	42838.83
631.91	42728.82
632.06	43210.97
632.21	43152.46
632.36	42831.80
632.51	42887.98
632.66	42799.04
632.81	42066.45
632.96	42560.30
633.10	42637.54
633.25	43044.79
633.40	42487.74
633.55	42572.00
633.70	42490.09
633.85	42710.10
634.00	42396.46
634.15	42813.08
634.30	42359.02
634.45	42195.18
634.60	42099.22
634.75	42387.10
634.90	42370.72
635.05	42632.86
635.19	42064.11
635.34	42307.52
635.49	42410.51
635.64	42096.88
635.79	42092.19
635.94	42199.86
636.09	42054.75
636.24	41972.83
636.39	41832.39
636.53	41923.68
636.68	41909.63
636.83	41961.12
636.98	41958.78
637.13	41701.32
637.28	41748.14
637.43	42169.43
637.57	41792.61
637.72	41972.83
637.87	41214.49
638.02	41869.84
638.17	41935.38
638.32	41979.85
638.46	41991.55
638.61	41560.89
638.76	41745.80
638.91	41804.31
639.06	41830.05
639.20	41649.83
639.35	41865.16
639.50	41593.66
639.65	41996.23
639.80	41930.70
639.94	41081.08
640.09	41399.40
640.24	41675.58
640.39	40950.01
640.54	41373.65
640.68	41443.87
640.83	41256.62
640.98	41340.88
641.13	40814.26
641.27	41120.87
641.42	41123.21
641.57	41036.61
641.72	41294.07
641.86	40622.34
642.01	41074.06
642.16	40439.78
642.31	40795.54
642.45	40840.01
642.60	40500.63
642.75	40870.43
642.90	41191.09
643.04	40662.13
643.19	40683.19
643.34	40683.19
643.48	40451.48
643.63	40732.34
643.78	40074.65
643.93	40191.68
644.07	40636.38
644.22	40472.54
644.37	40172.96
644.51	40502.97
644.66	40905.54
644.81	40435.10
644.95	40900.86
645.10	40591.91
645.25	40161.25
645.39	40746.39
645.54	40215.08
645.69	40612.98
645.83	40428.07
645.98	40041.88
646.13	40353.18
646.27	40428.07
646.42	40229.13
646.57	40444.46
646.71	40041.88
646.86	40460.84
647.00	40474.88
647.15	40229.13
647.30	40226.79
647.44	39817.19
647.59	40053.59
647.74	39622.93
647.88	39943.58
648.03	40072.31
648.17	39873.37
648.32	39529.31
648.47	40051.25
648.61	39775.06
648.76	40016.14
648.90	39555.05
649.05	39145.46
649.20	39660.38
649.34	39477.82
649.49	39395.90
649.63	38951.20
649.78	39447.39
649.92	39398.24
650.07	40034.86
650.21	39248.44
650.36	39798.47
650.51	39377.17
650.65	39566.76
650.80	40243.17
650.94	39887.41
651.09	39999.76
651.23	39229.72
651.38	39459.09
651.52	38916.09
651.67	39400.58
651.81	39433.35
651.96	39250.78
652.10	39313.98
652.25	38941.83
652.39	39154.82
652.54	39203.97
652.68	39208.65
652.83	38979.28
652.97	39129.08
653.12	39065.88
653.26	38501.81
653.41	38649.27
653.55	38679.69
653.70	38483.09
653.84	38635.22
653.99	38897.36
654.13	38794.38
654.27	38859.91
654.42	38918.43
654.56	38525.22
654.71	38759.27
654.85	38969.92
655.00	38508.83
655.14	38309.89
655.29	38522.88
655.43	38239.67
655.57	38106.26
655.72	38129.67
655.86	37944.76
656.01	37794.97
656.15	37979.87
656.30	38347.34
656.44	37687.31
656.58	37717.73
656.73	37766.88
656.87	38113.28
657.01	38092.22
657.16	38068.81
657.30	37783.27
657.45	37914.34
657.59	38340.32
657.73	38075.84
657.88	38455.00
658.02	38260.74
658.16	38195.20
658.31	38288.82
658.45	37818.38
658.60	37663.90
658.74	37816.04
658.88	38293.50
659.03	37764.54
659.17	37675.60
659.31	37619.43
659.46	37209.84
659.60	37738.80
659.74	37598.37
659.89	37284.73
660.03	37549.21
660.17	37078.77
660.32	37188.77
660.46	37818.38
660.60	37212.18
660.74	37387.72
660.89	37518.79
661.03	36851.73
661.17	36851.73
661.32	36973.44
661.46	36641.09
661.60	37069.40
661.74	36833.01
661.89	37064.72
662.03	36739.39
662.17	36786.20
662.31	36655.13
662.46	37069.40
662.60	36865.78
662.74	36559.17
662.88	36723.01
663.03	36009.14
663.17	36353.20
663.31	36383.63
663.45	36552.15
663.60	36374.27
663.74	35983.40
663.88	36053.61
664.02	36208.09
664.17	36598.96
664.31	36147.23
664.45	36224.47
664.59	35810.20
664.73	35669.76
664.88	35723.60
665.02	35639.34
665.16	35885.09
665.30	35351.45
665.44	35672.10
665.59	35302.30
665.73	35358.47
665.87	35421.67
666.01	35627.63
666.15	35468.48
666.29	35323.36
666.44	35585.50
666.58	35477.84
666.72	35084.63
666.86	35232.08
667.00	35161.87
667.14	34838.87
667.28	34689.08
667.43	34417.58
667.57	34871.64
667.71	34801.43
667.85	34834.19
667.99	34616.52
668.13	34726.53
668.27	34852.92
668.41	34417.58
668.56	34473.75
668.70	34754.61
668.84	34546.31
668.98	34092.24
669.12	33937.77
669.26	34019.69
669.40	33582.01
669.54	33865.21
669.68	34321.62
669.82	33474.34
669.96	33422.85
670.10	33982.24
670.25	34029.05
670.39	33799.68
670.53	33605.41
670.67	33596.05
670.81	33640.52
670.95	33631.16
671.09	33235.61
671.23	33553.92
671.37	33326.89
671.51	33249.65
671.65	33181.77
671.79	32989.85
671.93	32765.16
672.07	33137.30
672.21	32767.50
672.35	32861.12
672.49	33053.05
672.63	32968.79
672.77	32856.44
672.91	33017.94
673.05	32591.96
673.19	32362.59
673.33	31857.03
673.47	31976.40
673.61	32116.83
673.75	32175.34
673.89	31637.02
674.03	31887.46
674.17	31908.52
674.31	31894.48
674.45	31648.72
674.59	31686.17
674.73	32041.93
674.87	31749.37
675.01	31555.10
675.15	31524.68
675.29	31255.51
675.43	31377.22
675.56	31192.32
675.70	30981.67
675.84	30991.03
675.98	30422.28
676.12	30815.49
676.26	31026.14
676.40	30735.92
676.54	30810.81
676.68	31236.79
676.82	30221.00
676.96	30756.98
677.10	30363.77
677.23	30419.94
677.37	30129.72
677.51	29893.32
677.65	29944.81
677.79	29991.62
677.93	29656.93
678.07	29699.06
678.21	29039.03
678.34	29345.64
678.48	29558.63
678.62	29259.04
678.76	28704.33
678.90	28931.36
679.04	29118.60
679.18	28727.74
679.31	28584.96
679.45	28311.12
679.59	28070.04
679.73	28533.47
679.87	28547.51
680.00	28648.16
680.14	28486.66
680.28	28002.17
680.42	28098.13
680.56	28187.07
680.70	28020.89
680.83	27903.87
680.97	28112.17
681.11	28102.81
681.25	27889.82
681.39	27632.36
681.52	27702.58
681.66	27674.49
681.80	27826.63
681.94	27040.21
682.07	27173.62
682.21	26967.65
682.35	27164.26
682.49	27190.00
682.62	27007.44
682.76	26745.30
682.90	26656.36
683.04	26911.48
683.17	26129.74
683.31	26356.77
683.45	26279.54
683.59	25958.88
683.72	25947.18
683.86	26244.43
684.00	26031.44
684.13	26019.74
684.27	25635.89
684.41	25654.61
684.55	25773.98
684.68	25450.99
684.82	25710.78
684.96	25551.63
685.09	25172.46
685.23	25268.42
685.37	25116.29
685.50	25113.95
685.64	25106.93
685.78	24912.66
685.91	24748.82
686.05	24821.38
686.19	24409.45
686.32	24465.62
686.46	23924.96
686.60	23590.26
686.73	23531.75
686.87	23765.80
687.01	23449.83
687.14	23285.99
687.28	23398.34
687.42	23396.00
687.55	23456.85
687.69	23941.34
687.82	23571.54
687.96	23225.14
688.10	23468.55
688.23	23234.50
688.37	23108.11
688.50	22544.04
688.64	22712.56
688.78	22913.84
688.91	22574.47
689.05	22565.10
689.18	22993.42
689.32	22345.09
689.46	22291.26
689.59	22466.80
689.73	22342.75
689.86	22141.47
690.00	22302.96
690.13	22272.54
690.27	22012.74
690.41	22010.40
690.54	21584.42
690.68	21366.75
690.81	21582.08
690.95	21469.73
691.08	21865.28
691.22	21553.99
691.35	21413.56
691.49	21926.14
691.62	21717.83
691.76	21179.51
691.89	21240.36
692.03	20964.18
692.16	20893.96
692.30	20615.44
692.43	20774.60
692.57	20608.42
692.70	20095.84
692.84	20575.65
692.97	20074.77
693.11	20561.61
693.24	20374.36
693.38	20259.68
693.51	20058.39
693.65	19845.40
693.78	20285.42
693.92	19995.20
694.05	20051.37
694.19	19887.53
694.32	19711.99
694.45	19669.86
694.59	19157.28
694.72	19049.62
694.86	19119.84
694.99	18988.77
695.13	19070.68
695.26	19005.15
695.39	18824.93
695.53	19009.83
695.66	19293.04
695.80	18740.67
695.93	18735.99
696.07	18499.59
696.20	18380.23
696.33	18579.17
696.47	18679.82
696.60	18623.64
696.73	18209.37
696.87	18375.55
697.00	18188.30
697.14	17991.70
697.27	17982.34
697.40	17994.04
697.54	17846.58
697.67	17898.08
697.80	17502.53
697.94	17467.42
698.07	17142.08
698.21	17305.92
698.34	17317.62
698.47	17060.16
698.61	16788.66
698.74	17029.74
698.87	16877.60
699.01	16552.27
699.14	16533.54
699.27	16498.44
699.40	16449.28
699.54	16744.19
699.67	16575.67
699.80	16561.63
699.94	16507.80
700.07	16156.72
700.20	16297.15
700.34	16425.88
700.47	16184.80
700.60	16327.58
700.73	16521.84
700.87	16065.44
701.00	16032.67
701.13	15861.81
701.26	15627.76
701.40	15747.12
701.53	15524.77
701.66	15442.85
701.79	15445.20
701.93	15592.65
702.06	15335.19
702.19	15173.69
702.32	15173.69
702.46	14913.89
702.59	14906.87
702.72	14918.57
702.85	15286.04
702.99	14974.75
703.12	14857.72
703.25	14534.73
703.38	14408.34
703.51	14508.98
703.65	14576.86
703.78	14244.50
703.91	14469.19
704.04	14228.12
704.17	14436.42
704.31	14380.25
704.44	14120.45
704.57	13935.55
704.70	13827.88
704.83	14101.73
704.96	14005.77
705.10	13933.21
705.23	13989.38
>>>>>End Processed Spectral Data<<<<<
