SpectraSuite Data File
++++++++++++++++++++++++++++++++++++
Date: Fri Oct 25 10:47:19 EDT 2013
User: price-jones
Dark Spectrum Present: No
Reference Spectrum Present: No
Number of Sampled Component Spectra: 1
Spectrometers: USB2+H05261
Integration Time (usec): 100000 (USB2+H05261)
Spectra Averaged: 1 (USB2+H05261)
Boxcar Smoothing: 0 (USB2+H05261)
Correct for Electrical Dark: No (USB2+H05261)
Strobe/Lamp Enabled: No (USB2+H05261)
Correct for Detector Non-linearity: No (USB2+H05261)
Correct for Stray Light: No (USB2+H05261)
Number of Pixels in Processed Spectrum: 2048
>>>>>Begin Processed Spectral Data<<<<<
365.73	65.54
365.92	65.54
366.12	65.54
366.32	35.11
366.52	39.79
366.72	105.32
366.91	0.00
367.11	65.54
367.31	0.00
367.51	0.00
367.70	0.00
367.90	86.60
368.10	35.11
368.30	74.90
368.49	21.06
368.69	72.56
368.89	28.09
369.09	0.00
369.28	91.28
369.48	37.45
369.68	149.79
369.87	91.28
370.07	133.41
370.27	170.86
370.47	238.73
370.66	425.98
370.86	411.93
371.06	416.62
371.25	437.68
371.45	461.09
371.65	395.55
371.84	407.25
372.04	447.04
372.24	425.98
372.44	458.74
372.63	552.37
372.83	454.06
373.03	503.22
373.22	505.56
373.42	496.19
373.62	561.73
373.81	559.39
374.01	510.24
374.21	517.26
374.40	482.15
374.60	561.73
374.79	540.66
374.99	505.56
375.19	552.37
375.38	510.24
375.58	580.45
375.78	507.90
375.97	533.64
376.17	641.31
376.37	596.84
376.56	608.54
376.76	617.90
376.95	543.00
377.15	624.92
377.35	580.45
377.54	660.03
377.74	528.96
377.93	650.67
378.13	676.41
378.33	578.11
378.52	599.18
378.72	690.46
378.91	671.73
379.11	582.79
379.31	547.69
379.50	587.47
379.70	624.92
379.89	617.90
380.09	568.75
380.28	615.56
380.48	627.26
380.68	620.24
380.87	716.20
381.07	711.52
381.26	662.37
381.46	582.79
381.65	709.18
381.85	674.07
382.04	718.54
382.24	727.91
382.43	692.80
382.63	657.69
382.83	690.46
383.02	610.88
383.22	737.27
383.41	713.86
383.61	620.24
383.80	758.33
384.00	662.37
384.19	753.65
384.39	767.70
384.58	746.63
384.78	725.57
384.97	638.97
385.17	716.20
385.36	723.23
385.56	734.93
385.75	723.23
385.95	699.82
386.14	763.01
386.34	765.36
386.53	788.76
386.72	634.29
386.92	807.48
387.11	753.65
387.31	791.10
387.50	819.19
387.70	868.34
387.89	770.04
388.09	844.93
388.28	828.55
388.48	772.38
388.67	730.25
388.86	723.23
389.06	849.61
389.25	898.77
389.45	926.85
389.64	896.43
389.84	868.34
390.03	793.44
390.22	922.17
390.42	812.17
390.61	870.68
390.81	816.85
391.00	896.43
391.19	926.85
391.39	889.40
391.58	933.87
391.78	870.68
391.97	938.55
392.16	950.26
392.36	931.53
392.55	931.53
392.75	957.28
392.94	961.96
393.13	952.60
393.33	1039.20
393.52	1025.15
393.71	1011.11
393.91	1090.69
394.10	945.58
394.29	1053.24
394.49	1025.15
394.68	954.94
394.88	1083.67
395.07	1048.56
395.26	1090.69
395.46	1074.31
395.65	1076.65
395.84	1008.77
396.04	1123.46
396.23	1146.86
396.42	1102.39
396.62	1076.65
396.81	1039.20
397.00	1114.10
397.19	1146.86
397.39	1095.37
397.58	1093.03
397.77	1273.25
397.97	1163.25
398.16	1231.12
398.35	1266.23
398.55	1212.40
398.74	1284.95
398.93	1238.14
399.12	1282.61
399.32	1167.93
399.51	1270.91
399.70	1303.68
399.90	1238.14
400.09	1263.89
400.28	1310.70
400.47	1329.42
400.67	1343.47
400.86	1352.83
401.05	1385.60
401.24	1322.40
401.44	1448.79
401.63	1404.32
401.82	1472.20
402.01	1444.11
402.21	1514.33
402.40	1455.81
402.59	1418.36
402.78	1458.15
402.97	1556.46
403.17	1434.75
403.36	1446.45
403.55	1561.14
403.74	1467.52
403.93	1556.46
404.13	1537.73
404.32	1547.09
404.51	1671.14
404.70	1661.78
404.89	1624.33
405.09	1678.16
405.28	1596.25
405.47	1675.82
405.66	1666.46
405.85	1741.36
406.05	1577.52
406.24	1671.14
406.43	1703.91
406.62	1919.24
406.81	1799.87
407.00	1671.14
407.20	1638.38
407.39	1746.04
407.58	1846.68
407.77	1799.87
407.96	1888.81
408.15	1739.02
408.34	1865.41
408.54	1891.15
408.73	1902.86
408.92	1963.71
409.11	1858.39
409.30	1952.01
409.49	1994.14
409.68	1874.77
409.87	1874.77
410.07	1933.28
410.26	2087.76
410.45	2017.54
410.64	2050.31
410.83	2106.48
411.02	2186.06
411.21	2179.04
411.40	2043.29
411.59	2211.81
411.78	2176.70
411.98	2146.27
412.17	2190.74
412.36	2284.36
412.55	2246.91
412.74	2321.81
412.93	2342.88
413.12	2275.00
413.31	2445.86
413.50	2408.41
413.69	2380.32
413.88	2492.67
414.07	2417.77
414.26	2403.73
414.45	2523.10
414.64	2539.48
414.83	2530.12
415.02	2537.14
415.22	2647.15
415.41	2609.70
415.60	2672.89
415.79	2754.81
415.98	2813.32
416.17	2843.75
416.36	2668.21
416.55	2525.44
416.74	2778.22
416.93	2916.31
417.12	2754.81
417.31	3007.59
417.50	2686.94
417.69	2995.89
417.88	2904.60
418.07	2904.60
418.26	2832.05
418.45	2946.73
418.64	3105.89
418.83	2958.44
419.02	2991.20
419.21	3075.46
419.39	3098.87
419.58	3007.59
419.77	2925.67
419.96	3040.36
420.15	3141.00
420.34	3077.80
420.53	3155.04
420.72	3178.45
420.91	3208.87
421.10	3166.74
421.29	3487.40
421.48	3089.51
421.67	3243.98
421.86	3222.92
422.05	3314.20
422.24	3311.86
422.43	3328.24
422.61	3396.12
422.80	3372.71
422.99	3351.65
423.18	3349.31
423.37	3550.59
423.56	3321.22
423.75	3492.08
423.94	3290.79
424.13	3194.83
424.32	3300.16
424.50	3433.57
424.69	3508.46
424.88	3365.69
425.07	3412.50
425.26	3393.78
425.45	3309.52
425.64	3442.93
425.83	3335.26
426.01	3506.12
426.20	3419.52
426.39	3309.52
426.58	3353.99
426.77	3449.95
426.96	3492.08
427.15	3459.31
427.33	3569.32
427.52	3566.98
427.71	3548.25
427.90	3653.58
428.09	3548.25
428.28	3592.72
428.46	3543.57
428.65	3559.95
428.84	3698.05
429.03	3737.84
429.22	3648.90
429.40	3691.02
429.59	3758.90
429.78	3620.81
429.97	3527.19
430.16	3756.56
430.34	3627.83
430.53	3770.60
430.72	3705.07
430.91	3709.75
431.10	3742.52
431.28	3873.59
431.47	3985.93
431.66	3988.27
431.85	3918.06
432.03	3988.27
432.22	3988.27
432.41	4072.53
432.60	4042.11
432.79	4056.15
432.97	4070.19
433.16	4086.58
433.35	4060.83
433.54	4210.62
433.72	4170.83
433.91	4007.00
434.10	4114.66
434.28	4009.34
434.47	4105.30
434.66	4140.41
434.85	4273.82
435.03	4203.60
435.22	4301.90
435.41	4409.57
435.59	4285.52
435.78	4432.97
435.97	4386.16
436.16	4409.57
436.34	4386.16
436.53	4271.48
436.72	4505.53
436.90	4402.55
437.09	4381.48
437.28	4444.68
437.46	4379.14
437.65	4390.84
437.84	4634.26
438.02	4491.49
438.21	4615.54
438.40	4329.99
438.58	4725.54
438.77	4571.07
438.96	4856.61
439.14	4854.27
439.33	4945.55
439.52	4828.53
439.70	4917.47
439.89	4912.78
440.08	4910.44
440.26	4929.17
440.45	5039.17
440.63	5062.58
440.82	5193.65
441.01	5013.43
441.19	5102.37
441.38	5102.37
441.57	5224.08
441.75	5320.04
441.94	5568.13
442.12	5334.08
442.31	5462.81
442.50	5371.53
442.68	5378.55
442.87	5420.68
443.05	5408.98
443.24	5418.34
443.43	5654.73
443.61	5507.28
443.80	5657.07
443.98	5509.62
444.17	5397.28
444.35	5465.15
444.54	5650.05
444.73	5687.50
444.91	5495.58
445.10	5636.01
445.28	5575.16
445.47	5530.69
445.65	5589.20
445.84	5631.33
446.02	5579.84
446.21	5813.89
446.39	5647.71
446.58	5703.89
446.77	5809.21
446.95	5572.82
447.14	5837.30
447.32	5853.68
447.51	5811.55
447.69	5764.74
447.88	5741.33
448.06	5713.25
448.25	5781.12
448.43	5561.11
448.62	5596.22
448.80	5774.10
448.99	5720.27
449.17	5888.79
449.36	5762.40
449.54	5891.13
449.73	5949.64
449.91	5863.04
450.10	6136.88
450.28	6197.74
450.46	6043.26
450.65	6232.85
450.83	6071.35
451.02	6104.12
451.20	6408.39
451.39	6118.16
451.57	6076.03
451.76	6108.80
451.94	6141.57
452.13	6150.93
452.31	6171.99
452.49	6111.14
452.68	6244.55
452.86	6141.57
453.05	6401.37
453.23	6289.02
453.42	6157.95
453.60	6190.72
453.78	6338.17
453.97	6272.64
454.15	6492.65
454.34	6354.55
454.52	6502.01
454.70	6155.61
454.89	6431.79
455.07	6588.61
455.26	6616.69
455.44	6743.08
455.62	6654.14
455.81	6614.35
455.99	6773.51
456.17	6782.87
456.36	6813.30
456.54	6782.87
456.73	6883.52
456.91	6986.50
457.09	6927.99
457.28	7108.21
457.46	6965.43
457.64	7063.74
457.83	7026.29
458.01	6810.96
458.19	7037.99
458.38	6977.14
458.56	7068.42
458.74	7302.47
458.93	7005.22
459.11	7225.23
459.29	7133.95
459.48	7225.23
459.66	7119.91
459.84	7344.60
460.03	7431.20
460.21	7368.01
460.39	7222.89
460.57	7283.75
460.76	7419.50
460.94	7456.95
461.12	7356.30
461.31	7466.31
461.49	7386.73
461.67	7531.84
461.85	7651.21
462.04	7604.40
462.22	7920.37
462.40	7808.03
462.59	7534.18
462.77	7634.83
462.95	7606.74
463.13	7634.83
463.32	7770.58
463.50	7716.75
463.68	7838.45
463.86	7786.96
464.05	7688.66
464.23	7726.11
464.41	7943.78
464.59	7630.15
464.78	8065.49
464.96	7976.55
465.14	7735.47
465.32	8138.04
465.50	8013.99
465.69	8049.10
465.87	8016.33
466.05	7955.48
466.23	8002.29
466.41	7932.08
466.60	8341.67
466.78	8044.42
466.96	8067.83
467.14	8044.42
467.32	8095.91
467.51	8198.90
467.69	7971.86
467.87	8224.64
468.05	8271.45
468.23	8428.27
468.41	8184.85
468.60	8355.71
468.78	8500.83
468.96	8201.24
469.14	8353.37
469.32	8500.83
469.50	8212.94
469.69	8498.49
469.87	8561.68
470.05	8498.49
470.23	8437.63
470.41	8606.15
470.59	8704.45
470.77	8730.20
470.95	8561.68
471.14	8692.75
471.32	8779.35
471.50	8992.34
471.68	9048.51
471.86	9022.77
472.04	8999.36
472.22	9188.94
472.40	9004.04
472.58	9057.87
472.77	9123.41
472.95	9102.34
473.13	9626.62
473.31	9090.64
473.49	9191.28
473.67	9357.46
473.85	9458.10
474.03	9423.00
474.21	9736.63
474.39	9738.97
474.57	9715.56
474.75	9666.41
474.93	9811.53
475.12	9729.61
475.30	9961.32
475.48	9806.84
475.66	9830.25
475.84	9750.67
476.02	10012.81
476.20	10008.13
476.38	10071.33
476.56	10375.59
476.74	10361.55
476.92	10424.75
477.10	10359.21
477.28	10679.86
477.46	10420.06
477.64	10604.97
477.82	10621.35
478.00	10998.18
478.18	10850.72
478.36	10923.28
478.54	11098.82
478.72	11295.43
478.90	11286.06
479.08	11426.50
479.26	11719.06
479.44	11496.71
479.62	11452.24
479.80	11742.47
479.98	11721.40
480.16	11906.31
480.34	12088.87
480.52	12109.93
480.70	12245.68
480.88	11887.58
481.06	12170.79
481.24	12243.34
481.41	12428.24
481.59	12685.70
481.77	12542.93
481.95	12578.04
482.13	12627.19
482.31	12709.11
482.49	13013.38
482.67	12821.45
482.85	13317.65
483.03	13383.18
483.21	13469.78
483.39	13441.70
483.57	13554.04
483.74	13783.41
483.92	13771.71
484.10	13743.63
484.28	13853.63
484.46	13893.42
484.64	14235.14
484.82	14291.31
485.00	14345.14
485.18	14565.15
485.35	14759.42
485.53	14497.28
485.71	14452.81
485.89	14920.92
486.07	14471.53
486.25	14654.09
486.43	14972.41
486.61	15154.97
486.78	15545.84
486.96	15634.78
487.14	15852.45
487.32	15941.39
487.50	15791.59
487.68	16159.06
487.85	16198.85
488.03	16304.17
488.21	16329.92
488.39	16695.04
488.57	16500.78
488.75	16732.49
488.92	16966.54
489.10	17334.01
489.28	17184.21
489.46	17436.99
489.64	17195.92
489.81	17895.74
489.99	17694.45
490.17	17907.44
490.35	18052.55
490.53	17872.33
490.70	18305.33
490.88	18207.03
491.06	18181.28
491.24	18527.68
491.41	18682.16
491.59	18810.89
491.77	18813.23
491.95	18838.97
492.13	18724.29
492.30	19129.20
492.48	19274.31
492.66	19293.04
492.84	19412.40
493.01	19679.22
493.19	19501.34
493.37	19782.21
493.54	19922.64
493.72	19850.08
493.90	20144.99
494.08	20329.89
494.25	20725.44
494.43	20374.36
494.61	20769.91
494.79	20786.30
494.96	20615.44
495.14	20706.72
495.32	21139.72
495.49	21099.93
495.67	21172.49
495.85	21352.71
496.02	21750.60
496.20	21738.90
496.38	21729.53
496.55	21572.72
496.73	22153.17
496.91	22153.17
497.09	22099.34
497.26	22036.14
497.44	22260.84
497.62	22448.08
497.79	22590.85
497.97	22689.15
498.14	22656.39
498.32	22721.92
498.50	23360.89
498.67	23468.55
498.85	23033.21
499.03	23372.59
499.20	23468.55
499.38	23611.32
499.56	23513.02
499.73	23791.55
499.91	23379.61
500.08	24116.88
500.26	23927.30
500.44	24067.73
500.61	23901.55
500.79	24086.45
500.97	24524.13
501.14	24149.65
501.32	24077.09
501.49	24463.28
501.67	24456.26
501.84	24484.34
502.02	24517.11
502.20	24999.26
502.37	24816.70
502.55	25095.22
502.72	25380.77
502.90	25326.94
503.07	24863.51
503.25	25296.51
503.43	25235.66
503.60	25598.44
503.78	25142.03
503.95	25270.76
504.13	25610.14
504.30	25823.13
504.48	25783.34
504.65	25696.74
504.83	25928.45
505.01	26462.10
505.18	25958.88
505.36	26499.55
505.53	25961.22
505.71	26373.16
505.88	26455.08
506.06	26471.46
506.23	26876.37
506.41	26639.98
506.58	27030.85
506.76	27065.96
506.93	27288.31
507.11	27047.23
507.28	27096.38
507.46	27292.99
507.63	27271.92
507.81	27016.80
507.98	27042.55
508.16	27543.42
508.33	27798.54
508.50	27405.33
508.68	28074.73
508.85	28095.79
509.03	28278.35
509.20	27597.26
509.38	28280.69
509.55	28088.77
509.73	28559.22
509.90	28203.46
510.08	28107.49
510.25	28599.01
510.42	28416.44
510.60	28615.39
510.77	28694.97
510.95	28790.93
511.12	28765.18
511.30	28814.34
511.47	29383.09
511.64	29252.02
511.82	29151.37
511.99	29156.05
512.17	29654.59
512.34	29188.82
512.51	29603.10
512.69	29876.94
512.86	29495.43
513.04	29993.97
513.21	29844.17
513.38	29617.14
513.56	29869.92
513.73	29661.61
513.90	30216.32
514.08	29766.93
514.25	30377.81
514.43	30221.00
514.60	30249.08
514.77	30375.47
514.95	30649.32
515.12	30852.94
515.29	30265.47
515.47	30803.79
515.64	30906.77
515.81	30625.91
515.99	30249.08
516.16	30712.51
516.33	30792.09
516.51	30700.81
516.68	31007.42
516.85	30649.32
517.03	31094.02
517.20	31325.73
517.37	30955.93
517.54	31646.38
517.72	31583.19
517.89	31262.54
518.06	31594.89
518.24	31438.08
518.41	31257.85
518.58	31611.28
518.75	31929.59
518.93	32203.43
519.10	31569.15
519.27	31962.36
519.45	32617.71
519.62	32072.36
519.79	32481.95
519.96	32589.62
520.14	32816.65
520.31	32013.85
520.48	32275.99
520.65	32554.51
520.83	32706.65
521.00	33095.18
521.17	33209.86
521.34	32697.28
521.52	33139.65
521.69	32500.68
521.86	33181.77
522.03	33193.48
522.20	33034.32
522.38	33237.95
522.55	33202.84
522.72	33153.69
522.89	33404.13
523.07	33280.08
523.24	33443.91
523.41	33532.86
523.58	33432.21
523.75	33954.15
523.92	33708.40
524.10	33816.06
524.27	34134.37
524.44	34073.52
524.61	34504.18
524.78	34443.32
524.96	34438.64
525.13	34635.25
525.30	34424.60
525.47	34274.80
525.64	34405.88
525.81	34892.71
525.98	34831.85
526.16	34719.51
526.33	34742.91
526.50	34815.47
526.67	34892.71
526.84	34611.84
527.01	34384.81
527.18	34761.64
527.36	35718.92
527.53	35255.49
527.70	35487.20
527.87	35470.82
528.04	35061.22
528.21	35606.57
528.38	35098.67
528.55	35292.94
528.72	35566.78
528.89	35880.41
529.07	35529.33
529.24	35363.15
529.41	35786.79
529.58	35768.07
529.75	35711.89
529.92	36140.21
530.09	35959.99
530.26	36369.58
530.43	36463.21
530.60	35770.41
530.77	36105.10
530.94	36114.47
531.11	36275.96
531.28	36596.62
531.46	36528.74
531.63	36741.73
531.80	36594.28
531.97	36084.04
532.14	36577.89
532.31	36598.96
532.48	36708.96
532.65	36570.87
532.82	36868.12
532.99	37495.38
533.16	36833.01
533.33	36491.29
533.50	36617.68
533.67	36954.72
533.84	36816.63
534.01	36858.76
534.18	37057.70
534.35	37153.66
534.52	37146.64
534.69	36828.33
534.86	37436.87
535.03	37186.43
535.20	37441.55
535.37	37567.94
535.54	37757.52
535.71	37336.23
535.88	37656.88
536.05	37659.22
536.22	37457.93
536.38	37745.82
536.55	37666.24
536.72	37509.43
536.89	37696.67
537.06	37535.17
537.23	38380.10
537.40	37535.17
537.57	38143.71
537.74	38054.77
537.91	38340.32
538.08	38134.35
538.25	37860.51
538.42	38445.64
538.59	38218.61
538.75	37937.74
538.92	37963.49
539.09	38665.65
539.26	38614.16
539.43	38773.31
539.60	38724.16
539.77	38649.27
539.94	38450.32
540.11	38651.61
540.28	38464.36
540.44	38663.31
540.61	38918.43
540.78	38653.95
540.95	38663.31
541.12	39363.13
541.29	38845.87
541.46	38850.55
541.62	39009.71
541.79	39145.46
541.96	38637.56
542.13	39028.43
542.30	39058.86
542.47	38953.54
542.63	38782.68
542.80	39440.37
542.97	39187.59
543.14	39510.58
543.31	40126.14
543.48	39597.18
543.64	40184.66
543.81	39732.93
543.98	39709.53
544.15	39632.29
544.32	40257.21
544.48	40055.93
544.65	39861.66
544.82	40100.40
544.99	39901.45
545.16	40339.13
545.32	40032.52
545.49	40095.72
545.66	40407.01
545.83	40409.35
546.00	40100.40
546.16	40542.76
546.33	39882.73
546.50	39864.00
546.67	40458.50
546.83	40114.44
547.00	40233.81
547.17	40144.87
547.34	39948.26
547.50	40250.19
547.67	40774.47
547.84	40460.84
548.00	40783.83
548.17	40680.85
548.34	40650.42
548.51	40758.09
548.67	40542.76
548.84	41001.50
549.01	40493.61
549.18	40917.25
549.34	41010.87
549.51	40786.18
549.68	41516.42
549.84	40802.56
550.01	41251.94
550.18	40762.77
550.34	41015.55
550.51	41315.14
550.68	40807.24
550.84	40708.94
551.01	41343.22
551.18	41282.37
551.34	41420.46
551.51	41221.52
551.68	41525.78
551.84	41933.04
552.01	41642.81
552.18	41523.44
552.34	41261.30
552.51	41797.29
552.68	41687.28
552.84	41528.13
553.01	41930.70
553.18	41226.20
553.34	41132.57
553.51	41684.94
553.67	41280.03
553.84	41989.21
554.01	41701.32
554.17	41525.78
554.34	42031.34
554.51	42021.98
554.67	42164.75
554.84	41832.39
555.00	41797.29
555.17	41710.69
555.33	42396.46
555.50	42342.63
555.67	42094.53
555.83	42169.43
556.00	42923.08
556.16	42347.31
556.33	42691.37
556.50	42174.11
556.66	42419.87
556.83	41785.58
556.99	42202.20
557.16	42426.89
557.32	42349.65
557.49	42698.39
557.65	42417.53
557.82	42108.58
557.98	42394.12
558.15	42473.70
558.32	42562.64
558.48	42181.13
558.65	42377.74
558.81	42270.08
558.98	42637.54
559.14	42316.89
559.31	42256.03
559.47	42527.53
559.64	42990.96
559.80	42731.16
559.97	42775.63
560.13	42824.78
560.30	42349.65
560.46	42658.60
560.63	42749.88
560.79	43035.43
560.96	43086.92
561.12	43044.79
561.29	42902.02
561.45	42782.65
561.61	42497.11
561.78	43019.05
561.94	42913.72
562.11	42564.98
562.27	43005.00
562.44	42897.34
562.60	43105.65
562.77	43157.14
562.93	42993.30
563.10	43391.19
563.26	42618.81
563.42	42794.36
563.59	42925.42
563.75	43138.41
563.92	42887.98
564.08	43150.12
564.24	43552.69
564.41	43320.98
564.57	43028.41
564.74	43253.10
564.90	43337.36
565.07	43199.27
565.23	43093.94
565.39	43152.46
565.56	43056.50
565.72	43166.50
565.88	42997.98
566.05	43323.32
566.21	43414.60
566.38	43433.32
566.54	43540.99
566.70	43344.38
566.87	43674.40
567.03	43349.06
567.19	43833.55
567.36	43143.09
567.52	43295.23
567.68	44208.04
567.85	43119.69
568.01	43147.78
568.17	43447.36
568.34	43503.54
568.50	43229.69
568.66	43393.53
568.83	43571.41
568.99	43391.19
569.15	43550.35
569.32	43564.39
569.48	43126.71
569.64	43856.96
569.81	43931.86
569.97	43672.06
570.13	43658.01
570.30	43997.39
570.46	43515.24
570.62	43501.20
570.78	43349.06
570.95	43763.34
571.11	43629.93
571.27	43641.63
571.43	43894.41
571.60	43606.52
571.76	43667.37
571.92	43887.39
572.09	43700.14
572.25	44027.82
572.41	43744.61
572.57	43765.68
572.74	44268.89
572.90	43819.51
573.06	43966.96
573.22	43615.88
573.38	43391.19
573.55	43393.53
573.71	43817.17
573.87	43601.84
574.03	43264.80
574.20	43503.54
574.36	43948.24
574.52	44135.48
574.68	43707.16
574.84	44217.40
575.01	43578.43
575.17	43533.96
575.33	43573.75
575.49	43700.14
575.65	44144.84
575.82	44039.52
575.98	44025.48
576.14	44519.33
576.30	43962.28
576.46	44025.48
576.62	43861.64
576.79	44163.57
576.95	43622.90
577.11	43707.16
577.27	43730.57
577.43	43765.68
577.59	44105.06
577.75	43878.02
577.92	43695.46
578.08	43973.98
578.24	43370.13
578.40	43571.41
578.56	43667.37
578.72	44095.69
578.88	44067.61
579.04	43856.96
579.21	44137.82
579.37	43840.57
579.53	43620.56
579.69	43665.03
579.85	44034.84
580.01	44048.88
580.17	44126.12
580.33	43819.51
580.49	44069.95
580.65	44236.12
580.82	44308.68
580.98	44285.28
581.14	43826.53
581.30	44025.48
581.46	43873.34
581.62	43707.16
581.78	44034.84
581.94	44357.83
582.10	44074.63
582.26	44308.68
582.42	44231.44
582.58	44095.69
582.74	43854.62
582.90	44156.55
583.06	44589.55
583.22	44229.10
583.38	44327.41
583.54	44135.48
583.70	44119.10
583.86	44156.55
584.02	43878.02
584.18	43761.00
584.34	43852.28
584.50	44350.81
584.66	43985.69
584.82	44175.27
584.98	44196.34
585.14	44243.15
585.30	43835.89
585.46	44404.64
585.62	43936.54
585.78	44086.33
585.94	43625.25
586.10	43899.09
586.26	44006.75
586.42	44177.61
586.58	43643.97
586.74	44009.09
586.90	43798.44
587.06	43885.04
587.22	44320.38
587.38	43957.60
587.54	44369.54
587.70	44439.75
587.86	44332.09
588.02	44385.92
588.18	44559.12
588.34	43964.62
588.49	44177.61
588.65	43370.13
588.81	43903.77
588.97	44023.14
589.13	43861.64
589.29	43929.51
589.45	44161.23
589.61	44559.12
589.77	44554.44
589.93	44353.15
590.08	44318.04
590.24	44208.04
590.40	44224.42
590.56	44451.45
590.72	44692.53
590.88	43999.73
591.04	44568.48
591.20	44739.34
591.35	44254.85
591.51	44776.79
591.67	44292.30
591.83	44486.56
591.99	44418.69
592.15	44147.18
592.31	44411.67
592.46	44421.03
592.62	44446.77
592.78	44374.22
592.94	44568.48
593.10	44065.27
593.26	45036.59
593.41	44631.68
593.57	44268.89
593.73	44383.58
593.89	44264.21
594.05	44729.98
594.20	44304.00
594.36	44954.67
594.52	44514.65
594.68	44306.34
594.84	44306.34
594.99	44722.96
595.15	44484.22
595.31	44760.40
595.47	44734.66
595.62	44378.90
595.78	44842.32
595.94	44683.17
596.10	44575.50
596.25	44477.20
596.41	44858.71
596.57	44289.96
596.73	44598.91
596.88	44076.97
597.04	44538.05
597.20	44739.34
597.36	44500.61
597.51	44430.39
597.67	44797.85
597.83	44439.75
597.99	44980.42
598.14	44493.58
598.30	44570.82
598.46	44708.91
598.61	44666.78
598.77	44746.36
598.93	44491.24
599.09	44491.24
599.24	44634.02
599.40	44306.34
599.56	44964.03
599.71	44561.46
599.87	44739.34
600.03	44744.02
600.18	44601.25
600.34	44425.71
600.50	44545.08
600.65	44708.91
600.81	45071.70
600.97	45223.83
601.12	44626.99
601.28	44687.85
601.44	45020.20
601.59	44662.10
601.75	44907.86
601.91	44247.83
602.06	44418.69
602.22	44463.16
602.37	44306.34
602.53	44624.65
602.69	45038.93
602.84	44353.15
603.00	44669.12
603.16	44126.12
603.31	44474.86
603.47	44123.78
603.62	44268.89
603.78	44673.81
603.94	44584.86
604.09	45235.53
604.25	44999.14
604.40	44968.71
604.56	44804.88
604.71	44671.46
604.87	44589.55
605.03	44502.95
605.18	44233.78
605.34	44832.96
605.49	44484.22
605.65	44793.17
605.80	44425.71
605.96	43995.05
606.12	44451.45
606.27	44601.25
606.43	44617.63
606.58	44715.93
606.74	44175.27
606.89	44404.64
607.05	44175.27
607.20	44126.12
607.36	44301.66
607.51	44378.90
607.67	44376.56
607.82	44376.56
607.98	44243.15
608.13	44142.50
608.29	44133.14
608.44	44114.42
608.60	43751.63
608.75	43716.53
608.91	44009.09
609.06	43770.36
609.22	44598.91
609.37	43906.11
609.53	44596.57
609.68	44322.72
609.84	44362.51
609.99	44212.72
610.15	44488.90
610.30	43952.92
610.46	44151.87
610.61	43852.28
610.76	44041.86
610.92	44189.31
611.07	43882.70
611.23	44081.65
611.38	43981.01
611.54	44086.33
611.69	44067.61
611.84	43487.15
612.00	44048.88
612.15	43814.83
612.31	43793.76
612.46	43526.94
612.62	43950.58
612.77	43885.04
612.92	44135.48
613.08	44194.00
613.23	43655.67
613.39	43667.37
613.54	43910.79
613.69	43533.96
613.85	43840.57
614.00	43768.02
614.15	44392.94
614.31	43702.48
614.46	44027.82
614.62	43887.39
614.77	43721.21
614.92	43353.74
615.08	43487.15
615.23	43648.65
615.38	43634.61
615.54	43070.54
615.69	43271.82
615.84	43246.08
616.00	43636.95
616.15	43529.28
616.30	43847.60
616.46	43482.47
616.61	43449.70
616.76	42869.25
616.92	43173.52
617.07	42855.21
617.22	43077.56
617.37	42913.72
617.53	43545.67
617.68	43452.05
617.83	43323.32
617.99	43400.55
618.14	43173.52
618.29	43189.91
618.45	42979.26
618.60	42899.68
618.75	43058.84
618.90	43030.75
619.06	43323.32
619.21	43669.72
619.36	43136.07
619.51	42885.64
619.67	43225.01
619.82	42597.75
619.97	43164.16
620.12	42644.56
620.28	42122.62
620.43	42895.00
620.58	42714.78
620.73	42822.44
620.89	42623.50
621.04	42988.62
621.19	42906.70
621.34	42918.40
621.49	42637.54
621.65	42553.28
621.80	42899.68
621.95	42548.60
622.10	42822.44
622.25	42478.38
622.41	42429.23
622.56	42658.60
622.71	42398.80
622.86	42476.04
623.01	42845.85
623.16	42436.25
623.32	42686.69
623.47	43051.81
623.62	42747.54
623.77	42153.05
623.92	42054.75
624.07	42263.05
624.23	41998.57
624.38	41979.85
624.53	41921.34
624.68	42223.26
624.83	42445.62
624.98	41827.71
625.13	42120.28
625.29	42344.97
625.44	41972.83
625.59	42033.68
625.74	41736.43
625.89	41572.60
626.04	41448.55
626.19	41844.10
626.34	42019.64
626.49	41883.89
626.65	41439.18
626.80	42073.47
626.95	42073.47
627.10	41570.25
627.25	41521.10
627.40	41378.33
627.55	41324.50
627.70	41092.79
627.85	41256.62
628.00	41574.94
628.15	41368.97
628.30	41818.35
628.45	41860.48
628.60	41680.26
628.76	41694.30
628.91	41572.60
629.06	41368.97
629.21	41432.16
629.36	41291.73
629.51	41195.77
629.66	41088.10
629.81	40755.75
629.96	41670.90
630.11	41460.25
630.26	41277.69
630.41	41741.11
630.56	41268.33
630.71	41024.91
630.86	41284.71
631.01	41006.19
631.16	41137.26
631.31	40334.45
631.46	40800.22
631.61	41235.56
631.76	40657.45
631.91	40851.71
632.06	41074.06
632.21	40612.98
632.36	41254.28
632.51	40524.04
632.66	41006.19
632.81	40456.16
632.96	41247.26
633.10	40144.87
633.25	40641.06
633.40	40715.96
633.55	40662.13
633.70	40781.49
633.85	40294.66
634.00	40437.44
634.15	40608.29
634.30	40547.44
634.45	40617.66
634.60	40325.09
634.75	40418.71
634.90	40404.67
635.05	40474.88
635.19	40343.81
635.34	40533.40
635.49	40182.32
635.64	40046.57
635.79	40048.91
635.94	39971.67
636.09	40250.19
636.24	39704.85
636.39	40334.45
636.53	40133.17
636.68	39559.73
636.83	39992.73
636.98	40495.95
637.13	39821.87
637.28	39859.32
637.43	39990.39
637.57	40507.65
637.72	39597.18
637.87	39950.60
638.02	39653.36
638.17	39576.12
638.32	39765.70
638.46	39508.24
638.61	39374.83
638.76	39508.24
638.91	39737.62
639.06	39526.97
639.20	39655.70
639.35	39662.72
639.50	39782.09
639.65	39952.94
639.80	40137.85
639.94	39440.37
640.09	39503.56
640.24	39014.39
640.39	39255.46
640.54	39262.49
640.68	39482.50
640.83	39529.31
640.98	39353.77
641.13	39159.50
641.27	39260.15
641.42	39335.04
641.57	39416.96
641.72	39299.94
641.86	39026.09
642.01	39093.97
642.16	39077.58
642.31	38738.21
642.45	39187.59
642.60	38838.85
642.75	38843.53
642.90	39269.51
643.04	38955.88
643.19	38415.21
643.34	39056.52
643.48	39023.75
643.63	38625.86
643.78	38841.19
643.93	38609.48
644.07	38373.08
644.22	38595.43
644.37	38714.80
644.51	38445.64
644.66	38724.16
644.81	38810.76
644.95	38684.37
645.10	38820.13
645.25	38745.23
645.39	38763.95
645.54	38733.53
645.69	38459.68
645.83	38337.98
645.98	38667.99
646.13	38735.87
646.27	38511.17
646.42	38452.66
646.57	38625.86
646.71	38850.55
646.86	38817.78
647.00	38459.68
647.15	38405.85
647.30	38469.04
647.44	38356.70
647.59	38342.66
647.74	37827.74
647.88	38162.43
648.03	38361.38
648.17	38141.37
648.32	37567.94
648.47	37521.13
648.61	37928.38
648.76	38256.06
648.90	38347.34
649.05	38078.18
649.20	38195.20
649.34	38335.63
649.49	37837.10
649.63	38064.13
649.78	38045.41
649.92	37647.52
650.07	38792.04
650.21	37919.02
650.36	38036.05
650.51	37408.78
650.65	38333.29
650.80	38370.74
650.94	38148.39
651.09	37860.51
651.23	37333.89
651.38	37755.18
651.52	37317.50
651.67	37806.67
651.81	37734.12
651.96	37429.85
652.10	37495.38
652.25	37289.42
652.39	37490.70
652.54	37420.48
652.68	37607.73
652.83	37354.95
652.97	37457.93
653.12	37731.78
653.26	37481.34
653.41	37577.30
653.55	37223.88
653.70	37081.11
653.84	37160.69
653.99	37214.52
654.13	37432.19
654.27	37195.79
654.42	37397.08
654.56	37146.64
654.71	37172.39
654.85	37148.98
655.00	37352.61
655.14	36680.88
655.29	36643.43
655.43	36725.35
655.57	36549.81
655.72	36914.93
655.86	37003.87
656.01	36531.08
656.15	36837.69
656.30	36568.53
656.44	36554.49
656.58	36524.06
656.73	36439.80
656.87	36418.74
657.01	36631.72
657.16	36341.50
657.30	36282.98
657.45	36037.23
657.59	36711.30
657.73	36360.22
657.88	36535.76
658.02	36498.31
658.16	36648.11
658.31	36194.04
658.45	36535.76
658.60	36428.10
658.74	36535.76
658.88	36610.66
659.03	36282.98
659.17	35988.08
659.31	36385.97
659.46	35791.47
659.60	35723.60
659.74	35608.91
659.89	35959.99
660.03	35391.24
660.17	35885.09
660.32	35857.01
660.46	36390.65
660.60	35924.88
660.74	35644.02
660.89	35398.26
661.03	35405.28
661.17	35328.05
661.32	35154.85
661.46	35292.94
661.60	34983.99
661.74	35456.78
661.89	35147.82
662.03	35538.69
662.17	35358.47
662.31	35086.97
662.46	35222.72
662.60	35297.62
662.74	35206.34
662.88	35159.53
663.03	34958.24
663.17	34923.13
663.31	34948.88
663.45	34600.14
663.60	34728.87
663.74	34663.33
663.88	34738.23
664.02	34522.90
664.17	34752.27
664.31	34288.85
664.45	34183.52
664.59	34663.33
664.73	34604.82
664.88	34520.56
665.02	33954.15
665.16	34258.42
665.30	34253.74
665.44	33900.32
665.59	33986.92
665.73	33593.71
665.87	33902.66
666.01	33645.20
666.15	33701.37
666.29	33902.66
666.44	34066.50
666.58	33881.60
666.72	33799.68
666.86	33968.19
667.00	33755.21
667.14	33825.42
667.28	33357.32
667.43	33507.11
667.57	33233.27
667.71	33090.49
667.85	33369.02
667.99	33404.13
668.13	33226.24
668.27	33329.23
668.41	33223.90
668.56	32821.33
668.70	33401.79
668.84	32826.01
668.98	32849.42
669.12	32994.53
669.26	32877.51
669.40	32477.27
669.54	32961.76
669.68	33212.20
669.82	32840.06
669.96	32573.24
670.10	32400.04
670.25	32470.25
670.39	32538.13
670.53	32308.76
670.67	32170.66
670.81	32474.93
670.95	32205.77
671.09	32151.94
671.23	32311.10
671.37	32526.42
671.51	32374.29
671.65	31934.27
671.79	31732.98
671.93	31793.84
672.07	32311.10
672.21	31952.99
672.35	31709.58
672.49	31751.71
672.63	31519.99
672.77	31304.67
672.91	31433.39
673.05	31079.97
673.19	30883.37
673.33	30775.70
673.47	31096.36
673.61	30878.69
673.75	31023.80
673.89	30792.09
674.03	30588.46
674.17	30616.55
674.31	30754.64
674.45	30801.45
674.59	30501.86
674.73	30885.71
674.87	30677.40
675.01	30614.21
675.15	30518.25
675.29	30476.12
675.43	30705.49
675.56	30150.78
675.70	30092.27
675.84	30110.99
675.98	28716.03
676.12	30015.03
676.26	29504.79
676.40	29399.47
676.54	29392.45
676.68	29144.35
676.82	29177.12
676.96	29441.60
677.10	28790.93
677.23	29200.52
677.37	28968.81
677.51	29177.12
677.65	28641.14
677.79	28666.88
677.93	28664.54
678.07	28519.43
678.21	28591.98
678.34	28580.28
678.48	28575.60
678.62	28439.85
678.76	28215.16
678.90	27990.47
679.04	27946.00
679.18	27941.32
679.31	27985.79
679.45	27784.50
679.59	27592.58
679.73	27473.21
679.87	27456.82
680.00	27377.25
680.14	27779.82
680.28	27190.00
680.42	27365.54
680.56	27278.94
680.70	27030.85
680.83	26918.50
680.97	26824.88
681.11	26897.44
681.25	26403.58
681.39	26616.57
681.52	27108.08
681.66	26499.55
681.80	26590.83
681.94	26686.79
682.07	26394.22
682.21	26026.76
682.35	26096.97
682.49	26366.13
682.62	26094.63
682.76	26309.96
682.90	25549.29
683.04	25579.71
683.17	25797.38
683.31	25666.31
683.45	25900.37
683.59	25528.22
683.72	25156.08
683.86	25102.25
684.00	24800.32
684.13	25125.65
684.27	25228.63
684.41	24872.87
684.55	24924.36
684.68	24491.37
684.82	24301.78
684.96	24657.54
685.09	24240.93
685.23	24201.14
685.37	24077.09
685.50	24154.33
685.64	24311.14
685.78	24060.71
685.91	23751.76
686.05	23630.05
686.19	23482.59
686.32	23929.64
686.46	23468.55
686.60	23360.89
686.73	23271.95
686.87	23403.02
687.01	23321.10
687.14	23316.42
687.28	22890.44
687.42	23133.86
687.55	22703.20
687.69	23089.38
687.82	22609.58
687.96	22719.58
688.10	22640.00
688.23	22539.36
688.37	22398.93
688.50	21874.65
688.64	22183.60
688.78	22209.34
688.91	22061.89
689.05	22197.64
689.18	21940.18
689.32	21652.30
689.46	21790.39
689.59	21825.50
689.73	21968.27
689.86	21621.87
690.00	21511.86
690.13	21500.16
690.27	21600.80
690.41	21130.36
690.54	21083.55
690.68	20971.20
690.81	20943.11
690.95	20863.54
691.08	20655.23
691.22	20683.31
691.35	20610.76
691.49	20905.66
691.62	20568.63
691.76	20432.88
691.89	20601.40
692.03	20524.16
692.16	20159.03
692.30	19836.04
692.43	20091.16
692.57	19894.55
692.70	20065.41
692.84	19777.53
692.97	19403.04
693.11	19274.31
693.24	19379.64
693.38	19386.66
693.51	19522.41
693.65	19126.86
693.78	19400.70
693.92	19604.33
694.05	19201.76
694.19	19124.52
694.32	19159.63
694.45	19080.05
694.59	18939.62
694.72	18740.67
694.86	18572.15
694.99	18799.18
695.13	18412.99
695.26	18253.84
695.39	18305.33
695.53	17989.36
695.66	18258.52
695.80	18223.41
695.93	17865.31
696.07	17774.03
696.20	17848.93
696.33	17877.01
696.47	17795.09
696.60	17958.93
696.73	17539.97
696.87	17673.39
697.00	17696.79
697.14	17715.51
697.27	17139.74
697.40	17263.79
697.54	17561.04
697.67	17018.04
697.80	17104.64
697.94	16996.97
698.07	16950.16
698.21	16704.40
698.34	17003.99
698.47	16886.97
698.61	16327.58
698.74	16311.19
698.87	16505.46
699.01	16578.01
699.14	16285.45
699.27	16098.20
699.40	16339.28
699.54	16088.84
699.67	15889.90
699.80	16219.91
699.94	15669.89
700.07	15906.28
700.20	15983.52
700.34	15763.51
700.47	15810.32
700.60	16070.12
700.73	15791.59
700.87	15536.48
701.00	15440.51
701.13	15536.48
701.26	15243.91
701.40	15346.89
701.53	15084.75
701.66	15176.03
701.79	15176.03
701.93	15066.03
702.06	14658.78
702.19	14630.69
702.32	14829.63
702.46	14944.32
702.59	14703.25
702.72	14487.92
702.85	14508.98
702.99	14670.48
703.12	14593.24
703.25	14345.14
703.38	14057.26
703.51	14406.00
703.65	14225.78
703.78	14097.05
703.91	14143.86
704.04	14057.26
704.17	13965.98
704.31	13930.87
704.44	13547.02
704.57	13514.25
704.70	13420.63
704.83	13509.57
704.96	13532.98
705.10	13687.45
705.23	13572.77
>>>>>End Processed Spectral Data<<<<<
