SpectraSuite Data File
++++++++++++++++++++++++++++++++++++
Date: Fri Oct 25 10:48:26 EDT 2013
User: price-jones
Dark Spectrum Present: No
Reference Spectrum Present: No
Number of Sampled Component Spectra: 1
Spectrometers: USB2+H05261
Integration Time (usec): 100000 (USB2+H05261)
Spectra Averaged: 1 (USB2+H05261)
Boxcar Smoothing: 0 (USB2+H05261)
Correct for Electrical Dark: No (USB2+H05261)
Strobe/Lamp Enabled: No (USB2+H05261)
Correct for Detector Non-linearity: No (USB2+H05261)
Correct for Stray Light: No (USB2+H05261)
Number of Pixels in Processed Spectrum: 2048
>>>>>Begin Processed Spectral Data<<<<<
365.73	145.11
365.92	145.11
366.12	145.11
366.32	56.17
366.52	72.56
366.72	110.01
366.91	91.28
367.11	37.45
367.31	0.00
367.51	0.00
367.70	32.77
367.90	56.17
368.10	35.11
368.30	72.56
368.49	51.49
368.69	28.09
368.89	65.54
369.09	84.26
369.28	95.96
369.48	35.11
369.68	42.13
369.87	121.71
370.07	86.60
370.27	88.94
370.47	210.65
370.66	374.49
370.86	461.09
371.06	440.02
371.25	543.00
371.45	449.38
371.65	543.00
371.84	475.13
372.04	468.11
372.24	540.66
372.44	470.45
372.63	512.58
372.83	554.71
373.03	470.45
373.22	442.36
373.42	491.51
373.62	571.09
373.81	599.18
374.01	610.88
374.21	552.37
374.40	585.13
374.60	671.73
374.79	535.98
374.99	535.98
375.19	505.56
375.38	629.60
375.58	594.50
375.78	571.09
375.97	608.54
376.17	671.73
376.37	608.54
376.56	648.33
376.76	601.52
376.95	629.60
377.15	627.26
377.35	624.92
377.54	610.88
377.74	599.18
377.93	657.69
378.13	727.91
378.33	653.01
378.52	643.65
378.72	706.84
378.91	664.71
379.11	641.31
379.31	695.14
379.50	683.44
379.70	606.20
379.89	699.82
380.09	664.71
380.28	758.33
380.48	709.18
380.68	655.35
380.87	699.82
381.07	660.03
381.26	608.54
381.46	690.46
381.65	706.84
381.85	741.95
382.04	737.27
382.24	734.93
382.43	697.48
382.63	713.86
382.83	674.07
383.02	795.78
383.22	739.61
383.41	704.50
383.61	667.05
383.80	784.08
384.00	744.29
384.19	833.23
384.39	802.80
384.58	823.87
384.78	823.87
384.97	837.91
385.17	807.48
385.36	873.02
385.56	814.51
385.75	788.76
385.95	760.67
386.14	802.80
386.34	866.00
386.53	882.38
386.72	763.01
386.92	826.21
387.11	819.19
387.31	854.30
387.50	875.36
387.70	891.74
387.89	924.51
388.09	905.79
388.28	795.78
388.48	947.92
388.67	823.87
388.86	837.91
389.06	976.00
389.25	940.90
389.45	952.60
389.64	957.28
389.84	1022.81
390.03	966.64
390.22	964.30
390.42	992.39
390.61	1078.99
390.81	1076.65
391.00	1053.24
391.19	1027.50
391.39	1095.37
391.58	1036.86
391.78	983.02
391.97	1013.45
392.16	1046.22
392.36	1004.09
392.55	1015.79
392.75	987.71
392.94	947.92
393.13	1034.52
393.33	978.34
393.52	1074.31
393.71	1076.65
393.91	1172.61
394.10	1156.22
394.29	1116.44
394.49	1186.65
394.68	1160.91
394.88	1172.61
395.07	1247.51
395.26	1221.76
395.46	1249.85
395.65	1247.51
395.84	1242.82
396.04	1296.66
396.23	1226.44
396.42	1146.86
396.62	1151.54
396.81	1196.01
397.00	1268.57
397.19	1252.19
397.39	1287.29
397.58	1263.89
397.77	1373.89
397.97	1352.83
398.16	1416.02
398.35	1460.49
398.55	1376.24
398.74	1446.45
398.93	1458.15
399.12	1434.75
399.32	1411.34
399.51	1474.54
399.70	1495.60
399.90	1535.39
400.09	1493.26
400.28	1556.46
400.47	1530.71
400.67	1643.06
400.86	1540.07
401.05	1579.86
401.24	1554.12
401.44	1668.80
401.63	1673.48
401.82	1558.80
402.01	1645.40
402.21	1533.05
402.40	1643.06
402.59	1624.33
402.78	1680.50
402.97	1671.14
403.17	1743.70
403.36	1785.83
403.55	1713.27
403.74	1727.32
403.93	1729.66
404.13	1834.98
404.32	1865.41
404.51	1856.04
404.70	1804.55
404.89	1771.79
405.09	1923.92
405.28	1886.47
405.47	1790.51
405.66	1891.15
405.85	1825.62
406.05	1928.60
406.24	1952.01
406.43	2038.61
406.62	2036.27
406.81	2104.14
407.00	1870.09
407.20	2052.65
407.39	2085.42
407.58	2101.80
407.77	2106.48
407.96	2078.40
408.15	2162.66
408.34	2120.53
408.54	2139.25
408.73	2186.06
408.92	2249.25
409.11	2239.89
409.30	2207.13
409.49	2225.85
409.68	2200.10
409.87	2155.63
410.07	2249.25
410.26	2356.92
410.45	2265.64
410.64	2401.39
410.83	2403.73
411.02	2312.45
411.21	2497.35
411.40	2303.09
411.59	2506.71
411.78	2480.97
411.98	2509.05
412.17	2499.69
412.36	2644.81
412.55	2586.29
412.74	2626.08
412.93	2600.34
413.12	2574.59
413.31	2616.72
413.50	2544.16
413.69	2682.25
413.88	2789.92
414.07	2771.19
414.26	2853.11
414.45	2923.33
414.64	2778.22
414.83	2935.03
415.02	2895.24
415.22	2986.52
415.41	3026.31
415.60	3000.57
415.79	3019.29
415.98	3038.02
416.17	3063.76
416.36	3075.46
416.55	2939.71
416.74	3309.52
416.93	3178.45
417.12	3164.40
417.31	3213.56
417.50	3178.45
417.69	3269.73
417.88	3288.45
418.07	3316.54
418.26	3297.81
418.45	3358.67
418.64	3449.95
418.83	3400.80
419.02	3370.37
419.21	3487.40
419.39	3442.93
419.58	3463.99
419.77	3370.37
419.96	3459.31
420.15	3667.62
420.34	3513.14
420.53	3562.30
420.72	3679.32
420.91	3707.41
421.10	3791.67
421.29	3714.43
421.48	3857.20
421.67	3695.71
421.86	3707.41
422.05	3698.05
422.24	3641.87
422.43	3815.07
422.61	3653.58
422.80	3639.53
422.99	3763.58
423.18	3747.20
423.37	3871.25
423.56	3838.48
423.75	3819.75
423.94	3730.81
424.13	3576.34
424.32	3574.00
424.50	3763.58
424.69	3796.35
424.88	3880.61
425.07	3815.07
425.26	3786.99
425.45	3794.01
425.64	3805.71
425.83	3932.10
426.01	3770.60
426.20	3733.15
426.39	3882.95
426.58	3831.46
426.77	3850.18
426.96	3859.54
427.15	3932.10
427.33	4023.38
427.52	3948.48
427.71	3990.61
427.90	3939.12
428.09	4037.42
428.28	4173.18
428.46	4053.81
428.65	4046.79
428.84	4205.94
429.03	4348.72
429.22	3981.25
429.40	4093.60
429.59	3889.97
429.78	3845.50
429.97	3964.87
430.16	3878.27
430.34	3999.98
430.53	4147.43
430.72	4107.64
430.91	4081.89
431.10	4088.92
431.28	4259.78
431.47	4573.41
431.66	4519.57
431.85	4430.63
432.03	4517.23
432.22	4582.77
432.41	4503.19
432.60	4524.26
432.79	4510.21
432.97	4589.79
433.16	4526.60
433.35	4367.44
433.54	4608.51
433.72	4475.10
433.91	4629.58
434.10	4627.24
434.28	4561.70
434.47	4725.54
434.66	4730.22
434.85	4922.15
435.03	4744.27
435.22	4751.29
435.41	4926.83
435.59	4959.60
435.78	4865.97
435.97	4973.64
436.16	4978.32
436.34	5109.39
436.53	4947.89
436.72	5057.90
436.90	4901.08
437.09	5083.64
437.28	4858.95
437.46	5036.83
437.65	5006.41
437.84	5055.56
438.02	5118.75
438.21	5036.83
438.40	4905.76
438.58	5270.89
438.77	5259.18
438.96	5296.63
439.14	5336.42
439.33	5401.96
439.52	5352.81
439.70	5317.70
439.89	5369.19
440.08	5441.75
440.26	5369.19
440.45	5526.00
440.63	5626.65
440.82	5783.46
441.01	5696.86
441.19	5720.27
441.38	5788.14
441.57	5926.24
441.75	6033.90
441.94	5888.79
442.12	5989.43
442.31	6143.91
442.50	6176.67
442.68	6155.61
442.87	6054.97
443.05	6064.33
443.24	6317.11
443.43	6253.91
443.61	6139.23
443.80	6216.46
443.98	6033.90
444.17	6150.93
444.35	6277.32
444.54	6211.78
444.73	6216.46
444.91	5996.45
445.10	6459.88
445.28	6120.50
445.47	6139.23
445.65	6157.95
445.84	6324.13
446.02	6307.74
446.21	6300.72
446.39	6251.57
446.58	6338.17
446.77	6382.64
446.95	6354.55
447.14	6401.37
447.32	6527.75
447.51	6483.28
447.69	6459.88
447.88	6649.46
448.06	6485.62
448.25	6413.07
448.43	6738.40
448.62	6607.33
448.80	6499.67
448.99	6476.26
449.17	6731.38
449.36	6525.41
449.54	6668.19
449.73	6958.41
449.91	6984.16
450.10	6913.94
450.28	7016.93
450.46	6942.03
450.65	6878.83
450.83	6902.24
451.02	6913.94
451.20	7068.42
451.39	6951.39
451.57	7002.88
451.76	6965.43
451.94	6988.84
452.13	6895.22
452.31	6935.01
452.49	6970.12
452.68	7037.99
452.86	6885.86
453.05	7136.29
453.23	7236.94
453.42	7082.46
453.60	7005.22
453.78	7105.87
453.97	7016.93
454.15	7115.23
454.34	7007.56
454.52	7241.62
454.70	7260.34
454.89	7192.47
455.07	7386.73
455.26	7426.52
455.44	7393.75
455.62	7433.54
455.81	7377.37
455.99	7475.67
456.17	7515.46
456.36	7562.27
456.54	7541.21
456.73	7648.87
456.91	7903.99
457.09	7758.88
457.28	7985.91
457.46	7676.96
457.64	7779.94
457.83	7822.07
458.01	7791.64
458.19	7896.97
458.38	7892.29
458.56	7843.14
458.74	8013.99
458.93	7866.54
459.11	8016.33
459.29	7995.27
459.48	8112.30
459.66	7929.74
459.84	8121.66
460.03	7997.61
460.21	8170.81
460.39	8252.73
460.57	8142.72
460.76	8285.50
460.94	8145.06
461.12	8379.12
461.31	8283.16
461.49	8351.03
461.67	8339.33
461.85	8610.83
462.04	8531.25
462.22	9041.49
462.40	8526.57
462.59	8542.96
462.77	8489.12
462.95	8793.39
463.13	8805.10
463.32	8592.11
463.50	8748.92
463.68	8713.81
463.86	8795.73
464.05	8587.43
464.23	8608.49
464.41	8690.41
464.59	8587.43
464.78	8812.12
464.96	8718.50
465.14	8699.77
465.32	9085.96
465.50	9067.24
465.69	8985.32
465.87	9004.04
466.05	8879.99
466.23	8774.67
466.41	8887.01
466.60	9315.33
466.78	9013.40
466.96	9109.36
467.14	9446.40
467.32	9107.02
467.51	9034.47
467.69	8905.74
467.87	9249.80
468.05	9074.26
468.23	8950.21
468.41	9102.34
468.60	9266.18
468.78	9362.14
468.96	9170.22
469.14	9502.58
469.32	9401.93
469.50	9315.33
469.69	9413.63
469.87	9687.48
470.05	9488.53
470.23	9523.64
470.41	9757.69
470.59	9568.11
470.77	9572.79
470.95	9776.42
471.14	9947.28
471.32	9799.82
471.50	9926.21
471.68	9516.62
471.86	10054.94
472.04	9973.02
472.22	10356.87
472.40	9975.36
472.58	10148.56
472.77	9989.41
472.95	10193.03
473.13	10546.45
473.31	10157.92
473.49	9980.04
473.67	10265.59
473.85	10260.91
474.03	10473.90
474.21	10640.08
474.39	10651.78
474.57	10586.24
474.75	10902.22
474.93	10892.85
475.12	10834.34
475.30	10895.19
475.48	10911.58
475.66	10906.90
475.84	10981.79
476.02	11068.39
476.20	11016.90
476.38	11309.47
476.56	11403.09
476.74	11463.94
476.92	11580.97
477.10	11690.98
477.28	11599.70
477.46	11681.61
477.64	11861.84
477.82	11922.69
478.00	12056.10
478.18	12025.67
478.36	12201.21
478.54	12283.13
478.72	12105.25
478.90	12549.95
479.08	12442.29
479.26	12627.19
479.44	12992.31
479.62	12901.03
479.80	12863.58
479.98	12961.89
480.16	13343.39
480.34	13013.38
480.52	13390.20
480.70	13275.52
480.88	13301.26
481.06	13500.21
481.24	13474.46
481.41	13547.02
481.59	13891.08
481.77	13944.91
481.95	13942.57
482.13	14162.58
482.31	14146.20
482.49	14607.28
482.67	14221.10
482.85	14616.65
483.03	14925.60
483.21	14831.97
483.39	15061.35
483.57	14956.02
483.74	15456.90
483.92	15342.21
484.10	15323.49
484.28	15255.61
484.46	15733.08
484.64	16067.78
484.82	15606.69
485.00	15913.30
485.18	15957.77
485.35	16201.19
485.53	15845.43
485.71	15599.67
485.89	16365.03
486.07	15829.04
486.25	16355.66
486.43	16540.57
486.61	16814.41
486.78	16992.29
486.96	16886.97
487.14	17193.58
487.32	17128.04
487.50	17350.39
487.68	17902.76
487.85	17970.63
488.03	17954.25
488.21	18389.59
488.39	17996.38
488.57	18340.44
488.75	18214.05
488.92	18586.19
489.10	18871.74
489.28	19007.49
489.46	19234.52
489.64	19403.04
489.81	19620.71
489.99	19531.77
490.17	19782.21
490.35	19988.18
490.53	19707.31
490.70	19709.65
490.88	19953.07
491.06	20615.44
491.24	20229.25
491.41	20472.67
491.59	20493.73
491.77	20482.03
491.95	20620.12
492.13	21036.74
492.30	21289.51
492.48	21298.88
492.66	21303.56
492.84	21385.47
493.01	21556.33
493.19	21696.77
493.37	21692.08
493.54	21837.20
493.72	22370.84
493.90	22040.82
494.08	22253.81
494.25	22508.93
494.43	22656.39
494.61	22691.49
494.79	22530.00
494.96	22813.20
495.14	22827.24
495.32	23068.32
495.49	22878.74
495.67	23197.05
495.85	23623.03
496.02	23597.28
496.20	23711.97
496.38	23953.04
496.55	23735.37
496.73	24697.33
496.91	24173.05
497.09	23999.85
497.26	24458.60
497.44	24542.86
497.62	24915.00
497.79	24896.28
497.97	24519.45
498.14	24835.42
498.32	25039.05
498.50	25481.41
498.67	25563.33
498.85	25481.41
499.03	25975.27
499.20	25446.30
499.38	25762.28
499.56	25771.64
499.73	25685.04
499.91	26122.72
500.08	25750.57
500.26	25671.00
500.44	26019.74
500.61	26295.92
500.79	25839.51
500.97	26192.94
501.14	26904.46
501.32	27009.78
501.49	26609.55
501.67	26508.91
501.84	26691.47
502.02	26838.92
502.20	26916.16
502.37	27489.59
502.55	27241.50
502.72	27353.84
502.90	27648.75
503.07	27456.82
503.25	27604.28
503.43	27402.99
503.60	27466.19
503.78	27967.06
503.95	27615.98
504.13	28112.17
504.30	27887.48
504.48	27864.08
504.65	28173.03
504.83	28701.99
505.01	28687.95
505.18	28423.47
505.36	28718.37
505.53	29003.92
505.71	29214.57
505.88	29202.86
506.06	28795.61
506.23	28793.27
506.41	28943.06
506.58	29165.42
506.76	29151.37
506.93	29542.24
507.11	29221.59
507.28	29434.58
507.46	29483.73
507.63	29174.78
507.81	29598.41
507.98	30043.12
508.16	29654.59
508.33	30279.51
508.50	30045.46
508.68	30213.98
508.85	30518.25
509.03	30197.59
509.20	30494.84
509.38	30487.82
509.55	30801.45
509.73	30764.00
509.90	30686.76
510.08	30913.80
510.25	31070.61
510.42	30820.17
510.60	31379.56
510.77	31461.48
510.95	31108.06
511.12	31189.98
511.30	31524.68
511.47	31819.58
511.64	31924.91
511.82	31803.20
511.99	31669.79
512.17	31826.60
512.34	31697.88
512.51	31931.93
512.69	32004.49
512.86	32086.40
513.04	32339.18
513.21	32514.72
513.38	32652.81
513.56	32240.88
513.73	32297.05
513.90	32343.86
514.08	32793.25
514.25	32690.26
514.43	32278.33
514.60	32479.61
514.77	32856.44
514.95	33441.57
515.12	33476.68
515.29	33071.77
515.47	33764.57
515.64	33394.76
515.81	33156.03
515.99	33247.31
516.16	33277.74
516.33	33177.09
516.51	33006.23
516.68	33163.05
516.85	33282.42
517.03	33020.28
517.20	32985.17
517.37	33710.74
517.54	34183.52
517.72	33855.85
517.89	33589.03
518.06	33635.84
518.24	33614.77
518.41	33933.09
518.58	33944.79
518.75	34012.66
518.93	34309.91
519.10	34607.16
519.27	34724.19
519.45	34366.09
519.62	34679.72
519.79	34946.54
519.96	35526.99
520.14	35620.61
520.31	34677.38
520.48	35044.84
520.65	35037.82
520.83	35314.00
521.00	35306.98
521.17	35381.88
521.34	35424.01
521.52	35644.02
521.69	35236.77
521.86	36009.14
522.03	35786.79
522.20	35566.78
522.38	36062.97
522.55	36261.92
522.72	35749.34
522.89	35583.16
523.07	36105.10
523.24	35833.60
523.41	36409.37
523.58	36175.32
523.75	36643.43
523.92	36517.04
524.10	36676.19
524.27	36629.38
524.44	36978.12
524.61	37060.04
524.78	36886.84
524.96	37184.09
525.13	36879.82
525.30	37308.14
525.47	37240.26
525.64	37273.03
525.81	37198.13
525.98	36863.44
526.16	36783.86
526.33	36762.79
526.50	37177.07
526.67	36505.34
526.84	37029.62
527.01	37085.79
527.18	37413.46
527.36	37834.76
527.53	37961.15
527.70	38043.07
527.87	38277.12
528.04	37818.38
528.21	38153.07
528.38	37895.61
528.55	38127.33
528.72	38436.28
528.89	38543.94
529.07	38232.65
529.24	38164.78
529.41	38216.27
529.58	38249.03
529.75	38197.54
529.92	38506.49
530.09	38408.19
530.26	38770.97
530.43	38724.16
530.60	38646.93
530.77	38747.57
530.94	39005.03
531.11	38967.58
531.28	39070.56
531.46	39227.38
531.63	39058.86
531.80	38965.24
531.97	39049.50
532.14	39103.33
532.31	39098.65
532.48	39061.20
532.65	39346.75
532.82	39667.40
532.99	39449.73
533.16	39203.97
533.33	39501.22
533.50	39470.79
533.67	39583.14
533.84	39604.20
534.01	39892.09
534.18	39515.26
534.35	40053.59
534.52	39674.42
534.69	39882.73
534.86	40041.88
535.03	39601.86
535.20	39899.11
535.37	40114.44
535.54	40570.85
535.71	39941.24
535.88	40512.33
536.05	40311.05
536.22	40383.60
536.38	40215.08
536.55	40500.63
536.72	40856.39
536.89	40222.11
537.06	40105.08
537.23	40596.59
537.40	40706.60
537.57	40449.14
537.74	40697.24
537.91	40940.65
538.08	40732.34
538.25	40844.69
538.42	40765.11
538.59	41429.82
538.75	40800.22
538.92	41038.95
539.09	40795.54
539.26	40919.59
539.43	40928.95
539.60	40875.12
539.77	41017.89
539.94	41265.99
540.11	40914.90
540.28	41233.22
540.44	41352.58
540.61	41158.32
540.78	41057.68
540.95	41205.13
541.12	41235.56
541.29	41523.44
541.46	41581.96
541.62	41542.17
541.79	41659.20
541.96	41296.41
542.13	41497.70
542.30	42012.62
542.47	41853.46
542.63	41904.95
542.80	41951.76
542.97	42204.54
543.14	42593.07
543.31	42071.13
543.48	42401.14
543.64	42567.32
543.81	42717.12
543.98	42361.36
544.15	42099.22
544.32	42756.91
544.48	42817.76
544.65	42422.21
544.82	42473.70
544.99	42054.75
545.16	42579.03
545.32	42581.37
545.49	43035.43
545.66	42852.87
545.83	43122.03
546.00	42969.90
546.16	43157.14
546.33	42473.70
546.50	42916.06
546.67	42691.37
546.83	42670.31
547.00	42979.26
547.17	43096.28
547.34	43173.52
547.50	43084.58
547.67	43182.88
547.84	42871.59
548.00	43323.32
548.17	43526.94
548.34	43585.46
548.51	43613.54
548.67	43805.47
548.84	43503.54
549.01	43166.50
549.18	43662.69
549.34	43089.26
549.51	43597.16
549.68	43777.38
549.84	43545.67
550.01	43377.15
550.18	43117.35
550.34	43753.97
550.51	43695.46
550.68	43800.79
550.84	43407.58
551.01	43831.21
551.18	43997.39
551.34	43384.17
551.51	43782.06
551.68	43473.11
551.84	43971.64
552.01	44055.90
552.18	43985.69
552.34	44121.44
552.51	44112.08
552.68	44093.35
552.84	44250.17
553.01	44402.30
553.18	43878.02
553.34	44311.02
553.51	43985.69
553.67	44341.45
553.84	44156.55
554.01	44357.83
554.17	44425.71
554.34	44488.90
554.51	44762.75
554.67	45022.54
554.84	44610.61
555.00	44083.99
555.17	44451.45
555.33	44666.78
555.50	44662.10
555.67	44018.46
555.83	44421.03
556.00	44531.03
556.16	45052.97
556.33	44526.35
556.50	44453.79
556.66	44769.77
556.83	44341.45
556.99	45141.91
557.16	45427.46
557.32	44744.02
557.49	44744.02
557.65	44467.84
557.82	44734.66
557.98	45020.20
558.15	44732.32
558.32	45144.25
558.48	44570.82
558.65	44779.13
558.81	44437.41
558.98	45319.79
559.14	44992.12
559.31	44968.71
559.47	44917.22
559.64	45439.16
559.80	45509.38
559.97	45165.32
560.13	44818.92
560.30	45205.11
560.46	44872.75
560.63	45247.24
560.79	44961.69
560.96	45219.15
561.12	45340.86
561.29	45579.59
561.45	45612.36
561.61	45258.94
561.78	45305.75
561.94	44924.24
562.11	45397.03
562.27	45315.11
562.44	44952.33
562.60	45394.69
562.77	45694.28
562.93	44912.54
563.10	45654.49
563.26	45488.31
563.42	45312.77
563.59	44774.45
563.75	45427.46
563.92	45595.98
564.08	45750.45
564.24	45507.04
564.41	45815.99
564.57	45581.93
564.74	45415.76
564.90	45462.57
565.07	45797.26
565.23	45661.51
565.39	45570.23
565.56	45759.81
565.72	45558.53
565.88	45544.48
566.05	45502.35
566.21	45766.84
566.38	45827.69
566.54	45247.24
566.70	45801.94
566.87	45900.25
567.03	45820.67
567.19	45935.35
567.36	45961.10
567.52	45558.53
567.68	45565.55
567.85	45338.52
568.01	45986.85
568.17	45673.21
568.34	45684.92
568.50	45514.06
568.66	45764.49
568.83	45600.66
568.99	45448.52
569.15	45542.14
569.32	45745.77
569.48	45399.37
569.64	46054.72
569.81	46160.05
569.97	46045.36
570.13	45925.99
570.30	45949.40
570.46	45867.48
570.62	45717.68
570.78	45563.21
570.95	45750.45
571.11	45855.78
571.27	45713.00
571.43	45865.14
571.60	46153.02
571.76	46080.47
571.92	46073.45
572.09	46117.92
572.25	45497.67
572.41	46033.66
572.57	45666.19
572.74	46272.39
572.90	45921.31
573.06	46197.49
573.22	45970.46
573.38	45989.19
573.55	45844.07
573.71	45750.45
573.87	45682.58
574.03	45965.78
574.20	46164.73
574.36	45797.26
574.52	45621.72
574.68	45918.97
574.84	45825.35
575.01	45928.33
575.17	46356.65
575.33	45820.67
575.49	45823.01
575.65	46457.29
575.82	46181.11
575.98	46216.22
576.14	46237.28
576.30	46326.22
576.46	46054.72
576.62	45839.39
576.79	46344.95
576.95	45457.88
577.11	46124.94
577.27	46469.00
577.43	45993.87
577.59	45638.11
577.75	45848.75
577.92	45373.63
578.08	45612.36
578.24	45659.17
578.40	45544.48
578.56	45748.11
578.72	46019.61
578.88	46138.98
579.04	46021.95
579.21	45584.27
579.37	46211.54
579.53	46085.15
579.69	45893.22
579.85	45813.65
580.01	46351.97
580.17	46471.34
580.33	46298.14
580.49	46377.72
580.65	46043.02
580.82	46459.63
580.98	45963.44
581.14	46146.00
581.30	46319.20
581.46	45832.37
581.62	46593.04
581.78	46354.31
581.94	46155.36
582.10	46534.53
582.26	46550.91
582.42	46014.93
582.58	46370.69
582.74	45984.51
582.90	46085.15
583.06	45984.51
583.22	46113.23
583.38	46216.22
583.54	46309.84
583.70	46270.05
583.86	46248.99
584.02	45876.84
584.18	46204.52
584.34	46220.90
584.50	46227.92
584.66	46073.45
584.82	46419.84
584.98	46047.70
585.14	46021.95
585.30	46321.54
585.46	46309.84
585.62	45860.46
585.78	46384.74
585.94	45801.94
586.10	46150.68
586.26	46026.63
586.42	46223.24
586.58	46246.65
586.74	46293.46
586.90	46366.01
587.06	46122.60
587.22	46080.47
587.38	46162.39
587.54	45949.40
587.70	46328.56
587.86	46351.97
588.02	46057.06
588.18	46356.65
588.34	46253.67
588.49	46251.33
588.65	45904.93
588.81	45593.64
588.97	46256.01
589.13	46017.27
589.29	45684.92
589.45	45652.15
589.61	46326.22
589.77	46033.66
589.93	46363.67
590.08	46511.13
590.24	46253.67
590.40	46319.20
590.56	46714.75
590.72	46763.90
590.88	46284.09
591.04	46653.90
591.20	46618.79
591.35	46457.29
591.51	46780.29
591.67	46696.03
591.83	46380.06
591.99	46153.02
592.15	46256.01
592.31	46513.47
592.46	46625.81
592.62	46291.12
592.78	46667.94
592.94	46501.76
593.10	46274.73
593.26	46478.36
593.41	46188.13
593.57	46110.89
593.73	46307.50
593.89	46171.75
594.05	46260.69
594.20	45846.41
594.36	46522.83
594.52	46607.09
594.68	46642.20
594.84	46368.35
594.99	46791.99
595.15	46653.90
595.31	46665.60
595.47	46405.80
595.62	46557.94
595.78	46796.67
595.94	46492.40
596.10	46527.51
596.25	46674.96
596.41	46644.54
596.57	46607.09
596.73	46494.74
596.88	46279.41
597.04	46562.62
597.20	46124.94
597.36	46333.24
597.51	46497.08
597.67	46506.44
597.83	46169.41
597.99	46354.31
598.14	46253.67
598.30	46630.49
598.46	45989.19
598.61	46752.20
598.77	46033.66
598.93	46110.89
599.09	46398.78
599.24	46550.91
599.40	46974.55
599.56	46745.18
599.71	46396.44
599.87	46773.27
600.03	46443.25
600.18	46192.81
600.34	46382.40
600.50	46504.10
600.65	46146.00
600.81	46581.34
600.97	46714.75
601.12	46777.95
601.28	46590.70
601.44	46326.22
601.59	46047.70
601.75	46134.30
601.91	46951.15
602.06	46581.34
602.22	46452.61
602.37	46445.59
602.53	46824.76
602.69	46511.13
602.84	46595.38
603.00	46522.83
603.16	46305.16
603.31	46433.89
603.47	46333.24
603.62	46211.54
603.78	46256.01
603.94	46227.92
604.09	46536.87
604.25	46710.07
604.40	46251.33
604.56	46333.24
604.71	46710.07
604.87	46256.01
605.03	46555.60
605.18	46164.73
605.34	46153.02
605.49	46415.16
605.65	46829.44
605.80	46340.27
605.96	46454.95
606.12	46431.55
606.27	46380.06
606.43	46085.15
606.58	46602.41
606.74	46330.90
606.89	46469.00
607.05	46927.74
607.20	46656.24
607.36	46330.90
607.51	46534.53
607.67	46569.64
607.82	46256.01
607.98	46270.05
608.13	46567.30
608.29	46351.97
608.44	45972.80
608.60	45750.45
608.75	45940.04
608.91	45663.85
609.06	46108.55
609.22	45977.48
609.37	45792.58
609.53	46309.84
609.68	46059.40
609.84	46085.15
609.99	46260.69
610.15	46007.91
610.30	46202.18
610.46	45928.33
610.61	45783.22
610.76	45727.05
610.92	46234.94
611.07	45603.00
611.23	45869.82
611.38	46071.10
611.54	45333.84
611.69	45439.16
611.84	45748.11
612.00	45666.19
612.15	45904.93
612.31	46028.98
612.46	45464.91
612.62	45876.84
612.77	45628.74
612.92	46050.04
613.08	45720.02
613.23	45481.29
613.39	45537.46
613.54	45258.94
613.69	45530.44
613.85	45043.61
614.00	45600.66
614.15	45628.74
614.31	45914.29
614.46	45404.05
614.62	45462.57
614.77	44875.09
614.92	45277.66
615.08	45497.67
615.23	45511.72
615.38	45347.88
615.54	44779.13
615.69	45148.93
615.84	44830.62
616.00	45352.56
616.15	44954.67
616.30	45338.52
616.46	45212.13
616.61	45118.51
616.76	45008.50
616.92	44835.30
617.07	44570.82
617.22	44952.33
617.37	44989.78
617.53	45401.71
617.68	45287.03
617.83	45352.56
617.99	45118.51
618.14	45106.80
618.29	44910.20
618.45	44741.68
618.60	44893.82
618.75	44802.53
618.90	44959.35
619.06	45059.99
619.21	44472.52
619.36	44825.94
619.51	44858.71
619.67	44507.63
619.82	44577.84
619.97	45043.61
620.12	44734.66
620.28	44205.70
620.43	44624.65
620.58	44179.95
620.73	44622.31
620.89	44626.99
621.04	44311.02
621.19	44203.36
621.34	44367.20
621.49	44308.68
621.65	44191.65
621.80	44444.43
621.95	44325.07
622.10	44378.90
622.25	44088.67
622.41	43833.55
622.56	43786.74
622.71	44531.03
622.86	43665.03
623.01	44004.41
623.16	44327.41
623.32	44355.49
623.47	44261.87
623.62	44577.84
623.77	44093.35
623.92	44027.82
624.07	43679.08
624.23	43934.20
624.38	43592.48
624.53	44091.01
624.68	44308.68
624.83	43618.22
624.98	43821.85
625.13	43550.35
625.29	43442.68
625.44	43910.79
625.59	43606.52
625.74	43117.35
625.89	43313.95
626.04	43285.87
626.19	43143.09
626.34	43744.61
626.49	43662.69
626.65	43271.82
626.80	43597.16
626.95	43498.86
627.10	43377.15
627.25	43236.72
627.40	43037.77
627.55	43189.91
627.70	42494.77
627.85	42689.03
628.00	42909.04
628.15	43351.40
628.30	43070.54
628.45	42990.96
628.60	43005.00
628.76	43086.92
628.91	43262.46
629.06	43035.43
629.21	42890.32
629.36	42506.47
629.51	42969.90
629.66	42808.40
629.81	42452.64
629.96	42658.60
630.11	42899.68
630.26	42876.27
630.41	42981.60
630.56	42562.64
630.71	42752.23
630.86	42768.61
631.01	42543.92
631.16	42356.67
631.31	42525.19
631.46	41729.41
631.61	42120.28
631.76	42384.76
631.91	42721.80
632.06	42127.30
632.21	42726.48
632.36	42513.49
632.51	42485.40
632.66	42504.13
632.81	42277.10
632.96	42497.11
633.10	41743.45
633.25	41832.39
633.40	42202.20
633.55	42553.28
633.70	42368.38
633.85	42564.98
634.00	41799.63
634.15	42277.10
634.30	42050.06
634.45	42260.71
634.60	42043.04
634.75	42284.12
634.90	41612.38
635.05	41998.57
635.19	41879.21
635.34	42347.31
635.49	41738.77
635.64	41785.58
635.79	41460.25
635.94	41652.17
636.09	41844.10
636.24	41345.56
636.39	41748.14
636.53	41617.07
636.68	41024.91
636.83	41886.23
636.98	41811.33
637.13	41455.57
637.28	41631.11
637.43	41713.03
637.57	41603.02
637.72	42014.96
637.87	41762.18
638.02	41399.40
638.17	41347.90
638.32	41069.38
638.46	41097.47
638.61	41088.10
638.76	41048.32
638.91	41148.96
639.06	41113.85
639.20	41237.90
639.35	41371.31
639.50	41275.35
639.65	40818.94
639.80	41322.16
639.94	41228.54
640.09	40832.99
640.24	40811.92
640.39	40907.88
640.54	40931.29
640.68	40914.90
640.83	41104.49
640.98	40355.52
641.13	40512.33
641.27	40868.09
641.42	40877.46
641.57	41008.53
641.72	40809.58
641.86	40041.88
642.01	40481.91
642.16	40507.65
642.31	40175.30
642.45	40507.65
642.60	40219.77
642.75	40158.91
642.90	40336.79
643.04	40432.75
643.19	40509.99
643.34	40570.85
643.48	40339.13
643.63	40870.43
643.78	40451.48
643.93	40154.23
644.07	40123.80
644.22	39751.66
644.37	40161.25
644.51	39711.87
644.66	40596.59
644.81	40128.48
644.95	40423.39
645.10	40187.00
645.25	40692.55
645.39	39791.45
645.54	40428.07
645.69	40250.19
645.83	39552.71
645.98	40343.81
646.13	40006.78
646.27	40067.63
646.42	39782.09
646.57	39814.85
646.71	40313.39
646.86	39866.34
647.00	39873.37
647.15	39990.39
647.30	40025.50
647.44	39599.52
647.59	39765.70
647.74	39536.33
647.88	39349.09
648.03	39807.83
648.17	39260.15
648.32	39220.36
648.47	39405.26
648.61	39555.05
648.76	39768.04
648.90	39639.31
649.05	39225.04
649.20	39438.03
649.34	39218.02
649.49	39206.31
649.63	39409.94
649.78	39449.73
649.92	39267.17
650.07	39440.37
650.21	38962.90
650.36	39250.78
650.51	39288.23
650.65	39466.11
650.80	40116.78
650.94	39533.99
651.09	38955.88
651.23	38911.41
651.38	38869.28
651.52	39000.35
651.67	39438.03
651.81	38848.21
651.96	39000.35
652.10	38981.62
652.25	38684.37
652.39	38845.87
652.54	38572.03
652.68	39147.80
652.83	38801.40
652.97	39262.49
653.12	38637.56
653.26	38890.34
653.41	39086.95
653.55	38649.27
653.70	38452.66
653.84	38660.97
653.99	38595.43
654.13	38501.81
654.27	38185.84
654.42	39047.16
654.56	38349.68
654.71	38675.01
654.85	38569.69
655.00	38429.26
655.14	37972.85
655.29	38153.07
655.43	38092.22
655.57	37787.95
655.72	37958.81
655.86	37638.15
656.01	37748.16
656.15	37310.48
656.30	38106.26
656.44	37567.94
656.58	37645.18
656.73	37364.31
656.87	37724.75
657.01	37266.01
657.16	37724.75
657.30	37673.26
657.45	37443.89
657.59	37530.49
657.73	37324.52
657.88	37294.10
658.02	37163.03
658.16	37858.17
658.31	38314.57
658.45	37626.45
658.60	37647.52
658.74	37724.75
658.88	37525.81
659.03	37160.69
659.17	37048.34
659.31	37455.59
659.46	37390.06
659.60	37479.00
659.74	37387.72
659.89	37130.26
660.03	36935.99
660.17	37284.73
660.32	37151.32
660.46	37205.16
660.60	37516.45
660.74	37296.44
660.89	36961.74
661.03	36456.18
661.17	37001.53
661.32	36701.94
661.46	36758.11
661.60	36570.87
661.74	36498.31
661.89	36884.50
662.03	36739.39
662.17	36346.18
662.31	36203.41
662.46	36842.37
662.60	36882.16
662.74	36456.18
662.88	36400.01
663.03	36070.00
663.17	36325.11
663.31	36180.00
663.45	36320.43
663.60	36311.07
663.74	35934.24
663.88	35690.83
664.02	35646.36
664.17	35765.73
664.31	35587.85
664.45	35447.41
664.59	35747.00
664.73	35845.30
664.88	35566.78
665.02	35721.26
665.16	35885.09
665.30	35693.17
665.44	35456.78
665.59	35276.55
665.73	35122.08
665.87	35026.12
666.01	35498.91
666.15	35236.77
666.29	34906.75
666.44	35227.40
666.58	34789.72
666.72	34658.65
666.86	35189.95
667.00	35126.76
667.14	34862.28
667.28	34735.89
667.43	34169.48
667.57	34752.27
667.71	34852.92
667.85	34569.71
667.99	34696.10
668.13	34338.00
668.27	34422.26
668.41	34604.82
668.56	34281.83
668.70	34412.90
668.84	34153.10
668.98	34256.08
669.12	33975.22
669.26	33509.45
669.40	34272.46
669.54	33837.12
669.68	33762.23
669.82	33577.33
669.96	33301.14
670.10	33172.41
670.25	34031.39
670.39	33722.44
670.53	33722.44
670.67	33373.70
670.81	33890.96
670.95	33556.26
671.09	33326.89
671.23	33692.01
671.37	33195.82
671.51	33165.39
671.65	33186.46
671.79	32837.72
671.93	33071.77
672.07	33081.13
672.21	32678.56
672.35	32720.69
672.49	32666.86
672.63	32985.17
672.77	32730.05
672.91	32683.24
673.05	32381.31
673.19	32273.65
673.33	32325.14
673.47	32184.71
673.61	32053.64
673.75	32210.45
673.89	31489.57
674.03	31679.15
674.17	31494.25
674.31	31763.41
674.45	31058.91
674.59	31482.55
674.73	31655.75
674.87	31786.82
675.01	31903.84
675.15	31587.87
675.29	31627.66
675.43	31632.34
675.56	31101.04
675.70	31367.86
675.84	30836.56
675.98	30099.29
676.12	31171.25
676.26	30866.98
676.40	30654.00
676.54	30607.19
676.68	30401.22
676.82	30075.88
676.96	30010.35
677.10	30103.97
677.23	30125.04
677.37	30286.53
677.51	30010.35
677.65	29869.92
677.79	29518.84
677.93	29841.83
678.07	29558.63
678.21	29469.69
678.34	29195.84
678.48	29551.60
678.62	29242.65
678.76	29017.96
678.90	29064.77
679.04	29116.26
679.18	29050.73
679.31	28811.99
679.45	28746.46
679.59	28505.38
679.73	28563.90
679.87	28290.06
680.00	28582.62
680.14	28397.72
680.28	28254.95
680.42	28257.29
680.56	28158.99
680.70	27929.61
680.83	27903.87
680.97	27793.86
681.11	27344.48
681.25	27524.70
681.39	27513.00
681.52	27770.46
681.66	27466.19
681.80	27461.51
681.94	27204.05
682.07	27248.52
682.21	26934.88
682.35	26806.16
682.49	26920.84
682.62	26593.17
682.76	26651.68
682.90	26932.54
683.04	26885.73
683.17	26377.84
683.31	26326.35
683.45	26277.19
683.59	26363.79
683.72	26111.02
683.86	25628.87
684.00	25605.46
684.13	26111.02
684.27	25881.64
684.41	25610.14
684.55	25453.33
684.68	25165.44
684.82	25287.15
684.96	25621.84
685.09	25081.18
685.23	25682.70
685.37	24570.94
685.50	25326.94
685.64	24954.79
685.78	24159.01
685.91	24769.89
686.05	24432.85
686.19	24538.18
686.32	24634.14
686.46	24191.78
686.60	24065.39
686.73	23814.95
686.87	23821.97
687.01	23758.78
687.14	23330.46
687.28	23576.22
687.42	23161.94
687.55	23480.25
687.69	23632.39
687.82	23194.71
687.96	23484.94
688.10	23424.08
688.23	22960.66
688.37	22993.42
688.50	22867.03
688.64	22864.69
688.78	22742.99
688.91	22544.04
689.05	22625.96
689.18	22319.35
689.32	22150.83
689.46	22389.56
689.59	22476.16
689.73	22204.66
689.86	22008.06
690.00	22263.18
690.13	22553.40
690.27	21968.27
690.41	22160.19
690.54	21474.42
690.68	21591.44
690.81	21266.11
690.95	21284.83
691.08	21680.38
691.22	21247.38
691.35	21502.50
691.49	21385.47
691.62	21181.85
691.76	21397.18
691.89	21287.17
692.03	20905.66
692.16	20893.96
692.30	20994.61
692.43	20734.81
692.57	20800.34
692.70	20725.44
692.84	20510.11
692.97	20430.54
693.11	20084.14
693.24	20259.68
693.38	20203.50
693.51	19833.70
693.65	19836.04
693.78	20154.35
693.92	20226.91
694.05	19374.95
694.19	19723.69
694.32	19639.44
694.45	19669.86
694.59	19262.61
694.72	19250.91
694.86	19136.22
694.99	19131.54
695.13	18958.34
695.26	18705.56
695.39	18860.04
695.53	19199.41
695.66	19002.81
695.80	18820.25
695.93	18249.16
696.07	18668.11
696.20	18389.59
696.33	18640.03
696.47	18478.53
696.60	18405.97
696.73	18384.91
696.87	18221.07
697.00	18066.60
697.14	18080.64
697.27	17741.26
697.40	18050.21
697.54	17509.55
697.67	17720.20
697.80	17841.90
697.94	17441.67
698.07	17350.39
698.21	17516.57
698.34	17104.64
698.47	17055.48
698.61	16760.58
698.74	16641.21
698.87	16910.37
699.01	17088.25
699.14	16865.90
699.27	16575.67
699.40	16861.22
699.54	16402.47
699.67	16526.52
699.80	16334.60
699.94	16390.77
700.07	16437.58
700.20	16224.59
700.34	16154.38
700.47	16233.96
700.60	16093.52
700.73	16121.61
700.87	15901.60
701.00	15824.36
701.13	15723.72
701.26	15709.68
701.40	16058.42
701.53	15543.50
701.66	15662.86
701.79	15269.66
701.93	15316.47
702.06	15293.06
702.19	15075.39
702.32	15253.27
702.46	14951.34
702.59	14869.42
702.72	15201.78
702.85	14909.21
702.99	14970.07
703.12	15180.71
703.25	15103.48
703.38	14728.99
703.51	14441.11
703.65	14523.02
703.78	14712.61
703.91	14389.61
704.04	14508.98
704.17	14527.71
704.31	14387.27
704.44	13973.00
704.57	14134.50
704.70	13954.27
704.83	13973.00
704.96	13923.85
705.10	14122.79
705.23	14097.05
>>>>>End Processed Spectral Data<<<<<
