SpectraSuite Data File
++++++++++++++++++++++++++++++++++++
Date: Fri Oct 25 10:47:01 EDT 2013
User: price-jones
Dark Spectrum Present: No
Reference Spectrum Present: No
Number of Sampled Component Spectra: 1
Spectrometers: USB2+H05261
Integration Time (usec): 100000 (USB2+H05261)
Spectra Averaged: 1 (USB2+H05261)
Boxcar Smoothing: 0 (USB2+H05261)
Correct for Electrical Dark: No (USB2+H05261)
Strobe/Lamp Enabled: No (USB2+H05261)
Correct for Detector Non-linearity: No (USB2+H05261)
Correct for Stray Light: No (USB2+H05261)
Number of Pixels in Processed Spectrum: 2048
>>>>>Begin Processed Spectral Data<<<<<
365.73	147.45
365.92	147.45
366.12	147.45
366.32	35.11
366.52	0.00
366.72	126.39
366.91	0.00
367.11	32.77
367.31	49.15
367.51	0.00
367.70	0.00
367.90	51.49
368.10	65.54
368.30	7.02
368.49	42.13
368.69	30.43
368.89	46.81
369.09	56.17
369.28	25.75
369.48	21.06
369.68	84.26
369.87	142.77
370.07	110.01
370.27	154.48
370.47	156.82
370.66	395.55
370.86	428.32
371.06	421.30
371.25	472.79
371.45	444.70
371.65	400.23
371.84	512.58
372.04	491.51
372.24	505.56
372.44	425.98
372.63	447.04
372.83	444.70
373.03	486.83
373.22	461.09
373.42	550.03
373.62	514.92
373.81	568.75
374.01	606.20
374.21	512.58
374.40	543.00
374.60	622.58
374.79	505.56
374.99	585.13
375.19	564.07
375.38	638.97
375.58	575.77
375.78	681.10
375.97	587.47
376.17	594.50
376.37	491.51
376.56	564.07
376.76	531.30
376.95	674.07
377.15	589.82
377.35	608.54
377.54	662.37
377.74	526.62
377.93	592.16
378.13	648.33
378.33	676.41
378.52	645.99
378.72	699.82
378.91	702.16
379.11	622.58
379.31	594.50
379.50	650.67
379.70	697.48
379.89	737.27
380.09	601.52
380.28	683.44
380.48	702.16
380.68	643.65
380.87	653.01
381.07	674.07
381.26	741.95
381.46	653.01
381.65	697.48
381.85	664.71
382.04	671.73
382.24	732.59
382.43	674.07
382.63	657.69
382.83	725.57
383.02	772.38
383.22	807.48
383.41	727.91
383.61	758.33
383.80	741.95
384.00	784.08
384.19	716.20
384.39	791.10
384.58	847.27
384.78	826.21
384.97	840.25
385.17	767.70
385.36	835.57
385.56	739.61
385.75	755.99
385.95	788.76
386.14	784.08
386.34	842.59
386.53	746.63
386.72	837.91
386.92	887.06
387.11	798.12
387.31	828.55
387.50	828.55
387.70	903.45
387.89	826.21
388.09	877.70
388.28	847.27
388.48	898.77
388.67	919.83
388.86	912.81
389.06	837.91
389.25	957.28
389.45	1029.84
389.64	915.15
389.84	870.68
390.03	961.96
390.22	959.62
390.42	940.90
390.61	1004.09
390.81	959.62
391.00	943.24
391.19	1029.84
391.39	1029.84
391.58	1050.90
391.78	973.66
391.97	990.05
392.16	994.73
392.36	1043.88
392.55	915.15
392.75	966.64
392.94	915.15
393.13	1036.86
393.33	990.05
393.52	987.71
393.71	1071.97
393.91	978.34
394.10	1053.24
394.29	1018.13
394.49	1090.69
394.68	1118.78
394.88	1196.01
395.07	1191.33
395.26	1207.72
395.46	1132.82
395.65	1210.06
395.84	1156.22
396.04	1277.93
396.23	1158.57
396.42	1151.54
396.62	1174.95
396.81	1238.14
397.00	1139.84
397.19	1249.85
397.39	1282.61
397.58	1261.55
397.77	1256.87
397.97	1366.87
398.16	1315.38
398.35	1336.45
398.55	1348.15
398.74	1406.66
398.93	1446.45
399.12	1359.85
399.32	1453.47
399.51	1404.32
399.70	1341.13
399.90	1502.62
400.09	1483.90
400.28	1406.66
400.47	1434.75
400.67	1453.47
400.86	1572.84
401.05	1575.18
401.24	1549.43
401.44	1519.01
401.63	1582.20
401.82	1551.78
402.01	1563.48
402.21	1673.48
402.40	1554.12
402.59	1739.02
402.78	1547.09
402.97	1643.06
403.17	1617.31
403.36	1614.97
403.55	1706.25
403.74	1715.61
403.93	1652.42
404.13	1596.25
404.32	1720.29
404.51	1675.82
404.70	1849.02
404.89	1703.91
405.09	1870.09
405.28	1722.63
405.47	1820.94
405.66	1823.28
405.85	1959.03
406.05	1858.39
406.24	1792.85
406.43	1930.94
406.62	1952.01
406.81	1933.28
407.00	1858.39
407.20	1966.05
407.39	2026.90
407.58	2017.54
407.77	2001.16
407.96	1982.43
408.15	2015.20
408.34	2083.08
408.54	2141.59
408.73	2045.63
408.92	2115.84
409.11	2108.82
409.30	2136.91
409.49	2083.08
409.68	2108.82
409.87	2118.18
410.07	2167.34
410.26	2094.78
410.45	2305.43
410.64	2265.64
410.83	2284.36
411.02	2352.24
411.21	2399.05
411.40	2438.84
411.59	2387.35
411.78	2389.69
411.98	2387.35
412.17	2495.01
412.36	2415.43
412.55	2434.16
412.74	2511.39
412.93	2630.76
413.12	2480.97
413.31	2614.38
413.50	2661.19
413.69	2733.75
413.88	2576.93
414.07	2698.64
414.26	2654.17
414.45	2780.56
414.64	2675.23
414.83	2745.45
415.02	2771.19
415.22	2963.12
415.41	2869.50
415.60	2888.22
415.79	2970.14
415.98	3084.83
416.17	3009.93
416.36	2979.50
416.55	3115.25
416.74	3023.97
416.93	3052.06
417.12	3131.64
417.31	3105.89
417.50	3183.13
417.69	3281.43
417.88	3220.58
418.07	3131.64
418.26	3108.23
418.45	3262.71
418.64	3412.50
418.83	3496.76
419.02	3332.92
419.21	3351.65
419.39	3396.12
419.58	3325.90
419.77	3274.41
419.96	3309.52
420.15	3407.82
420.34	3438.25
420.53	3503.78
420.72	3595.06
420.91	3583.36
421.10	3630.17
421.29	3574.00
421.48	3576.34
421.67	3581.02
421.86	3569.32
422.05	3466.33
422.24	3403.14
422.43	3524.85
422.61	3653.58
422.80	3740.18
422.99	3705.07
423.18	3707.41
423.37	3726.13
423.56	3648.90
423.75	3721.45
423.94	3672.30
424.13	3445.27
424.32	3550.59
424.50	3730.81
424.69	3822.09
424.88	3927.42
425.07	3763.58
425.26	3822.09
425.45	3712.09
425.64	3611.45
425.83	3604.42
426.01	3758.90
426.20	3674.64
426.39	3784.65
426.58	3674.64
426.77	3681.66
426.96	3667.62
427.15	3847.84
427.33	3819.75
427.52	3719.11
427.71	3894.65
427.90	3873.59
428.09	3798.69
428.28	3892.31
428.46	3911.04
428.65	3946.14
428.84	4016.36
429.03	3974.23
429.22	3801.03
429.40	4009.34
429.59	3943.80
429.78	3763.58
429.97	3564.64
430.16	3854.86
430.34	4084.23
430.53	4002.32
430.72	3941.46
430.91	4072.53
431.10	4208.28
431.28	4217.65
431.47	4313.61
431.66	4236.37
431.85	4201.26
432.03	4386.16
432.22	4479.79
432.41	4337.01
432.60	4369.78
432.79	4369.78
432.97	4479.79
433.16	4432.97
433.35	4334.67
433.54	4299.56
433.72	4526.60
433.91	4456.38
434.10	4491.49
434.28	4418.93
434.47	4566.39
434.66	4711.50
434.85	4725.54
435.03	4613.20
435.22	4587.45
435.41	4833.21
435.59	4821.50
435.78	4734.90
435.97	4681.07
436.16	4709.16
436.34	4713.84
436.53	4730.22
436.72	4959.60
436.90	4725.54
437.09	4849.59
437.28	4709.16
437.46	4873.00
437.65	4865.97
437.84	4924.49
438.02	4997.04
438.21	4952.57
438.40	4915.12
438.58	4994.70
438.77	5109.39
438.96	5165.56
439.14	5135.14
439.33	5036.83
439.52	5242.80
439.70	5235.78
439.89	5235.78
440.08	5404.30
440.26	5266.21
440.45	5390.25
440.63	5537.71
440.82	5657.07
441.01	5416.00
441.19	5570.48
441.38	5633.67
441.57	5554.09
441.75	5813.89
441.94	5736.65
442.12	5879.43
442.31	5944.96
442.50	5954.32
442.68	5987.09
442.87	5973.05
443.05	5827.93
443.24	5935.60
443.43	5886.45
443.61	6019.86
443.80	6256.25
443.98	5940.28
444.17	5774.10
444.35	6080.71
444.54	6242.21
444.73	6071.35
444.91	6043.26
445.10	6083.05
445.28	5989.43
445.47	6190.72
445.65	6141.57
445.84	6139.23
446.02	6010.50
446.21	6223.48
446.39	5951.98
446.58	6242.21
446.77	6284.34
446.95	6141.57
447.14	6345.19
447.32	6230.51
447.51	6214.12
447.69	6274.98
447.88	6380.30
448.06	6289.02
448.25	6389.66
448.43	6319.45
448.62	6298.38
448.80	6270.30
448.99	6518.39
449.17	6333.49
449.36	6331.15
449.54	6616.69
449.73	6649.46
449.91	6656.48
450.10	6520.73
450.28	6867.13
450.46	6665.85
450.65	6773.51
450.83	6747.76
451.02	6717.34
451.20	6654.14
451.39	6832.02
451.57	6736.06
451.76	6663.51
451.94	6822.66
452.13	6822.66
452.31	6698.61
452.49	6569.88
452.68	6665.85
452.86	6848.41
453.05	6787.55
453.23	6841.39
453.42	6789.89
453.60	6761.81
453.78	6953.73
453.97	7040.33
454.15	6937.35
454.34	6953.73
454.52	7091.82
454.70	7005.22
454.89	7070.76
455.07	7061.40
455.26	7304.81
455.44	7375.03
455.62	7145.66
455.81	7442.90
455.99	7330.56
456.17	7405.46
456.36	7454.61
456.54	7269.70
456.73	7250.98
456.91	7566.95
457.09	7742.49
457.28	7761.22
457.46	7316.51
457.64	7552.91
457.83	7531.84
458.01	7658.23
458.19	7672.28
458.38	7676.96
458.56	7754.19
458.74	7730.79
458.93	7770.58
459.11	7864.20
459.29	7791.64
459.48	7934.42
459.66	7824.41
459.84	7700.36
460.03	7894.63
460.21	8093.57
460.39	8006.97
460.57	7765.90
460.76	7896.97
460.94	8060.80
461.12	8042.08
461.31	8004.63
461.49	8194.22
461.67	8084.21
461.85	8353.37
462.04	8098.25
462.22	8699.77
462.40	8348.69
462.59	8290.18
462.77	8430.61
462.95	8400.18
463.13	8545.30
463.32	8641.26
463.50	8528.91
463.68	8358.05
463.86	8351.03
464.05	8482.10
464.23	8435.29
464.41	8542.96
464.59	8273.79
464.78	8767.65
464.96	8624.87
465.14	8545.30
465.32	8594.45
465.50	8802.75
465.69	8634.24
465.87	8692.75
466.05	8636.58
466.23	8505.51
466.41	8610.83
466.60	8842.54
466.78	8758.28
466.96	8751.26
467.14	8540.61
467.32	8758.28
467.51	8858.93
467.69	8704.45
467.87	8821.48
468.05	8854.25
468.23	8800.41
468.41	9013.40
468.60	8805.10
468.78	8940.85
468.96	8861.27
469.14	9090.64
469.32	9114.05
469.50	8992.34
469.69	9137.45
469.87	9181.92
470.05	9170.22
470.23	9425.34
470.41	9261.50
470.59	9327.03
470.77	9476.83
470.95	9397.25
471.14	9467.47
471.32	9275.54
471.50	9755.35
471.68	9713.22
471.86	9884.08
472.04	9703.86
472.22	10026.86
472.40	9540.02
472.58	9816.21
472.77	9753.01
472.95	9961.32
473.13	10209.42
473.31	10015.15
473.49	9795.14
473.67	10108.77
473.85	9987.07
474.03	10260.91
474.21	10209.42
474.39	10230.48
474.57	10354.53
474.75	10211.76
474.93	10588.58
475.12	10553.48
475.30	10736.04
475.48	10518.37
475.66	10719.65
475.84	10520.71
476.02	10771.15
476.20	10640.08
476.38	10878.81
476.56	11255.64
476.74	11283.72
476.92	11101.16
477.10	10981.79
477.28	11410.11
477.46	11363.30
477.64	11454.58
477.82	11438.20
478.00	12018.65
478.18	11700.34
478.36	11648.85
478.54	11950.78
478.72	12020.99
478.90	12245.68
479.08	12266.75
479.26	12402.50
479.44	12271.43
479.62	12594.42
479.80	12489.10
479.98	12791.03
480.16	12725.49
480.34	12683.36
480.52	12699.75
480.70	13022.74
480.88	12732.51
481.06	13083.59
481.24	13240.41
481.41	13305.95
481.59	13455.74
481.77	13823.20
481.95	13642.98
482.13	13951.93
482.31	13933.21
482.49	13984.70
482.67	14108.75
482.85	14178.97
483.03	14445.79
483.21	14422.38
483.39	14616.65
483.57	14504.30
483.74	14913.89
483.92	14939.64
484.10	14614.30
484.28	14843.68
484.46	15094.11
484.64	15440.51
484.82	15094.11
485.00	15232.21
485.18	15257.95
485.35	15548.18
485.53	15564.56
485.71	15403.07
485.89	15833.72
486.07	15550.52
486.25	15953.09
486.43	16093.52
486.61	16109.91
486.78	16425.88
486.96	16470.35
487.14	16580.36
487.32	16685.68
487.50	16978.25
487.68	17221.66
487.85	17565.72
488.03	17652.32
488.21	17706.15
488.39	17252.09
488.57	17638.28
488.75	17612.53
488.92	17860.63
489.10	18349.80
489.28	17965.95
489.46	18609.60
489.64	18733.65
489.81	19161.97
489.99	19140.90
490.17	19136.22
490.35	19428.79
490.53	19176.01
490.70	19473.26
490.88	19051.96
491.06	19901.58
491.24	19541.13
491.41	19829.02
491.59	19915.62
491.77	19889.87
491.95	20072.43
492.13	20332.23
492.30	20503.09
492.48	20491.39
492.66	20496.07
492.84	20402.45
493.01	20945.45
493.19	21043.76
493.37	21226.32
493.54	21191.21
493.72	21280.15
493.90	21390.16
494.08	21848.90
494.25	21949.54
494.43	22045.51
494.61	22171.89
494.79	21996.35
494.96	22134.45
495.14	22162.53
495.32	22225.73
495.49	22471.48
495.67	22801.50
495.85	22923.21
496.02	22860.01
496.20	23021.51
496.38	23484.94
496.55	23171.30
496.73	23803.25
496.91	23641.75
497.09	23632.39
497.26	23672.18
497.44	23763.46
497.62	24189.44
497.79	24222.20
497.97	23880.49
498.14	24217.52
498.32	24641.16
498.50	24367.32
498.67	24774.57
498.85	24889.26
499.03	25095.22
499.20	24540.52
499.38	24767.55
499.56	25289.49
499.73	25151.40
499.91	25532.90
500.08	25645.25
500.26	25446.30
500.44	25392.47
500.61	25490.77
500.79	25539.93
500.97	25713.13
501.14	25975.27
501.32	25961.22
501.49	26246.77
501.67	25722.49
501.84	26143.78
502.02	26195.28
502.20	26581.46
502.37	26602.53
502.55	26513.59
502.72	26569.76
502.90	26829.56
503.07	26953.61
503.25	26967.65
503.43	26871.69
503.60	26838.92
503.78	27239.15
503.95	26974.67
504.13	27152.55
504.30	27269.58
504.48	27449.80
504.65	27477.89
504.83	27594.92
505.01	27882.80
505.18	27606.62
505.36	27924.93
505.53	27999.83
505.71	28290.06
505.88	28292.40
506.06	28072.39
506.23	28489.00
506.41	28226.86
506.58	28400.06
506.76	28769.86
506.93	28833.06
507.11	28793.27
507.28	28776.89
507.46	28739.44
507.63	29167.76
507.81	29291.80
507.98	28851.78
508.16	29104.56
508.33	29249.67
508.50	29378.40
508.68	29137.33
508.85	29619.48
509.03	29806.72
509.20	29677.99
509.38	30246.74
509.55	29839.49
509.73	29930.77
509.90	30536.97
510.08	29933.11
510.25	30143.76
510.42	30078.22
510.60	30389.52
510.77	30178.87
510.95	30796.77
511.12	30541.65
511.30	30518.25
511.47	30972.31
511.64	31058.91
511.82	30958.27
511.99	31070.61
512.17	31288.28
512.34	30937.20
512.51	31159.55
512.69	31302.32
512.86	31426.37
513.04	31571.49
513.21	31538.72
513.38	31571.49
513.56	31604.25
513.73	31615.96
513.90	31751.71
514.08	31630.00
514.25	31894.48
514.43	32009.17
514.60	31952.99
514.77	32194.07
514.95	32474.93
515.12	32498.34
515.29	32334.50
515.47	32671.54
515.64	32917.29
515.81	32259.60
515.99	32744.09
516.16	32477.27
516.33	32591.96
516.51	32905.59
516.68	32189.39
516.85	32390.67
517.03	32371.95
517.20	32917.29
517.37	32704.31
517.54	33294.12
517.72	33404.13
517.89	32950.06
518.06	32795.59
518.24	33153.69
518.41	33251.99
518.58	33605.41
518.75	33397.10
518.93	33722.44
519.10	33539.88
519.27	33684.99
519.45	33975.22
519.62	33537.54
519.79	34284.17
519.96	34316.93
520.14	34272.46
520.31	34239.70
520.48	34244.38
520.65	34199.91
520.83	34345.02
521.00	34412.90
521.17	34417.58
521.34	34560.35
521.52	34759.30
521.69	34799.08
521.86	34988.67
522.03	35079.95
522.20	35023.78
522.38	35049.52
522.55	35136.12
522.72	35136.12
522.89	35112.72
523.07	35140.80
523.24	35480.18
523.41	35452.09
523.58	35466.14
523.75	36018.50
523.92	35487.20
524.10	35683.81
524.27	35990.42
524.44	36002.12
524.61	35931.90
524.78	36294.69
524.96	36304.05
525.13	36308.73
525.30	36634.06
525.47	36999.19
525.64	36439.80
525.81	36437.46
525.98	36137.87
526.16	36231.49
526.33	36292.35
526.50	36683.22
526.67	36545.12
526.84	36596.62
527.01	36404.69
527.18	36559.17
527.36	36938.33
527.53	37261.33
527.70	37296.44
527.87	37240.26
528.04	37244.94
528.21	37242.60
528.38	37167.71
528.55	37174.73
528.72	37230.90
528.89	37460.27
529.07	37486.02
529.24	36924.29
529.41	37631.13
529.58	37092.81
529.75	37619.43
529.92	37921.36
530.09	37764.54
530.26	37986.89
530.43	38155.41
530.60	37572.62
530.77	37682.62
530.94	38043.07
531.11	38274.78
531.28	38113.28
531.46	38312.23
531.63	38478.41
531.80	38295.85
531.97	38174.14
532.14	38139.03
532.31	37916.68
532.48	38424.57
532.65	38457.34
532.82	38455.00
532.99	38497.13
533.16	38204.56
533.33	38579.05
533.50	38796.72
533.67	39402.92
533.84	38948.85
534.01	38700.76
534.18	38855.23
534.35	39175.89
534.52	39227.38
534.69	39051.84
534.86	39283.55
535.03	38864.60
535.20	39400.58
535.37	39536.33
535.54	39721.23
535.71	39049.50
535.88	39122.05
536.05	39313.98
536.22	39423.98
536.38	39796.13
536.55	39665.06
536.72	39295.25
536.89	39517.60
537.06	39552.71
537.23	39964.65
537.40	40472.54
537.57	39852.30
537.74	39597.18
537.91	40217.43
538.08	40233.81
538.25	40212.74
538.42	39786.77
538.59	40233.81
538.75	39789.11
538.92	40051.25
539.09	39943.58
539.26	40065.29
539.43	40495.95
539.60	40456.16
539.77	40261.90
539.94	40348.50
540.11	40282.96
540.28	40107.42
540.44	40273.60
540.61	40278.28
540.78	40313.39
540.95	40608.29
541.12	40205.72
541.29	40376.58
541.46	40591.91
541.62	40830.65
541.79	40713.62
541.96	40627.02
542.13	40788.52
542.30	40776.81
542.47	40556.80
542.63	40959.38
542.80	41570.25
542.97	41528.13
543.14	41715.37
543.31	41546.85
543.48	41708.35
543.64	42314.55
543.81	41729.41
543.98	41825.37
544.15	41516.42
544.32	42127.30
544.48	42263.05
544.65	41837.08
544.82	41715.37
544.99	41647.49
545.16	41970.49
545.32	42211.56
545.49	42162.41
545.66	42019.64
545.83	42010.28
546.00	42057.09
546.16	42263.05
546.33	41532.81
546.50	41694.30
546.67	42054.75
546.83	41816.01
547.00	42312.20
547.17	42155.39
547.34	42160.07
547.50	42347.31
547.67	42171.77
547.84	42286.46
548.00	41944.74
548.17	42927.77
548.34	42454.98
548.51	42946.49
548.67	42452.64
548.84	42621.16
549.01	42508.81
549.18	42333.27
549.34	42916.06
549.51	43185.22
549.68	42866.91
549.84	42536.90
550.01	43065.86
550.18	42614.13
550.34	43206.29
550.51	42864.57
550.68	42794.36
550.84	42546.26
551.01	42864.57
551.18	43002.66
551.34	42773.29
551.51	43199.27
551.68	43159.48
551.84	43337.36
552.01	43068.20
552.18	43323.32
552.34	43288.21
552.51	43168.84
552.68	43288.21
552.84	43587.80
553.01	43770.36
553.18	43503.54
553.34	43285.87
553.51	43456.73
553.67	43660.35
553.84	43620.56
554.01	43828.87
554.17	43679.08
554.34	43924.83
554.51	43241.40
554.67	43892.07
554.84	44069.95
555.00	43641.63
555.17	43934.20
555.33	43927.17
555.50	44151.87
555.67	43433.32
555.83	43728.23
556.00	44360.17
556.16	44346.13
556.33	43948.24
556.50	43924.83
556.66	44378.90
556.83	43723.55
556.99	43924.83
557.16	44301.66
557.32	43971.64
557.49	43978.67
557.65	43856.96
557.82	44093.35
557.98	43992.71
558.15	43959.94
558.32	44533.37
558.48	44521.67
558.65	44156.55
558.81	44605.93
558.98	44098.03
559.14	44273.57
559.31	44292.30
559.47	44383.58
559.64	44313.36
559.80	44584.86
559.97	44421.03
560.13	44280.60
560.30	44339.11
560.46	44762.75
560.63	44100.37
560.79	44664.44
560.96	44484.22
561.12	44566.14
561.29	44423.37
561.45	44385.92
561.61	44186.97
561.78	44421.03
561.94	44306.34
562.11	44203.36
562.27	44554.44
562.44	44615.29
562.60	44980.42
562.77	44900.84
562.93	44870.41
563.10	45202.77
563.26	44435.07
563.42	45088.08
563.59	44975.73
563.75	44830.62
563.92	45329.16
564.08	44964.03
564.24	45134.89
564.41	45151.27
564.57	44669.12
564.74	44772.11
564.90	44577.84
565.07	44947.65
565.23	44898.50
565.39	45139.57
565.56	44898.50
565.72	44825.94
565.88	45048.29
566.05	44868.07
566.21	44863.39
566.38	44648.06
566.54	44669.12
566.70	45560.87
566.87	45230.85
567.03	45003.82
567.19	45436.82
567.36	45207.45
567.52	44615.29
567.68	45462.57
567.85	44971.05
568.01	45258.94
568.17	44535.71
568.34	45029.57
568.50	44933.60
568.66	44619.97
568.83	45525.76
568.99	45193.40
569.15	44854.03
569.32	44999.14
569.48	45003.82
569.64	45249.58
569.81	45130.21
569.97	44959.35
570.13	45111.49
570.30	44849.35
570.46	44935.95
570.62	45043.61
570.78	44954.67
570.95	44858.71
571.11	45167.66
571.27	44954.67
571.43	45322.13
571.60	45155.96
571.76	44849.35
571.92	44786.15
572.09	45045.95
572.25	45303.41
572.41	45186.38
572.57	44957.01
572.74	45624.06
572.90	45495.33
573.06	45277.66
573.22	45031.91
573.38	45324.47
573.55	45111.49
573.71	45399.37
573.87	45010.84
574.03	45116.17
574.20	45418.10
574.36	44907.86
574.52	45708.32
574.68	45277.66
574.84	45287.03
575.01	45059.99
575.17	45041.27
575.33	45237.87
575.49	45574.91
575.65	45401.71
575.82	46031.32
575.98	45368.94
576.14	45483.63
576.30	45425.12
576.46	45144.25
576.62	45263.62
576.79	45413.41
576.95	45059.99
577.11	45343.20
577.27	45565.55
577.43	45464.91
577.59	45504.70
577.75	45291.71
577.92	45450.86
578.08	45008.50
578.24	45397.03
578.40	45762.15
578.56	45214.47
578.72	45315.11
578.88	45574.91
579.04	45448.52
579.21	45586.61
579.37	45633.42
579.53	45600.66
579.69	45113.83
579.85	45345.54
580.01	45495.33
580.17	45764.49
580.33	45839.39
580.49	45600.66
580.65	45586.61
580.82	45703.64
580.98	45191.06
581.14	45223.83
581.30	45296.39
581.46	45579.59
581.62	45263.62
581.78	45652.15
581.94	46026.63
582.10	45474.27
582.26	45605.34
582.42	45331.50
582.58	45167.66
582.74	45303.41
582.90	45364.26
583.06	45492.99
583.22	45862.80
583.38	45904.93
583.54	45490.65
583.70	45048.29
583.86	45413.41
584.02	45275.32
584.18	45605.34
584.34	45378.31
584.50	45532.78
584.66	45284.68
584.82	45361.92
584.98	45523.42
585.14	46005.57
585.30	45731.73
585.46	45640.45
585.62	45282.34
585.78	45624.06
585.94	45219.15
586.10	45441.50
586.26	45511.72
586.42	45247.24
586.58	45705.98
586.74	45186.38
586.90	45434.48
587.06	45425.12
587.22	45539.80
587.38	45469.59
587.54	46047.70
587.70	45694.28
587.86	45673.21
588.02	45689.60
588.18	45977.48
588.34	45448.52
588.49	45558.53
588.65	45144.25
588.81	45118.51
588.97	45610.02
589.13	44760.40
589.29	45492.99
589.45	45003.82
589.61	45158.30
589.77	45801.94
589.93	45523.42
590.08	45619.38
590.24	45909.61
590.40	45633.42
590.56	45806.62
590.72	45935.35
590.88	45406.39
591.04	45722.37
591.20	45979.82
591.35	45792.58
591.51	45708.32
591.67	46157.70
591.83	45666.19
591.99	45387.67
592.15	45280.00
592.31	46096.85
592.46	45586.61
592.62	45598.32
592.78	45591.30
592.94	45469.59
593.10	45815.99
593.26	45961.10
593.41	46218.56
593.57	45546.82
593.73	45638.11
593.89	45823.01
594.05	45883.86
594.20	45666.19
594.36	46047.70
594.52	46576.66
594.68	45942.38
594.84	45947.06
594.99	46162.39
595.15	45705.98
595.31	45830.03
595.47	45928.33
595.62	46096.85
595.78	45998.55
595.94	46192.81
596.10	46050.04
596.25	46146.00
596.41	46054.72
596.57	46181.11
596.73	46064.08
596.88	45621.72
597.04	45801.94
597.20	46045.36
597.36	45797.26
597.51	45806.62
597.67	45860.46
597.83	45633.42
597.99	46064.08
598.14	45741.09
598.30	45745.77
598.46	46167.07
598.61	45778.54
598.77	45720.02
598.93	46171.75
599.09	46241.96
599.24	46138.98
599.40	46195.15
599.56	46263.03
599.71	46167.07
599.87	46036.00
600.03	45724.71
600.18	45996.21
600.34	45741.09
600.50	45984.51
600.65	46087.49
600.81	45965.78
600.97	46499.42
601.12	46209.20
601.28	46450.27
601.44	45654.49
601.59	45670.87
601.75	45537.46
601.91	45844.07
602.06	45904.93
602.22	45612.36
602.37	46206.86
602.53	45713.00
602.69	45893.22
602.84	45865.14
603.00	45343.20
603.16	45642.79
603.31	45570.23
603.47	45853.44
603.62	45394.69
603.78	45797.26
603.94	45916.63
604.09	45925.99
604.25	46176.43
604.40	46288.77
604.56	45982.16
604.71	45996.21
604.87	45359.58
605.03	45764.49
605.18	45724.71
605.34	45778.54
605.49	45764.49
605.65	45705.98
605.80	45823.01
605.96	45993.87
606.12	46036.00
606.27	45837.05
606.43	45846.41
606.58	45909.61
606.74	45420.44
606.89	45830.03
607.05	45645.13
607.20	45584.27
607.36	45895.56
607.51	45708.32
607.67	45628.74
607.82	45790.24
607.98	45670.87
608.13	45469.59
608.29	45338.52
608.44	45511.72
608.60	45380.65
608.75	45727.05
608.91	45612.36
609.06	45368.94
609.22	46160.05
609.37	45291.71
609.53	45755.13
609.68	45338.52
609.84	45429.80
609.99	45146.59
610.15	45628.74
610.30	45109.14
610.46	45109.14
610.61	45258.94
610.76	45581.93
610.92	45663.85
611.07	45308.09
611.23	44877.43
611.38	45326.81
611.54	45322.13
611.69	45170.00
611.84	45038.93
612.00	44753.38
612.15	45024.89
612.31	44786.15
612.46	44758.06
612.62	45092.76
612.77	45045.95
612.92	45488.31
613.08	45062.33
613.23	44528.69
613.39	45048.29
613.54	44666.78
613.69	45155.96
613.85	44971.05
614.00	45111.49
614.15	45340.86
614.31	44839.98
614.46	45497.67
614.62	44933.60
614.77	45010.84
614.92	44921.90
615.08	44989.78
615.23	44875.09
615.38	45034.25
615.54	44594.23
615.69	44889.13
615.84	44589.55
616.00	44655.08
616.15	44304.00
616.30	44683.17
616.46	44636.36
616.61	44626.99
616.76	44641.04
616.92	44250.17
617.07	44348.47
617.22	44247.83
617.37	44694.87
617.53	44381.24
617.68	44395.28
617.83	44395.28
617.99	44648.06
618.14	44744.02
618.29	44594.23
618.45	44208.04
618.60	44264.21
618.75	44161.23
618.90	44201.02
619.06	44479.54
619.21	44313.36
619.36	44039.52
619.51	43999.73
619.67	44076.97
619.82	43798.44
619.97	44458.48
620.12	43681.42
620.28	43945.90
620.43	43587.80
620.58	44126.12
620.73	43966.96
620.89	43629.93
621.04	44055.90
621.19	43875.68
621.34	43959.94
621.49	43540.99
621.65	43482.47
621.80	44058.24
621.95	43416.94
622.10	43833.55
622.25	43222.67
622.41	43438.00
622.56	43566.73
622.71	43810.15
622.86	43679.08
623.01	43210.97
623.16	43501.20
623.32	43274.16
623.47	43494.18
623.62	43704.82
623.77	43566.73
623.92	43299.91
624.07	43182.88
624.23	43306.93
624.38	42934.79
624.53	43374.81
624.68	43358.42
624.83	43426.30
624.98	43318.64
625.13	43316.29
625.29	43157.14
625.44	43098.62
625.59	42796.70
625.74	42829.46
625.89	42684.35
626.04	42855.21
626.19	42789.67
626.34	42787.33
626.49	42885.64
626.65	43351.40
626.80	43124.37
626.95	42784.99
627.10	42529.87
627.25	42684.35
627.40	42789.67
627.55	42316.89
627.70	42082.83
627.85	42279.44
628.00	41881.55
628.15	42866.91
628.30	42766.27
628.45	42916.06
628.60	42185.82
628.76	42712.44
628.91	42459.66
629.06	42508.81
629.21	42260.71
629.36	42204.54
629.51	42204.54
629.66	42394.12
629.81	42230.29
629.96	42204.54
630.11	42237.31
630.26	42359.02
630.41	42527.53
630.56	42256.03
630.71	42302.84
630.86	42305.18
631.01	42129.64
631.16	42401.14
631.31	41804.31
631.46	41794.95
631.61	42309.86
631.76	41830.05
631.91	41944.74
632.06	41991.55
632.21	41961.12
632.36	41890.91
632.51	42059.43
632.66	42232.63
632.81	41301.09
632.96	41977.51
633.10	41322.16
633.25	41600.68
633.40	41490.68
633.55	41736.43
633.70	41954.10
633.85	41624.09
634.00	42127.30
634.15	41392.37
634.30	41221.52
634.45	41787.92
634.60	41663.88
634.75	41481.31
634.90	41790.27
635.05	41237.90
635.19	41394.71
635.34	42047.72
635.49	41137.26
635.64	41160.66
635.79	40882.14
635.94	41163.00
636.09	41642.81
636.24	41202.79
636.39	40680.85
636.53	40751.07
636.68	40912.56
636.83	40985.12
636.98	41502.38
637.13	40914.90
637.28	41359.61
637.43	41352.58
637.57	41331.52
637.72	41200.45
637.87	41031.93
638.02	41118.53
638.17	41188.75
638.32	40720.64
638.46	40769.79
638.61	40615.32
638.76	40608.29
638.91	40245.51
639.06	40912.56
639.20	40699.58
639.35	40788.52
639.50	40704.26
639.65	40718.30
639.80	41060.02
639.94	40184.66
640.09	40243.17
640.24	40374.24
640.39	40460.84
640.54	40584.89
640.68	40215.08
640.83	40474.88
640.98	40184.66
641.13	40212.74
641.27	40587.23
641.42	40238.49
641.57	40460.84
641.72	40444.46
641.86	39901.45
642.01	39695.49
642.16	40107.42
642.31	39690.80
642.45	40500.63
642.60	39864.00
642.75	39693.15
642.90	39782.09
643.04	40074.65
643.19	40060.61
643.34	40301.68
643.48	39847.62
643.63	39845.28
643.78	39849.96
643.93	39634.63
644.07	39306.96
644.22	39758.68
644.37	39585.48
644.51	39936.56
644.66	39655.70
644.81	39779.74
644.95	39976.35
645.10	39423.98
645.25	39585.48
645.39	39639.31
645.54	39683.78
645.69	39409.94
645.83	39288.23
645.98	39548.03
646.13	39531.65
646.27	39807.83
646.42	39459.09
646.57	39641.65
646.71	39370.15
646.86	39548.03
647.00	39761.02
647.15	39388.88
647.30	39250.78
647.44	39145.46
647.59	39421.64
647.74	39285.89
647.88	39414.62
648.03	39145.46
648.17	38682.03
648.32	38927.79
648.47	39138.44
648.61	38766.29
648.76	39159.50
648.90	39037.80
649.05	39182.91
649.20	38813.10
649.34	39435.69
649.49	38745.23
649.63	38979.28
649.78	39239.08
649.92	38607.14
650.07	39379.51
650.21	38974.60
650.36	38850.55
650.51	38419.89
650.65	38822.47
650.80	39365.47
650.94	38831.83
651.09	38852.89
651.23	38831.83
651.38	38988.64
651.52	38733.53
651.67	38787.36
651.81	38632.88
651.96	38398.83
652.10	38843.53
652.25	38836.51
652.39	38281.80
652.54	38286.48
652.68	38497.13
652.83	38621.18
652.97	38356.70
653.12	38471.39
653.26	38085.20
653.41	38227.97
653.55	38349.68
653.70	38115.62
653.84	38141.37
653.99	37993.92
654.13	38253.72
654.27	38169.46
654.42	38073.49
654.56	37919.02
654.71	38260.74
654.85	37841.78
655.00	37996.26
655.14	37785.61
655.29	37684.97
655.43	37647.52
655.57	37944.76
655.72	37420.48
655.86	37825.40
656.01	37642.84
656.15	37247.29
656.30	37600.71
656.44	37565.60
656.58	37205.16
656.73	37537.51
656.87	37296.44
657.01	37106.85
657.16	37235.58
657.30	37172.39
657.45	37305.80
657.59	37244.94
657.73	37425.17
657.88	37675.60
658.02	37226.22
658.16	37273.03
658.31	37273.03
658.45	37701.35
658.60	36971.10
658.74	37254.31
658.88	37156.00
659.03	36821.31
659.17	36891.52
659.31	36598.96
659.46	36830.67
659.60	36659.81
659.74	36879.82
659.89	36463.21
660.03	36477.25
660.17	36903.23
660.32	36730.03
660.46	37029.62
660.60	37029.62
660.74	36430.44
660.89	36456.18
661.03	36428.10
661.17	36847.05
661.32	36392.99
661.46	36140.21
661.60	36149.57
661.74	35952.97
661.89	36191.70
662.03	36222.13
662.17	35887.43
662.31	36030.21
662.46	36194.04
662.60	36404.69
662.74	36112.13
662.88	36327.45
663.03	35828.92
663.17	35903.82
663.31	35475.50
663.45	35931.90
663.60	35700.19
663.74	35337.41
663.88	35629.98
664.02	35339.75
664.17	35927.22
664.31	34974.63
664.45	35452.09
664.59	35306.98
664.73	34745.25
664.88	35243.79
665.02	35033.14
665.16	35115.06
665.30	35037.82
665.44	34794.40
665.59	34600.14
665.73	34660.99
665.87	34927.81
666.01	34876.32
666.15	34410.56
666.29	34232.68
666.44	34754.61
666.58	34712.49
666.72	34405.88
666.86	34787.38
667.00	34838.87
667.14	34408.22
667.28	34494.82
667.43	34202.25
667.57	34153.10
667.71	34019.69
667.85	34190.55
667.99	33766.91
668.13	33668.61
668.27	33860.53
668.41	34380.13
668.56	33312.84
668.70	34061.82
668.84	33916.70
668.98	33219.22
669.12	33851.17
669.26	33553.92
669.40	33312.84
669.54	33448.60
669.68	33139.65
669.82	33759.89
669.96	33151.35
670.10	33237.95
670.25	33259.01
670.39	33476.68
670.53	33497.75
670.67	32854.10
670.81	33137.30
670.95	33120.92
671.09	33069.43
671.23	33085.81
671.37	33184.12
671.51	32811.97
671.65	32402.38
671.79	32119.17
671.93	32189.39
672.07	32687.92
672.21	32474.93
672.35	32374.29
672.49	32449.19
672.63	32514.72
672.77	32273.65
672.91	32254.92
673.05	31686.17
673.19	31868.73
673.33	31957.67
673.47	31875.76
673.61	31316.37
673.75	31866.39
673.89	31133.81
674.03	31386.58
674.17	31644.04
674.31	31407.65
674.45	31653.40
674.59	31473.18
674.73	31426.37
674.87	30845.92
675.01	31367.86
675.15	31204.02
675.29	31243.81
675.43	31091.68
675.56	30881.03
675.70	31339.77
675.84	30836.56
675.98	29560.97
676.12	30415.26
676.26	30408.24
676.40	30167.16
676.54	30558.03
676.68	30068.86
676.82	29479.05
676.96	29722.46
677.10	30054.82
677.23	29989.28
677.37	29820.77
677.51	29816.08
677.65	29668.63
677.79	29450.96
677.93	29518.84
678.07	29369.04
678.21	29013.28
678.34	29113.92
678.48	29252.02
678.62	28975.83
678.76	28699.65
678.90	28671.56
679.04	28833.06
679.18	28666.88
679.31	27960.04
679.45	28521.77
679.59	28006.85
679.73	28266.65
679.87	28191.75
680.00	27969.40
680.14	27660.45
680.28	27555.13
680.42	27772.80
680.56	27843.01
680.70	27510.66
680.83	27456.82
680.97	27494.27
681.11	27187.66
681.25	27204.05
681.39	27222.77
681.52	27239.15
681.66	26677.43
681.80	26965.31
681.94	27026.17
682.07	26691.47
682.21	26691.47
682.35	26597.85
682.49	26881.05
682.62	26703.17
682.76	26583.80
682.90	26471.46
683.04	26328.69
683.17	26214.00
683.31	26288.90
683.45	26230.38
683.59	25874.62
683.72	25724.83
683.86	25263.74
684.00	25509.50
684.13	25642.91
684.27	25596.10
684.41	25778.66
684.55	25514.18
684.68	25188.85
684.82	25153.74
684.96	25331.62
685.09	25310.55
685.23	24856.49
685.37	24900.96
685.50	24758.19
685.64	24645.84
685.78	24690.31
685.91	24446.90
686.05	24315.83
686.19	24123.90
686.32	24297.10
686.46	23695.58
686.60	23939.00
686.73	23887.51
686.87	23751.76
687.01	23594.94
687.14	23555.15
687.28	23592.60
687.42	23138.54
687.55	23630.05
687.69	23377.27
687.82	23536.43
687.96	23061.30
688.10	23220.45
688.23	22838.95
688.37	22637.66
688.50	22782.77
688.64	22754.69
688.78	22668.09
688.91	22108.70
689.05	22504.25
689.18	22363.82
689.32	21937.84
689.46	21745.92
689.59	22583.83
689.73	22487.87
689.86	21853.58
690.00	21956.57
690.13	22244.45
690.27	21898.05
690.41	21692.08
690.54	21448.67
690.68	20919.71
690.81	21591.44
690.95	21242.70
691.08	20718.42
691.22	21111.63
691.35	21102.27
691.49	20985.24
691.62	21095.25
691.76	20982.90
691.89	20945.45
692.03	20627.14
692.16	20416.49
692.30	20524.16
692.43	20517.14
692.57	20201.16
692.70	20613.10
692.84	20240.95
692.97	20091.16
693.11	19985.83
693.24	19681.56
693.38	20056.05
693.51	19616.03
693.65	19859.45
693.78	19915.62
693.92	19613.69
694.05	19763.48
694.19	19573.90
694.32	19283.67
694.45	19393.68
694.59	19513.05
694.72	19222.82
694.86	18956.00
694.99	19304.74
695.13	19089.41
695.26	18897.49
695.39	18665.77
695.53	18640.03
695.66	18595.56
695.80	18445.76
695.93	18263.20
696.07	18394.27
696.20	18221.07
696.33	18363.84
696.47	18221.07
696.60	18267.88
696.73	18101.70
696.87	17855.95
697.00	17825.52
697.14	17830.20
697.27	17879.35
697.40	17584.44
697.54	17858.29
697.67	17497.84
697.80	17577.42
697.94	17469.76
698.07	17268.47
698.21	17338.69
698.34	17181.87
698.47	17144.42
698.61	16594.40
698.74	16870.58
698.87	17043.78
699.01	16699.72
699.14	16348.64
699.27	16278.43
699.40	16397.79
699.54	16355.66
699.67	16285.45
699.80	16311.19
699.94	16250.34
700.07	16236.30
700.20	16322.90
700.34	15922.66
700.47	15964.79
700.60	16145.02
700.73	16257.36
700.87	15985.86
701.00	15644.14
701.13	15484.98
701.26	15482.64
701.40	15592.65
701.53	15272.00
701.66	15325.83
701.79	15056.67
701.93	15405.41
702.06	15276.68
702.19	14817.93
702.32	15122.20
702.46	14923.26
702.59	14831.97
702.72	14937.30
702.85	14614.30
702.99	14981.77
703.12	14721.97
703.25	14736.01
703.38	14621.33
703.51	14506.64
703.65	14244.50
703.78	14207.05
703.91	14155.56
704.04	14223.44
704.17	14293.65
704.31	14136.84
704.44	13916.83
704.57	13743.63
704.70	13635.96
704.83	13706.18
704.96	13635.96
705.10	13912.14
705.23	13802.14
>>>>>End Processed Spectral Data<<<<<
