SpectraSuite Data File
++++++++++++++++++++++++++++++++++++
Date: Fri Oct 25 11:33:45 EDT 2013
User: price-jones
Dark Spectrum Present: No
Reference Spectrum Present: No
Number of Sampled Component Spectra: 1
Spectrometers: USB2+H05261
Integration Time (usec): 100000 (USB2+H05261)
Spectra Averaged: 1 (USB2+H05261)
Boxcar Smoothing: 0 (USB2+H05261)
Correct for Electrical Dark: No (USB2+H05261)
Strobe/Lamp Enabled: No (USB2+H05261)
Correct for Detector Non-linearity: No (USB2+H05261)
Correct for Stray Light: No (USB2+H05261)
Number of Pixels in Processed Spectrum: 2048
>>>>>Begin Processed Spectral Data<<<<<
365.73	229.37
365.92	229.37
366.12	229.37
366.32	184.90
366.52	152.13
366.72	191.92
366.91	241.08
367.11	234.05
367.31	224.69
367.51	126.39
367.70	205.97
367.90	215.33
368.10	184.90
368.30	147.45
368.49	175.54
368.69	187.24
368.89	292.57
369.09	142.77
369.28	280.86
369.48	173.20
369.68	215.33
369.87	198.95
370.07	259.80
370.27	287.89
370.47	271.50
370.66	486.83
370.86	498.53
371.06	606.20
371.25	535.98
371.45	500.87
371.65	603.86
371.84	559.39
372.04	507.90
372.24	580.45
372.44	554.71
372.63	533.64
372.83	571.09
373.03	561.73
373.22	669.39
373.42	643.65
373.62	585.13
373.81	716.20
374.01	657.69
374.21	713.86
374.40	638.97
374.60	704.50
374.79	636.63
374.99	624.92
375.19	650.67
375.38	638.97
375.58	685.78
375.78	730.25
375.97	720.88
376.17	725.57
376.37	641.31
376.56	648.33
376.76	709.18
376.95	727.91
377.15	653.01
377.35	739.61
377.54	695.14
377.74	767.70
377.93	716.20
378.13	725.57
378.33	699.82
378.52	734.93
378.72	725.57
378.91	709.18
379.11	676.41
379.31	718.54
379.50	713.86
379.70	727.91
379.89	699.82
380.09	748.97
380.28	713.86
380.48	716.20
380.68	699.82
380.87	760.67
381.07	702.16
381.26	751.31
381.46	758.33
381.65	704.50
381.85	755.99
382.04	702.16
382.24	781.74
382.43	758.33
382.63	779.40
382.83	713.86
383.02	781.74
383.22	894.08
383.41	786.42
383.61	746.63
383.80	812.17
384.00	821.53
384.19	795.78
384.39	819.19
384.58	777.06
384.78	851.96
384.97	880.04
385.17	891.74
385.36	842.59
385.56	828.55
385.75	844.93
385.95	863.66
386.14	875.36
386.34	830.89
386.53	880.04
386.72	791.10
386.92	891.74
387.11	866.00
387.31	875.36
387.50	936.21
387.70	870.68
387.89	983.02
388.09	896.43
388.28	908.13
388.48	973.66
388.67	894.08
388.86	889.40
389.06	884.72
389.25	957.28
389.45	884.72
389.64	833.23
389.84	952.60
390.03	919.83
390.22	1032.18
390.42	957.28
390.61	947.92
390.81	926.85
391.00	1006.43
391.19	915.15
391.39	1034.52
391.58	966.64
391.78	994.73
391.97	1011.11
392.16	973.66
392.36	1067.28
392.55	1013.45
392.75	1093.03
392.94	1057.92
393.13	1083.67
393.33	1032.18
393.52	1020.47
393.71	1046.22
393.91	1069.62
394.10	954.94
394.29	1188.99
394.49	1165.59
394.68	1156.22
394.88	1083.67
395.07	1181.97
395.26	1125.80
395.46	1252.19
395.65	1181.97
395.84	1114.10
396.04	1205.38
396.23	1238.14
396.42	1256.87
396.62	1188.99
396.81	1107.07
397.00	1282.61
397.19	1242.82
397.39	1177.29
397.58	1299.00
397.77	1167.93
397.97	1233.46
398.16	1233.46
398.35	1203.04
398.55	1261.55
398.74	1315.38
398.93	1320.06
399.12	1348.15
399.32	1324.74
399.51	1359.85
399.70	1299.00
399.90	1397.30
400.09	1289.64
400.28	1371.55
400.47	1385.60
400.67	1373.89
400.86	1348.15
401.05	1434.75
401.24	1380.92
401.44	1394.96
401.63	1479.22
401.82	1460.49
402.01	1481.56
402.21	1511.99
402.40	1439.43
402.59	1516.67
402.78	1519.01
402.97	1537.73
403.17	1500.28
403.36	1504.96
403.55	1537.73
403.74	1586.88
403.93	1591.56
404.13	1568.16
404.32	1607.95
404.51	1558.80
404.70	1572.84
404.89	1558.80
405.09	1610.29
405.28	1561.14
405.47	1692.21
405.66	1764.76
405.85	1849.02
406.05	1771.79
406.24	1771.79
406.43	1713.27
406.62	1802.21
406.81	1813.92
407.00	1701.57
407.20	1851.36
407.39	1771.79
407.58	1743.70
407.77	1949.67
407.96	1842.00
408.15	1842.00
408.34	1874.77
408.54	1863.07
408.73	1984.77
408.92	1933.28
409.11	1898.17
409.30	1980.09
409.49	2024.56
409.68	2024.56
409.87	1982.43
410.07	1975.41
410.26	2045.63
410.45	1987.11
410.64	2132.23
410.83	2064.35
411.02	2132.23
411.21	2160.31
411.40	2064.35
411.59	2181.38
411.78	2195.42
411.98	2260.96
412.17	2204.78
412.36	2277.34
412.55	2291.38
412.74	2310.11
412.93	2324.15
413.12	2335.85
413.31	2359.26
413.50	2455.22
413.69	2562.89
413.88	2427.14
414.07	2490.33
414.26	2530.12
414.45	2518.42
414.64	2459.90
414.83	2455.22
415.02	2518.42
415.22	2612.04
415.41	2597.99
415.60	2686.94
415.79	2675.23
415.98	2834.39
416.17	2637.78
416.36	2764.17
416.55	2808.64
416.74	2782.90
416.93	2703.32
417.12	2899.92
417.31	2843.75
417.50	2862.48
417.69	2988.86
417.88	2881.20
418.07	2892.90
418.26	3028.65
418.45	2958.44
418.64	3171.43
418.83	3070.78
419.02	3028.65
419.21	3143.34
419.39	3075.46
419.58	3035.67
419.77	2995.89
419.96	3190.15
420.15	3239.30
420.34	3246.32
420.53	3080.14
420.72	3286.11
420.91	3269.73
421.10	3379.73
421.29	3379.73
421.48	3122.27
421.67	3218.24
421.86	3265.05
422.05	3311.86
422.24	3417.18
422.43	3321.22
422.61	3267.39
422.80	3431.23
422.99	3318.88
423.18	3389.10
423.37	3410.16
423.56	3332.92
423.75	3246.32
423.94	3295.47
424.13	3162.06
424.32	3304.84
424.50	3534.21
424.69	3513.14
424.88	3501.44
425.07	3515.48
425.26	3447.61
425.45	3468.67
425.64	3417.18
425.83	3370.37
426.01	3447.61
426.20	3506.12
426.39	3433.57
426.58	3508.46
426.77	3452.29
426.96	3454.63
427.15	3508.46
427.33	3510.80
427.52	3536.55
427.71	3555.27
427.90	3585.70
428.09	3597.40
428.28	3679.32
428.46	3695.71
428.65	3794.01
428.84	3684.00
429.03	3812.73
429.22	3641.87
429.40	3777.62
429.59	3721.45
429.78	3588.04
429.97	3737.84
430.16	3681.66
430.34	3822.09
430.53	3772.94
430.72	3974.23
430.91	3885.29
431.10	4002.32
431.28	3899.33
431.47	4093.60
431.66	4025.72
431.85	4009.34
432.03	4039.76
432.22	4180.20
432.41	4074.87
432.60	4056.15
432.79	4191.90
432.97	4025.72
433.16	4168.49
433.35	3990.61
433.54	4145.09
433.72	4301.90
433.91	4194.24
434.10	4337.01
434.28	4285.52
434.47	4210.62
434.66	4299.56
434.85	4344.03
435.03	4278.50
435.22	4269.14
435.41	4409.57
435.59	4301.90
435.78	4388.50
435.97	4395.53
436.16	4264.46
436.34	4414.25
436.53	4430.63
436.72	4608.51
436.90	4524.26
437.09	4484.47
437.28	4456.38
437.46	4397.87
437.65	4489.15
437.84	4702.14
438.02	4615.54
438.21	4596.81
438.40	4505.53
438.58	4788.74
438.77	4765.33
438.96	4697.46
439.14	4667.03
439.33	4938.53
439.52	4858.95
439.70	4891.72
439.89	5011.09
440.08	4905.76
440.26	5020.45
440.45	4901.08
440.63	5109.39
440.82	5226.42
441.01	5146.84
441.19	5380.89
441.38	5214.71
441.57	5167.90
441.75	5275.57
441.94	5315.36
442.12	5394.93
442.31	5537.71
442.50	5481.53
442.68	5411.32
442.87	5430.04
443.05	5481.53
443.24	5439.40
443.43	5640.69
443.61	5549.41
443.80	5764.74
443.98	5383.23
444.17	5329.40
444.35	5626.65
444.54	5671.12
444.73	5799.85
444.91	5650.05
445.10	5689.84
445.28	5624.31
445.47	5518.98
445.65	5659.42
445.84	5694.52
446.02	5837.30
446.21	5696.86
446.39	5638.35
446.58	5771.76
446.77	5799.85
446.95	5678.14
447.14	5825.59
447.32	5769.42
447.51	5666.44
447.69	5727.29
447.88	5678.14
448.06	5750.70
448.25	5856.02
448.43	5746.02
448.62	5701.54
448.80	5818.57
448.99	5755.38
449.17	5844.32
449.36	5703.89
449.54	5923.90
449.73	6176.67
449.91	6179.01
450.10	6104.12
450.28	6026.88
450.46	6019.86
450.65	6008.16
450.83	6193.06
451.02	6176.67
451.20	6253.91
451.39	6314.77
451.57	6284.34
451.76	6267.95
451.94	6186.04
452.13	6368.60
452.31	6314.77
452.49	6066.67
452.68	6246.89
452.86	6305.40
453.05	6420.09
453.23	6576.91
453.42	6244.55
453.60	6260.93
453.78	6354.55
453.97	6534.78
454.15	6424.77
454.34	6324.13
454.52	6532.44
454.70	6466.90
454.89	6612.01
455.07	6553.50
455.26	6705.63
455.44	6623.72
455.62	6539.46
455.81	6546.48
455.99	6649.46
456.17	6789.89
456.36	6654.14
456.54	6904.58
456.73	6899.90
456.91	7012.24
457.09	7028.63
457.28	7026.29
457.46	6918.62
457.64	6986.50
457.83	6970.12
458.01	6918.62
458.19	7222.89
458.38	7101.19
458.56	7073.10
458.74	7222.89
458.93	7122.25
459.11	7157.36
459.29	7187.79
459.48	7295.45
459.66	7204.17
459.84	7389.07
460.03	7349.28
460.21	7377.37
460.39	7398.43
460.57	7276.73
460.76	7346.94
460.94	7496.74
461.12	7513.12
461.31	7501.42
461.49	7506.10
461.67	7445.24
461.85	7611.42
462.04	7492.05
462.22	8065.49
462.40	7826.75
462.59	7770.58
462.77	7501.42
462.95	7873.56
463.13	7765.90
463.32	7810.37
463.50	7831.43
463.68	8044.42
463.86	8006.97
464.05	7630.15
464.23	7936.76
464.41	7864.20
464.59	7747.17
464.78	8018.68
464.96	8177.83
465.14	8084.21
465.32	8042.08
465.50	8180.17
465.69	8105.28
465.87	8093.57
466.05	8196.56
466.23	8259.75
466.41	8194.22
466.60	8369.76
466.78	8152.09
466.96	8152.09
467.14	8112.30
467.32	8416.57
467.51	8372.10
467.69	8241.03
467.87	8388.48
468.05	8484.44
468.23	8411.89
468.41	8374.44
468.60	8430.61
468.78	8571.04
468.96	8383.80
469.14	8622.53
469.32	8676.37
469.50	8603.81
469.69	8500.83
469.87	8812.12
470.05	8840.20
470.23	8861.27
470.41	8905.74
470.59	8858.93
470.77	8840.20
470.95	8987.66
471.14	8891.70
471.32	8744.24
471.50	8971.27
471.68	8851.91
471.86	9090.64
472.04	9303.63
472.22	9336.40
472.40	9167.88
472.58	9046.17
472.77	9235.75
472.95	9399.59
473.13	9699.18
473.31	9224.05
473.49	9647.69
473.67	9500.23
473.85	9640.67
474.03	9872.38
474.21	9689.82
474.39	9867.70
474.57	9839.61
474.75	9708.54
474.93	9898.13
475.12	10019.83
475.30	10129.84
475.48	10047.92
475.66	10118.14
475.84	10036.22
476.02	10169.63
476.20	10267.93
476.38	10579.22
476.56	10415.38
476.74	10705.61
476.92	10626.03
477.10	10691.57
477.28	10869.45
477.46	10909.24
477.64	10747.74
477.82	11023.92
478.00	11318.83
478.18	11166.70
478.36	11110.52
478.54	11473.31
478.72	11241.59
478.90	11440.54
479.08	11756.51
479.26	11520.12
479.44	11555.22
479.62	11733.11
479.80	11889.92
479.98	12121.63
480.16	12304.20
480.34	12226.96
480.52	12236.32
480.70	12393.14
480.88	12201.21
481.06	12512.50
481.24	12386.12
481.41	12510.16
481.59	12924.44
481.77	12840.18
481.95	12821.45
482.13	12945.50
482.31	13029.76
482.49	13401.91
482.67	13310.63
482.85	13425.31
483.03	13514.25
483.21	13638.30
483.39	13530.64
483.57	13668.73
483.74	13930.87
483.92	14153.22
484.10	13741.29
484.28	14326.42
484.46	14504.30
484.64	14595.58
484.82	14448.13
485.00	14572.18
485.18	14892.83
485.35	15206.46
485.53	15066.03
485.71	15073.05
485.89	15264.97
486.07	15272.00
486.25	15351.57
486.43	15566.90
486.61	15641.80
486.78	15765.85
486.96	15974.16
487.14	16152.04
487.32	16236.30
487.50	16610.78
487.68	16407.16
487.85	16800.37
488.03	16723.13
488.21	16954.84
488.39	16950.16
488.57	17212.30
488.75	17294.22
488.92	17245.07
489.10	17570.40
489.28	17500.19
489.46	17984.68
489.64	17607.85
489.81	18181.28
489.99	18176.60
490.17	17893.40
490.35	18534.70
490.53	18387.25
490.70	18649.39
490.88	18567.47
491.06	18850.67
491.24	19133.88
491.41	19173.67
491.59	19077.71
491.77	18981.74
491.95	19211.12
492.13	19372.61
492.30	19421.77
492.48	19510.71
492.66	19686.25
492.84	19957.75
493.01	20367.34
493.19	19793.91
493.37	20203.50
493.54	20210.53
493.72	20727.78
493.90	20362.66
494.08	20793.32
494.25	20999.29
494.43	21027.37
494.61	21310.58
494.79	21404.20
494.96	21465.05
495.14	21549.31
495.32	21570.38
495.49	21869.97
495.67	22064.23
495.85	22253.81
496.02	22167.21
496.20	22471.48
496.38	22595.53
496.55	22445.74
496.73	22625.96
496.91	22654.05
497.09	22632.98
497.26	22778.09
497.44	23075.34
497.62	23124.49
497.79	22895.12
497.97	23056.62
498.14	23379.61
498.32	23585.58
498.50	23913.25
498.67	23936.66
498.85	24046.66
499.03	24369.66
499.20	23988.15
499.38	24369.66
499.56	24283.06
499.73	24599.03
499.91	25022.67
500.08	24577.97
500.26	24561.58
500.44	24711.38
500.61	25242.68
500.79	24924.36
500.97	25156.08
501.14	25560.99
501.32	25085.86
501.49	25329.28
501.67	25132.67
501.84	25542.27
502.02	25502.48
502.20	25537.59
502.37	25783.34
502.55	25596.10
502.72	26024.42
502.90	25886.32
503.07	26066.55
503.25	26043.14
503.43	26253.79
503.60	26230.38
503.78	26309.96
503.95	26359.11
504.13	26618.91
504.30	26618.91
504.48	26642.32
504.65	27028.51
504.83	26948.93
505.01	27182.98
505.18	27129.15
505.36	27276.60
505.53	26991.06
505.71	27168.94
505.88	27775.14
506.06	27199.37
506.23	27571.51
506.41	27421.72
506.58	27793.86
506.76	27920.25
506.93	27990.47
507.11	28114.52
507.28	28034.94
507.46	28046.64
507.63	28376.66
507.81	28830.72
507.98	28177.71
508.16	28723.05
508.33	28659.86
508.50	28929.02
508.68	28889.23
508.85	29067.11
509.03	28716.03
509.20	29142.01
509.38	29266.06
509.55	29212.23
509.73	29544.58
509.90	29593.73
510.08	29586.71
510.25	29198.18
510.42	29759.91
510.60	29809.06
510.77	29883.96
510.95	30071.20
511.12	29879.28
511.30	29713.10
511.47	30122.69
511.64	30288.87
511.82	30452.71
511.99	30284.19
512.17	30223.34
512.34	30309.94
512.51	30663.36
512.69	30808.47
512.86	30679.74
513.04	30724.21
513.21	30941.88
513.38	31311.69
513.56	31208.70
513.73	30995.71
513.90	30991.03
514.08	31325.73
514.25	31372.54
514.43	31644.04
514.60	31522.34
514.77	31758.73
514.95	31463.82
515.12	31438.08
515.29	31791.50
515.47	32070.02
515.64	32154.28
515.81	31798.52
515.99	31957.67
516.16	32402.38
516.33	32128.53
516.51	32428.12
516.68	32236.20
516.85	32479.61
517.03	32964.10
517.20	32713.67
517.37	32657.49
517.54	32772.18
517.72	32989.85
517.89	32790.91
518.06	33043.68
518.24	33235.61
518.41	32975.81
518.58	33422.85
518.75	33240.29
518.93	33481.36
519.10	33027.30
519.27	33439.23
519.45	33422.85
519.62	33947.13
519.79	33860.53
519.96	33647.54
520.14	33806.70
520.31	33680.31
520.48	34462.05
520.65	34150.76
520.83	34199.91
521.00	34576.73
521.17	34270.12
521.34	34639.93
521.52	34604.82
521.69	34010.32
521.86	34558.01
522.03	34686.74
522.20	35014.41
522.38	35117.40
522.55	34799.08
522.72	35206.34
522.89	35194.64
523.07	35480.18
523.24	35281.24
523.41	34974.63
523.58	35037.82
523.75	35555.08
523.92	35543.38
524.10	35632.32
524.27	35690.83
524.44	35613.59
524.61	35833.60
524.78	35686.15
524.96	35789.13
525.13	35686.15
525.30	36339.16
525.47	36205.75
525.64	36163.62
525.81	36378.95
525.98	36362.56
526.16	36048.93
526.33	36243.20
526.50	36758.11
526.67	36114.47
526.84	36652.79
527.01	36533.42
527.18	36868.12
527.36	36634.06
527.53	36905.57
527.70	37057.70
527.87	37163.03
528.04	36882.16
528.21	36776.84
528.38	37401.76
528.55	37165.37
528.72	37134.94
528.89	37132.60
529.07	37170.05
529.24	36907.91
529.41	37532.83
529.58	37673.26
529.75	37361.97
529.92	37862.85
530.09	37233.24
530.26	37589.00
530.43	38232.65
530.60	37673.26
530.77	37310.48
530.94	37755.18
531.11	37659.22
531.28	37900.29
531.46	38117.96
531.63	38525.22
531.80	38127.33
531.97	38263.08
532.14	38361.38
532.31	38061.79
532.48	38541.60
532.65	38768.63
532.82	38492.45
532.99	38583.73
533.16	38569.69
533.33	39185.25
533.50	38808.42
533.67	38667.99
533.84	38759.27
534.01	38656.29
534.18	38827.15
534.35	39215.68
534.52	39248.44
534.69	39487.18
534.86	39093.97
535.03	38927.79
535.20	39662.72
535.37	39754.00
535.54	40006.78
535.71	39129.08
535.88	39852.30
536.05	39330.36
536.22	39686.12
536.38	39489.52
536.55	39950.60
536.72	39866.34
536.89	39550.37
537.06	39716.55
537.23	40353.18
537.40	39983.37
537.57	39454.41
537.74	39833.58
537.91	40631.70
538.08	40257.21
538.25	40261.90
538.42	39735.27
538.59	41074.06
538.75	39590.16
538.92	40449.14
539.09	40811.92
539.26	40662.13
539.43	40521.69
539.60	40549.78
539.77	40772.13
539.94	41022.57
540.11	40505.31
540.28	40886.82
540.44	40402.33
540.61	40549.78
540.78	40603.61
540.95	41242.58
541.12	41200.45
541.29	40842.35
541.46	41102.15
541.62	41029.59
541.79	41429.82
541.96	40889.16
542.13	40975.76
542.30	41277.69
542.47	41502.38
542.63	41710.69
542.80	42050.06
542.97	41968.15
543.14	41738.77
543.31	41759.84
543.48	41813.67
543.64	41893.25
543.81	42408.17
543.98	42131.98
544.15	41979.85
544.32	42316.89
544.48	42162.41
544.65	42501.79
544.82	42333.27
544.99	41708.35
545.16	42225.60
545.32	42089.85
545.49	42422.21
545.66	42497.11
545.83	42319.23
546.00	42637.54
546.16	42457.32
546.33	42288.80
546.50	42295.82
546.67	42899.68
546.83	42092.19
547.00	42527.53
547.17	42480.72
547.34	42799.04
547.50	43068.20
547.67	43215.65
547.84	43086.92
548.00	43299.91
548.17	43398.21
548.34	42756.91
548.51	43208.63
548.67	43512.90
548.84	43147.78
549.01	43002.66
549.18	42876.27
549.34	43772.70
549.51	43807.81
549.68	43540.99
549.84	43295.23
550.01	43824.19
550.18	43086.92
550.34	43117.35
550.51	43618.22
550.68	43564.39
550.84	43379.49
551.01	43889.73
551.18	43763.34
551.34	43873.34
551.51	43863.98
551.68	43880.36
551.84	44065.27
552.01	43498.86
552.18	43957.60
552.34	43690.78
552.51	43833.55
552.68	43569.07
552.84	43800.79
553.01	44135.48
553.18	44264.21
553.34	44065.27
553.51	43693.12
553.67	44011.43
553.84	44350.81
554.01	44287.62
554.17	44023.14
554.34	44699.55
554.51	44926.58
554.67	44495.92
554.84	44641.04
555.00	44542.74
555.17	44311.02
555.33	44453.79
555.50	44818.92
555.67	44804.88
555.83	44673.81
556.00	44942.97
556.16	45254.26
556.33	44828.28
556.50	44935.95
556.66	44924.24
556.83	44664.44
556.99	45504.70
557.16	45272.98
557.32	45158.30
557.49	45059.99
557.65	44795.51
557.82	44856.37
557.98	45092.76
558.15	45324.47
558.32	44861.05
558.48	45062.33
558.65	45179.36
558.81	44985.10
558.98	45338.52
559.14	44893.82
559.31	44737.00
559.47	44973.39
559.64	45490.65
559.80	45123.19
559.97	45518.74
560.13	45535.12
560.30	45500.01
560.46	45497.67
560.63	46073.45
560.79	45701.30
560.96	45682.58
561.12	45766.84
561.29	45687.26
561.45	45759.81
561.61	45539.80
561.78	45490.65
561.94	45722.37
562.11	45797.26
562.27	45450.86
562.44	45588.95
562.60	45989.19
562.77	45752.79
562.93	45780.88
563.10	45717.68
563.26	45947.06
563.42	45736.41
563.59	46103.87
563.75	45696.62
563.92	45991.53
564.08	45844.07
564.24	45909.61
564.41	45497.67
564.57	45904.93
564.74	45890.88
564.90	45804.28
565.07	45895.56
565.23	45535.12
565.39	46230.26
565.56	46225.58
565.72	46454.95
565.88	46375.37
566.05	46740.50
566.21	46302.82
566.38	46272.39
566.54	45874.50
566.70	46335.59
566.87	45918.97
567.03	46150.68
567.19	46148.34
567.36	46433.89
567.52	46401.12
567.68	46232.60
567.85	46642.20
568.01	46593.04
568.17	46019.61
568.34	46878.59
568.50	46146.00
568.66	46483.04
568.83	46506.44
568.99	46429.21
569.15	46419.84
569.32	46064.08
569.48	46363.67
569.64	46927.74
569.81	46541.55
569.97	46323.88
570.13	46658.58
570.30	46553.26
570.46	46934.76
570.62	46679.64
570.78	46745.18
570.95	46803.69
571.11	46520.49
571.27	46494.74
571.43	46784.97
571.60	46878.59
571.76	46454.95
571.92	46588.36
572.09	46721.77
572.25	46284.09
572.41	46583.68
572.57	46791.99
572.74	47344.36
572.90	46513.47
573.06	46838.80
573.22	47054.13
573.38	46918.38
573.55	46490.06
573.71	47075.19
573.87	47222.65
574.03	46600.07
574.20	47075.19
574.36	46909.02
574.52	46941.78
574.68	47023.70
574.84	46848.16
575.01	47061.15
575.17	47339.68
575.33	47016.68
575.49	46665.60
575.65	46911.36
575.82	47306.91
575.98	46555.60
576.14	47037.75
576.30	47470.75
576.46	47367.76
576.62	46927.74
576.79	46927.74
576.95	46396.44
577.11	46323.88
577.27	46986.25
577.43	46768.58
577.59	47201.58
577.75	46782.63
577.92	46752.20
578.08	47075.19
578.24	47243.71
578.40	46897.31
578.56	47023.70
578.72	46873.91
578.88	47281.16
579.04	47079.88
579.21	46801.35
579.37	47372.44
579.53	47421.59
579.69	46667.94
579.85	47072.85
580.01	47283.50
580.17	47016.68
580.33	47393.51
580.49	46911.36
580.65	47339.68
580.82	47004.98
580.98	47063.49
581.14	46815.40
581.30	47313.93
581.46	47178.18
581.62	46883.27
581.78	47105.62
581.94	46951.15
582.10	46649.22
582.26	47498.83
582.42	47250.74
582.58	47138.39
582.74	47281.16
582.90	47171.16
583.06	47503.51
583.22	47393.51
583.38	47344.36
583.54	47885.02
583.70	47325.63
583.86	47653.31
584.02	46876.25
584.18	47976.30
584.34	47381.80
584.50	47423.93
584.66	47739.91
584.82	47461.38
584.98	47562.03
585.14	47746.93
585.30	47138.39
585.46	47344.36
585.62	47220.31
585.78	47356.06
585.94	47077.54
586.10	47445.00
586.26	47157.11
586.42	47477.77
586.58	47440.32
586.74	47463.72
586.90	47248.39
587.06	47533.94
587.22	47494.15
587.38	47316.27
587.54	47234.35
587.70	47636.92
587.86	47906.08
588.02	47632.24
588.18	47236.69
588.34	47276.48
588.49	47964.60
588.65	47452.02
588.81	47386.49
588.97	46997.96
589.13	47629.90
589.29	47613.52
589.45	47969.28
589.61	47482.45
589.77	47665.01
589.93	47145.41
590.08	47917.79
590.24	47533.94
590.40	47711.82
590.56	48130.78
590.72	47943.53
590.88	47491.81
591.04	47648.63
591.20	47966.94
591.35	47990.34
591.51	48303.98
591.67	47882.68
591.83	47711.82
591.99	48006.73
592.15	47826.51
592.31	47540.96
592.46	47657.99
592.62	47636.92
592.78	47906.08
592.94	48437.39
593.10	48273.55
593.26	48271.21
593.41	48549.73
593.57	48259.51
593.73	48086.31
593.89	48158.86
594.05	48289.93
594.20	48114.39
594.36	48406.96
594.52	47943.53
594.68	48098.01
594.84	47569.05
594.99	48245.46
595.15	48011.41
595.31	48100.35
595.47	47983.32
595.62	47966.94
595.78	47948.21
595.94	48086.31
596.10	48133.12
596.25	48261.85
596.41	48582.50
596.57	47828.85
596.73	48348.45
596.88	48163.54
597.04	47854.59
597.20	48147.16
597.36	48378.87
597.51	48318.02
597.67	48074.60
597.83	47842.89
597.99	48144.82
598.14	48163.54
598.30	48442.07
598.46	47870.98
598.61	48446.75
598.77	48222.06
598.93	48514.62
599.09	48200.99
599.24	48591.86
599.40	48404.62
599.56	48374.19
599.71	48753.36
599.87	48451.43
600.03	48172.91
600.18	48392.92
600.34	48069.92
600.50	48395.26
600.65	48341.42
600.81	48109.71
600.97	48147.16
601.12	48463.13
601.28	48622.29
601.44	48271.21
601.59	48268.87
601.75	47962.26
601.91	48509.94
602.06	48016.09
602.22	48392.92
602.37	48259.51
602.53	48315.68
602.69	48062.90
602.84	48233.76
603.00	48236.10
603.16	47931.83
603.31	48238.44
603.47	48460.79
603.62	48264.19
603.78	48575.48
603.94	48121.41
604.09	48158.86
604.25	48421.00
604.40	47812.46
604.56	48154.18
604.71	48580.16
604.87	48411.64
605.03	47807.78
605.18	48130.78
605.34	48385.89
605.49	48074.60
605.65	48243.12
605.80	48105.03
605.96	48079.28
606.12	47812.46
606.27	48502.92
606.43	48114.39
606.58	48198.65
606.74	48025.45
606.89	48371.85
607.05	48582.50
607.20	48203.33
607.36	48034.81
607.51	48098.01
607.67	47915.45
607.82	47833.53
607.98	48165.88
608.13	48074.60
608.29	47763.31
608.44	47971.62
608.60	48147.16
608.75	48266.53
608.91	47648.63
609.06	47903.74
609.22	47913.11
609.37	48090.99
609.53	48119.07
609.68	48362.49
609.84	48086.31
609.99	47955.24
610.15	47952.90
610.30	48243.12
610.46	47983.32
610.61	47927.15
610.76	47999.71
610.92	47863.96
611.07	47487.13
611.23	47611.18
611.38	47934.17
611.54	48236.10
611.69	47997.37
611.84	47868.64
612.00	47695.44
612.15	47641.60
612.31	47786.72
612.46	47445.00
612.62	47519.90
612.77	47760.97
612.92	47547.98
613.08	47573.73
613.23	47704.80
613.39	47608.84
613.54	47744.59
613.69	48004.39
613.85	47681.39
614.00	47615.86
614.15	47849.91
614.31	47447.34
614.46	47459.04
614.62	47503.51
614.77	47831.19
614.92	47688.42
615.08	47393.51
615.23	47826.51
615.38	47758.63
615.54	47274.14
615.69	47531.60
615.84	47285.84
616.00	47585.43
616.15	47107.96
616.30	47508.19
616.46	47407.55
616.61	47430.96
616.76	47908.43
616.92	47140.73
617.07	47449.68
617.22	47679.05
617.37	47007.32
617.53	47510.53
617.68	47290.52
617.83	46969.87
617.99	47770.33
618.14	47559.69
618.29	47068.17
618.45	46836.46
618.60	46866.89
618.75	46759.22
618.90	47009.66
619.06	47093.92
619.21	47512.88
619.36	47260.10
619.51	46920.72
619.67	47051.79
619.82	47157.11
619.97	47327.97
620.12	46974.55
620.28	46925.40
620.43	46965.19
620.58	46857.52
620.73	46796.67
620.89	47344.36
621.04	47126.69
621.19	46387.08
621.34	46543.89
621.49	46478.36
621.65	47014.34
621.80	46913.70
621.95	46686.67
622.10	46787.31
622.25	46721.77
622.41	46787.31
622.56	46176.43
622.71	46878.59
622.86	46724.11
623.01	46955.83
623.16	46473.68
623.32	46658.58
623.47	46571.98
623.62	46679.64
623.77	46494.74
623.92	46712.41
624.07	46707.73
624.23	47021.36
624.38	46841.14
624.53	47131.37
624.68	46398.78
624.83	46160.05
624.98	46429.21
625.13	46106.21
625.29	46110.89
625.44	46373.03
625.59	46277.07
625.74	46590.70
625.89	46092.17
626.04	46129.62
626.19	45720.02
626.34	45837.05
626.49	46024.29
626.65	45787.90
626.80	46019.61
626.95	45645.13
627.10	45621.72
627.25	46183.45
627.40	46054.72
627.55	46010.25
627.70	45839.39
627.85	45933.01
628.00	45839.39
628.15	45944.72
628.30	45387.67
628.45	45191.06
628.60	45291.71
628.76	45722.37
628.91	45808.96
629.06	45212.13
629.21	45467.25
629.36	45450.86
629.51	45778.54
629.66	45642.79
629.81	45677.90
629.96	45450.86
630.11	45340.86
630.26	45223.83
630.41	45345.54
630.56	45439.16
630.71	45408.73
630.86	45284.68
631.01	45427.46
631.16	45109.14
631.31	45141.91
631.46	45017.86
631.61	45361.92
631.76	45261.28
631.91	45017.86
632.06	45380.65
632.21	45614.70
632.36	45909.61
632.51	45001.48
632.66	45436.82
632.81	45270.64
632.96	45116.17
633.10	45048.29
633.25	44807.22
633.40	45036.59
633.55	45390.01
633.70	45446.18
633.85	44514.65
634.00	44617.63
634.15	45031.91
634.30	44648.06
634.45	44847.00
634.60	44877.43
634.75	45125.53
634.90	44898.50
635.05	44889.13
635.19	44533.37
635.34	45001.48
635.49	45127.87
635.64	44538.05
635.79	45038.93
635.94	44442.09
636.09	45151.27
636.24	44568.48
636.39	44704.23
636.53	44924.24
636.68	44168.25
636.83	44540.39
636.98	44313.36
637.13	44526.35
637.28	43840.57
637.43	44577.84
637.57	44687.85
637.72	43650.99
637.87	43887.39
638.02	44083.99
638.17	44023.14
638.32	43981.01
638.46	44039.52
638.61	43981.01
638.76	44170.59
638.91	44086.33
639.06	44399.96
639.20	43826.53
639.35	43885.04
639.50	43662.69
639.65	43730.57
639.80	44287.62
639.94	44076.97
640.09	44233.78
640.24	44109.74
640.39	43370.13
640.54	43533.96
640.68	43746.95
640.83	43339.70
640.98	43648.65
641.13	43585.46
641.27	43866.32
641.42	43725.89
641.57	43477.79
641.72	43571.41
641.86	44161.23
642.01	43311.61
642.16	43473.11
642.31	42920.74
642.45	43901.43
642.60	43318.64
642.75	43449.70
642.90	43658.01
643.04	43393.53
643.19	43220.33
643.34	43243.74
643.48	42880.95
643.63	43463.75
643.78	43438.00
643.93	43316.29
644.07	43220.33
644.22	43189.91
644.37	43339.70
644.51	43105.65
644.66	42979.26
644.81	43026.07
644.95	43253.10
645.10	43206.29
645.25	42941.81
645.39	42834.14
645.54	42789.67
645.69	42721.80
645.83	43054.15
645.98	42890.32
646.13	42810.74
646.27	42990.96
646.42	42864.57
646.57	43051.81
646.71	43295.23
646.86	43262.46
647.00	42597.75
647.15	42567.32
647.30	43143.09
647.44	42520.51
647.59	42916.06
647.74	42176.45
647.88	41851.12
648.03	42724.14
648.17	43306.93
648.32	42267.73
648.47	42738.18
648.61	42548.60
648.76	42141.35
648.90	42298.16
649.05	42602.43
649.20	42415.19
649.34	42574.34
649.49	42403.49
649.63	42897.34
649.78	42621.16
649.92	42560.30
650.07	42660.94
650.21	42733.50
650.36	42036.02
650.51	42096.88
650.65	42649.24
650.80	42204.54
650.94	42398.80
651.09	42108.58
651.23	41963.46
651.38	41883.89
651.52	41713.03
651.67	41525.78
651.81	41666.22
651.96	41869.84
652.10	41874.52
652.25	42017.30
652.39	42129.64
652.54	41841.76
652.68	41584.30
652.83	41818.35
652.97	41944.74
653.12	41361.95
653.26	41773.88
653.41	41462.59
653.55	41567.91
653.70	42153.05
653.84	42120.28
653.99	42216.24
654.13	41446.21
654.27	41399.40
654.42	41584.30
654.56	41179.39
654.71	41600.68
654.85	41647.49
655.00	41745.80
655.14	41752.82
655.29	41825.37
655.43	41708.35
655.57	41586.64
655.72	41172.36
655.86	40921.93
656.01	41165.34
656.15	41340.88
656.30	40905.54
656.44	41361.95
656.58	41628.77
656.73	41193.43
656.87	40933.63
657.01	40999.16
657.16	40903.20
657.30	40919.59
657.45	41184.07
657.59	40685.53
657.73	40685.53
657.88	41008.53
658.02	41153.64
658.16	40926.61
658.31	40758.09
658.45	40882.14
658.60	40477.22
658.74	40795.54
658.88	40500.63
659.03	40481.91
659.17	40346.15
659.31	40442.12
659.46	40320.41
659.60	40252.53
659.74	40341.47
659.89	39608.89
660.03	39899.11
660.17	40112.10
660.32	40205.72
660.46	39700.17
660.60	39643.99
660.74	39742.30
660.89	40278.28
661.03	39643.99
661.17	39377.17
661.32	39269.51
661.46	39655.70
661.60	39892.09
661.74	39828.90
661.89	39636.97
662.03	39742.30
662.17	39683.78
662.31	39508.24
662.46	39416.96
662.60	39206.31
662.74	39140.78
662.88	39438.03
663.03	38841.19
663.17	38876.30
663.31	38447.98
663.45	39335.04
663.60	39339.72
663.74	39100.99
663.88	38880.98
664.02	38927.79
664.17	39512.92
664.31	38660.97
664.45	38431.60
664.59	38473.73
664.73	38230.31
664.88	38878.64
665.02	38508.83
665.16	38330.95
665.30	38071.15
665.44	38209.25
665.59	38146.05
665.73	37869.87
665.87	37677.94
666.01	37979.87
666.15	38396.49
666.29	38078.18
666.44	37933.06
666.58	37970.51
666.72	37965.83
666.86	37605.39
667.00	37734.12
667.14	37556.24
667.28	37532.83
667.43	38024.34
667.57	37401.76
667.71	37708.37
667.85	37919.02
667.99	37198.13
668.13	37139.62
668.27	37120.90
668.41	36954.72
668.56	36643.43
668.70	36692.58
668.84	36605.98
668.98	36594.28
669.12	37038.98
669.26	37050.68
669.40	36833.01
669.54	36889.18
669.68	36945.36
669.82	36699.60
669.96	35976.37
670.10	36114.47
670.25	36086.38
670.39	36130.85
670.53	36266.60
670.67	36086.38
670.81	36758.11
670.95	36025.53
671.09	36058.29
671.23	35864.03
671.37	36046.59
671.51	35812.54
671.65	35395.92
671.79	35398.26
671.93	36037.23
672.07	35541.03
672.21	35445.07
672.35	34983.99
672.49	35529.33
672.63	35304.64
672.77	35302.30
672.91	35552.74
673.05	34951.22
673.19	34794.40
673.33	34895.05
673.47	34726.53
673.61	34604.82
673.75	34405.88
673.89	34408.22
674.03	34188.21
674.17	34087.56
674.31	33996.28
674.45	33961.17
674.59	34288.85
674.73	33830.10
674.87	33408.81
675.01	33481.36
675.15	33230.93
675.29	33624.14
675.43	33392.42
675.56	33628.82
675.70	33663.93
675.84	33235.61
675.98	32364.93
676.12	33055.39
676.26	33347.95
676.40	33455.62
676.54	32751.12
676.68	32818.99
676.82	32285.35
676.96	32774.52
677.10	32849.42
677.23	32556.85
677.37	32472.59
677.51	32446.85
677.65	32224.50
677.79	31850.01
677.93	32257.26
678.07	31817.24
678.21	31665.11
678.34	31765.75
678.48	30967.63
678.62	31222.75
678.76	31051.89
678.90	31117.42
679.04	31285.94
679.18	31257.85
679.31	30941.88
679.45	30913.80
679.59	30911.46
679.73	30845.92
679.87	30881.03
680.00	30588.46
680.14	30511.22
680.28	30731.23
680.42	30197.59
680.56	30047.80
680.70	30295.89
680.83	29745.87
680.97	29790.34
681.11	29715.44
681.25	29883.96
681.39	29795.02
681.52	29202.86
681.66	29280.10
681.80	28912.64
681.94	28844.76
682.07	28929.02
682.21	28816.68
682.35	29029.66
682.49	28519.43
682.62	28507.72
682.76	28629.43
682.90	28290.06
683.04	28701.99
683.17	27850.03
683.31	28278.35
683.45	28034.94
683.59	27878.12
683.72	27381.93
683.86	27992.81
684.00	27655.77
684.13	27756.41
684.27	27068.30
684.41	27194.68
684.55	27068.30
684.68	27072.98
684.82	27110.43
684.96	27124.47
685.09	26958.29
685.23	27098.72
685.37	27358.52
685.50	27529.38
685.64	26937.23
685.78	26651.68
685.91	26342.73
686.05	26244.43
686.19	25706.10
686.32	25706.10
686.46	25631.21
686.60	25734.19
686.73	25837.17
686.87	25752.91
687.01	25612.48
687.14	25755.26
687.28	25193.53
687.42	25200.55
687.55	25160.76
687.69	25144.38
687.82	24828.40
687.96	24907.98
688.10	24835.42
688.23	24877.55
688.37	24788.61
688.50	24959.47
688.64	24718.40
688.78	24109.86
688.91	24484.34
689.05	24517.11
689.18	23981.13
689.32	23765.80
689.46	23679.20
689.59	23941.34
689.73	23908.57
689.86	24060.71
690.00	23964.75
690.13	24044.32
690.27	23365.57
690.41	23601.96
690.54	23232.16
690.68	22792.14
690.81	22689.15
690.95	22883.42
691.08	22532.34
691.22	22686.81
691.35	22302.96
691.49	22712.56
691.62	22520.63
691.76	22195.30
691.89	21647.61
692.03	21921.46
692.16	21757.62
692.30	22047.85
692.43	22085.30
692.57	21462.71
692.70	21860.60
692.84	21486.12
692.97	21490.80
693.11	21565.70
693.24	21200.57
693.38	21092.91
693.51	21085.89
693.65	20762.89
693.78	20980.56
693.92	20760.55
694.05	20849.49
694.19	20629.48
694.32	20463.30
694.45	20613.10
694.59	20645.87
694.72	20568.63
694.86	20304.15
694.99	20194.14
695.13	20084.14
695.26	19592.62
695.39	19833.70
695.53	19798.59
695.66	19761.14
695.80	19524.75
695.93	19620.71
696.07	19318.78
696.20	19080.05
696.33	18984.09
696.47	18867.06
696.60	19037.92
696.73	19019.19
696.87	18965.36
697.00	18937.27
697.14	18728.97
697.27	18757.05
697.40	18728.97
697.54	18424.70
697.67	18363.84
697.80	18331.08
697.94	18314.69
698.07	18328.74
698.21	17832.54
698.34	18045.53
698.47	18073.62
698.61	17788.07
698.74	17862.97
698.87	17657.00
699.01	17284.86
699.14	17820.84
699.27	17535.29
699.40	17385.50
699.54	17336.35
699.67	17275.49
699.80	17132.72
699.94	16779.30
700.07	17085.91
700.20	17008.67
700.34	16725.47
700.47	16945.48
700.60	16940.80
700.73	16407.16
700.87	16423.54
701.00	15939.05
701.13	16149.70
701.26	15850.11
701.40	16140.33
701.53	15999.90
701.66	15906.28
701.79	15791.59
701.93	15543.50
702.06	15686.27
702.19	15590.31
702.32	15817.34
702.46	15693.29
702.59	15740.10
702.72	15775.21
702.85	15463.92
702.99	15302.42
703.12	15119.86
703.25	15122.20
703.38	14956.02
703.51	15241.57
703.65	14743.03
703.78	14850.70
703.91	14647.07
704.04	14476.21
704.17	14408.34
704.31	14176.62
704.44	14443.45
704.57	14239.82
704.70	14235.14
704.83	14202.37
704.96	14066.62
705.10	14024.49
705.23	13884.06
>>>>>End Processed Spectral Data<<<<<
