SpectraSuite Data File
++++++++++++++++++++++++++++++++++++
Date: Fri Oct 25 10:48:18 EDT 2013
User: price-jones
Dark Spectrum Present: No
Reference Spectrum Present: No
Number of Sampled Component Spectra: 1
Spectrometers: USB2+H05261
Integration Time (usec): 100000 (USB2+H05261)
Spectra Averaged: 1 (USB2+H05261)
Boxcar Smoothing: 0 (USB2+H05261)
Correct for Electrical Dark: No (USB2+H05261)
Strobe/Lamp Enabled: No (USB2+H05261)
Correct for Detector Non-linearity: No (USB2+H05261)
Correct for Stray Light: No (USB2+H05261)
Number of Pixels in Processed Spectrum: 2048
>>>>>Begin Processed Spectral Data<<<<<
365.73	107.66
365.92	107.66
366.12	107.66
366.32	65.54
366.52	112.35
366.72	117.03
366.91	9.36
367.11	11.70
367.31	28.09
367.51	0.00
367.70	2.34
367.90	63.19
368.10	37.45
368.30	79.58
368.49	107.66
368.69	126.39
368.89	77.24
369.09	72.56
369.28	74.90
369.48	70.22
369.68	58.51
369.87	119.37
370.07	161.50
370.27	131.07
370.47	133.41
370.66	411.93
370.86	458.74
371.06	524.28
371.25	512.58
371.45	451.72
371.65	547.69
371.84	491.51
372.04	482.15
372.24	543.00
372.44	524.28
372.63	498.53
372.83	554.71
373.03	545.34
373.22	510.24
373.42	582.79
373.62	559.39
373.81	557.05
374.01	566.41
374.21	587.47
374.40	695.14
374.60	531.30
374.79	641.31
374.99	683.44
375.19	629.60
375.38	575.77
375.58	636.63
375.78	674.07
375.97	650.67
376.17	624.92
376.37	601.52
376.56	704.50
376.76	603.86
376.95	723.23
377.15	617.90
377.35	561.73
377.54	699.82
377.74	690.46
377.93	688.12
378.13	681.10
378.33	784.08
378.52	617.90
378.72	727.91
378.91	737.27
379.11	669.39
379.31	681.10
379.50	627.26
379.70	737.27
379.89	683.44
380.09	748.97
380.28	678.76
380.48	683.44
380.68	774.72
380.87	720.88
381.07	716.20
381.26	720.88
381.46	760.67
381.65	758.33
381.85	720.88
382.04	704.50
382.24	812.17
382.43	702.16
382.63	739.61
382.83	730.25
383.02	807.48
383.22	819.19
383.41	706.84
383.61	755.99
383.80	812.17
384.00	746.63
384.19	793.44
384.39	849.61
384.58	856.64
384.78	809.83
384.97	868.34
385.17	842.59
385.36	802.80
385.56	812.17
385.75	840.25
385.95	809.83
386.14	910.47
386.34	917.49
386.53	933.87
386.72	828.55
386.92	905.79
387.11	912.81
387.31	898.77
387.50	856.64
387.70	842.59
387.89	894.08
388.09	978.34
388.28	826.21
388.48	821.53
388.67	1001.75
388.86	1020.47
389.06	922.17
389.25	990.05
389.45	976.00
389.64	1006.43
389.84	1093.03
390.03	1090.69
390.22	1074.31
390.42	1050.90
390.61	1004.09
390.81	1102.39
391.00	1011.11
391.19	1104.73
391.39	1071.97
391.58	1139.84
391.78	1090.69
391.97	1102.39
392.16	1048.56
392.36	1090.69
392.55	992.39
392.75	1001.75
392.94	990.05
393.13	1025.15
393.33	1050.90
393.52	1020.47
393.71	1205.38
393.91	1174.95
394.10	1224.10
394.29	1287.29
394.49	1240.48
394.68	1238.14
394.88	1207.72
395.07	1366.87
395.26	1249.85
395.46	1366.87
395.65	1256.87
395.84	1270.91
396.04	1301.34
396.23	1235.80
396.42	1174.95
396.62	1240.48
396.81	1226.44
397.00	1238.14
397.19	1341.13
397.39	1324.74
397.58	1502.62
397.77	1359.85
397.97	1462.83
398.16	1511.99
398.35	1488.58
398.55	1551.78
398.74	1621.99
398.93	1563.48
399.12	1497.94
399.32	1565.82
399.51	1570.50
399.70	1549.43
399.90	1607.95
400.09	1643.06
400.28	1659.44
400.47	1591.56
400.67	1736.68
400.86	1659.44
401.05	1717.95
401.24	1682.85
401.44	1743.70
401.63	1783.49
401.82	1853.70
402.01	1785.83
402.21	1724.97
402.40	1732.00
402.59	1760.08
402.78	1785.83
402.97	1767.10
403.17	1907.54
403.36	1858.39
403.55	1919.24
403.74	1954.35
403.93	1942.64
404.13	1919.24
404.32	1907.54
404.51	1858.39
404.70	2038.61
404.89	1977.75
405.09	2139.25
405.28	2022.22
405.47	1994.14
405.66	2040.95
405.85	2008.18
406.05	1998.82
406.24	2106.48
406.43	2132.23
406.62	2160.31
406.81	2167.34
407.00	2153.29
407.20	2155.63
407.39	2132.23
407.58	2125.21
407.77	2293.72
407.96	2251.60
408.15	2300.75
408.34	2279.68
408.54	2277.34
408.73	2342.88
408.92	2326.49
409.11	2434.16
409.30	2331.17
409.49	2239.89
409.68	2363.94
409.87	2422.45
410.07	2431.82
410.26	2382.67
410.45	2511.39
410.64	2553.52
410.83	2633.10
411.02	2640.12
411.21	2621.40
411.40	2710.34
411.59	2677.57
411.78	2733.75
411.98	2562.89
412.17	2558.21
412.36	2745.45
412.55	2757.15
412.74	2920.99
412.93	2747.79
413.12	2834.39
413.31	2902.26
413.50	2766.51
413.69	2899.92
413.88	2918.65
414.07	2923.33
414.26	3019.29
414.45	2995.89
414.64	3016.95
414.83	3019.29
415.02	3133.98
415.22	3255.69
415.41	3171.43
415.60	3211.22
415.79	3229.94
415.98	3499.10
416.17	3337.60
416.36	3253.34
416.55	3283.77
416.74	3323.56
416.93	3260.37
417.12	3463.99
417.31	3361.01
417.50	3531.87
417.69	3393.78
417.88	3555.27
418.07	3492.08
418.26	3456.97
418.45	3576.34
418.64	3721.45
418.83	3667.62
419.02	3639.53
419.21	3632.51
419.39	3557.61
419.58	3485.06
419.77	3634.85
419.96	3695.71
420.15	3843.16
420.34	3892.31
420.53	3850.18
420.72	3967.21
420.91	3969.55
421.10	3740.18
421.29	3927.42
421.48	3974.23
421.67	4079.55
421.86	3918.06
422.05	3964.87
422.24	3775.28
422.43	3946.14
422.61	3934.44
422.80	3789.33
422.99	4018.70
423.18	4105.30
423.37	4014.02
423.56	4007.00
423.75	4074.87
423.94	3971.89
424.13	3875.93
424.32	3854.86
424.50	4025.72
424.69	4229.35
424.88	4074.87
425.07	4028.06
425.26	3953.16
425.45	4077.21
425.64	4021.04
425.83	4023.38
426.01	4133.39
426.20	4166.15
426.39	4271.48
426.58	3997.64
426.77	3960.19
426.96	4058.49
427.15	4042.11
427.33	4182.54
427.52	4222.33
427.71	4145.09
427.90	4163.81
428.09	4259.78
428.28	4472.76
428.46	4285.52
428.65	4241.05
428.84	4432.97
429.03	4327.65
429.22	4163.81
429.40	4201.26
429.59	4119.34
429.78	4009.34
429.97	4138.07
430.16	4215.30
430.34	4168.49
430.53	4215.30
430.72	4322.97
430.91	4421.27
431.10	4365.10
431.28	4510.21
431.47	4578.09
431.66	4821.50
431.85	4561.70
432.03	4718.52
432.22	4844.91
432.41	4704.48
432.60	4882.36
432.79	4933.85
432.97	4912.78
433.16	4765.33
433.35	4716.18
433.54	4723.20
433.72	4709.16
433.91	4734.90
434.10	4882.36
434.28	4854.27
434.47	5020.45
434.66	5011.09
434.85	5214.71
435.03	5121.09
435.22	5048.54
435.41	5186.63
435.59	5195.99
435.78	5132.79
435.97	5303.65
436.16	5235.78
436.34	5261.52
436.53	5139.82
436.72	5441.75
436.90	5179.61
437.09	5235.78
437.28	5301.31
437.46	5214.71
437.65	5371.53
437.84	5385.57
438.02	5214.71
438.21	5301.31
438.40	5252.16
438.58	5500.26
438.77	5495.58
438.96	5528.35
439.14	5720.27
439.33	5696.86
439.52	5729.63
439.70	5696.86
439.89	5715.59
440.08	5912.19
440.26	5959.00
440.45	5767.08
440.63	5963.68
440.82	6106.46
441.01	6141.57
441.19	6106.46
441.38	6181.35
441.57	6277.32
441.75	6382.64
441.94	6485.62
442.12	6413.07
442.31	6593.29
442.50	6509.03
442.68	6532.44
442.87	6363.92
443.05	6368.60
443.24	6593.29
443.43	6349.87
443.61	6743.08
443.80	6897.56
443.98	6642.44
444.17	6464.56
444.35	6834.36
444.54	6541.80
444.73	6780.53
444.91	6560.52
445.10	6574.56
445.28	6516.05
445.47	6602.65
445.65	6619.04
445.84	6825.00
446.02	6752.45
446.21	6736.06
446.39	6754.79
446.58	6822.66
446.77	6768.83
446.95	6558.18
447.14	6986.50
447.32	6913.94
447.51	6867.13
447.69	6679.89
447.88	6876.49
448.06	6881.18
448.25	6832.02
448.43	6813.30
448.62	7103.53
448.80	6925.65
448.99	6991.18
449.17	7007.56
449.36	6846.07
449.54	7094.16
449.73	7178.42
449.91	7407.80
450.10	7194.81
450.28	7337.58
450.46	7321.20
450.65	7407.80
450.83	7269.70
451.02	7398.43
451.20	7300.13
451.39	7456.95
451.57	7325.88
451.76	7307.15
451.94	7468.65
452.13	7421.84
452.31	7370.35
452.49	7243.96
452.68	7375.03
452.86	7363.33
453.05	7356.30
453.23	7445.24
453.42	7538.87
453.60	7438.22
453.78	7691.00
453.97	7492.05
454.15	7609.08
454.34	7487.37
454.52	7639.51
454.70	7658.23
454.89	7515.46
455.07	7733.13
455.26	7775.26
455.44	7875.90
455.62	7915.69
455.81	7999.95
455.99	7927.39
456.17	7765.90
456.36	7985.91
456.54	8018.68
456.73	8072.51
456.91	8238.69
457.09	8210.60
457.28	8411.89
457.46	8332.31
457.64	8353.37
457.83	8194.22
458.01	8077.19
458.19	8411.89
458.38	8374.44
458.56	8435.29
458.74	8554.66
458.93	8484.44
459.11	8472.74
459.29	8400.18
459.48	8472.74
459.66	8489.12
459.84	8507.85
460.03	8645.94
460.21	8545.30
460.39	8585.08
460.57	8692.75
460.76	8748.92
460.94	8676.37
461.12	8985.32
461.31	8847.22
461.49	8739.56
461.67	8809.78
461.85	9163.20
462.04	8943.19
462.22	9628.96
462.40	9069.58
462.59	9067.24
462.77	8987.66
462.95	9158.52
463.13	9149.15
463.32	9188.94
463.50	9263.84
463.68	9139.79
463.86	9301.29
464.05	9069.58
464.23	9071.92
464.41	9303.63
464.59	8936.17
464.78	9420.66
464.96	9289.59
465.14	9132.77
465.32	9387.89
465.50	9647.69
465.69	9364.48
465.87	9486.19
466.05	9439.38
466.23	9535.34
466.41	9488.53
466.60	9530.66
466.78	9427.68
466.96	9380.87
467.14	9605.56
467.32	9514.28
467.51	9769.40
467.69	9266.18
467.87	9650.03
468.05	9380.87
468.23	9528.32
468.41	9537.68
468.60	9467.47
468.78	9600.88
468.96	9661.73
469.14	9736.63
469.32	10085.37
469.50	9951.96
469.69	9771.74
469.87	9891.10
470.05	9865.36
470.23	10026.86
470.41	10178.99
470.59	9966.00
470.77	10043.24
470.95	10235.16
471.14	10569.86
471.32	10214.10
471.50	10436.45
471.68	10621.35
471.86	10420.06
472.04	10710.29
472.22	10848.38
472.40	10457.51
472.58	10572.20
472.77	10649.44
472.95	10862.43
473.13	11007.54
473.31	10642.42
473.49	10731.36
473.67	10876.47
473.85	10925.62
474.03	11267.34
474.21	11117.54
474.39	11269.68
474.57	11351.60
474.75	11136.27
474.93	11370.32
475.12	11470.97
475.30	11356.28
475.48	11396.07
475.66	11475.65
475.84	11449.90
476.02	11819.71
476.20	11646.51
476.38	11901.62
476.56	12212.92
476.74	12067.80
476.92	12102.91
477.10	12105.25
477.28	12156.74
477.46	12336.96
477.64	12479.74
477.82	12664.64
478.00	12776.98
478.18	12704.43
478.36	12938.48
478.54	13018.06
478.72	12980.61
478.90	13107.00
479.08	13411.27
479.26	13528.30
479.44	13172.54
479.62	13509.57
479.80	13570.43
479.98	13547.02
480.16	13799.80
480.34	13820.86
480.52	14099.39
480.70	14094.71
480.88	14071.30
481.06	14097.05
481.24	14207.05
481.41	14672.82
481.59	14602.60
481.77	14572.18
481.95	14651.75
482.13	14869.42
482.31	14972.41
482.49	15197.10
482.67	15129.22
482.85	15028.58
483.03	15363.28
483.21	15370.30
483.39	15829.04
483.57	15829.04
483.74	15742.44
483.92	15920.32
484.10	15616.05
484.28	16180.12
484.46	16402.47
484.64	16720.79
484.82	16456.31
485.00	16271.40
485.18	16915.05
485.35	16966.54
485.53	16456.31
485.71	16383.75
485.89	16704.40
486.07	16786.32
486.25	16805.05
486.43	17394.86
486.61	17441.67
486.78	18003.40
486.96	17900.42
487.14	18097.02
487.32	18223.41
487.50	18405.97
487.68	18466.83
487.85	18625.98
488.03	18890.46
488.21	19365.59
488.39	18803.86
488.57	19016.85
488.75	18808.54
488.92	19140.90
489.10	19508.37
489.28	19618.37
489.46	19798.59
489.64	20437.56
489.81	20353.30
489.99	20226.91
490.17	20418.83
490.35	20891.62
490.53	20395.43
490.70	20889.28
490.88	21151.42
491.06	21373.77
491.24	21261.43
491.41	21020.35
491.59	21214.62
491.77	21343.35
491.95	21516.54
492.13	21682.72
492.30	22101.68
492.48	22230.41
492.66	22235.09
492.84	22436.38
493.01	22534.68
493.19	22438.72
493.37	22490.21
493.54	22462.12
493.72	22838.95
493.90	23206.41
494.08	23721.33
494.25	23487.28
494.43	23487.28
494.61	24123.90
494.79	23747.08
494.96	23833.68
495.14	24088.79
495.32	23833.68
495.49	23939.00
495.67	24067.73
495.85	24645.84
496.02	24416.47
496.20	24762.87
496.38	25113.95
496.55	24943.09
496.73	25340.98
496.91	25160.76
497.09	25448.64
497.26	25755.26
497.44	25474.39
497.62	25893.35
497.79	25359.70
497.97	25610.14
498.14	25797.38
498.32	26291.24
498.50	26132.08
498.67	26291.24
498.85	26419.97
499.03	26588.49
499.20	26642.32
499.38	26799.13
499.56	26913.82
499.73	27082.34
499.91	27208.73
500.08	26946.59
500.26	27229.79
500.44	26829.56
500.61	27573.85
500.79	27328.10
500.97	27321.07
501.14	28004.51
501.32	27896.85
501.49	27662.79
501.67	27618.32
501.84	28142.60
502.02	28126.22
502.20	28238.56
502.37	28215.16
502.55	28411.76
502.72	28643.48
502.90	28634.11
503.07	28458.57
503.25	28425.81
503.43	28606.03
503.60	28678.58
503.78	28407.08
503.95	28751.14
504.13	29488.41
504.30	28779.23
504.48	29090.52
504.65	29350.32
504.83	29446.28
505.01	29823.11
505.18	29549.26
505.36	29991.62
505.53	29811.40
505.71	30108.65
505.88	30333.34
506.06	30115.67
506.23	30260.79
506.41	30398.88
506.58	30445.69
506.76	30483.14
506.93	30630.59
507.11	30436.33
507.28	30567.40
507.46	30576.76
507.63	30668.04
507.81	30838.90
507.98	30974.65
508.16	31215.72
508.33	31208.70
508.50	31372.54
508.68	31388.92
508.85	31461.48
509.03	31431.05
509.20	31358.50
509.38	31737.66
509.55	31852.35
509.73	32072.36
509.90	32098.11
510.08	31681.49
510.25	31850.01
510.42	32320.46
510.60	32364.93
510.77	32194.07
510.95	32517.06
511.12	32755.80
511.30	32613.02
511.47	33090.49
511.64	32666.86
511.82	33544.56
511.99	32924.32
512.17	32924.32
512.34	32746.44
512.51	32959.42
512.69	33500.09
512.86	33497.75
513.04	33369.02
513.21	33392.42
513.38	33497.75
513.56	33324.55
513.73	33008.58
513.90	33916.70
514.08	33612.43
514.25	33675.63
514.43	33795.00
514.60	33443.91
514.77	34106.29
514.95	34092.24
515.12	33979.90
515.29	34340.34
515.47	34593.12
515.64	34946.54
515.81	34450.35
515.99	34380.13
516.16	34771.00
516.33	34087.56
516.51	34015.01
516.68	33511.79
516.85	33879.25
517.03	34436.30
517.20	34511.20
517.37	34759.30
517.54	35136.12
517.72	34951.22
517.89	34979.31
518.06	34188.21
518.24	34527.58
518.41	35208.68
518.58	35112.72
518.75	34988.67
518.93	35683.81
519.10	35655.72
519.27	35690.83
519.45	35662.74
519.62	35974.03
519.79	36107.44
519.96	36224.47
520.14	36465.55
520.31	35669.76
520.48	36442.14
520.65	36378.95
520.83	36460.87
521.00	36493.63
521.17	36400.01
521.34	36495.97
521.52	37010.89
521.69	37123.24
521.86	37181.75
522.03	37036.64
522.20	37013.23
522.38	36940.68
522.55	37343.25
522.72	36664.49
522.89	36758.11
523.07	37397.08
523.24	37350.27
523.41	37628.79
523.58	37642.84
523.75	37886.25
523.92	37769.22
524.10	37745.82
524.27	38382.45
524.44	38146.05
524.61	38169.46
524.78	37984.55
524.96	38167.12
525.13	38457.34
525.30	38440.96
525.47	38735.87
525.64	38370.74
525.81	38129.67
525.98	38443.30
526.16	38206.90
526.33	37715.39
526.50	38206.90
526.67	38244.35
526.84	38022.00
527.01	38576.71
527.18	38569.69
527.36	38670.33
527.53	39583.14
527.70	39206.31
527.87	39028.43
528.04	38817.78
528.21	39304.62
528.38	39423.98
528.55	39573.78
528.72	39323.34
528.89	40058.27
529.07	39831.24
529.24	39388.88
529.41	39732.93
529.58	39587.82
529.75	39313.98
529.92	39695.49
530.09	39700.17
530.26	40135.51
530.43	40175.30
530.60	40027.84
530.77	40095.72
530.94	39964.65
531.11	40304.02
531.28	39955.29
531.46	40509.99
531.63	40332.11
531.80	40247.85
531.97	40109.76
532.14	39941.24
532.31	39779.74
532.48	40664.47
532.65	40407.01
532.82	40172.96
532.99	40872.78
533.16	40395.31
533.33	40444.46
533.50	40573.19
533.67	40275.94
533.84	40364.88
534.01	40781.49
534.18	40783.83
534.35	41153.64
534.52	41134.92
534.69	41090.44
534.86	41193.43
535.03	41064.70
535.20	41359.61
535.37	41682.60
535.54	41900.27
535.71	41441.53
535.88	41258.96
536.05	41251.94
536.22	41296.41
536.38	41504.72
536.55	41315.14
536.72	41060.02
536.89	41383.01
537.06	41478.97
537.23	41687.28
537.40	41593.66
537.57	42164.75
537.74	42291.14
537.91	41923.68
538.08	41883.89
538.25	41879.21
538.42	42237.31
538.59	42092.19
538.75	41640.47
538.92	41933.04
539.09	42115.60
539.26	42171.77
539.43	42183.48
539.60	42457.32
539.77	42134.32
539.94	42370.72
540.11	42045.38
540.28	41893.25
540.44	42344.97
540.61	42246.67
540.78	42176.45
540.95	42513.49
541.12	42319.23
541.29	42389.44
541.46	42342.63
541.62	42817.76
541.79	43072.88
541.96	42815.42
542.13	42319.23
542.30	42740.52
542.47	42518.17
542.63	42986.28
542.80	43264.80
542.97	43161.82
543.14	43491.83
543.31	42993.30
543.48	43400.55
543.64	43660.35
543.81	43863.98
543.98	43491.83
544.15	43522.26
544.32	43992.71
544.48	43650.99
544.65	44072.29
544.82	43587.80
544.99	43161.82
545.16	43981.01
545.32	43604.18
545.49	44355.49
545.66	44224.42
545.83	44126.12
546.00	44208.04
546.16	43943.56
546.33	43807.81
546.50	43742.27
546.67	44100.37
546.83	43241.40
547.00	43641.63
547.17	44041.86
547.34	44236.12
547.50	44325.07
547.67	44336.77
547.84	44435.07
548.00	44451.45
548.17	44732.32
548.34	44533.37
548.51	45043.61
548.67	44769.77
548.84	44619.97
549.01	44336.77
549.18	44514.65
549.34	44697.21
549.51	45038.93
549.68	44488.90
549.84	44488.90
550.01	44931.26
550.18	44760.40
550.34	44687.85
550.51	44978.07
550.68	44669.12
550.84	44615.29
551.01	45083.40
551.18	44903.18
551.34	44914.88
551.51	45008.50
551.68	44947.65
551.84	45024.89
552.01	44968.71
552.18	45179.36
552.34	44697.21
552.51	45364.26
552.68	44985.10
552.84	45537.46
553.01	45724.71
553.18	45333.84
553.34	45291.71
553.51	44914.88
553.67	45394.69
553.84	45666.19
554.01	45387.67
554.17	45450.86
554.34	45736.41
554.51	45567.89
554.67	45495.33
554.84	45841.73
555.00	45415.76
555.17	45432.14
555.33	45895.56
555.50	45762.15
555.67	45605.34
555.83	45876.84
556.00	45841.73
556.16	46403.46
556.33	45670.87
556.50	45752.79
556.66	45628.74
556.83	45586.61
556.99	46005.57
557.16	45989.19
557.32	46036.00
557.49	45848.75
557.65	45521.08
557.82	45773.86
557.98	46033.66
558.15	45523.42
558.32	46117.92
558.48	45713.00
558.65	45890.88
558.81	45769.18
558.98	45834.71
559.14	45867.48
559.31	45933.01
559.47	46464.32
559.64	46319.20
559.80	45944.72
559.97	45858.12
560.13	45806.62
560.30	46078.13
560.46	46347.29
560.63	46518.15
560.79	46492.40
560.96	46520.49
561.12	46241.96
561.29	46742.84
561.45	46429.21
561.61	46459.63
561.78	46288.77
561.94	45851.09
562.11	45902.59
562.27	46284.09
562.44	46277.07
562.60	46700.71
562.77	46541.55
562.93	46501.76
563.10	46700.71
563.26	46298.14
563.42	46469.00
563.59	46721.77
563.75	46361.33
563.92	46506.44
564.08	46415.16
564.24	46944.12
564.41	46899.65
564.57	46562.62
564.74	46586.02
564.90	47093.92
565.07	46574.32
565.23	46536.87
565.39	46553.26
565.56	46747.52
565.72	46445.59
565.88	46398.78
566.05	46600.07
566.21	46754.54
566.38	46438.57
566.54	46504.10
566.70	47042.43
566.87	47185.20
567.03	46555.60
567.19	47004.98
567.36	47065.83
567.52	46681.98
567.68	46864.55
567.85	46829.44
568.01	46618.79
568.17	46384.74
568.34	46822.42
568.50	46410.48
568.66	46726.46
568.83	46628.15
568.99	46422.19
569.15	46344.95
569.32	46520.49
569.48	46499.42
569.64	46880.93
569.81	46990.94
569.97	46253.67
570.13	46897.31
570.30	46555.60
570.46	47103.28
570.62	46562.62
570.78	46571.98
570.95	46085.15
571.11	46803.69
571.27	46504.10
571.43	46780.29
571.60	46880.93
571.76	46480.70
571.92	46869.23
572.09	46740.50
572.25	46574.32
572.41	46918.38
572.57	47089.24
572.74	47220.31
572.90	47042.43
573.06	46590.70
573.22	46684.33
573.38	47178.18
573.55	46806.03
573.71	47091.58
573.87	46560.28
574.03	46864.55
574.20	46866.89
574.36	46567.30
574.52	46911.36
574.68	47208.61
574.84	47290.52
575.01	46637.51
575.17	46705.39
575.33	46714.75
575.49	47047.11
575.65	47234.35
575.82	47288.18
575.98	46712.41
576.14	47129.03
576.30	46838.80
576.46	46927.74
576.62	46777.95
576.79	46712.41
576.95	46375.37
577.11	46649.22
577.27	47068.17
577.43	46728.80
577.59	46490.06
577.75	47122.01
577.92	46480.70
578.08	46574.32
578.24	46340.27
578.40	46717.09
578.56	46536.87
578.72	46801.35
578.88	46979.23
579.04	46965.19
579.21	46756.88
579.37	46845.82
579.53	46930.08
579.69	46478.36
579.85	46862.21
580.01	46457.29
580.17	46997.96
580.33	46920.72
580.49	47138.39
580.65	47379.46
580.82	47227.33
580.98	46829.44
581.14	46986.25
581.30	47344.36
581.46	46892.63
581.62	47313.93
581.78	46911.36
581.94	47320.95
582.10	47203.92
582.26	47234.35
582.42	47065.83
582.58	46801.35
582.74	46841.14
582.90	47229.67
583.06	47042.43
583.22	47433.30
583.38	47613.52
583.54	47110.30
583.70	47000.30
583.86	47166.48
584.02	47037.75
584.18	47016.68
584.34	47407.55
584.50	47065.83
584.66	47033.07
584.82	46855.18
584.98	47292.86
585.14	46871.57
585.30	46691.35
585.46	47466.06
585.62	46742.84
585.78	46803.69
585.94	46681.98
586.10	46705.39
586.26	46934.76
586.42	47122.01
586.58	47070.51
586.74	47206.26
586.90	46930.08
587.06	47061.15
587.22	47274.14
587.38	46948.81
587.54	47063.49
587.70	47377.12
587.86	47143.07
588.02	47023.70
588.18	47100.94
588.34	46651.56
588.49	46621.13
588.65	46260.69
588.81	46410.48
588.97	46677.30
589.13	46623.47
589.29	46178.77
589.45	46880.93
589.61	46948.81
589.77	47129.03
589.93	46808.37
590.08	47253.08
590.24	47103.28
590.40	47367.76
590.56	47473.09
590.72	46850.50
590.88	46806.03
591.04	47236.69
591.20	47271.80
591.35	47166.48
591.51	47573.73
591.67	46920.72
591.83	47250.74
591.99	46780.29
592.15	47140.73
592.31	47019.02
592.46	47203.92
592.62	47262.44
592.78	47599.47
592.94	47407.55
593.10	47047.11
593.26	47334.99
593.41	47208.61
593.57	47122.01
593.73	47416.91
593.89	47150.09
594.05	47105.62
594.20	47208.61
594.36	47405.21
594.52	47388.83
594.68	47224.99
594.84	47206.26
594.99	47107.96
595.15	46543.89
595.31	47316.27
595.47	47416.91
595.62	47002.64
595.78	47037.75
595.94	47459.04
596.10	47730.54
596.25	47395.85
596.41	47398.19
596.57	47721.18
596.73	47187.54
596.88	47278.82
597.04	47632.24
597.20	47426.28
597.36	47391.17
597.51	47990.34
597.67	47290.52
597.83	47377.12
597.99	47789.06
598.14	47625.22
598.30	47243.71
598.46	47033.07
598.61	47421.59
598.77	46794.33
598.93	47117.32
599.09	47686.07
599.24	47587.77
599.40	47152.43
599.56	47185.20
599.71	47224.99
599.87	47337.33
600.03	47398.19
600.18	47386.49
600.34	46967.53
600.50	47157.11
600.65	47054.13
600.81	47704.80
600.97	47735.23
601.12	47405.21
601.28	47227.33
601.44	47171.16
601.59	47304.57
601.75	46780.29
601.91	47236.69
602.06	47145.41
602.22	47035.41
602.37	47428.62
602.53	47180.52
602.69	47271.80
602.84	47224.99
603.00	47725.86
603.16	47374.78
603.31	47021.36
603.47	47140.73
603.62	46974.55
603.78	47320.95
603.94	47278.82
604.09	47688.42
604.25	47103.28
604.40	47140.73
604.56	47260.10
604.71	47007.32
604.87	46850.50
605.03	47009.66
605.18	46902.00
605.34	46990.94
605.49	47126.69
605.65	47344.36
605.80	46614.11
605.96	47466.06
606.12	47398.19
606.27	47386.49
606.43	46536.87
606.58	47140.73
606.74	46997.96
606.89	47494.15
607.05	47084.56
607.20	47033.07
607.36	47098.60
607.51	47374.78
607.67	47061.15
607.82	46953.49
607.98	47168.82
608.13	46571.98
608.29	47023.70
608.44	46380.06
608.60	46667.94
608.75	46623.47
608.91	46567.30
609.06	46508.79
609.22	46471.34
609.37	46586.02
609.53	46773.27
609.68	46934.76
609.84	46714.75
609.99	46574.32
610.15	46810.71
610.30	46852.84
610.46	46490.06
610.61	46122.60
610.76	46681.98
610.92	46639.86
611.07	46616.45
611.23	46408.14
611.38	46422.19
611.54	46373.03
611.69	46265.37
611.84	46162.39
612.00	46639.86
612.15	46089.83
612.31	46609.43
612.46	46330.90
612.62	46431.55
612.77	46494.74
612.92	46300.48
613.08	46508.79
613.23	46471.34
613.39	46157.70
613.54	46108.55
613.69	46075.79
613.85	46185.79
614.00	46476.02
614.15	46351.97
614.31	46160.05
614.46	46429.21
614.62	46092.17
614.77	46408.14
614.92	45645.13
615.08	45780.88
615.23	45869.82
615.38	45890.88
615.54	45521.08
615.69	45869.82
615.84	45413.41
616.00	45705.98
616.15	45516.40
616.30	46394.10
616.46	45750.45
616.61	45717.68
616.76	45446.18
616.92	45125.53
617.07	45947.06
617.22	45537.46
617.37	45705.98
617.53	45815.99
617.68	45951.74
617.83	45624.06
617.99	45935.35
618.14	45563.21
618.29	45633.42
618.45	45240.21
618.60	45076.38
618.75	45607.68
618.90	45174.68
619.06	45303.41
619.21	45081.06
619.36	45846.41
619.51	45439.16
619.67	44952.33
619.82	45434.48
619.97	45380.65
620.12	45310.43
620.28	45287.03
620.43	45521.08
620.58	45134.89
620.73	45067.02
620.89	45162.98
621.04	45404.05
621.19	45085.74
621.34	44626.99
621.49	44406.98
621.65	44854.03
621.80	45127.87
621.95	44912.54
622.10	45062.33
622.25	44844.66
622.41	44964.03
622.56	44463.16
622.71	44626.99
622.86	44519.33
623.01	44945.31
623.16	44758.06
623.32	44903.18
623.47	45059.99
623.62	45216.81
623.77	45113.83
623.92	44634.02
624.07	44666.78
624.23	44074.63
624.38	44266.55
624.53	44479.54
624.68	44582.52
624.83	44760.40
624.98	44662.10
625.13	44369.54
625.29	44378.90
625.44	44327.41
625.59	44243.15
625.74	44102.71
625.89	43959.94
626.04	44083.99
626.19	43908.45
626.34	43758.66
626.49	43927.17
626.65	43716.53
626.80	44479.54
626.95	43999.73
627.10	44018.46
627.25	43910.79
627.40	43889.73
627.55	43597.16
627.70	43051.81
627.85	43470.77
628.00	44294.64
628.15	43742.27
628.30	43615.88
628.45	43573.75
628.60	43693.12
628.76	43868.66
628.91	43538.65
629.06	43306.93
629.21	43278.85
629.36	43175.86
629.51	43222.67
629.66	43248.42
629.81	43021.39
629.96	43304.59
630.11	43569.07
630.26	43367.79
630.41	43346.72
630.56	43215.65
630.71	43494.18
630.86	43210.97
631.01	43103.31
631.16	43290.55
631.31	42714.78
631.46	42513.49
631.61	42782.65
631.76	43260.12
631.91	42976.92
632.06	43143.09
632.21	43173.52
632.36	43325.66
632.51	42855.21
632.66	43019.05
632.81	42801.38
632.96	42670.31
633.10	42632.86
633.25	42534.56
633.40	42614.13
633.55	42827.12
633.70	42646.90
633.85	42583.71
634.00	42721.80
634.15	42784.99
634.30	42588.39
634.45	42801.38
634.60	42553.28
634.75	42625.84
634.90	42539.24
635.05	42508.81
635.19	42497.11
635.34	42895.00
635.49	42431.57
635.64	41977.51
635.79	42359.02
635.94	42239.65
636.09	42454.98
636.24	42443.27
636.39	41975.17
636.53	41830.05
636.68	41862.82
636.83	42225.60
636.98	41841.76
637.13	41895.59
637.28	42494.77
637.43	42293.48
637.57	42630.52
637.72	42197.52
637.87	42286.46
638.02	41975.17
638.17	42370.72
638.32	41975.17
638.46	41675.58
638.61	41727.07
638.76	41436.84
638.91	42260.71
639.06	41717.71
639.20	41869.84
639.35	41769.20
639.50	41219.17
639.65	41982.19
639.80	41893.25
639.94	41757.50
640.09	41511.74
640.24	41614.72
640.39	41151.30
640.54	41134.92
640.68	41624.09
640.83	41298.75
640.98	41436.84
641.13	41324.50
641.27	41574.94
641.42	41635.79
641.57	41132.57
641.72	40961.72
641.86	41207.47
642.01	40882.14
642.16	41235.56
642.31	40914.90
642.45	41247.26
642.60	40830.65
642.75	40900.86
642.90	41085.76
643.04	40765.11
643.19	40563.82
643.34	40652.76
643.48	40931.29
643.63	41062.36
643.78	40769.79
643.93	41043.63
644.07	41191.09
644.22	40804.90
644.37	40210.40
644.51	40605.95
644.66	40762.77
644.81	40811.92
644.95	40526.38
645.10	40765.11
645.25	40371.90
645.39	40931.29
645.54	40739.36
645.69	40687.87
645.83	40549.78
645.98	40318.07
646.13	40491.27
646.27	40322.75
646.42	40521.69
646.57	40821.28
646.71	40411.69
646.86	40395.31
647.00	40325.09
647.15	40128.48
647.30	40383.60
647.44	40287.64
647.59	40058.27
647.74	40137.85
647.88	39618.25
648.03	39803.15
648.17	39807.83
648.32	39821.87
648.47	39999.76
648.61	40446.80
648.76	40151.89
648.90	40088.70
649.05	40098.06
649.20	39931.88
649.34	40198.70
649.49	40074.65
649.63	39737.62
649.78	39515.26
649.92	39627.61
650.07	40182.32
650.21	39711.87
650.36	39821.87
650.51	39569.10
650.65	40264.24
650.80	39861.66
650.94	40130.83
651.09	39674.42
651.23	39608.89
651.38	39253.12
651.52	39564.42
651.67	39676.76
651.81	39854.64
651.96	39222.70
652.10	39393.56
652.25	39133.76
652.39	39566.76
652.54	39283.55
652.68	39576.12
652.83	39222.70
652.97	39349.09
653.12	39220.36
653.26	39115.03
653.41	39271.85
653.55	39105.67
653.70	38801.40
653.84	39227.38
653.99	39122.05
654.13	39306.96
654.27	38787.36
654.42	39105.67
654.56	39168.87
654.71	38895.02
654.85	39049.50
655.00	39175.89
655.14	38518.20
655.29	38679.69
655.43	38710.12
655.57	38335.63
655.72	38234.99
655.86	38419.89
656.01	38565.01
656.15	38082.86
656.30	38323.93
656.44	38284.14
656.58	38202.22
656.73	38307.55
656.87	38012.64
657.01	37764.54
657.16	38295.85
657.30	38218.61
657.45	37848.80
657.59	38073.49
657.73	38445.64
657.88	38113.28
658.02	38026.68
658.16	38625.86
658.31	38401.17
658.45	38452.66
658.60	38363.72
658.74	38490.11
658.88	37830.08
659.03	38073.49
659.17	37902.64
659.31	37977.53
659.46	37373.67
659.60	37706.03
659.74	37167.71
659.89	37373.67
660.03	37565.60
660.17	37933.06
660.32	37757.52
660.46	37743.48
660.60	38078.18
660.74	37844.12
660.89	37457.93
661.03	37038.98
661.17	37474.32
661.32	37069.40
661.46	37673.26
661.60	36980.46
661.74	36921.95
661.89	36926.63
662.03	37036.64
662.17	37029.62
662.31	36896.20
662.46	36959.40
662.60	36767.48
662.74	36968.76
662.88	37015.57
663.03	36781.52
663.17	36233.83
663.31	36062.97
663.45	36666.83
663.60	36285.33
663.74	36346.18
663.88	36332.14
664.02	36425.76
664.17	36109.78
664.31	35885.09
664.45	36453.84
664.59	36044.25
664.73	36194.04
664.88	36133.19
665.02	35676.79
665.16	36116.81
665.30	36114.47
665.44	35440.39
665.59	35702.53
665.73	35466.14
665.87	35583.16
666.01	35967.01
666.15	35323.36
666.29	35637.00
666.44	35243.79
666.58	35295.28
666.72	35534.01
666.86	35377.20
667.00	35428.69
667.14	35288.26
667.28	34967.60
667.43	34827.17
667.57	34986.33
667.71	35236.77
667.85	34960.58
667.99	34511.20
668.13	34759.30
668.27	34550.99
668.41	34845.90
668.56	34754.61
668.70	34623.54
668.84	34541.63
668.98	34277.15
669.12	34548.65
669.26	34689.08
669.40	34155.44
669.54	34691.42
669.68	34314.59
669.82	34057.14
669.96	34209.27
670.10	33724.78
670.25	34012.66
670.39	34031.39
670.53	33450.94
670.67	33628.82
670.81	33799.68
670.95	33825.42
671.09	33785.63
671.23	33659.24
671.37	33666.27
671.51	33411.15
671.65	33582.01
671.79	33322.21
671.93	33579.67
672.07	33420.51
672.21	33099.86
672.35	32900.91
672.49	32781.54
672.63	33046.02
672.77	33113.90
672.91	33024.96
673.05	32776.86
673.19	32575.58
673.33	32847.08
673.47	32360.25
673.61	32341.52
673.75	31981.08
673.89	32095.77
674.03	32053.64
674.17	31995.12
674.31	31786.82
674.45	32121.51
674.59	32311.10
674.73	32432.80
674.87	32046.62
675.01	32037.25
675.15	31924.91
675.29	31646.38
675.43	31690.85
675.56	31578.51
675.70	31426.37
675.84	31276.58
675.98	30256.11
676.12	31419.35
676.26	31161.89
676.40	31269.56
676.54	30754.64
676.68	30981.67
676.82	30441.01
676.96	30740.60
677.10	30478.46
677.23	30618.89
677.37	30654.00
677.51	30359.09
677.65	30520.59
677.79	30019.71
677.93	30075.88
678.07	30085.25
678.21	29860.55
678.34	29699.06
678.48	29617.14
678.62	29448.62
678.76	29359.68
678.90	29158.39
679.04	29413.51
679.18	29631.18
679.31	29172.44
679.45	28793.27
679.59	28947.75
679.73	28776.89
679.87	29078.82
680.00	29177.12
680.14	28594.32
680.28	28425.81
680.42	28694.97
680.56	28486.66
680.70	28133.24
680.83	28360.27
680.97	28222.18
681.11	27997.49
681.25	27688.54
681.39	27885.14
681.52	28051.32
681.66	27693.22
681.80	27754.07
681.94	27548.11
682.07	27211.07
682.21	27140.85
682.35	27171.28
682.49	27297.67
682.62	27484.91
682.76	26878.71
682.90	26925.52
683.04	26958.29
683.17	26614.23
683.31	26820.20
683.45	26635.30
683.59	26394.22
683.72	26256.13
683.86	26143.78
684.00	26216.34
684.13	26405.92
684.27	26263.15
684.41	25982.29
684.55	25626.53
684.68	25610.14
684.82	25558.65
684.96	25668.66
685.09	25486.09
685.23	25317.57
685.37	25090.54
685.50	25605.46
685.64	25226.29
685.78	25130.33
685.91	25067.14
686.05	25137.35
686.19	24409.45
686.32	24648.18
686.46	24507.75
686.60	23899.21
686.73	23686.22
686.87	23791.55
687.01	23515.36
687.14	23690.90
687.28	23468.55
687.42	23974.11
687.55	23711.97
687.69	23693.24
687.82	23527.06
687.96	23510.68
688.10	23065.98
688.23	23391.31
688.37	23290.67
688.50	22888.10
688.64	22848.31
688.78	22726.60
688.91	22939.59
689.05	22586.17
689.18	22607.23
689.32	22101.68
689.46	22574.47
689.59	22628.30
689.73	22553.40
689.86	22342.75
690.00	22576.81
690.13	22490.21
690.27	21984.65
690.41	22089.98
690.54	21963.59
690.68	21867.63
690.81	21841.88
690.95	21898.05
691.08	21530.59
691.22	21483.78
691.35	21497.82
691.49	21675.70
691.62	21626.55
691.76	21366.75
691.89	21738.90
692.03	21443.99
692.16	21109.29
692.30	21137.38
692.43	21008.65
692.57	20903.32
692.70	20765.23
692.84	20807.36
692.97	20531.18
693.11	20245.63
693.24	20294.79
693.38	20255.00
693.51	20194.14
693.65	20372.02
693.78	20402.45
693.92	19927.32
694.05	19756.46
694.19	19473.26
694.32	20063.07
694.45	19740.08
694.59	19737.74
694.72	19601.99
694.86	19386.66
694.99	18862.38
695.13	19194.73
695.26	18932.59
695.39	19056.64
695.53	19002.81
695.66	19161.97
695.80	18885.78
695.93	18614.28
696.07	18490.23
696.20	18607.26
696.33	18766.42
696.47	18417.68
696.60	18588.53
696.73	18513.64
696.87	18539.38
697.00	18553.43
697.14	18251.50
697.27	17858.29
697.40	18071.28
697.54	17933.18
697.67	17942.55
697.80	17989.36
697.94	17666.36
698.07	17570.40
698.21	17577.42
698.34	17425.29
698.47	17263.79
698.61	17376.14
698.74	17205.28
698.87	17153.79
699.01	16943.14
699.14	16989.95
699.27	16950.16
699.40	17151.45
699.54	16926.75
699.67	16685.68
699.80	16556.95
699.94	16657.59
700.07	16381.41
700.20	16421.20
700.34	16177.78
700.47	16299.49
700.60	16278.43
700.73	16482.05
700.87	15946.07
701.00	15815.00
701.13	15815.00
701.26	15889.90
701.40	15901.60
701.53	15758.83
701.66	15513.07
701.79	15721.38
701.93	15492.01
702.06	15391.36
702.19	15169.01
702.32	15213.48
702.46	15328.17
702.59	15108.16
702.72	15199.44
702.85	15068.37
702.99	15122.20
703.12	15030.92
703.25	14951.34
703.38	15126.88
703.51	14682.18
703.65	14864.74
703.78	14614.30
703.91	14494.94
704.04	14618.99
704.17	14394.29
704.31	14188.33
704.44	14235.14
704.57	14129.81
704.70	14195.35
704.83	14118.11
704.96	14202.37
705.10	14209.39
705.23	14178.97
>>>>>End Processed Spectral Data<<<<<
