SpectraSuite Data File
++++++++++++++++++++++++++++++++++++
Date: Fri Oct 25 11:34:43 EDT 2013
User: price-jones
Dark Spectrum Present: No
Reference Spectrum Present: No
Number of Sampled Component Spectra: 1
Spectrometers: USB2+H05261
Integration Time (usec): 100000 (USB2+H05261)
Spectra Averaged: 1 (USB2+H05261)
Boxcar Smoothing: 0 (USB2+H05261)
Correct for Electrical Dark: No (USB2+H05261)
Strobe/Lamp Enabled: No (USB2+H05261)
Correct for Detector Non-linearity: No (USB2+H05261)
Correct for Stray Light: No (USB2+H05261)
Number of Pixels in Processed Spectrum: 2048
>>>>>Begin Processed Spectral Data<<<<<
365.73	234.05
365.92	234.05
366.12	234.05
366.32	173.20
366.52	208.31
366.72	220.01
366.91	196.60
367.11	238.73
367.31	140.43
367.51	163.84
367.70	173.20
367.90	212.99
368.10	208.31
368.30	194.26
368.49	149.79
368.69	154.48
368.89	168.52
369.09	187.24
369.28	215.33
369.48	184.90
369.68	250.44
369.87	241.08
370.07	224.69
370.27	341.72
370.47	271.50
370.66	418.96
370.86	486.83
371.06	554.71
371.25	571.09
371.45	519.60
371.65	603.86
371.84	484.49
372.04	535.98
372.24	620.24
372.44	613.22
372.63	582.79
372.83	589.82
373.03	521.94
373.22	552.37
373.42	578.11
373.62	603.86
373.81	624.92
374.01	606.20
374.21	596.84
374.40	589.82
374.60	566.41
374.79	653.01
374.99	631.94
375.19	664.71
375.38	688.12
375.58	589.82
375.78	660.03
375.97	624.92
376.17	615.56
376.37	671.73
376.56	629.60
376.76	711.52
376.95	636.63
377.15	667.05
377.35	711.52
377.54	697.48
377.74	690.46
377.93	695.14
378.13	641.31
378.33	634.29
378.52	676.41
378.72	709.18
378.91	674.07
379.11	753.65
379.31	734.93
379.50	725.57
379.70	678.76
379.89	657.69
380.09	662.37
380.28	716.20
380.48	774.72
380.68	734.93
380.87	704.50
381.07	692.80
381.26	681.10
381.46	734.93
381.65	795.78
381.85	744.29
382.04	828.55
382.24	795.78
382.43	734.93
382.63	711.52
382.83	713.86
383.02	734.93
383.22	755.99
383.41	716.20
383.61	856.64
383.80	858.98
384.00	767.70
384.19	737.27
384.39	772.38
384.58	695.14
384.78	788.76
384.97	781.74
385.17	791.10
385.36	770.04
385.56	744.29
385.75	741.95
385.95	781.74
386.14	896.43
386.34	819.19
386.53	833.23
386.72	802.80
386.92	873.02
387.11	851.96
387.31	828.55
387.50	788.76
387.70	802.80
387.89	931.53
388.09	891.74
388.28	858.98
388.48	861.32
388.67	936.21
388.86	861.32
389.06	889.40
389.25	877.70
389.45	924.51
389.64	959.62
389.84	891.74
390.03	971.32
390.22	896.43
390.42	847.27
390.61	903.45
390.81	882.38
391.00	973.66
391.19	894.08
391.39	1011.11
391.58	1015.79
391.78	1020.47
391.97	990.05
392.16	933.87
392.36	1025.15
392.55	1025.15
392.75	1011.11
392.94	992.39
393.13	1034.52
393.33	980.68
393.52	1125.80
393.71	1076.65
393.91	1069.62
394.10	1050.90
394.29	1057.92
394.49	924.51
394.68	1114.10
394.88	1015.79
395.07	1069.62
395.26	1142.18
395.46	1078.99
395.65	1107.07
395.84	1146.86
396.04	1137.50
396.23	1226.44
396.42	1179.63
396.62	1156.22
396.81	1259.21
397.00	1210.06
397.19	1160.91
397.39	1139.84
397.58	1191.33
397.77	1128.14
397.97	1203.04
398.16	1228.78
398.35	1247.51
398.55	1181.97
398.74	1282.61
398.93	1247.51
399.12	1329.42
399.32	1308.36
399.51	1287.29
399.70	1458.15
399.90	1345.81
400.09	1287.29
400.28	1329.42
400.47	1296.66
400.67	1301.34
400.86	1362.19
401.05	1373.89
401.24	1357.51
401.44	1317.72
401.63	1317.72
401.82	1411.34
402.01	1341.13
402.21	1401.98
402.40	1352.83
402.59	1392.62
402.78	1418.36
402.97	1284.95
403.17	1465.18
403.36	1432.41
403.55	1441.77
403.74	1425.39
403.93	1554.12
404.13	1469.86
404.32	1568.16
404.51	1570.50
404.70	1610.29
404.89	1511.99
405.09	1572.84
405.28	1591.56
405.47	1612.63
405.66	1717.95
405.85	1561.14
406.05	1621.99
406.24	1722.63
406.43	1701.57
406.62	1710.93
406.81	1753.06
407.00	1624.33
407.20	1748.38
407.39	1717.95
407.58	1799.87
407.77	1781.15
407.96	1813.92
408.15	1816.26
408.34	1788.17
408.54	1757.74
408.73	1905.20
408.92	1834.98
409.11	1874.77
409.30	1912.22
409.49	1926.26
409.68	1813.92
409.87	1870.09
410.07	1900.52
410.26	1980.09
410.45	1980.09
410.64	2008.18
410.83	2062.01
411.02	2029.24
411.21	2148.61
411.40	2108.82
411.59	2090.10
411.78	2078.40
411.98	2059.67
412.17	2235.21
412.36	2160.31
412.55	2221.17
412.74	2251.60
412.93	2256.28
413.12	2256.28
413.31	2244.57
413.50	2347.56
413.69	2312.45
413.88	2342.88
414.07	2338.20
414.26	2385.01
414.45	2356.92
414.64	2436.50
414.83	2443.52
415.02	2478.63
415.22	2492.67
415.41	2544.16
415.60	2513.74
415.79	2480.97
415.98	2616.72
416.17	2541.82
416.36	2621.40
416.55	2623.74
416.74	2700.98
416.93	2710.34
417.12	2682.25
417.31	2733.75
417.50	2665.87
417.69	2867.16
417.88	2752.47
418.07	2738.43
418.26	2806.30
418.45	2839.07
418.64	2913.97
418.83	2871.84
419.02	2902.26
419.21	2920.99
419.39	3019.29
419.58	2944.39
419.77	2995.89
419.96	2956.10
420.15	2956.10
420.34	3014.61
420.53	2988.86
420.72	3023.97
420.91	3075.46
421.10	3089.51
421.29	3049.72
421.48	2949.08
421.67	3129.30
421.86	2995.89
422.05	3241.64
422.24	3124.62
422.43	3150.36
422.61	3269.73
422.80	3267.39
422.99	3173.77
423.18	3119.93
423.37	3199.51
423.56	3187.81
423.75	3269.73
423.94	3143.34
424.13	2977.16
424.32	3098.87
424.50	3318.88
424.69	3325.90
424.88	3241.64
425.07	3251.00
425.26	3260.37
425.45	3274.41
425.64	3290.79
425.83	3265.05
426.01	3232.28
426.20	3169.09
426.39	3276.75
426.58	3255.69
426.77	3297.81
426.96	3407.82
427.15	3337.60
427.33	3454.63
427.52	3417.18
427.71	3466.33
427.90	3426.54
428.09	3487.40
428.28	3534.21
428.46	3473.36
428.65	3602.08
428.84	3637.19
429.03	3630.17
429.22	3534.21
429.40	3478.04
429.59	3475.70
429.78	3405.48
429.97	3475.70
430.16	3517.83
430.34	3616.13
430.53	3669.96
430.72	3623.15
430.91	3684.00
431.10	3639.53
431.28	3791.67
431.47	3599.74
431.66	3845.50
431.85	3819.75
432.03	3786.99
432.22	3868.91
432.41	3934.44
432.60	3854.86
432.79	3969.55
432.97	3864.22
433.16	3936.78
433.35	3833.80
433.54	3932.10
433.72	3796.35
433.91	3948.48
434.10	4039.76
434.28	3953.16
434.47	4009.34
434.66	4168.49
434.85	4091.26
435.03	4072.53
435.22	4198.92
435.41	4236.37
435.59	4187.22
435.78	4212.96
435.97	4299.56
436.16	4175.52
436.34	4297.22
436.53	4271.48
436.72	4395.53
436.90	4212.96
437.09	4374.46
437.28	4224.67
437.46	4348.72
437.65	4407.23
437.84	4601.49
438.02	4297.22
438.21	4390.84
438.40	4212.96
438.58	4477.44
438.77	4498.51
438.96	4465.74
439.14	4505.53
439.33	4723.20
439.52	4552.34
439.70	4517.23
439.89	4805.12
440.08	4887.04
440.26	4643.62
440.45	4695.11
440.63	4751.29
440.82	4933.85
441.01	4896.40
441.19	4922.15
441.38	5018.11
441.57	4990.02
441.75	4973.64
441.94	5036.83
442.12	5041.51
442.31	5146.84
442.50	5142.16
442.68	5114.07
442.87	5001.72
443.05	5210.03
443.24	5320.04
443.43	5350.46
443.61	5282.59
443.80	5338.76
443.98	5191.31
444.17	4894.06
444.35	5376.21
444.54	5313.02
444.73	5263.86
444.91	5296.63
445.10	5334.08
445.28	5259.18
445.47	5406.64
445.65	5331.74
445.84	5317.70
446.02	5399.62
446.21	5259.18
446.39	5362.17
446.58	5390.25
446.77	5469.83
446.95	5179.61
447.14	5465.15
447.32	5423.02
447.51	5488.56
447.69	5385.57
447.88	5530.69
448.06	5518.98
448.25	5465.15
448.43	5453.45
448.62	5434.72
448.80	5558.77
448.99	5570.48
449.17	5746.02
449.36	5570.48
449.54	5657.07
449.73	5748.36
449.91	5640.69
450.10	5788.14
450.28	5834.96
450.46	5832.62
450.65	5923.90
450.83	5874.74
451.02	5790.49
451.20	5825.59
451.39	5696.86
451.57	6019.86
451.76	5713.25
451.94	5872.40
452.13	5902.83
452.31	6010.50
452.49	5877.09
452.68	5905.17
452.86	5916.87
453.05	6181.35
453.23	6141.57
453.42	6080.71
453.60	6094.76
453.78	6073.69
453.97	6139.23
454.15	6010.50
454.34	5975.39
454.52	6431.79
454.70	6211.78
454.89	6204.76
455.07	6200.08
455.26	6265.61
455.44	6384.98
455.62	6162.63
455.81	6321.79
455.99	6225.82
456.17	6382.64
456.36	6457.54
456.54	6389.66
456.73	6754.79
456.91	6771.17
457.09	6654.14
457.28	6944.37
457.46	6565.20
457.64	6562.86
457.83	6752.45
458.01	6710.32
458.19	6719.68
458.38	6825.00
458.56	6834.36
458.74	6703.29
458.93	6993.52
459.11	7002.88
459.29	6829.68
459.48	6796.92
459.66	6848.41
459.84	6981.82
460.03	7105.87
460.21	6874.15
460.39	6883.52
460.57	6864.79
460.76	7049.69
460.94	6977.14
461.12	7211.19
461.31	7037.99
461.49	6949.05
461.67	6986.50
461.85	7162.04
462.04	7166.72
462.22	7222.89
462.40	7309.49
462.59	7171.40
462.77	7302.47
462.95	7454.61
463.13	7272.04
463.32	7534.18
463.50	7531.84
463.68	7496.74
463.86	7606.74
464.05	7342.26
464.23	7377.37
464.41	7485.03
464.59	7414.82
464.78	7742.49
464.96	7485.03
465.14	7405.46
465.32	7578.65
465.50	7728.45
465.69	7721.43
465.87	7470.99
466.05	7658.23
466.23	7744.83
466.41	7831.43
466.60	7866.54
466.78	7674.62
466.96	7768.24
467.14	7705.04
467.32	7660.57
467.51	8039.74
467.69	7648.87
467.87	7756.54
468.05	7875.90
468.23	8009.31
468.41	7901.65
468.60	7943.78
468.78	8023.36
468.96	7882.92
469.14	7929.74
469.32	8241.03
469.50	7953.14
469.69	8264.43
469.87	8161.45
470.05	8257.41
470.23	8215.28
470.41	8416.57
470.59	8456.36
470.77	8439.97
470.95	8482.10
471.14	8592.11
471.32	8306.56
471.50	8589.77
471.68	8678.71
471.86	8798.07
472.04	8802.75
472.22	8678.71
472.40	8470.40
472.58	8528.91
472.77	8879.99
472.95	8779.35
473.13	9097.66
473.31	8994.68
473.49	8894.04
473.67	8919.78
473.85	8990.00
474.03	9144.47
474.21	9200.65
474.39	9221.71
474.57	9195.96
474.75	9296.61
474.93	9334.06
475.12	9530.66
475.30	9430.02
475.48	9371.50
475.66	9390.23
475.84	9481.51
476.02	9610.24
476.20	9699.18
476.38	9720.24
476.56	10003.45
476.74	10132.18
476.92	9797.48
477.10	9898.13
477.28	9914.51
477.46	10029.20
477.64	10200.05
477.82	10289.00
478.00	10745.40
478.18	10485.60
478.36	10548.79
478.54	10771.15
478.72	10609.65
478.90	10731.36
479.08	11260.32
479.26	10956.05
479.44	10775.83
479.62	11136.27
479.80	11370.32
479.98	11321.17
480.16	11552.88
480.34	11435.86
480.52	11857.15
480.70	11501.39
480.88	11473.31
481.06	11822.05
481.24	11892.26
481.41	11770.55
481.59	12074.82
481.77	12063.12
481.95	12329.94
482.13	12203.55
482.31	12109.93
482.49	12545.27
482.67	12538.25
482.85	12681.02
483.03	12767.62
483.21	12959.55
483.39	12933.80
483.57	12772.30
483.74	13205.30
483.92	13046.15
484.10	13004.02
484.28	13446.38
484.46	13642.98
484.64	13760.01
484.82	13610.22
485.00	13783.41
485.18	14059.60
485.35	14162.58
485.53	14265.57
485.71	14073.64
485.89	14562.81
486.07	14389.61
486.25	14162.58
486.43	14492.60
486.61	14696.22
486.78	15147.95
486.96	14977.09
487.14	15077.73
487.32	15253.27
487.50	15309.44
487.68	15393.70
487.85	15506.05
488.03	15845.43
488.21	16013.95
488.39	15822.02
488.57	16236.30
488.75	16177.78
488.92	16374.39
489.10	16390.77
489.28	16627.17
489.46	16690.36
489.64	16622.48
489.81	17163.15
489.99	17001.65
490.17	17317.62
490.35	17322.30
490.53	17448.69
490.70	17476.78
490.88	17408.90
491.06	17703.81
491.24	18087.66
491.41	18113.41
491.59	18068.94
491.77	17844.24
491.95	18003.40
492.13	18310.01
492.30	18609.60
492.48	18476.19
492.66	18946.64
492.84	18822.59
493.01	18951.32
493.19	18745.35
493.37	19452.19
493.54	19569.22
493.72	19396.02
493.90	19370.27
494.08	19501.34
494.25	19716.67
494.43	19625.39
494.61	19967.11
494.79	19639.44
494.96	20133.29
495.14	20240.95
495.32	20304.15
495.49	20177.76
495.67	20414.15
495.85	20601.40
496.02	21018.01
496.20	20802.68
496.38	21153.76
496.55	21170.15
496.73	21392.50
496.91	21394.84
497.09	21432.29
497.26	21628.89
497.44	21415.90
497.62	21593.78
497.79	21954.22
497.97	22085.30
498.14	22237.43
498.32	22281.90
498.50	22396.59
498.67	22532.34
498.85	22548.72
499.03	22665.75
499.20	22852.99
499.38	22991.08
499.56	22724.26
499.73	22955.97
499.91	23164.28
500.08	23220.45
500.26	23147.90
500.44	23278.97
500.61	23232.16
500.79	23239.18
500.97	23772.82
501.14	23819.63
501.32	24168.37
501.49	24011.56
501.67	23740.05
501.84	23915.59
502.02	23887.51
502.20	24133.26
502.37	24266.67
502.55	23927.30
502.72	24407.11
502.90	24467.96
503.07	24489.03
503.25	24786.27
503.43	24650.52
503.60	24840.11
503.78	25106.93
503.95	25083.52
504.13	25003.94
504.30	24655.20
504.48	24725.42
504.65	25172.46
504.83	25441.62
505.01	25390.13
505.18	25404.17
505.36	25963.56
505.53	25678.02
505.71	26059.52
505.88	25982.29
506.06	25848.88
506.23	25933.14
506.41	25743.55
506.58	26228.04
506.76	26115.70
506.93	26593.17
507.11	26249.11
507.28	26513.59
507.46	26300.60
507.63	26394.22
507.81	26684.45
507.98	26593.17
508.16	26632.96
508.33	26864.67
508.50	27300.01
508.68	26948.93
508.85	27428.74
509.03	27030.85
509.20	27309.37
509.38	27475.55
509.55	27683.86
509.73	27735.35
509.90	27613.64
510.08	27662.79
510.25	27775.14
510.42	27779.82
510.60	28114.52
510.77	28238.56
510.95	28318.14
511.12	28130.90
511.30	28278.35
511.47	28465.60
511.64	28229.20
511.82	28056.00
511.99	28341.55
512.17	28341.55
512.34	28559.22
512.51	29055.41
512.69	29275.42
512.86	29179.46
513.04	29158.39
513.21	29172.44
513.38	29223.93
513.56	29076.48
513.73	29259.04
513.90	29565.65
514.08	29673.31
514.25	29560.97
514.43	29659.27
514.60	29720.12
514.77	30045.46
514.95	29914.39
515.12	29680.33
515.29	29853.53
515.47	29762.25
515.64	30209.29
515.81	29977.58
515.99	30022.05
516.16	30389.52
516.33	30569.74
516.51	30628.25
516.68	30663.36
516.85	30368.45
517.03	30822.51
517.20	30897.41
517.37	30546.33
517.54	31065.93
517.72	31299.98
517.89	30775.70
518.06	31129.12
518.24	31014.44
518.41	30909.11
518.58	30735.92
518.75	30686.76
518.93	31646.38
519.10	31220.41
519.27	31775.11
519.45	31208.70
519.62	31213.38
519.79	31519.99
519.96	32025.55
520.14	31866.39
520.31	32247.90
520.48	31779.79
520.65	31768.09
520.83	32470.25
521.00	32294.71
521.17	32084.06
521.34	32203.43
521.52	32718.35
521.69	32430.46
521.86	32655.15
522.03	32573.24
522.20	32854.10
522.38	33102.20
522.55	33251.99
522.72	33111.56
522.89	33050.70
523.07	32947.72
523.24	33289.44
523.41	33228.59
523.58	32680.90
523.75	33745.84
523.92	33364.34
524.10	33670.95
524.27	33635.84
524.44	33312.84
524.61	33670.95
524.78	33582.01
524.96	34015.01
525.13	33895.64
525.30	34244.38
525.47	34235.02
525.64	33947.13
525.81	34183.52
525.98	34204.59
526.16	33837.12
526.33	34284.17
526.50	34457.37
526.67	34101.61
526.84	34064.16
527.01	34693.76
527.18	34700.78
527.36	34628.23
527.53	34230.33
527.70	35337.41
527.87	34803.77
528.04	34787.38
528.21	34923.13
528.38	35192.30
528.55	35086.97
528.72	35040.16
528.89	35290.60
529.07	35225.06
529.24	35101.01
529.41	35168.89
529.58	35044.84
529.75	35136.12
529.92	35508.27
530.09	35140.80
530.26	35480.18
530.43	35936.59
530.60	35157.19
530.77	35768.07
530.94	35271.87
531.11	35634.66
531.28	35629.98
531.46	35571.46
531.63	35590.19
531.80	35768.07
531.97	36563.85
532.14	35826.58
532.31	35805.52
532.48	36538.10
532.65	36254.90
532.82	36259.58
532.99	36605.98
533.16	36051.27
533.33	36692.58
533.50	36786.20
533.67	36690.24
533.84	36622.36
534.01	36355.54
534.18	36678.54
534.35	37048.34
534.52	37474.32
534.69	36889.18
534.86	37158.34
535.03	36657.47
535.20	37013.23
535.37	36891.52
535.54	37249.63
535.71	37226.22
535.88	37186.43
536.05	37249.63
536.22	37521.13
536.38	37125.58
536.55	37631.13
536.72	37427.51
536.89	37436.87
537.06	37577.30
537.23	37448.57
537.40	37331.54
537.57	37593.68
537.74	37268.35
537.91	37970.51
538.08	37940.08
538.25	37834.76
538.42	37666.24
538.59	38204.56
538.75	37811.35
538.92	38298.19
539.09	38010.30
539.26	38017.32
539.43	37886.25
539.60	38099.24
539.77	38155.41
539.94	38588.41
540.11	38703.10
540.28	38672.67
540.44	38265.42
540.61	38251.38
540.78	38424.57
540.95	38543.94
541.12	38031.36
541.29	38459.68
541.46	38574.37
541.62	38843.53
541.79	39009.71
541.96	38466.70
542.13	38286.48
542.30	38188.18
542.47	39157.16
542.63	39384.19
542.80	39091.63
542.97	39363.13
543.14	39456.75
543.31	39288.23
543.48	39536.33
543.64	39718.89
543.81	39878.05
543.98	39683.78
544.15	39981.03
544.32	39543.35
544.48	39894.43
544.65	39831.24
544.82	39992.73
544.99	39592.50
545.16	39669.74
545.32	40046.57
545.49	40397.65
545.66	40158.91
545.83	39997.41
546.00	40254.87
546.16	40006.78
546.33	40421.05
546.50	39636.97
546.67	40430.41
546.83	39770.38
547.00	40376.58
547.17	39864.00
547.34	40243.17
547.50	40627.02
547.67	40744.05
547.84	40837.67
548.00	40620.00
548.17	40950.01
548.34	40374.24
548.51	40730.00
548.67	40641.06
548.84	41153.64
549.01	40526.38
549.18	40896.18
549.34	40746.39
549.51	40884.48
549.68	40968.74
549.84	40891.50
550.01	41109.17
550.18	40748.73
550.34	41254.28
550.51	41619.41
550.68	41212.15
550.84	41003.85
551.01	41095.13
551.18	41535.15
551.34	40732.34
551.51	41287.05
551.68	41471.95
551.84	41233.22
552.01	41598.34
552.18	41612.38
552.34	41193.43
552.51	41546.85
552.68	41141.94
552.84	41404.08
553.01	41855.80
553.18	41537.49
553.34	41450.89
553.51	41317.48
553.67	42141.35
553.84	41525.78
554.01	41972.83
554.17	41773.88
554.34	41837.08
554.51	42012.62
554.67	42595.41
554.84	42087.51
555.00	41581.96
555.17	42019.64
555.33	42660.94
555.50	42511.15
555.67	42281.78
555.83	41872.18
556.00	42555.62
556.16	42733.50
556.33	41982.19
556.50	42649.24
556.66	42405.83
556.83	42405.83
556.99	42649.24
557.16	42424.55
557.32	42623.50
557.49	41975.17
557.65	42586.05
557.82	42363.70
557.98	42593.07
558.15	42157.73
558.32	42990.96
558.48	42382.42
558.65	42787.33
558.81	42841.17
558.98	42913.72
559.14	42766.27
559.31	42782.65
559.47	42473.70
559.64	42155.39
559.80	42806.06
559.97	43005.00
560.13	42445.62
560.30	42705.41
560.46	43342.04
560.63	43461.41
560.79	43150.12
560.96	43381.83
561.12	43201.61
561.29	42834.14
561.45	43180.54
561.61	43182.88
561.78	42979.26
561.94	43285.87
562.11	43026.07
562.27	43416.94
562.44	43075.22
562.60	43241.40
562.77	43480.13
562.93	42885.64
563.10	43880.36
563.26	43047.13
563.42	43681.42
563.59	43477.79
563.75	42895.00
563.92	43309.27
564.08	43543.33
564.24	43564.39
564.41	43768.02
564.57	43615.88
564.74	43063.52
564.90	42997.98
565.07	43304.59
565.23	43412.26
565.39	43407.58
565.56	43894.41
565.72	43580.78
565.88	43564.39
566.05	43423.96
566.21	43819.51
566.38	43770.36
566.54	43878.02
566.70	43728.23
566.87	44161.23
567.03	43473.11
567.19	43416.94
567.36	43803.13
567.52	43590.14
567.68	43742.27
567.85	43789.08
568.01	44037.18
568.17	43625.25
568.34	44098.03
568.50	44053.56
568.66	43969.30
568.83	43981.01
568.99	44107.40
569.15	44133.14
569.32	44067.61
569.48	43730.57
569.64	44397.62
569.81	44261.87
569.97	44304.00
570.13	44350.81
570.30	43552.69
570.46	43842.92
570.62	43934.20
570.78	43878.02
570.95	44004.41
571.11	44397.62
571.27	44065.27
571.43	44083.99
571.60	44114.42
571.76	43969.30
571.92	44222.08
572.09	43995.05
572.25	43730.57
572.41	43892.07
572.57	44233.78
572.74	44538.05
572.90	43854.62
573.06	44282.94
573.22	44531.03
573.38	44629.34
573.55	44308.68
573.71	44287.62
573.87	44067.61
574.03	44105.06
574.20	44610.61
574.36	44612.95
574.52	44325.07
574.68	44287.62
574.84	44671.46
575.01	44741.68
575.17	44484.22
575.33	44584.86
575.49	44271.23
575.65	44767.43
575.82	44348.47
575.98	44304.00
576.14	44856.37
576.30	44406.98
576.46	44648.06
576.62	44374.22
576.79	44755.72
576.95	44521.67
577.11	44566.14
577.27	44147.18
577.43	44348.47
577.59	43931.86
577.75	44278.25
577.92	44481.88
578.08	44416.35
578.24	44322.72
578.40	44839.98
578.56	44465.50
578.72	44643.38
578.88	44451.45
579.04	44467.84
579.21	44535.71
579.37	44921.90
579.53	44910.20
579.69	44671.46
579.85	44343.79
580.01	44467.84
580.17	44341.45
580.33	44664.44
580.49	44573.16
580.65	44650.40
580.82	44624.65
580.98	44175.27
581.14	44397.62
581.30	44823.60
581.46	44184.63
581.62	44584.86
581.78	44463.16
581.94	44788.49
582.10	44680.83
582.26	45315.11
582.42	44755.72
582.58	45064.67
582.74	44657.42
582.90	45024.89
583.06	45006.16
583.22	44275.91
583.38	44399.96
583.54	44748.70
583.70	44589.55
583.86	44793.17
584.02	44575.50
584.18	44666.78
584.34	44683.17
584.50	44985.10
584.66	45137.23
584.82	44720.62
584.98	45043.61
585.14	45177.02
585.30	44994.46
585.46	44746.36
585.62	44484.22
585.78	44762.75
585.94	44259.53
586.10	44554.44
586.26	44659.76
586.42	44767.43
586.58	44971.05
586.74	45076.38
586.90	44570.82
587.06	44566.14
587.22	45282.34
587.38	44758.06
587.54	45001.48
587.70	45001.48
587.86	45151.27
588.02	44514.65
588.18	44715.93
588.34	44629.34
588.49	45097.44
588.65	44313.36
588.81	45151.27
588.97	44676.15
589.13	44584.86
589.29	44353.15
589.45	44975.73
589.61	44921.90
589.77	45427.46
589.93	44912.54
590.08	45141.91
590.24	45441.50
590.40	45340.86
590.56	45476.61
590.72	45394.69
590.88	45179.36
591.04	45375.97
591.20	45308.09
591.35	45254.26
591.51	45317.45
591.67	45563.21
591.83	45614.70
591.99	45626.40
592.15	45167.66
592.31	45219.15
592.46	45123.19
592.62	45155.96
592.78	45628.74
592.94	45399.37
593.10	45216.81
593.26	45823.01
593.41	45551.51
593.57	45310.43
593.73	45867.48
593.89	45890.88
594.05	45645.13
594.20	45385.33
594.36	45668.53
594.52	45696.62
594.68	45626.40
594.84	45251.92
594.99	46078.13
595.15	45144.25
595.31	45429.80
595.47	45378.31
595.62	45567.89
595.78	45352.56
595.94	45425.12
596.10	45528.10
596.25	45720.02
596.41	45462.57
596.57	45261.28
596.73	45820.67
596.88	45439.16
597.04	45610.02
597.20	45694.28
597.36	45422.78
597.51	45425.12
597.67	45525.76
597.83	45460.23
597.99	45729.39
598.14	45270.64
598.30	45354.90
598.46	45326.81
598.61	45734.07
598.77	45776.20
598.93	45570.23
599.09	45724.71
599.24	46061.74
599.40	45834.71
599.56	45476.61
599.71	45902.59
599.87	46021.95
600.03	45961.10
600.18	45647.47
600.34	45633.42
600.50	45923.65
600.65	45715.34
600.81	45804.28
600.97	46036.00
601.12	46103.87
601.28	45900.25
601.44	45776.20
601.59	45801.94
601.75	45577.25
601.91	45776.20
602.06	45628.74
602.22	45368.94
602.37	45633.42
602.53	45925.99
602.69	45813.65
602.84	45551.51
603.00	45261.28
603.16	45727.05
603.31	45989.19
603.47	45532.78
603.62	45720.02
603.78	45713.00
603.94	45666.19
604.09	45497.67
604.25	45588.95
604.40	45567.89
604.56	45895.56
604.71	45675.55
604.87	45930.67
605.03	45464.91
605.18	45317.45
605.34	45443.84
605.49	45228.51
605.65	45474.27
605.80	45595.98
605.96	45291.71
606.12	45457.88
606.27	45397.03
606.43	45567.89
606.58	45825.35
606.74	45958.76
606.89	45272.98
607.05	45736.41
607.20	45436.82
607.36	45537.46
607.51	45518.74
607.67	45116.17
607.82	45483.63
607.98	45282.34
608.13	45085.74
608.29	45404.05
608.44	45593.64
608.60	45715.34
608.75	45350.22
608.91	45474.27
609.06	44985.10
609.22	45425.12
609.37	45429.80
609.53	45649.81
609.68	45647.47
609.84	45354.90
609.99	45317.45
610.15	45502.35
610.30	45448.52
610.46	45577.25
610.61	45160.64
610.76	45563.21
610.92	45141.91
611.07	45272.98
611.23	45064.67
611.38	45446.18
611.54	45511.72
611.69	45544.48
611.84	45462.57
612.00	45064.67
612.15	45125.53
612.31	44889.13
612.46	44744.02
612.62	44917.22
612.77	45057.65
612.92	45642.79
613.08	45116.17
613.23	45219.15
613.39	45347.88
613.54	44992.12
613.69	44980.42
613.85	45490.65
614.00	45254.26
614.15	45188.72
614.31	44701.89
614.46	44755.72
614.62	44800.19
614.77	45099.78
614.92	44938.29
615.08	44765.09
615.23	45352.56
615.38	45357.24
615.54	44645.72
615.69	45322.13
615.84	44755.72
616.00	45219.15
616.15	44769.77
616.30	45048.29
616.46	44474.86
616.61	44648.06
616.76	45155.96
616.92	44657.42
617.07	44996.80
617.22	44722.96
617.37	43999.73
617.53	44882.11
617.68	44516.99
617.83	44725.30
617.99	44847.00
618.14	45125.53
618.29	44222.08
618.45	44016.11
618.60	44423.37
618.75	44215.06
618.90	44156.55
619.06	44474.86
619.21	44470.18
619.36	44772.11
619.51	44208.04
619.67	43992.71
619.82	44395.28
619.97	44350.81
620.12	44264.21
620.28	44142.50
620.43	44645.72
620.58	44442.09
620.73	44105.06
620.89	44563.80
621.04	44451.45
621.19	44168.25
621.34	44425.71
621.49	44023.14
621.65	44332.09
621.80	44608.27
621.95	44273.57
622.10	44561.46
622.25	44212.72
622.41	43950.58
622.56	44013.77
622.71	43868.66
622.86	43943.56
623.01	44334.43
623.16	43529.28
623.32	44088.67
623.47	43800.79
623.62	44009.09
623.77	44098.03
623.92	43627.59
624.07	44105.06
624.23	44320.38
624.38	43894.41
624.53	43812.49
624.68	43971.64
624.83	43835.89
624.98	43707.16
625.13	43232.04
625.29	43253.10
625.44	43569.07
625.59	43552.69
625.74	43728.23
625.89	43395.87
626.04	43435.66
626.19	43349.06
626.34	43318.64
626.49	43150.12
626.65	43255.44
626.80	43236.72
626.95	43100.97
627.10	42864.57
627.25	42951.17
627.40	43753.97
627.55	43107.99
627.70	43246.08
627.85	43320.98
628.00	43281.19
628.15	43023.73
628.30	43133.73
628.45	42520.51
628.60	42660.94
628.76	42597.75
628.91	43173.52
629.06	42754.57
629.21	42871.59
629.36	42653.92
629.51	42644.56
629.66	43440.34
629.81	42906.70
629.96	42845.85
630.11	42391.78
630.26	42810.74
630.41	42841.17
630.56	42742.86
630.71	42974.58
630.86	42625.84
631.01	42525.19
631.16	42726.48
631.31	42373.06
631.46	42513.49
631.61	42670.31
631.76	42707.76
631.91	43042.45
632.06	43091.60
632.21	43030.75
632.36	42693.71
632.51	42398.80
632.66	42597.75
632.81	42220.92
632.96	42391.78
633.10	42054.75
633.25	42494.77
633.40	42307.52
633.55	42354.33
633.70	42274.76
633.85	41626.43
634.00	42045.38
634.15	42162.41
634.30	41942.40
634.45	42241.99
634.60	42087.51
634.75	42134.32
634.90	42148.37
635.05	42106.24
635.19	42106.24
635.34	41883.89
635.49	41806.65
635.64	42375.40
635.79	42029.00
635.94	41680.26
636.09	42148.37
636.24	41698.98
636.39	42010.28
636.53	42117.94
636.68	41888.57
636.83	41769.20
636.98	41670.90
637.13	41647.49
637.28	41853.46
637.43	41837.08
637.57	41834.74
637.72	41593.66
637.87	41488.34
638.02	41738.77
638.17	41673.24
638.32	41415.78
638.46	41174.70
638.61	41453.23
638.76	41090.44
638.91	41436.84
639.06	41041.29
639.20	41120.87
639.35	41146.62
639.50	40945.33
639.65	41191.09
639.80	41076.40
639.94	41848.78
640.09	41195.77
640.24	41265.99
640.39	40861.07
640.54	40776.81
640.68	40870.43
640.83	41151.30
640.98	41319.82
641.13	40835.33
641.27	41265.99
641.42	40957.03
641.57	40903.20
641.72	40751.07
641.86	41137.26
642.01	40921.93
642.16	40884.48
642.31	40231.47
642.45	40945.33
642.60	40645.74
642.75	40514.67
642.90	40870.43
643.04	40486.59
643.19	40411.69
643.34	40484.25
643.48	40353.18
643.63	40680.85
643.78	40437.44
643.93	40877.46
644.07	40512.33
644.22	40512.33
644.37	40844.69
644.51	40807.24
644.66	40669.15
644.81	40259.55
644.95	40542.76
645.10	40498.29
645.25	40250.19
645.39	40123.80
645.54	40348.50
645.69	39746.98
645.83	39959.97
645.98	40170.61
646.13	40037.20
646.27	39695.49
646.42	40353.18
646.57	39796.13
646.71	40044.23
646.86	39978.69
647.00	39915.50
647.15	40065.29
647.30	39957.63
647.44	39896.77
647.59	39856.98
647.74	40135.51
647.88	39840.60
648.03	40339.13
648.17	40151.89
648.32	39896.77
648.47	40093.38
648.61	39955.29
648.76	39604.20
648.90	39679.10
649.05	39852.30
649.20	40013.80
649.34	39838.26
649.49	40388.28
649.63	39620.59
649.78	39608.89
649.92	39608.89
650.07	40198.70
650.21	40194.02
650.36	39749.32
650.51	39367.81
650.65	39826.56
650.80	39981.03
650.94	39676.76
651.09	39358.45
651.23	39372.49
651.38	39428.66
651.52	39395.90
651.67	39248.44
651.81	39363.13
651.96	39543.35
652.10	38972.26
652.25	39166.52
652.39	39072.90
652.54	39218.02
652.68	39166.52
652.83	39278.87
652.97	39276.53
653.12	39047.16
653.26	38810.76
653.41	39335.04
653.55	39468.45
653.70	38979.28
653.84	39161.84
653.99	39138.44
654.13	39058.86
654.27	38848.21
654.42	38775.66
654.56	39072.90
654.71	38871.62
654.85	38934.81
655.00	38522.88
655.14	38855.23
655.29	39295.25
655.43	38462.02
655.57	38443.30
655.72	38302.87
655.86	38705.44
656.01	38623.52
656.15	38349.68
656.30	38646.93
656.44	38600.12
656.58	38602.46
656.73	38424.57
656.87	38036.05
657.01	37806.67
657.16	38108.60
657.30	38656.29
657.45	38663.31
657.59	38218.61
657.73	38183.50
657.88	38485.43
658.02	38494.79
658.16	38197.54
658.31	38548.62
658.45	38162.43
658.60	37855.82
658.74	38293.50
658.88	37890.93
659.03	37816.04
659.17	37727.10
659.31	38007.96
659.46	37769.22
659.60	38005.62
659.74	37764.54
659.89	37127.92
660.03	37401.76
660.17	38242.01
660.32	37860.51
660.46	37860.51
660.60	37570.28
660.74	37462.61
660.89	37479.00
661.03	37270.69
661.17	37034.30
661.32	37074.09
661.46	37263.67
661.60	36655.13
661.74	37055.36
661.89	37354.95
662.03	37315.16
662.17	37057.70
662.31	36961.74
662.46	37036.64
662.60	36980.46
662.74	36807.26
662.88	36236.17
663.03	36353.20
663.17	36734.71
663.31	36229.15
663.45	36762.79
663.60	36856.42
663.74	36315.75
663.88	36554.49
664.02	36343.84
664.17	36479.59
664.31	36032.55
664.45	36016.16
664.59	36259.58
664.73	35976.37
664.88	36074.68
665.02	35672.10
665.16	36093.40
665.30	36095.74
665.44	35920.20
665.59	35431.03
665.73	35241.45
665.87	35522.31
666.01	36032.55
666.15	35999.78
666.29	35585.50
666.44	35651.04
666.58	35557.42
666.72	35409.96
666.86	35756.36
667.00	35250.81
667.14	34927.81
667.28	34946.54
667.43	35075.27
667.57	35316.34
667.71	35339.75
667.85	35613.59
667.99	35016.75
668.13	35033.14
668.27	34391.83
668.41	34995.69
668.56	34574.39
668.70	34616.52
668.84	34202.25
668.98	34529.92
669.12	34448.00
669.26	34494.82
669.40	34373.11
669.54	34291.19
669.68	34649.29
669.82	34122.67
669.96	34047.77
670.10	34096.92
670.25	33741.16
670.39	33769.25
670.53	34040.75
670.67	33928.41
670.81	33734.14
670.95	33862.87
671.09	33921.38
671.23	33699.03
671.37	33523.49
671.51	33120.92
671.65	33078.79
671.79	33724.78
671.93	33514.13
672.07	33284.76
672.21	33036.66
672.35	33106.88
672.49	32833.04
672.63	32865.80
672.77	32989.85
672.91	33076.45
673.05	32584.94
673.19	32217.47
673.33	32634.09
673.47	32149.60
673.61	31842.99
673.75	32063.00
673.89	31594.89
674.03	32467.91
674.17	32070.02
674.31	32098.11
674.45	31761.07
674.59	31779.79
674.73	31541.06
674.87	31564.46
675.01	31573.83
675.15	31044.87
675.29	31257.85
675.43	31637.02
675.56	31358.50
675.70	31461.48
675.84	31243.81
675.98	30110.99
676.12	31133.81
676.26	31204.02
676.40	30764.00
676.54	30497.18
676.68	30649.32
676.82	30223.34
676.96	30368.45
677.10	30745.28
677.23	30394.20
677.37	30370.79
677.51	30258.45
677.65	30293.55
677.79	29710.76
677.93	29797.36
678.07	29755.23
678.21	29895.66
678.34	29633.52
678.48	29427.56
678.62	29036.69
678.76	29486.07
678.90	28929.02
679.04	29216.91
679.18	29462.66
679.31	29083.50
679.45	28959.45
679.59	28603.69
679.73	28975.83
679.87	28774.55
680.00	28369.63
680.14	28596.67
680.28	28650.50
680.42	28414.10
680.56	28114.52
680.70	28116.86
680.83	27634.71
680.97	28091.11
681.11	27800.88
681.25	27960.04
681.39	27529.38
681.52	27854.72
681.66	27213.41
681.80	26764.03
681.94	27080.00
682.07	26813.18
682.21	26946.59
682.35	26780.41
682.49	27159.58
682.62	26677.43
682.76	26780.41
682.90	26347.41
683.04	26438.69
683.17	26111.02
683.31	26258.47
683.45	26216.34
683.59	25811.43
683.72	25961.22
683.86	25434.60
684.00	26052.50
684.13	25970.58
684.27	25773.98
684.41	25771.64
684.55	25642.91
684.68	25837.17
684.82	25408.86
684.96	25223.95
685.09	25303.53
685.23	25348.00
685.37	25252.04
685.50	24980.54
685.64	24938.41
685.78	24842.45
685.91	24629.46
686.05	24355.61
686.19	23908.57
686.32	24041.98
686.46	23992.83
686.60	23723.67
686.73	23962.40
686.87	23927.30
687.01	24287.74
687.14	24116.88
687.28	23747.08
687.42	23461.53
687.55	23435.78
687.69	23229.82
687.82	23534.09
687.96	23555.15
688.10	23297.69
688.23	23080.02
688.37	23379.61
688.50	23302.37
688.64	23274.29
688.78	23028.53
688.91	22691.49
689.05	22579.15
689.18	22391.91
689.32	22050.19
689.46	21963.59
689.59	22270.20
689.73	22258.49
689.86	22237.43
690.00	21848.90
690.13	21891.03
690.27	21729.53
690.41	21860.60
690.54	21617.19
690.68	21727.19
690.81	21605.49
690.95	21488.46
691.08	21109.29
691.22	21425.26
691.35	20837.79
691.49	21383.13
691.62	20744.17
691.76	20985.24
691.89	20666.93
692.03	20577.99
692.16	20325.21
692.30	20449.26
692.43	20299.47
692.57	20350.96
692.70	20091.16
692.84	20156.69
692.97	20212.87
693.11	19807.95
693.24	19896.89
693.38	19594.96
693.51	19936.68
693.65	19660.50
693.78	19330.48
693.92	19386.66
694.05	19538.79
694.19	19208.78
694.32	19276.65
694.45	19302.40
694.59	19557.52
694.72	19442.83
694.86	19019.19
694.99	19012.17
695.13	18420.02
695.26	18565.13
695.39	18307.67
695.53	18513.64
695.66	18625.98
695.80	17994.04
695.93	18326.39
696.07	17811.48
696.20	17818.50
696.33	17781.05
696.47	17668.70
696.60	17881.69
696.73	17841.90
696.87	17710.83
697.00	17804.46
697.14	17472.10
697.27	17596.15
697.40	17280.18
697.54	17460.40
697.67	17121.02
697.80	17018.04
697.94	17177.19
698.07	17022.72
698.21	16816.75
698.34	16737.17
698.47	16798.02
698.61	16561.63
698.74	16428.22
698.87	16444.60
699.01	16334.60
699.14	16362.69
699.27	16252.68
699.40	16280.77
699.54	15838.41
699.67	16023.31
699.80	15932.03
699.94	15967.13
700.07	15571.58
700.20	15784.57
700.34	15562.22
700.47	15690.95
700.60	15513.07
700.73	15438.17
700.87	15372.64
701.00	15229.87
701.13	15009.86
701.26	15014.54
701.40	15035.60
701.53	15110.50
701.66	14710.27
701.79	14689.20
701.93	14520.68
702.06	14782.82
702.19	14581.54
702.32	14902.19
702.46	14932.62
702.59	14403.66
702.72	14480.89
702.85	14483.24
702.99	14590.90
703.12	14328.76
703.25	14022.15
703.38	14181.31
703.51	14127.47
703.65	14008.11
703.78	13535.32
703.91	13699.16
704.04	13682.77
704.17	13107.00
704.31	13303.60
704.44	13528.30
704.57	13516.59
704.70	13532.98
704.83	13128.06
704.96	13067.21
705.10	13156.15
705.23	13177.22
>>>>>End Processed Spectral Data<<<<<
