SpectraSuite Data File
++++++++++++++++++++++++++++++++++++
Date: Fri Oct 25 10:47:35 EDT 2013
User: price-jones
Dark Spectrum Present: No
Reference Spectrum Present: No
Number of Sampled Component Spectra: 1
Spectrometers: USB2+H05261
Integration Time (usec): 100000 (USB2+H05261)
Spectra Averaged: 1 (USB2+H05261)
Boxcar Smoothing: 0 (USB2+H05261)
Correct for Electrical Dark: No (USB2+H05261)
Strobe/Lamp Enabled: No (USB2+H05261)
Correct for Detector Non-linearity: No (USB2+H05261)
Correct for Stray Light: No (USB2+H05261)
Number of Pixels in Processed Spectrum: 2048
>>>>>Begin Processed Spectral Data<<<<<
365.73	161.50
365.92	161.50
366.12	161.50
366.32	28.09
366.52	0.00
366.72	37.45
366.91	0.00
367.11	60.85
367.31	0.00
367.51	18.72
367.70	65.54
367.90	60.85
368.10	28.09
368.30	74.90
368.49	18.72
368.69	133.41
368.89	51.49
369.09	63.19
369.28	65.54
369.48	70.22
369.68	42.13
369.87	121.71
370.07	102.98
370.27	112.35
370.47	205.97
370.66	386.19
370.86	449.38
371.06	423.64
371.25	456.40
371.45	435.34
371.65	482.15
371.84	470.45
372.04	503.22
372.24	500.87
372.44	517.26
372.63	585.13
372.83	454.06
373.03	561.73
373.22	463.43
373.42	564.07
373.62	559.39
373.81	479.81
374.01	498.53
374.21	561.73
374.40	592.16
374.60	519.60
374.79	575.77
374.99	512.58
375.19	564.07
375.38	578.11
375.58	683.44
375.78	671.73
375.97	615.56
376.17	662.37
376.37	557.05
376.56	620.24
376.76	566.41
376.95	603.86
377.15	669.39
377.35	594.50
377.54	519.60
377.74	610.88
377.93	608.54
378.13	601.52
378.33	713.86
378.52	610.88
378.72	606.20
378.91	650.67
379.11	617.90
379.31	564.07
379.50	615.56
379.70	802.80
379.89	685.78
380.09	720.88
380.28	620.24
380.48	622.58
380.68	692.80
380.87	615.56
381.07	669.39
381.26	704.50
381.46	613.22
381.65	727.91
381.85	723.23
382.04	678.76
382.24	751.31
382.43	664.71
382.63	671.73
382.83	641.31
383.02	664.71
383.22	671.73
383.41	725.57
383.61	648.33
383.80	755.99
384.00	753.65
384.19	777.06
384.39	741.95
384.58	772.38
384.78	713.86
384.97	800.46
385.17	805.14
385.36	767.70
385.56	699.82
385.75	739.61
385.95	777.06
386.14	800.46
386.34	772.38
386.53	786.42
386.72	807.48
386.92	779.40
387.11	765.36
387.31	894.08
387.50	800.46
387.70	777.06
387.89	849.61
388.09	854.30
388.28	891.74
388.48	786.42
388.67	849.61
388.86	847.27
389.06	863.66
389.25	889.40
389.45	926.85
389.64	910.47
389.84	919.83
390.03	940.90
390.22	940.90
390.42	889.40
390.61	896.43
390.81	856.64
391.00	952.60
391.19	1020.47
391.39	957.28
391.58	1090.69
391.78	1013.45
391.97	1032.18
392.16	957.28
392.36	931.53
392.55	990.05
392.75	957.28
392.94	954.94
393.13	945.58
393.33	940.90
393.52	1053.24
393.71	1083.67
393.91	1034.52
394.10	1048.56
394.29	992.39
394.49	1036.86
394.68	1036.86
394.88	1158.57
395.07	1076.65
395.26	1151.54
395.46	1048.56
395.65	1163.25
395.84	1090.69
396.04	1153.88
396.23	1160.91
396.42	1095.37
396.62	1198.35
396.81	1142.18
397.00	1196.01
397.19	1205.38
397.39	1135.16
397.58	1221.76
397.77	1238.14
397.97	1254.53
398.16	1299.00
398.35	1329.42
398.55	1287.29
398.74	1280.27
398.93	1411.34
399.12	1308.36
399.32	1317.72
399.51	1420.71
399.70	1439.43
399.90	1357.51
400.09	1369.21
400.28	1380.92
400.47	1387.94
400.67	1455.81
400.86	1385.60
401.05	1579.86
401.24	1547.09
401.44	1533.05
401.63	1537.73
401.82	1547.09
402.01	1481.56
402.21	1514.33
402.40	1519.01
402.59	1554.12
402.78	1565.82
402.97	1577.52
403.17	1577.52
403.36	1589.22
403.55	1607.95
403.74	1699.23
403.93	1626.67
404.13	1689.87
404.32	1640.72
404.51	1640.72
404.70	1755.40
404.89	1598.59
405.09	1708.59
405.28	1717.95
405.47	1760.08
405.66	1797.53
405.85	1729.66
406.05	1717.95
406.24	1710.93
406.43	1778.81
406.62	1837.32
406.81	1844.34
407.00	1818.60
407.20	1834.98
407.39	1874.77
407.58	1881.79
407.77	1902.86
407.96	1886.47
408.15	1952.01
408.34	1909.88
408.54	1973.07
408.73	1973.07
408.92	2008.18
409.11	2024.56
409.30	2031.58
409.49	2076.06
409.68	1966.05
409.87	2024.56
410.07	2132.23
410.26	2076.06
410.45	2090.10
410.64	2195.42
410.83	2167.34
411.02	2209.47
411.21	2303.09
411.40	2279.68
411.59	2223.51
411.78	2284.36
411.98	2347.56
412.17	2326.49
412.36	2333.51
412.55	2333.51
412.74	2429.48
412.93	2478.63
413.12	2389.69
413.31	2572.25
413.50	2480.97
413.69	2506.71
413.88	2572.25
414.07	2457.56
414.26	2490.33
414.45	2630.76
414.64	2757.15
414.83	2630.76
415.02	2768.85
415.22	2693.96
415.41	2626.08
415.60	2825.03
415.79	2801.62
415.98	2857.79
416.17	2841.41
416.36	2869.50
416.55	2878.86
416.74	2958.44
416.93	2867.16
417.12	2967.80
417.31	2963.12
417.50	2878.86
417.69	3110.57
417.88	3007.59
418.07	2953.76
418.26	3162.06
418.45	3131.64
418.64	3232.28
418.83	3108.23
419.02	3110.57
419.21	3187.81
419.39	3164.40
419.58	3183.13
419.77	3117.59
419.96	3295.47
420.15	3346.97
420.34	3192.49
420.53	3421.86
420.72	3384.41
420.91	3447.61
421.10	3440.59
421.29	3398.46
421.48	3358.67
421.67	3393.78
421.86	3389.10
422.05	3480.38
422.24	3344.63
422.43	3272.07
422.61	3445.27
422.80	3496.76
422.99	3583.36
423.18	3602.08
423.37	3585.70
423.56	3604.42
423.75	3414.84
423.94	3358.67
424.13	3290.79
424.32	3344.63
424.50	3674.64
424.69	3487.40
424.88	3662.94
425.07	3499.10
425.26	3428.88
425.45	3459.31
425.64	3452.29
425.83	3611.45
426.01	3700.39
426.20	3648.90
426.39	3606.77
426.58	3641.87
426.77	3616.13
426.96	3611.45
427.15	3646.55
427.33	3679.32
427.52	3590.38
427.71	3632.51
427.90	3796.35
428.09	3665.28
428.28	3637.19
428.46	3880.61
428.65	3695.71
428.84	3838.48
429.03	3836.14
429.22	3796.35
429.40	3742.52
429.59	3768.26
429.78	3723.79
429.97	3637.19
430.16	3700.39
430.34	3847.84
430.53	3768.26
430.72	3838.48
430.91	3889.97
431.10	4009.34
431.28	4105.30
431.47	4084.23
431.66	4229.35
431.85	4152.11
432.03	4086.58
432.22	4173.18
432.41	4102.96
432.60	4212.96
432.79	4362.76
432.97	4325.31
433.16	4189.56
433.35	4273.82
433.54	4210.62
433.72	4271.48
433.91	4191.90
434.10	4219.99
434.28	4299.56
434.47	4559.36
434.66	4351.06
434.85	4390.84
435.03	4360.42
435.22	4332.33
435.41	4713.84
435.59	4678.73
435.78	4725.54
435.97	4594.47
436.16	4648.30
436.34	4636.60
436.53	4634.26
436.72	4760.65
436.90	4369.78
437.09	4596.81
437.28	4599.15
437.46	4671.71
437.65	4650.64
437.84	4652.98
438.02	4718.52
438.21	4772.35
438.40	4699.80
438.58	4821.50
438.77	4919.81
438.96	4940.87
439.14	5001.72
439.33	4924.49
439.52	5111.73
439.70	5022.79
439.89	5062.58
440.08	5195.99
440.26	5130.45
440.45	5062.58
440.63	5186.63
440.82	5263.86
441.01	5338.76
441.19	5341.10
441.38	5359.83
441.57	5392.59
441.75	5554.09
441.94	5514.30
442.12	5500.26
442.31	5593.88
442.50	5699.20
442.68	5792.83
442.87	5706.23
443.05	5633.67
443.24	5881.77
443.43	5783.46
443.61	5757.72
443.80	6050.28
443.98	5699.20
444.17	5593.88
444.35	5879.43
444.54	5825.59
444.73	5851.34
444.91	5762.40
445.10	5783.46
445.28	5959.00
445.47	5844.32
445.65	5760.06
445.84	5851.34
446.02	5921.56
446.21	5977.73
446.39	5795.17
446.58	5996.45
446.77	5879.43
446.95	6003.47
447.14	5874.74
447.32	6047.94
447.51	5994.11
447.69	5895.81
447.88	5973.05
448.06	5928.58
448.25	6097.10
448.43	6057.31
448.62	6129.86
448.80	6059.65
448.99	5975.39
449.17	6122.84
449.36	6108.80
449.54	6101.78
449.73	6473.92
449.91	6326.47
450.10	6256.25
450.28	6483.28
450.46	6324.13
450.65	6186.04
450.83	6436.47
451.02	6282.00
451.20	6441.15
451.39	6523.07
451.57	6347.53
451.76	6384.98
451.94	6403.71
452.13	6663.51
452.31	6513.71
452.49	6368.60
452.68	6473.92
452.86	6352.21
453.05	6663.51
453.23	6724.36
453.42	6539.46
453.60	6544.14
453.78	6717.34
453.97	6700.95
454.15	6668.19
454.34	6569.88
454.52	6825.00
454.70	6799.26
454.89	6759.47
455.07	6761.81
455.26	6878.83
455.44	6867.13
455.62	6857.77
455.81	7129.27
455.99	7023.95
456.17	7033.31
456.36	6956.07
456.54	7110.55
456.73	7148.00
456.91	7325.88
457.09	7194.81
457.28	7349.28
457.46	7138.63
457.64	7456.95
457.83	7349.28
458.01	7218.21
458.19	7494.40
458.38	7384.39
458.56	7555.25
458.74	7468.65
458.93	7405.46
459.11	7520.14
459.29	7461.63
459.48	7625.47
459.66	7372.69
459.84	7599.72
460.03	7602.06
460.21	7630.15
460.39	7709.72
460.57	7602.06
460.76	7683.98
460.94	7932.08
461.12	7772.92
461.31	7882.92
461.49	7679.30
461.67	7826.75
461.85	7971.86
462.04	7978.89
462.22	8425.93
462.40	7974.21
462.59	8133.36
462.77	7934.42
462.95	7995.27
463.13	8025.70
463.32	8205.92
463.50	8182.51
463.68	8140.38
463.86	8234.00
464.05	8021.02
464.23	8119.32
464.41	8301.88
464.59	7838.45
464.78	8243.37
464.96	8344.01
465.14	7967.18
465.32	8353.37
465.50	8369.76
465.69	8390.82
465.87	8397.84
466.05	8439.97
466.23	8458.70
466.41	8292.52
466.60	8667.00
466.78	8528.91
466.96	8395.50
467.14	8596.79
467.32	8320.60
467.51	8592.11
467.69	8439.97
467.87	8603.81
468.05	8484.44
468.23	8643.60
468.41	8571.04
468.60	8517.21
468.78	8856.59
468.96	8638.92
469.14	8912.76
469.32	8929.14
469.50	8659.98
469.69	8777.01
469.87	8882.33
470.05	8903.40
470.23	8765.31
470.41	8952.55
470.59	9111.71
470.77	8919.78
470.95	9130.43
471.14	9170.22
471.32	9071.92
471.50	9341.08
471.68	9097.66
471.86	9308.31
472.04	9408.95
472.22	9495.55
472.40	9053.19
472.58	9294.27
472.77	9437.04
472.95	9537.68
473.13	9778.76
473.31	9479.17
473.49	9511.94
473.67	9696.84
473.85	9778.76
474.03	9813.87
474.21	9874.72
474.39	9921.53
474.57	9966.00
474.75	10122.82
474.93	10146.22
475.12	10164.95
475.30	10403.68
475.48	10148.56
475.66	10216.44
475.84	10300.70
476.02	10520.71
476.20	10387.30
476.38	10485.60
476.56	10942.00
476.74	10846.04
476.92	10719.65
477.10	10684.55
477.28	10782.85
477.46	10949.03
477.64	11052.01
477.82	11325.85
478.00	11606.72
478.18	11412.45
478.36	11393.73
478.54	11520.12
478.72	11400.75
478.90	11690.98
479.08	11768.21
479.26	11985.88
479.44	12091.21
479.62	12042.06
479.80	12095.89
479.98	12109.93
480.16	12531.23
480.34	12304.20
480.52	12503.14
480.70	12507.82
480.88	12435.27
481.06	12556.97
481.24	12919.76
481.41	12748.90
481.59	12868.27
481.77	13177.22
481.95	13256.79
482.13	13268.50
482.31	13259.13
482.49	13666.39
482.67	13568.09
482.85	13846.61
483.03	13701.50
483.21	13827.88
483.39	13851.29
483.57	13937.89
483.74	14141.52
483.92	14162.58
484.10	14122.79
484.28	14335.78
484.46	14459.83
484.64	14761.76
484.82	14829.63
485.00	14808.57
485.18	15094.11
485.35	15180.71
485.53	14974.75
485.71	14998.15
485.89	15672.23
486.07	15059.01
486.25	15171.35
486.43	15690.95
486.61	15899.26
486.78	15892.24
486.96	15836.06
487.14	16470.35
487.32	16180.12
487.50	16493.76
487.68	16805.05
487.85	16905.69
488.03	16856.54
488.21	17135.06
488.39	16903.35
488.57	17465.08
488.75	17179.53
488.92	17570.40
489.10	17848.93
489.28	17881.69
489.46	17752.96
489.64	18347.46
489.81	18373.21
489.99	18537.04
490.17	18618.96
490.35	18972.38
490.53	18855.36
490.70	18747.69
490.88	18956.00
491.06	18906.85
491.24	19080.05
491.41	19307.08
491.59	19463.90
491.77	19180.69
491.95	19573.90
492.13	19580.92
492.30	19791.57
492.48	19866.47
492.66	19868.81
492.84	20336.91
493.01	20336.91
493.19	20168.40
493.37	20266.70
493.54	20456.28
493.72	20624.80
493.90	20666.93
494.08	21142.06
494.25	21235.68
494.43	21153.76
494.61	21219.30
494.79	21598.46
494.96	21546.97
495.14	21504.84
495.32	21778.68
495.49	21979.97
495.67	22134.45
495.85	22307.65
496.02	22331.05
496.20	22445.74
496.38	22593.19
496.55	22398.93
496.73	23033.21
496.91	22731.28
497.09	22815.54
497.26	23126.83
497.44	23166.62
497.62	23101.09
497.79	23096.41
497.97	23220.45
498.14	23456.85
498.32	23723.67
498.50	23639.41
498.67	23634.73
498.85	23819.63
499.03	24060.71
499.20	23946.02
499.38	24329.87
499.56	24287.74
499.73	24535.84
499.91	24489.03
500.08	24870.53
500.26	24290.08
500.44	24570.94
500.61	24868.19
500.79	24907.98
500.97	25029.69
501.14	25324.60
501.32	25287.15
501.49	25099.90
501.67	24985.22
501.84	25212.25
502.02	25280.13
502.20	25834.83
502.37	25883.98
502.55	25881.64
502.72	25912.07
502.90	25949.52
503.07	25956.54
503.25	26253.79
503.43	25797.38
503.60	26361.45
503.78	26267.83
503.95	26223.36
504.13	26281.88
504.30	26398.90
504.48	26485.50
504.65	26829.56
504.83	26874.03
505.01	27056.59
505.18	26822.54
505.36	27337.46
505.53	27173.62
505.71	27520.02
505.88	27321.07
506.06	27199.37
506.23	27164.26
506.41	27402.99
506.58	27307.03
506.76	27857.06
506.93	27718.96
507.11	27892.16
507.28	27672.15
507.46	27770.46
507.63	27754.07
507.81	28144.94
507.98	28091.11
508.16	28144.94
508.33	28725.39
508.50	28491.34
508.68	28659.86
508.85	29181.80
509.03	28992.22
509.20	28809.65
509.38	29074.13
509.55	29090.52
509.73	29034.35
509.90	29221.59
510.08	29003.92
510.25	29088.18
510.42	29216.91
510.60	29535.22
510.77	29649.91
510.95	29708.42
511.12	29486.07
511.30	29577.35
511.47	30195.25
511.64	30017.37
511.82	30644.63
511.99	29851.19
512.17	30153.12
512.34	29708.42
512.51	30438.67
512.69	30338.02
512.86	30321.64
513.04	30766.34
513.21	30710.17
513.38	30366.11
513.56	30328.66
513.73	30836.56
513.90	31126.78
514.08	30871.67
514.25	31101.04
514.43	31253.17
514.60	31012.10
514.77	31239.13
514.95	31498.93
515.12	31204.02
515.29	31454.46
515.47	31409.99
515.64	31627.66
515.81	31669.79
515.99	31672.13
516.16	31934.27
516.33	31241.47
516.51	31864.05
516.68	31637.02
516.85	31400.63
517.03	32093.43
517.20	32163.64
517.37	32123.85
517.54	32067.68
517.72	32627.07
517.89	32006.83
518.06	32173.00
518.24	32044.27
518.41	32425.78
518.58	32507.70
518.75	31866.39
518.93	32818.99
519.10	32851.76
519.27	33259.01
519.45	32690.26
519.62	32840.06
519.79	33371.36
519.96	33535.20
520.14	33338.59
520.31	33141.99
520.48	33762.23
520.65	33273.06
520.83	33663.93
521.00	33633.50
521.17	33844.15
521.34	33982.24
521.52	34089.90
521.69	33839.47
521.86	34015.01
522.03	34033.73
522.20	34136.71
522.38	34188.21
522.55	34443.32
522.72	34309.91
522.89	34593.12
523.07	34452.69
523.24	34244.38
523.41	34583.76
523.58	34377.79
523.75	34927.81
523.92	35536.35
524.10	34768.66
524.27	35304.64
524.44	34780.36
524.61	35236.77
524.78	34859.94
524.96	35140.80
525.13	35569.12
525.30	35473.16
525.47	35744.66
525.64	35421.67
525.81	35381.88
525.98	35344.43
526.16	35332.73
526.33	35660.40
526.50	35466.14
526.67	35325.71
526.84	35550.40
527.01	35501.25
527.18	35290.60
527.36	35847.64
527.53	35885.09
527.70	36652.79
527.87	35910.84
528.04	36107.44
528.21	36109.78
528.38	35526.99
528.55	36374.27
528.72	36308.73
528.89	36739.39
529.07	36219.79
529.24	36023.19
529.41	36542.78
529.58	36713.64
529.75	36465.55
529.92	36713.64
530.09	36631.72
530.26	36762.79
530.43	37071.75
530.60	36882.16
530.77	36645.77
530.94	37331.54
531.11	37266.01
531.28	37528.15
531.46	37090.47
531.63	37287.07
531.80	37518.79
531.97	37790.29
532.14	37266.01
532.31	37174.73
532.48	37425.17
532.65	37591.34
532.82	37570.28
532.99	37230.90
533.16	37331.54
533.33	37827.74
533.50	37949.45
533.67	37933.06
533.84	37743.48
534.01	37965.83
534.18	37834.76
534.35	37832.42
534.52	37771.57
534.69	38113.28
534.86	38251.38
535.03	37944.76
535.20	38330.95
535.37	38462.02
535.54	38651.61
535.71	38550.96
535.88	38770.97
536.05	38675.01
536.22	38803.74
536.38	38597.77
536.55	38876.30
536.72	38424.57
536.89	38323.93
537.06	38616.50
537.23	38541.60
537.40	38911.41
537.57	38920.77
537.74	38883.32
537.91	39061.20
538.08	39164.18
538.25	39194.61
538.42	38831.83
538.59	39480.16
538.75	39084.61
538.92	39030.77
539.09	39098.65
539.26	39473.13
539.43	39218.02
539.60	39737.62
539.77	39379.51
539.94	39723.57
540.11	39737.62
540.28	39388.88
540.44	39608.89
540.61	39143.12
540.78	39618.25
540.95	39566.76
541.12	39454.41
541.29	39419.30
541.46	39468.45
541.62	39793.79
541.79	40144.87
541.96	39562.08
542.13	40219.77
542.30	39856.98
542.47	39784.43
542.63	39597.18
542.80	40327.43
542.97	40107.42
543.14	40856.39
543.31	40374.24
543.48	40751.07
543.64	41074.06
543.81	41104.49
543.98	40793.20
544.15	40666.81
544.32	40903.20
544.48	41284.71
544.65	40830.65
544.82	40762.77
544.99	40470.20
545.16	40786.18
545.32	40921.93
545.49	41354.93
545.66	41013.21
545.83	41251.94
546.00	41354.93
546.16	41170.02
546.33	41261.30
546.50	40722.98
546.67	41095.13
546.83	40828.30
547.00	40870.43
547.17	41308.11
547.34	40718.30
547.50	41158.32
547.67	41799.63
547.84	41062.36
548.00	41394.71
548.17	41654.51
548.34	41642.81
548.51	41865.16
548.67	41495.36
548.84	41663.88
549.01	41539.83
549.18	41853.46
549.34	41670.90
549.51	41855.80
549.68	41691.96
549.84	41965.81
550.01	42265.39
550.18	41916.65
550.34	41614.72
550.51	41687.28
550.68	41724.73
550.84	41179.39
551.01	42206.88
551.18	41916.65
551.34	42167.09
551.51	42260.71
551.68	42349.65
551.84	42644.56
552.01	42155.39
552.18	42164.75
552.34	41970.49
552.51	42483.06
552.68	42485.40
552.84	42476.04
553.01	42759.25
553.18	42288.80
553.34	42195.18
553.51	42216.24
553.67	41921.34
553.84	42555.62
554.01	42721.80
554.17	43196.93
554.34	43049.47
554.51	42927.77
554.67	42635.20
554.84	43150.12
555.00	42838.83
555.17	42384.76
555.33	42651.58
555.50	42925.42
555.67	42740.52
555.83	42733.50
556.00	42873.93
556.16	43365.45
556.33	42953.51
556.50	42939.47
556.66	43335.02
556.83	42726.48
556.99	43260.12
557.16	43379.49
557.32	43323.32
557.49	43234.38
557.65	42787.33
557.82	43007.34
557.98	42937.13
558.15	43100.97
558.32	43416.94
558.48	43054.15
558.65	43276.51
558.81	43047.13
558.98	43454.39
559.14	43344.38
559.31	42955.85
559.47	43531.62
559.64	43735.25
559.80	43585.46
559.97	43578.43
560.13	43569.07
560.30	43480.13
560.46	43983.35
560.63	43349.06
560.79	43789.08
560.96	44091.01
561.12	43613.54
561.29	43922.49
561.45	43482.47
561.61	43594.82
561.78	43468.43
561.94	43704.82
562.11	43641.63
562.27	43496.52
562.44	43508.22
562.60	44154.21
562.77	44154.21
562.93	43985.69
563.10	43995.05
563.26	43861.64
563.42	43959.94
563.59	43597.16
563.75	43714.19
563.92	44060.58
564.08	43899.09
564.24	44238.47
564.41	44299.32
564.57	44018.46
564.74	44016.11
564.90	43950.58
565.07	44011.43
565.23	43753.97
565.39	44074.63
565.56	44177.61
565.72	44435.07
565.88	44299.32
566.05	43894.41
566.21	43976.33
566.38	43650.99
566.54	44165.91
566.70	44261.87
566.87	44453.79
567.03	44198.68
567.19	44790.83
567.36	44404.64
567.52	44037.18
567.68	43882.70
567.85	44191.65
568.01	44161.23
568.17	43957.60
568.34	44275.91
568.50	44266.55
568.66	44027.82
568.83	44526.35
568.99	44079.31
569.15	44013.77
569.32	44041.86
569.48	43871.00
569.64	44266.55
569.81	44531.03
569.97	44037.18
570.13	44208.04
570.30	44474.86
570.46	43910.79
570.62	43765.68
570.78	44538.05
570.95	44397.62
571.11	44538.05
571.27	44463.16
571.43	44367.20
571.60	44512.31
571.76	44322.72
571.92	44790.83
572.09	44549.76
572.25	44189.31
572.41	43889.73
572.57	44362.51
572.74	44985.10
572.90	44643.38
573.06	44500.61
573.22	44472.52
573.38	44659.76
573.55	44051.22
573.71	44591.89
573.87	44484.22
574.03	44507.63
574.20	44137.82
574.36	44257.19
574.52	44664.44
574.68	44598.91
574.84	44734.66
575.01	44580.18
575.17	44566.14
575.33	44493.58
575.49	44154.21
575.65	44636.36
575.82	44699.55
575.98	44371.88
576.14	44687.85
576.30	44378.90
576.46	44149.53
576.62	44296.98
576.79	44699.55
576.95	44088.67
577.11	44018.46
577.27	44605.93
577.43	44994.46
577.59	44573.16
577.75	44196.34
577.92	44538.05
578.08	44285.28
578.24	44437.41
578.40	44643.38
578.56	44500.61
578.72	44790.83
578.88	44638.70
579.04	44861.05
579.21	44802.53
579.37	44318.04
579.53	44535.71
579.69	44109.74
579.85	44545.08
580.01	44744.02
580.17	44624.65
580.33	44617.63
580.49	44474.86
580.65	44767.43
580.82	44741.68
580.98	44804.88
581.14	44306.34
581.30	44374.22
581.46	44304.00
581.62	44428.05
581.78	44744.02
581.94	45031.91
582.10	45148.93
582.26	45160.64
582.42	44907.86
582.58	44678.49
582.74	44334.43
582.90	44863.39
583.06	44739.34
583.22	44690.19
583.38	45088.08
583.54	45083.40
583.70	44598.91
583.86	44575.50
584.02	44435.07
584.18	45031.91
584.34	44753.38
584.50	44776.79
584.66	44708.91
584.82	44678.49
584.98	45287.03
585.14	44790.83
585.30	44423.37
585.46	44521.67
585.62	44685.51
585.78	44877.43
585.94	44456.14
586.10	44549.76
586.26	44292.30
586.42	44961.69
586.58	44797.85
586.74	44865.73
586.90	44481.88
587.06	44907.86
587.22	44914.88
587.38	44631.68
587.54	44631.68
587.70	45052.97
587.86	44931.26
588.02	44793.17
588.18	44889.13
588.34	45017.86
588.49	44619.97
588.65	44194.00
588.81	44664.44
588.97	45144.25
589.13	44346.13
589.29	44940.63
589.45	44631.68
589.61	44760.40
589.77	45214.47
589.93	44739.34
590.08	45081.06
590.24	45249.58
590.40	44786.15
590.56	45148.93
590.72	44961.69
590.88	44683.17
591.04	44914.88
591.20	45139.57
591.35	44952.33
591.51	45020.20
591.67	44884.45
591.83	44657.42
591.99	44680.83
592.15	44652.74
592.31	44683.17
592.46	45146.59
592.62	44669.12
592.78	45052.97
592.94	45151.27
593.10	44961.69
593.26	45308.09
593.41	45303.41
593.57	44828.28
593.73	45148.93
593.89	45375.97
594.05	44823.60
594.20	45022.54
594.36	44664.44
594.52	45331.50
594.68	45359.58
594.84	44947.65
594.99	45755.13
595.15	44954.67
595.31	45214.47
595.47	45074.04
595.62	45106.80
595.78	44914.88
595.94	45518.74
596.10	45179.36
596.25	45296.39
596.41	45256.60
596.57	45422.78
596.73	45064.67
596.88	44814.24
597.04	44994.46
597.20	45167.66
597.36	45525.76
597.51	45429.80
597.67	45244.90
597.83	45523.42
597.99	45441.50
598.14	45270.64
598.30	45322.13
598.46	45006.16
598.61	44992.12
598.77	44767.43
598.93	44973.39
599.09	44788.49
599.24	45509.38
599.40	45382.99
599.56	45443.84
599.71	45474.27
599.87	45268.30
600.03	45373.63
600.18	45247.24
600.34	45298.73
600.50	45467.25
600.65	44896.16
600.81	45319.79
600.97	45523.42
601.12	45792.58
601.28	45921.31
601.44	45006.16
601.59	44973.39
601.75	44811.90
601.91	45027.23
602.06	45148.93
602.22	45263.62
602.37	45167.66
602.53	44772.11
602.69	45600.66
602.84	44982.76
603.00	45148.93
603.16	45013.18
603.31	44392.94
603.47	44737.00
603.62	45495.33
603.78	45162.98
603.94	45022.54
604.09	45361.92
604.25	45815.99
604.40	45401.71
604.56	45151.27
604.71	44854.03
604.87	44928.92
605.03	45127.87
605.18	44870.41
605.34	44940.63
605.49	45024.89
605.65	45064.67
605.80	45074.04
605.96	45055.31
606.12	45038.93
606.27	45237.87
606.43	44933.60
606.58	45446.18
606.74	44886.79
606.89	44935.95
607.05	44818.92
607.20	44893.82
607.36	45069.36
607.51	45099.78
607.67	44994.46
607.82	44807.22
607.98	44907.86
608.13	44875.09
608.29	44938.29
608.44	44584.86
608.60	44437.41
608.75	44236.12
608.91	44535.71
609.06	44512.31
609.22	45027.23
609.37	44463.16
609.53	44917.22
609.68	45212.13
609.84	44582.52
609.99	44790.83
610.15	44811.90
610.30	44566.14
610.46	44449.11
610.61	44910.20
610.76	44392.94
610.92	44582.52
611.07	44687.85
611.23	44699.55
611.38	44636.36
611.54	44350.81
611.69	44406.98
611.84	44177.61
612.00	44762.75
612.15	44706.57
612.31	44575.50
612.46	44161.23
612.62	44788.49
612.77	44619.97
612.92	44634.02
613.08	44189.31
613.23	44580.18
613.39	44053.56
613.54	44266.55
613.69	44268.89
613.85	44381.24
614.00	44296.98
614.15	44266.55
614.31	44376.56
614.46	44708.91
614.62	44332.09
614.77	44538.05
614.92	44217.40
615.08	43969.30
615.23	43985.69
615.38	43981.01
615.54	43592.48
615.69	44095.69
615.84	43737.59
616.00	43880.36
616.15	43941.22
616.30	44091.01
616.46	43887.39
616.61	43611.20
616.76	44243.15
616.92	43885.04
617.07	43786.74
617.22	43491.83
617.37	43615.88
617.53	44123.78
617.68	43660.35
617.83	44205.70
617.99	44369.54
618.14	44158.89
618.29	43643.97
618.45	43599.50
618.60	43482.47
618.75	43697.80
618.90	43966.96
619.06	43810.15
619.21	43386.51
619.36	43810.15
619.51	43501.20
619.67	43210.97
619.82	43803.13
619.97	43536.30
620.12	43419.28
620.28	42815.42
620.43	43194.59
620.58	43540.99
620.73	43299.91
620.89	43145.44
621.04	43550.35
621.19	43150.12
621.34	43086.92
621.49	43047.13
621.65	43215.65
621.80	43098.62
621.95	42799.04
622.10	43206.29
622.25	42808.40
622.41	42768.61
622.56	42878.61
622.71	43346.72
622.86	42948.83
623.01	43185.22
623.16	43171.18
623.32	43276.51
623.47	43363.11
623.62	43178.20
623.77	42909.04
623.92	42997.98
624.07	42326.25
624.23	42586.05
624.38	43026.07
624.53	42370.72
624.68	43051.81
624.83	42705.41
624.98	42735.84
625.13	42817.76
625.29	42700.73
625.44	42740.52
625.59	42883.30
625.74	42260.71
625.89	41940.06
626.04	41848.78
626.19	42321.57
626.34	42497.11
626.49	41975.17
626.65	42178.79
626.80	42529.87
626.95	42183.48
627.10	42373.06
627.25	42024.32
627.40	42117.94
627.55	41579.62
627.70	41338.54
627.85	41729.41
628.00	42213.90
628.15	42237.31
628.30	42012.62
628.45	42389.44
628.60	41900.27
628.76	42160.07
628.91	42300.50
629.06	42485.40
629.21	41832.39
629.36	41476.63
629.51	41544.51
629.66	41432.16
629.81	41654.51
629.96	41727.07
630.11	41865.16
630.26	41830.05
630.41	41717.71
630.56	41455.57
630.71	41745.80
630.86	41457.91
631.01	41439.18
631.16	41832.39
631.31	41282.37
631.46	41141.94
631.61	41118.53
631.76	41521.10
631.91	41181.73
632.06	41221.52
632.21	41633.45
632.36	41233.22
632.51	41476.63
632.66	41738.77
632.81	40907.88
632.96	41453.23
633.10	40921.93
633.25	40650.42
633.40	40746.39
633.55	41500.04
633.70	41095.13
633.85	41198.11
634.00	41036.61
634.15	41127.89
634.30	40620.00
634.45	41191.09
634.60	40748.73
634.75	40980.44
634.90	40781.49
635.05	40610.64
635.19	40919.59
635.34	40905.54
635.49	40825.96
635.64	40835.33
635.79	40624.68
635.94	40531.06
636.09	40416.37
636.24	40399.99
636.39	40830.65
636.53	40477.22
636.68	40084.01
636.83	40596.59
636.98	40814.26
637.13	40336.79
637.28	40367.22
637.43	40371.90
637.57	40533.40
637.72	40353.18
637.87	40526.38
638.02	40069.97
638.17	40095.72
638.32	40217.43
638.46	39920.18
638.61	40144.87
638.76	39669.74
638.91	40126.14
639.06	39634.63
639.20	40484.25
639.35	40350.84
639.50	40128.48
639.65	40643.40
639.80	40114.44
639.94	39915.50
640.09	40041.88
640.24	39569.10
640.39	39416.96
640.54	40067.63
640.68	39957.63
640.83	39955.29
640.98	39524.63
641.13	39880.39
641.27	40025.50
641.42	39665.06
641.57	40009.12
641.72	40100.40
641.86	39510.58
642.01	39515.26
642.16	39363.13
642.31	39246.10
642.45	39646.33
642.60	39154.82
642.75	39447.39
642.90	39412.28
643.04	39210.99
643.19	38967.58
643.34	39501.22
643.48	39597.18
643.63	39349.09
643.78	39351.43
643.93	39449.73
644.07	38976.94
644.22	39189.93
644.37	38735.87
644.51	38958.22
644.66	38766.29
644.81	39068.22
644.95	39054.18
645.10	39110.35
645.25	39103.33
645.39	39225.04
645.54	39105.67
645.69	39257.81
645.83	38726.50
645.98	38845.87
646.13	39182.91
646.27	39096.31
646.42	38719.48
646.57	38951.20
646.71	39079.92
646.86	39096.31
647.00	38990.98
647.15	38983.96
647.30	39056.52
647.44	38700.76
647.59	38902.04
647.74	38822.47
647.88	38377.76
648.03	38754.59
648.17	38471.39
648.32	38403.51
648.47	38244.35
648.61	38773.31
648.76	38658.63
648.90	38382.45
649.05	38438.62
649.20	38785.02
649.34	38539.26
649.49	38312.23
649.63	38871.62
649.78	38469.04
649.92	38253.72
650.07	38752.25
650.21	38190.52
650.36	38162.43
650.51	38106.26
650.65	38852.89
650.80	38815.44
650.94	38401.17
651.09	38258.40
651.23	38267.76
651.38	38045.41
651.52	37825.40
651.67	38164.78
651.81	38129.67
651.96	37982.21
652.10	37921.36
652.25	37453.25
652.39	37727.10
652.54	37783.27
652.68	37862.85
652.83	38279.46
652.97	37743.48
653.12	37684.97
653.26	38066.47
653.41	37734.12
653.55	37748.16
653.70	37668.58
653.84	37287.07
653.99	37675.60
654.13	37532.83
654.27	37954.13
654.42	37816.04
654.56	37841.78
654.71	37462.61
654.85	37315.16
655.00	37816.04
655.14	37263.67
655.29	36863.44
655.43	37022.59
655.57	36804.92
655.72	37256.65
655.86	37247.29
656.01	37296.44
656.15	36950.04
656.30	36769.82
656.44	37106.85
656.58	36985.15
656.73	36825.99
656.87	36945.36
657.01	36914.93
657.16	36587.25
657.30	36554.49
657.45	36809.61
657.59	36533.42
657.73	36524.06
657.88	37038.98
658.02	37020.25
658.16	36627.04
658.31	36847.05
658.45	36758.11
658.60	36774.50
658.74	36704.28
658.88	36811.95
659.03	36486.61
659.17	36453.84
659.31	36477.25
659.46	36652.79
659.60	36425.76
659.74	36086.38
659.89	36362.56
660.03	36107.44
660.17	36627.04
660.32	36348.52
660.46	36563.85
660.60	36552.15
660.74	36472.57
660.89	36091.06
661.03	36032.55
661.17	35569.12
661.32	35510.61
661.46	35709.55
661.60	35709.55
661.74	35763.39
661.89	35639.34
662.03	35887.43
662.17	35213.36
662.31	35655.72
662.46	35941.27
662.60	35363.15
662.74	35501.25
662.88	35409.96
663.03	35393.58
663.17	35564.44
663.31	35016.75
663.45	34991.01
663.60	35316.34
663.74	35103.35
663.88	35079.95
664.02	34808.45
664.17	35096.33
664.31	34913.77
664.45	34621.20
664.59	35012.07
664.73	35112.72
664.88	34972.28
665.02	34361.40
665.16	34801.43
665.30	34679.72
665.44	34478.43
665.59	33926.07
665.73	34330.98
665.87	34553.33
666.01	34106.29
666.15	34464.39
666.29	34265.44
666.44	34885.68
666.58	34178.84
666.72	34319.28
666.86	34223.31
667.00	34127.35
667.14	33876.91
667.28	33872.23
667.43	33565.62
667.57	33996.28
667.71	33539.88
667.85	33544.56
667.99	33752.87
668.13	33369.02
668.27	33500.09
668.41	33895.64
668.56	33556.26
668.70	33495.41
668.84	33280.08
668.98	33282.42
669.12	33453.28
669.26	33378.38
669.40	33057.73
669.54	33249.65
669.68	33287.10
669.82	32889.21
669.96	32926.66
670.10	32802.61
670.25	33493.07
670.39	32727.71
670.53	32774.52
670.67	32191.73
670.81	32694.94
670.95	32727.71
671.09	32692.60
671.23	32357.91
671.37	32912.61
671.51	32390.67
671.65	32243.22
671.79	32250.24
671.93	32063.00
672.07	32334.50
672.21	32154.28
672.35	32025.55
672.49	31665.11
672.63	31707.24
672.77	31967.04
672.91	31732.98
673.05	31878.10
673.19	31218.07
673.33	31475.52
673.47	31477.86
673.61	31000.40
673.75	31150.19
673.89	30675.06
674.03	30848.26
674.17	31316.37
674.31	30609.53
674.45	30899.75
674.59	30869.33
674.73	31187.64
674.87	31040.18
675.01	30572.08
675.15	30703.15
675.29	30939.54
675.43	30724.21
675.56	30796.77
675.70	30370.79
675.84	30115.67
675.98	29319.89
676.12	29970.56
676.26	29883.96
676.40	29832.47
676.54	29806.72
676.68	29872.26
676.82	28950.09
676.96	29338.62
677.10	29390.11
677.23	29177.12
677.37	29357.34
677.51	29074.13
677.65	29345.64
677.79	28671.56
677.93	29223.93
678.07	28676.24
678.21	29029.66
678.34	28844.76
678.48	28617.73
678.62	28725.39
678.76	28231.54
678.90	28306.44
679.04	28135.58
679.18	28453.89
679.31	27740.03
679.45	27985.79
679.59	27489.59
679.73	27934.29
679.87	28144.94
680.00	27983.44
680.14	27718.96
680.28	27424.06
680.42	27791.52
680.56	27728.33
680.70	27292.99
680.83	27042.55
680.97	27101.06
681.11	27049.57
681.25	26408.26
681.39	26911.48
681.52	26813.18
681.66	27000.42
681.80	26525.29
681.94	26930.20
682.07	26368.48
682.21	26717.22
682.35	26387.20
682.49	26436.35
682.62	26293.58
682.76	25752.91
682.90	25982.29
683.04	25977.61
683.17	26015.05
683.31	25902.71
683.45	25926.11
683.59	25467.37
683.72	25329.28
683.86	25408.86
684.00	25575.03
684.13	25530.56
684.27	25525.88
684.41	25041.39
684.55	25109.27
684.68	24547.54
684.82	24964.15
684.96	24641.16
685.09	24336.89
685.23	24596.69
685.37	24542.86
685.50	24379.02
685.64	24348.59
685.78	24439.87
685.91	24390.72
686.05	24201.14
686.19	23711.97
686.32	23924.96
686.46	23583.24
686.60	23461.53
686.73	23456.85
686.87	23405.36
687.01	23517.70
687.14	23662.82
687.28	23021.51
687.42	23037.89
687.55	22993.42
687.69	22965.34
687.82	22925.55
687.96	22764.05
688.10	22459.78
688.23	22764.05
688.37	22309.99
688.50	22295.94
688.64	22429.35
688.78	22422.33
688.91	22132.11
689.05	22040.82
689.18	22202.32
689.32	22003.38
689.46	21656.98
689.59	22546.38
689.73	22082.95
689.86	22019.76
690.00	21502.50
690.13	21717.83
690.27	21649.96
690.41	21575.06
690.54	21142.06
690.68	21212.28
690.81	20992.26
690.95	20947.79
691.08	20872.90
691.22	20875.24
691.35	21043.76
691.49	21135.04
691.62	20858.85
691.76	20858.85
691.89	20875.24
692.03	20570.97
692.16	20496.07
692.30	20496.07
692.43	20510.11
692.57	20152.01
692.70	20315.85
692.84	19763.48
692.97	19985.83
693.11	19475.60
693.24	19491.98
693.38	19789.23
693.51	19744.76
693.65	19611.35
693.78	19641.78
693.92	19199.41
694.05	19307.08
694.19	19206.44
694.32	19042.60
694.45	18991.11
694.59	19150.26
694.72	18843.65
694.86	18733.65
694.99	18700.88
695.13	18691.52
695.26	18499.59
695.39	18317.03
695.53	18382.57
695.66	18462.15
695.80	18506.62
695.93	18200.01
696.07	17919.14
696.20	17860.63
696.33	18228.09
696.47	17891.06
696.60	17987.02
696.73	17914.46
696.87	18071.28
697.00	17720.20
697.14	17645.30
697.27	17507.21
697.40	17589.13
697.54	17516.57
697.67	17291.88
697.80	17118.68
697.94	16936.12
698.07	16830.79
698.21	16835.47
698.34	16943.14
698.47	17036.76
698.61	16573.33
698.74	16650.57
698.87	16615.46
699.01	16102.89
699.14	16257.36
699.27	16453.97
699.40	16304.17
699.54	16383.75
699.67	16196.51
699.80	16053.73
699.94	16086.50
700.07	15817.34
700.20	16058.42
700.34	15733.08
700.47	15681.59
700.60	15777.55
700.73	15768.19
700.87	15559.88
701.00	15484.98
701.13	15459.24
701.26	15363.28
701.40	15489.67
701.53	15211.14
701.66	15487.32
701.79	15089.43
701.93	15204.12
702.06	14965.39
702.19	15101.14
702.32	14953.68
702.46	14803.89
702.59	14740.69
702.72	15014.54
702.85	14752.40
702.99	14731.33
703.12	14677.50
703.25	14710.27
703.38	14312.38
703.51	14155.56
703.65	14363.87
703.78	14108.75
703.91	13958.96
704.04	14129.81
704.17	13858.31
704.31	13898.10
704.44	13722.56
704.57	13352.76
704.70	13635.96
704.83	13673.41
704.96	13750.65
705.10	13760.01
705.23	13804.48
>>>>>End Processed Spectral Data<<<<<
