SpectraSuite Data File
++++++++++++++++++++++++++++++++++++
Date: Fri Oct 25 10:43:41 EDT 2013
User: price-jones
Dark Spectrum Present: No
Reference Spectrum Present: No
Number of Sampled Component Spectra: 1
Spectrometers: USB2+H05261
Integration Time (usec): 100000 (USB2+H05261)
Spectra Averaged: 1 (USB2+H05261)
Boxcar Smoothing: 0 (USB2+H05261)
Correct for Electrical Dark: No (USB2+H05261)
Strobe/Lamp Enabled: No (USB2+H05261)
Correct for Detector Non-linearity: No (USB2+H05261)
Correct for Stray Light: No (USB2+H05261)
Number of Pixels in Processed Spectrum: 2048
>>>>>Begin Processed Spectral Data<<<<<
365.73	81.92
365.92	81.92
366.12	81.92
366.32	72.56
366.52	35.11
366.72	65.54
366.91	28.09
367.11	32.77
367.31	0.00
367.51	11.70
367.70	117.03
367.90	42.13
368.10	53.83
368.30	67.88
368.49	32.77
368.69	4.68
368.89	23.41
369.09	0.00
369.28	81.92
369.48	93.62
369.68	35.11
369.87	28.09
370.07	124.05
370.27	81.92
370.47	215.33
370.66	346.40
370.86	360.44
371.06	386.19
371.25	458.74
371.45	411.93
371.65	486.83
371.84	444.70
372.04	433.00
372.24	433.00
372.44	538.32
372.63	524.28
372.83	500.87
373.03	477.47
373.22	500.87
373.42	564.07
373.62	510.24
373.81	564.07
374.01	545.34
374.21	615.56
374.40	517.26
374.60	545.34
374.79	545.34
374.99	610.88
375.19	540.66
375.38	535.98
375.58	559.39
375.78	545.34
375.97	585.13
376.17	660.03
376.37	615.56
376.56	610.88
376.76	648.33
376.95	575.77
377.15	725.57
377.35	657.69
377.54	657.69
377.74	638.97
377.93	636.63
378.13	671.73
378.33	727.91
378.52	697.48
378.72	690.46
378.91	674.07
379.11	683.44
379.31	685.78
379.50	648.33
379.70	748.97
379.89	676.41
380.09	653.01
380.28	685.78
380.48	660.03
380.68	723.23
380.87	702.16
381.07	671.73
381.26	798.12
381.46	744.29
381.65	718.54
381.85	685.78
382.04	779.40
382.24	697.48
382.43	711.52
382.63	791.10
382.83	681.10
383.02	660.03
383.22	744.29
383.41	751.31
383.61	777.06
383.80	760.67
384.00	697.48
384.19	716.20
384.39	751.31
384.58	795.78
384.78	805.14
384.97	741.95
385.17	784.08
385.36	826.21
385.56	877.70
385.75	877.70
385.95	788.76
386.14	800.46
386.34	786.42
386.53	816.85
386.72	830.89
386.92	875.36
387.11	800.46
387.31	786.42
387.50	945.58
387.70	894.08
387.89	887.06
388.09	882.38
388.28	912.81
388.48	1006.43
388.67	917.49
388.86	990.05
389.06	912.81
389.25	954.94
389.45	994.73
389.64	1060.26
389.84	1053.24
390.03	997.07
390.22	973.66
390.42	1013.45
390.61	1027.50
390.81	1046.22
391.00	997.07
391.19	1109.41
391.39	1158.57
391.58	1057.92
391.78	1011.11
391.97	1064.94
392.16	1046.22
392.36	1048.56
392.55	959.62
392.75	997.07
392.94	994.73
393.13	1006.43
393.33	1020.47
393.52	1071.97
393.71	1022.81
393.91	1104.73
394.10	1114.10
394.29	1174.95
394.49	1179.63
394.68	1188.99
394.88	1221.76
395.07	1324.74
395.26	1249.85
395.46	1263.89
395.65	1203.04
395.84	1224.10
396.04	1245.16
396.23	1149.20
396.42	1015.79
396.62	1111.75
396.81	1135.16
397.00	1132.82
397.19	1322.40
397.39	1327.08
397.58	1366.87
397.77	1406.66
397.97	1345.81
398.16	1366.87
398.35	1441.77
398.55	1500.28
398.74	1516.67
398.93	1633.69
399.12	1479.22
399.32	1530.71
399.51	1474.54
399.70	1568.16
399.90	1572.84
400.09	1626.67
400.28	1617.31
400.47	1593.90
400.67	1582.20
400.86	1685.19
401.05	1650.08
401.24	1682.85
401.44	1734.34
401.63	1717.95
401.82	1741.36
402.01	1652.42
402.21	1755.40
402.40	1811.57
402.59	1788.17
402.78	1781.15
402.97	1832.64
403.17	1710.93
403.36	1914.56
403.55	1909.88
403.74	1895.83
403.93	2003.50
404.13	1724.97
404.32	2001.16
404.51	1877.11
404.70	2108.82
404.89	1994.14
405.09	1919.24
405.28	2005.84
405.47	1949.67
405.66	2080.74
405.85	1858.39
406.05	1991.80
406.24	1989.46
406.43	1984.77
406.62	2099.46
406.81	2118.18
407.00	2122.87
407.20	2062.01
407.39	1980.09
407.58	2083.08
407.77	2172.02
407.96	2129.89
408.15	2333.51
408.34	2209.47
408.54	2340.54
408.73	2361.60
408.92	2246.91
409.11	2303.09
409.30	2296.07
409.49	2279.68
409.68	2221.17
409.87	2375.64
410.07	2321.81
410.26	2445.86
410.45	2420.11
410.64	2340.54
410.83	2518.42
411.02	2544.16
411.21	2619.06
411.40	2637.78
411.59	2518.42
411.78	2682.25
411.98	2593.31
412.17	2626.08
412.36	2644.81
412.55	2736.09
412.74	2768.85
412.93	2796.94
413.12	2780.56
413.31	2942.05
413.50	2729.06
413.69	2930.35
413.88	2897.58
414.07	2963.12
414.26	2939.71
414.45	3019.29
414.64	3040.36
414.83	3084.83
415.02	3054.40
415.22	3133.98
415.41	3157.38
415.60	3236.96
415.79	3222.92
415.98	3265.05
416.17	3234.62
416.36	3281.43
416.55	3199.51
416.74	3335.26
416.93	3215.90
417.12	3428.88
417.31	3251.00
417.50	3293.13
417.69	3435.91
417.88	3471.01
418.07	3403.14
418.26	3482.72
418.45	3562.30
418.64	3604.42
418.83	3538.89
419.02	3672.30
419.21	3611.45
419.39	3569.32
419.58	3644.21
419.77	3555.27
419.96	3749.54
420.15	3779.97
420.34	3681.66
420.53	3693.37
420.72	3768.26
420.91	3765.92
421.10	3803.37
421.29	3929.76
421.48	3871.25
421.67	3906.35
421.86	3939.12
422.05	3805.71
422.24	3805.71
422.43	3676.98
422.61	3847.84
422.80	3962.53
422.99	3894.65
423.18	3955.51
423.37	3957.85
423.56	4072.53
423.75	4030.40
423.94	3946.14
424.13	3625.49
424.32	3913.38
424.50	4063.17
424.69	4056.15
424.88	4100.62
425.07	3854.86
425.26	3957.85
425.45	4030.40
425.64	4035.08
425.83	4051.47
426.01	4086.58
426.20	4086.58
426.39	4084.23
426.58	3946.14
426.77	3927.42
426.96	4063.17
427.15	3978.91
427.33	4147.43
427.52	3997.64
427.71	4182.54
427.90	4175.52
428.09	4058.49
428.28	4212.96
428.46	4217.65
428.65	4250.41
428.84	4294.88
429.03	4229.35
429.22	4100.62
429.40	4086.58
429.59	4098.28
429.78	3974.23
429.97	4025.72
430.16	4063.17
430.34	4278.50
430.53	4248.07
430.72	4231.69
430.91	4402.55
431.10	4561.70
431.28	4601.49
431.47	4814.48
431.66	4716.18
431.85	4491.49
432.03	4692.77
432.22	4814.48
432.41	4610.86
432.60	4606.17
432.79	4706.82
432.97	4854.27
433.16	4718.52
433.35	4685.75
433.54	4660.01
433.72	4851.93
433.91	4741.93
434.10	4908.10
434.28	4903.42
434.47	4777.03
434.66	4891.72
434.85	4877.68
435.03	5062.58
435.22	5011.09
435.41	5125.77
435.59	5071.94
435.78	5177.26
435.97	5167.90
436.16	5170.24
436.34	5301.31
436.53	5132.79
436.72	5338.76
436.90	5242.80
437.09	5163.22
437.28	5125.77
437.46	5284.93
437.65	5345.78
437.84	5334.08
438.02	5355.15
438.21	5226.42
438.40	5181.95
438.58	5547.07
438.77	5444.09
438.96	5474.51
439.14	5731.97
439.33	5692.18
439.52	5748.36
439.70	5699.20
439.89	5760.06
440.08	5757.72
440.26	5825.59
440.45	5792.83
440.63	5998.79
440.82	6040.92
441.01	5909.85
441.19	6069.01
441.38	6113.48
441.57	6169.65
441.75	6417.75
441.94	6338.17
442.12	6382.64
442.31	6469.24
442.50	6417.75
442.68	6359.24
442.87	6424.77
443.05	6473.92
443.24	6494.99
443.43	6328.81
443.61	6511.37
443.80	6736.06
443.98	6532.44
444.17	6375.62
444.35	6691.59
444.54	6743.08
444.73	6647.12
444.91	6654.14
445.10	6644.78
445.28	6567.54
445.47	6387.32
445.65	6572.22
445.84	6541.80
446.02	6691.59
446.21	6665.85
446.39	6651.80
446.58	6803.94
446.77	6719.68
446.95	6726.70
447.14	6754.79
447.32	6787.55
447.51	6677.55
447.69	6579.25
447.88	6635.42
448.06	6871.81
448.25	6899.90
448.43	6843.73
448.62	6775.85
448.80	6799.26
448.99	6956.07
449.17	6878.83
449.36	6920.96
449.54	7023.95
449.73	7208.85
449.91	7213.53
450.10	7232.26
450.28	7433.54
450.46	7211.19
450.65	7398.43
450.83	7396.09
451.02	7410.14
451.20	7250.98
451.39	7197.15
451.57	7255.66
451.76	7286.09
451.94	7421.84
452.13	7358.64
452.31	7279.07
452.49	7253.32
452.68	7262.68
452.86	7192.47
453.05	7356.30
453.23	7426.52
453.42	7267.36
453.60	7311.83
453.78	7527.16
453.97	7393.75
454.15	7590.36
454.34	7405.46
454.52	7899.31
454.70	7597.38
454.89	7627.81
455.07	7588.02
455.26	7698.02
455.44	7798.66
455.62	7889.95
455.81	7698.02
455.99	7896.97
456.17	7880.58
456.36	8042.08
456.54	8184.85
456.73	8098.25
456.91	8290.18
457.09	8102.93
457.28	8278.47
457.46	8189.53
457.64	8098.25
457.83	8248.05
458.01	8021.02
458.19	8257.41
458.38	8208.26
458.56	8269.11
458.74	8365.07
458.93	8201.24
459.11	8252.73
459.29	8491.46
459.48	8615.51
459.66	8397.84
459.84	8475.08
460.03	8854.25
460.21	8638.92
460.39	8549.98
460.57	8503.17
460.76	8720.84
460.94	8702.11
461.12	8617.85
461.31	8791.05
461.49	8887.01
461.67	8634.24
461.85	9006.38
462.04	8910.42
462.22	9252.14
462.40	8985.32
462.59	8978.30
462.77	8774.67
462.95	9172.56
463.13	9067.24
463.32	9116.39
463.50	9057.87
463.68	8992.34
463.86	9100.00
464.05	8973.61
464.23	9195.96
464.41	9310.65
464.59	9174.90
464.78	9165.54
464.96	9350.44
465.14	9102.34
465.32	9479.17
465.50	9467.47
465.69	9575.13
465.87	9298.95
466.05	9254.48
466.23	9256.82
466.41	9179.58
466.60	9528.32
466.78	9240.44
466.96	9329.38
467.14	9341.08
467.32	9507.26
467.51	9621.94
467.69	9212.35
467.87	9261.50
468.05	9706.20
468.23	9610.24
468.41	9497.89
468.60	9607.90
468.78	9713.22
468.96	9635.99
469.14	9788.12
469.32	10010.47
469.50	9774.08
469.69	9804.50
469.87	10045.58
470.05	9923.87
470.23	10097.07
470.41	9996.43
470.59	10003.45
470.77	10211.76
470.95	9930.89
471.14	10235.16
471.32	9970.68
471.50	10239.84
471.68	10324.10
471.86	10366.23
472.04	10572.20
472.22	10597.95
472.40	10450.49
472.58	10384.96
472.77	10579.22
472.95	10551.14
473.13	10841.36
473.31	10684.55
473.49	10799.23
473.67	10668.16
473.85	10691.57
474.03	10993.50
474.21	10916.26
474.39	11445.22
474.57	11145.63
474.75	11227.55
474.93	11370.32
475.12	11154.99
475.30	11222.87
475.48	11229.89
475.66	11400.75
475.84	11473.31
476.02	11454.58
476.20	11597.35
476.38	11698.00
476.56	12037.38
476.74	11969.50
476.92	11946.09
477.10	12308.88
477.28	12458.67
477.46	12191.85
477.64	12241.00
477.82	12596.76
478.00	12671.66
478.18	12486.76
478.36	12624.85
478.54	12685.70
478.72	12858.90
478.90	13114.02
479.08	13071.89
479.26	13238.07
479.44	13329.35
479.62	13247.43
479.80	13390.20
479.98	13504.89
480.16	13926.19
480.34	13666.39
480.52	13975.34
480.70	14155.56
480.88	13930.87
481.06	14017.47
481.24	14265.57
481.41	14321.74
481.59	14637.71
481.77	14595.58
481.95	14750.06
482.13	14895.17
482.31	14916.23
482.49	14981.77
482.67	15051.99
482.85	15382.00
483.03	15314.13
483.21	15494.35
483.39	15564.56
483.57	15482.64
483.74	15662.86
483.92	15697.97
484.10	15712.02
484.28	15779.89
484.46	16243.32
484.64	16596.74
484.82	16180.12
485.00	16292.47
485.18	16746.53
485.35	16776.96
485.53	16662.27
485.71	16486.73
485.89	16669.30
486.07	16465.67
486.25	16748.87
486.43	17151.45
486.61	17174.85
486.78	17415.93
486.96	17348.05
487.14	17877.01
487.32	18019.78
487.50	18122.77
487.68	18314.69
487.85	18740.67
488.03	18733.65
488.21	18644.71
488.39	18637.69
488.57	18520.66
488.75	18860.04
488.92	19323.46
489.10	19777.53
489.28	19431.13
489.46	19896.89
489.64	19784.55
489.81	20292.44
489.99	20400.11
490.17	20360.32
490.35	20446.92
490.53	20453.94
490.70	20376.70
490.88	20718.42
491.06	21085.89
491.24	20624.80
491.41	20814.38
491.59	20957.16
491.77	21095.25
491.95	21209.93
492.13	21404.20
492.30	21837.20
492.48	22003.38
492.66	21572.72
492.84	21858.26
493.01	22403.61
493.19	22501.91
493.37	22174.24
493.54	22427.01
493.72	22740.64
493.90	22567.45
494.08	23262.58
494.25	23300.03
494.43	23644.09
494.61	23784.52
494.79	23791.55
494.96	23784.52
495.14	23616.01
495.32	24025.60
495.49	23812.61
495.67	24046.66
495.85	24247.95
496.02	24648.18
496.20	24505.41
496.38	24456.26
496.55	24807.34
496.73	25340.98
496.91	25308.21
497.09	25392.47
497.26	25284.81
497.44	25287.15
497.62	24957.13
497.79	25600.78
497.97	25446.30
498.14	25558.65
498.32	26026.76
498.50	25893.35
498.67	26281.88
498.85	25883.98
499.03	26199.96
499.20	26745.30
499.38	26473.80
499.56	26338.05
499.73	26775.73
499.91	26707.85
500.08	26618.91
500.26	26431.67
500.44	27051.91
500.61	27192.34
500.79	27002.76
500.97	27187.66
501.14	27143.19
501.32	27646.41
501.49	27250.86
501.67	27503.64
501.84	27541.08
502.02	27674.49
502.20	27695.56
502.37	28126.22
502.55	28079.41
502.72	28060.68
502.90	28294.74
503.07	28135.58
503.25	27840.67
503.43	28187.07
503.60	28737.10
503.78	28496.02
503.95	28505.38
504.13	28821.36
504.30	29177.12
504.48	29158.39
504.65	28833.06
504.83	29336.27
505.01	29420.53
505.18	29111.58
505.36	29591.39
505.53	29893.32
505.71	30029.07
505.88	29830.13
506.06	29457.98
506.23	29764.59
506.41	29724.80
506.58	30235.04
506.76	30195.25
506.93	30176.53
507.11	30192.91
507.28	30171.85
507.46	29940.13
507.63	30213.98
507.81	30541.65
507.98	30431.65
508.16	30675.06
508.33	30698.47
508.50	31297.64
508.68	31012.10
508.85	31232.11
509.03	31171.25
509.20	31117.42
509.38	31452.12
509.55	31189.98
509.73	31660.43
509.90	31901.50
510.08	31536.38
510.25	31622.98
510.42	31730.64
510.60	32280.67
510.77	31831.29
510.95	32655.15
511.12	32046.62
511.30	32488.98
511.47	32182.37
511.64	32664.52
511.82	33034.32
511.99	32184.71
512.17	33116.24
512.34	32240.88
512.51	32833.04
512.69	32947.72
512.86	32634.09
513.04	32800.27
513.21	33048.36
513.38	33268.37
513.56	33495.41
513.73	32818.99
513.90	33237.95
514.08	33240.29
514.25	33378.38
514.43	33331.57
514.60	33560.94
514.77	33446.26
514.95	34206.93
515.12	33563.28
515.29	33902.66
515.47	34143.74
515.64	34335.66
515.81	33893.30
515.99	33584.35
516.16	34113.31
516.33	33998.62
516.51	34054.79
516.68	33200.50
516.85	33425.19
517.03	33699.03
517.20	34129.69
517.37	34382.47
517.54	35037.82
517.72	34448.00
517.89	34244.38
518.06	34099.26
518.24	34616.52
518.41	34132.03
518.58	34672.70
518.75	34864.62
518.93	35634.66
519.10	35353.79
519.27	34967.60
519.45	34948.88
519.62	35257.83
519.79	35608.91
519.96	35732.96
520.14	35578.48
520.31	35786.79
520.48	35835.94
520.65	35866.37
520.83	36238.51
521.00	35885.09
521.17	35913.18
521.34	36341.50
521.52	36264.26
521.69	36140.21
521.86	36783.86
522.03	36666.83
522.20	36378.95
522.38	36711.30
522.55	36978.12
522.72	36163.62
522.89	36800.24
523.07	36802.58
523.24	36613.00
523.41	37076.43
523.58	36877.48
523.75	37638.15
523.92	37701.35
524.10	37598.37
524.27	37818.38
524.44	37153.66
524.61	37397.08
524.78	37984.55
524.96	37462.61
525.13	37652.20
525.30	38094.56
525.47	38080.52
525.64	38052.43
525.81	37691.99
525.98	37490.70
526.16	37469.64
526.33	37455.59
526.50	37996.26
526.67	37392.40
526.84	37453.25
527.01	37853.48
527.18	37860.51
527.36	38766.29
527.53	38230.31
527.70	38621.18
527.87	38768.63
528.04	38759.27
528.21	38520.54
528.38	38794.38
528.55	39028.43
528.72	39119.71
528.89	39407.60
529.07	38632.88
529.24	38899.70
529.41	39014.39
529.58	38974.60
529.75	38955.88
529.92	39625.27
530.09	39522.29
530.26	39426.32
530.43	39606.55
530.60	39316.32
530.77	39353.77
530.94	39686.12
531.11	39386.54
531.28	39522.29
531.46	39934.22
531.63	39878.05
531.80	39768.04
531.97	39604.20
532.14	39449.73
532.31	39798.47
532.48	40048.91
532.65	40339.13
532.82	39730.59
532.99	40151.89
533.16	39899.11
533.33	40493.61
533.50	40589.57
533.67	40116.78
533.84	40018.48
534.01	40079.33
534.18	40531.06
534.35	40245.51
534.52	40526.38
534.69	40620.00
534.86	40870.43
535.03	40615.32
535.20	40802.56
535.37	41123.21
535.54	40931.29
535.71	40854.05
535.88	40617.66
536.05	40683.19
536.22	40933.63
536.38	41198.11
536.55	40741.71
536.72	40968.74
536.89	40664.47
537.06	40821.28
537.23	41486.00
537.40	41455.57
537.57	41530.47
537.74	41584.30
537.91	41804.31
538.08	42007.94
538.25	41406.42
538.42	41228.54
538.59	41769.20
538.75	41406.42
538.92	41574.94
539.09	41975.17
539.26	41411.10
539.43	41268.33
539.60	41820.69
539.77	41523.44
539.94	41727.07
540.11	41415.78
540.28	41940.06
540.44	41649.83
540.61	41610.04
540.78	42108.58
540.95	41467.27
541.12	41717.71
541.29	41869.84
541.46	42291.14
541.62	42183.48
541.79	42857.55
541.96	41741.11
542.13	42522.85
542.30	41982.19
542.47	42553.28
542.63	42415.19
542.80	42438.59
542.97	42841.17
543.14	42899.68
543.31	42534.56
543.48	42593.07
543.64	43042.45
543.81	43225.01
543.98	42974.58
544.15	42948.83
544.32	43107.99
544.48	43854.62
544.65	42887.98
544.82	42852.87
544.99	42946.49
545.16	43077.56
545.32	42930.11
545.49	43342.04
545.66	43782.06
545.83	43484.81
546.00	43484.81
546.16	43798.44
546.33	43328.00
546.50	43569.07
546.67	43253.10
546.83	43239.06
547.00	43615.88
547.17	43356.08
547.34	43400.55
547.50	43749.29
547.67	43744.61
547.84	43611.20
548.00	44060.58
548.17	43915.47
548.34	43761.00
548.51	43833.55
548.67	44442.09
548.84	43999.73
549.01	44304.00
549.18	44100.37
549.34	43978.67
549.51	44065.27
549.68	43896.75
549.84	43709.50
550.01	44086.33
550.18	44009.09
550.34	44158.89
550.51	44498.26
550.68	44128.46
550.84	43948.24
551.01	44308.68
551.18	44009.09
551.34	44399.96
551.51	44458.48
551.68	44360.17
551.84	44999.14
552.01	44149.53
552.18	44264.21
552.34	44584.86
552.51	44566.14
552.68	44542.74
552.84	44814.24
553.01	45074.04
553.18	44591.89
553.34	44406.98
553.51	44325.07
553.67	44362.51
553.84	45572.57
554.01	44961.69
554.17	44992.12
554.34	45181.70
554.51	45198.09
554.67	45151.27
554.84	44966.37
555.00	44624.65
555.17	44865.73
555.33	45095.10
555.50	44844.66
555.67	45200.43
555.83	44985.10
556.00	44697.21
556.16	45382.99
556.33	45268.30
556.50	45315.11
556.66	45230.85
556.83	44982.76
556.99	45123.19
557.16	45216.81
557.32	45261.28
557.49	45471.93
557.65	45296.39
557.82	45326.81
557.98	45160.64
558.15	45434.48
558.32	45413.41
558.48	45422.78
558.65	45085.74
558.81	45027.23
558.98	45043.61
559.14	45090.42
559.31	45205.11
559.47	45429.80
559.64	45446.18
559.80	45581.93
559.97	45879.18
560.13	44924.24
560.30	45308.09
560.46	45844.07
560.63	45551.51
560.79	45750.45
560.96	45813.65
561.12	45378.31
561.29	45584.27
561.45	45455.54
561.61	45958.76
561.78	45713.00
561.94	45319.79
562.11	45434.48
562.27	45050.63
562.44	45757.47
562.60	46366.01
562.77	46319.20
562.93	45137.23
563.10	45801.94
563.26	45879.18
563.42	46492.40
563.59	45654.49
563.75	45968.12
563.92	46092.17
564.08	45528.10
564.24	45996.21
564.41	45844.07
564.57	45961.10
564.74	45607.68
564.90	45858.12
565.07	45914.29
565.23	46059.40
565.39	45539.80
565.56	45961.10
565.72	45930.67
565.88	46003.23
566.05	45628.74
566.21	46026.63
566.38	45787.90
566.54	45799.60
566.70	46387.08
566.87	46461.97
567.03	46286.43
567.19	46794.33
567.36	46099.19
567.52	46054.72
567.68	46089.83
567.85	45808.96
568.01	46120.26
568.17	46000.89
568.34	46171.75
568.50	46220.90
568.66	46021.95
568.83	46007.91
568.99	45518.74
569.15	46096.85
569.32	46080.47
569.48	46012.59
569.64	46366.01
569.81	46089.83
569.97	46148.34
570.13	46092.17
570.30	45815.99
570.46	45701.30
570.62	45748.11
570.78	45642.79
570.95	46157.70
571.11	46263.03
571.27	45855.78
571.43	45904.93
571.60	46237.28
571.76	45907.27
571.92	46195.15
572.09	45867.48
572.25	46064.08
572.41	45944.72
572.57	46342.61
572.74	46625.81
572.90	46260.69
573.06	46106.21
573.22	46300.48
573.38	46309.84
573.55	46277.07
573.71	46461.97
573.87	46445.59
574.03	46298.14
574.20	46075.79
574.36	46419.84
574.52	45996.21
574.68	45998.55
574.84	46167.07
575.01	46115.58
575.17	46267.71
575.33	45972.80
575.49	46248.99
575.65	46064.08
575.82	46213.88
575.98	46143.66
576.14	46522.83
576.30	46380.06
576.46	46115.58
576.62	46192.81
576.79	46377.72
576.95	45865.14
577.11	46342.61
577.27	46862.21
577.43	46174.09
577.59	46218.56
577.75	45921.31
577.92	46050.04
578.08	45907.27
578.24	45989.19
578.40	46314.52
578.56	46330.90
578.72	46581.34
578.88	46358.99
579.04	46471.34
579.21	46115.58
579.37	46101.53
579.53	46234.94
579.69	46263.03
579.85	46253.67
580.01	46295.80
580.17	46094.51
580.33	46143.66
580.49	46162.39
580.65	46492.40
580.82	46160.05
580.98	46113.23
581.14	46129.62
581.30	46384.74
581.46	46216.22
581.62	46560.28
581.78	46330.90
581.94	46784.97
582.10	46600.07
582.26	46581.34
582.42	46256.01
582.58	46686.67
582.74	46658.58
582.90	46251.33
583.06	46735.82
583.22	46148.34
583.38	46848.16
583.54	46630.49
583.70	46738.16
583.86	46354.31
584.02	46073.45
584.18	46291.12
584.34	46178.77
584.50	46454.95
584.66	46483.04
584.82	46616.45
584.98	46571.98
585.14	46791.99
585.30	46127.28
585.46	46478.36
585.62	46307.50
585.78	46096.85
585.94	45876.84
586.10	46405.80
586.26	46153.02
586.42	46766.24
586.58	46820.08
586.74	46548.57
586.90	46260.69
587.06	46354.31
587.22	46508.79
587.38	46213.88
587.54	46417.50
587.70	46574.32
587.86	46384.74
588.02	46185.79
588.18	46480.70
588.34	45839.39
588.49	45593.64
588.65	46183.45
588.81	45645.13
588.97	46169.41
589.13	45846.41
589.29	46024.29
589.45	46082.81
589.61	46071.10
589.77	46213.88
589.93	46588.36
590.08	46440.91
590.24	46710.07
590.40	46658.58
590.56	46885.61
590.72	46162.39
590.88	46562.62
591.04	46611.77
591.20	47014.34
591.35	46801.35
591.51	46997.96
591.67	46328.56
591.83	46461.97
591.99	46672.62
592.15	46426.87
592.31	46494.74
592.46	46848.16
592.62	46281.75
592.78	46712.41
592.94	46286.43
593.10	46550.91
593.26	46527.51
593.41	46358.99
593.57	46440.91
593.73	46129.62
593.89	46892.63
594.05	46162.39
594.20	46548.57
594.36	46536.87
594.52	46138.98
594.68	46171.75
594.84	46080.47
594.99	46731.14
595.15	46302.82
595.31	46796.67
595.47	46721.77
595.62	46663.26
595.78	46382.40
595.94	46600.07
596.10	46651.56
596.25	46469.00
596.41	47098.60
596.57	46550.91
596.73	46623.47
596.88	46286.43
597.04	46822.42
597.20	46742.84
597.36	46358.99
597.51	46761.56
597.67	46471.34
597.83	46635.17
597.99	46696.03
598.14	46508.79
598.30	46288.77
598.46	46625.81
598.61	46630.49
598.77	46124.94
598.93	46653.90
599.09	46387.08
599.24	46799.01
599.40	46368.35
599.56	46684.33
599.71	46415.16
599.87	46618.79
600.03	46855.18
600.18	46658.58
600.34	46302.82
600.50	46635.17
600.65	46082.81
600.81	46564.96
600.97	46483.04
601.12	46513.47
601.28	46958.17
601.44	46089.83
601.59	46351.97
601.75	46164.73
601.91	46192.81
602.06	46724.11
602.22	46548.57
602.37	46555.60
602.53	46115.58
602.69	46717.09
602.84	46309.84
603.00	46628.15
603.16	46747.52
603.31	46176.43
603.47	46422.19
603.62	46188.13
603.78	46892.63
603.94	46616.45
604.09	46508.79
604.25	46335.59
604.40	46630.49
604.56	46506.44
604.71	46436.23
604.87	46527.51
605.03	46459.63
605.18	46239.62
605.34	46356.65
605.49	46117.92
605.65	46307.50
605.80	46312.18
605.96	46241.96
606.12	46621.13
606.27	46417.50
606.43	46000.89
606.58	46153.02
606.74	46361.33
606.89	46344.95
607.05	46328.56
607.20	46518.15
607.36	46272.39
607.51	46614.11
607.67	46562.62
607.82	46499.42
607.98	45956.42
608.13	46012.59
608.29	46061.74
608.44	45759.81
608.60	45982.16
608.75	46363.67
608.91	46366.01
609.06	46155.36
609.22	46150.68
609.37	45900.25
609.53	46618.79
609.68	46443.25
609.84	46494.74
609.99	45621.72
610.15	46148.34
610.30	45886.20
610.46	45221.49
610.61	45897.91
610.76	46162.39
610.92	45986.85
611.07	46057.06
611.23	45790.24
611.38	45998.55
611.54	45727.05
611.69	45713.00
611.84	45029.57
612.00	45420.44
612.15	45698.96
612.31	45703.64
612.46	45661.51
612.62	45750.45
612.77	45544.48
612.92	45797.26
613.08	45598.32
613.23	45418.10
613.39	45701.30
613.54	44804.88
613.69	45357.24
613.85	45134.89
614.00	45551.51
614.15	45352.56
614.31	45170.00
614.46	45792.58
614.62	45401.71
614.77	45759.81
614.92	45457.88
615.08	45469.59
615.23	45048.29
615.38	45371.28
615.54	45251.92
615.69	45146.59
615.84	45172.34
616.00	44839.98
616.15	44711.25
616.30	44999.14
616.46	44704.23
616.61	44584.86
616.76	45235.53
616.92	44339.11
617.07	44893.82
617.22	44818.92
617.37	44624.65
617.53	45235.53
617.68	45113.83
617.83	45055.31
617.99	44945.31
618.14	44900.84
618.29	44903.18
618.45	44786.15
618.60	44615.29
618.75	44531.03
618.90	44222.08
619.06	44608.27
619.21	44404.64
619.36	44949.99
619.51	44486.56
619.67	44582.52
619.82	44861.05
619.97	44575.50
620.12	44184.63
620.28	44123.78
620.43	44205.70
620.58	44535.71
620.73	43746.95
620.89	44718.28
621.04	44322.72
621.19	44800.19
621.34	44580.18
621.49	44528.69
621.65	44098.03
621.80	44509.97
621.95	43915.47
622.10	44514.65
622.25	44081.65
622.41	44261.87
622.56	44051.22
622.71	44453.79
622.86	43880.36
623.01	43964.62
623.16	44081.65
623.32	43896.75
623.47	43555.03
623.62	44039.52
623.77	44126.12
623.92	43976.33
624.07	43529.28
624.23	43693.12
624.38	43690.78
624.53	43739.93
624.68	44032.50
624.83	43856.96
624.98	43913.13
625.13	43009.68
625.29	43058.84
625.44	43255.44
625.59	43246.08
625.74	43562.05
625.89	43288.21
626.04	43173.52
626.19	43632.27
626.34	43508.22
626.49	43330.34
626.65	43086.92
626.80	43833.55
626.95	43014.37
627.10	43061.18
627.25	43732.91
627.40	42899.68
627.55	42684.35
627.70	42965.21
627.85	43157.14
628.00	43030.75
628.15	42611.79
628.30	42850.53
628.45	43072.88
628.60	42759.25
628.76	43096.28
628.91	43040.11
629.06	42801.38
629.21	43049.47
629.36	42265.39
629.51	42337.95
629.66	42574.34
629.81	42436.25
629.96	42562.64
630.11	42333.27
630.26	42841.17
630.41	42651.58
630.56	42703.07
630.71	42440.93
630.86	42621.16
631.01	42424.55
631.16	41961.12
631.31	42099.22
631.46	41731.75
631.61	42539.24
631.76	42232.63
631.91	42541.58
632.06	42319.23
632.21	42747.54
632.36	42768.61
632.51	42139.00
632.66	42127.30
632.81	42047.72
632.96	42359.02
633.10	42115.60
633.25	42059.43
633.40	42340.29
633.55	42204.54
633.70	42031.34
633.85	41532.81
634.00	41804.31
634.15	41904.95
634.30	41638.13
634.45	41799.63
634.60	41933.04
634.75	41401.74
634.90	41759.84
635.05	42029.00
635.19	41443.87
635.34	42174.11
635.49	41680.26
635.64	41631.11
635.79	41577.28
635.94	41731.75
636.09	41474.29
636.24	41291.73
636.39	41160.66
636.53	41301.09
636.68	41251.94
636.83	41359.61
636.98	41294.07
637.13	41038.95
637.28	41387.69
637.43	41195.77
637.57	41081.08
637.72	41453.23
637.87	41553.87
638.02	41308.11
638.17	41191.09
638.32	41097.47
638.46	40582.55
638.61	40847.03
638.76	41359.61
638.91	41490.68
639.06	40732.34
639.20	41216.83
639.35	41177.04
639.50	40840.01
639.65	41095.13
639.80	40786.18
639.94	40999.16
640.09	41015.55
640.24	40533.40
640.39	40734.68
640.54	40718.30
640.68	40666.81
640.83	40811.92
640.98	40304.02
641.13	40409.35
641.27	40964.06
641.42	40531.06
641.57	40229.13
641.72	40053.59
641.86	40636.38
642.01	40446.80
642.16	40175.30
642.31	40191.68
642.45	40322.75
642.60	40280.62
642.75	40334.45
642.90	40346.15
643.04	40378.92
643.19	39943.58
643.34	40100.40
643.48	40231.47
643.63	39945.92
643.78	40273.60
643.93	40456.16
644.07	40060.61
644.22	39917.84
644.37	40238.49
644.51	39952.94
644.66	40238.49
644.81	40149.55
644.95	40112.10
645.10	40165.93
645.25	40053.59
645.39	40133.17
645.54	39913.16
645.69	39791.45
645.83	39440.37
645.98	39075.24
646.13	39487.18
646.27	39789.11
646.42	39391.22
646.57	39566.76
646.71	39459.09
646.86	39707.19
647.00	39438.03
647.15	39480.16
647.30	39461.43
647.44	39496.54
647.59	39412.28
647.74	39108.01
647.88	39068.22
648.03	39618.25
648.17	39461.43
648.32	39328.02
648.47	39246.10
648.61	38998.01
648.76	39000.35
648.90	39232.06
649.05	39016.73
649.20	39615.91
649.34	38792.04
649.49	38663.31
649.63	38785.02
649.78	39470.79
649.92	39166.52
650.07	39194.61
650.21	39033.11
650.36	38822.47
650.51	39129.08
650.65	39131.42
650.80	39323.34
650.94	39395.90
651.09	38810.76
651.23	38227.97
651.38	38719.48
651.52	38536.92
651.67	38492.45
651.81	38354.36
651.96	38436.28
652.10	38719.48
652.25	38504.15
652.39	39019.07
652.54	38932.47
652.68	38038.39
652.83	38742.89
652.97	38656.29
653.12	38302.87
653.26	38480.75
653.41	38352.02
653.55	38108.60
653.70	38600.12
653.84	38384.79
653.99	37986.89
654.13	38251.38
654.27	38124.99
654.42	37895.61
654.56	38178.82
654.71	38057.11
654.85	37748.16
655.00	38148.39
655.14	37872.21
655.29	37638.15
655.43	38082.86
655.57	37343.25
655.72	37598.37
655.86	37509.43
656.01	37230.90
656.15	36851.73
656.30	37315.16
656.44	37378.36
656.58	37792.63
656.73	37483.68
656.87	37453.25
657.01	37371.33
657.16	37345.59
657.30	37008.55
657.45	37085.79
657.59	36854.08
657.73	37235.58
657.88	37614.75
658.02	37708.37
658.16	37507.08
658.31	37731.78
658.45	37291.76
658.60	37015.57
658.74	37146.64
658.88	37684.97
659.03	36910.25
659.17	36938.33
659.31	36896.20
659.46	37235.58
659.60	37174.73
659.74	37036.64
659.89	37029.62
660.03	36671.51
660.17	36772.16
660.32	37001.53
660.46	37022.59
660.60	36800.24
660.74	36893.86
660.89	36678.54
661.03	36437.46
661.17	36800.24
661.32	36467.89
661.46	36673.85
661.60	36290.01
661.74	35936.59
661.89	36165.96
662.03	36437.46
662.17	36488.95
662.31	35915.52
662.46	36666.83
662.60	36790.88
662.74	36203.41
662.88	35962.33
663.03	36070.00
663.17	35922.54
663.31	35711.89
663.45	35805.52
663.60	35660.40
663.74	35693.17
663.88	35615.93
664.02	35519.97
664.17	35793.81
664.31	35454.44
664.45	35225.06
664.59	35278.89
664.73	35512.95
664.88	35241.45
665.02	34766.32
665.16	35253.15
665.30	34965.26
665.44	34742.91
665.59	34869.30
665.73	34745.25
665.87	34639.93
666.01	34663.33
666.15	34771.00
666.29	34363.75
666.44	35159.53
666.58	34679.72
666.72	34546.31
666.86	34539.29
667.00	34440.98
667.14	33895.64
667.28	34504.18
667.43	34286.51
667.57	34597.80
667.71	34492.47
667.85	34220.97
667.99	33998.62
668.13	34146.08
668.27	34237.36
668.41	34132.03
668.56	34436.30
668.70	33909.68
668.84	33270.72
668.98	33701.37
669.12	33802.02
669.26	33764.57
669.40	33528.17
669.54	33259.01
669.68	33750.52
669.82	33427.53
669.96	33596.05
670.10	32943.04
670.25	33205.18
670.39	32753.46
670.53	32961.76
670.67	33228.59
670.81	33354.97
670.95	33041.34
671.09	32575.58
671.23	32411.74
671.37	33022.62
671.51	32540.47
671.65	32453.87
671.79	32573.24
671.93	32154.28
672.07	32676.22
672.21	32187.05
672.35	32320.46
672.49	32273.65
672.63	32503.02
672.77	32594.30
672.91	32418.76
673.05	32151.94
673.19	31950.65
673.33	31763.41
673.47	31552.76
673.61	31711.92
673.75	31381.90
673.89	31498.93
674.03	31646.38
674.17	31487.23
674.31	31435.74
674.45	31503.61
674.59	31456.80
674.73	31735.32
674.87	31723.62
675.01	30796.77
675.15	31356.16
675.29	30635.27
675.43	30927.84
675.56	30803.79
675.70	30513.56
675.84	31152.53
675.98	29921.41
676.12	30665.70
676.26	30668.04
676.40	30771.02
676.54	30370.79
676.68	30326.32
676.82	29883.96
676.96	29951.84
677.10	29951.84
677.23	29979.92
677.37	29504.79
677.51	29951.84
677.65	29198.18
677.79	29102.22
677.93	29106.90
678.07	28779.23
678.21	29207.55
678.34	28484.32
678.48	28795.61
678.62	28547.51
678.76	28386.02
678.90	28601.35
679.04	28453.89
679.18	28694.97
679.31	28126.22
679.45	28266.65
679.59	27962.38
679.73	28187.07
679.87	27887.48
680.00	28088.77
680.14	27641.73
680.28	28233.88
680.42	27946.00
680.56	27641.73
680.70	27449.80
680.83	27681.52
680.97	27323.41
681.11	27489.59
681.25	27173.62
681.39	27676.83
681.52	27267.24
681.66	27363.20
681.80	27204.05
681.94	26899.78
682.07	26923.18
682.21	26382.52
682.35	26548.70
682.49	26787.43
682.62	26316.98
682.76	26258.47
682.90	26122.72
683.04	26281.88
683.17	26045.48
683.31	25949.52
683.45	26054.84
683.59	25654.61
683.72	25764.62
683.86	25743.55
684.00	25666.31
684.13	25678.02
684.27	25223.95
684.41	25598.44
684.55	25116.29
684.68	25207.57
684.82	25209.91
684.96	24840.11
685.09	24776.91
685.23	24961.81
685.37	24889.26
685.50	24577.97
685.64	24505.41
685.78	24360.30
685.91	24196.46
686.05	24077.09
686.19	24034.96
686.32	23892.19
686.46	23587.92
686.60	23438.12
686.73	23304.71
686.87	23543.45
687.01	23372.59
687.14	23058.96
687.28	22794.48
687.42	23164.28
687.55	23110.45
687.69	23007.47
687.82	22906.82
687.96	22558.08
688.10	22808.52
688.23	22691.49
688.37	22738.30
688.50	22466.80
688.64	22396.59
688.78	22583.83
688.91	22279.56
689.05	22111.04
689.18	21942.52
689.32	21961.25
689.46	22396.59
689.59	22338.07
689.73	22221.05
689.86	22054.87
690.00	21848.90
690.13	21757.62
690.27	21532.93
690.41	21392.50
690.54	21338.66
690.68	21249.72
690.81	21434.63
690.95	21453.35
691.08	21200.57
691.22	21027.37
691.35	21373.77
691.49	21390.16
691.62	21043.76
691.76	20905.66
691.89	20723.10
692.03	20650.55
692.16	20692.68
692.30	20573.31
692.43	20589.69
692.57	20280.74
692.70	20149.67
692.84	19974.13
692.97	19948.39
693.11	19969.45
693.24	19470.92
693.38	19840.72
693.51	19562.20
693.65	19714.33
693.78	19611.35
693.92	19548.15
694.05	19403.04
694.19	19449.85
694.32	19302.40
694.45	19473.26
694.59	19438.15
694.72	18960.68
694.86	18853.02
694.99	18902.17
695.13	18871.74
695.26	18532.36
695.39	18410.65
695.53	18878.76
695.66	18998.13
695.80	18382.57
695.93	18766.42
696.07	18569.81
696.20	18473.85
696.33	18314.69
696.47	18106.38
696.60	18148.51
696.73	17869.99
696.87	17724.88
697.00	17771.69
697.14	17748.28
697.27	17659.34
697.40	17500.19
697.54	17144.42
697.67	17575.08
697.80	17216.98
697.94	17137.40
698.07	17160.81
698.21	17022.72
698.34	17139.74
698.47	17111.66
698.61	16891.65
698.74	16791.00
698.87	16858.88
699.01	16505.46
699.14	16353.32
699.27	16489.07
699.40	16233.96
699.54	16219.91
699.67	16358.00
699.80	16128.63
699.94	16159.06
700.07	16098.20
700.20	16238.64
700.34	16336.94
700.47	16013.95
700.60	15770.53
700.73	16217.57
700.87	15761.17
701.00	15606.69
701.13	15676.91
701.26	15482.64
701.40	15602.01
701.53	15662.86
701.66	15543.50
701.79	15360.94
701.93	15089.43
702.06	14824.95
702.19	15213.48
702.32	15000.49
702.46	14897.51
702.59	15089.43
702.72	14733.67
702.85	14853.04
702.99	14539.41
703.12	14712.61
703.25	14656.43
703.38	14621.33
703.51	14506.64
703.65	14389.61
703.78	14270.25
703.91	13942.57
704.04	14064.28
704.17	13984.70
704.31	13865.33
704.44	13820.86
704.57	13774.05
704.70	13397.23
704.83	13788.10
704.96	13764.69
705.10	13603.19
705.23	13645.32
>>>>>End Processed Spectral Data<<<<<
