SpectraSuite Data File
++++++++++++++++++++++++++++++++++++
Date: Fri Oct 25 11:34:15 EDT 2013
User: price-jones
Dark Spectrum Present: No
Reference Spectrum Present: No
Number of Sampled Component Spectra: 1
Spectrometers: USB2+H05261
Integration Time (usec): 100000 (USB2+H05261)
Spectra Averaged: 1 (USB2+H05261)
Boxcar Smoothing: 0 (USB2+H05261)
Correct for Electrical Dark: No (USB2+H05261)
Strobe/Lamp Enabled: No (USB2+H05261)
Correct for Detector Non-linearity: No (USB2+H05261)
Correct for Stray Light: No (USB2+H05261)
Number of Pixels in Processed Spectrum: 2048
>>>>>Begin Processed Spectral Data<<<<<
365.73	278.52
365.92	278.52
366.12	278.52
366.32	191.92
366.52	243.42
366.72	194.26
366.91	191.92
367.11	212.99
367.31	180.22
367.51	191.92
367.70	163.84
367.90	287.89
368.10	173.20
368.30	205.97
368.49	212.99
368.69	215.33
368.89	201.29
369.09	255.12
369.28	238.73
369.48	184.90
369.68	222.35
369.87	285.55
370.07	243.42
370.27	220.01
370.47	348.74
370.66	465.77
370.86	500.87
371.06	575.77
371.25	533.64
371.45	575.77
371.65	554.71
371.84	540.66
372.04	519.60
372.24	587.47
372.44	545.34
372.63	645.99
372.83	634.29
373.03	664.71
373.22	622.58
373.42	601.52
373.62	545.34
373.81	636.63
374.01	676.41
374.21	648.33
374.40	622.58
374.60	685.78
374.79	631.94
374.99	629.60
375.19	667.05
375.38	727.91
375.58	685.78
375.78	636.63
375.97	669.39
376.17	645.99
376.37	615.56
376.56	716.20
376.76	641.31
376.95	603.86
377.15	615.56
377.35	648.33
377.54	711.52
377.74	662.37
377.93	732.59
378.13	730.25
378.33	706.84
378.52	732.59
378.72	709.18
378.91	770.04
379.11	748.97
379.31	718.54
379.50	723.23
379.70	699.82
379.89	716.20
380.09	681.10
380.28	671.73
380.48	695.14
380.68	620.24
380.87	723.23
381.07	767.70
381.26	755.99
381.46	681.10
381.65	795.78
381.85	718.54
382.04	763.01
382.24	800.46
382.43	800.46
382.63	737.27
382.83	751.31
383.02	774.72
383.22	819.19
383.41	739.61
383.61	788.76
383.80	858.98
384.00	842.59
384.19	786.42
384.39	746.63
384.58	837.91
384.78	755.99
384.97	887.06
385.17	814.51
385.36	784.08
385.56	880.04
385.75	779.40
385.95	882.38
386.14	868.34
386.34	887.06
386.53	830.89
386.72	866.00
386.92	793.44
387.11	851.96
387.31	938.55
387.50	823.87
387.70	840.25
387.89	901.11
388.09	926.85
388.28	889.40
388.48	896.43
388.67	926.85
388.86	905.79
389.06	926.85
389.25	931.53
389.45	943.24
389.64	896.43
389.84	971.32
390.03	896.43
390.22	933.87
390.42	891.74
390.61	922.17
390.81	943.24
391.00	1008.77
391.19	1069.62
391.39	978.34
391.58	985.37
391.78	952.60
391.97	1027.50
392.16	992.39
392.36	1071.97
392.55	1029.84
392.75	1018.13
392.94	1074.31
393.13	1034.52
393.33	1006.43
393.52	1121.12
393.71	1062.60
393.91	1090.69
394.10	1018.13
394.29	985.37
394.49	1097.71
394.68	1062.60
394.88	1081.33
395.07	1036.86
395.26	1128.14
395.46	1256.87
395.65	1097.71
395.84	1153.88
396.04	1263.89
396.23	1179.63
396.42	1221.76
396.62	1165.59
396.81	1151.54
397.00	1245.16
397.19	1174.95
397.39	1252.19
397.58	1228.78
397.77	1170.27
397.97	1221.76
398.16	1188.99
398.35	1240.48
398.55	1249.85
398.74	1235.80
398.93	1338.79
399.12	1242.82
399.32	1256.87
399.51	1334.11
399.70	1327.08
399.90	1291.98
400.09	1324.74
400.28	1366.87
400.47	1303.68
400.67	1378.58
400.86	1348.15
401.05	1315.38
401.24	1348.15
401.44	1451.13
401.63	1364.53
401.82	1376.24
402.01	1455.81
402.21	1437.09
402.40	1458.15
402.59	1526.03
402.78	1444.11
402.97	1504.96
403.17	1540.07
403.36	1493.26
403.55	1519.01
403.74	1579.86
403.93	1549.43
404.13	1561.14
404.32	1593.90
404.51	1526.03
404.70	1551.78
404.89	1530.71
405.09	1643.06
405.28	1582.20
405.47	1603.27
405.66	1701.57
405.85	1743.70
406.05	1596.25
406.24	1685.19
406.43	1699.23
406.62	1708.59
406.81	1713.27
407.00	1701.57
407.20	1671.14
407.39	1743.70
407.58	1834.98
407.77	1785.83
407.96	1802.21
408.15	1790.51
408.34	1827.96
408.54	1961.37
408.73	1886.47
408.92	1921.58
409.11	1881.79
409.30	1905.20
409.49	1921.58
409.68	2008.18
409.87	1923.92
410.07	2001.16
410.26	2001.16
410.45	1928.60
410.64	2083.08
410.83	2059.67
411.02	2008.18
411.21	2122.87
411.40	2097.12
411.59	2085.42
411.78	2174.36
411.98	2153.29
412.17	2162.66
412.36	2146.27
412.55	2251.60
412.74	2310.11
412.93	2275.00
413.12	2176.70
413.31	2427.14
413.50	2260.96
413.69	2361.60
413.88	2352.24
414.07	2399.05
414.26	2277.34
414.45	2534.80
414.64	2485.65
414.83	2424.80
415.02	2473.95
415.22	2607.36
415.41	2518.42
415.60	2567.57
415.79	2576.93
415.98	2686.94
416.17	2623.74
416.36	2715.02
416.55	2679.91
416.74	2754.81
416.93	2703.32
417.12	2803.96
417.31	2935.03
417.50	2794.60
417.69	2815.66
417.88	2853.11
418.07	2799.28
418.26	2789.92
418.45	2928.01
418.64	2909.29
418.83	2967.80
419.02	2958.44
419.21	3105.89
419.39	3016.95
419.58	3098.87
419.77	3007.59
419.96	3049.72
420.15	3124.62
420.34	3061.42
420.53	3187.81
420.72	3173.77
420.91	3166.74
421.10	3213.56
421.29	3199.51
421.48	3131.64
421.67	3185.47
421.86	3267.39
422.05	3215.90
422.24	3173.77
422.43	3332.92
422.61	3258.03
422.80	3265.05
422.99	3318.88
423.18	3229.94
423.37	3368.03
423.56	3405.48
423.75	3253.34
423.94	3222.92
424.13	3094.19
424.32	3190.15
424.50	3293.13
424.69	3445.27
424.88	3321.22
425.07	3243.98
425.26	3258.03
425.45	3307.18
425.64	3318.88
425.83	3314.20
426.01	3358.67
426.20	3426.54
426.39	3302.50
426.58	3358.67
426.77	3288.45
426.96	3414.84
427.15	3407.82
427.33	3428.88
427.52	3445.27
427.71	3428.88
427.90	3574.00
428.09	3508.46
428.28	3775.28
428.46	3569.32
428.65	3473.36
428.84	3712.09
429.03	3754.22
429.22	3524.85
429.40	3742.52
429.59	3630.17
429.78	3463.99
429.97	3515.48
430.16	3719.11
430.34	3672.30
430.53	3845.50
430.72	3768.26
430.91	3775.28
431.10	3817.41
431.28	3918.06
431.47	3857.20
431.66	3939.12
431.85	3786.99
432.03	3880.61
432.22	4025.72
432.41	3969.55
432.60	4021.04
432.79	3918.06
432.97	4004.66
433.16	4007.00
433.35	4007.00
433.54	4016.36
433.72	4084.23
433.91	3997.64
434.10	4159.13
434.28	4119.34
434.47	4131.05
434.66	4147.43
434.85	4170.83
435.03	4264.46
435.22	4159.13
435.41	4327.65
435.59	4329.99
435.78	4264.46
435.97	4236.37
436.16	4198.92
436.34	4327.65
436.53	4287.86
436.72	4257.43
436.90	4367.44
437.09	4404.89
437.28	4479.79
437.46	4327.65
437.65	4386.16
437.84	4592.13
438.02	4564.04
438.21	4554.68
438.40	4362.76
438.58	4575.75
438.77	4613.20
438.96	4657.67
439.14	4674.05
439.33	4791.08
439.52	4957.25
439.70	4814.48
439.89	4861.29
440.08	4950.23
440.26	4833.21
440.45	4922.15
440.63	5064.92
440.82	4975.98
441.01	4823.84
441.19	5053.22
441.38	5074.28
441.57	4997.04
441.75	5238.12
441.94	5404.30
442.12	5135.14
442.31	5352.81
442.50	5289.61
442.68	5144.50
442.87	5399.62
443.05	5313.02
443.24	5373.87
443.43	5376.21
443.61	5378.55
443.80	5458.13
443.98	5329.40
444.17	5163.22
444.35	5359.83
444.54	5434.72
444.73	5451.11
444.91	5518.98
445.10	5535.37
445.28	5544.73
445.47	5514.30
445.65	5441.75
445.84	5570.48
446.02	5472.17
446.21	5516.64
446.39	5584.52
446.58	5509.62
446.77	5444.09
446.95	5416.00
447.14	5582.18
447.32	5628.99
447.51	5605.58
447.69	5502.60
447.88	5610.26
448.06	5504.94
448.25	5830.27
448.43	5561.11
448.62	5575.16
448.80	5565.79
448.99	5643.03
449.17	5767.08
449.36	5678.14
449.54	5776.44
449.73	5858.36
449.91	5959.00
450.10	5858.36
450.28	5797.51
450.46	5928.58
450.65	5949.64
450.83	5797.51
451.02	5975.39
451.20	6038.58
451.39	5970.71
451.57	6099.44
451.76	5923.90
451.94	6066.67
452.13	6059.65
452.31	6136.88
452.49	6047.94
452.68	6008.16
452.86	6218.80
453.05	6118.16
453.23	6171.99
453.42	6272.64
453.60	6080.71
453.78	6279.66
453.97	6303.06
454.15	6157.95
454.34	6218.80
454.52	6333.49
454.70	6363.92
454.89	6422.43
455.07	6253.91
455.26	6492.65
455.44	6504.35
455.62	6459.88
455.81	6424.77
455.99	6520.73
456.17	6520.73
456.36	6532.44
456.54	6551.16
456.73	6878.83
456.91	6829.68
457.09	6953.73
457.28	6946.71
457.46	6810.96
457.64	6892.88
457.83	6885.86
458.01	6656.48
458.19	7066.08
458.38	6834.36
458.56	7115.23
458.74	6939.69
458.93	7005.22
459.11	6993.52
459.29	6953.73
459.48	7035.65
459.66	7124.59
459.84	7180.76
460.03	7328.22
460.21	7117.57
460.39	7105.87
460.57	7283.75
460.76	7386.73
460.94	7227.57
461.12	7232.26
461.31	7307.15
461.49	7389.07
461.67	7492.05
461.85	7492.05
462.04	7316.51
462.22	7960.16
462.40	7508.44
462.59	7454.61
462.77	7627.81
462.95	7470.99
463.13	7585.68
463.32	7606.74
463.50	7702.70
463.68	7616.10
463.86	7669.94
464.05	7674.62
464.23	7667.60
464.41	7714.41
464.59	7665.25
464.78	7859.52
464.96	7662.91
465.14	7653.55
465.32	7749.51
465.50	7901.65
465.69	7894.63
465.87	7822.07
466.05	7779.94
466.23	7868.88
466.41	7866.54
466.60	8044.42
466.78	7885.26
466.96	8053.78
467.14	8011.65
467.32	7985.91
467.51	8133.36
467.69	7978.89
467.87	8116.98
468.05	8299.54
468.23	7929.74
468.41	8196.56
468.60	8215.28
468.78	8056.12
468.96	8449.33
469.14	8241.03
469.32	8512.53
469.50	8189.53
469.69	8475.08
469.87	8304.22
470.05	8512.53
470.23	8442.31
470.41	8585.08
470.59	8580.40
470.77	8470.40
470.95	8699.77
471.14	8847.22
471.32	8624.87
471.50	8587.43
471.68	8744.24
471.86	8688.07
472.04	9092.98
472.22	8933.82
472.40	8863.61
472.58	9020.42
472.77	8950.21
472.95	9177.24
473.13	9116.39
473.31	9186.60
473.49	9130.43
473.67	9249.80
473.85	9308.31
474.03	9483.85
474.21	9518.96
474.39	9509.60
474.57	9657.05
474.75	9631.30
474.93	9760.03
475.12	9729.61
475.30	9851.31
475.48	9848.97
475.66	9490.87
475.84	9827.91
476.02	9937.91
476.20	9905.15
476.38	10160.27
476.56	10438.79
476.74	10265.59
476.92	10176.65
477.10	10333.47
477.28	10347.51
477.46	10251.55
477.64	10490.28
477.82	10600.29
478.00	10846.04
478.18	10700.93
478.36	10848.38
478.54	11140.95
478.72	10944.34
478.90	11229.89
479.08	11288.40
479.26	11435.86
479.44	11288.40
479.62	11515.44
479.80	11410.11
479.98	11538.84
480.16	12018.65
480.34	11800.98
480.52	11976.52
480.70	11939.07
480.88	12006.95
481.06	12032.69
481.24	11889.92
481.41	12018.65
481.59	12346.33
481.77	12432.93
481.95	12432.93
482.13	12760.60
482.31	12690.38
482.49	12645.91
482.67	12819.11
482.85	13025.08
483.03	13057.85
483.21	13406.59
483.39	13352.76
483.57	13181.90
483.74	13528.30
483.92	13748.31
484.10	13558.72
484.28	14059.60
484.46	14015.13
484.64	14394.29
484.82	14073.64
485.00	14059.60
485.18	14403.66
485.35	14618.99
485.53	14361.53
485.71	14796.87
485.89	14904.53
486.07	14941.98
486.25	14970.07
486.43	15030.92
486.61	15131.56
486.78	15456.90
486.96	15594.99
487.14	15452.22
487.32	15854.79
487.50	16042.03
487.68	15974.16
487.85	16149.70
488.03	16182.46
488.21	16587.38
488.39	16236.30
488.57	16652.91
488.75	16549.93
488.92	16961.86
489.10	17013.35
489.28	17067.19
489.46	17289.54
489.64	17207.62
489.81	17401.88
489.99	17242.73
490.17	17816.16
490.35	18068.94
490.53	17724.88
490.70	18188.30
490.88	17858.29
491.06	18223.41
491.24	18054.89
491.41	18499.59
491.59	18705.56
491.77	18513.64
491.95	18815.57
492.13	18930.25
492.30	18944.30
492.48	19372.61
492.66	19232.18
492.84	19293.04
493.01	19618.37
493.19	19461.55
493.37	20180.10
493.54	19798.59
493.72	19920.30
493.90	19819.66
494.08	20147.33
494.25	20285.42
494.43	20554.58
494.61	20678.63
494.79	20755.87
494.96	20437.56
495.14	20807.36
495.32	21231.00
495.49	21270.79
495.67	21219.30
495.85	21376.11
496.02	21565.70
496.20	21364.41
496.38	21996.35
496.55	21223.98
496.73	22300.62
496.91	22026.78
497.09	22078.27
497.26	22216.36
497.44	22141.47
497.62	22448.08
497.79	22672.77
497.97	22146.15
498.14	22888.10
498.32	23269.61
498.50	22958.31
498.67	23452.17
498.85	23075.34
499.03	23295.35
499.20	23463.87
499.38	23150.24
499.56	23672.18
499.73	23784.52
499.91	23608.98
500.08	23896.87
500.26	23590.26
500.44	23541.11
500.61	24107.52
500.79	23826.65
500.97	24552.22
501.14	24446.90
501.32	24444.56
501.49	24573.28
501.67	25001.60
501.84	24549.88
502.02	24648.18
502.20	24673.93
502.37	24931.39
502.55	24898.62
502.72	24879.89
502.90	25268.42
503.07	24856.49
503.25	25411.20
503.43	25280.13
503.60	25497.80
503.78	25654.61
503.95	25792.70
504.13	25816.11
504.30	25930.80
504.48	25694.40
504.65	25895.69
504.83	26251.45
505.01	26202.30
505.18	26178.89
505.36	26499.55
505.53	26604.87
505.71	26314.64
505.88	26616.57
506.06	26274.85
506.23	26977.01
506.41	26876.37
506.58	26937.23
506.76	27199.37
506.93	27349.16
507.11	27353.84
507.28	27477.89
507.46	27271.92
507.63	27140.85
507.81	28079.41
507.98	26759.34
508.16	27728.33
508.33	27999.83
508.50	28224.52
508.68	28058.34
508.85	28278.35
509.03	28208.14
509.20	28240.90
509.38	28460.91
509.55	28369.63
509.73	28615.39
509.90	28493.68
510.08	28276.01
510.25	28584.96
510.42	28795.61
510.60	28989.88
510.77	29266.06
510.95	29209.89
511.12	28694.97
511.30	28912.64
511.47	29214.57
511.64	29415.85
511.82	29443.94
511.99	29371.38
512.17	29511.81
512.34	29570.33
512.51	30298.23
512.69	29951.84
512.86	29961.20
513.04	30134.40
513.21	30029.07
513.38	30298.23
513.56	30373.13
513.73	30073.54
513.90	30181.21
514.08	30176.53
514.25	30558.03
514.43	30782.73
514.60	30684.42
514.77	30876.35
514.95	30473.78
515.12	30658.68
515.29	30618.89
515.47	31307.01
515.64	31239.13
515.81	31000.40
515.99	31255.51
516.16	31208.70
516.33	31512.97
516.51	31243.81
516.68	31527.02
516.85	31089.34
517.03	31955.33
517.20	31737.66
517.37	31646.38
517.54	31625.32
517.72	31857.03
517.89	32222.16
518.06	32201.09
518.24	32156.62
518.41	32385.99
518.58	31704.90
518.75	32018.53
518.93	32547.49
519.10	32243.22
519.27	32725.37
519.45	32575.58
519.62	32650.47
519.79	32638.77
519.96	32580.26
520.14	32734.73
520.31	32624.73
520.48	33118.58
520.65	33088.15
520.83	33425.19
521.00	33539.88
521.17	33141.99
521.34	33296.46
521.52	33362.00
521.69	33228.59
521.86	33799.68
522.03	33631.16
522.20	33968.19
522.38	33706.05
522.55	33933.09
522.72	34120.33
522.89	34202.25
523.07	34515.88
523.24	34061.82
523.41	34338.00
523.58	34565.03
523.75	34127.35
523.92	34345.02
524.10	34595.46
524.27	34597.80
524.44	34909.09
524.61	35028.46
524.78	34815.47
524.96	34965.26
525.13	35091.65
525.30	35290.60
525.47	34735.89
525.64	35014.41
525.81	35304.64
525.98	35466.14
526.16	35199.32
526.33	35180.59
526.50	35665.08
526.67	35503.59
526.84	35526.99
527.01	35730.62
527.18	35849.99
527.36	35880.41
527.53	35871.05
527.70	35728.28
527.87	35920.20
528.04	36077.02
528.21	35828.92
528.38	35999.78
528.55	36222.13
528.72	35789.13
528.89	36407.03
529.07	36086.38
529.24	35908.50
529.41	36020.84
529.58	36189.36
529.75	36481.93
529.92	36561.51
530.09	36355.54
530.26	36973.44
530.43	37013.23
530.60	36287.67
530.77	36589.59
530.94	36503.00
531.11	36659.81
531.28	36973.44
531.46	37228.56
531.63	37139.62
531.80	36783.86
531.97	36849.39
532.14	36879.82
532.31	37137.28
532.48	37347.93
532.65	37497.72
532.82	37163.03
532.99	37551.56
533.16	37488.36
533.33	37525.81
533.50	38022.00
533.67	37867.53
533.84	37434.53
534.01	37357.29
534.18	37743.48
534.35	38370.74
534.52	38120.31
534.69	37954.13
534.86	38384.79
535.03	38106.26
535.20	38199.88
535.37	38075.84
535.54	38263.08
535.71	38185.84
535.88	38293.50
536.05	38340.32
536.22	38574.37
536.38	38536.92
536.55	38820.13
536.72	38307.55
536.89	38281.80
537.06	38600.12
537.23	38581.39
537.40	38988.64
537.57	38768.63
537.74	38590.75
537.91	39393.56
538.08	38946.51
538.25	38335.63
538.42	38742.89
538.59	39271.85
538.75	38841.19
538.92	39255.46
539.09	39220.36
539.26	39126.74
539.43	39232.06
539.60	39899.11
539.77	39889.75
539.94	39573.78
540.11	39351.43
540.28	40140.19
540.44	39363.13
540.61	39461.43
540.78	39508.24
540.95	39552.71
541.12	39463.77
541.29	39541.01
541.46	39997.41
541.62	39959.97
541.79	40175.30
541.96	39569.10
542.13	39550.37
542.30	39985.71
542.47	40488.93
542.63	40191.68
542.80	40285.30
542.97	40720.64
543.14	40624.68
543.31	40540.42
543.48	40491.27
543.64	40924.27
543.81	41083.42
543.98	40711.28
544.15	40725.32
544.32	40942.99
544.48	41390.03
544.65	41165.34
544.82	41064.70
544.99	41083.42
545.16	41280.03
545.32	41315.14
545.49	41240.24
545.66	41581.96
545.83	41338.54
546.00	41228.54
546.16	41130.23
546.33	41312.80
546.50	41001.50
546.67	41406.42
546.83	41265.99
547.00	41368.97
547.17	41228.54
547.34	41031.93
547.50	41450.89
547.67	42220.92
547.84	41668.56
548.00	41841.76
548.17	42513.49
548.34	41986.87
548.51	42227.95
548.67	42366.04
548.84	42054.75
549.01	42153.05
549.18	41844.10
549.34	42160.07
549.51	42590.73
549.68	42185.82
549.84	42349.65
550.01	42160.07
550.18	42209.22
550.34	42265.39
550.51	42817.76
550.68	42946.49
550.84	42258.37
551.01	42462.00
551.18	42466.68
551.34	42492.43
551.51	42941.81
551.68	42588.39
551.84	42693.71
552.01	42298.16
552.18	42415.19
552.34	42300.50
552.51	42768.61
552.68	42937.13
552.84	42431.57
553.01	43000.32
553.18	42862.23
553.34	43278.85
553.51	42927.77
553.67	42866.91
553.84	43398.21
554.01	43409.92
554.17	43014.37
554.34	43161.82
554.51	43159.48
554.67	43686.10
554.84	43618.22
555.00	43494.18
555.17	43426.30
555.33	43269.48
555.50	43124.37
555.67	43295.23
555.83	43175.86
556.00	43679.08
556.16	44037.18
556.33	43613.54
556.50	43288.21
556.66	43896.75
556.83	43178.20
556.99	43861.64
557.16	44020.80
557.32	44004.41
557.49	44156.55
557.65	43519.92
557.82	44123.78
557.98	44053.56
558.15	44083.99
558.32	43873.34
558.48	43653.33
558.65	43878.02
558.81	44011.43
558.98	43838.23
559.14	43875.68
559.31	44271.23
559.47	44135.48
559.64	43983.35
559.80	44133.14
559.97	44058.24
560.13	44025.48
560.30	44285.28
560.46	44119.10
560.63	44559.12
560.79	44215.06
560.96	44399.96
561.12	44505.29
561.29	44385.92
561.45	44615.29
561.61	44729.98
561.78	44722.96
561.94	44638.70
562.11	44587.21
562.27	44238.47
562.44	44233.78
562.60	44708.91
562.77	44753.38
562.93	44528.69
563.10	44727.64
563.26	44275.91
563.42	45326.81
563.59	44809.56
563.75	44732.32
563.92	44563.80
564.08	44793.17
564.24	44966.37
564.41	44584.86
564.57	44622.31
564.74	44708.91
564.90	44800.19
565.07	44905.52
565.23	44701.89
565.39	44889.13
565.56	44676.15
565.72	44741.68
565.88	44912.54
566.05	44617.63
566.21	45090.42
566.38	44774.45
566.54	44910.20
566.70	44596.57
566.87	44814.24
567.03	44861.05
567.19	45546.82
567.36	45205.11
567.52	45186.38
567.68	45593.64
567.85	45354.90
568.01	45162.98
568.17	45071.70
568.34	45422.78
568.50	44959.35
568.66	44910.20
568.83	45317.45
568.99	44760.40
569.15	45390.01
569.32	44631.68
569.48	45076.38
569.64	45401.71
569.81	45338.52
569.97	45132.55
570.13	45399.37
570.30	45308.09
570.46	45523.42
570.62	45392.35
570.78	45401.71
570.95	45357.24
571.11	45394.69
571.27	45354.90
571.43	45371.28
571.60	45572.57
571.76	44762.75
571.92	45366.60
572.09	45071.70
572.25	45317.45
572.41	45317.45
572.57	45415.76
572.74	45797.26
572.90	45326.81
573.06	45888.54
573.22	45530.44
573.38	45930.67
573.55	45399.37
573.71	45652.15
573.87	45570.23
574.03	45551.51
574.20	45825.35
574.36	45846.41
574.52	45804.28
574.68	46014.93
574.84	45811.31
575.01	45862.80
575.17	45928.33
575.33	45500.01
575.49	45436.82
575.65	45514.06
575.82	45635.77
575.98	45794.92
576.14	45963.44
576.30	45713.00
576.46	45963.44
576.62	45830.03
576.79	45675.55
576.95	45184.04
577.11	45184.04
577.27	45787.90
577.43	45769.18
577.59	45745.77
577.75	45340.86
577.92	45481.29
578.08	45881.52
578.24	46061.74
578.40	46272.39
578.56	45965.78
578.72	45975.14
578.88	46127.28
579.04	45851.09
579.21	45755.13
579.37	45944.72
579.53	46370.69
579.69	46120.26
579.85	45703.64
580.01	46028.98
580.17	46124.94
580.33	46281.75
580.49	46099.19
580.65	46092.17
580.82	45998.55
580.98	45741.09
581.14	45610.02
581.30	45993.87
581.46	45949.40
581.62	45287.03
581.78	45743.43
581.94	45825.35
582.10	46003.23
582.26	46391.76
582.42	46071.10
582.58	46326.22
582.74	45462.57
582.90	46021.95
583.06	45984.51
583.22	45961.10
583.38	46014.93
583.54	45977.48
583.70	45832.37
583.86	46366.01
584.02	45659.17
584.18	46550.91
584.34	46225.58
584.50	46258.35
584.66	46216.22
584.82	46461.97
584.98	45996.21
585.14	46206.86
585.30	46302.82
585.46	45879.18
585.62	45780.88
585.78	46185.79
585.94	45598.32
586.10	45975.14
586.26	45443.84
586.42	45469.59
586.58	46277.07
586.74	46298.14
586.90	45956.42
587.06	46122.60
587.22	46244.30
587.38	46075.79
587.54	46447.93
587.70	46141.32
587.86	46092.17
588.02	46370.69
588.18	46291.12
588.34	46028.98
588.49	46564.96
588.65	46017.27
588.81	46251.33
588.97	46508.79
589.13	46075.79
589.29	46281.75
589.45	46426.87
589.61	46134.30
589.77	46681.98
589.93	46490.06
590.08	46394.10
590.24	46263.03
590.40	46756.88
590.56	46333.24
590.72	46604.75
590.88	46838.80
591.04	46419.84
591.20	46597.73
591.35	46770.93
591.51	46855.18
591.67	46681.98
591.83	46653.90
591.99	46782.63
592.15	46916.04
592.31	46667.94
592.46	46344.95
592.62	46564.96
592.78	46700.71
592.94	46586.02
593.10	46871.57
593.26	46768.58
593.41	46616.45
593.57	46939.44
593.73	46284.09
593.89	46937.10
594.05	47374.78
594.20	46763.90
594.36	47014.34
594.52	46756.88
594.68	46801.35
594.84	46618.79
594.99	47421.59
595.15	46930.08
595.31	46841.14
595.47	46677.30
595.62	46663.26
595.78	46955.83
595.94	46810.71
596.10	46918.38
596.25	47208.61
596.41	46995.62
596.57	46546.23
596.73	46791.99
596.88	46995.62
597.04	46920.72
597.20	47199.24
597.36	47065.83
597.51	46955.83
597.67	46438.57
597.83	46813.05
597.99	47023.70
598.14	46742.84
598.30	46841.14
598.46	46719.43
598.61	46979.23
598.77	46969.87
598.93	47313.93
599.09	46742.84
599.24	47295.21
599.40	46946.47
599.56	47077.54
599.71	47145.41
599.87	47573.73
600.03	47316.27
600.18	46731.14
600.34	47007.32
600.50	47232.01
600.65	47030.72
600.81	47288.18
600.97	47033.07
601.12	47168.82
601.28	47487.13
601.44	47316.27
601.59	47079.88
601.75	47264.78
601.91	47342.02
602.06	47302.23
602.22	46906.68
602.37	47086.90
602.53	47384.15
602.69	47342.02
602.84	47267.12
603.00	46897.31
603.16	46976.89
603.31	46749.86
603.47	46969.87
603.62	46880.93
603.78	46986.25
603.94	46932.42
604.09	46890.29
604.25	46906.68
604.40	46918.38
604.56	46789.65
604.71	46944.12
604.87	46864.55
605.03	46724.11
605.18	47384.15
605.34	46974.55
605.49	46979.23
605.65	46773.27
605.80	46852.84
605.96	47164.14
606.12	46696.03
606.27	46890.29
606.43	46684.33
606.58	46925.40
606.74	47000.30
606.89	47140.73
607.05	47562.03
607.20	47196.90
607.36	46864.55
607.51	46670.28
607.67	46829.44
607.82	46948.81
607.98	46607.09
608.13	46763.90
608.29	46658.58
608.44	46878.59
608.60	46351.97
608.75	46986.25
608.91	46597.73
609.06	46218.56
609.22	46918.38
609.37	46630.49
609.53	47239.03
609.68	46927.74
609.84	46859.87
609.99	47145.41
610.15	47145.41
610.30	46508.79
610.46	46529.85
610.61	46522.83
610.76	46770.93
610.92	46326.22
611.07	46564.96
611.23	46316.86
611.38	46391.76
611.54	46607.09
611.69	46838.80
611.84	46899.65
612.00	46747.52
612.15	46279.41
612.31	46588.36
612.46	46377.72
612.62	46602.41
612.77	46354.31
612.92	46869.23
613.08	46171.75
613.23	46621.13
613.39	46204.52
613.54	46672.62
613.69	46494.74
613.85	46253.67
614.00	46649.22
614.15	46342.61
614.31	46131.96
614.46	46078.13
614.62	46185.79
614.77	46246.65
614.92	46108.55
615.08	46354.31
615.23	46412.82
615.38	46485.38
615.54	46078.13
615.69	46223.24
615.84	46148.34
616.00	46562.62
616.15	46628.15
616.30	46497.08
616.46	45666.19
616.61	46361.33
616.76	46445.59
616.92	46157.70
617.07	46031.32
617.22	46101.53
617.37	45673.21
617.53	45731.73
617.68	45603.00
617.83	46057.06
617.99	46396.44
618.14	45813.65
618.29	45818.33
618.45	45860.46
618.60	45647.47
618.75	45729.39
618.90	45841.73
619.06	45834.71
619.21	45696.62
619.36	46223.24
619.51	45717.68
619.67	45600.66
619.82	46096.85
619.97	45940.04
620.12	45373.63
620.28	45572.57
620.43	45624.06
620.58	45813.65
620.73	45663.85
620.89	45720.02
621.04	46033.66
621.19	46038.34
621.34	45261.28
621.49	45614.70
621.65	45668.53
621.80	45755.13
621.95	45221.49
622.10	45378.31
622.25	45364.26
622.41	45275.32
622.56	45338.52
622.71	45312.77
622.86	45600.66
623.01	45425.12
623.16	45280.00
623.32	45162.98
623.47	45256.60
623.62	45132.55
623.77	45364.26
623.92	45457.88
624.07	45387.67
624.23	44931.26
624.38	45385.33
624.53	45104.46
624.68	45165.32
624.83	45013.18
624.98	45464.91
625.13	44451.45
625.29	44947.65
625.44	44673.81
625.59	44816.58
625.74	45137.23
625.89	44671.46
626.04	44793.17
626.19	44552.10
626.34	44554.44
626.49	44486.56
626.65	44643.38
626.80	44416.35
626.95	44390.60
627.10	44151.87
627.25	44816.58
627.40	44753.38
627.55	44339.11
627.70	44421.03
627.85	44364.85
628.00	44357.83
628.15	44294.64
628.30	44208.04
628.45	44449.11
628.60	43854.62
628.76	44521.67
628.91	44222.08
629.06	43498.86
629.21	44430.39
629.36	44133.14
629.51	44062.93
629.66	44495.92
629.81	44318.04
629.96	43899.09
630.11	44109.74
630.26	43852.28
630.41	44231.44
630.56	43540.99
630.71	44261.87
630.86	44383.58
631.01	44233.78
631.16	43428.64
631.31	43779.72
631.46	43576.09
631.61	43995.05
631.76	43999.73
631.91	44584.86
632.06	44409.32
632.21	44095.69
632.36	44196.34
632.51	43662.69
632.66	43849.94
632.81	43655.67
632.96	43878.02
633.10	43779.72
633.25	43707.16
633.40	43878.02
633.55	44392.94
633.70	43622.90
633.85	43517.58
634.00	43159.48
634.15	43320.98
634.30	43152.46
634.45	43147.78
634.60	43243.74
634.75	43718.87
634.90	43154.80
635.05	43959.94
635.19	42873.93
635.34	43136.07
635.49	43533.96
635.64	43388.85
635.79	43215.65
635.94	43124.37
636.09	43262.46
636.24	43761.00
636.39	43175.86
636.53	43281.19
636.68	42958.19
636.83	42684.35
636.98	43154.80
637.13	43147.78
637.28	43157.14
637.43	42948.83
637.57	43030.75
637.72	42801.38
637.87	43005.00
638.02	43234.38
638.17	42742.86
638.32	43016.71
638.46	42527.53
638.61	42705.41
638.76	42768.61
638.91	42431.57
639.06	42895.00
639.20	42021.98
639.35	42410.51
639.50	42230.29
639.65	42838.83
639.80	42614.13
639.94	42658.60
640.09	42646.90
640.24	42321.57
640.39	42403.49
640.54	42110.92
640.68	42337.95
640.83	42302.84
640.98	42576.69
641.13	41876.86
641.27	42405.83
641.42	42117.94
641.57	42518.17
641.72	42380.08
641.86	42660.94
642.01	42349.65
642.16	41858.14
642.31	42050.06
642.45	41991.55
642.60	42314.55
642.75	41698.98
642.90	42134.32
643.04	42368.38
643.19	42117.94
643.34	41755.16
643.48	41577.28
643.63	41680.26
643.78	41890.91
643.93	42174.11
644.07	41694.30
644.22	42019.64
644.37	41834.74
644.51	41818.35
644.66	42202.20
644.81	41942.40
644.95	42007.94
645.10	41801.97
645.25	41443.87
645.39	41368.97
645.54	41961.12
645.69	41081.08
645.83	41385.35
645.98	41298.75
646.13	40938.31
646.27	41521.10
646.42	41408.76
646.57	41308.11
646.71	41553.87
646.86	41816.01
647.00	41387.69
647.15	41804.31
647.30	41326.84
647.44	41057.68
647.59	41062.36
647.74	41464.93
647.88	41343.22
648.03	41420.46
648.17	41471.95
648.32	41291.73
648.47	41673.24
648.61	40847.03
648.76	41017.89
648.90	41015.55
649.05	41095.13
649.20	41331.52
649.34	40914.90
649.49	41174.70
649.63	40975.76
649.78	41031.93
649.92	41125.55
650.07	41336.20
650.21	40797.88
650.36	41345.56
650.51	40870.43
650.65	41282.37
650.80	40872.78
650.94	41134.92
651.09	40776.81
651.23	40671.49
651.38	40465.52
651.52	40411.69
651.67	40512.33
651.81	40397.65
651.96	40505.31
652.10	40371.90
652.25	40332.11
652.39	40355.52
652.54	40575.53
652.68	40554.46
652.83	40678.51
652.97	40900.86
653.12	40531.06
653.26	40416.37
653.41	40545.10
653.55	40238.49
653.70	40484.25
653.84	40666.81
653.99	40612.98
654.13	40147.21
654.27	39899.11
654.42	40336.79
654.56	39779.74
654.71	39985.71
654.85	40460.84
655.00	40149.55
655.14	40065.29
655.29	40641.06
655.43	40521.69
655.57	40116.78
655.72	39931.88
655.86	39981.03
656.01	39859.32
656.15	39501.22
656.30	39981.03
656.44	40027.84
656.58	39824.22
656.73	39974.01
656.87	39711.87
657.01	39519.95
657.16	39997.41
657.30	40025.50
657.45	39576.12
657.59	39131.42
657.73	39351.43
657.88	39903.79
658.02	39707.19
658.16	39611.23
658.31	39456.75
658.45	39203.97
658.60	39592.50
658.74	39248.44
658.88	39056.52
659.03	39063.54
659.17	38955.88
659.31	38974.60
659.46	39227.38
659.60	39278.87
659.74	38759.27
659.89	38471.39
660.03	38548.62
660.17	38986.30
660.32	38660.97
660.46	38803.74
660.60	38686.71
660.74	38946.51
660.89	38649.27
661.03	38244.35
661.17	38293.50
661.32	38005.62
661.46	38445.64
661.60	38253.72
661.74	38286.48
661.89	38581.39
662.03	38455.00
662.17	38160.09
662.31	38176.48
662.46	38335.63
662.60	37771.57
662.74	37677.94
662.88	37373.67
663.03	37579.64
663.17	37647.52
663.31	37081.11
663.45	37764.54
663.60	37935.40
663.74	37928.38
663.88	37766.88
664.02	37977.53
664.17	38054.77
664.31	37539.85
664.45	37479.00
664.59	37600.71
664.73	37158.34
664.88	37338.57
665.02	37167.71
665.16	37247.29
665.30	37291.76
665.44	37209.84
665.59	37048.34
665.73	36928.97
665.87	36821.31
666.01	37186.43
666.15	36886.84
666.29	36744.07
666.44	36973.44
666.58	36500.65
666.72	36613.00
666.86	36252.56
667.00	36519.38
667.14	36275.96
667.28	36009.14
667.43	36685.56
667.57	36376.61
667.71	36596.62
667.85	36486.61
667.99	36678.54
668.13	36285.33
668.27	35732.96
668.41	36126.17
668.56	35711.89
668.70	35672.10
668.84	35845.30
668.98	35552.74
669.12	36182.34
669.26	35428.69
669.40	35606.57
669.54	35583.16
669.68	35482.52
669.82	35679.13
669.96	35328.05
670.10	35037.82
670.25	34972.28
670.39	34712.49
670.53	34967.60
670.67	34953.56
670.81	35009.73
670.95	35105.70
671.09	34974.63
671.23	34576.73
671.37	34625.89
671.51	34333.32
671.65	34548.65
671.79	34494.82
671.93	34497.16
672.07	34469.07
672.21	34553.33
672.35	34092.24
672.49	34139.05
672.63	34433.96
672.77	34000.96
672.91	34543.97
673.05	33708.40
673.19	33472.00
673.33	33160.71
673.47	33972.88
673.61	33780.95
673.75	32905.59
673.89	33209.86
674.03	32673.88
674.17	33010.92
674.31	33048.36
674.45	32826.01
674.59	32994.53
674.73	32807.29
674.87	32966.45
675.01	32580.26
675.15	32498.34
675.29	32196.41
675.43	32446.85
675.56	32624.73
675.70	32577.92
675.84	32023.21
675.98	30991.03
676.12	32135.56
676.26	32130.87
676.40	31779.79
676.54	31512.97
676.68	31688.51
676.82	31550.42
676.96	31817.24
677.10	31140.83
677.23	31297.64
677.37	31393.61
677.51	31426.37
677.65	31152.53
677.79	30951.24
677.93	31021.46
678.07	31194.66
678.21	30668.04
678.34	30572.08
678.48	30038.44
678.62	30422.28
678.76	30312.28
678.90	30223.34
679.04	30394.20
679.18	30466.75
679.31	30251.42
679.45	29811.40
679.59	29612.46
679.73	29944.81
679.87	29366.70
680.00	29497.77
680.14	29366.70
680.28	29392.45
680.42	29167.76
680.56	29088.18
680.70	28865.83
680.83	29139.67
680.97	28968.81
681.11	28758.16
681.25	28758.16
681.39	28606.03
681.52	28652.84
681.66	28175.37
681.80	27946.00
681.94	27679.18
682.07	28116.86
682.21	27814.93
682.35	28135.58
682.49	27433.42
682.62	27754.07
682.76	27866.42
682.90	27173.62
683.04	27414.69
683.17	27363.20
683.31	27204.05
683.45	27138.51
683.59	26698.49
683.72	27072.98
683.86	26604.87
684.00	26672.74
684.13	26780.41
684.27	26651.68
684.41	26366.13
684.55	26513.59
684.68	26277.19
684.82	25900.37
684.96	25886.32
685.09	25881.64
685.23	25797.38
685.37	26305.28
685.50	25923.77
685.64	25879.30
685.78	25600.78
685.91	25685.04
686.05	25053.09
686.19	24762.87
686.32	24802.66
686.46	25013.31
686.60	24975.86
686.73	25032.03
686.87	24669.25
687.01	25060.12
687.14	24835.42
687.28	24247.95
687.42	24702.01
687.55	24229.23
687.69	24119.22
687.82	24266.67
687.96	24051.34
688.10	23941.34
688.23	23971.77
688.37	24030.28
688.50	24112.20
688.64	23721.33
688.78	23688.56
688.91	23297.69
689.05	23421.74
689.18	23035.55
689.32	22843.63
689.46	22778.09
689.59	22995.76
689.73	23538.77
689.86	23103.43
690.00	23047.26
690.13	22967.68
690.27	22728.94
690.41	22869.37
690.54	22530.00
690.68	22455.10
690.81	22307.65
690.95	22328.71
691.08	22031.46
691.22	21717.83
691.35	21649.96
691.49	21834.86
691.62	21954.22
691.76	21687.40
691.89	21348.03
692.03	21446.33
692.16	21673.36
692.30	20915.03
692.43	21170.15
692.57	20886.94
692.70	20959.50
692.84	20933.75
692.97	20603.74
693.11	20540.54
693.24	20477.35
693.38	20252.66
693.51	20631.82
693.65	19924.98
693.78	19761.14
693.92	20203.50
694.05	19889.87
694.19	20032.65
694.32	20123.93
694.45	20198.82
694.59	20149.67
694.72	19896.89
694.86	19482.62
694.99	19426.45
695.13	19580.92
695.26	19103.45
695.39	19042.60
695.53	19080.05
695.66	19073.03
695.80	19091.75
695.93	19185.37
696.07	18698.54
696.20	18457.46
696.33	18256.18
696.47	18141.49
696.60	18424.70
696.73	18640.03
696.87	18387.25
697.00	18242.14
697.14	18246.82
697.27	17895.74
697.40	17996.38
697.54	17750.62
697.67	17956.59
697.80	18071.28
697.94	17631.26
698.07	17638.28
698.21	17565.72
698.34	17221.66
698.47	17081.23
698.61	17032.08
698.74	17331.67
698.87	16947.82
699.01	17256.77
699.14	16922.07
699.27	16720.79
699.40	16753.55
699.54	16631.85
699.67	16767.60
699.80	16435.24
699.94	16451.63
700.07	16695.04
700.20	16395.45
700.34	16430.56
700.47	15967.13
700.60	16535.88
700.73	16327.58
700.87	15800.96
701.00	15761.17
701.13	15566.90
701.26	15868.83
701.40	15480.30
701.53	15440.51
701.66	15557.54
701.79	15204.12
701.93	15257.95
702.06	14909.21
702.19	14909.21
702.32	15112.84
702.46	14869.42
702.59	15133.90
702.72	15035.60
702.85	14867.08
702.99	14902.19
703.12	14717.29
703.25	14579.20
703.38	14516.00
703.51	14604.94
703.65	14349.82
703.78	14052.58
703.91	14127.47
704.04	14148.54
704.17	14176.62
704.31	13898.10
704.44	13973.00
704.57	14038.53
704.70	13764.69
704.83	13713.20
704.96	13525.96
705.10	13764.69
705.23	13657.03
>>>>>End Processed Spectral Data<<<<<
