SpectraSuite Data File
++++++++++++++++++++++++++++++++++++
Date: Fri Oct 25 11:34:09 EDT 2013
User: price-jones
Dark Spectrum Present: No
Reference Spectrum Present: No
Number of Sampled Component Spectra: 1
Spectrometers: USB2+H05261
Integration Time (usec): 100000 (USB2+H05261)
Spectra Averaged: 1 (USB2+H05261)
Boxcar Smoothing: 0 (USB2+H05261)
Correct for Electrical Dark: No (USB2+H05261)
Strobe/Lamp Enabled: No (USB2+H05261)
Correct for Detector Non-linearity: No (USB2+H05261)
Correct for Stray Light: No (USB2+H05261)
Number of Pixels in Processed Spectrum: 2048
>>>>>Begin Processed Spectral Data<<<<<
365.73	292.57
365.92	292.57
366.12	292.57
366.32	271.50
366.52	170.86
366.72	95.96
366.91	163.84
367.11	187.24
367.31	149.79
367.51	180.22
367.70	184.90
367.90	161.50
368.10	198.95
368.30	173.20
368.49	175.54
368.69	175.54
368.89	121.71
369.09	152.13
369.28	264.48
369.48	149.79
369.68	238.73
369.87	229.37
370.07	236.39
370.27	262.14
370.47	435.34
370.66	440.02
370.86	505.56
371.06	526.62
371.25	519.60
371.45	552.37
371.65	554.71
371.84	531.30
372.04	580.45
372.24	507.90
372.44	552.37
372.63	571.09
372.83	482.15
373.03	547.69
373.22	634.29
373.42	627.26
373.62	648.33
373.81	592.16
374.01	671.73
374.21	695.14
374.40	566.41
374.60	688.12
374.79	636.63
374.99	669.39
375.19	624.92
375.38	641.31
375.58	664.71
375.78	704.50
375.97	624.92
376.17	603.86
376.37	615.56
376.56	662.37
376.76	655.35
376.95	763.01
377.15	683.44
377.35	653.01
377.54	676.41
377.74	674.07
377.93	711.52
378.13	741.95
378.33	674.07
378.52	706.84
378.72	746.63
378.91	732.59
379.11	800.46
379.31	678.76
379.50	648.33
379.70	645.99
379.89	650.67
380.09	737.27
380.28	739.61
380.48	744.29
380.68	629.60
380.87	732.59
381.07	793.44
381.26	723.23
381.46	758.33
381.65	802.80
381.85	697.48
382.04	739.61
382.24	835.57
382.43	709.18
382.63	734.93
382.83	739.61
383.02	840.25
383.22	753.65
383.41	695.14
383.61	805.14
383.80	809.83
384.00	882.38
384.19	823.87
384.39	765.36
384.58	795.78
384.78	870.68
384.97	809.83
385.17	816.85
385.36	842.59
385.56	753.65
385.75	840.25
385.95	793.44
386.14	866.00
386.34	802.80
386.53	851.96
386.72	898.77
386.92	863.66
387.11	894.08
387.31	828.55
387.50	858.98
387.70	903.45
387.89	842.59
388.09	844.93
388.28	957.28
388.48	901.11
388.67	983.02
388.86	880.04
389.06	931.53
389.25	997.07
389.45	1011.11
389.64	851.96
389.84	898.77
390.03	903.45
390.22	917.49
390.42	894.08
390.61	1011.11
390.81	891.74
391.00	919.83
391.19	985.37
391.39	1029.84
391.58	1048.56
391.78	1078.99
391.97	1043.88
392.16	922.17
392.36	1034.52
392.55	983.02
392.75	1149.20
392.94	1053.24
393.13	978.34
393.33	1020.47
393.52	973.66
393.71	1074.31
393.91	1090.69
394.10	1095.37
394.29	1135.16
394.49	1078.99
394.68	1083.67
394.88	1062.60
395.07	1114.10
395.26	1165.59
395.46	1142.18
395.65	1191.33
395.84	1144.52
396.04	1221.76
396.23	1146.86
396.42	1083.67
396.62	1160.91
396.81	1198.35
397.00	1214.74
397.19	1240.48
397.39	1139.84
397.58	1289.64
397.77	1282.61
397.97	1186.65
398.16	1217.08
398.35	1284.95
398.55	1212.40
398.74	1270.91
398.93	1247.51
399.12	1306.02
399.32	1219.42
399.51	1343.47
399.70	1317.72
399.90	1315.38
400.09	1280.27
400.28	1240.48
400.47	1343.47
400.67	1439.43
400.86	1383.26
401.05	1425.39
401.24	1359.85
401.44	1434.75
401.63	1439.43
401.82	1392.62
402.01	1327.08
402.21	1455.81
402.40	1479.22
402.59	1390.28
402.78	1369.21
402.97	1394.96
403.17	1488.58
403.36	1533.05
403.55	1514.33
403.74	1565.82
403.93	1533.05
404.13	1537.73
404.32	1605.61
404.51	1542.41
404.70	1563.48
404.89	1631.35
405.09	1591.56
405.28	1640.72
405.47	1600.93
405.66	1743.70
405.85	1614.97
406.05	1629.01
406.24	1701.57
406.43	1533.05
406.62	1748.38
406.81	1703.91
407.00	1657.10
407.20	1638.38
407.39	1743.70
407.58	1771.79
407.77	1764.76
407.96	1802.21
408.15	1865.41
408.34	1816.26
408.54	1947.33
408.73	1940.30
408.92	1902.86
409.11	1858.39
409.30	1952.01
409.49	1954.35
409.68	2019.88
409.87	1989.46
410.07	1970.73
410.26	1930.94
410.45	1987.11
410.64	1937.96
410.83	2026.90
411.02	1928.60
411.21	2157.97
411.40	2134.57
411.59	2076.06
411.78	2146.27
411.98	2143.93
412.17	2165.00
412.36	2291.38
412.55	2190.74
412.74	2235.21
412.93	2333.51
413.12	2202.44
413.31	2401.39
413.50	2387.35
413.69	2417.77
413.88	2422.45
414.07	2406.07
414.26	2483.31
414.45	2387.35
414.64	2490.33
414.83	2588.63
415.02	2485.65
415.22	2635.44
415.41	2614.38
415.60	2665.87
415.79	2523.10
415.98	2602.68
416.17	2642.46
416.36	2668.21
416.55	2581.61
416.74	2726.72
416.93	2722.04
417.12	2836.73
417.31	2803.96
417.50	2785.24
417.69	2839.07
417.88	2850.77
418.07	2810.98
418.26	3033.33
418.45	2949.08
418.64	3035.67
418.83	2956.10
419.02	2988.86
419.21	2841.41
419.39	2988.86
419.58	3035.67
419.77	3033.33
419.96	3138.66
420.15	3171.43
420.34	3080.14
420.53	2963.12
420.72	3180.79
420.91	3206.53
421.10	3150.36
421.29	3232.28
421.48	3073.12
421.67	3265.05
421.86	3117.59
422.05	3265.05
422.24	3117.59
422.43	3304.84
422.61	3274.41
422.80	3229.94
422.99	3400.80
423.18	3206.53
423.37	3332.92
423.56	3260.37
423.75	3183.13
423.94	3274.41
424.13	3173.77
424.32	3129.30
424.50	3393.78
424.69	3515.48
424.88	3529.53
425.07	3442.93
425.26	3417.18
425.45	3265.05
425.64	3262.71
425.83	3253.34
426.01	3323.56
426.20	3398.46
426.39	3438.25
426.58	3353.99
426.77	3407.82
426.96	3529.53
427.15	3382.07
427.33	3730.81
427.52	3625.49
427.71	3548.25
427.90	3517.83
428.09	3616.13
428.28	3625.49
428.46	3517.83
428.65	3557.61
428.84	3606.77
429.03	3655.92
429.22	3538.89
429.40	3695.71
429.59	3599.74
429.78	3583.36
429.97	3527.19
430.16	3672.30
430.34	3653.58
430.53	3775.28
430.72	3775.28
430.91	3665.28
431.10	3772.94
431.28	3887.63
431.47	3796.35
431.66	3887.63
431.85	3859.54
432.03	3922.74
432.22	4023.38
432.41	3922.74
432.60	3983.59
432.79	3892.31
432.97	3978.91
433.16	4203.60
433.35	4007.00
433.54	4065.51
433.72	4100.62
433.91	3976.57
434.10	4117.00
434.28	4063.17
434.47	4231.69
434.66	4367.44
434.85	4264.46
435.03	4187.22
435.22	4100.62
435.41	4198.92
435.59	4283.18
435.78	4325.31
435.97	4170.83
436.16	4283.18
436.34	4322.97
436.53	4414.25
436.72	4463.40
436.90	4224.67
437.09	4418.93
437.28	4404.89
437.46	4484.47
437.65	4498.51
437.84	4594.47
438.02	4573.41
438.21	4554.68
438.40	4496.17
438.58	4685.75
438.77	4629.58
438.96	4617.88
439.14	4807.46
439.33	4744.27
439.52	4657.67
439.70	4711.50
439.89	4849.59
440.08	4887.04
440.26	4868.31
440.45	4880.02
440.63	5022.79
440.82	5064.92
441.01	4844.91
441.19	5067.26
441.38	5090.67
441.57	5085.98
441.75	5224.08
441.94	5364.51
442.12	5261.52
442.31	5357.49
442.50	5238.12
442.68	5310.68
442.87	5252.16
443.05	5373.87
443.24	5359.83
443.43	5348.12
443.61	5238.12
443.80	5479.19
443.98	5460.47
444.17	5233.44
444.35	5542.39
444.54	5504.94
444.73	5631.33
444.91	5493.24
445.10	5526.00
445.28	5383.23
445.47	5462.81
445.65	5425.36
445.84	5579.84
446.02	5582.18
446.21	5645.37
446.39	5575.16
446.58	5568.13
446.77	5699.20
446.95	5533.03
447.14	5493.24
447.32	5603.24
447.51	5469.83
447.69	5579.84
447.88	5572.82
448.06	5593.88
448.25	5603.24
448.43	5657.07
448.62	5689.84
448.80	5818.57
448.99	5865.38
449.17	5703.89
449.36	5741.33
449.54	5865.38
449.73	5888.79
449.91	5944.96
450.10	5788.14
450.28	5942.62
450.46	6015.18
450.65	6003.47
450.83	5966.03
451.02	5951.98
451.20	6366.26
451.39	6097.10
451.57	6015.18
451.76	6036.24
451.94	6080.71
452.13	6061.99
452.31	6188.38
452.49	6289.02
452.68	6186.04
452.86	6099.44
453.05	6228.17
453.23	6314.77
453.42	6167.31
453.60	6181.35
453.78	6235.19
453.97	6090.07
454.15	6326.47
454.34	6211.78
454.52	6480.94
454.70	6544.14
454.89	6267.95
455.07	6361.58
455.26	6410.73
455.44	6539.46
455.62	6509.03
455.81	6600.31
455.99	6707.98
456.17	6670.53
456.36	6581.59
456.54	6731.38
456.73	6689.25
456.91	6759.47
457.09	6733.72
457.28	6848.41
457.46	6787.55
457.64	6801.60
457.83	6993.52
458.01	6682.23
458.19	6885.86
458.38	6970.12
458.56	7164.38
458.74	6899.90
458.93	6970.12
459.11	7110.55
459.29	6953.73
459.48	7269.70
459.66	7220.55
459.84	7248.64
460.03	7337.58
460.21	7138.63
460.39	7124.59
460.57	7246.30
460.76	7314.17
460.94	7250.98
461.12	7250.98
461.31	7527.16
461.49	7412.48
461.67	7225.23
461.85	7613.76
462.04	7494.40
462.22	7742.49
462.40	7522.48
462.59	7499.08
462.77	7463.97
462.95	7508.44
463.13	7609.08
463.32	7583.34
463.50	7529.50
463.68	7597.38
463.86	7662.91
464.05	7566.95
464.23	7620.78
464.41	7859.52
464.59	7531.84
464.78	7964.84
464.96	7735.47
465.14	7674.62
465.32	7709.72
465.50	7763.56
465.69	7997.61
465.87	8032.72
466.05	7847.82
466.23	8039.74
466.41	7934.42
466.60	8189.53
466.78	7875.90
466.96	8053.78
467.14	8065.49
467.32	8077.19
467.51	8060.80
467.69	7819.73
467.87	8030.38
468.05	8255.07
468.23	8124.00
468.41	8294.86
468.60	8116.98
468.78	8173.15
468.96	8290.18
469.14	8292.52
469.32	8437.63
469.50	8175.49
469.69	8634.24
469.87	8557.00
470.05	8512.53
470.23	8416.57
470.41	8479.76
470.59	8674.03
470.77	8603.81
470.95	8524.23
471.14	8755.94
471.32	8538.27
471.50	8671.68
471.68	8781.69
471.86	8858.93
472.04	9001.70
472.22	9195.96
472.40	8884.67
472.58	8762.97
472.77	9188.94
472.95	9170.22
473.13	9474.49
473.31	9067.24
473.49	9287.25
473.67	9308.31
473.85	9266.18
474.03	9373.85
474.21	9528.32
474.39	9462.79
474.57	9647.69
474.75	9614.92
474.93	9750.67
475.12	9504.92
475.30	9893.44
475.48	9638.33
475.66	9816.21
475.84	9820.89
476.02	9884.08
476.20	10043.24
476.38	10246.87
476.56	10111.11
476.74	10160.27
476.92	10310.06
477.10	10181.33
477.28	10424.75
477.46	10560.50
477.64	10492.62
477.82	10431.77
478.00	10834.34
478.18	10850.72
478.36	10846.04
478.54	11108.18
478.72	11005.20
478.90	11229.89
479.08	11332.87
479.26	11489.69
479.44	11534.16
479.62	11456.92
479.80	11810.34
479.98	11683.95
480.16	12107.59
480.34	11751.83
480.52	11871.20
480.70	11976.52
480.88	11660.55
481.06	11955.46
481.24	12205.89
481.41	12435.27
481.59	12266.75
481.77	12535.91
481.95	12622.51
482.13	12711.45
482.31	12704.43
482.49	12957.21
482.67	13130.41
482.85	13202.96
483.03	13191.26
483.21	13439.36
483.39	13495.53
483.57	13458.08
483.74	13593.83
483.92	13706.18
484.10	13521.27
484.28	14075.98
484.46	14148.54
484.64	14246.84
484.82	14001.08
485.00	14422.38
485.18	14670.48
485.35	14850.70
485.53	14696.22
485.71	14705.59
485.89	15042.62
486.07	14869.42
486.25	14960.70
486.43	15304.76
486.61	15396.04
486.78	15382.00
486.96	15456.90
487.14	15578.61
487.32	15681.59
487.50	15716.70
487.68	15948.41
487.85	16168.42
488.03	16252.68
488.21	16498.44
488.39	16575.67
488.57	16734.83
488.75	16702.06
488.92	17165.49
489.10	17207.62
489.28	17298.90
489.46	17343.37
489.64	17149.11
489.81	17577.42
489.99	17713.17
490.17	18164.90
490.35	17895.74
490.53	17687.43
490.70	18328.74
490.88	18218.73
491.06	18410.65
491.24	18277.24
491.41	18293.63
491.59	18471.51
491.77	18937.27
491.95	19005.15
492.13	19087.07
492.30	19005.15
492.48	19089.41
492.66	19049.62
492.84	19618.37
493.01	19735.40
493.19	19700.29
493.37	19543.47
493.54	19910.94
493.72	20067.75
493.90	20156.69
494.08	20205.84
494.25	20622.46
494.43	20467.98
494.61	20627.14
494.79	20594.37
494.96	20568.63
495.14	20833.11
495.32	21097.59
495.49	21235.68
495.67	20961.84
495.85	21570.38
496.02	21757.62
496.20	21846.56
496.38	21710.81
496.55	21984.65
496.73	22464.46
496.91	22106.36
497.09	22120.40
497.26	22232.75
497.44	22139.13
497.62	22366.16
497.79	22801.50
497.97	22735.96
498.14	22728.94
498.32	23166.62
498.50	23129.17
498.67	23154.92
498.85	23337.48
499.03	23484.94
499.20	23538.77
499.38	23541.11
499.56	23367.91
499.73	23836.02
499.91	23721.33
500.08	24163.69
500.26	24034.96
500.44	23960.06
500.61	24093.47
500.79	23920.28
500.97	24173.05
501.14	24819.04
501.32	24814.36
501.49	24542.86
501.67	24711.38
501.84	24929.05
502.02	24680.95
502.20	24758.19
502.37	24779.25
502.55	24917.34
502.72	25336.30
502.90	24994.58
503.07	24964.15
503.25	25628.87
503.43	25310.55
503.60	25120.97
503.78	25584.40
503.95	25703.76
504.13	25640.57
504.30	25883.98
504.48	26010.37
504.65	25961.22
504.83	26272.51
505.01	26340.39
505.18	26192.94
505.36	26529.97
505.53	26485.50
505.71	26843.60
505.88	26579.12
506.06	26384.86
506.23	26778.07
506.41	26721.90
506.58	27014.46
506.76	27239.15
506.93	27187.66
507.11	26995.74
507.28	27332.78
507.46	27508.32
507.63	27435.76
507.81	27725.99
507.98	27370.22
508.16	27824.29
508.33	27807.90
508.50	28210.48
508.68	27995.15
508.85	28006.85
509.03	28121.54
509.20	28191.75
509.38	28320.48
509.55	28353.25
509.73	28458.57
509.90	28613.05
510.08	29125.63
510.25	28760.50
510.42	28982.85
510.60	28709.01
510.77	28737.10
510.95	29694.38
511.12	29408.83
511.30	29186.48
511.47	29347.98
511.64	28987.53
511.82	29399.47
511.99	29521.18
512.17	29483.73
512.34	29748.21
512.51	30026.73
512.69	30008.01
512.86	29839.49
513.04	30228.02
513.21	30141.42
513.38	30242.06
513.56	30370.79
513.73	30169.51
513.90	30087.59
514.08	30448.03
514.25	30817.83
514.43	30658.68
514.60	30902.09
514.77	30972.31
514.95	30789.75
515.12	30745.28
515.29	31012.10
515.47	31339.77
515.64	31393.61
515.81	30782.73
515.99	31246.15
516.16	31615.96
516.33	31349.14
516.51	31571.49
516.68	31267.22
516.85	31454.46
517.03	32051.30
517.20	32025.55
517.37	32175.34
517.54	31693.19
517.72	32074.70
517.89	32517.06
518.06	31962.36
518.24	32126.19
518.41	32084.06
518.58	31920.23
518.75	32151.94
518.93	32606.00
519.10	32275.99
519.27	32507.70
519.45	32706.65
519.62	32643.45
519.79	32762.82
519.96	32362.59
520.14	32868.14
520.31	32872.82
520.48	33050.70
520.65	33099.86
520.83	33584.35
521.00	34071.18
521.17	33048.36
521.34	33809.04
521.52	33336.25
521.69	33483.70
521.86	33511.79
522.03	33684.99
522.20	33858.19
522.38	34382.47
522.55	34380.13
522.72	34192.89
522.89	34024.37
523.07	34335.66
523.24	34164.80
523.41	34499.50
523.58	34225.65
523.75	34581.42
523.92	34824.83
524.10	34782.70
524.27	34693.76
524.44	34747.59
524.61	35030.80
524.78	34742.91
524.96	35021.44
525.13	35206.34
525.30	35306.98
525.47	35040.16
525.64	35072.93
525.81	35332.73
525.98	34738.23
526.16	35367.84
526.33	35491.88
526.50	35484.86
526.67	35065.91
526.84	35606.57
527.01	35395.92
527.18	35910.84
527.36	36055.95
527.53	35976.37
527.70	36177.66
527.87	36306.39
528.04	35716.58
528.21	36313.41
528.38	36297.03
528.55	36367.24
528.72	35784.45
528.89	36404.69
529.07	36142.55
529.24	36140.21
529.41	36725.35
529.58	36311.07
529.75	36285.33
529.92	36549.81
530.09	36428.10
530.26	36311.07
530.43	36701.94
530.60	36608.32
530.77	36715.98
530.94	36959.40
531.11	36999.19
531.28	37263.67
531.46	37177.07
531.63	37312.82
531.80	36833.01
531.97	37446.23
532.14	37474.32
532.31	37202.82
532.48	37654.54
532.65	37771.57
532.82	37364.31
532.99	37385.38
533.16	37521.13
533.33	37818.38
533.50	37509.43
533.67	37497.72
533.84	38017.32
534.01	37329.20
534.18	37586.66
534.35	37926.04
534.52	37984.55
534.69	38019.66
534.86	38487.77
535.03	37944.76
535.20	38113.28
535.37	38724.16
535.54	38424.57
535.71	38253.72
535.88	38534.58
536.05	38658.63
536.22	38834.17
536.38	38204.56
536.55	38476.07
536.72	38506.49
536.89	38349.68
537.06	38700.76
537.23	38607.14
537.40	38476.07
537.57	38721.82
537.74	38904.38
537.91	39143.12
538.08	39000.35
538.25	39075.24
538.42	39108.01
538.59	39456.75
538.75	39026.09
538.92	39351.43
539.09	39643.99
539.26	39239.08
539.43	39777.40
539.60	39452.07
539.77	39253.12
539.94	39789.11
540.11	39782.09
540.28	40034.86
540.44	39917.84
540.61	40020.82
540.78	39594.84
540.95	39789.11
541.12	39648.68
541.29	40027.84
541.46	40470.20
541.62	40072.31
541.79	40074.65
541.96	39899.11
542.13	40348.50
542.30	39981.03
542.47	40091.04
542.63	40367.22
542.80	40383.60
542.97	40484.25
543.14	41198.11
543.31	40973.42
543.48	40774.47
543.64	41163.00
543.81	40765.11
543.98	40840.01
544.15	40727.66
544.32	41429.82
544.48	41504.72
544.65	41324.50
544.82	41153.64
544.99	41656.85
545.16	41350.24
545.32	41090.44
545.49	41778.56
545.66	41909.63
545.83	41514.08
546.00	42014.96
546.16	41216.83
546.33	41385.35
546.50	41155.98
546.67	41581.96
546.83	41270.67
547.00	41385.35
547.17	41237.90
547.34	41720.05
547.50	41827.71
547.67	41984.53
547.84	41420.46
548.00	41869.84
548.17	42258.37
548.34	41897.93
548.51	42036.02
548.67	41926.02
548.84	41916.65
549.01	42146.03
549.18	41855.80
549.34	42195.18
549.51	42471.36
549.68	42270.08
549.84	42508.81
550.01	42433.91
550.18	41787.92
550.34	42183.48
550.51	42997.98
550.68	42473.70
550.84	41947.08
551.01	42492.43
551.18	42124.96
551.34	42408.17
551.51	43021.39
551.68	42838.83
551.84	42913.72
552.01	42520.51
552.18	42969.90
552.34	42740.52
552.51	42810.74
552.68	42492.43
552.84	42920.74
553.01	42927.77
553.18	42841.17
553.34	42773.29
553.51	43133.73
553.67	43466.09
553.84	43571.41
554.01	43454.39
554.17	42878.61
554.34	43529.28
554.51	43395.87
554.67	43936.54
554.84	43538.65
555.00	43363.11
555.17	42997.98
555.33	43225.01
555.50	43702.48
555.67	43332.68
555.83	43805.47
556.00	43512.90
556.16	44009.09
556.33	43658.01
556.50	43676.74
556.66	43430.98
556.83	43688.44
556.99	43889.73
557.16	43950.58
557.32	44147.18
557.49	44325.07
557.65	43910.79
557.82	43915.47
557.98	43590.14
558.15	44353.15
558.32	43522.26
558.48	44081.65
558.65	44395.28
558.81	44292.30
558.98	44376.56
559.14	44264.21
559.31	44299.32
559.47	44357.83
559.64	43976.33
559.80	44399.96
559.97	44306.34
560.13	43957.60
560.30	44114.42
560.46	44582.52
560.63	44313.36
560.79	44928.92
560.96	44793.17
561.12	44725.30
561.29	44554.44
561.45	44561.46
561.61	44357.83
561.78	44676.15
561.94	44414.01
562.11	44898.50
562.27	45010.84
562.44	44378.90
562.60	44762.75
562.77	44854.03
562.93	44236.12
563.10	45228.51
563.26	44488.90
563.42	45022.54
563.59	44172.93
563.75	44322.72
563.92	44772.11
564.08	44818.92
564.24	44968.71
564.41	44762.75
564.57	44961.69
564.74	44776.79
564.90	44500.61
565.07	44704.23
565.23	44479.54
565.39	44802.53
565.56	44882.11
565.72	44989.78
565.88	45170.00
566.05	45017.86
566.21	45425.12
566.38	45003.82
566.54	44996.80
566.70	44847.00
566.87	45081.06
567.03	45013.18
567.19	45755.13
567.36	45052.97
567.52	45652.15
567.68	45312.77
567.85	45001.48
568.01	45425.12
568.17	45090.42
568.34	45705.98
568.50	45467.25
568.66	45308.09
568.83	45514.06
568.99	45155.96
569.15	45432.14
569.32	45448.52
569.48	45343.20
569.64	45799.60
569.81	45525.76
569.97	45521.08
570.13	45638.11
570.30	45258.94
570.46	45588.95
570.62	45689.60
570.78	45296.39
570.95	45567.89
571.11	45638.11
571.27	45741.09
571.43	45294.05
571.60	45738.75
571.76	45457.88
571.92	45221.49
572.09	45446.18
572.25	45567.89
572.41	45254.26
572.57	45467.25
572.74	46026.63
572.90	45879.18
573.06	45982.16
573.22	46246.65
573.38	45970.46
573.55	45645.13
573.71	46178.77
573.87	46087.49
574.03	45844.07
574.20	46059.40
574.36	45881.52
574.52	45565.55
574.68	45729.39
574.84	46281.75
575.01	46153.02
575.17	45921.31
575.33	45724.71
575.49	45794.92
575.65	46185.79
575.82	45680.24
575.98	45642.79
576.14	45933.01
576.30	46333.24
576.46	45607.68
576.62	45406.39
576.79	45797.26
576.95	45247.24
577.11	45977.48
577.27	46211.54
577.43	46005.57
577.59	45600.66
577.75	45563.21
577.92	45382.99
578.08	45628.74
578.24	45914.29
578.40	45881.52
578.56	46036.00
578.72	45647.47
578.88	46005.57
579.04	45895.56
579.21	45874.50
579.37	46380.06
579.53	45996.21
579.69	45801.94
579.85	46080.47
580.01	46127.28
580.17	45935.35
580.33	45867.48
580.49	46138.98
580.65	46396.44
580.82	46068.76
580.98	46078.13
581.14	45544.48
581.30	46466.66
581.46	46014.93
581.62	45771.52
581.78	45858.12
581.94	46459.63
582.10	46504.10
582.26	46258.35
582.42	46066.42
582.58	46019.61
582.74	46335.59
582.90	46050.04
583.06	46335.59
583.22	46106.21
583.38	46546.23
583.54	46288.77
583.70	46511.13
583.86	46230.26
584.02	45979.82
584.18	46600.07
584.34	46471.34
584.50	46351.97
584.66	46391.76
584.82	46059.40
584.98	46340.27
585.14	46513.47
585.30	45930.67
585.46	46670.28
585.62	45940.04
585.78	46375.37
585.94	46087.49
586.10	45872.16
586.26	45977.48
586.42	46574.32
586.58	46681.98
586.74	46087.49
586.90	46419.84
587.06	45925.99
587.22	46134.30
587.38	46148.34
587.54	46527.51
587.70	46777.95
587.86	46426.87
588.02	45996.21
588.18	46560.28
588.34	46143.66
588.49	46424.53
588.65	46351.97
588.81	46436.23
588.97	46216.22
589.13	46333.24
589.29	46529.85
589.45	46375.37
589.61	46642.20
589.77	46810.71
589.93	46609.43
590.08	46857.52
590.24	46913.70
590.40	46646.88
590.56	46780.29
590.72	46518.15
590.88	46323.88
591.04	46412.82
591.20	46501.76
591.35	46724.11
591.51	46904.34
591.67	46712.41
591.83	47194.56
591.99	46305.16
592.15	46621.13
592.31	46658.58
592.46	46623.47
592.62	46485.38
592.78	46831.78
592.94	47241.37
593.10	46913.70
593.26	47503.51
593.41	47075.19
593.57	46909.02
593.73	46855.18
593.89	47131.37
594.05	46997.96
594.20	46794.33
594.36	47044.77
594.52	47356.06
594.68	46660.92
594.84	46780.29
594.99	47508.19
595.15	47079.88
595.31	46866.89
595.47	47061.15
595.62	46787.31
595.78	46864.55
595.94	47201.58
596.10	46958.17
596.25	47049.45
596.41	47117.32
596.57	46857.52
596.73	47168.82
596.88	47131.37
597.04	46883.27
597.20	46948.81
597.36	46869.23
597.51	46997.96
597.67	46927.74
597.83	47009.66
597.99	47264.78
598.14	46829.44
598.30	46937.10
598.46	46693.69
598.61	47437.98
598.77	47133.71
598.93	47122.01
599.09	46845.82
599.24	47217.97
599.40	46838.80
599.56	47334.99
599.71	47622.88
599.87	47786.72
600.03	47388.83
600.18	47337.33
600.34	47026.04
600.50	47253.08
600.65	46918.38
600.81	47901.40
600.97	47454.36
601.12	47327.97
601.28	47468.40
601.44	47597.13
601.59	47634.58
601.75	46808.37
601.91	47332.65
602.06	47185.20
602.22	47447.34
602.37	47086.90
602.53	46855.18
602.69	47337.33
602.84	46997.96
603.00	46873.91
603.16	46862.21
603.31	47405.21
603.47	47606.50
603.62	47150.09
603.78	47452.02
603.94	47140.73
604.09	47316.27
604.25	46712.41
604.40	47035.41
604.56	47290.52
604.71	47288.18
604.87	47178.18
605.03	46997.96
605.18	47122.01
605.34	47262.44
605.49	46712.41
605.65	47152.43
605.80	46876.25
605.96	47229.67
606.12	47096.26
606.27	47519.90
606.43	46857.52
606.58	47264.78
606.74	46916.04
606.89	46866.89
607.05	47302.23
607.20	47019.02
607.36	47122.01
607.51	46852.84
607.67	47171.16
607.82	46997.96
607.98	47007.32
608.13	47063.49
608.29	46838.80
608.44	47344.36
608.60	47026.04
608.75	47030.72
608.91	46768.58
609.06	46600.07
609.22	46953.49
609.37	46539.21
609.53	47016.68
609.68	46763.90
609.84	46597.73
609.99	46965.19
610.15	46887.95
610.30	46939.44
610.46	46571.98
610.61	46625.81
610.76	46960.51
610.92	46742.84
611.07	46265.37
611.23	46560.28
611.38	46859.87
611.54	46791.99
611.69	46960.51
611.84	47009.66
612.00	46995.62
612.15	46120.26
612.31	46880.93
612.46	46120.26
612.62	46401.12
612.77	46499.42
612.92	46967.53
613.08	46670.28
613.23	46410.48
613.39	46316.86
613.54	46644.54
613.69	46670.28
613.85	46431.55
614.00	46759.22
614.15	46597.73
614.31	46150.68
614.46	46616.45
614.62	46267.71
614.77	46389.42
614.92	46454.95
615.08	46417.50
615.23	46614.11
615.38	46576.66
615.54	46361.33
615.69	46438.57
615.84	46394.10
616.00	46754.54
616.15	46375.37
616.30	46852.84
616.46	46597.73
616.61	45979.82
616.76	46129.62
616.92	46014.93
617.07	46253.67
617.22	46286.43
617.37	45780.88
617.53	46454.95
617.68	45705.98
617.83	45729.39
617.99	46319.20
618.14	46403.46
618.29	45993.87
618.45	45921.31
618.60	46150.68
618.75	45422.78
618.90	45984.51
619.06	46129.62
619.21	46082.81
619.36	45895.56
619.51	45701.30
619.67	45813.65
619.82	45642.79
619.97	46148.34
620.12	45581.93
620.28	45916.63
620.43	46110.89
620.58	46033.66
620.73	45958.76
620.89	45869.82
621.04	45799.60
621.19	45970.46
621.34	45670.87
621.49	45628.74
621.65	45567.89
621.80	45979.82
621.95	45647.47
622.10	46005.57
622.25	45532.78
622.41	45418.10
622.56	45455.54
622.71	45832.37
622.86	45390.01
623.01	45769.18
623.16	45607.68
623.32	45710.66
623.47	45177.02
623.62	45762.15
623.77	45244.90
623.92	45492.99
624.07	45202.77
624.23	45581.93
624.38	45174.68
624.53	45127.87
624.68	45151.27
624.83	45188.72
624.98	45090.42
625.13	45052.97
625.29	45116.17
625.44	45036.59
625.59	45022.54
625.74	45062.33
625.89	44711.25
626.04	45277.66
626.19	44863.39
626.34	45083.40
626.49	45001.48
626.65	44390.60
626.80	45188.72
626.95	44610.61
627.10	44334.43
627.25	44992.12
627.40	44737.00
627.55	45003.82
627.70	44839.98
627.85	45013.18
628.00	44868.07
628.15	44795.51
628.30	44083.99
628.45	44060.58
628.60	44577.84
628.76	44776.79
628.91	44154.21
629.06	44025.48
629.21	44650.40
629.36	44009.09
629.51	43758.66
629.66	44561.46
629.81	44315.70
629.96	44835.30
630.11	44268.89
630.26	44184.63
630.41	44233.78
630.56	44533.37
630.71	44109.74
630.86	44245.49
631.01	44006.75
631.16	43992.71
631.31	43742.27
631.46	43917.81
631.61	44105.06
631.76	43885.04
631.91	44596.57
632.06	44215.06
632.21	44542.74
632.36	44261.87
632.51	43739.93
632.66	44102.71
632.81	43920.15
632.96	43880.36
633.10	43753.97
633.25	43936.54
633.40	43899.09
633.55	43803.13
633.70	43871.00
633.85	43648.65
634.00	43676.74
634.15	43831.21
634.30	43543.33
634.45	43679.08
634.60	43798.44
634.75	44126.12
634.90	43611.20
635.05	43718.87
635.19	43428.64
635.34	43503.54
635.49	43571.41
635.64	43681.42
635.79	44259.53
635.94	43634.61
636.09	43608.86
636.24	43496.52
636.39	43447.36
636.53	43552.69
636.68	43072.88
636.83	43299.91
636.98	43042.45
637.13	42878.61
637.28	43107.99
637.43	43037.77
637.57	43203.95
637.72	42700.73
637.87	43145.44
638.02	43107.99
638.17	42621.16
638.32	43028.41
638.46	42609.45
638.61	42536.90
638.76	42955.85
638.91	43138.41
639.06	42916.06
639.20	42576.69
639.35	42557.96
639.50	42789.67
639.65	42618.81
639.80	42829.46
639.94	42953.51
640.09	42707.76
640.24	43143.09
640.39	42504.13
640.54	42087.51
640.68	42770.95
640.83	42777.97
640.98	42279.44
641.13	42302.84
641.27	42796.70
641.42	42717.12
641.57	42298.16
641.72	42300.50
641.86	42419.87
642.01	42181.13
642.16	42485.40
642.31	41790.27
642.45	42567.32
642.60	41778.56
642.75	42394.12
642.90	42314.55
643.04	42155.39
643.19	41432.16
643.34	41998.57
643.48	42033.68
643.63	41876.86
643.78	42010.28
643.93	42115.60
644.07	42335.61
644.22	41949.42
644.37	42204.54
644.51	42347.31
644.66	42319.23
644.81	41804.31
644.95	41930.70
645.10	41883.89
645.25	42085.17
645.39	41811.33
645.54	41551.53
645.69	41163.00
645.83	41680.26
645.98	41818.35
646.13	41256.62
646.27	41226.20
646.42	41146.62
646.57	41926.02
646.71	41752.82
646.86	41661.54
647.00	41731.75
647.15	41364.29
647.30	41336.20
647.44	41207.47
647.59	41713.03
647.74	41474.29
647.88	41368.97
648.03	41785.58
648.17	41488.34
648.32	41560.89
648.47	41352.58
648.61	41333.86
648.76	41710.69
648.90	41165.34
649.05	41261.30
649.20	41041.29
649.34	41317.48
649.49	41614.72
649.63	41675.58
649.78	41249.60
649.92	41060.02
650.07	41975.17
650.21	41205.13
650.36	41216.83
650.51	41125.55
650.65	41701.32
650.80	41057.68
650.94	41265.99
651.09	41146.62
651.23	40556.80
651.38	40982.78
651.52	40517.01
651.67	40517.01
651.81	40596.59
651.96	41036.61
652.10	40217.43
652.25	40868.09
652.39	40643.40
652.54	40858.73
652.68	40624.68
652.83	40451.48
652.97	40491.27
653.12	40704.26
653.26	40161.25
653.41	40509.99
653.55	40678.51
653.70	40568.51
653.84	40816.60
653.99	40931.29
654.13	40542.76
654.27	40039.54
654.42	40294.66
654.56	40353.18
654.71	40144.87
654.85	40259.55
655.00	40615.32
655.14	40460.84
655.29	40605.95
655.43	40449.14
655.57	40215.08
655.72	39964.65
655.86	39896.77
656.01	40076.99
656.15	39903.79
656.30	40081.67
656.44	40175.30
656.58	40392.97
656.73	40243.17
656.87	39503.56
657.01	39632.29
657.16	39856.98
657.30	40149.55
657.45	39505.90
657.59	40069.97
657.73	39246.10
657.88	39901.45
658.02	39866.34
658.16	40027.84
658.31	39433.35
658.45	39742.30
658.60	39557.39
658.74	39999.76
658.88	39557.39
659.03	39517.60
659.17	39309.30
659.31	39405.26
659.46	39007.37
659.60	39395.90
659.74	38710.12
659.89	38675.01
660.03	38930.13
660.17	38890.34
660.32	39037.80
660.46	38742.89
660.60	38527.56
660.74	38621.18
660.89	38852.89
661.03	38684.37
661.17	38352.02
661.32	38459.68
661.46	38651.61
661.60	38426.92
661.74	38305.21
661.89	38447.98
662.03	38614.16
662.17	38141.37
662.31	38260.74
662.46	38298.19
662.60	38003.28
662.74	37886.25
662.88	37958.81
663.03	38148.39
663.17	38005.62
663.31	38043.07
663.45	37846.46
663.60	38185.84
663.74	38066.47
663.88	37930.72
664.02	38000.94
664.17	38059.45
664.31	37347.93
664.45	37357.29
664.59	37738.80
664.73	37212.18
664.88	37296.44
665.02	37280.05
665.16	37504.74
665.30	37404.10
665.44	37249.63
665.59	36952.38
665.73	37268.35
665.87	36957.06
666.01	36975.78
666.15	36945.36
666.29	37170.05
666.44	36802.58
666.58	37212.18
666.72	36404.69
666.86	36322.77
667.00	36264.26
667.14	36547.47
667.28	36669.17
667.43	36591.94
667.57	36409.37
667.71	36713.64
667.85	36580.23
667.99	37013.23
668.13	36271.28
668.27	35842.96
668.41	36481.93
668.56	35400.60
668.70	35779.77
668.84	35421.67
668.98	35646.36
669.12	36158.94
669.26	35735.30
669.40	35742.32
669.54	35723.60
669.68	35747.00
669.82	35388.90
669.96	35335.07
670.10	35068.25
670.25	35454.44
670.39	34909.09
670.53	35438.05
670.67	35218.04
670.81	35243.79
670.95	35002.71
671.09	35316.34
671.23	35093.99
671.37	35012.07
671.51	34974.63
671.65	34621.20
671.79	34436.30
671.93	34618.86
672.07	34572.05
672.21	34431.62
672.35	34284.17
672.49	34431.62
672.63	34029.05
672.77	33996.28
672.91	34057.14
673.05	34080.54
673.19	33699.03
673.33	34075.86
673.47	33937.77
673.61	33563.28
673.75	33429.87
673.89	33596.05
674.03	33113.90
674.17	32971.13
674.31	33460.30
674.45	33081.13
674.59	33179.43
674.73	33397.10
674.87	33181.77
675.01	32521.74
675.15	32664.52
675.29	32816.65
675.43	32790.91
675.56	32870.48
675.70	32332.16
675.84	33034.32
675.98	31768.09
676.12	32142.58
676.26	32364.93
676.40	32018.53
676.54	31758.73
676.68	31896.82
676.82	31562.12
676.96	31576.17
677.10	31887.46
677.23	31480.21
677.37	31512.97
677.51	31466.16
677.65	31005.08
677.79	31204.02
677.93	31236.79
678.07	31299.98
678.21	31005.08
678.34	30508.88
678.48	30663.36
678.62	30574.42
678.76	30202.27
678.90	30295.89
679.04	30213.98
679.18	30506.54
679.31	29970.56
679.45	30541.65
679.59	29902.68
679.73	29799.70
679.87	30000.99
680.00	29598.41
680.14	29465.00
680.28	29799.70
680.42	29383.09
680.56	29673.31
680.70	29006.26
680.83	29088.18
680.97	29104.56
681.11	28840.08
681.25	28606.03
681.39	28474.96
681.52	28278.35
681.66	28280.69
681.80	27894.50
681.94	28287.71
682.07	27892.16
682.21	28044.30
682.35	27592.58
682.49	27885.14
682.62	27573.85
682.76	28105.15
682.90	27503.64
683.04	27470.87
683.17	27597.26
683.31	27426.40
683.45	27384.27
683.59	26899.78
683.72	26848.29
683.86	27122.13
684.00	26904.46
684.13	26916.16
684.27	26349.75
684.41	26284.22
684.55	26431.67
684.68	26476.14
684.82	26237.41
684.96	26136.76
685.09	26029.10
685.23	26134.42
685.37	26654.02
685.50	26040.80
685.64	26146.12
685.78	25891.01
685.91	25998.67
686.05	25305.87
686.19	25429.92
686.32	25228.63
686.46	24718.40
686.60	24891.60
686.73	25127.99
686.87	25008.62
687.01	25268.42
687.14	24765.21
687.28	24992.24
687.42	24336.89
687.55	24517.11
687.69	24477.32
687.82	24280.72
687.96	24137.94
688.10	24264.33
688.23	24140.29
688.37	23953.04
688.50	24084.11
688.64	23971.77
688.78	23702.61
688.91	23676.86
689.05	23601.96
689.18	23442.81
689.32	23070.66
689.46	22717.24
689.59	22918.53
689.73	23154.92
689.86	23342.16
690.00	23005.13
690.13	22829.59
690.27	22588.51
690.41	22586.17
690.54	22574.47
690.68	22375.52
690.81	22085.30
690.95	22127.42
691.08	22075.93
691.22	22239.77
691.35	22235.09
691.49	21935.50
691.62	22249.13
691.76	21652.30
691.89	21326.96
692.03	21404.20
692.16	21097.59
692.30	21460.37
692.43	21488.46
692.57	21214.62
692.70	20950.14
692.84	20563.95
692.97	20638.84
693.11	20643.52
693.24	20634.16
693.38	20367.34
693.51	20400.11
693.65	20142.65
693.78	20360.32
693.92	20126.27
694.05	19957.75
694.19	20280.74
694.32	20032.65
694.45	20095.84
694.59	19882.85
694.72	19726.04
694.86	19690.93
694.99	19658.16
695.13	19302.40
695.26	19192.39
695.39	19367.93
695.53	19449.85
695.66	19077.71
695.80	18934.93
695.93	18977.06
696.07	18778.12
696.20	18389.59
696.33	18167.24
696.47	18480.87
696.60	18595.56
696.73	18625.98
696.87	18635.35
697.00	18567.47
697.14	18452.78
697.27	17942.55
697.40	18059.57
697.54	18026.81
697.67	18033.83
697.80	17848.93
697.94	17631.26
698.07	17600.83
698.21	17755.30
698.34	17694.45
698.47	17481.46
698.61	16774.62
698.74	17006.33
698.87	17296.56
699.01	16755.90
699.14	16882.28
699.27	16898.67
699.40	16842.50
699.54	16732.49
699.67	16725.47
699.80	16648.23
699.94	16554.61
700.07	16662.27
700.20	16519.50
700.34	16114.59
700.47	16262.04
700.60	16219.91
700.73	16081.82
700.87	16088.84
701.00	15651.16
701.13	15524.77
701.26	15756.49
701.40	15599.67
701.53	15496.69
701.66	15573.92
701.79	15405.41
701.93	15169.01
702.06	14951.34
702.19	15180.71
702.32	14993.47
702.46	15400.72
702.59	15239.23
702.72	15133.90
702.85	15009.86
702.99	14925.60
703.12	14651.75
703.25	14574.52
703.38	14618.99
703.51	14602.60
703.65	14462.17
703.78	14424.72
703.91	14017.47
704.04	14239.82
704.17	14017.47
704.31	13935.55
704.44	14108.75
704.57	14003.43
704.70	13839.59
704.83	13919.17
704.96	13486.17
705.10	13722.56
705.23	13495.53
>>>>>End Processed Spectral Data<<<<<
