SpectraSuite Data File
++++++++++++++++++++++++++++++++++++
Date: Fri Oct 25 11:33:44 EDT 2013
User: price-jones
Dark Spectrum Present: No
Reference Spectrum Present: No
Number of Sampled Component Spectra: 1
Spectrometers: USB2+H05261
Integration Time (usec): 100000 (USB2+H05261)
Spectra Averaged: 1 (USB2+H05261)
Boxcar Smoothing: 0 (USB2+H05261)
Correct for Electrical Dark: No (USB2+H05261)
Strobe/Lamp Enabled: No (USB2+H05261)
Correct for Detector Non-linearity: No (USB2+H05261)
Correct for Stray Light: No (USB2+H05261)
Number of Pixels in Processed Spectrum: 2048
>>>>>Begin Processed Spectral Data<<<<<
365.73	269.16
365.92	269.16
366.12	269.16
366.32	238.73
366.52	170.86
366.72	217.67
366.91	205.97
367.11	154.48
367.31	187.24
367.51	133.41
367.70	138.09
367.90	189.58
368.10	107.66
368.30	159.16
368.49	154.48
368.69	189.58
368.89	187.24
369.09	262.14
369.28	234.05
369.48	205.97
369.68	224.69
369.87	203.63
370.07	229.37
370.27	299.59
370.47	388.53
370.66	550.03
370.86	510.24
371.06	580.45
371.25	519.60
371.45	545.34
371.65	571.09
371.84	575.77
372.04	524.28
372.24	484.49
372.44	580.45
372.63	620.24
372.83	636.63
373.03	617.90
373.22	578.11
373.42	620.24
373.62	627.26
373.81	681.10
374.01	634.29
374.21	685.78
374.40	681.10
374.60	655.35
374.79	620.24
374.99	690.46
375.19	634.29
375.38	624.92
375.58	629.60
375.78	627.26
375.97	709.18
376.17	683.44
376.37	692.80
376.56	671.73
376.76	697.48
376.95	727.91
377.15	674.07
377.35	713.86
377.54	702.16
377.74	690.46
377.93	653.01
378.13	725.57
378.33	727.91
378.52	711.52
378.72	674.07
378.91	720.88
379.11	706.84
379.31	718.54
379.50	755.99
379.70	800.46
379.89	812.17
380.09	765.36
380.28	692.80
380.48	734.93
380.68	741.95
380.87	718.54
381.07	772.38
381.26	727.91
381.46	774.72
381.65	784.08
381.85	643.65
382.04	830.89
382.24	784.08
382.43	779.40
382.63	720.88
382.83	763.01
383.02	774.72
383.22	828.55
383.41	774.72
383.61	802.80
383.80	770.04
384.00	858.98
384.19	830.89
384.39	844.93
384.58	809.83
384.78	812.17
384.97	863.66
385.17	791.10
385.36	725.57
385.56	814.51
385.75	809.83
385.95	863.66
386.14	858.98
386.34	877.70
386.53	858.98
386.72	912.81
386.92	889.40
387.11	985.37
387.31	915.15
387.50	896.43
387.70	880.04
387.89	866.00
388.09	926.85
388.28	898.77
388.48	868.34
388.67	938.55
388.86	945.58
389.06	910.47
389.25	954.94
389.45	901.11
389.64	866.00
389.84	1067.28
390.03	964.30
390.22	978.34
390.42	999.41
390.61	978.34
390.81	968.98
391.00	999.41
391.19	1008.77
391.39	954.94
391.58	1071.97
391.78	1013.45
391.97	1043.88
392.16	940.90
392.36	1039.20
392.55	1048.56
392.75	994.73
392.94	1055.58
393.13	1111.75
393.33	1022.81
393.52	1090.69
393.71	1107.07
393.91	1057.92
394.10	1104.73
394.29	1069.62
394.49	1048.56
394.68	1109.41
394.88	1090.69
395.07	1130.48
395.26	1097.71
395.46	1170.27
395.65	1219.42
395.84	1144.52
396.04	1235.80
396.23	1123.46
396.42	1294.32
396.62	1203.04
396.81	1287.29
397.00	1240.48
397.19	1249.85
397.39	1198.35
397.58	1156.22
397.77	1259.21
397.97	1228.78
398.16	1289.64
398.35	1268.57
398.55	1296.66
398.74	1289.64
398.93	1418.36
399.12	1341.13
399.32	1350.49
399.51	1345.81
399.70	1369.21
399.90	1327.08
400.09	1359.85
400.28	1479.22
400.47	1383.26
400.67	1423.05
400.86	1369.21
401.05	1420.71
401.24	1427.73
401.44	1451.13
401.63	1479.22
401.82	1535.39
402.01	1504.96
402.21	1530.71
402.40	1434.75
402.59	1586.88
402.78	1589.22
402.97	1481.56
403.17	1549.43
403.36	1563.48
403.55	1462.83
403.74	1640.72
403.93	1533.05
404.13	1565.82
404.32	1563.48
404.51	1586.88
404.70	1624.33
404.89	1514.33
405.09	1846.68
405.28	1806.89
405.47	1694.55
405.66	1734.34
405.85	1760.08
406.05	1671.14
406.24	1785.83
406.43	1727.32
406.62	1820.94
406.81	1804.55
407.00	1785.83
407.20	1827.96
407.39	1898.17
407.58	1830.30
407.77	1877.11
407.96	1865.41
408.15	1947.33
408.34	1785.83
408.54	1914.56
408.73	1921.58
408.92	1982.43
409.11	1905.20
409.30	2001.16
409.49	1966.05
409.68	2031.58
409.87	2066.69
410.07	2125.21
410.26	2064.35
410.45	1966.05
410.64	2054.99
410.83	2087.76
411.02	2146.27
411.21	2078.40
411.40	2155.63
411.59	2223.51
411.78	2270.32
411.98	2160.31
412.17	2331.17
412.36	2218.83
412.55	2328.83
412.74	2429.48
412.93	2324.15
413.12	2321.81
413.31	2471.61
413.50	2443.52
413.69	2443.52
413.88	2385.01
414.07	2544.16
414.26	2441.18
414.45	2614.38
414.64	2654.17
414.83	2607.36
415.02	2647.15
415.22	2612.04
415.41	2733.75
415.60	2675.23
415.79	2715.02
415.98	2736.09
416.17	2773.53
416.36	2712.68
416.55	2778.22
416.74	2710.34
416.93	2834.39
417.12	2841.41
417.31	2890.56
417.50	2918.65
417.69	2960.78
417.88	2949.08
418.07	2899.92
418.26	2899.92
418.45	2913.97
418.64	3033.33
418.83	3169.09
419.02	3091.85
419.21	3089.51
419.39	3091.85
419.58	3133.98
419.77	3124.62
419.96	3155.04
420.15	3157.38
420.34	3255.69
420.53	3239.30
420.72	3255.69
420.91	3279.09
421.10	3295.47
421.29	3262.71
421.48	3293.13
421.67	3335.26
421.86	3428.88
422.05	3267.39
422.24	3353.99
422.43	3318.88
422.61	3389.10
422.80	3435.91
422.99	3438.25
423.18	3358.67
423.37	3534.21
423.56	3428.88
423.75	3499.10
423.94	3382.07
424.13	3222.92
424.32	3262.71
424.50	3499.10
424.69	3597.40
424.88	3482.72
425.07	3332.92
425.26	3473.36
425.45	3304.84
425.64	3459.31
425.83	3513.14
426.01	3475.70
426.20	3562.30
426.39	3473.36
426.58	3515.48
426.77	3438.25
426.96	3447.61
427.15	3480.38
427.33	3531.87
427.52	3604.42
427.71	3637.19
427.90	3576.34
428.09	3634.85
428.28	3627.83
428.46	3733.15
428.65	3674.64
428.84	3824.44
429.03	3775.28
429.22	3707.41
429.40	3737.84
429.59	3894.65
429.78	3796.35
429.97	3674.64
430.16	3810.39
430.34	3765.92
430.53	3880.61
430.72	3941.46
430.91	3967.21
431.10	3836.14
431.28	3985.93
431.47	4035.08
431.66	4044.45
431.85	3901.67
432.03	4112.32
432.22	4205.94
432.41	4023.38
432.60	4058.49
432.79	4004.66
432.97	3957.85
433.16	4133.39
433.35	4109.98
433.54	4252.75
433.72	4215.30
433.91	4170.83
434.10	4461.06
434.28	4189.56
434.47	4238.71
434.66	4299.56
434.85	4358.08
435.03	4287.86
435.22	4292.54
435.41	4456.38
435.59	4400.21
435.78	4425.95
435.97	4327.65
436.16	4362.76
436.34	4524.26
436.53	4465.74
436.72	4524.26
436.90	4318.29
437.09	4566.39
437.28	4561.70
437.46	4493.83
437.65	4414.25
437.84	4620.22
438.02	4599.15
438.21	4634.26
438.40	4615.54
438.58	4723.20
438.77	4732.56
438.96	4842.57
439.14	5078.96
439.33	4805.12
439.52	4905.76
439.70	4945.55
439.89	5041.51
440.08	4919.81
440.26	5027.47
440.45	5001.72
440.63	5123.43
440.82	5172.58
441.01	5006.41
441.19	5193.65
441.38	5247.48
441.57	5149.18
441.75	5291.95
441.94	5310.68
442.12	5308.34
442.31	5434.72
442.50	5397.28
442.68	5289.61
442.87	5467.49
443.05	5467.49
443.24	5584.52
443.43	5621.97
443.61	5521.32
443.80	5792.83
443.98	5544.73
444.17	5413.66
444.35	5654.73
444.54	5694.52
444.73	5703.89
444.91	5774.10
445.10	5596.22
445.28	5724.95
445.47	5497.92
445.65	5764.74
445.84	5575.16
446.02	5659.42
446.21	5729.63
446.39	5664.10
446.58	5959.00
446.77	6001.13
446.95	5572.82
447.14	5738.99
447.32	5767.08
447.51	5664.10
447.69	5668.78
447.88	5694.52
448.06	5907.51
448.25	5717.93
448.43	5825.59
448.62	5795.17
448.80	5877.09
448.99	5928.58
449.17	6083.05
449.36	5734.31
449.54	5968.37
449.73	6050.28
449.91	6118.16
450.10	6108.80
450.28	6153.27
450.46	6167.31
450.65	6066.67
450.83	6164.97
451.02	6251.57
451.20	6326.47
451.39	6235.19
451.57	6333.49
451.76	6136.88
451.94	6258.59
452.13	6427.11
452.31	6204.76
452.49	6064.33
452.68	6347.53
452.86	6197.74
453.05	6413.07
453.23	6305.40
453.42	6279.66
453.60	6216.46
453.78	6455.20
453.97	6574.56
454.15	6527.75
454.34	6312.42
454.52	6677.55
454.70	6595.63
454.89	6518.39
455.07	6621.38
455.26	6651.80
455.44	6970.12
455.62	6703.29
455.81	6593.29
455.99	6644.78
456.17	6773.51
456.36	6707.98
456.54	6974.80
456.73	6874.15
456.91	7166.72
457.09	7009.90
457.28	7225.23
457.46	7042.67
457.64	7185.44
457.83	7073.10
458.01	7021.61
458.19	7178.42
458.38	7054.37
458.56	7236.94
458.74	7194.81
458.93	7316.51
459.11	7330.56
459.29	7281.41
459.48	7342.26
459.66	7377.37
459.84	7190.13
460.03	7440.56
460.21	7447.58
460.39	7290.77
460.57	7412.48
460.76	7412.48
460.94	7517.80
461.12	7482.69
461.31	7548.23
461.49	7375.03
461.67	7529.50
461.85	7693.34
462.04	7702.70
462.22	7990.59
462.40	7786.96
462.59	7892.29
462.77	7791.64
462.95	7808.03
463.13	7990.59
463.32	7815.05
463.50	7946.12
463.68	7754.19
463.86	7915.69
464.05	7761.22
464.23	7831.43
464.41	7955.48
464.59	7953.14
464.78	8074.85
464.96	7934.42
465.14	8037.40
465.32	8016.33
465.50	8016.33
465.69	8243.37
465.87	8140.38
466.05	7992.93
466.23	8028.04
466.41	8273.79
466.60	8557.00
466.78	8088.89
466.96	8198.90
467.14	8341.67
467.32	8325.29
467.51	8374.44
467.69	8273.79
467.87	8315.92
468.05	8507.85
468.23	8290.18
468.41	8493.80
468.60	8484.44
468.78	8613.17
468.96	8493.80
469.14	8578.06
469.32	8683.39
469.50	8493.80
469.69	8779.35
469.87	8856.59
470.05	8828.50
470.23	8781.69
470.41	8889.35
470.59	8868.29
470.77	8807.44
470.95	8826.16
471.14	9029.79
471.32	8940.85
471.50	9135.11
471.68	8713.81
471.86	8947.87
472.04	9149.15
472.22	9390.23
472.40	9245.12
472.58	9217.03
472.77	9121.07
472.95	9373.85
473.13	9678.12
473.31	9404.27
473.49	9547.05
473.67	9673.43
473.85	9643.01
474.03	9643.01
474.21	9687.48
474.39	9778.76
474.57	9626.62
474.75	9977.70
474.93	10113.45
475.12	9858.34
475.30	10204.74
475.48	10115.80
475.66	10265.59
475.84	10036.22
476.02	10097.07
476.20	10274.95
476.38	10553.48
476.56	10424.75
476.74	10485.60
476.92	10850.72
477.10	10492.62
477.28	10633.05
477.46	10721.99
477.64	10822.64
477.82	11122.23
478.00	11220.53
478.18	11063.71
478.36	11192.44
478.54	11265.00
478.72	11309.47
478.90	11676.93
479.08	11613.74
479.26	11658.21
479.44	11688.64
479.62	11777.58
479.80	11749.49
479.98	12203.55
480.16	12053.76
480.34	12287.81
480.52	12264.41
480.70	12437.61
480.88	12098.23
481.06	12432.93
481.24	12376.75
481.41	12685.70
481.59	12564.00
481.77	12802.73
481.95	12791.03
482.13	13123.38
482.31	12994.65
482.49	13235.73
482.67	13474.46
482.85	13404.25
483.03	13266.16
483.21	13678.09
483.39	13860.65
483.57	13650.00
483.74	13851.29
483.92	14223.44
484.10	13958.96
484.28	14380.25
484.46	14473.87
484.64	14775.80
484.82	14501.96
485.00	14736.01
485.18	14766.44
485.35	15295.40
485.53	15082.41
485.71	15269.66
485.89	15391.36
486.07	15646.48
486.25	15428.81
486.43	15229.87
486.61	15805.64
486.78	15985.86
486.96	16147.36
487.14	16145.02
487.32	16266.72
487.50	16271.40
487.68	16442.26
487.85	16631.85
488.03	16699.72
488.21	17170.17
488.39	17092.93
488.57	17453.37
488.75	17324.65
488.92	17158.47
489.10	17547.00
489.28	17703.81
489.46	18214.05
489.64	17767.01
489.81	18412.99
489.99	18192.98
490.17	18178.94
490.35	18466.83
490.53	18794.50
490.70	18860.04
490.88	18321.71
491.06	18925.57
491.24	18920.89
491.41	19201.76
491.59	19339.85
491.77	19262.61
491.95	19318.78
492.13	19433.47
492.30	19978.81
492.48	19765.82
492.66	19967.11
492.84	19768.16
493.01	20315.85
493.19	20149.67
493.37	20531.18
493.54	20402.45
493.72	20540.54
493.90	20861.19
494.08	20706.72
494.25	20886.94
494.43	20926.73
494.61	21113.97
494.79	21214.62
494.96	21301.22
495.14	21443.99
495.32	21708.47
495.49	21724.85
495.67	21551.65
495.85	22073.59
496.02	22410.63
496.20	22686.81
496.38	22382.54
496.55	22239.77
496.73	22993.42
496.91	23005.13
497.09	22895.12
497.26	23077.68
497.44	22752.35
497.62	23339.82
497.79	23297.69
497.97	23248.54
498.14	23772.82
498.32	23765.80
498.50	23744.73
498.67	23964.75
498.85	24116.88
499.03	23971.77
499.20	24098.16
499.38	24374.34
499.56	24702.01
499.73	24582.65
499.91	24872.87
500.08	24767.55
500.26	24606.05
500.44	24760.53
500.61	25060.12
500.79	24994.58
500.97	25170.12
501.14	25146.72
501.32	25364.39
501.49	25064.80
501.67	25582.06
501.84	25940.16
502.02	25706.10
502.20	25682.70
502.37	25806.75
502.55	25359.70
502.72	26183.57
502.90	26450.39
503.07	25783.34
503.25	26302.94
503.43	26094.63
503.60	26396.56
503.78	26394.22
503.95	26382.52
504.13	26639.98
504.30	26829.56
504.48	27084.68
504.65	27187.66
504.83	27124.47
505.01	27124.47
505.18	27072.98
505.36	27838.33
505.53	27012.12
505.71	27426.40
505.88	27513.00
506.06	27122.13
506.23	27449.80
506.41	27789.18
506.58	27843.01
506.76	27931.95
506.93	28280.69
507.11	27999.83
507.28	28261.97
507.46	28112.17
507.63	28325.16
507.81	28521.77
507.98	28336.87
508.16	28865.83
508.33	28865.83
508.50	28669.22
508.68	28774.55
508.85	29172.44
509.03	28936.04
509.20	29422.87
509.38	29685.01
509.55	29263.72
509.73	29486.07
509.90	29223.93
510.08	29689.70
510.25	29193.50
510.42	29642.88
510.60	29743.53
510.77	29717.78
510.95	29956.52
511.12	30092.27
511.30	29792.68
511.47	30508.88
511.64	30113.33
511.82	30476.12
511.99	29989.28
512.17	30410.58
512.34	30661.02
512.51	31550.42
512.69	31161.89
512.86	31072.95
513.04	30696.13
513.21	30953.58
513.38	31290.62
513.56	31122.10
513.73	31145.51
513.90	31072.95
514.08	30864.64
514.25	31683.83
514.43	31857.03
514.60	31655.75
514.77	31906.18
514.95	31936.61
515.12	31421.69
515.29	32060.66
515.47	32006.83
515.64	32222.16
515.81	32236.20
515.99	32528.77
516.16	32079.38
516.33	32641.11
516.51	32528.77
516.68	32484.30
516.85	32334.50
517.03	32561.53
517.20	32704.31
517.37	32627.07
517.54	32929.00
517.72	33158.37
517.89	33081.13
518.06	33270.72
518.24	32954.74
518.41	33149.01
518.58	33291.78
518.75	33259.01
518.93	33699.03
519.10	33198.16
519.27	33645.20
519.45	33722.44
519.62	33539.88
519.79	33722.44
519.96	34103.95
520.14	33996.28
520.31	33961.17
520.48	33881.60
520.65	34335.66
520.83	34204.59
521.00	34270.12
521.17	34700.78
521.34	34651.63
521.52	34780.36
521.69	34836.53
521.86	34913.77
522.03	35089.31
522.20	34899.73
522.38	35632.32
522.55	35040.16
522.72	35459.12
522.89	34981.65
523.07	35470.82
523.24	35545.72
523.41	35545.72
523.58	35424.01
523.75	35564.44
523.92	35641.68
524.10	35580.82
524.27	35824.24
524.44	35847.64
524.61	36163.62
524.78	36170.64
524.96	36093.40
525.13	36109.78
525.30	36084.04
525.47	36030.21
525.64	36189.36
525.81	36364.90
525.98	36582.57
526.16	36306.39
526.33	36563.85
526.50	36605.98
526.67	36605.98
526.84	36910.25
527.01	36713.64
527.18	36767.48
527.36	36825.99
527.53	37132.60
527.70	37310.48
527.87	37090.47
528.04	36863.44
528.21	37207.50
528.38	37366.65
528.55	37467.30
528.72	37507.08
528.89	37809.01
529.07	37120.90
529.24	37111.53
529.41	37942.42
529.58	37825.40
529.75	37640.50
529.92	37886.25
530.09	38113.28
530.26	37553.90
530.43	37869.87
530.60	37425.17
530.77	37549.21
530.94	37741.14
531.11	38099.24
531.28	37921.36
531.46	38227.97
531.63	38239.67
531.80	38225.63
531.97	38611.82
532.14	38600.12
532.31	38029.02
532.48	38920.77
532.65	38700.76
532.82	38314.57
532.99	38525.22
533.16	38497.13
533.33	38583.73
533.50	39110.35
533.67	38569.69
533.84	38890.34
534.01	39047.16
534.18	38899.70
534.35	39213.34
534.52	39084.61
534.69	39203.97
534.86	39026.09
535.03	39405.26
535.20	39438.03
535.37	39796.13
535.54	39796.13
535.71	39236.74
535.88	39765.70
536.05	39648.68
536.22	40156.57
536.38	39629.95
536.55	39910.82
536.72	39571.44
536.89	39728.25
537.06	39866.34
537.23	39981.03
537.40	39882.73
537.57	40165.93
537.74	40334.45
537.91	40666.81
538.08	40432.75
538.25	40023.16
538.42	40584.89
538.59	40435.10
538.75	40421.05
538.92	40421.05
539.09	40231.47
539.26	40690.21
539.43	40140.19
539.60	40559.14
539.77	40884.48
539.94	40849.37
540.11	40847.03
540.28	41357.27
540.44	41053.00
540.61	41137.26
540.78	40985.12
540.95	40961.72
541.12	40905.54
541.29	40720.64
541.46	41083.42
541.62	41104.49
541.79	41607.70
541.96	41148.96
542.13	41008.53
542.30	41270.67
542.47	41200.45
542.63	41935.38
542.80	41656.85
542.97	42007.94
543.14	41942.40
543.31	42038.36
543.48	42050.06
543.64	42632.86
543.81	42375.40
543.98	42239.65
544.15	42064.11
544.32	42548.60
544.48	42621.16
544.65	42588.39
544.82	42300.50
544.99	42234.97
545.16	42363.70
545.32	42499.45
545.49	42754.57
545.66	42792.01
545.83	42674.99
546.00	42993.30
546.16	42876.27
546.33	43138.41
546.50	42792.01
546.67	42792.01
546.83	42557.96
547.00	43208.63
547.17	42895.00
547.34	42789.67
547.50	43222.67
547.67	43285.87
547.84	43185.22
548.00	43044.79
548.17	43599.50
548.34	43105.65
548.51	43267.14
548.67	43662.69
548.84	43421.62
549.01	43454.39
549.18	43295.23
549.34	43089.26
549.51	43540.99
549.68	43761.00
549.84	43803.13
550.01	43250.76
550.18	43054.15
550.34	43992.71
550.51	44252.51
550.68	43835.89
550.84	43526.94
551.01	44051.22
551.18	43363.11
551.34	43749.29
551.51	43915.47
551.68	44177.61
551.84	43917.81
552.01	43903.77
552.18	44189.31
552.34	43943.56
552.51	44360.17
552.68	44245.49
552.84	44369.54
553.01	44135.48
553.18	43782.06
553.34	44414.01
553.51	44011.43
553.67	44481.88
553.84	44437.41
554.01	44612.95
554.17	44423.37
554.34	44278.25
554.51	44739.34
554.67	44657.42
554.84	44755.72
555.00	44451.45
555.17	44758.06
555.33	44919.56
555.50	44727.64
555.67	44872.75
555.83	45235.53
556.00	45200.43
556.16	45357.24
556.33	44865.73
556.50	44648.06
556.66	45067.02
556.83	44779.13
556.99	45020.20
557.16	45296.39
557.32	45666.19
557.49	45535.12
557.65	44921.90
557.82	45174.68
557.98	45310.43
558.15	44966.37
558.32	45170.00
558.48	45441.50
558.65	45303.41
558.81	45429.80
558.98	45387.67
559.14	45368.94
559.31	45074.04
559.47	45127.87
559.64	45422.78
559.80	45668.53
559.97	45539.80
560.13	45411.07
560.30	45478.95
560.46	45668.53
560.63	45832.37
560.79	45549.17
560.96	45883.86
561.12	46234.94
561.29	45450.86
561.45	45977.48
561.61	45937.69
561.78	46026.63
561.94	45378.31
562.11	46192.81
562.27	45804.28
562.44	45736.41
562.60	45888.54
562.77	45591.30
562.93	45668.53
563.10	45755.13
563.26	46244.30
563.42	46312.18
563.59	45914.29
563.75	46143.66
563.92	45979.82
564.08	45703.64
564.24	46358.99
564.41	46010.25
564.57	45818.33
564.74	46302.82
564.90	45970.46
565.07	46057.06
565.23	46265.37
565.39	45787.90
565.56	46160.05
565.72	46089.83
565.88	46429.21
566.05	46426.87
566.21	46452.61
566.38	46270.05
566.54	46110.89
566.70	46618.79
566.87	46113.23
567.03	46534.53
567.19	46726.46
567.36	46464.32
567.52	46494.74
567.68	46534.53
567.85	46850.50
568.01	46993.28
568.17	46295.80
568.34	46766.24
568.50	46806.03
568.66	46267.71
568.83	46916.04
568.99	46363.67
569.15	46288.77
569.32	46590.70
569.48	46663.26
569.64	46986.25
569.81	46815.40
569.97	46883.27
570.13	46787.31
570.30	46686.67
570.46	46724.11
570.62	46859.87
570.78	46632.83
570.95	46543.89
571.11	46925.40
571.27	46721.77
571.43	47037.75
571.60	47344.36
571.76	46637.51
571.92	46913.70
572.09	46749.86
572.25	46813.05
572.41	46738.16
572.57	46614.11
572.74	47159.45
572.90	46784.97
573.06	47360.74
573.22	47194.56
573.38	46986.25
573.55	47187.54
573.71	47625.22
573.87	47133.71
574.03	46988.60
574.20	47096.26
574.36	47122.01
574.52	47030.72
574.68	47072.85
574.84	47264.78
575.01	47264.78
575.17	47452.02
575.33	47264.78
575.49	47028.38
575.65	47061.15
575.82	47103.28
575.98	46813.05
576.14	47667.35
576.30	47173.50
576.46	47463.72
576.62	46923.06
576.79	46951.15
576.95	46946.47
577.11	46997.96
577.27	47199.24
577.43	47049.45
577.59	47311.59
577.75	47150.09
577.92	46848.16
578.08	47157.11
578.24	47012.00
578.40	46946.47
578.56	47260.10
578.72	47461.38
578.88	47175.84
579.04	47206.26
579.21	47295.21
579.37	47358.40
579.53	47309.25
579.69	46855.18
579.85	47110.30
580.01	47505.85
580.17	47241.37
580.33	46993.28
580.49	47489.47
580.65	47000.30
580.82	47878.00
580.98	47117.32
581.14	46897.31
581.30	47435.64
581.46	47262.44
581.62	47269.46
581.78	47122.01
581.94	47402.87
582.10	47056.47
582.26	47473.09
582.42	47077.54
582.58	47250.74
582.74	47442.66
582.90	47784.38
583.06	47522.24
583.22	46988.60
583.38	47650.97
583.54	47484.79
583.70	47208.61
583.86	47800.76
584.02	47187.54
584.18	47571.39
584.34	47536.28
584.50	47440.32
584.66	47412.23
584.82	47400.53
584.98	47285.84
585.14	47681.39
585.30	47615.86
585.46	47466.06
585.62	47058.81
585.78	47323.29
585.94	47674.37
586.10	47522.24
586.26	47510.53
586.42	46948.81
586.58	47468.40
586.74	47452.02
586.90	47288.18
587.06	47515.22
587.22	47229.67
587.38	47543.30
587.54	47426.28
587.70	47896.72
587.86	47758.63
588.02	47107.96
588.18	47454.36
588.34	47765.65
588.49	47849.91
588.65	47306.91
588.81	47395.85
588.97	47782.04
589.13	47452.02
589.29	47648.63
589.45	48023.11
589.61	47983.32
589.77	47751.61
589.93	47327.97
590.08	47306.91
590.24	48034.81
590.40	48158.86
590.56	48193.97
590.72	47622.88
590.88	47625.22
591.04	47814.80
591.20	47627.56
591.35	47978.64
591.51	47943.53
591.67	48278.23
591.83	48413.98
591.99	47931.83
592.15	48032.47
592.31	47880.34
592.46	47430.96
592.62	48163.54
592.78	48116.73
592.94	48023.11
593.10	48493.56
593.26	48095.67
593.41	48128.44
593.57	48098.01
593.73	48404.62
593.89	48605.91
594.05	48067.58
594.20	48116.73
594.36	48313.34
594.52	48250.14
594.68	48362.49
594.84	47962.26
594.99	48189.29
595.15	48280.57
595.31	48215.04
595.47	48360.15
595.62	48062.90
595.78	48676.12
595.94	48208.01
596.10	47880.34
596.25	48273.55
596.41	48437.39
596.57	48004.39
596.73	48495.90
596.88	48058.22
597.04	48116.73
597.20	48172.91
597.36	48069.92
597.51	48137.80
597.67	48308.66
597.83	48165.88
597.99	48289.93
598.14	48018.43
598.30	48287.59
598.46	48418.66
598.61	48587.18
598.77	48161.20
598.93	48474.84
599.09	47903.74
599.24	48383.55
599.40	48184.61
599.56	48488.88
599.71	48781.45
599.87	49029.54
600.03	48404.62
600.18	48385.89
600.34	48406.96
600.50	48446.75
600.65	48540.37
600.81	48788.47
600.97	48439.73
601.12	48744.00
601.28	48603.56
601.44	48528.67
601.59	48219.72
601.75	48715.91
601.91	48561.44
602.06	48168.22
602.22	48446.75
602.37	48671.44
602.53	48350.79
602.69	48428.02
602.84	48399.94
603.00	48058.22
603.16	48694.85
603.31	48694.85
603.47	48362.49
603.62	48463.13
603.78	48994.43
603.94	48102.69
604.09	48699.53
604.25	48629.31
604.40	48311.00
604.56	48687.82
604.71	48666.76
604.87	48257.17
605.03	48086.31
605.18	47980.98
605.34	48641.01
605.49	47868.64
605.65	48357.81
605.80	47641.60
605.96	47835.87
606.12	48381.21
606.27	48463.13
606.43	48172.91
606.58	48271.21
606.74	48044.18
606.89	48238.44
607.05	48449.09
607.20	48409.30
607.36	48032.47
607.51	48418.66
607.67	48348.45
607.82	48048.86
607.98	48421.00
608.13	48009.07
608.29	48140.14
608.44	48371.85
608.60	47885.02
608.75	48334.40
608.91	47938.85
609.06	47767.99
609.22	48643.35
609.37	48196.31
609.53	48409.30
609.68	48430.36
609.84	48051.20
609.99	47997.37
610.15	48224.40
610.30	48313.34
610.46	48158.86
610.61	48102.69
610.76	48034.81
610.92	47814.80
611.07	47491.81
611.23	47950.56
611.38	48004.39
611.54	48357.81
611.69	48231.42
611.84	48233.76
612.00	48315.68
612.15	47812.46
612.31	47732.89
612.46	47807.78
612.62	47910.77
612.77	47533.94
612.92	48051.20
613.08	47887.36
613.23	48102.69
613.39	47657.99
613.54	47697.78
613.69	47973.96
613.85	47665.01
614.00	47592.45
614.15	48067.58
614.31	47470.75
614.46	47557.35
614.62	47688.42
614.77	47501.17
614.92	47943.53
615.08	48062.90
615.23	47880.34
615.38	48102.69
615.54	47512.88
615.69	47760.97
615.84	47379.46
616.00	47903.74
616.15	47304.57
616.30	47445.00
616.46	47288.18
616.61	47604.16
616.76	47908.43
616.92	47487.13
617.07	47363.08
617.22	47475.43
617.37	47201.58
617.53	47290.52
617.68	47040.09
617.83	47093.92
617.99	47627.56
618.14	47753.95
618.29	47377.12
618.45	47007.32
618.60	47255.42
618.75	47154.77
618.90	46838.80
619.06	47021.36
619.21	47126.69
619.36	47428.62
619.51	47002.64
619.67	47114.98
619.82	47229.67
619.97	47316.27
620.12	46948.81
620.28	47122.01
620.43	47168.82
620.58	47187.54
620.73	47086.90
620.89	47077.54
621.04	47356.06
621.19	46969.87
621.34	46735.82
621.49	47044.77
621.65	46735.82
621.80	47292.86
621.95	46981.57
622.10	47007.32
622.25	46806.03
622.41	46855.18
622.56	46855.18
622.71	47262.44
622.86	46791.99
623.01	46976.89
623.16	46595.38
623.32	46595.38
623.47	46574.32
623.62	46579.00
623.77	46478.36
623.92	46667.94
624.07	46466.66
624.23	46480.70
624.38	46733.48
624.53	46401.12
624.68	45921.31
624.83	46466.66
624.98	46274.73
625.13	45727.05
625.29	46293.46
625.44	46361.33
625.59	46279.41
625.74	46251.33
625.89	46330.90
626.04	46040.68
626.19	46319.20
626.34	46258.35
626.49	45998.55
626.65	46288.77
626.80	45818.33
626.95	46185.79
627.10	45851.09
627.25	46099.19
627.40	45804.28
627.55	46405.80
627.70	46108.55
627.85	45694.28
628.00	46445.59
628.15	45940.04
628.30	46007.91
628.45	45530.44
628.60	45116.17
628.76	45839.39
628.91	45989.19
629.06	45677.90
629.21	45329.16
629.36	45577.25
629.51	45607.68
629.66	45925.99
629.81	45345.54
629.96	45574.91
630.11	45546.82
630.26	45380.65
630.41	45647.47
630.56	45401.71
630.71	45787.90
630.86	45570.23
631.01	45577.25
631.16	45378.31
631.31	45214.47
631.46	45394.69
631.61	45560.87
631.76	45593.64
631.91	45343.20
632.06	45755.13
632.21	45673.21
632.36	45656.83
632.51	45071.70
632.66	45013.18
632.81	45111.49
632.96	44980.42
633.10	44692.53
633.25	44690.19
633.40	44807.22
633.55	45310.43
633.70	45221.49
633.85	44868.07
634.00	44694.87
634.15	44495.92
634.30	44596.57
634.45	44989.78
634.60	44893.82
634.75	45202.77
634.90	45167.66
635.05	45146.59
635.19	44947.65
635.34	44807.22
635.49	44598.91
635.64	44741.68
635.79	45249.58
635.94	44685.51
636.09	44893.82
636.24	44360.17
636.39	44601.25
636.53	44795.51
636.68	44722.96
636.83	44601.25
636.98	44280.60
637.13	44322.72
637.28	44364.85
637.43	44222.08
637.57	44666.78
637.72	44268.89
637.87	44329.75
638.02	44552.10
638.17	44301.66
638.32	44278.25
638.46	44020.80
638.61	43861.64
638.76	44088.67
638.91	44463.16
639.06	44023.14
639.20	44027.82
639.35	43557.37
639.50	44208.04
639.65	44023.14
639.80	44245.49
639.94	44083.99
640.09	43845.26
640.24	44067.61
640.39	44032.50
640.54	43629.93
640.68	44147.18
640.83	44168.25
640.98	43725.89
641.13	43438.00
641.27	44203.36
641.42	43899.09
641.57	43966.96
641.72	43487.15
641.86	43768.02
642.01	43555.03
642.16	43503.54
642.31	43538.65
642.45	43674.40
642.60	43566.73
642.75	43346.72
642.90	43798.44
643.04	43515.24
643.19	43611.20
643.34	42810.74
643.48	43042.45
643.63	43552.69
643.78	43358.42
643.93	43688.44
644.07	43887.39
644.22	43526.94
644.37	43100.97
644.51	43313.95
644.66	42986.28
644.81	43260.12
644.95	42892.66
645.10	43131.39
645.25	43105.65
645.39	43138.41
645.54	42855.21
645.69	42782.65
645.83	42630.52
645.98	42761.59
646.13	42754.57
646.27	42726.48
646.42	42745.20
646.57	43103.31
646.71	42536.90
646.86	43208.63
647.00	42873.93
647.15	43288.21
647.30	42740.52
647.44	42635.20
647.59	42789.67
647.74	42480.72
647.88	42855.21
648.03	42866.91
648.17	42852.87
648.32	42939.47
648.47	43416.94
648.61	42562.64
648.76	42234.97
648.90	42124.96
649.05	42288.80
649.20	42679.67
649.34	42574.34
649.49	42557.96
649.63	42527.53
649.78	42696.05
649.92	42628.18
650.07	42836.48
650.21	43175.86
650.36	42045.38
650.51	42719.46
650.65	42476.04
650.80	42277.10
650.94	42066.45
651.09	42305.18
651.23	41963.46
651.38	42106.24
651.52	41572.60
651.67	42131.98
651.81	41649.83
651.96	41853.46
652.10	41546.85
652.25	42333.27
652.39	41869.84
652.54	41918.99
652.68	41883.89
652.83	42012.62
652.97	42351.99
653.12	41696.64
653.26	41813.67
653.41	41607.70
653.55	41785.58
653.70	41886.23
653.84	41764.52
653.99	42092.19
654.13	41642.81
654.27	41675.58
654.42	42134.32
654.56	41619.41
654.71	41659.20
654.85	41605.36
655.00	42251.35
655.14	41783.24
655.29	41869.84
655.43	41633.45
655.57	41703.67
655.72	41200.45
655.86	41942.40
656.01	41268.33
656.15	40935.97
656.30	41158.32
656.44	41670.90
656.58	41345.56
656.73	41392.37
656.87	41132.57
657.01	40751.07
657.16	41031.93
657.30	41642.81
657.45	40989.80
657.59	40903.20
657.73	40989.80
657.88	41001.50
658.02	40877.46
658.16	41113.85
658.31	40732.34
658.45	41111.51
658.60	40594.25
658.74	40804.90
658.88	40809.58
659.03	40673.83
659.17	40746.39
659.31	40091.04
659.46	40243.17
659.60	40514.67
659.74	40189.34
659.89	40076.99
660.03	40217.43
660.17	40662.13
660.32	40364.88
660.46	40524.04
660.60	40177.64
660.74	40194.02
660.89	40189.34
661.03	40320.41
661.17	39852.30
661.32	39896.77
661.46	40266.58
661.60	40025.50
661.74	39681.44
661.89	39800.81
662.03	39852.30
662.17	39442.71
662.31	39576.12
662.46	39587.82
662.60	39349.09
662.74	38960.56
662.88	39194.61
663.03	38895.02
663.17	38763.95
663.31	38890.34
663.45	39264.83
663.60	39768.04
663.74	38726.50
663.88	38918.43
664.02	38998.01
664.17	39164.18
664.31	38682.03
664.45	38541.60
664.59	39028.43
664.73	38852.89
664.88	38700.76
665.02	39082.27
665.16	38508.83
665.30	38693.74
665.44	38553.30
665.59	38136.69
665.73	38321.59
665.87	38281.80
666.01	38333.29
666.15	37942.42
666.29	37607.73
666.44	37923.70
666.58	38132.01
666.72	37876.89
666.86	37923.70
667.00	37736.46
667.14	37837.10
667.28	37837.10
667.43	37661.56
667.57	37565.60
667.71	38242.01
667.85	38096.90
667.99	37638.15
668.13	37354.95
668.27	37329.20
668.41	37003.87
668.56	36657.47
668.70	37034.30
668.84	36474.91
668.98	36931.31
669.12	37050.68
669.26	36924.29
669.40	36959.40
669.54	36847.05
669.68	36858.76
669.82	36491.29
669.96	36189.36
670.10	36030.21
670.25	36573.21
670.39	36217.45
670.53	36416.40
670.67	36320.43
670.81	36596.62
670.95	36009.14
671.09	36156.60
671.23	35702.53
671.37	35976.37
671.51	35971.69
671.65	35690.83
671.79	35934.24
671.93	35964.67
672.07	35651.04
672.21	35459.12
672.35	35632.32
672.49	35178.25
672.63	35548.06
672.77	35229.74
672.91	35187.61
673.05	35206.34
673.19	34356.72
673.33	34759.30
673.47	35049.52
673.61	34932.50
673.75	34445.66
673.89	34525.24
674.03	33956.49
674.17	34436.30
674.31	34167.14
674.45	34038.41
674.59	34211.61
674.73	34326.30
674.87	34333.32
675.01	33706.05
675.15	33233.27
675.29	33703.71
675.43	33635.84
675.56	33944.79
675.70	33439.23
675.84	33748.18
675.98	32079.38
676.12	33567.96
676.26	33427.53
676.40	33336.25
676.54	32968.79
676.68	33163.05
676.82	32442.17
676.96	32669.20
677.10	32818.99
677.23	32519.40
677.37	33055.39
677.51	32360.25
677.65	32219.81
677.79	32105.13
677.93	32194.07
678.07	31945.97
678.21	31826.60
678.34	31847.67
678.48	31316.37
678.62	31711.92
678.76	31538.72
678.90	30787.41
679.04	31370.20
679.18	31728.30
679.31	30831.88
679.45	30768.68
679.59	30752.30
679.73	30792.09
679.87	30529.95
680.00	30600.16
680.14	30866.98
680.28	30663.36
680.42	30398.88
680.56	30073.54
680.70	30068.86
680.83	30085.25
680.97	29982.26
681.11	29701.40
681.25	29670.97
681.39	29736.51
681.52	29535.22
681.66	29186.48
681.80	29013.28
681.94	28727.74
682.07	29118.60
682.21	28802.63
682.35	28573.26
682.49	28725.39
682.62	28767.52
682.76	28470.28
682.90	28643.48
683.04	28589.64
683.17	28334.53
683.31	27978.76
683.45	28102.81
683.59	28051.32
683.72	27976.42
683.86	28229.20
684.00	27868.76
684.13	27473.21
684.27	27531.72
684.41	27599.60
684.55	27342.14
684.68	27402.99
684.82	26937.23
684.96	27267.24
685.09	26815.52
685.23	27147.87
685.37	27248.52
685.50	27049.57
685.64	26864.67
685.78	26724.24
685.91	26445.71
686.05	26008.03
686.19	26211.66
686.32	26384.86
686.46	25490.77
686.60	25617.16
686.73	25907.39
686.87	25420.56
687.01	25900.37
687.14	25919.09
687.28	25535.24
687.42	25563.33
687.55	25432.26
687.69	25132.67
687.82	24800.32
687.96	25132.67
688.10	25228.63
688.23	25025.01
688.37	24985.22
688.50	25420.56
688.64	25078.84
688.78	24449.24
688.91	24645.84
689.05	24044.32
689.18	24217.52
689.32	24002.19
689.46	24058.37
689.59	23922.62
689.73	24170.71
689.86	24208.16
690.00	23941.34
690.13	23819.63
690.27	23463.87
690.41	23576.22
690.54	22923.21
690.68	22897.46
690.81	23246.20
690.95	22970.02
691.08	22621.28
691.22	22738.30
691.35	22469.14
691.49	22754.69
691.62	22766.39
691.76	22209.34
691.89	22082.95
692.03	22031.46
692.16	22001.04
692.30	22155.51
692.43	21898.05
692.57	21818.47
692.70	21600.80
692.84	21572.72
692.97	21535.27
693.11	21546.97
693.24	21032.05
693.38	21050.78
693.51	21048.44
693.65	20893.96
693.78	20966.52
693.92	20891.62
694.05	20882.26
694.19	20585.01
694.32	20603.74
694.45	20788.64
694.59	20908.01
694.72	20891.62
694.86	20467.98
694.99	20187.12
695.13	20032.65
695.26	19508.37
695.39	20086.48
695.53	19651.14
695.66	19499.00
695.80	19817.32
695.93	19709.65
696.07	19466.24
696.20	19154.94
696.33	18970.04
696.47	19126.86
696.60	19438.15
696.73	19398.36
696.87	19286.01
697.00	19295.38
697.14	18623.64
697.27	18743.01
697.40	18707.90
697.54	18485.55
697.67	18595.56
697.80	18242.14
697.94	18221.07
698.07	18134.47
698.21	17825.52
698.34	18092.34
698.47	17958.93
698.61	17490.82
698.74	17610.19
698.87	17469.76
699.01	17539.97
699.14	17476.78
699.27	17139.74
699.40	17284.86
699.54	17081.23
699.67	17390.18
699.80	17174.85
699.94	17011.01
700.07	17252.09
700.20	17062.51
700.34	17006.33
700.47	16538.23
700.60	16868.24
700.73	16823.77
700.87	16489.07
701.00	15995.22
701.13	16135.65
701.26	16072.46
701.40	16013.95
701.53	16044.37
701.66	16205.87
701.79	15936.71
701.93	15702.65
702.06	15693.29
702.19	15658.18
702.32	15690.95
702.46	15749.46
702.59	15702.65
702.72	15765.85
702.85	15407.75
702.99	15463.92
703.12	15143.27
703.25	14899.85
703.38	15063.69
703.51	14967.73
703.65	14806.23
703.78	14817.93
703.91	14499.62
704.04	14312.38
704.17	14602.60
704.31	14471.53
704.44	14307.69
704.57	14567.49
704.70	14094.71
704.83	14143.86
704.96	14143.86
705.10	14113.43
705.23	14075.98
>>>>>End Processed Spectral Data<<<<<
