SpectraSuite Data File
++++++++++++++++++++++++++++++++++++
Date: Fri Oct 25 10:47:14 EDT 2013
User: price-jones
Dark Spectrum Present: No
Reference Spectrum Present: No
Number of Sampled Component Spectra: 1
Spectrometers: USB2+H05261
Integration Time (usec): 100000 (USB2+H05261)
Spectra Averaged: 1 (USB2+H05261)
Boxcar Smoothing: 0 (USB2+H05261)
Correct for Electrical Dark: No (USB2+H05261)
Strobe/Lamp Enabled: No (USB2+H05261)
Correct for Detector Non-linearity: No (USB2+H05261)
Correct for Stray Light: No (USB2+H05261)
Number of Pixels in Processed Spectrum: 2048
>>>>>Begin Processed Spectral Data<<<<<
365.73	102.98
365.92	102.98
366.12	102.98
366.32	35.11
366.52	77.24
366.72	58.51
366.91	46.81
367.11	0.00
367.31	4.68
367.51	42.13
367.70	2.34
367.90	67.88
368.10	0.00
368.30	35.11
368.49	7.02
368.69	98.30
368.89	0.00
369.09	63.19
369.28	70.22
369.48	25.75
369.68	100.64
369.87	110.01
370.07	49.15
370.27	161.50
370.47	180.22
370.66	327.68
370.86	397.89
371.06	393.21
371.25	404.91
371.45	339.38
371.65	461.09
371.84	458.74
372.04	505.56
372.24	383.85
372.44	503.22
372.63	482.15
372.83	519.60
373.03	528.96
373.22	482.15
373.42	545.34
373.62	507.90
373.81	484.49
374.01	493.85
374.21	468.11
374.40	545.34
374.60	493.85
374.79	465.77
374.99	456.40
375.19	660.03
375.38	620.24
375.58	484.49
375.78	559.39
375.97	615.56
376.17	610.88
376.37	559.39
376.56	538.32
376.76	566.41
376.95	601.52
377.15	550.03
377.35	557.05
377.54	603.86
377.74	557.05
377.93	538.32
378.13	669.39
378.33	610.88
378.52	606.20
378.72	615.56
378.91	582.79
379.11	613.22
379.31	603.86
379.50	603.86
379.70	575.77
379.89	683.44
380.09	561.73
380.28	608.54
380.48	582.79
380.68	648.33
380.87	599.18
381.07	638.97
381.26	622.58
381.46	638.97
381.65	737.27
381.85	674.07
382.04	638.97
382.24	662.37
382.43	624.92
382.63	645.99
382.83	660.03
383.02	617.90
383.22	732.59
383.41	720.88
383.61	674.07
383.80	648.33
384.00	746.63
384.19	660.03
384.39	641.31
384.58	720.88
384.78	699.82
384.97	758.33
385.17	748.97
385.36	812.17
385.56	709.18
385.75	627.26
385.95	730.25
386.14	823.87
386.34	835.57
386.53	753.65
386.72	737.27
386.92	751.31
387.11	800.46
387.31	833.23
387.50	875.36
387.70	887.06
387.89	823.87
388.09	866.00
388.28	816.85
388.48	791.10
388.67	870.68
388.86	889.40
389.06	844.93
389.25	896.43
389.45	873.02
389.64	774.72
389.84	884.72
390.03	861.32
390.22	835.57
390.42	945.58
390.61	922.17
390.81	856.64
391.00	917.49
391.19	933.87
391.39	976.00
391.58	931.53
391.78	870.68
391.97	954.94
392.16	980.68
392.36	994.73
392.55	896.43
392.75	945.58
392.94	884.72
393.13	980.68
393.33	959.62
393.52	1013.45
393.71	1050.90
393.91	1020.47
394.10	994.73
394.29	978.34
394.49	1034.52
394.68	992.39
394.88	973.66
395.07	1022.81
395.26	1050.90
395.46	1078.99
395.65	1207.72
395.84	1055.58
396.04	1081.33
396.23	1048.56
396.42	1163.25
396.62	1135.16
396.81	1095.37
397.00	1041.54
397.19	1252.19
397.39	1135.16
397.58	1235.80
397.77	1149.20
397.97	1235.80
398.16	1231.12
398.35	1228.78
398.55	1270.91
398.74	1303.68
398.93	1268.57
399.12	1261.55
399.32	1249.85
399.51	1277.93
399.70	1350.49
399.90	1303.68
400.09	1362.19
400.28	1352.83
400.47	1322.40
400.67	1350.49
400.86	1390.28
401.05	1355.17
401.24	1444.11
401.44	1416.02
401.63	1406.66
401.82	1432.41
402.01	1385.60
402.21	1441.77
402.40	1521.35
402.59	1425.39
402.78	1465.18
402.97	1490.92
403.17	1507.30
403.36	1462.83
403.55	1465.18
403.74	1596.25
403.93	1533.05
404.13	1533.05
404.32	1526.03
404.51	1469.86
404.70	1645.40
404.89	1603.27
405.09	1771.79
405.28	1699.23
405.47	1621.99
405.66	1769.44
405.85	1657.10
406.05	1638.38
406.24	1666.46
406.43	1746.04
406.62	1802.21
406.81	1713.27
407.00	1654.76
407.20	1818.60
407.39	1813.92
407.58	1888.81
407.77	1778.81
407.96	1877.11
408.15	1823.28
408.34	1870.09
408.54	1959.03
408.73	1984.77
408.92	1930.94
409.11	1916.90
409.30	1935.62
409.49	1881.79
409.68	1874.77
409.87	1926.26
410.07	2080.74
410.26	2132.23
410.45	1954.35
410.64	2045.63
410.83	2207.13
411.02	2022.22
411.21	2221.17
411.40	2073.71
411.59	2165.00
411.78	2249.25
411.98	2104.14
412.17	2200.10
412.36	2300.75
412.55	2200.10
412.74	2282.02
412.93	2249.25
413.12	2342.88
413.31	2310.11
413.50	2408.41
413.69	2436.50
413.88	2495.01
414.07	2525.44
414.26	2490.33
414.45	2445.86
414.64	2495.01
414.83	2633.10
415.02	2665.87
415.22	2637.78
415.41	2796.94
415.60	2656.51
415.79	2665.87
415.98	2803.96
416.17	2843.75
416.36	2782.90
416.55	2726.72
416.74	2909.29
416.93	2766.51
417.12	2775.88
417.31	2850.77
417.50	2892.90
417.69	2963.12
417.88	2972.48
418.07	2867.16
418.26	3016.95
418.45	2867.16
418.64	3075.46
418.83	3089.51
419.02	3045.04
419.21	3066.10
419.39	3152.70
419.58	3124.62
419.77	2895.24
419.96	3162.06
420.15	3141.00
420.34	3197.17
420.53	3225.26
420.72	3183.13
420.91	3297.81
421.10	3206.53
421.29	3382.07
421.48	3206.53
421.67	3349.31
421.86	3375.05
422.05	3309.52
422.24	3342.28
422.43	3227.60
422.61	3316.54
422.80	3318.88
422.99	3335.26
423.18	3431.23
423.37	3433.57
423.56	3471.01
423.75	3475.70
423.94	3351.65
424.13	3246.32
424.32	3325.90
424.50	3311.86
424.69	3424.20
424.88	3534.21
425.07	3438.25
425.26	3361.01
425.45	3538.89
425.64	3478.04
425.83	3332.92
426.01	3611.45
426.20	3431.23
426.39	3478.04
426.58	3311.86
426.77	3407.82
426.96	3431.23
427.15	3520.17
427.33	3489.74
427.52	3531.87
427.71	3700.39
427.90	3599.74
428.09	3574.00
428.28	3627.83
428.46	3660.60
428.65	3676.98
428.84	3808.05
429.03	3801.03
429.22	3513.14
429.40	3836.14
429.59	3698.05
429.78	3700.39
429.97	3555.27
430.16	3611.45
430.34	3662.94
430.53	3859.54
430.72	3719.11
430.91	3770.60
431.10	3740.18
431.28	3882.95
431.47	4063.17
431.66	3990.61
431.85	3957.85
432.03	4042.11
432.22	4035.08
432.41	3983.59
432.60	3868.91
432.79	4025.72
432.97	4124.02
433.16	4044.45
433.35	3988.27
433.54	4126.36
433.72	4180.20
433.91	4056.15
434.10	4035.08
434.28	4072.53
434.47	4180.20
434.66	4262.12
434.85	4189.56
435.03	4318.29
435.22	4458.72
435.41	4365.10
435.59	4454.04
435.78	4407.23
435.97	4407.23
436.16	4528.94
436.34	4372.12
436.53	4411.91
436.72	4575.75
436.90	4264.46
437.09	4482.13
437.28	4292.54
437.46	4540.64
437.65	4561.70
437.84	4613.20
438.02	4500.85
438.21	4514.89
438.40	4468.08
438.58	4713.84
438.77	4779.37
438.96	4835.55
439.14	4802.78
439.33	4868.31
439.52	4903.42
439.70	4894.06
439.89	5022.79
440.08	5067.26
440.26	5062.58
440.45	5034.49
440.63	5128.11
440.82	5205.35
441.01	5018.11
441.19	5233.44
441.38	5359.83
441.57	5160.88
441.75	5366.85
441.94	5411.32
442.12	5561.11
442.31	5425.36
442.50	5455.79
442.68	5518.98
442.87	5540.05
443.05	5626.65
443.24	5720.27
443.43	5523.66
443.61	5654.73
443.80	5778.78
443.98	5533.03
444.17	5493.24
444.35	5631.33
444.54	5614.95
444.73	5582.18
444.91	5434.72
445.10	5565.79
445.28	5596.22
445.47	5668.78
445.65	5701.54
445.84	5589.20
446.02	5879.43
446.21	5535.37
446.39	5598.56
446.58	5734.31
446.77	5825.59
446.95	5720.27
447.14	5736.65
447.32	5823.25
447.51	5802.19
447.69	5778.78
447.88	5907.51
448.06	5771.76
448.25	5811.55
448.43	5645.37
448.62	5703.89
448.80	5849.00
448.99	5837.30
449.17	5898.15
449.36	5905.17
449.54	6054.97
449.73	6003.47
449.91	6057.31
450.10	6047.94
450.28	6195.40
450.46	5996.45
450.65	6193.06
450.83	6282.00
451.02	6174.33
451.20	6167.31
451.39	6354.55
451.57	6167.31
451.76	6076.03
451.94	6303.06
452.13	6291.36
452.31	6333.49
452.49	6092.41
452.68	6296.04
452.86	6267.95
453.05	6345.19
453.23	6218.80
453.42	6246.89
453.60	6190.72
453.78	6450.52
453.97	6483.28
454.15	6244.55
454.34	6319.45
454.52	6612.01
454.70	6441.15
454.89	6595.63
455.07	6637.76
455.26	6654.14
455.44	6670.53
455.62	6670.53
455.81	6513.71
455.99	6539.46
456.17	6719.68
456.36	6682.23
456.54	6794.58
456.73	6740.74
456.91	7054.37
457.09	7030.97
457.28	7335.24
457.46	7002.88
457.64	6981.82
457.83	7105.87
458.01	6897.56
458.19	7297.79
458.38	7061.40
458.56	7229.91
458.74	7056.72
458.93	7110.55
459.11	7103.53
459.29	7211.19
459.48	7171.40
459.66	7157.36
459.84	7206.51
460.03	7314.17
460.21	7342.26
460.39	7351.62
460.57	7365.67
460.76	7337.58
460.94	7461.63
461.12	7569.29
461.31	7672.28
461.49	7576.31
461.67	7517.80
461.85	7691.00
462.04	7691.00
462.22	8119.32
462.40	7997.61
462.59	7838.45
462.77	7782.28
462.95	7805.69
463.13	7686.32
463.32	7716.75
463.50	7761.22
463.68	7693.34
463.86	7740.15
464.05	7765.90
464.23	7784.62
464.41	7960.16
464.59	7784.62
464.78	7992.93
464.96	7988.25
465.14	7763.56
465.32	7992.93
465.50	7953.14
465.69	8133.36
465.87	8081.87
466.05	8063.15
466.23	8032.72
466.41	8109.96
466.60	8198.90
466.78	8126.34
466.96	8219.96
467.14	8332.31
467.32	8222.30
467.51	8198.90
467.69	8294.86
467.87	8339.33
468.05	8393.16
468.23	8184.85
468.41	8236.35
468.60	8234.00
468.78	8486.78
468.96	8442.31
469.14	8514.87
469.32	8568.70
469.50	8269.11
469.69	8449.33
469.87	8821.48
470.05	8706.79
470.23	8751.26
470.41	8805.10
470.59	8793.39
470.77	8617.85
470.95	8678.71
471.14	8891.70
471.32	8751.26
471.50	8952.55
471.68	8912.76
471.86	9060.21
472.04	9249.80
472.22	9263.84
472.40	9069.58
472.58	9193.62
472.77	9376.19
472.95	9458.10
473.13	9612.58
473.31	9336.40
473.49	9226.39
473.67	9432.36
473.85	9408.95
474.03	9689.82
474.21	9750.67
474.39	9748.33
474.57	9860.68
474.75	9774.08
474.93	9724.93
475.12	9659.39
475.30	10078.35
475.48	10087.71
475.66	9926.21
475.84	10001.11
476.02	10164.95
476.20	10232.82
476.38	10183.67
476.56	10588.58
476.74	10445.81
476.92	10429.43
477.10	10361.55
477.28	10548.79
477.46	10518.37
477.64	10579.22
477.82	10862.43
478.00	11087.12
478.18	11033.29
478.36	11082.44
478.54	11232.23
478.72	11468.62
478.90	11590.33
479.08	11281.38
479.26	11475.65
479.44	11662.89
479.62	11658.21
479.80	11662.89
479.98	11655.87
480.16	12147.38
480.34	11950.78
480.52	11906.31
480.70	12161.42
480.88	11812.68
481.06	12238.66
481.24	12086.53
481.41	12233.98
481.59	12713.79
481.77	12753.58
481.95	12596.76
482.13	12589.74
482.31	12849.54
482.49	13221.69
482.67	13209.98
482.85	13160.83
483.03	13289.56
483.21	13530.64
483.39	13785.76
483.57	13486.17
483.74	13991.72
483.92	13774.05
484.10	13839.59
484.28	13905.12
484.46	14251.52
484.64	14534.73
484.82	14251.52
485.00	14256.20
485.18	14668.14
485.35	14796.87
485.53	14801.55
485.71	14551.11
485.89	15192.42
486.07	14848.36
486.25	14960.70
486.43	15084.75
486.61	15428.81
486.78	15496.69
486.96	15428.81
487.14	15719.04
487.32	15885.22
487.50	16180.12
487.68	15971.82
487.85	16491.41
488.03	16585.04
488.21	16510.14
488.39	16957.18
488.57	16830.79
488.75	16783.98
488.92	17081.23
489.10	17207.62
489.28	17312.94
489.46	17469.76
489.64	17598.49
489.81	17743.60
489.99	17949.57
490.17	18022.12
490.35	18202.35
490.53	18050.21
490.70	18331.08
490.88	18239.79
491.06	18553.43
491.24	18445.76
491.41	18703.22
491.59	18731.31
491.77	18810.89
491.95	19152.60
492.13	19159.63
492.30	19295.38
492.48	19534.11
492.66	19262.61
492.84	19543.47
493.01	19693.27
493.19	19515.39
493.37	20100.52
493.54	20065.41
493.72	20475.01
493.90	20025.62
494.08	20393.09
494.25	20737.15
494.43	20416.49
494.61	20954.82
494.79	20821.41
494.96	20645.87
495.14	21013.33
495.32	21184.19
495.49	21205.25
495.67	21516.54
495.85	21556.33
496.02	21542.29
496.20	21848.90
496.38	21860.60
496.55	22033.80
496.73	22513.61
496.91	22111.04
497.09	21921.46
497.26	22604.89
497.44	22480.85
497.62	22469.14
497.79	23070.66
497.97	22824.90
498.14	23278.97
498.32	22934.91
498.50	23117.47
498.67	23257.90
498.85	23517.70
499.03	23704.95
499.20	23201.73
499.38	23576.22
499.56	23812.61
499.73	24006.87
499.91	23836.02
500.08	23889.85
500.26	23646.43
500.44	24067.73
500.61	23751.76
500.79	24341.57
500.97	24514.77
501.14	24741.80
501.32	24526.47
501.49	24861.17
501.67	24915.00
501.84	24978.20
502.02	24992.24
502.20	24809.68
502.37	25214.59
502.55	25156.08
502.72	25193.53
502.90	25177.14
503.07	25277.79
503.25	25291.83
503.43	25179.48
503.60	25759.94
503.78	25441.62
503.95	25429.92
504.13	25757.60
504.30	26078.25
504.48	25762.28
504.65	26115.70
504.83	26405.92
505.01	26302.94
505.18	26370.82
505.36	26569.76
505.53	26204.64
505.71	26752.32
505.88	26452.73
506.06	26536.99
506.23	26913.82
506.41	26579.12
506.58	26984.04
506.76	26962.97
506.93	27009.78
507.11	27190.00
507.28	27103.40
507.46	27077.66
507.63	27543.42
507.81	27634.71
507.98	27513.00
508.16	27566.83
508.33	27847.69
508.50	28268.99
508.68	27990.47
508.85	28311.12
509.03	27929.61
509.20	28072.39
509.38	28280.69
509.55	28463.25
509.73	28844.76
509.90	28638.80
510.08	28678.58
510.25	28730.08
510.42	28753.48
510.60	28947.75
510.77	29252.02
510.95	29280.10
511.12	28982.85
511.30	29163.08
511.47	29338.62
511.64	29528.20
511.82	29502.45
511.99	29380.74
512.17	29579.69
512.34	29439.26
512.51	29565.65
512.69	29724.80
512.86	29930.77
513.04	30106.31
513.21	29951.84
513.38	29928.43
513.56	29848.85
513.73	30005.67
513.90	30349.73
514.08	29806.72
514.25	30441.01
514.43	30649.32
514.60	29937.79
514.77	30291.21
514.95	30834.22
515.12	30773.36
515.29	30658.68
515.47	30455.05
515.64	31166.57
515.81	30897.41
515.99	31047.21
516.16	31044.87
516.33	31290.62
516.51	31386.58
516.68	31278.92
516.85	31051.89
517.03	31068.27
517.20	31084.65
517.37	31323.39
517.54	31159.55
517.72	31824.26
517.89	31508.29
518.06	31702.56
518.24	31807.88
518.41	31838.31
518.58	31988.10
518.75	31964.70
518.93	31974.06
519.10	32088.74
519.27	32182.37
519.45	32252.58
519.62	32168.32
519.79	32493.66
519.96	32414.08
520.14	32582.60
520.31	32598.98
520.48	32666.86
520.65	32591.96
520.83	33144.33
521.00	32840.06
521.17	33118.58
521.34	33212.20
521.52	32996.87
521.69	33350.29
521.86	33521.15
522.03	33195.82
522.20	33212.20
522.38	33565.62
522.55	33867.55
522.72	33528.17
522.89	33715.42
523.07	33418.17
523.24	33457.96
523.41	33921.38
523.58	33631.16
523.75	34347.36
523.92	34117.99
524.10	34202.25
524.27	34326.30
524.44	34089.90
524.61	34125.01
524.78	34866.96
524.96	34866.96
525.13	34731.21
525.30	34639.93
525.47	34932.50
525.64	34515.88
525.81	34700.78
525.98	34857.60
526.16	34719.51
526.33	35143.14
526.50	35346.77
526.67	34820.15
526.84	35035.48
527.01	35082.29
527.18	34991.01
527.36	35445.07
527.53	35157.19
527.70	35601.89
527.87	35468.48
528.04	35108.04
528.21	35374.86
528.38	35426.35
528.55	35655.72
528.72	36037.23
528.89	35817.22
529.07	35665.08
529.24	35597.21
529.41	36421.08
529.58	35526.99
529.75	35866.37
529.92	36275.96
530.09	36252.56
530.26	36308.73
530.43	36268.94
530.60	36201.07
530.77	36177.66
530.94	36514.70
531.11	35871.05
531.28	36598.96
531.46	36575.55
531.63	36535.76
531.80	36629.38
531.97	36290.01
532.14	36561.51
532.31	36872.80
532.48	36889.18
532.65	37184.09
532.82	36886.84
532.99	37198.13
533.16	36783.86
533.33	37113.87
533.50	37399.42
533.67	37177.07
533.84	36821.31
534.01	37289.42
534.18	37504.74
534.35	37390.06
534.52	37385.38
534.69	37785.61
534.86	37713.05
535.03	37703.69
535.20	37593.68
535.37	37603.05
535.54	37881.57
535.71	37722.41
535.88	38286.48
536.05	37926.04
536.22	38047.75
536.38	38087.54
536.55	37937.74
536.72	38029.02
536.89	37574.96
537.06	37776.25
537.23	38003.28
537.40	38000.94
537.57	38204.56
537.74	38036.05
537.91	38089.88
538.08	38639.90
538.25	38288.82
538.42	38265.42
538.59	38555.64
538.75	38171.80
538.92	38288.82
539.09	38632.88
539.26	38543.94
539.43	38494.79
539.60	38789.70
539.77	38700.76
539.94	38579.05
540.11	38733.53
540.28	38663.31
540.44	38719.48
540.61	38160.09
540.78	38684.37
540.95	39119.71
541.12	38969.92
541.29	38902.04
541.46	39136.10
541.62	39248.44
541.79	38960.56
541.96	38614.16
542.13	39035.45
542.30	39012.05
542.47	39143.12
542.63	39393.56
542.80	39271.85
542.97	40018.48
543.14	40348.50
543.31	39737.62
543.48	39791.45
543.64	40416.37
543.81	39985.71
543.98	40006.78
544.15	39878.05
544.32	39920.18
544.48	40467.86
544.65	40533.40
544.82	40369.56
544.99	39798.47
545.16	40135.51
545.32	40285.30
545.49	40446.80
545.66	40528.72
545.83	40355.52
546.00	40863.41
546.16	40332.11
546.33	39959.97
546.50	40577.87
546.67	40509.99
546.83	40121.46
547.00	40222.11
547.17	40531.06
547.34	40451.48
547.50	40837.67
547.67	41048.32
547.84	40591.91
548.00	41219.17
548.17	41137.26
548.34	40910.22
548.51	41132.57
548.67	41298.75
548.84	41116.19
549.01	41298.75
549.18	40821.28
549.34	41195.77
549.51	40928.95
549.68	41441.53
549.84	41457.91
550.01	41102.15
550.18	41230.88
550.34	41200.45
550.51	41144.28
550.68	41163.00
550.84	40828.30
551.01	41495.36
551.18	41275.35
551.34	41244.92
551.51	41787.92
551.68	41514.08
551.84	41790.27
552.01	41607.70
552.18	42036.02
552.34	41350.24
552.51	41944.74
552.68	41305.77
552.84	41734.09
553.01	41930.70
553.18	41462.59
553.34	41937.72
553.51	41326.84
553.67	41715.37
553.84	41956.44
554.01	42057.09
554.17	41881.55
554.34	42347.31
554.51	42160.07
554.67	42738.18
554.84	41963.46
555.00	42426.89
555.17	42033.68
555.33	42361.36
555.50	42342.63
555.67	42174.11
555.83	42249.01
556.00	42462.00
556.16	42682.01
556.33	42728.82
556.50	42682.01
556.66	42515.83
556.83	42424.55
556.99	42895.00
557.16	43103.31
557.32	42637.54
557.49	42670.31
557.65	42078.15
557.82	42075.81
557.98	42300.50
558.15	42864.57
558.32	42955.85
558.48	42749.88
558.65	42199.86
558.81	42131.98
558.98	42946.49
559.14	42639.88
559.31	42644.56
559.47	42679.67
559.64	43494.18
559.80	42794.36
559.97	43098.62
560.13	42621.16
560.30	42614.13
560.46	43143.09
560.63	42595.41
560.79	42845.85
560.96	43473.11
561.12	42593.07
561.29	43072.88
561.45	42684.35
561.61	43164.16
561.78	43037.77
561.94	43236.72
562.11	43091.60
562.27	42843.51
562.44	43192.25
562.60	43339.70
562.77	43234.38
562.93	42885.64
563.10	43189.91
563.26	43086.92
563.42	43056.50
563.59	43093.94
563.75	43119.69
563.92	43599.50
564.08	43316.29
564.24	43793.76
564.41	43353.74
564.57	43386.51
564.74	43283.53
564.90	43051.81
565.07	43819.51
565.23	43559.71
565.39	43868.66
565.56	43454.39
565.72	43576.09
565.88	43679.08
566.05	43295.23
566.21	43508.22
566.38	42967.55
566.54	43711.84
566.70	43768.02
566.87	43810.15
567.03	43452.05
567.19	43779.72
567.36	43824.19
567.52	43260.12
567.68	43620.56
567.85	43599.50
568.01	43880.36
568.17	43580.78
568.34	44023.14
568.50	43552.69
568.66	43660.35
568.83	43966.96
568.99	43489.49
569.15	43562.05
569.32	43423.96
569.48	43398.21
569.64	43491.83
569.81	43917.81
569.97	43557.37
570.13	43812.49
570.30	43391.19
570.46	43304.59
570.62	43587.80
570.78	43388.85
570.95	43468.43
571.11	44222.08
571.27	43765.68
571.43	43344.38
571.60	44025.48
571.76	43782.06
571.92	44158.89
572.09	43962.28
572.25	43679.08
572.41	44069.95
572.57	43683.76
572.74	44477.20
572.90	43852.28
573.06	44009.09
573.22	44116.76
573.38	43786.74
573.55	43772.70
573.71	44055.90
573.87	43634.61
574.03	44058.24
574.20	43641.63
574.36	43924.83
574.52	44168.25
574.68	44329.75
574.84	44556.78
575.01	43777.38
575.17	43728.23
575.33	44130.80
575.49	43971.64
575.65	44442.09
575.82	44444.43
575.98	44039.52
576.14	44439.75
576.30	44065.27
576.46	43693.12
576.62	44016.11
576.79	43786.74
576.95	43695.46
577.11	44156.55
577.27	44013.77
577.43	43753.97
577.59	43854.62
577.75	43943.56
577.92	44058.24
578.08	43826.53
578.24	43587.80
578.40	43973.98
578.56	43810.15
578.72	44538.05
578.88	43976.33
579.04	44119.10
579.21	44229.10
579.37	44020.80
579.53	43894.41
579.69	44137.82
579.85	44198.68
580.01	44217.40
580.17	44020.80
580.33	44341.45
580.49	44147.18
580.65	44205.70
580.82	44231.44
580.98	44149.53
581.14	44062.93
581.30	44364.85
581.46	43992.71
581.62	44179.95
581.78	44304.00
581.94	44172.93
582.10	44158.89
582.26	43885.04
582.42	44186.97
582.58	44128.46
582.74	43746.95
582.90	44451.45
583.06	44456.14
583.22	44615.29
583.38	44657.42
583.54	44217.40
583.70	43981.01
583.86	44128.46
584.02	44079.31
584.18	44322.72
584.34	44418.69
584.50	44676.15
584.66	44343.79
584.82	43761.00
584.98	44374.22
585.14	43983.35
585.30	44238.47
585.46	44294.64
585.62	43739.93
585.78	44051.22
585.94	43793.76
586.10	44067.61
586.26	44048.88
586.42	44439.75
586.58	44376.56
586.74	44219.74
586.90	44086.33
587.06	43969.30
587.22	44156.55
587.38	43873.34
587.54	44446.77
587.70	44676.15
587.86	44793.17
588.02	44334.43
588.18	44505.29
588.34	44072.29
588.49	44053.56
588.65	43929.51
588.81	44313.36
588.97	44341.45
589.13	44208.04
589.29	44360.17
589.45	44680.83
589.61	44514.65
589.77	44568.48
589.93	44470.18
590.08	44437.41
590.24	44205.70
590.40	44252.51
590.56	44832.96
590.72	44507.63
590.88	44374.22
591.04	44828.28
591.20	44938.29
591.35	44540.39
591.51	45251.92
591.67	44278.25
591.83	45010.84
591.99	44825.94
592.15	43880.36
592.31	44264.21
592.46	44680.83
592.62	44406.98
592.78	44626.99
592.94	44924.24
593.10	44493.58
593.26	44456.14
593.41	44507.63
593.57	44257.19
593.73	44409.32
593.89	44816.58
594.05	44566.14
594.20	44383.58
594.36	44793.17
594.52	44556.78
594.68	44725.30
594.84	44865.73
594.99	44921.90
595.15	44364.85
595.31	44704.23
595.47	44512.31
595.62	44392.94
595.78	44495.92
595.94	44467.84
596.10	44816.58
596.25	44460.82
596.41	45160.64
596.57	44762.75
596.73	44973.39
596.88	44540.39
597.04	44657.42
597.20	44582.52
597.36	44261.87
597.51	44601.25
597.67	44748.70
597.83	44758.06
597.99	45214.47
598.14	44594.23
598.30	44896.16
598.46	44711.25
598.61	44617.63
598.77	44608.27
598.93	44280.60
599.09	44502.95
599.24	45170.00
599.40	44765.09
599.56	45291.71
599.71	44828.28
599.87	44760.40
600.03	44776.79
600.18	44683.17
600.34	44582.52
600.50	44830.62
600.65	44748.70
600.81	44446.77
600.97	45296.39
601.12	45296.39
601.28	45205.11
601.44	44304.00
601.59	44868.07
601.75	44472.52
601.91	44832.96
602.06	44538.05
602.22	44659.76
602.37	45198.09
602.53	44732.32
602.69	44905.52
602.84	44526.35
603.00	44563.80
603.16	44797.85
603.31	44488.90
603.47	44540.39
603.62	44575.50
603.78	45123.19
603.94	44758.06
604.09	45153.62
604.25	45071.70
604.40	44729.98
604.56	44938.29
604.71	45130.21
604.87	44491.24
605.03	44718.28
605.18	44561.46
605.34	44664.44
605.49	44264.21
605.65	44828.28
605.80	44435.07
605.96	44694.87
606.12	44898.50
606.27	44617.63
606.43	44538.05
606.58	44350.81
606.74	44610.61
606.89	44509.97
607.05	44641.04
607.20	44383.58
607.36	44737.00
607.51	44722.96
607.67	44430.39
607.82	44406.98
607.98	44872.75
608.13	44524.01
608.29	44355.49
608.44	44027.82
608.60	44025.48
608.75	44051.22
608.91	43889.73
609.06	43969.30
609.22	44657.42
609.37	44364.85
609.53	44587.21
609.68	44648.06
609.84	43981.01
609.99	44369.54
610.15	44261.87
610.30	44343.79
610.46	44191.65
610.61	44186.97
610.76	44224.42
610.92	43681.42
611.07	44149.53
611.23	43908.45
611.38	44044.20
611.54	44098.03
611.69	44217.40
611.84	43908.45
612.00	44247.83
612.15	44062.93
612.31	43866.32
612.46	44006.75
612.62	44268.89
612.77	44126.12
612.92	43852.28
613.08	43885.04
613.23	44011.43
613.39	43915.47
613.54	43959.94
613.69	44046.54
613.85	44053.56
614.00	43910.79
614.15	44156.55
614.31	43831.21
614.46	44179.95
614.62	43475.45
614.77	43782.06
614.92	43730.57
615.08	43800.79
615.23	43807.81
615.38	43585.46
615.54	43580.78
615.69	43274.16
615.84	43405.23
616.00	43594.82
616.15	43571.41
616.30	43882.70
616.46	42831.80
616.61	42979.26
616.76	43377.15
616.92	43407.58
617.07	43271.82
617.22	42902.02
617.37	43290.55
617.53	43613.54
617.68	43770.36
617.83	43501.20
617.99	43405.23
618.14	43402.89
618.29	43402.89
618.45	43096.28
618.60	43229.69
618.75	43690.78
618.90	43110.33
619.06	43400.55
619.21	43508.22
619.36	43136.07
619.51	42773.29
619.67	42787.33
619.82	43257.78
619.97	43299.91
620.12	42710.10
620.28	42735.84
620.43	43009.68
620.58	42979.26
620.73	42927.77
620.89	42499.45
621.04	42960.53
621.19	43143.09
621.34	43262.46
621.49	42499.45
621.65	42550.94
621.80	42567.32
621.95	42361.36
622.10	42579.03
622.25	42087.51
622.41	42354.33
622.56	42337.95
622.71	42845.85
622.86	42754.57
623.01	42211.56
623.16	42483.06
623.32	42768.61
623.47	42789.67
623.62	42466.68
623.77	42155.39
623.92	42277.10
624.07	42417.53
624.23	42260.71
624.38	42092.19
624.53	42117.94
624.68	42220.92
624.83	42607.11
624.98	42520.51
625.13	41748.14
625.29	41792.61
625.44	42473.70
625.59	41834.74
625.74	42160.07
625.89	41717.71
626.04	41439.18
626.19	41827.71
626.34	42139.00
626.49	42124.96
626.65	41975.17
626.80	42256.03
626.95	41345.56
627.10	41792.61
627.25	41895.59
627.40	41361.95
627.55	41401.74
627.70	41092.79
627.85	41460.25
628.00	41373.65
628.15	42176.45
628.30	41635.79
628.45	41799.63
628.60	41806.65
628.76	41696.64
628.91	41600.68
629.06	41486.00
629.21	41572.60
629.36	41242.58
629.51	41057.68
629.66	41071.72
629.81	41034.27
629.96	40961.72
630.11	41043.63
630.26	41558.55
630.41	41172.36
630.56	40973.42
630.71	41394.71
630.86	41097.47
631.01	40802.56
631.16	41495.36
631.31	41375.99
631.46	40517.01
631.61	40985.12
631.76	41251.94
631.91	41179.39
632.06	41146.62
632.21	40931.29
632.36	41319.82
632.51	40652.76
632.66	41113.85
632.81	40652.76
632.96	40683.19
633.10	40847.03
633.25	40521.69
633.40	40556.80
633.55	41071.72
633.70	40507.65
633.85	40428.07
634.00	40699.58
634.15	40580.21
634.30	40858.73
634.45	40634.04
634.60	41060.02
634.75	40566.16
634.90	40704.26
635.05	40463.18
635.19	40320.41
635.34	40678.51
635.49	40708.94
635.64	40100.40
635.79	40135.51
635.94	40421.05
636.09	40355.52
636.24	40091.04
636.39	39730.59
636.53	39922.52
636.68	39892.09
636.83	40109.76
636.98	40196.36
637.13	40025.50
637.28	40105.08
637.43	40294.66
637.57	40179.98
637.72	39903.79
637.87	39941.24
638.02	40268.92
638.17	39943.58
638.32	39524.63
638.46	39875.71
638.61	39931.88
638.76	39365.47
638.91	40009.12
639.06	39725.91
639.20	40210.40
639.35	39742.30
639.50	39519.95
639.65	39559.73
639.80	40105.08
639.94	39358.45
640.09	40098.06
640.24	39765.70
640.39	39442.71
640.54	39533.99
640.68	39473.13
640.83	39571.44
640.98	39519.95
641.13	39304.62
641.27	40093.38
641.42	39482.50
641.57	39786.77
641.72	39817.19
641.86	38745.23
642.01	39084.61
642.16	39044.82
642.31	38920.77
642.45	39431.01
642.60	38829.49
642.75	38803.74
642.90	39161.84
643.04	39040.14
643.19	39108.01
643.34	39108.01
643.48	39306.96
643.63	38838.85
643.78	38728.84
643.93	38698.42
644.07	38408.19
644.22	38829.49
644.37	38958.22
644.51	38658.63
644.66	38857.57
644.81	38799.06
644.95	38565.01
645.10	39196.95
645.25	38820.13
645.39	38586.07
645.54	38675.01
645.69	38740.55
645.83	38579.05
645.98	38487.77
646.13	38295.85
646.27	38979.28
646.42	38733.53
646.57	38916.09
646.71	38770.97
646.86	38492.45
647.00	38377.76
647.15	38272.44
647.30	38635.22
647.44	38770.97
647.59	38628.20
647.74	38295.85
647.88	38216.27
648.03	38431.60
648.17	38466.70
648.32	38597.77
648.47	38302.87
648.61	37998.60
648.76	38150.73
648.90	38223.29
649.05	38113.28
649.20	38052.43
649.34	38110.94
649.49	38394.15
649.63	38244.35
649.78	38017.32
649.92	37862.85
650.07	38305.21
650.21	37907.32
650.36	38164.78
650.51	37848.80
650.65	38211.59
650.80	37610.07
650.94	38522.88
651.09	38132.01
651.23	37689.65
651.38	37818.38
651.52	37507.08
651.67	37762.20
651.81	37684.97
651.96	37495.38
652.10	37614.75
652.25	37839.44
652.39	37296.44
652.54	37584.32
652.68	37607.73
652.83	37481.34
652.97	37787.95
653.12	37656.88
653.26	37528.15
653.41	37294.10
653.55	37167.71
653.70	37170.05
653.84	37081.11
653.99	37516.45
654.13	37699.01
654.27	37495.38
654.42	37163.03
654.56	37216.86
654.71	37420.48
654.85	37535.17
655.00	37237.92
655.14	36737.05
655.29	36526.40
655.43	37111.53
655.57	37031.96
655.72	37113.87
655.86	37036.64
656.01	36847.05
656.15	36477.25
656.30	36898.55
656.44	36825.99
656.58	36697.26
656.73	36498.31
656.87	36566.19
657.01	36624.70
657.16	36704.28
657.30	36573.21
657.45	36290.01
657.59	36563.85
657.73	36414.05
657.88	36364.90
658.02	36533.42
658.16	36322.77
658.31	36563.85
658.45	36676.19
658.60	36205.75
658.74	36662.15
658.88	36463.21
659.03	36119.15
659.17	36161.28
659.31	35941.27
659.46	35945.95
659.60	35866.37
659.74	36144.89
659.89	35494.22
660.03	35578.48
660.17	35852.33
660.32	35892.12
660.46	36177.66
660.60	35805.52
660.74	36175.32
660.89	36107.44
661.03	35615.93
661.17	35648.70
661.32	35335.07
661.46	35498.91
661.60	35459.12
661.74	35627.63
661.89	35145.48
662.03	35447.41
662.17	35257.83
662.31	35187.61
662.46	35431.03
662.60	35026.12
662.74	35103.35
662.88	35140.80
663.03	35449.75
663.17	35196.98
663.31	35101.01
663.45	34972.28
663.60	35014.41
663.74	34536.94
663.88	34763.98
664.02	34700.78
664.17	34555.67
664.31	34658.65
664.45	34649.29
664.59	34438.64
664.73	34609.50
664.88	34679.72
665.02	34316.93
665.16	34501.84
665.30	34284.17
665.44	34511.20
665.59	34003.30
665.73	33706.05
665.87	33848.83
666.01	33663.93
666.15	33717.76
666.29	33764.57
666.44	34167.14
666.58	33764.57
666.72	34178.84
666.86	34178.84
667.00	33951.81
667.14	33593.71
667.28	33422.85
667.43	33273.06
667.57	33502.43
667.71	33167.73
667.85	33535.20
667.99	33661.58
668.13	33394.76
668.27	33247.31
668.41	33570.30
668.56	33010.92
668.70	33144.33
668.84	32636.43
668.98	32903.25
669.12	33151.35
669.26	33095.18
669.40	33034.32
669.54	32800.27
669.68	32711.33
669.82	33357.32
669.96	32411.74
670.10	32580.26
670.25	32910.27
670.39	32648.13
670.53	32563.87
670.67	32547.49
670.81	32718.35
670.95	32385.99
671.09	32421.10
671.23	32341.52
671.37	32231.52
671.51	31838.31
671.65	31852.35
671.79	32020.87
671.93	31711.92
672.07	32088.74
672.21	32158.96
672.35	31630.00
672.49	31807.88
672.63	31601.91
672.77	31599.57
672.91	31580.85
673.05	31222.75
673.19	31407.65
673.33	30939.54
673.47	31299.98
673.61	31110.40
673.75	30923.16
673.89	30806.13
674.03	30953.58
674.17	30522.93
674.31	30607.19
674.45	30733.57
674.59	30892.73
674.73	30937.20
674.87	30286.53
675.01	30658.68
675.15	30363.77
675.29	30948.90
675.43	30637.61
675.56	30670.38
675.70	30003.33
675.84	30185.89
675.98	28954.77
676.12	29511.81
676.26	29668.63
676.40	29425.22
676.54	29670.97
676.68	29638.20
676.82	29312.87
676.96	29172.44
677.10	28673.90
677.23	29364.36
677.37	29209.89
677.51	29324.57
677.65	28826.04
677.79	28624.75
677.93	28804.97
678.07	28744.12
678.21	28519.43
678.34	28451.55
678.48	28364.95
678.62	28418.78
678.76	28329.84
678.90	27969.40
679.04	27974.08
679.18	28044.30
679.31	27845.35
679.45	27824.29
679.59	27587.89
679.73	27255.54
679.87	27384.27
680.00	27538.74
680.14	27292.99
680.28	27194.68
680.42	27208.73
680.56	27452.14
680.70	26881.05
680.83	27105.74
680.97	26977.01
681.11	26801.47
681.25	26946.59
681.39	26232.72
681.52	26946.59
681.66	26689.13
681.80	26380.18
681.94	26579.12
682.07	26579.12
682.21	26532.31
682.35	25935.48
682.49	26485.50
682.62	26050.16
682.76	25881.64
682.90	25816.11
683.04	25839.51
683.17	25542.27
683.31	25827.81
683.45	25549.29
683.59	25738.87
683.72	25188.85
683.86	24971.18
684.00	25067.14
684.13	25366.73
684.27	25109.27
684.41	24865.85
684.55	24491.37
684.68	24685.63
684.82	24561.58
684.96	24332.21
685.09	24919.68
685.23	24484.34
685.37	24566.26
685.50	24159.01
685.64	24470.30
685.78	24133.26
685.91	24283.06
686.05	23964.75
686.19	23475.57
686.32	23777.50
686.46	23709.63
686.60	23285.99
686.73	23585.58
686.87	23047.26
687.01	23215.77
687.14	22960.66
687.28	23211.09
687.42	22867.03
687.55	23267.27
687.69	22803.84
687.82	22691.49
687.96	22710.22
688.10	22705.54
688.23	22464.46
688.37	22349.78
688.50	21900.39
688.64	22312.33
688.78	22300.62
688.91	22087.64
689.05	22111.04
689.18	21886.35
689.32	21380.79
689.46	22136.79
689.59	21961.25
689.73	22022.10
689.86	21607.83
690.00	21563.36
690.13	21460.37
690.27	21481.44
690.41	21359.73
690.54	21177.17
690.68	21085.89
690.81	21046.10
690.95	20835.45
691.08	20936.09
691.22	20900.98
691.35	20673.95
691.49	21123.33
691.62	20720.76
691.76	20758.21
691.89	20741.83
692.03	20250.32
692.16	20313.51
692.30	20238.61
692.43	19997.54
692.57	19896.89
692.70	20088.82
692.84	20231.59
692.97	19772.85
693.11	19456.87
693.24	19634.75
693.38	19618.37
693.51	19154.94
693.65	19594.96
693.78	19318.78
693.92	19449.85
694.05	19173.67
694.19	19035.58
694.32	19119.84
694.45	18892.80
694.59	18768.76
694.72	18747.69
694.86	18420.02
694.99	18494.91
695.13	18735.99
695.26	18464.49
695.39	17961.27
695.53	18097.02
695.66	18204.69
695.80	18209.37
695.93	18361.50
696.07	17935.53
696.20	18073.62
696.33	17895.74
696.47	18012.76
696.60	17912.12
696.73	17614.87
696.87	17720.20
697.00	17467.42
697.14	17502.53
697.27	17247.41
697.40	17444.01
697.54	17366.78
697.67	17085.91
697.80	16936.12
697.94	17106.98
698.07	16919.73
698.21	16807.39
698.34	17191.23
698.47	17247.41
698.61	16702.06
698.74	16585.04
698.87	16449.28
699.01	16226.93
699.14	16250.34
699.27	16184.80
699.40	16294.81
699.54	15999.90
699.67	15878.19
699.80	16170.76
699.94	15941.39
700.07	15962.45
700.20	15768.19
700.34	15623.08
700.47	15576.27
700.60	16065.44
700.73	15536.48
700.87	15545.84
701.00	15681.59
701.13	15524.77
701.26	15452.22
701.40	15122.20
701.53	14981.77
701.66	15117.52
701.79	15054.33
701.93	14761.76
702.06	14726.65
702.19	14988.79
702.32	14923.26
702.46	14747.72
702.59	14707.93
702.72	14864.74
702.85	14572.18
702.99	14380.25
703.12	14672.82
703.25	14576.86
703.38	14516.00
703.51	14324.08
703.65	14148.54
703.78	14043.21
703.91	14075.98
704.04	13881.72
704.17	14157.90
704.31	13902.78
704.44	13591.49
704.57	13633.62
704.70	13582.13
704.83	13387.86
704.96	13317.65
705.10	13535.32
705.23	13738.94
>>>>>End Processed Spectral Data<<<<<
