SpectraSuite Data File
++++++++++++++++++++++++++++++++++++
Date: Fri Oct 25 10:44:11 EDT 2013
User: price-jones
Dark Spectrum Present: No
Reference Spectrum Present: No
Number of Sampled Component Spectra: 1
Spectrometers: USB2+H05261
Integration Time (usec): 100000 (USB2+H05261)
Spectra Averaged: 1 (USB2+H05261)
Boxcar Smoothing: 0 (USB2+H05261)
Correct for Electrical Dark: No (USB2+H05261)
Strobe/Lamp Enabled: No (USB2+H05261)
Correct for Detector Non-linearity: No (USB2+H05261)
Correct for Stray Light: No (USB2+H05261)
Number of Pixels in Processed Spectrum: 2048
>>>>>Begin Processed Spectral Data<<<<<
365.73	168.52
365.92	168.52
366.12	168.52
366.32	28.09
366.52	0.00
366.72	79.58
366.91	0.00
367.11	37.45
367.31	0.00
367.51	35.11
367.70	44.47
367.90	46.81
368.10	67.88
368.30	0.00
368.49	0.00
368.69	2.34
368.89	70.22
369.09	16.38
369.28	81.92
369.48	81.92
369.68	70.22
369.87	114.69
370.07	105.32
370.27	145.11
370.47	126.39
370.66	339.38
370.86	404.91
371.06	519.60
371.25	510.24
371.45	451.72
371.65	425.98
371.84	374.49
372.04	386.19
372.24	517.26
372.44	564.07
372.63	493.85
372.83	489.17
373.03	493.85
373.22	482.15
373.42	519.60
373.62	465.77
373.81	559.39
374.01	575.77
374.21	547.69
374.40	610.88
374.60	627.26
374.79	470.45
374.99	543.00
375.19	526.62
375.38	510.24
375.58	587.47
375.78	510.24
375.97	662.37
376.17	671.73
376.37	622.58
376.56	629.60
376.76	629.60
376.95	596.84
377.15	730.25
377.35	650.67
377.54	685.78
377.74	660.03
377.93	608.54
378.13	699.82
378.33	702.16
378.52	573.43
378.72	690.46
378.91	727.91
379.11	641.31
379.31	641.31
379.50	674.07
379.70	716.20
379.89	753.65
380.09	678.76
380.28	596.84
380.48	713.86
380.68	741.95
380.87	688.12
381.07	709.18
381.26	812.17
381.46	734.93
381.65	774.72
381.85	671.73
382.04	650.67
382.24	763.01
382.43	734.93
382.63	664.71
382.83	791.10
383.02	713.86
383.22	704.50
383.41	641.31
383.61	739.61
383.80	732.59
384.00	753.65
384.19	800.46
384.39	788.76
384.58	826.21
384.78	725.57
384.97	858.98
385.17	807.48
385.36	870.68
385.56	858.98
385.75	727.91
385.95	842.59
386.14	807.48
386.34	849.61
386.53	877.70
386.72	861.32
386.92	830.89
387.11	877.70
387.31	922.17
387.50	805.14
387.70	891.74
387.89	908.13
388.09	812.17
388.28	875.36
388.48	870.68
388.67	847.27
388.86	997.07
389.06	968.98
389.25	940.90
389.45	983.02
389.64	973.66
389.84	1015.79
390.03	1013.45
390.22	992.39
390.42	978.34
390.61	980.68
390.81	978.34
391.00	959.62
391.19	1069.62
391.39	1039.20
391.58	1041.54
391.78	1027.50
391.97	1041.54
392.16	898.77
392.36	1050.90
392.55	1048.56
392.75	1013.45
392.94	1104.73
393.13	957.28
393.33	961.96
393.52	1055.58
393.71	1102.39
393.91	1118.78
394.10	1153.88
394.29	1130.48
394.49	1224.10
394.68	1188.99
394.88	1254.53
395.07	1200.69
395.26	1203.04
395.46	1153.88
395.65	1301.34
395.84	1121.12
396.04	1277.93
396.23	1221.76
396.42	1184.31
396.62	1228.78
396.81	1196.01
397.00	1174.95
397.19	1233.46
397.39	1345.81
397.58	1380.92
397.77	1352.83
397.97	1409.00
398.16	1406.66
398.35	1530.71
398.55	1446.45
398.74	1591.56
398.93	1556.46
399.12	1542.41
399.32	1530.71
399.51	1453.47
399.70	1521.35
399.90	1526.03
400.09	1540.07
400.28	1600.93
400.47	1666.46
400.67	1703.91
400.86	1577.52
401.05	1668.80
401.24	1673.48
401.44	1652.42
401.63	1722.63
401.82	1661.78
402.01	1689.87
402.21	1689.87
402.40	1834.98
402.59	1746.04
402.78	1720.29
402.97	1799.87
403.17	1755.40
403.36	1764.76
403.55	1781.15
403.74	1877.11
403.93	1806.89
404.13	1799.87
404.32	1811.57
404.51	1820.94
404.70	1916.90
404.89	1926.26
405.09	2029.24
405.28	1984.77
405.47	1987.11
405.66	1954.35
405.85	1952.01
406.05	2001.16
406.24	2071.37
406.43	2012.86
406.62	2073.71
406.81	2064.35
407.00	1975.41
407.20	2090.10
407.39	2031.58
407.58	2106.48
407.77	2195.42
407.96	2200.10
408.15	2176.70
408.34	2179.04
408.54	2251.60
408.73	2225.85
408.92	2277.34
409.11	2263.30
409.30	2256.28
409.49	2235.21
409.68	2333.51
409.87	2197.76
410.07	2328.83
410.26	2392.03
410.45	2375.64
410.64	2399.05
410.83	2427.14
411.02	2537.14
411.21	2558.21
411.40	2537.14
411.59	2497.35
411.78	2583.95
411.98	2576.93
412.17	2789.92
412.36	2548.84
412.55	2579.27
412.74	2726.72
412.93	2710.34
413.12	2717.36
413.31	2888.22
413.50	2911.63
413.69	2782.90
413.88	2883.54
414.07	2972.48
414.26	2918.65
414.45	2953.76
414.64	2923.33
414.83	2960.78
415.02	2913.97
415.22	2956.10
415.41	3098.87
415.60	3136.32
415.79	3103.55
415.98	3267.39
416.17	3222.92
416.36	3208.87
416.55	3342.28
416.74	3279.09
416.93	3155.04
417.12	3267.39
417.31	3393.78
417.50	3307.18
417.69	3510.80
417.88	3358.67
418.07	3379.73
418.26	3400.80
418.45	3524.85
418.64	3473.36
418.83	3609.11
419.02	3625.49
419.21	3534.21
419.39	3520.17
419.58	3578.68
419.77	3548.25
419.96	3660.60
420.15	3639.53
420.34	3679.32
420.53	3716.77
420.72	3805.71
420.91	3861.88
421.10	4039.76
421.29	3999.98
421.48	3716.77
421.67	3796.35
421.86	3714.43
422.05	3786.99
422.24	3812.73
422.43	3747.20
422.61	3765.92
422.80	3969.55
422.99	3939.12
423.18	4102.96
423.37	3969.55
423.56	3925.08
423.75	4046.79
423.94	3831.46
424.13	3691.02
424.32	3705.07
424.50	3974.23
424.69	3978.91
424.88	3978.91
425.07	3941.46
425.26	3885.29
425.45	3992.95
425.64	3871.25
425.83	4063.17
426.01	4095.94
426.20	3822.09
426.39	4044.45
426.58	3946.14
426.77	3960.19
426.96	3892.31
427.15	3957.85
427.33	3964.87
427.52	3997.64
427.71	4112.32
427.90	4184.88
428.09	4021.04
428.28	4182.54
428.46	4095.94
428.65	4212.96
428.84	4236.37
429.03	4257.43
429.22	4102.96
429.40	4187.22
429.59	4114.66
429.78	3962.53
429.97	3857.20
430.16	4046.79
430.34	4102.96
430.53	4196.58
430.72	4203.60
430.91	4109.98
431.10	4344.03
431.28	4526.60
431.47	4592.13
431.66	4554.68
431.85	4432.97
432.03	4582.77
432.22	4489.15
432.41	4713.84
432.60	4634.26
432.79	4641.28
432.97	4903.42
433.16	4674.05
433.35	4580.43
433.54	4727.88
433.72	4746.61
433.91	4622.56
434.10	4627.24
434.28	4812.14
434.47	4802.78
434.66	4975.98
434.85	5043.85
435.03	4898.74
435.22	5022.79
435.41	5163.22
435.59	5025.13
435.78	5093.01
435.97	5067.26
436.16	5060.24
436.34	4973.64
436.53	5132.79
436.72	5111.73
436.90	5116.41
437.09	5245.14
437.28	5078.96
437.46	5107.05
437.65	5247.48
437.84	5317.70
438.02	5053.22
438.21	5238.12
438.40	5153.86
438.58	5500.26
438.77	5434.72
438.96	5387.91
439.14	5437.06
439.33	5633.67
439.52	5565.79
439.70	5516.64
439.89	5823.25
440.08	5586.86
440.26	5654.73
440.45	5603.24
440.63	5980.07
440.82	5928.58
441.01	6033.90
441.19	5966.03
441.38	6190.72
441.57	6249.23
441.75	6136.88
441.94	6181.35
442.12	6183.70
442.31	6324.13
442.50	6422.43
442.68	6225.82
442.87	6331.15
443.05	6218.80
443.24	6331.15
443.43	6485.62
443.61	6438.81
443.80	6516.05
443.98	6326.47
444.17	6155.61
444.35	6583.93
444.54	6492.65
444.73	6544.14
444.91	6464.56
445.10	6623.72
445.28	6392.00
445.47	6429.45
445.65	6366.26
445.84	6436.47
446.02	6656.48
446.21	6452.86
446.39	6415.41
446.58	6722.02
446.77	6590.95
446.95	6649.46
447.14	6761.81
447.32	6775.85
447.51	6682.23
447.69	6523.07
447.88	6747.76
448.06	6736.06
448.25	6743.08
448.43	6722.02
448.62	6712.66
448.80	6743.08
448.99	6771.17
449.17	6869.47
449.36	6806.28
449.54	6937.35
449.73	6888.20
449.91	6832.02
450.10	6916.28
450.28	7176.08
450.46	7199.49
450.65	7143.32
450.83	7220.55
451.02	7110.55
451.20	7162.04
451.39	7365.67
451.57	7096.50
451.76	7206.51
451.94	7297.79
452.13	7400.77
452.31	7183.10
452.49	7019.27
452.68	7250.98
452.86	7117.57
453.05	7199.49
453.23	7309.49
453.42	7243.96
453.60	7213.53
453.78	7417.16
453.97	7330.56
454.15	7332.90
454.34	7229.91
454.52	7597.38
454.70	7510.78
454.89	7604.40
455.07	7536.52
455.26	7613.76
455.44	7702.70
455.62	7728.45
455.81	7557.59
455.99	7960.16
456.17	7875.90
456.36	7742.49
456.54	7887.61
456.73	8140.38
456.91	8011.65
457.09	8037.40
457.28	8241.03
457.46	7896.97
457.64	8072.51
457.83	8105.28
458.01	7847.82
458.19	8280.82
458.38	8079.53
458.56	8070.17
458.74	7918.03
458.93	8320.60
459.11	8147.40
459.29	8189.53
459.48	8255.07
459.66	8346.35
459.84	8360.39
460.03	8709.13
460.21	8472.74
460.39	8386.14
460.57	8524.23
460.76	8557.00
460.94	8667.00
461.12	8671.68
461.31	8479.76
461.49	8528.91
461.67	8657.64
461.85	8870.63
462.04	8580.40
462.22	8634.24
462.40	9139.79
462.59	9034.47
462.77	8999.36
462.95	8985.32
463.13	8903.40
463.32	9123.41
463.50	9006.38
463.68	9060.21
463.86	8980.64
464.05	8849.57
464.23	8847.22
464.41	9130.43
464.59	8842.54
464.78	9039.15
464.96	9104.68
465.14	9104.68
465.32	9132.77
465.50	9270.86
465.69	9198.31
465.87	9022.77
466.05	9334.06
466.23	9177.24
466.41	9217.03
466.60	9095.32
466.78	9149.15
466.96	9350.44
467.14	9352.78
467.32	9385.55
467.51	9329.38
467.69	9179.58
467.87	9327.03
468.05	9596.20
468.23	9504.92
468.41	9600.88
468.60	9329.38
468.78	9694.50
468.96	9408.95
469.14	9617.26
469.32	9757.69
469.50	9528.32
469.69	9790.46
469.87	9827.91
470.05	9844.29
470.23	9710.88
470.41	9802.16
470.59	10045.58
470.77	9872.38
470.95	9767.06
471.14	9973.02
471.32	10022.17
471.50	10237.50
471.68	10377.94
471.86	10303.04
472.04	10279.63
472.22	10527.73
472.40	10284.31
472.58	10186.01
472.77	10520.71
472.95	10623.69
473.13	10829.66
473.31	10406.02
473.49	10614.33
473.67	10499.64
473.85	10848.38
474.03	10862.43
474.21	11002.86
474.39	10984.13
474.57	11257.98
474.75	11105.84
474.93	11178.40
475.12	11316.49
475.30	11255.64
475.48	11339.90
475.66	11494.37
475.84	11241.59
476.02	11382.03
476.20	11325.85
476.38	11414.79
476.56	11737.79
476.74	11761.19
476.92	11819.71
477.10	11798.64
477.28	12109.93
477.46	12037.38
477.64	12109.93
477.82	12304.20
478.00	12521.87
478.18	12301.86
478.36	12437.61
478.54	12681.02
478.72	12683.36
478.90	12732.51
479.08	13083.59
479.26	12877.63
479.44	13083.59
479.62	13181.90
479.80	13380.84
479.98	13165.51
480.16	13675.75
480.34	13476.80
480.52	13411.27
480.70	13528.30
480.88	13696.82
481.06	14047.90
481.24	13914.48
481.41	14223.44
481.59	14146.20
481.77	14267.91
481.95	14265.57
482.13	14537.07
482.31	14452.81
482.49	14937.30
482.67	14590.90
482.85	14923.26
483.03	15051.99
483.21	15594.99
483.39	15169.01
483.57	15262.63
483.74	15456.90
483.92	15599.67
484.10	15487.32
484.28	15768.19
484.46	16285.45
484.64	16231.62
484.82	15974.16
485.00	16159.06
485.18	16276.09
485.35	16547.59
485.53	16350.98
485.71	16280.77
485.89	16446.94
486.07	16500.78
486.25	16578.01
486.43	16805.05
486.61	16666.95
486.78	17355.07
486.96	17399.54
487.14	17685.09
487.32	17467.42
487.50	17970.63
487.68	18012.76
487.85	18075.96
488.03	18569.81
488.21	18625.98
488.39	18663.43
488.57	18794.50
488.75	18794.50
488.92	19033.24
489.10	19229.84
489.28	19442.83
489.46	19473.26
489.64	19754.12
489.81	19920.30
489.99	20184.78
490.17	20264.36
490.35	20318.19
490.53	20194.14
490.70	20549.90
490.88	20636.50
491.06	20547.56
491.24	20989.92
491.41	20636.50
491.59	20893.96
491.77	20533.52
491.95	21104.61
492.13	21317.60
492.30	21539.95
492.48	21546.97
492.66	21685.06
492.84	21762.30
493.01	22052.53
493.19	21977.63
493.37	22335.73
493.54	22223.39
493.72	22590.85
493.90	22232.75
494.08	22895.12
494.25	23278.97
494.43	23108.11
494.61	23175.98
494.79	23646.43
494.96	23152.58
495.14	23784.52
495.32	23557.49
495.49	23821.97
495.67	23950.70
495.85	23828.99
496.02	24198.80
496.20	24313.48
496.38	24168.37
496.55	24264.33
496.73	24985.22
496.91	24772.23
497.09	24514.77
497.26	25179.48
497.44	24868.19
497.62	25062.46
497.79	25254.38
497.97	25120.97
498.14	25160.76
498.32	25668.66
498.50	25483.75
498.67	26080.59
498.85	25874.62
499.03	26253.79
499.20	26178.89
499.38	26075.91
499.56	26405.92
499.73	26389.54
499.91	26551.04
500.08	26679.77
500.26	26349.75
500.44	26443.37
500.61	26583.80
500.79	26663.38
500.97	27047.23
501.14	27391.29
501.32	27070.64
501.49	27101.06
501.67	27285.97
501.84	27344.48
502.02	27737.69
502.20	27590.24
502.37	27524.70
502.55	27644.07
502.72	27615.98
502.90	28151.96
503.07	27910.89
503.25	28285.37
503.43	28154.30
503.60	27861.74
503.78	28163.67
503.95	28542.83
504.13	28521.77
504.30	28704.33
504.48	28460.91
504.65	29081.16
504.83	29132.65
505.01	29408.83
505.18	28903.28
505.36	29336.27
505.53	29364.36
505.71	29446.28
505.88	29715.44
506.06	29460.32
506.23	29305.85
506.41	29567.99
506.58	29706.08
506.76	29535.22
506.93	29788.00
507.11	30015.03
507.28	29750.55
507.46	29944.81
507.63	30033.75
507.81	30146.10
507.98	30153.12
508.16	30192.91
508.33	30876.35
508.50	30682.08
508.68	30845.92
508.85	31117.42
509.03	30754.64
509.20	31115.08
509.38	30817.83
509.55	31234.45
509.73	30948.90
509.90	31063.59
510.08	31409.99
510.25	31215.72
510.42	31360.84
510.60	31735.32
510.77	32156.62
510.95	31871.07
511.12	31777.45
511.30	32037.25
511.47	32313.44
511.64	32325.14
511.82	32364.93
511.99	31838.31
512.17	32531.11
512.34	32229.18
512.51	32809.63
512.69	32870.48
512.86	32720.69
513.04	32924.32
513.21	32872.82
513.38	32889.21
513.56	32739.41
513.73	33013.26
513.90	32833.04
514.08	32826.01
514.25	33263.69
514.43	33156.03
514.60	32851.76
514.77	33607.75
514.95	33722.44
515.12	33553.92
515.29	33284.76
515.47	34457.37
515.64	34122.67
515.81	33649.88
515.99	34110.97
516.16	33481.36
516.33	33734.14
516.51	33659.24
516.68	33464.98
516.85	33233.27
517.03	33553.92
517.20	33834.78
517.37	33837.12
517.54	34141.39
517.72	34066.50
517.89	34078.20
518.06	33860.53
518.24	33809.04
518.41	34125.01
518.58	34338.00
518.75	34469.07
518.93	34981.65
519.10	34663.33
519.27	35213.36
519.45	35122.08
519.62	34710.14
519.79	35063.57
519.96	35365.49
520.14	35751.68
520.31	35370.18
520.48	35400.60
520.65	35632.32
520.83	36584.91
521.00	36282.98
521.17	35934.24
521.34	36023.19
521.52	36275.96
521.69	36350.86
521.86	36285.33
522.03	36414.05
522.20	35906.16
522.38	36484.27
522.55	36437.46
522.72	36870.46
522.89	36350.86
523.07	36622.36
523.24	36584.91
523.41	36872.80
523.58	36879.82
523.75	37134.94
523.92	37415.80
524.10	37333.89
524.27	37509.43
524.44	37291.76
524.61	37261.33
524.78	37574.96
524.96	37560.92
525.13	37500.06
525.30	37677.94
525.47	38014.98
525.64	37249.63
525.81	37944.76
525.98	37490.70
526.16	37441.55
526.33	36825.99
526.50	37787.95
526.67	37113.87
526.84	37581.98
527.01	37366.65
527.18	37687.31
527.36	38237.33
527.53	38050.09
527.70	38370.74
527.87	38471.39
528.04	38337.98
528.21	38464.36
528.38	38525.22
528.55	38827.15
528.72	38565.01
528.89	38796.72
529.07	38597.77
529.24	38679.69
529.41	38756.93
529.58	39206.31
529.75	38497.13
529.92	39157.16
530.09	38754.59
530.26	39353.77
530.43	39304.62
530.60	39505.90
530.77	39047.16
530.94	39468.45
531.11	39407.60
531.28	39283.55
531.46	39508.24
531.63	39751.66
531.80	39157.16
531.97	39590.16
532.14	39145.46
532.31	39473.13
532.48	39117.37
532.65	40126.14
532.82	39842.94
532.99	39985.71
533.16	39585.48
533.33	40105.08
533.50	40638.72
533.67	40116.78
533.84	39756.34
534.01	39861.66
534.18	39974.01
534.35	40460.84
534.52	40502.97
534.69	40659.79
534.86	40744.05
535.03	40524.04
535.20	41015.55
535.37	40896.18
535.54	41020.23
535.71	41029.59
535.88	40715.96
536.05	40769.79
536.22	40865.75
536.38	40708.94
536.55	40524.04
536.72	40854.05
536.89	40514.67
537.06	41097.47
537.23	41153.64
537.40	40722.98
537.57	40720.64
537.74	41303.43
537.91	41471.95
538.08	41296.41
538.25	40840.01
538.42	41340.88
538.59	41998.57
538.75	40830.65
538.92	41146.62
539.09	41804.31
539.26	41553.87
539.43	41254.28
539.60	41642.81
539.77	41701.32
539.94	41254.28
540.11	41258.96
540.28	41490.68
540.44	41661.54
540.61	41516.42
540.78	41535.15
540.95	41301.09
541.12	41347.90
541.29	41820.69
541.46	41605.36
541.62	41848.78
541.79	42171.77
541.96	41743.45
542.13	41935.38
542.30	42019.64
542.47	41684.94
542.63	42312.20
542.80	42082.83
542.97	43054.15
543.14	42550.94
543.31	42782.65
543.48	42621.16
543.64	43075.22
543.81	42740.52
543.98	42768.61
544.15	42887.98
544.32	43239.06
544.48	43454.39
544.65	43119.69
544.82	42843.51
544.99	42564.98
545.16	42911.38
545.32	42930.11
545.49	43196.93
545.66	42740.52
545.83	43445.02
546.00	43618.22
546.16	43430.98
546.33	42546.26
546.50	42895.00
546.67	43316.29
546.83	42937.13
547.00	43400.55
547.17	43585.46
547.34	43161.82
547.50	43672.06
547.67	43449.70
547.84	43606.52
548.00	43751.63
548.17	43985.69
548.34	43676.74
548.51	43791.42
548.67	43927.17
548.84	44011.43
549.01	43494.18
549.18	43789.08
549.34	43920.15
549.51	44058.24
549.68	44020.80
549.84	43938.88
550.01	44041.86
550.18	43739.93
550.34	44060.58
550.51	44128.46
550.68	44165.91
550.84	43950.58
551.01	44472.52
551.18	44275.91
551.34	44442.09
551.51	44325.07
551.68	44818.92
551.84	44275.91
552.01	43810.15
552.18	44210.38
552.34	43786.74
552.51	44631.68
552.68	44105.06
552.84	44718.28
553.01	44140.16
553.18	44631.68
553.34	44353.15
553.51	44645.72
553.67	44376.56
553.84	44687.85
554.01	44619.97
554.17	44643.38
554.34	44804.88
554.51	44666.78
554.67	45172.34
554.84	44596.57
555.00	44219.74
555.17	44837.64
555.33	45195.74
555.50	45050.63
555.67	44692.53
555.83	44966.37
556.00	44917.22
556.16	44870.41
556.33	44732.32
556.50	45090.42
556.66	45326.81
556.83	44704.23
556.99	44800.19
557.16	45125.53
557.32	44973.39
557.49	45331.50
557.65	44729.98
557.82	45170.00
557.98	45294.05
558.15	45216.81
558.32	45464.91
558.48	45083.40
558.65	44837.64
558.81	45139.57
558.98	44821.26
559.14	45076.38
559.31	44982.76
559.47	45261.28
559.64	45635.77
559.80	45778.54
559.97	45401.71
560.13	44816.58
560.30	45532.78
560.46	45221.49
560.63	45476.61
560.79	45532.78
560.96	45584.27
561.12	45422.78
561.29	45436.82
561.45	45776.20
561.61	45745.77
561.78	45095.10
561.94	45242.56
562.11	45155.96
562.27	45469.59
562.44	45593.64
562.60	45600.66
562.77	45853.44
562.93	45425.12
563.10	46026.63
563.26	45134.89
563.42	45713.00
563.59	45572.57
563.75	45085.74
563.92	45811.31
564.08	45696.62
564.24	45862.80
564.41	45944.72
564.57	45397.03
564.74	45691.94
564.90	45614.70
565.07	45949.40
565.23	46073.45
565.39	45588.95
565.56	45628.74
565.72	45647.47
565.88	45584.27
566.05	45467.25
566.21	45605.34
566.38	45621.72
566.54	45806.62
566.70	45860.46
566.87	46113.23
567.03	46225.58
567.19	45914.29
567.36	46059.40
567.52	46057.06
567.68	46202.18
567.85	45600.66
568.01	46113.23
568.17	46131.96
568.34	46195.15
568.50	45525.76
568.66	46106.21
568.83	45551.51
568.99	45556.19
569.15	45708.32
569.32	45956.42
569.48	45808.96
569.64	46103.87
569.81	46251.33
569.97	46162.39
570.13	46021.95
570.30	45811.31
570.46	45937.69
570.62	45525.76
570.78	45717.68
570.95	45659.17
571.11	46003.23
571.27	45673.21
571.43	45900.25
571.60	45970.46
571.76	45918.97
571.92	46012.59
572.09	45930.67
572.25	46138.98
572.41	46010.25
572.57	46256.01
572.74	46454.95
572.90	45970.46
573.06	46052.38
573.22	46328.56
573.38	46169.41
573.55	46167.07
573.71	46197.49
573.87	46012.59
574.03	46176.43
574.20	46583.68
574.36	45841.73
574.52	46153.02
574.68	46089.83
574.84	45933.01
575.01	45865.14
575.17	45441.50
575.33	46082.81
575.49	45785.56
575.65	46106.21
575.82	46466.66
575.98	45764.49
576.14	46232.60
576.30	46635.17
576.46	46160.05
576.62	46356.65
576.79	45820.67
576.95	45558.53
577.11	45970.46
577.27	45977.48
577.43	46511.13
577.59	45928.33
577.75	45579.59
577.92	45652.15
578.08	46075.79
578.24	45900.25
578.40	45647.47
578.56	46237.28
578.72	46370.69
578.88	46616.45
579.04	46642.20
579.21	46115.58
579.37	46195.15
579.53	46146.00
579.69	45965.78
579.85	46281.75
580.01	46366.01
580.17	46129.62
580.33	46211.54
580.49	46288.77
580.65	46450.27
580.82	46639.86
580.98	45907.27
581.14	46155.36
581.30	46237.28
581.46	46340.27
581.62	46220.90
581.78	45979.82
581.94	46562.62
582.10	46014.93
582.26	46433.89
582.42	46171.75
582.58	46206.86
582.74	46377.72
582.90	46005.57
583.06	46850.50
583.22	46309.84
583.38	46497.08
583.54	46646.88
583.70	46293.46
583.86	46103.87
584.02	46075.79
584.18	46667.94
584.34	46225.58
584.50	46263.03
584.66	46595.38
584.82	46131.96
584.98	46438.57
585.14	46288.77
585.30	46272.39
585.46	46181.11
585.62	45815.99
585.78	46014.93
585.94	45741.09
586.10	46316.86
586.26	46703.05
586.42	46487.72
586.58	46564.96
586.74	46358.99
586.90	46237.28
587.06	46120.26
587.22	46405.80
587.38	45914.29
587.54	46401.12
587.70	46101.53
587.86	46181.11
588.02	46298.14
588.18	46483.04
588.34	45839.39
588.49	46181.11
588.65	45612.36
588.81	46043.02
588.97	45982.16
589.13	45633.42
589.29	46300.48
589.45	45806.62
589.61	46096.85
589.77	46394.10
589.93	46382.40
590.08	46129.62
590.24	46515.81
590.40	46635.17
590.56	46553.26
590.72	46770.93
590.88	46483.04
591.04	46770.93
591.20	47178.18
591.35	46749.86
591.51	46649.22
591.67	46167.07
591.83	46272.39
591.99	46742.84
592.15	46576.66
592.31	46501.76
592.46	46815.40
592.62	46202.18
592.78	46562.62
592.94	46773.27
593.10	46265.37
593.26	46609.43
593.41	46258.35
593.57	46429.21
593.73	46415.16
593.89	46576.66
594.05	46747.52
594.20	46387.08
594.36	46646.88
594.52	46321.54
594.68	46366.01
594.84	46705.39
594.99	46873.91
595.15	46373.03
595.31	46251.33
595.47	46281.75
595.62	46600.07
595.78	46553.26
595.94	46543.89
596.10	46686.67
596.25	46703.05
596.41	46515.81
596.57	46602.41
596.73	46550.91
596.88	46415.16
597.04	46576.66
597.20	46424.53
597.36	46621.13
597.51	46588.36
597.67	46595.38
597.83	46513.47
597.99	46590.70
598.14	46796.67
598.30	46478.36
598.46	46681.98
598.61	46234.94
598.77	46443.25
598.93	46227.92
599.09	46438.57
599.24	47049.45
599.40	47040.09
599.56	46845.82
599.71	46696.03
599.87	46794.33
600.03	46506.44
600.18	46153.02
600.34	46656.24
600.50	46328.56
600.65	46600.07
600.81	46841.14
600.97	46862.21
601.12	46698.37
601.28	46918.38
601.44	46768.58
601.59	46506.44
601.75	46178.77
601.91	46265.37
602.06	46258.35
602.22	46330.90
602.37	46581.34
602.53	46459.63
602.69	46855.18
602.84	46710.07
603.00	46106.21
603.16	46511.13
603.31	46857.52
603.47	46171.75
603.62	46611.77
603.78	46211.54
603.94	46146.00
604.09	47070.51
604.25	46508.79
604.40	46918.38
604.56	46415.16
604.71	46483.04
604.87	45830.03
605.03	46466.66
605.18	46150.68
605.34	46078.13
605.49	46272.39
605.65	46211.54
605.80	46213.88
605.96	46529.85
606.12	46843.48
606.27	46953.49
606.43	45979.82
606.58	46358.99
606.74	46138.98
606.89	46300.48
607.05	46216.22
607.20	46646.88
607.36	46213.88
607.51	46363.67
607.67	46672.62
607.82	46351.97
607.98	46277.07
608.13	45874.50
608.29	46164.73
608.44	45914.29
608.60	45801.94
608.75	45982.16
608.91	45916.63
609.06	45961.10
609.22	46263.03
609.37	45998.55
609.53	45986.85
609.68	45738.75
609.84	46078.13
609.99	45375.97
610.15	45780.88
610.30	45804.28
610.46	45481.29
610.61	45909.61
610.76	45670.87
610.92	46014.93
611.07	46447.93
611.23	45869.82
611.38	45846.41
611.54	45464.91
611.69	45844.07
611.84	45230.85
612.00	45422.78
612.15	45254.26
612.31	45546.82
612.46	45483.63
612.62	45675.55
612.77	45624.06
612.92	46075.79
613.08	45317.45
613.23	45705.98
613.39	45411.07
613.54	45031.91
613.69	45387.67
613.85	45502.35
614.00	45677.90
614.15	46000.89
614.31	45375.97
614.46	45603.00
614.62	45181.70
614.77	45397.03
614.92	46024.29
615.08	45478.95
615.23	45029.57
615.38	45631.08
615.54	44999.14
615.69	45207.45
615.84	45003.82
616.00	45184.04
616.15	45069.36
616.30	45076.38
616.46	44629.34
616.61	44903.18
616.76	45052.97
616.92	44423.37
617.07	44608.27
617.22	44348.47
617.37	44870.41
617.53	44924.24
617.68	45277.66
617.83	45008.50
617.99	44987.44
618.14	45052.97
618.29	44580.18
618.45	44779.13
618.60	44652.74
618.75	44484.22
618.90	44601.25
619.06	44786.15
619.21	44526.35
619.36	44879.77
619.51	44704.23
619.67	44584.86
619.82	45083.40
619.97	44704.23
620.12	44687.85
620.28	44399.96
620.43	44645.72
620.58	44566.14
620.73	44086.33
620.89	44142.50
621.04	44531.03
621.19	44238.47
621.34	44591.89
621.49	44219.74
621.65	43959.94
621.80	44634.02
621.95	44112.08
622.10	43955.26
622.25	44046.54
622.41	43578.43
622.56	43569.07
622.71	44341.45
622.86	44481.88
623.01	44060.58
623.16	44135.48
623.32	44119.10
623.47	44032.50
623.62	43952.92
623.77	43894.41
623.92	43725.89
624.07	44116.76
624.23	43459.07
624.38	44053.56
624.53	43948.24
624.68	43564.39
624.83	43402.89
624.98	43718.87
625.13	43115.01
625.29	43332.68
625.44	43285.87
625.59	43096.28
625.74	42792.01
625.89	42972.24
626.04	43318.64
626.19	43246.08
626.34	43119.69
626.49	43487.15
626.65	43686.10
626.80	42904.36
626.95	43255.44
627.10	43194.59
627.25	43297.57
627.40	43000.32
627.55	43423.96
627.70	42754.57
627.85	42761.59
628.00	42618.81
628.15	42806.06
628.30	42890.32
628.45	42871.59
628.60	42986.28
628.76	43400.55
628.91	42710.10
629.06	42686.69
629.21	42630.52
629.36	42370.72
629.51	42363.70
629.66	42597.75
629.81	42506.47
629.96	42817.76
630.11	42794.36
630.26	42986.28
630.41	42752.23
630.56	42813.08
630.71	42763.93
630.86	42492.43
631.01	42522.85
631.16	42260.71
631.31	42218.58
631.46	42045.38
631.61	42068.79
631.76	42396.46
631.91	42373.06
632.06	42541.58
632.21	42499.45
632.36	42777.97
632.51	42218.58
632.66	42066.45
632.81	42033.68
632.96	41911.97
633.10	41675.58
633.25	42466.68
633.40	42139.00
633.55	42300.50
633.70	41691.96
633.85	41834.74
634.00	41930.70
634.15	42134.32
634.30	41368.97
634.45	41972.83
634.60	41881.55
634.75	41846.44
634.90	41551.53
635.05	41911.97
635.19	41565.57
635.34	41619.41
635.49	41766.86
635.64	41497.70
635.79	41406.42
635.94	42047.72
636.09	41469.61
636.24	41593.66
636.39	40840.01
636.53	41425.14
636.68	41352.58
636.83	41338.54
636.98	41839.42
637.13	41411.10
637.28	41186.41
637.43	41385.35
637.57	41413.44
637.72	41244.92
637.87	40821.28
638.02	41387.69
638.17	41060.02
638.32	41256.62
638.46	41085.76
638.61	41024.91
638.76	41003.85
638.91	41258.96
639.06	40694.89
639.20	41249.60
639.35	41198.11
639.50	40615.32
639.65	41092.79
639.80	41003.85
639.94	40945.33
640.09	40795.54
640.24	40935.97
640.39	40376.58
640.54	40460.84
640.68	41041.29
640.83	40285.30
640.98	40659.79
641.13	40699.58
641.27	40767.45
641.42	40444.46
641.57	40671.49
641.72	40519.35
641.86	39971.67
642.01	40037.20
642.16	40346.15
642.31	39868.69
642.45	40620.00
642.60	39985.71
642.75	40524.04
642.90	39847.62
643.04	40250.19
643.19	40376.58
643.34	40154.23
643.48	40006.78
643.63	40306.37
643.78	39770.38
643.93	40041.88
644.07	40027.84
644.22	40187.00
644.37	39569.10
644.51	39866.34
644.66	39959.97
644.81	39978.69
644.95	40182.32
645.10	39906.13
645.25	39679.10
645.39	40189.34
645.54	40100.40
645.69	39999.76
645.83	40250.19
645.98	39789.11
646.13	39426.32
646.27	40254.87
646.42	39758.68
646.57	39672.08
646.71	39496.54
646.86	39627.61
647.00	39763.36
647.15	39786.77
647.30	39906.13
647.44	39517.60
647.59	39344.41
647.74	39489.52
647.88	39557.39
648.03	39084.61
648.17	39449.73
648.32	39496.54
648.47	39384.19
648.61	38515.86
648.76	39601.86
648.90	39136.10
649.05	39372.49
649.20	39323.34
649.34	38953.54
649.49	38939.49
649.63	38541.60
649.78	39374.83
649.92	39166.52
650.07	39353.77
650.21	39028.43
650.36	39049.50
650.51	39215.68
650.65	39580.80
650.80	39377.17
650.94	39344.41
651.09	39253.12
651.23	38930.13
651.38	38941.83
651.52	38632.88
651.67	38653.95
651.81	38714.80
651.96	38639.90
652.10	38415.21
652.25	38993.32
652.39	38450.32
652.54	38462.02
652.68	38803.74
652.83	38527.56
652.97	38925.45
653.12	38277.12
653.26	38419.89
653.41	38670.33
653.55	38099.24
653.70	38227.97
653.84	38047.75
653.99	38279.46
654.13	38258.40
654.27	38134.35
654.42	38333.29
654.56	37933.06
654.71	38349.68
654.85	38223.29
655.00	38183.50
655.14	37834.76
655.29	37769.22
655.43	37869.87
655.57	37893.27
655.72	37715.39
655.86	37226.22
656.01	37338.57
656.15	37134.94
656.30	37383.04
656.44	37722.41
656.58	37787.95
656.73	37703.69
656.87	36783.86
657.01	37497.72
657.16	37312.82
657.30	37254.31
657.45	37567.94
657.59	37230.90
657.73	37577.30
657.88	38036.05
658.02	37820.72
658.16	38195.20
658.31	37539.85
658.45	37418.14
658.60	37280.05
658.74	37617.09
658.88	37249.63
659.03	37291.76
659.17	36914.93
659.31	36776.84
659.46	37163.03
659.60	37034.30
659.74	36877.48
659.89	37097.49
660.03	37095.15
660.17	37099.83
660.32	36905.57
660.46	36877.48
660.60	36573.21
660.74	36690.24
660.89	36409.37
661.03	36414.05
661.17	36453.84
661.32	36290.01
661.46	37008.55
661.60	36500.65
661.74	36833.01
661.89	36505.34
662.03	36732.37
662.17	36666.83
662.31	36304.05
662.46	36392.99
662.60	36350.86
662.74	36662.15
662.88	36091.06
663.03	35651.04
663.17	35840.62
663.31	35557.42
663.45	35798.49
663.60	35999.78
663.74	35800.83
663.88	35564.44
664.02	35421.67
664.17	35608.91
664.31	35583.16
664.45	35704.87
664.59	35433.37
664.73	35075.27
664.88	35377.20
665.02	35072.93
665.16	35669.76
665.30	35304.64
665.44	34801.43
665.59	34686.74
665.73	34803.77
665.87	35016.75
666.01	34822.49
666.15	35257.83
666.29	34892.71
666.44	34771.00
666.58	34424.60
666.72	34536.94
666.86	34478.43
667.00	34625.89
667.14	34190.55
667.28	34160.12
667.43	34527.58
667.57	34258.42
667.71	34637.59
667.85	34052.45
667.99	33954.15
668.13	34232.68
668.27	33736.48
668.41	34183.52
668.56	33802.02
668.70	34270.12
668.84	33783.29
668.98	33886.28
669.12	33764.57
669.26	33612.43
669.40	33301.14
669.54	33682.65
669.68	33680.31
669.82	33411.15
669.96	33352.63
670.10	33289.44
670.25	33429.87
670.39	33062.41
670.53	32987.51
670.67	33146.67
670.81	33362.00
670.95	33317.53
671.09	33050.70
671.23	32804.95
671.37	32699.62
671.51	32479.61
671.65	33020.28
671.79	32357.91
671.93	32182.37
672.07	32816.65
672.21	33046.02
672.35	32519.40
672.49	32926.66
672.63	32357.91
672.77	32423.44
672.91	32418.76
673.05	32299.39
673.19	32268.97
673.33	31683.83
673.47	31999.80
673.61	31819.58
673.75	31424.03
673.89	31686.17
674.03	31845.33
674.17	31021.46
674.31	31391.26
674.45	31426.37
674.59	31594.89
674.73	31683.83
674.87	31267.22
675.01	31023.80
675.15	30876.35
675.29	31337.43
675.43	30916.14
675.56	30976.99
675.70	30836.56
675.84	30806.13
675.98	30052.48
676.12	30380.15
676.26	30719.53
676.40	30574.42
676.54	30464.41
676.68	30824.86
676.82	29762.25
676.96	30382.49
677.10	30087.59
677.23	29935.45
677.37	29949.50
677.51	29694.38
677.65	29593.73
677.79	29357.34
677.93	29355.00
678.07	29542.24
678.21	29043.71
678.34	29036.69
678.48	28980.51
678.62	28914.98
678.76	28341.55
678.90	28669.22
679.04	28982.85
679.18	28400.06
679.31	28285.37
679.45	28327.50
679.59	28428.15
679.73	27967.06
679.87	28196.43
680.00	28250.27
680.14	27936.63
680.28	27976.42
680.42	27999.83
680.56	27971.74
680.70	27974.08
680.83	27831.31
680.97	27463.85
681.11	27613.64
681.25	26939.57
681.39	27400.65
681.52	27480.23
681.66	27129.15
681.80	26946.59
681.94	26822.54
682.07	26962.97
682.21	26857.65
682.35	26829.56
682.49	26995.74
682.62	26656.36
682.76	26728.92
682.90	26607.21
683.04	26206.98
683.17	26033.78
683.31	25869.94
683.45	25956.54
683.59	25764.62
683.72	25930.80
683.86	25883.98
684.00	25926.11
684.13	25671.00
684.27	25605.46
684.41	25256.72
684.55	25289.49
684.68	25111.61
684.82	25139.69
684.96	24968.84
685.09	25078.84
685.23	25174.80
685.37	25085.86
685.50	24802.66
685.64	24826.06
685.78	24538.18
685.91	24313.48
686.05	24173.05
686.19	24144.97
686.32	23896.87
686.46	23644.09
686.60	23421.74
686.73	23700.26
686.87	23204.07
687.01	23091.73
687.14	22888.10
687.28	23122.15
687.42	23119.81
687.55	23349.18
687.69	23302.37
687.82	23122.15
687.96	23337.48
688.10	23201.73
688.23	23049.60
688.37	22689.15
688.50	22572.13
688.64	22843.63
688.78	22632.98
688.91	22520.63
689.05	22410.63
689.18	22403.61
689.32	22122.74
689.46	22143.81
689.59	22270.20
689.73	22394.25
689.86	21898.05
690.00	21947.20
690.13	21998.70
690.27	21783.37
690.41	21965.93
690.54	21671.02
690.68	21418.24
690.81	21177.17
690.95	21001.63
691.08	21333.98
691.22	21137.38
691.35	21261.43
691.49	21195.89
691.62	21322.28
691.76	21041.42
691.89	20943.11
692.03	20657.57
692.16	20482.03
692.30	20505.43
692.43	20414.15
692.57	20182.44
692.70	20556.93
692.84	20320.53
692.97	20053.71
693.11	19969.45
693.24	20006.90
693.38	19623.05
693.51	19707.31
693.65	19667.52
693.78	19704.97
693.92	19740.08
694.05	19145.58
694.19	19428.79
694.32	19082.39
694.45	19080.05
694.59	19452.19
694.72	19136.22
694.86	19103.45
694.99	18991.11
695.13	19042.60
695.26	19061.32
695.39	19044.94
695.53	18747.69
695.66	18895.14
695.80	18721.95
695.93	18560.45
696.07	18209.37
696.20	18281.92
696.33	18452.78
696.47	18054.89
696.60	18118.09
696.73	18078.30
696.87	17837.22
697.00	17844.24
697.14	17748.28
697.27	17799.77
697.40	17539.97
697.54	17495.50
697.67	17371.46
697.80	17364.43
697.94	17186.55
698.07	17266.13
698.21	17209.96
698.34	17212.30
698.47	16912.71
698.61	16915.05
698.74	16781.64
698.87	16765.26
699.01	16425.88
699.14	16484.39
699.27	16205.87
699.40	16301.83
699.54	16545.25
699.67	16315.87
699.80	16285.45
699.94	15999.90
700.07	16229.27
700.20	16262.04
700.34	16128.63
700.47	16077.14
700.60	16042.03
700.73	15936.71
700.87	16079.48
701.00	15690.95
701.13	15674.57
701.26	15260.29
701.40	15353.91
701.53	15400.72
701.66	15215.82
701.79	15367.96
701.93	15262.63
702.06	15283.70
702.19	14822.61
702.32	15115.18
702.46	14944.32
702.59	14897.51
702.72	14780.48
702.85	15199.44
702.99	14869.42
703.12	14871.76
703.25	14675.16
703.38	14626.01
703.51	14501.96
703.65	14635.37
703.78	14324.08
703.91	14216.41
704.04	14153.22
704.17	14207.05
704.31	13844.27
704.44	13905.12
704.57	13980.02
704.70	14052.58
704.83	13825.54
704.96	13975.34
705.10	13692.13
705.23	13886.40
>>>>>End Processed Spectral Data<<<<<
