SpectraSuite Data File
++++++++++++++++++++++++++++++++++++
Date: Fri Oct 25 10:44:42 EDT 2013
User: price-jones
Dark Spectrum Present: No
Reference Spectrum Present: No
Number of Sampled Component Spectra: 1
Spectrometers: USB2+H05261
Integration Time (usec): 100000 (USB2+H05261)
Spectra Averaged: 1 (USB2+H05261)
Boxcar Smoothing: 0 (USB2+H05261)
Correct for Electrical Dark: No (USB2+H05261)
Strobe/Lamp Enabled: No (USB2+H05261)
Correct for Detector Non-linearity: No (USB2+H05261)
Correct for Stray Light: No (USB2+H05261)
Number of Pixels in Processed Spectrum: 2048
>>>>>Begin Processed Spectral Data<<<<<
365.73	86.60
365.92	86.60
366.12	86.60
366.32	28.09
366.52	65.54
366.72	42.13
366.91	32.77
367.11	53.83
367.31	30.43
367.51	0.00
367.70	4.68
367.90	51.49
368.10	11.70
368.30	0.00
368.49	67.88
368.69	23.41
368.89	0.00
369.09	65.54
369.28	0.00
369.48	65.54
369.68	65.54
369.87	7.02
370.07	126.39
370.27	168.52
370.47	205.97
370.66	386.19
370.86	409.59
371.06	393.21
371.25	503.22
371.45	447.04
371.65	444.70
371.84	519.60
372.04	430.66
372.24	425.98
372.44	507.90
372.63	564.07
372.83	470.45
373.03	463.43
373.22	477.47
373.42	538.32
373.62	472.79
373.81	559.39
374.01	540.66
374.21	545.34
374.40	458.74
374.60	545.34
374.79	580.45
374.99	617.90
375.19	524.28
375.38	561.73
375.58	533.64
375.78	545.34
375.97	589.82
376.17	617.90
376.37	545.34
376.56	578.11
376.76	538.32
376.95	491.51
377.15	606.20
377.35	636.63
377.54	688.12
377.74	571.09
377.93	662.37
378.13	653.01
378.33	575.77
378.52	636.63
378.72	620.24
378.91	613.22
379.11	645.99
379.31	545.34
379.50	582.79
379.70	655.35
379.89	704.50
380.09	622.58
380.28	552.37
380.48	662.37
380.68	664.71
380.87	645.99
381.07	662.37
381.26	629.60
381.46	716.20
381.65	636.63
381.85	624.92
382.04	704.50
382.24	671.73
382.43	657.69
382.63	629.60
382.83	699.82
383.02	718.54
383.22	662.37
383.41	695.14
383.61	650.67
383.80	681.10
384.00	709.18
384.19	725.57
384.39	711.52
384.58	784.08
384.78	751.31
384.97	737.27
385.17	788.76
385.36	819.19
385.56	624.92
385.75	737.27
385.95	678.76
386.14	840.25
386.34	784.08
386.53	870.68
386.72	681.10
386.92	763.01
387.11	732.59
387.31	798.12
387.50	816.85
387.70	828.55
387.89	844.93
388.09	791.10
388.28	835.57
388.48	835.57
388.67	866.00
388.86	847.27
389.06	779.40
389.25	861.32
389.45	915.15
389.64	812.17
389.84	926.85
390.03	940.90
390.22	858.98
390.42	828.55
390.61	950.26
390.81	868.34
391.00	1022.81
391.19	882.38
391.39	938.55
391.58	922.17
391.78	929.19
391.97	947.92
392.16	959.62
392.36	997.07
392.55	1018.13
392.75	945.58
392.94	964.30
393.13	950.26
393.33	828.55
393.52	945.58
393.71	1015.79
393.91	990.05
394.10	957.28
394.29	1107.07
394.49	1025.15
394.68	1156.22
394.88	1029.84
395.07	987.71
395.26	1097.71
395.46	1137.50
395.65	1097.71
395.84	1107.07
396.04	1165.59
396.23	964.30
396.42	1050.90
396.62	1144.52
396.81	1121.12
397.00	1165.59
397.19	1203.04
397.39	1116.44
397.58	1245.16
397.77	1212.40
397.97	1268.57
398.16	1313.04
398.35	1308.36
398.55	1296.66
398.74	1284.95
398.93	1303.68
399.12	1231.12
399.32	1296.66
399.51	1343.47
399.70	1392.62
399.90	1399.64
400.09	1380.92
400.28	1399.64
400.47	1369.21
400.67	1568.16
400.86	1406.66
401.05	1465.18
401.24	1479.22
401.44	1504.96
401.63	1519.01
401.82	1493.26
402.01	1465.18
402.21	1549.43
402.40	1556.46
402.59	1441.77
402.78	1544.75
402.97	1638.38
403.17	1650.08
403.36	1528.37
403.55	1563.48
403.74	1645.40
403.93	1586.88
404.13	1654.76
404.32	1687.53
404.51	1568.16
404.70	1507.30
404.89	1572.84
405.09	1682.85
405.28	1724.97
405.47	1750.72
405.66	1743.70
405.85	1715.61
406.05	1846.68
406.24	1739.02
406.43	1739.02
406.62	1767.10
406.81	1832.64
407.00	1739.02
407.20	1884.13
407.39	1739.02
407.58	1792.85
407.77	2036.27
407.96	1895.83
408.15	1916.90
408.34	1975.41
408.54	1973.07
408.73	1966.05
408.92	2120.53
409.11	1998.82
409.30	2015.20
409.49	2022.22
409.68	2052.65
409.87	2122.87
410.07	2106.48
410.26	2083.08
410.45	2127.55
410.64	2157.97
410.83	2186.06
411.02	2169.68
411.21	2188.40
411.40	2307.77
411.59	2237.55
411.78	2392.03
411.98	2291.38
412.17	2253.94
412.36	2373.30
412.55	2361.60
412.74	2363.94
412.93	2368.62
413.12	2373.30
413.31	2516.08
413.50	2434.16
413.69	2518.42
413.88	2546.50
414.07	2607.36
414.26	2520.76
414.45	2602.68
414.64	2619.06
414.83	2649.49
415.02	2621.40
415.22	2754.81
415.41	2712.68
415.60	2899.92
415.79	2733.75
415.98	2740.77
416.17	2810.98
416.36	2881.20
416.55	2888.22
416.74	2815.66
416.93	2991.20
417.12	2890.56
417.31	2935.03
417.50	2853.11
417.69	3042.70
417.88	3007.59
418.07	2972.48
418.26	3117.59
418.45	3023.97
418.64	3218.24
418.83	3307.18
419.02	3040.36
419.21	3194.83
419.39	3152.70
419.58	3288.45
419.77	3038.02
419.96	3300.16
420.15	3293.13
420.34	3213.56
420.53	3337.60
420.72	3276.75
420.91	3382.07
421.10	3379.73
421.29	3426.54
421.48	3363.35
421.67	3527.19
421.86	3283.77
422.05	3466.33
422.24	3454.63
422.43	3386.76
422.61	3445.27
422.80	3501.44
422.99	3602.08
423.18	3695.71
423.37	3471.01
423.56	3520.17
423.75	3555.27
423.94	3459.31
424.13	3316.54
424.32	3342.28
424.50	3494.42
424.69	3557.61
424.88	3768.26
425.07	3447.61
425.26	3492.08
425.45	3552.93
425.64	3377.39
425.83	3517.83
426.01	3480.38
426.20	3543.57
426.39	3686.34
426.58	3616.13
426.77	3517.83
426.96	3648.90
427.15	3672.30
427.33	3789.33
427.52	3655.92
427.71	3590.38
427.90	3662.94
428.09	3789.33
428.28	3782.31
428.46	3651.24
428.65	3772.94
428.84	3927.42
429.03	3927.42
429.22	3609.11
429.40	3744.86
429.59	3789.33
429.78	3641.87
429.97	3665.28
430.16	3798.69
430.34	3908.69
430.53	3981.25
430.72	3840.82
430.91	3997.64
431.10	3964.87
431.28	4170.83
431.47	4112.32
431.66	4175.52
431.85	4161.47
432.03	4032.74
432.22	4091.26
432.41	4072.53
432.60	4276.16
432.79	4262.12
432.97	4189.56
433.16	4243.39
433.35	4252.75
433.54	4322.97
433.72	4329.99
433.91	4159.13
434.10	4332.33
434.28	4353.40
434.47	4243.39
434.66	4414.25
434.85	4428.29
435.03	4327.65
435.22	4278.50
435.41	4535.96
435.59	4454.04
435.78	4465.74
435.97	4643.62
436.16	4475.10
436.34	4395.53
436.53	4545.32
436.72	4695.11
436.90	4681.07
437.09	4610.86
437.28	4545.32
437.46	4685.75
437.65	4648.30
437.84	4718.52
438.02	4730.22
438.21	4671.71
438.40	4704.48
438.58	4985.34
438.77	4861.29
438.96	4882.36
439.14	4999.38
439.33	4898.74
439.52	4865.97
439.70	5107.05
439.89	5303.65
440.08	5036.83
440.26	5259.18
440.45	5123.43
440.63	5219.39
440.82	5343.44
441.01	5142.16
441.19	5273.23
441.38	5432.38
441.57	5369.19
441.75	5500.26
441.94	5455.79
442.12	5678.14
442.31	5778.78
442.50	5682.82
442.68	5636.01
442.87	5598.56
443.05	5621.97
443.24	5753.04
443.43	5680.48
443.61	5738.99
443.80	5839.64
443.98	5652.39
444.17	5643.03
444.35	5738.99
444.54	5914.53
444.73	5860.70
444.91	5846.66
445.10	5834.96
445.28	5678.14
445.47	5865.38
445.65	5638.35
445.84	5809.21
446.02	5933.26
446.21	5874.74
446.39	5804.53
446.58	5935.60
446.77	5989.43
446.95	5916.87
447.14	6061.99
447.32	5966.03
447.51	6090.07
447.69	5867.72
447.88	6036.24
448.06	6160.29
448.25	5987.09
448.43	6047.94
448.62	5994.11
448.80	6157.95
448.99	6164.97
449.17	5996.45
449.36	6094.76
449.54	6040.92
449.73	6296.04
449.91	6235.19
450.10	6207.10
450.28	6293.70
450.46	6352.21
450.65	6274.98
450.83	6492.65
451.02	6574.56
451.20	6560.52
451.39	6525.41
451.57	6485.62
451.76	6457.54
451.94	6354.55
452.13	6562.86
452.31	6431.79
452.49	6455.20
452.68	6534.78
452.86	6450.52
453.05	6497.33
453.23	6609.67
453.42	6441.15
453.60	6609.67
453.78	6614.35
453.97	6579.25
454.15	6782.87
454.34	6679.89
454.52	6796.92
454.70	6794.58
454.89	6736.06
455.07	6813.30
455.26	6979.48
455.44	6956.07
455.62	6825.00
455.81	6939.69
455.99	6986.50
456.17	7087.14
456.36	6963.09
456.54	7021.61
456.73	7140.97
456.91	7253.32
457.09	7300.13
457.28	7433.54
457.46	7152.68
457.64	7283.75
457.83	7400.77
458.01	7253.32
458.19	7318.86
458.38	7391.41
458.56	7473.33
458.74	7412.48
458.93	7463.97
459.11	7365.67
459.29	7609.08
459.48	7433.54
459.66	7463.97
459.84	7475.67
460.03	7585.68
460.21	7428.86
460.39	7599.72
460.57	7456.95
460.76	7946.12
460.94	7864.20
461.12	7894.63
461.31	7801.01
461.49	7583.34
461.67	7693.34
461.85	8016.33
462.04	8030.38
462.22	7913.35
462.40	7962.50
462.59	8016.33
462.77	7742.49
462.95	8112.30
463.13	7775.26
463.32	7990.59
463.50	8109.96
463.68	8032.72
463.86	7962.50
464.05	7922.71
464.23	8177.83
464.41	8060.80
464.59	7971.86
464.78	8208.26
464.96	8126.34
465.14	8049.10
465.32	8285.50
465.50	8421.25
465.69	8276.13
465.87	8109.96
466.05	8292.52
466.23	8355.71
466.41	8421.25
466.60	8484.44
466.78	8161.45
466.96	8187.19
467.14	8468.06
467.32	8482.10
467.51	8484.44
467.69	8294.86
467.87	8437.63
468.05	8631.90
468.23	8393.16
468.41	8461.04
468.60	8664.66
468.78	8805.10
468.96	8613.17
469.14	8737.22
469.32	8762.97
469.50	8599.13
469.69	8697.43
469.87	8854.25
470.05	8741.90
470.23	8926.80
470.41	8748.92
470.59	9046.17
470.77	8912.76
470.95	8856.59
471.14	9348.10
471.32	8891.70
471.50	9331.72
471.68	9261.50
471.86	9357.46
472.04	9453.42
472.22	9645.35
472.40	9394.91
472.58	9472.15
472.77	9570.45
472.95	9516.62
473.13	9781.10
473.31	9533.00
473.49	9488.53
473.67	9551.73
473.85	9764.72
474.03	9776.42
474.21	9795.14
474.39	10120.48
474.57	9914.51
474.75	10052.60
474.93	10300.70
475.12	9963.66
475.30	10150.90
475.48	10127.50
475.66	10218.78
475.84	10186.01
476.02	10249.21
476.20	10324.10
476.38	10448.15
476.56	10909.24
476.74	10860.09
476.92	10759.44
477.10	10640.08
477.28	10918.60
477.46	10747.74
477.64	10974.77
477.82	11152.65
478.00	11375.00
478.18	11316.49
478.36	11489.69
478.54	11433.52
478.72	11646.51
478.90	11744.81
479.08	11700.34
479.26	11866.52
479.44	11845.45
479.62	11939.07
479.80	12025.67
479.98	12133.34
480.16	12299.52
480.34	12393.14
480.52	12334.62
480.70	12648.26
480.88	12280.79
481.06	12510.16
481.24	12594.42
481.41	12889.33
481.59	12894.01
481.77	13043.81
481.95	13057.85
482.13	13181.90
482.31	13193.60
482.49	13675.75
482.67	13664.05
482.85	13593.83
483.03	13965.98
483.21	13783.41
483.39	13855.97
483.57	13973.00
483.74	14057.26
483.92	14406.00
484.10	14176.62
484.28	14516.00
484.46	14558.13
484.64	14768.78
484.82	14483.24
485.00	14853.04
485.18	15037.94
485.35	15187.74
485.53	14974.75
485.71	15068.37
485.89	15426.47
486.07	15089.43
486.25	15475.62
486.43	15513.07
486.61	15590.31
486.78	15815.00
486.96	15946.07
487.14	16133.31
487.32	16095.86
487.50	16327.58
487.68	16765.26
487.85	16856.54
488.03	16730.15
488.21	17132.72
488.39	17092.93
488.57	17090.59
488.75	17149.11
488.92	17493.16
489.10	17511.89
489.28	17647.64
489.46	17877.01
489.64	17596.15
489.81	18448.10
489.99	18354.48
490.17	18338.10
490.35	18712.58
490.53	18710.24
490.70	18656.41
490.88	18785.14
491.06	19094.09
491.24	18906.85
491.41	18878.76
491.59	19257.93
491.77	19108.13
491.95	19257.93
492.13	19281.33
492.30	19396.02
492.48	19885.19
492.66	19936.68
492.84	20163.72
493.01	20149.67
493.19	19969.45
493.37	20285.42
493.54	20418.83
493.72	20601.40
493.90	20460.96
494.08	20706.72
494.25	21329.30
494.43	21315.26
494.61	21303.56
494.79	21331.64
494.96	21493.14
495.14	21521.23
495.32	21689.74
495.49	21577.40
495.67	21872.31
495.85	21961.25
496.02	22150.83
496.20	22384.88
496.38	22281.90
496.55	22534.68
496.73	22869.37
496.91	22979.38
497.09	22560.42
497.26	23054.28
497.44	22614.26
497.62	22878.74
497.79	23264.92
497.97	23325.78
498.14	23431.10
498.32	23826.65
498.50	23695.58
498.67	23796.23
498.85	23821.97
499.03	24159.01
499.20	24004.53
499.38	24444.56
499.56	24128.58
499.73	24182.42
499.91	24383.70
500.08	24379.02
500.26	24264.33
500.44	24819.04
500.61	24987.56
500.79	24517.11
500.97	24549.88
501.14	25099.90
501.32	24952.45
501.49	25572.69
501.67	25242.68
501.84	25333.96
502.02	25483.75
502.20	25294.17
502.37	25778.66
502.55	25507.16
502.72	25876.96
502.90	25598.44
503.07	25839.51
503.25	25975.27
503.43	25839.51
503.60	26010.37
503.78	25612.48
503.95	25778.66
504.13	26396.56
504.30	26073.57
504.48	26487.84
504.65	26670.40
504.83	26473.80
505.01	27264.90
505.18	26883.39
505.36	27208.73
505.53	27075.32
505.71	27295.33
505.88	27178.30
506.06	27058.93
506.23	26909.14
506.41	27424.06
506.58	27424.06
506.76	27747.05
506.93	27435.76
507.11	27859.40
507.28	27756.41
507.46	27763.43
507.63	27400.65
507.81	28041.96
507.98	27938.97
508.16	27934.29
508.33	28444.53
508.50	28254.95
508.68	28273.67
508.85	28940.72
509.03	28739.44
509.20	28835.40
509.38	28535.81
509.55	28730.08
509.73	28847.10
509.90	28627.09
510.08	29202.86
510.25	29240.31
510.42	28989.88
510.60	29067.11
510.77	29387.77
510.95	29502.45
511.12	29427.56
511.30	29661.61
511.47	30033.75
511.64	29549.26
511.82	30085.25
511.99	29802.04
512.17	30272.49
512.34	29675.65
512.51	30061.84
512.69	30270.15
512.86	30118.01
513.04	30501.86
513.21	30536.97
513.38	30096.95
513.56	30419.94
513.73	30272.49
513.90	30478.46
514.08	30635.27
514.25	30696.13
514.43	31136.15
514.60	30707.83
514.77	31136.15
514.95	31285.94
515.12	31030.82
515.29	31452.12
515.47	32130.87
515.64	31646.38
515.81	31234.45
515.99	31164.23
516.16	31730.64
516.33	31325.73
516.51	31747.03
516.68	31358.50
516.85	31559.78
517.03	31718.94
517.20	32053.64
517.37	32091.09
517.54	32325.14
517.72	32294.71
517.89	32027.89
518.06	32306.41
518.24	32009.17
518.41	32123.85
518.58	32055.98
518.75	32411.74
518.93	32575.58
519.10	32102.79
519.27	32790.91
519.45	33010.92
519.62	32849.42
519.79	32615.37
519.96	33060.07
520.14	33167.73
520.31	32769.84
520.48	32996.87
520.65	33483.70
520.83	33495.41
521.00	33472.00
521.17	33193.48
521.34	33741.16
521.52	33284.76
521.69	33617.11
521.86	33689.67
522.03	33780.95
522.20	33867.55
522.38	33989.26
522.55	34232.68
522.72	34347.36
522.89	33963.51
523.07	34204.59
523.24	34302.89
523.41	34712.49
523.58	34478.43
523.75	34845.90
523.92	34536.94
524.10	34593.12
524.27	34735.89
524.44	34892.71
524.61	34838.87
524.78	35250.81
524.96	35367.84
525.13	35454.44
525.30	34864.62
525.47	35548.06
525.64	34962.92
525.81	35498.91
525.98	35086.97
526.16	35431.03
526.33	35339.75
526.50	35407.62
526.67	34962.92
526.84	34958.24
527.01	35014.41
527.18	35285.92
527.36	36119.15
527.53	36308.73
527.70	35981.06
527.87	35587.85
528.04	35866.37
528.21	36524.06
528.38	35868.71
528.55	36371.92
528.72	36334.48
528.89	36025.53
529.07	36308.73
529.24	35894.46
529.41	36484.27
529.58	36507.68
529.75	36240.86
529.92	36294.69
530.09	36835.35
530.26	36346.18
530.43	36439.80
530.60	36610.66
530.77	36477.25
530.94	37013.23
531.11	36713.64
531.28	36334.48
531.46	36779.18
531.63	36769.82
531.80	36636.41
531.97	37034.30
532.14	36753.43
532.31	37085.79
532.48	36912.59
532.65	37291.76
532.82	37338.57
532.99	37226.22
533.16	37523.47
533.33	37390.06
533.50	37570.28
533.67	37406.44
533.84	37785.61
534.01	37099.83
534.18	37574.96
534.35	37958.81
534.52	37488.36
534.69	37972.85
534.86	38031.36
535.03	37666.24
535.20	38389.47
535.37	38115.62
535.54	38574.37
535.71	37799.65
535.88	38237.33
536.05	38010.30
536.22	38667.99
536.38	38206.90
536.55	38522.88
536.72	38466.70
536.89	38185.84
537.06	38326.27
537.23	38480.75
537.40	38611.82
537.57	38508.83
537.74	38745.23
537.91	39166.52
538.08	38782.68
538.25	38562.67
538.42	39091.63
538.59	38829.49
538.75	38646.93
538.92	38897.36
539.09	38724.16
539.26	39115.03
539.43	38803.74
539.60	39416.96
539.77	39285.89
539.94	39344.41
540.11	38749.91
540.28	39005.03
540.44	39047.16
540.61	39218.02
540.78	39154.82
540.95	39133.76
541.12	39189.93
541.29	39309.30
541.46	39438.03
541.62	39482.50
541.79	39758.68
541.96	39447.39
542.13	39962.31
542.30	39466.11
542.47	39707.19
542.63	39545.69
542.80	40369.56
542.97	40509.99
543.14	40233.81
543.31	40332.11
543.48	40484.25
543.64	40840.01
543.81	40531.06
543.98	40589.57
544.15	40226.79
544.32	40423.39
544.48	41148.96
544.65	40734.68
544.82	40659.79
544.99	40411.69
545.16	40341.47
545.32	40397.65
545.49	41111.51
545.66	40547.44
545.83	40781.49
546.00	41134.92
546.16	40676.17
546.33	40781.49
546.50	40395.31
546.67	40767.45
546.83	40446.80
547.00	40945.33
547.17	40718.30
547.34	40921.93
547.50	41036.61
547.67	41605.36
547.84	41163.00
548.00	41509.40
548.17	41287.05
548.34	41132.57
548.51	41394.71
548.67	41354.93
548.84	41296.41
549.01	41139.60
549.18	41146.62
549.34	41383.01
549.51	41441.53
549.68	42155.39
549.84	41757.50
550.01	41944.74
550.18	41565.57
550.34	41792.61
550.51	41170.02
550.68	42085.17
550.84	41518.76
551.01	41549.19
551.18	41979.85
551.34	41893.25
551.51	42220.92
551.68	41977.51
551.84	42115.60
552.01	41780.90
552.18	41893.25
552.34	41734.09
552.51	41780.90
552.68	42370.72
552.84	42103.90
553.01	42382.42
553.18	42021.98
553.34	41904.95
553.51	42075.81
553.67	41855.80
553.84	42536.90
554.01	42733.50
554.17	42576.69
554.34	42871.59
554.51	42429.23
554.67	42852.87
554.84	42316.89
555.00	42131.98
555.17	42220.92
555.33	42705.41
555.50	42707.76
555.67	41991.55
555.83	42749.88
556.00	42543.92
556.16	43288.21
556.33	42838.83
556.50	42302.84
556.66	42937.13
556.83	42328.59
556.99	42890.32
557.16	43143.09
557.32	42658.60
557.49	43229.69
557.65	42625.84
557.82	42829.46
557.98	42974.58
558.15	42773.29
558.32	42843.51
558.48	42494.77
558.65	43178.20
558.81	42838.83
558.98	42845.85
559.14	43042.45
559.31	43035.43
559.47	42829.46
559.64	43688.44
559.80	43152.46
559.97	43110.33
560.13	42997.98
560.30	42693.71
560.46	43012.02
560.63	43398.21
560.79	43597.16
560.96	43065.86
561.12	43459.07
561.29	43213.31
561.45	43459.07
561.61	43150.12
561.78	43285.87
561.94	43005.00
562.11	43335.02
562.27	43459.07
562.44	43313.95
562.60	43957.60
562.77	43611.20
562.93	43800.79
563.10	43882.70
563.26	43037.77
563.42	43276.51
563.59	43243.74
563.75	43236.72
563.92	44081.65
564.08	43503.54
564.24	43503.54
564.41	43597.16
564.57	43519.92
564.74	43428.64
564.90	43412.26
565.07	43613.54
565.23	43515.24
565.39	43896.75
565.56	43871.00
565.72	43768.02
565.88	44182.29
566.05	43398.21
566.21	43323.32
566.38	43398.21
566.54	43782.06
566.70	43889.73
566.87	44018.46
567.03	43861.64
567.19	43992.71
567.36	43992.71
567.52	43812.49
567.68	44013.77
567.85	43571.41
568.01	43723.55
568.17	43784.40
568.34	44285.28
568.50	43243.74
568.66	44126.12
568.83	44098.03
568.99	43482.47
569.15	43847.60
569.32	43634.61
569.48	43990.37
569.64	44055.90
569.81	44002.07
569.97	43913.13
570.13	44109.74
570.30	43536.30
570.46	43447.36
570.62	43503.54
570.78	43859.30
570.95	43700.14
571.11	43973.98
571.27	44109.74
571.43	43803.13
571.60	44065.27
571.76	43793.76
571.92	43990.37
572.09	44240.81
572.25	44135.48
572.41	43899.09
572.57	43920.15
572.74	44182.29
572.90	44158.89
573.06	43658.01
573.22	43756.32
573.38	43838.23
573.55	44006.75
573.71	44294.64
573.87	44102.71
574.03	44039.52
574.20	44357.83
574.36	43952.92
574.52	44112.08
574.68	43878.02
574.84	44229.10
575.01	43936.54
575.17	43686.10
575.33	43318.64
575.49	44065.27
575.65	44147.18
575.82	44713.59
575.98	44158.89
576.14	44229.10
576.30	44027.82
576.46	43927.17
576.62	44032.50
576.79	44289.96
576.95	43459.07
577.11	44165.91
577.27	44215.06
577.43	43973.98
577.59	44046.54
577.75	44013.77
577.92	44034.84
578.08	43711.84
578.24	43969.30
578.40	43704.82
578.56	44254.85
578.72	44357.83
578.88	44109.74
579.04	44184.63
579.21	44362.51
579.37	44140.16
579.53	44285.28
579.69	43943.56
579.85	43889.73
580.01	43988.03
580.17	44488.90
580.33	43959.94
580.49	43899.09
580.65	44392.94
580.82	44547.42
580.98	44435.07
581.14	44336.77
581.30	44280.60
581.46	44706.57
581.62	44168.25
581.78	44631.68
581.94	44566.14
582.10	44135.48
582.26	44179.95
582.42	44194.00
582.58	44079.31
582.74	44266.55
582.90	44116.76
583.06	43924.83
583.22	43828.87
583.38	44603.59
583.54	44634.02
583.70	44390.60
583.86	44062.93
584.02	44105.06
584.18	44231.44
584.34	44282.94
584.50	44301.66
584.66	44725.30
584.82	43899.09
584.98	44416.35
585.14	44559.12
585.30	44676.15
585.46	44524.01
585.62	44123.78
585.78	44278.25
585.94	43969.30
586.10	44196.34
586.26	44535.71
586.42	44493.58
586.58	44575.50
586.74	44332.09
586.90	44236.12
587.06	44114.42
587.22	44210.38
587.38	43957.60
587.54	44243.15
587.70	43948.24
587.86	44460.82
588.02	44083.99
588.18	44381.24
588.34	44055.90
588.49	44341.45
588.65	44243.15
588.81	43845.26
588.97	44219.74
589.13	44130.80
589.29	44603.59
589.45	44390.60
589.61	44289.96
589.77	44500.61
589.93	44631.68
590.08	44624.65
590.24	44837.64
590.40	44437.41
590.56	44786.15
590.72	44626.99
590.88	44023.14
591.04	44545.08
591.20	45010.84
591.35	45024.89
591.51	45052.97
591.67	44575.50
591.83	44479.54
591.99	44533.37
592.15	44477.20
592.31	44648.06
592.46	44610.61
592.62	44961.69
592.78	44818.92
592.94	44804.88
593.10	44587.21
593.26	44935.95
593.41	44381.24
593.57	44362.51
593.73	44659.76
593.89	44816.58
594.05	44893.82
594.20	44858.71
594.36	45027.23
594.52	44732.32
594.68	44715.93
594.84	44135.48
594.99	45130.21
595.15	44725.30
595.31	44535.71
595.47	44882.11
595.62	44715.93
595.78	44779.13
595.94	44622.31
596.10	45130.21
596.25	44790.83
596.41	45036.59
596.57	44678.49
596.73	45029.57
596.88	44067.61
597.04	44505.29
597.20	44788.49
597.36	44327.41
597.51	44905.52
597.67	44910.20
597.83	44767.43
597.99	44966.37
598.14	44587.21
598.30	44453.79
598.46	44369.54
598.61	44577.84
598.77	44378.90
598.93	44458.48
599.09	44786.15
599.24	45029.57
599.40	45151.27
599.56	44999.14
599.71	44924.24
599.87	45036.59
600.03	44942.97
600.18	44975.73
600.34	44474.86
600.50	45029.57
600.65	44641.04
600.81	44893.82
600.97	44966.37
601.12	45539.80
601.28	44741.68
601.44	44348.47
601.59	44568.48
601.75	44528.69
601.91	44708.91
602.06	44797.85
602.22	44769.77
602.37	44762.75
602.53	44697.21
602.69	45029.57
602.84	44598.91
603.00	44446.77
603.16	44568.48
603.31	44741.68
603.47	44715.93
603.62	44765.09
603.78	44713.59
603.94	44594.23
604.09	44598.91
604.25	45216.81
604.40	45003.82
604.56	44765.09
604.71	45125.53
604.87	44266.55
605.03	44547.42
605.18	44683.17
605.34	44023.14
605.49	44296.98
605.65	44727.64
605.80	44538.05
605.96	44540.39
606.12	44687.85
606.27	45216.81
606.43	44631.68
606.58	44376.56
606.74	44547.42
606.89	44694.87
607.05	44315.70
607.20	44467.84
607.36	44549.76
607.51	44531.03
607.67	44825.94
607.82	44074.63
607.98	44608.27
608.13	44179.95
608.29	44406.98
608.44	44479.54
608.60	44130.80
608.75	44184.63
608.91	44238.47
609.06	44322.72
609.22	44505.29
609.37	44091.01
609.53	44023.14
609.68	44076.97
609.84	44236.12
609.99	44144.84
610.15	43906.11
610.30	44350.81
610.46	43915.47
610.61	44509.97
610.76	44453.79
610.92	44257.19
611.07	44175.27
611.23	44538.05
611.38	44788.49
611.54	44105.06
611.69	44062.93
611.84	43817.17
612.00	44058.24
612.15	43889.73
612.31	44341.45
612.46	43618.22
612.62	43906.11
612.77	44273.57
612.92	43981.01
613.08	43943.56
613.23	43578.43
613.39	43753.97
613.54	43491.83
613.69	44055.90
613.85	43927.17
614.00	43913.13
614.15	44041.86
614.31	43629.93
614.46	44304.00
614.62	43969.30
614.77	43583.12
614.92	43658.01
615.08	43704.82
615.23	43728.23
615.38	43379.49
615.54	43402.89
615.69	43765.68
615.84	43620.56
616.00	43728.23
616.15	43571.41
616.30	43845.26
616.46	43606.52
616.61	43281.19
616.76	43414.60
616.92	42347.31
617.07	43058.84
617.22	42953.51
617.37	43194.59
617.53	42981.60
617.68	43489.49
617.83	43276.51
617.99	43320.98
618.14	43201.61
618.29	43091.60
618.45	43140.75
618.60	42885.64
618.75	43243.74
618.90	42855.21
619.06	43152.46
619.21	43445.02
619.36	43391.19
619.51	43463.75
619.67	42981.60
619.82	43297.57
619.97	42972.24
620.12	42787.33
620.28	42450.30
620.43	42967.55
620.58	42939.47
620.73	42780.31
620.89	42843.51
621.04	42993.30
621.19	42866.91
621.34	42855.21
621.49	42806.06
621.65	42862.23
621.80	42712.44
621.95	42674.99
622.10	42632.86
622.25	42370.72
622.41	42143.69
622.56	42384.76
622.71	42932.45
622.86	42333.27
623.01	42347.31
623.16	42403.49
623.32	42141.35
623.47	42263.05
623.62	42719.46
623.77	41975.17
623.92	42113.26
624.07	42089.85
624.23	42244.33
624.38	42071.13
624.53	41766.86
624.68	42010.28
624.83	41811.33
624.98	42361.36
625.13	42080.49
625.29	42007.94
625.44	41916.65
625.59	41982.19
625.74	41612.38
625.89	41422.80
626.04	41549.19
626.19	41722.39
626.34	42019.64
626.49	42066.45
626.65	41801.97
626.80	41918.99
626.95	42021.98
627.10	41340.88
627.25	41542.17
627.40	41572.60
627.55	41212.15
627.70	41298.75
627.85	41359.61
628.00	41471.95
628.15	41666.22
628.30	41476.63
628.45	41256.62
628.60	41055.34
628.76	41425.14
628.91	41806.65
629.06	41413.44
629.21	41254.28
629.36	40886.82
629.51	41148.96
629.66	41329.18
629.81	40832.99
629.96	41123.21
630.11	41301.09
630.26	41591.32
630.41	41315.14
630.56	40938.31
630.71	41326.84
630.86	40814.26
631.01	40762.77
631.16	40842.35
631.31	40636.38
631.46	40371.90
631.61	40744.05
631.76	40917.25
631.91	41041.29
632.06	40891.50
632.21	40980.44
632.36	41254.28
632.51	40662.13
632.66	40968.74
632.81	40559.14
632.96	40662.13
633.10	40137.85
633.25	40882.14
633.40	40720.64
633.55	40872.78
633.70	40399.99
633.85	40053.59
634.00	40376.58
634.15	40568.51
634.30	40500.63
634.45	40456.16
634.60	40100.40
634.75	40680.85
634.90	40109.76
635.05	40147.21
635.19	40112.10
635.34	40081.67
635.49	40142.53
635.64	40271.26
635.79	40027.84
635.94	40025.50
636.09	39908.47
636.24	39948.26
636.39	40013.80
636.53	39707.19
636.68	40076.99
636.83	39894.43
636.98	40189.34
637.13	39290.57
637.28	40172.96
637.43	40598.93
637.57	40114.44
637.72	39971.67
637.87	40226.79
638.02	39887.41
638.17	40084.01
638.32	40135.51
638.46	39917.84
638.61	40023.16
638.76	39742.30
638.91	39746.98
639.06	39718.89
639.20	39370.15
639.35	39899.11
639.50	39885.07
639.65	39704.85
639.80	40151.89
639.94	39522.29
640.09	39283.55
640.24	39564.42
640.39	39227.38
640.54	39370.15
640.68	39119.71
640.83	39409.94
640.98	39208.65
641.13	38930.13
641.27	39477.82
641.42	39138.44
641.57	39414.62
641.72	39360.79
641.86	38527.56
642.01	38955.88
642.16	38920.77
642.31	38445.64
642.45	39136.10
642.60	38387.13
642.75	39271.85
642.90	38850.55
643.04	38644.59
643.19	39126.74
643.34	38761.61
643.48	38597.77
643.63	38712.46
643.78	38979.28
643.93	38447.98
644.07	38565.01
644.22	38876.30
644.37	38504.15
644.51	38693.74
644.66	38752.25
644.81	38801.40
644.95	38941.83
645.10	38754.59
645.25	38656.29
645.39	38604.80
645.54	38656.29
645.69	38225.63
645.83	38452.66
645.98	38616.50
646.13	38581.39
646.27	38642.24
646.42	38426.92
646.57	38340.32
646.71	38637.56
646.86	38581.39
647.00	38445.64
647.15	38609.48
647.30	38096.90
647.44	38473.73
647.59	38438.62
647.74	38108.60
647.88	38277.12
648.03	38176.48
648.17	38286.48
648.32	38103.92
648.47	38295.85
648.61	37923.70
648.76	38087.54
648.90	38054.77
649.05	38171.80
649.20	38167.12
649.34	37951.79
649.49	37841.78
649.63	37682.62
649.78	37731.78
649.92	37897.95
650.07	38150.73
650.21	37628.79
650.36	37748.16
650.51	37769.22
650.65	37867.53
650.80	37944.76
650.94	38141.37
651.09	37778.59
651.23	37434.53
651.38	37806.67
651.52	37493.04
651.67	37551.56
651.81	37574.96
651.96	37132.60
652.10	37476.66
652.25	37151.32
652.39	37757.52
652.54	37495.38
652.68	37490.70
652.83	37612.41
652.97	37804.33
653.12	37497.72
653.26	36917.27
653.41	37268.35
653.55	37148.98
653.70	37177.07
653.84	37127.92
653.99	37041.32
654.13	37041.32
654.27	36891.52
654.42	36933.65
654.56	36531.08
654.71	37235.58
654.85	37170.05
655.00	36999.19
655.14	36671.51
655.29	36538.10
655.43	36966.42
655.57	36369.58
655.72	36589.59
655.86	36582.57
656.01	36652.79
656.15	36601.30
656.30	36355.54
656.44	36587.25
656.58	36549.81
656.73	36238.51
656.87	36542.78
657.01	36477.25
657.16	36856.42
657.30	36423.42
657.45	36517.04
657.59	35976.37
657.73	35959.99
657.88	36453.84
658.02	36751.09
658.16	36570.87
658.31	36334.48
658.45	36297.03
658.60	36046.59
658.74	36149.57
658.88	36545.12
659.03	36442.14
659.17	36261.92
659.31	35962.33
659.46	36252.56
659.60	36355.54
659.74	35936.59
659.89	35658.06
660.03	35590.19
660.17	36116.81
660.32	35688.49
660.46	36126.17
660.60	35583.16
660.74	35763.39
660.89	36044.25
661.03	35402.94
661.17	35278.89
661.32	34913.77
661.46	35075.27
661.60	34962.92
661.74	35461.46
661.89	35028.46
662.03	35150.17
662.17	35409.96
662.31	35082.29
662.46	35288.26
662.60	35101.01
662.74	34993.35
662.88	34745.25
663.03	34724.19
663.17	34494.82
663.31	34785.04
663.45	34618.86
663.60	34913.77
663.74	34857.60
663.88	34871.64
664.02	34583.76
664.17	34932.50
664.31	34415.24
664.45	34522.90
664.59	34604.82
664.73	34220.97
664.88	34639.93
665.02	33720.10
665.16	34108.63
665.30	33970.54
665.44	33748.18
665.59	33907.34
665.73	33860.53
665.87	33694.35
666.01	33771.59
666.15	33759.89
666.29	33748.18
666.44	33825.42
666.58	33673.29
666.72	33425.19
666.86	33455.62
667.00	33722.44
667.14	33263.69
667.28	33371.36
667.43	33268.37
667.57	33574.98
667.71	33092.83
667.85	33191.14
667.99	33472.00
668.13	33549.24
668.27	32943.04
668.41	33242.63
668.56	32872.82
668.70	33418.17
668.84	33006.23
668.98	32608.34
669.12	32393.01
669.26	32584.94
669.40	32348.54
669.54	32444.51
669.68	32566.21
669.82	32304.07
669.96	32402.38
670.10	32449.19
670.25	32411.74
670.39	32364.93
670.53	32088.74
670.67	31688.51
670.81	32219.81
670.95	32313.44
671.09	31866.39
671.23	31934.27
671.37	31969.38
671.51	31882.78
671.65	31548.08
671.79	31522.34
671.93	31845.33
672.07	31910.86
672.21	31730.64
672.35	31812.56
672.49	31339.77
672.63	31679.15
672.77	31096.36
672.91	31850.01
673.05	31487.23
673.19	31260.20
673.33	31098.70
673.47	30560.37
673.61	30595.48
673.75	30665.70
673.89	30820.17
674.03	30609.53
674.17	30820.17
674.31	30529.95
674.45	30441.01
674.59	30820.17
674.73	30422.28
674.87	30581.44
675.01	30600.16
675.15	30162.48
675.29	30160.14
675.43	29986.94
675.56	30305.26
675.70	29757.57
675.84	29783.32
675.98	29289.46
676.12	30125.04
676.26	29722.46
676.40	29935.45
676.54	29689.70
676.68	29315.21
676.82	28755.82
676.96	29001.58
677.10	29256.70
677.23	29216.91
677.37	29165.42
677.51	29032.00
677.65	28844.76
677.79	28355.59
677.93	28709.01
678.07	28467.94
678.21	28514.75
678.34	27913.23
678.48	28158.99
678.62	28144.94
678.76	27599.60
678.90	27552.79
679.04	27702.58
679.18	27723.65
679.31	27391.29
679.45	27641.73
679.59	27342.14
679.73	27206.39
679.87	27248.52
680.00	27234.47
680.14	27290.65
680.28	27077.66
680.42	27089.36
680.56	27014.46
680.70	26810.84
680.83	27124.47
680.97	26881.05
681.11	27089.36
681.25	26342.73
681.39	26396.56
681.52	26639.98
681.66	26391.88
681.80	26434.01
681.94	26618.91
682.07	26398.90
682.21	26085.27
682.35	26216.34
682.49	26204.64
682.62	25898.03
682.76	26087.61
682.90	25610.14
683.04	25619.50
683.17	25556.31
683.31	25331.62
683.45	25191.19
683.59	25322.26
683.72	24851.81
683.86	25343.32
684.00	24797.98
684.13	24912.66
684.27	24896.28
684.41	24568.60
684.55	24414.13
684.68	24514.77
684.82	24510.09
684.96	24379.02
685.09	24407.11
685.23	24276.04
685.37	24346.25
685.50	23939.00
685.64	23768.14
685.78	23695.58
685.91	23821.97
686.05	23676.86
686.19	23190.03
686.32	23248.54
686.46	22977.04
686.60	23002.78
686.73	23201.73
686.87	23030.87
687.01	22911.50
687.14	22785.12
687.28	22785.12
687.42	22860.01
687.55	22981.72
687.69	22988.74
687.82	22668.09
687.96	22185.94
688.10	22602.55
688.23	22522.98
688.37	21743.58
688.50	22036.14
688.64	22324.03
688.78	22008.06
688.91	22031.46
689.05	22045.51
689.18	21858.26
689.32	21806.77
689.46	21678.04
689.59	21781.03
689.73	21795.07
689.86	21624.21
690.00	21326.96
690.13	21296.53
690.27	21612.51
690.41	21172.49
690.54	20987.58
690.68	20390.75
690.81	20554.58
690.95	20779.28
691.08	20924.39
691.22	20945.45
691.35	20926.73
691.49	20879.92
691.62	20512.46
691.76	20320.53
691.89	20196.48
692.03	20240.95
692.16	19978.81
692.30	19831.36
692.43	20042.01
692.57	19861.79
692.70	19772.85
692.84	19971.79
692.97	19452.19
693.11	19262.61
693.24	19468.58
693.38	19330.48
693.51	19077.71
693.65	19246.23
693.78	19543.47
693.92	19447.51
694.05	19484.96
694.19	19164.31
694.32	18958.34
694.45	18703.22
694.59	18541.72
694.72	18583.85
694.86	18766.42
694.99	18677.48
695.13	18754.71
695.26	18515.98
695.39	18260.86
695.53	18181.28
695.66	18424.70
695.80	18073.62
695.93	18054.89
696.07	17935.53
696.20	18019.78
696.33	17745.94
696.47	17949.57
696.60	17671.04
696.73	17731.90
696.87	17757.64
697.00	17317.62
697.14	17355.07
697.27	17357.41
697.40	17415.93
697.54	17568.06
697.67	17036.76
697.80	17139.74
697.94	16823.77
698.07	16737.17
698.21	16512.48
698.34	16409.50
698.47	16383.75
698.61	16067.78
698.74	16315.87
698.87	16276.09
699.01	15852.45
699.14	16079.48
699.27	16198.85
699.40	15992.88
699.54	16095.86
699.67	15824.36
699.80	15847.77
699.94	15758.83
700.07	15800.96
700.20	15700.31
700.34	15573.92
700.47	15651.16
700.60	15981.18
700.73	15604.35
700.87	15683.93
701.00	15349.23
701.13	15358.60
701.26	15054.33
701.40	15098.80
701.53	15026.24
701.66	15087.09
701.79	14963.04
701.93	15091.77
702.06	14656.43
702.19	14799.21
702.32	14621.33
702.46	14644.73
702.59	14370.89
702.72	14326.42
702.85	14670.48
702.99	14370.89
703.12	14375.57
703.25	14267.91
703.38	14193.01
703.51	14071.30
703.65	14122.79
703.78	13860.65
703.91	13827.88
704.04	13844.27
704.17	13956.61
704.31	13841.93
704.44	13729.58
704.57	13619.58
704.70	13657.03
704.83	13418.29
704.96	13605.53
705.10	13633.62
705.23	13661.71
>>>>>End Processed Spectral Data<<<<<
