SpectraSuite Data File
++++++++++++++++++++++++++++++++++++
Date: Fri Oct 25 11:34:26 EDT 2013
User: price-jones
Dark Spectrum Present: No
Reference Spectrum Present: No
Number of Sampled Component Spectra: 1
Spectrometers: USB2+H05261
Integration Time (usec): 100000 (USB2+H05261)
Spectra Averaged: 1 (USB2+H05261)
Boxcar Smoothing: 0 (USB2+H05261)
Correct for Electrical Dark: No (USB2+H05261)
Strobe/Lamp Enabled: No (USB2+H05261)
Correct for Detector Non-linearity: No (USB2+H05261)
Correct for Stray Light: No (USB2+H05261)
Number of Pixels in Processed Spectrum: 2048
>>>>>Begin Processed Spectral Data<<<<<
365.73	248.10
365.92	248.10
366.12	248.10
366.32	259.80
366.52	149.79
366.72	205.97
366.91	100.64
367.11	147.45
367.31	191.92
367.51	201.29
367.70	128.73
367.90	187.24
368.10	212.99
368.30	210.65
368.49	205.97
368.69	224.69
368.89	212.99
369.09	189.58
369.28	156.82
369.48	208.31
369.68	175.54
369.87	252.78
370.07	196.60
370.27	273.84
370.47	308.95
370.66	482.15
370.86	498.53
371.06	557.05
371.25	535.98
371.45	475.13
371.65	608.54
371.84	573.43
372.04	484.49
372.24	505.56
372.44	674.07
372.63	631.94
372.83	599.18
373.03	568.75
373.22	601.52
373.42	617.90
373.62	528.96
373.81	559.39
374.01	662.37
374.21	629.60
374.40	582.79
374.60	645.99
374.79	671.73
374.99	664.71
375.19	629.60
375.38	648.33
375.58	660.03
375.78	566.41
375.97	620.24
376.17	685.78
376.37	636.63
376.56	596.84
376.76	657.69
376.95	709.18
377.15	683.44
377.35	692.80
377.54	706.84
377.74	585.13
377.93	645.99
378.13	648.33
378.33	730.25
378.52	655.35
378.72	669.39
378.91	734.93
379.11	671.73
379.31	716.20
379.50	671.73
379.70	791.10
379.89	723.23
380.09	709.18
380.28	753.65
380.48	713.86
380.68	697.48
380.87	706.84
381.07	763.01
381.26	779.40
381.46	763.01
381.65	723.23
381.85	718.54
382.04	791.10
382.24	828.55
382.43	734.93
382.63	746.63
382.83	840.25
383.02	751.31
383.22	781.74
383.41	725.57
383.61	706.84
383.80	819.19
384.00	840.25
384.19	833.23
384.39	779.40
384.58	788.76
384.78	793.44
384.97	840.25
385.17	791.10
385.36	777.06
385.56	732.59
385.75	821.53
385.95	816.85
386.14	849.61
386.34	882.38
386.53	828.55
386.72	821.53
386.92	924.51
387.11	861.32
387.31	877.70
387.50	877.70
387.70	877.70
387.89	849.61
388.09	854.30
388.28	938.55
388.48	901.11
388.67	938.55
388.86	931.53
389.06	926.85
389.25	922.17
389.45	999.41
389.64	983.02
389.84	964.30
390.03	940.90
390.22	1015.79
390.42	978.34
390.61	943.24
390.81	997.07
391.00	919.83
391.19	992.39
391.39	987.71
391.58	1006.43
391.78	952.60
391.97	1025.15
392.16	1057.92
392.36	1088.35
392.55	966.64
392.75	976.00
392.94	992.39
393.13	1067.28
393.33	992.39
393.52	1039.20
393.71	1039.20
393.91	1057.92
394.10	1076.65
394.29	1083.67
394.49	1032.18
394.68	1020.47
394.88	1097.71
395.07	1149.20
395.26	1158.57
395.46	1083.67
395.65	1170.27
395.84	1125.80
396.04	1240.48
396.23	992.39
396.42	1142.18
396.62	1210.06
396.81	1233.46
397.00	1163.25
397.19	1146.86
397.39	1219.42
397.58	1231.12
397.77	1184.31
397.97	1158.57
398.16	1273.25
398.35	1242.82
398.55	1245.16
398.74	1247.51
398.93	1320.06
399.12	1343.47
399.32	1252.19
399.51	1280.27
399.70	1324.74
399.90	1387.94
400.09	1373.89
400.28	1317.72
400.47	1355.17
400.67	1362.19
400.86	1369.21
401.05	1308.36
401.24	1380.92
401.44	1301.34
401.63	1387.94
401.82	1327.08
402.01	1481.56
402.21	1383.26
402.40	1425.39
402.59	1451.13
402.78	1439.43
402.97	1486.24
403.17	1458.15
403.36	1507.30
403.55	1474.54
403.74	1519.01
403.93	1493.26
404.13	1596.25
404.32	1521.35
404.51	1561.14
404.70	1619.65
404.89	1610.29
405.09	1626.67
405.28	1636.03
405.47	1614.97
405.66	1664.12
405.85	1675.82
406.05	1699.23
406.24	1729.66
406.43	1750.72
406.62	1774.13
406.81	1778.81
407.00	1579.86
407.20	1724.97
407.39	1851.36
407.58	1834.98
407.77	1856.04
407.96	1762.42
408.15	1746.04
408.34	1916.90
408.54	1863.07
408.73	1820.94
408.92	1804.55
409.11	1900.52
409.30	1867.75
409.49	1980.09
409.68	1884.13
409.87	1930.94
410.07	1982.43
410.26	1942.64
410.45	1956.69
410.64	1949.67
410.83	2104.14
411.02	1996.48
411.21	2115.84
411.40	2001.16
411.59	2078.40
411.78	2120.53
411.98	2033.93
412.17	2122.87
412.36	2190.74
412.55	2253.94
412.74	2293.72
412.93	2218.83
413.12	2186.06
413.31	2319.47
413.50	2354.58
413.69	2326.49
413.88	2448.20
414.07	2382.67
414.26	2429.48
414.45	2473.95
414.64	2422.45
414.83	2366.28
415.02	2607.36
415.22	2546.50
415.41	2485.65
415.60	2583.95
415.79	2607.36
415.98	2600.34
416.17	2586.29
416.36	2658.85
416.55	2630.76
416.74	2724.38
416.93	2764.17
417.12	2621.40
417.31	2736.09
417.50	2785.24
417.69	2960.78
417.88	2855.45
418.07	2867.16
418.26	2911.63
418.45	2932.69
418.64	2946.73
418.83	2930.35
419.02	2848.43
419.21	2923.33
419.39	2984.18
419.58	2956.10
419.77	3091.85
419.96	3091.85
420.15	3075.46
420.34	3000.57
420.53	3122.27
420.72	3173.77
420.91	3169.09
421.10	3049.72
421.29	3148.02
421.48	3115.25
421.67	3080.14
421.86	3332.92
422.05	3185.47
422.24	3328.24
422.43	3229.94
422.61	3255.69
422.80	3363.35
422.99	3171.43
423.18	3243.98
423.37	3276.75
423.56	3166.74
423.75	3281.43
423.94	3288.45
424.13	2998.23
424.32	3080.14
424.50	3281.43
424.69	3321.22
424.88	3396.12
425.07	3384.41
425.26	3225.26
425.45	3421.86
425.64	3225.26
425.83	3251.00
426.01	3346.97
426.20	3428.88
426.39	3393.78
426.58	3398.46
426.77	3300.16
426.96	3445.27
427.15	3428.88
427.33	3496.76
427.52	3421.86
427.71	3456.97
427.90	3550.59
428.09	3524.85
428.28	3492.08
428.46	3613.79
428.65	3576.34
428.84	3651.24
429.03	3583.36
429.22	3655.92
429.40	3648.90
429.59	3646.55
429.78	3566.98
429.97	3496.76
430.16	3721.45
430.34	3709.75
430.53	3775.28
430.72	3730.81
430.91	3772.94
431.10	3733.15
431.28	3765.92
431.47	3838.48
431.66	3887.63
431.85	3808.05
432.03	3948.48
432.22	3929.76
432.41	3969.55
432.60	3943.80
432.79	4023.38
432.97	3960.19
433.16	3953.16
433.35	3901.67
433.54	4044.45
433.72	4056.15
433.91	4074.87
434.10	4070.19
434.28	3995.29
434.47	4119.34
434.66	4283.18
434.85	4107.64
435.03	4051.47
435.22	4194.24
435.41	4299.56
435.59	4238.71
435.78	4117.00
435.97	4283.18
436.16	4189.56
436.34	4224.67
436.53	4250.41
436.72	4147.43
436.90	4217.65
437.09	4386.16
437.28	4341.69
437.46	4362.76
437.65	4346.37
437.84	4362.76
438.02	4440.00
438.21	4339.35
438.40	4355.74
438.58	4440.00
438.77	4547.66
438.96	4557.02
439.14	4713.84
439.33	4809.80
439.52	4711.50
439.70	4699.80
439.89	4760.65
440.08	4692.77
440.26	4788.74
440.45	4947.89
440.63	4950.23
440.82	5090.67
441.01	4798.10
441.19	4971.30
441.38	5095.35
441.57	5036.83
441.75	5132.79
441.94	5163.22
442.12	5163.22
442.31	5317.70
442.50	5252.16
442.68	5203.01
442.87	5259.18
443.05	5373.87
443.24	5380.89
443.43	5327.06
443.61	5427.70
443.80	5432.38
443.98	5331.74
444.17	5240.46
444.35	5263.86
444.54	5507.28
444.73	5380.89
444.91	5544.73
445.10	5511.96
445.28	5481.53
445.47	5336.42
445.65	5434.72
445.84	5528.35
446.02	5526.00
446.21	5425.36
446.39	5577.50
446.58	5584.52
446.77	5675.80
446.95	5378.55
447.14	5341.10
447.32	5659.42
447.51	5434.72
447.69	5479.19
447.88	5617.29
448.06	5666.44
448.25	5654.73
448.43	5577.50
448.62	5589.20
448.80	5638.35
448.99	5671.12
449.17	5767.08
449.36	5579.84
449.54	5849.00
449.73	5774.10
449.91	5844.32
450.10	5753.04
450.28	5912.19
450.46	6012.84
450.65	5886.45
450.83	5916.87
451.02	5907.51
451.20	6054.97
451.39	6033.90
451.57	5804.53
451.76	5851.34
451.94	6045.60
452.13	5989.43
452.31	6036.24
452.49	6036.24
452.68	5996.45
452.86	6012.84
453.05	6225.82
453.23	6090.07
453.42	6122.84
453.60	6057.31
453.78	6176.67
453.97	5956.66
454.15	6146.25
454.34	6282.00
454.52	6253.91
454.70	6146.25
454.89	6310.08
455.07	6406.05
455.26	6420.09
455.44	6445.84
455.62	6480.94
455.81	6384.98
455.99	6506.69
456.17	6619.04
456.36	6567.54
456.54	6560.52
456.73	6754.79
456.91	6693.93
457.09	6752.45
457.28	6766.49
457.46	6682.23
457.64	6764.15
457.83	6937.35
458.01	6633.08
458.19	7040.33
458.38	6736.06
458.56	6825.00
458.74	7126.93
458.93	6909.26
459.11	6853.09
459.29	6792.23
459.48	7063.74
459.66	7115.23
459.84	7084.80
460.03	6960.75
460.21	7136.29
460.39	7246.30
460.57	7138.63
460.76	7075.44
460.94	7201.83
461.12	7269.70
461.31	7056.72
461.49	7101.19
461.67	7288.43
461.85	7368.01
462.04	7157.36
462.22	7702.70
462.40	7393.75
462.59	7454.61
462.77	7222.89
462.95	7655.89
463.13	7318.86
463.32	7545.89
463.50	7447.58
463.68	7634.83
463.86	7531.84
464.05	7585.68
464.23	7585.68
464.41	7707.38
464.59	7712.07
464.78	7712.07
464.96	7777.60
465.14	7569.29
465.32	7744.83
465.50	7742.49
465.69	7639.51
465.87	7826.75
466.05	7885.26
466.23	7719.09
466.41	7868.88
466.60	8077.19
466.78	7843.14
466.96	7815.05
467.14	7861.86
467.32	8046.76
467.51	8273.79
467.69	7761.22
467.87	7927.39
468.05	8074.85
468.23	7943.78
468.41	7981.23
468.60	8063.15
468.78	8049.10
468.96	8198.90
469.14	8025.70
469.32	8379.12
469.50	8180.17
469.69	8299.54
469.87	8435.29
470.05	8439.97
470.23	8451.67
470.41	8582.74
470.59	8456.36
470.77	8561.68
470.95	8664.66
471.14	8844.88
471.32	8407.20
471.50	8648.28
471.68	8844.88
471.86	9004.04
472.04	8781.69
472.22	8919.78
472.40	8798.07
472.58	8746.58
472.77	8858.93
472.95	8922.12
473.13	9350.44
473.31	9074.26
473.49	9048.51
473.67	9137.45
473.85	9270.86
474.03	9345.76
474.21	9383.21
474.39	9479.17
474.57	9345.76
474.75	9659.39
474.93	9476.83
475.12	9657.05
475.30	9813.87
475.48	9610.24
475.66	9586.83
475.84	9678.12
476.02	9900.47
476.20	9865.36
476.38	10076.01
476.56	10277.29
476.74	10120.48
476.92	9944.94
477.10	9886.42
477.28	10321.76
477.46	10380.28
477.64	10214.10
477.82	10394.32
478.00	10679.86
478.18	10546.45
478.36	10665.82
478.54	10839.02
478.72	10883.49
478.90	10930.30
479.08	11112.86
479.26	11166.70
479.44	11087.12
479.62	11386.71
479.80	11386.71
479.98	11585.65
480.16	11705.02
480.34	11475.65
480.52	11623.10
480.70	12058.44
480.88	11695.66
481.06	12037.38
481.24	12121.63
481.41	12112.27
481.59	12133.34
481.77	12229.30
481.95	12564.00
482.13	12599.10
482.31	12695.07
482.49	12718.47
482.67	12915.08
482.85	13221.69
483.03	12933.80
483.21	12999.34
483.39	13153.81
483.57	13322.33
483.74	13397.23
483.92	13605.53
484.10	13406.59
484.28	13886.40
484.46	14073.64
484.64	14164.92
484.82	13895.76
485.00	14017.47
485.18	14497.28
485.35	14078.32
485.53	14420.04
485.71	14431.74
485.89	14691.54
486.07	14757.08
486.25	14703.25
486.43	14949.00
486.61	14857.72
486.78	15117.52
486.96	15147.95
487.14	15365.62
487.32	15672.23
487.50	15510.73
487.68	15768.19
487.85	15999.90
488.03	15894.58
488.21	16107.57
488.39	16386.09
488.57	16634.19
488.75	16620.14
488.92	16655.25
489.10	16573.33
489.28	16748.87
489.46	16996.97
489.64	16945.48
489.81	17441.67
489.99	17364.43
490.17	17652.32
490.35	17752.96
490.53	17652.32
490.70	17858.29
490.88	17668.70
491.06	18064.25
491.24	18052.55
491.41	18211.71
491.59	17954.25
491.77	18441.08
491.95	18689.18
492.13	19042.60
492.30	18705.56
492.48	18991.11
492.66	18876.42
492.84	18810.89
493.01	19283.67
493.19	18911.53
493.37	19356.23
493.54	19501.34
493.72	19922.64
493.90	19421.77
494.08	19644.12
494.25	20079.46
494.43	20381.38
494.61	20269.04
494.79	20580.33
494.96	20339.26
495.14	20306.49
495.32	21156.10
495.49	20556.93
495.67	20854.17
495.85	21151.42
496.02	21139.72
496.20	21390.16
496.38	21429.94
496.55	21380.79
496.73	21802.09
496.91	21781.03
497.09	21923.80
497.26	22162.53
497.44	22101.68
497.62	22260.84
497.79	22651.70
497.97	22281.90
498.14	22380.20
498.32	22728.94
498.50	22860.01
498.67	22822.56
498.85	22986.40
499.03	23208.75
499.20	23257.90
499.38	23391.31
499.56	23103.43
499.73	23508.34
499.91	23435.78
500.08	23592.60
500.26	23449.83
500.44	23653.45
500.61	23873.46
500.79	23623.03
500.97	23995.17
501.14	24201.14
501.32	24170.71
501.49	24334.55
501.67	23887.51
501.84	24285.40
502.02	24376.68
502.20	24599.03
502.37	24563.92
502.55	24489.03
502.72	24753.51
502.90	24683.29
503.07	24753.51
503.25	24865.85
503.43	24931.39
503.60	25282.47
503.78	25266.08
503.95	25628.87
504.13	25649.93
504.30	25748.23
504.48	25748.23
504.65	25694.40
504.83	25818.45
505.01	25891.01
505.18	26111.02
505.36	26403.58
505.53	25862.92
505.71	26169.53
505.88	26583.80
506.06	25961.22
506.23	26707.85
506.41	26199.96
506.58	26518.27
506.76	26780.41
506.93	26867.01
507.11	26611.89
507.28	27089.36
507.46	27314.05
507.63	27185.32
507.81	27522.36
507.98	27477.89
508.16	27442.78
508.33	27599.60
508.50	27449.80
508.68	27587.89
508.85	27988.13
509.03	27852.38
509.20	27503.64
509.38	28135.58
509.55	27981.10
509.73	27601.94
509.90	28336.87
510.08	28128.56
510.25	28357.93
510.42	28840.08
510.60	28222.18
510.77	28311.12
510.95	28690.29
511.12	28893.91
511.30	28751.14
511.47	29006.26
511.64	28828.38
511.82	29172.44
511.99	29020.30
512.17	29310.53
512.34	29111.58
512.51	29582.03
512.69	29727.14
512.86	29766.93
513.04	29612.46
513.21	29890.98
513.38	29792.68
513.56	30190.57
513.73	29677.99
513.90	30183.55
514.08	29642.88
514.25	30118.01
514.43	30120.35
514.60	30426.96
514.77	30272.49
514.95	30164.82
515.12	30398.88
515.29	30614.21
515.47	30417.60
515.64	30827.20
515.81	30462.07
515.99	31019.12
516.16	30621.23
516.33	30948.90
516.51	31243.81
516.68	30930.18
516.85	31201.68
517.03	30953.58
517.20	31363.18
517.37	31784.48
517.54	31323.39
517.72	31262.54
517.89	31653.40
518.06	31597.23
518.24	31957.67
518.41	31632.34
518.58	31805.54
518.75	31498.93
518.93	32105.13
519.10	32163.64
519.27	32046.62
519.45	32339.18
519.62	32135.56
519.79	32198.75
519.96	32177.68
520.14	32416.42
520.31	32088.74
520.48	32591.96
520.65	32491.32
520.83	33001.55
521.00	32734.73
521.17	32964.10
521.34	32952.40
521.52	32886.87
521.69	32800.27
521.86	33310.50
522.03	33259.01
522.20	33207.52
522.38	33783.29
522.55	33497.75
522.72	33567.96
522.89	33841.81
523.07	33544.56
523.24	33713.08
523.41	33734.14
523.58	33947.13
523.75	34125.01
523.92	33626.48
524.10	34176.50
524.27	34204.59
524.44	34314.59
524.61	34274.80
524.78	34366.09
524.96	34693.76
525.13	34696.10
525.30	35000.37
525.47	34490.13
525.64	34782.70
525.81	34911.43
525.98	34597.80
526.16	34590.78
526.33	34604.82
526.50	35431.03
526.67	34820.15
526.84	35180.59
527.01	34998.03
527.18	34881.00
527.36	35208.68
527.53	35227.40
527.70	35625.29
527.87	35522.31
528.04	35377.20
528.21	35007.39
528.38	35318.68
528.55	35725.94
528.72	35599.55
528.89	35597.21
529.07	35800.83
529.24	35608.91
529.41	35969.35
529.58	36025.53
529.75	35812.54
529.92	36374.27
530.09	36222.13
530.26	36341.50
530.43	36325.11
530.60	36226.81
530.77	36009.14
530.94	36493.63
531.11	36006.80
531.28	36030.21
531.46	36287.67
531.63	36704.28
531.80	36629.38
531.97	36769.82
532.14	36828.33
532.31	37127.92
532.48	36959.40
532.65	36650.45
532.82	37097.49
532.99	36521.72
533.16	36905.57
533.33	37053.02
533.50	37053.02
533.67	36793.22
533.84	37031.96
534.01	37219.20
534.18	37586.66
534.35	37539.85
534.52	37633.47
534.69	37624.11
534.86	38031.36
535.03	37099.83
535.20	37539.85
535.37	37427.51
535.54	37846.46
535.71	38370.74
535.88	38050.09
536.05	37626.45
536.22	37820.72
536.38	38384.79
536.55	37940.08
536.72	38022.00
536.89	37895.61
537.06	38094.56
537.23	38527.56
537.40	38157.75
537.57	38171.80
537.74	38576.71
537.91	38574.37
538.08	38581.39
538.25	38436.28
538.42	38335.63
538.59	38932.47
538.75	38483.09
538.92	38916.09
539.09	38726.50
539.26	39037.80
539.43	39040.14
539.60	39122.05
539.77	39077.58
539.94	38796.72
540.11	39203.97
540.28	39241.42
540.44	38726.50
540.61	39089.29
540.78	38852.89
540.95	39377.17
541.12	39009.71
541.29	39206.31
541.46	39335.04
541.62	39480.16
541.79	39533.99
541.96	38869.28
542.13	39482.50
542.30	39323.34
542.47	39601.86
542.63	39543.35
542.80	39700.17
542.97	40353.18
543.14	40418.71
543.31	40212.74
543.48	39988.05
543.64	40320.41
543.81	40271.26
543.98	40072.31
544.15	40453.82
544.32	40631.70
544.48	41036.61
544.65	40275.94
544.82	40357.86
544.99	40374.24
545.16	40781.49
545.32	40552.12
545.49	41324.50
545.66	40655.11
545.83	40662.13
546.00	40704.26
546.16	41029.59
546.33	40896.18
546.50	40521.69
546.67	41275.35
546.83	40594.25
547.00	40931.29
547.17	40964.06
547.34	40971.08
547.50	41446.21
547.67	41343.22
547.84	41261.30
548.00	41069.38
548.17	41553.87
548.34	41439.18
548.51	41483.66
548.67	41514.08
548.84	41453.23
549.01	41720.05
549.18	41553.87
549.34	41652.17
549.51	41888.57
549.68	41603.02
549.84	41205.13
550.01	42281.78
550.18	41717.71
550.34	42059.43
550.51	42061.77
550.68	41834.74
550.84	41600.68
551.01	42019.64
551.18	41921.34
551.34	41801.97
551.51	42019.64
551.68	41904.95
551.84	41858.14
552.01	42246.67
552.18	41858.14
552.34	41713.03
552.51	42115.60
552.68	42185.82
552.84	42548.60
553.01	42646.90
553.18	42010.28
553.34	42412.85
553.51	42234.97
553.67	42508.81
553.84	43084.58
554.01	42298.16
554.17	42583.71
554.34	42546.26
554.51	42836.48
554.67	42845.85
554.84	43175.86
555.00	42714.78
555.17	42780.31
555.33	42855.21
555.50	42480.72
555.67	42462.00
555.83	42583.71
556.00	43058.84
556.16	43063.52
556.33	43531.62
556.50	42689.03
556.66	43227.35
556.83	43363.11
556.99	43438.00
557.16	43426.30
557.32	43400.55
557.49	43414.60
557.65	43290.55
557.82	43100.97
557.98	43365.45
558.15	43271.82
558.32	43325.66
558.48	43199.27
558.65	43445.02
558.81	43943.56
558.98	43611.20
559.14	43449.70
559.31	43650.99
559.47	43658.01
559.64	43679.08
559.80	43716.53
559.97	43915.47
560.13	43353.74
560.30	43955.26
560.46	43686.10
560.63	43763.34
560.79	44037.18
560.96	44083.99
561.12	43882.70
561.29	43878.02
561.45	43936.54
561.61	43927.17
561.78	43798.44
561.94	44018.46
562.11	43803.13
562.27	44135.48
562.44	44004.41
562.60	44100.37
562.77	44093.35
562.93	43835.89
563.10	44645.72
563.26	44067.61
563.42	44381.24
563.59	43796.10
563.75	43849.94
563.92	44346.13
564.08	44304.00
564.24	44285.28
564.41	43976.33
564.57	44215.06
564.74	44233.78
564.90	44177.61
565.07	44425.71
565.23	44362.51
565.39	44516.99
565.56	44371.88
565.72	44296.98
565.88	44238.47
566.05	44212.72
566.21	44418.69
566.38	44339.11
566.54	44271.23
566.70	44549.76
566.87	44205.70
567.03	44641.04
567.19	44566.14
567.36	44172.93
567.52	44327.41
567.68	44828.28
567.85	44839.98
568.01	44545.08
568.17	44348.47
568.34	45020.20
568.50	44837.64
568.66	44292.30
568.83	44701.89
568.99	44449.11
569.15	44734.66
569.32	44388.26
569.48	44624.65
569.64	44912.54
569.81	44622.31
569.97	44650.40
570.13	44947.65
570.30	44554.44
570.46	45088.08
570.62	44849.35
570.78	44795.51
570.95	44964.03
571.11	44854.03
571.27	44809.56
571.43	44526.35
571.60	44746.36
571.76	44634.02
571.92	44910.20
572.09	44769.77
572.25	44994.46
572.41	45052.97
572.57	44886.79
572.74	45354.90
572.90	45191.06
573.06	45242.56
573.22	44966.37
573.38	45130.21
573.55	45013.18
573.71	45228.51
573.87	45422.78
574.03	44690.19
574.20	45481.29
574.36	45104.46
574.52	45390.01
574.68	45191.06
574.84	45413.41
575.01	45216.81
575.17	45284.68
575.33	45162.98
575.49	45050.63
575.65	45029.57
575.82	45408.73
575.98	45099.78
576.14	45474.27
576.30	45598.32
576.46	45549.17
576.62	44814.24
576.79	44975.73
576.95	44994.46
577.11	45111.49
577.27	45282.34
577.43	45420.44
577.59	45514.06
577.75	45207.45
577.92	45385.33
578.08	45289.37
578.24	45158.30
578.40	45605.34
578.56	45457.88
578.72	45450.86
578.88	45514.06
579.04	45090.42
579.21	45144.25
579.37	45413.41
579.53	44989.78
579.69	45317.45
579.85	45188.72
580.01	45160.64
580.17	44870.41
580.33	45766.84
580.49	45357.24
580.65	45570.23
580.82	45425.12
580.98	45291.71
581.14	45116.17
581.30	44996.80
581.46	45408.73
581.62	45165.32
581.78	45453.20
581.94	45492.99
582.10	45076.38
582.26	45647.47
582.42	45415.76
582.58	45715.34
582.74	45387.67
582.90	45214.47
583.06	45698.96
583.22	45177.02
583.38	45666.19
583.54	45778.54
583.70	45500.01
583.86	45584.27
584.02	45397.03
584.18	45862.80
584.34	45715.34
584.50	45776.20
584.66	45689.60
584.82	45787.90
584.98	46040.68
585.14	45677.90
585.30	45230.85
585.46	45457.88
585.62	45666.19
585.78	45490.65
585.94	45045.95
586.10	45572.57
586.26	45525.76
586.42	45371.28
586.58	45801.94
586.74	45261.28
586.90	45284.68
587.06	45457.88
587.22	45659.17
587.38	45738.75
587.54	46096.85
587.70	45844.07
587.86	45628.74
588.02	45507.04
588.18	45427.46
588.34	45757.47
588.49	45371.28
588.65	46141.32
588.81	46092.17
588.97	45872.16
589.13	45537.46
589.29	45397.03
589.45	45975.14
589.61	45588.95
589.77	45865.14
589.93	45378.31
590.08	46061.74
590.24	46019.61
590.40	46363.67
590.56	46457.29
590.72	45748.11
590.88	46164.73
591.04	45841.73
591.20	46335.59
591.35	46031.32
591.51	46660.92
591.67	46131.96
591.83	46171.75
591.99	45752.79
592.15	45991.53
592.31	46527.51
592.46	45649.81
592.62	45991.53
592.78	46164.73
592.94	46398.78
593.10	46160.05
593.26	46270.05
593.41	46480.70
593.57	46473.68
593.73	46263.03
593.89	46504.10
594.05	46520.49
594.20	46534.53
594.36	46707.73
594.52	46637.51
594.68	45813.65
594.84	46202.18
594.99	46417.50
595.15	46103.87
595.31	46586.02
595.47	46307.50
595.62	46061.74
595.78	46033.66
595.94	46391.76
596.10	46047.70
596.25	46279.41
596.41	46745.18
596.57	45963.44
596.73	46794.33
596.88	46408.14
597.04	46476.02
597.20	46663.26
597.36	46457.29
597.51	46351.97
597.67	46244.30
597.83	46504.10
597.99	46597.73
598.14	46117.92
598.30	46611.77
598.46	46401.12
598.61	46583.68
598.77	46525.17
598.93	46375.37
599.09	46361.33
599.24	46817.74
599.40	46705.39
599.56	46361.33
599.71	46944.12
599.87	46885.61
600.03	46892.63
600.18	46377.72
600.34	46466.66
600.50	46375.37
600.65	46454.95
600.81	46550.91
600.97	46469.00
601.12	46419.84
601.28	46518.15
601.44	46501.76
601.59	46621.13
601.75	46340.27
601.91	46571.98
602.06	46689.01
602.22	46581.34
602.37	46237.28
602.53	46728.80
602.69	46487.72
602.84	46450.27
603.00	46150.68
603.16	46623.47
603.31	46040.68
603.47	46829.44
603.62	46518.15
603.78	46586.02
603.94	46314.52
604.09	46836.46
604.25	46286.43
604.40	46410.48
604.56	46368.35
604.71	46930.08
604.87	46206.86
605.03	46237.28
605.18	46342.61
605.34	46284.09
605.49	46487.72
605.65	46625.81
605.80	46557.94
605.96	46108.55
606.12	47070.51
606.27	46363.67
606.43	46014.93
606.58	46710.07
606.74	46234.94
606.89	46038.34
607.05	46714.75
607.20	46642.20
607.36	46618.79
607.51	46490.06
607.67	46241.96
607.82	46272.39
607.98	46403.46
608.13	46520.49
608.29	46300.48
608.44	46674.96
608.60	46103.87
608.75	46377.72
608.91	46169.41
609.06	46174.09
609.22	46330.90
609.37	45914.29
609.53	46557.94
609.68	46256.01
609.84	46291.12
609.99	46136.64
610.15	46216.22
610.30	46305.16
610.46	46054.72
610.61	46181.11
610.76	46164.73
610.92	45830.03
611.07	45787.90
611.23	45902.59
611.38	46078.13
611.54	46443.25
611.69	45998.55
611.84	46253.67
612.00	45762.15
612.15	46059.40
612.31	46174.09
612.46	45724.71
612.62	45703.64
612.77	45794.92
612.92	45869.82
613.08	45972.80
613.23	45815.99
613.39	46117.92
613.54	46005.57
613.69	46085.15
613.85	46068.76
614.00	46043.02
614.15	45720.02
614.31	45640.45
614.46	45485.97
614.62	45539.80
614.77	45280.00
614.92	46153.02
615.08	45399.37
615.23	46099.19
615.38	46017.27
615.54	45794.92
615.69	45904.93
615.84	45474.27
616.00	45563.21
616.15	45673.21
616.30	46127.28
616.46	45546.82
616.61	45598.32
616.76	45345.54
616.92	45392.35
617.07	45457.88
617.22	45446.18
617.37	45432.14
617.53	45525.76
617.68	45539.80
617.83	45162.98
617.99	45530.44
618.14	45801.94
618.29	45310.43
618.45	45006.16
618.60	45069.36
618.75	44870.41
618.90	45263.62
619.06	45160.64
619.21	45139.57
619.36	45338.52
619.51	44952.33
619.67	44849.35
619.82	45329.16
619.97	45495.33
620.12	44933.60
620.28	45172.34
620.43	45275.32
620.58	45123.19
620.73	45467.25
620.89	45097.44
621.04	45436.82
621.19	45022.54
621.34	44563.80
621.49	44957.01
621.65	45132.55
621.80	45319.79
621.95	44832.96
622.10	44999.14
622.25	44491.24
622.41	45191.06
622.56	44856.37
622.71	44830.62
622.86	44568.48
623.01	44687.85
623.16	44666.78
623.32	44842.32
623.47	45226.17
623.62	44369.54
623.77	45308.09
623.92	44680.83
624.07	44718.28
624.23	44954.67
624.38	44762.75
624.53	44638.70
624.68	44631.68
624.83	44240.81
624.98	44704.23
625.13	44119.10
625.29	44194.00
625.44	44622.31
625.59	44315.70
625.74	44257.19
625.89	43917.81
626.04	44430.39
626.19	44301.66
626.34	44004.41
626.49	44004.41
626.65	43782.06
626.80	44055.90
626.95	43470.77
627.10	43992.71
627.25	44168.25
627.40	44245.49
627.55	44208.04
627.70	44189.31
627.85	44259.53
628.00	44287.62
628.15	44144.84
628.30	43868.66
628.45	43828.87
628.60	43522.26
628.76	43491.83
628.91	43557.37
629.06	43585.46
629.21	43632.27
629.36	43510.56
629.51	43585.46
629.66	44002.07
629.81	43505.88
629.96	43952.92
630.11	43662.69
630.26	43550.35
630.41	43180.54
630.56	43646.31
630.71	43643.97
630.86	43430.98
631.01	43136.07
631.16	43283.53
631.31	43047.13
631.46	43243.74
631.61	43636.95
631.76	43838.23
631.91	43629.93
632.06	44233.78
632.21	43992.71
632.36	43833.55
632.51	42916.06
632.66	43395.87
632.81	43409.92
632.96	43405.23
633.10	42906.70
633.25	42859.89
633.40	43604.18
633.55	43587.80
633.70	43030.75
633.85	42843.51
634.00	43281.19
634.15	43171.18
634.30	42962.87
634.45	43033.09
634.60	43023.73
634.75	43299.91
634.90	42717.12
635.05	43030.75
635.19	42997.98
635.34	42693.71
635.49	43096.28
635.64	42983.94
635.79	42948.83
635.94	42869.25
636.09	42948.83
636.24	42855.21
636.39	42934.79
636.53	42752.23
636.68	42321.57
636.83	41834.74
636.98	42740.52
637.13	42050.06
637.28	42368.38
637.43	42333.27
637.57	42983.94
637.72	42295.82
637.87	42572.00
638.02	42073.47
638.17	42454.98
638.32	42204.54
638.46	42120.28
638.61	42106.24
638.76	41944.74
638.91	42117.94
639.06	41820.69
639.20	42078.15
639.35	42267.73
639.50	42150.71
639.65	42515.83
639.80	42113.26
639.94	42293.48
640.09	41930.70
640.24	42106.24
640.39	41607.70
640.54	41867.50
640.68	42155.39
640.83	42082.83
640.98	41654.51
641.13	41380.67
641.27	42263.05
641.42	41579.62
641.57	42068.79
641.72	42052.41
641.86	41486.00
642.01	41755.16
642.16	41588.98
642.31	41181.73
642.45	41497.70
642.60	41392.37
642.75	41184.07
642.90	41535.15
643.04	41841.76
643.19	41322.16
643.34	41219.17
643.48	41216.83
643.63	41076.40
643.78	41453.23
643.93	41354.93
644.07	41364.29
644.22	41230.88
644.37	41439.18
644.51	41483.66
644.66	41329.18
644.81	41230.88
644.95	41207.47
645.10	41378.33
645.25	40875.12
645.39	41036.61
645.54	41322.16
645.69	40421.05
645.83	40463.18
645.98	40919.59
646.13	41390.03
646.27	40802.56
646.42	40673.83
646.57	40870.43
646.71	41050.66
646.86	41038.95
647.00	41214.49
647.15	40968.74
647.30	40898.52
647.44	41191.09
647.59	40921.93
647.74	40444.46
647.88	41336.20
648.03	41118.53
648.17	41179.39
648.32	40989.80
648.47	40664.47
648.61	40428.07
648.76	40645.74
648.90	40744.05
649.05	40278.28
649.20	40818.94
649.34	40507.65
649.49	40713.62
649.63	40760.43
649.78	40458.50
649.92	40582.55
650.07	40617.66
650.21	40582.55
650.36	40748.73
650.51	40343.81
650.65	40842.35
650.80	40481.91
650.94	40404.67
651.09	40367.22
651.23	40119.12
651.38	40023.16
651.52	40011.46
651.67	40058.27
651.81	40105.08
651.96	40095.72
652.10	39955.29
652.25	39573.78
652.39	39845.28
652.54	40308.71
652.68	39828.90
652.83	39728.25
652.97	40519.35
653.12	39971.67
653.26	40236.15
653.41	40065.29
653.55	39683.78
653.70	39957.63
653.84	39426.32
653.99	39934.22
654.13	40091.04
654.27	40156.57
654.42	39817.19
654.56	39674.42
654.71	39585.48
654.85	39491.86
655.00	40039.54
655.14	39323.34
655.29	39798.47
655.43	39751.66
655.57	39569.10
655.72	39253.12
655.86	39709.53
656.01	39051.84
656.15	39372.49
656.30	39496.54
656.44	39761.02
656.58	39838.26
656.73	39143.12
656.87	38969.92
657.01	39159.50
657.16	39386.54
657.30	39196.95
657.45	38967.58
657.59	38742.89
657.73	38895.02
657.88	39037.80
658.02	39363.13
658.16	39421.64
658.31	39346.75
658.45	39180.57
658.60	38953.54
658.74	38836.51
658.88	39075.24
659.03	38574.37
659.17	38508.83
659.31	38377.76
659.46	38183.50
659.60	39063.54
659.74	38260.74
659.89	37713.05
660.03	38298.19
660.17	38213.93
660.32	38447.98
660.46	38499.47
660.60	38377.76
660.74	38286.48
660.89	38483.09
661.03	37787.95
661.17	37916.68
661.32	38017.32
661.46	37846.46
661.60	37577.30
661.74	37612.41
661.89	38085.20
662.03	37713.05
662.17	37736.46
662.31	37923.70
662.46	37397.08
662.60	37347.93
662.74	37228.56
662.88	37287.07
663.03	36914.93
663.17	37027.28
663.31	36903.23
663.45	37198.13
663.60	37450.91
663.74	37258.99
663.88	37027.28
664.02	37317.50
664.17	37170.05
664.31	36896.20
664.45	36870.46
664.59	36664.49
664.73	36692.58
664.88	37092.81
665.02	36603.64
665.16	36697.26
665.30	36584.91
665.44	36825.99
665.59	36245.54
665.73	36510.02
665.87	36463.21
666.01	36203.41
666.15	36081.70
666.29	36165.96
666.44	36423.42
666.58	36243.20
666.72	36182.34
666.86	35920.20
667.00	36081.70
667.14	35871.05
667.28	35957.65
667.43	35931.90
667.57	35964.67
667.71	36163.62
667.85	35995.10
667.99	36168.30
668.13	35658.06
668.27	35299.96
668.41	35534.01
668.56	35023.78
668.70	35517.63
668.84	35173.57
668.98	35234.42
669.12	35349.11
669.26	34955.90
669.40	34923.13
669.54	35157.19
669.68	35077.61
669.82	34967.60
669.96	34668.02
670.10	34174.16
670.25	34675.04
670.39	34415.24
670.53	34976.97
670.67	34443.32
670.81	35215.70
670.95	34735.89
671.09	34778.02
671.23	34155.44
671.37	34122.67
671.51	33970.54
671.65	33954.15
671.79	33694.35
671.93	34223.31
672.07	34375.45
672.21	34132.03
672.35	33516.47
672.49	33748.18
672.63	33677.97
672.77	33532.86
672.91	33535.20
673.05	32655.15
673.19	33165.39
673.33	33202.84
673.47	33242.63
673.61	32886.87
673.75	32748.78
673.89	32746.44
674.03	32776.86
674.17	32856.44
674.31	32545.15
674.45	32299.39
674.59	32641.11
674.73	32500.68
674.87	32346.20
675.01	32060.66
675.15	31864.05
675.29	32004.49
675.43	31850.01
675.56	32016.19
675.70	32072.36
675.84	32011.51
675.98	30483.14
676.12	31800.86
676.26	31957.67
676.40	31625.32
676.54	31470.84
676.68	31063.59
676.82	30742.94
676.96	31452.12
677.10	31531.70
677.23	30897.41
677.37	31065.93
677.51	30904.43
677.65	30691.44
677.79	30618.89
677.93	30974.65
678.07	30731.23
678.21	30122.69
678.34	29799.70
678.48	29937.79
678.62	30022.05
678.76	29965.88
678.90	29617.14
679.04	29647.57
679.18	29846.51
679.31	29612.46
679.45	29788.00
679.59	29200.52
679.73	29450.96
679.87	29390.11
680.00	28774.55
680.14	28900.94
680.28	28725.39
680.42	29085.84
680.56	28570.92
680.70	28556.88
680.83	28491.34
680.97	28390.70
681.11	28573.26
681.25	28329.84
681.39	28243.24
681.52	28039.62
681.66	27744.71
681.80	27501.29
681.94	27665.13
682.07	27379.59
682.21	27292.99
682.35	27545.76
682.49	27307.03
682.62	27323.41
682.76	27520.02
682.90	27393.63
683.04	26817.86
683.17	26764.03
683.31	27129.15
683.45	26597.85
683.59	26443.37
683.72	26221.02
683.86	26316.98
684.00	26239.75
684.13	26719.56
684.27	26466.78
684.41	26307.62
684.55	26125.06
684.68	26031.44
684.82	25827.81
684.96	25909.73
685.09	26003.35
685.23	25546.95
685.37	25860.58
685.50	26244.43
685.64	25912.07
685.78	24961.81
685.91	24872.87
686.05	24961.81
686.19	24631.80
686.32	24716.06
686.46	24037.30
686.60	24336.89
686.73	24601.37
686.87	24379.02
687.01	24301.78
687.14	24372.00
687.28	24210.50
687.42	23964.75
687.55	23590.26
687.69	24077.09
687.82	23903.89
687.96	24044.32
688.10	23819.63
688.23	23707.29
688.37	23655.79
688.50	23896.87
688.64	23456.85
688.78	23611.32
688.91	23159.60
689.05	23515.36
689.18	22794.48
689.32	22728.94
689.46	22494.89
689.59	22607.23
689.73	22780.43
689.86	22869.37
690.00	22228.07
690.13	22607.23
690.27	22321.69
690.41	22260.84
690.54	21884.01
690.68	22059.55
690.81	21839.54
690.95	21710.81
691.08	22045.51
691.22	21425.26
691.35	21362.07
691.49	21755.28
691.62	21511.86
691.76	21228.66
691.89	21172.49
692.03	20900.98
692.16	20767.57
692.30	20957.16
692.43	20891.62
692.57	20615.44
692.70	20343.94
692.84	20573.31
692.97	20067.75
693.11	20189.46
693.24	19957.75
693.38	20210.53
693.51	19889.87
693.65	19939.02
693.78	19906.26
693.92	19962.43
694.05	19609.01
694.19	19211.12
694.32	19613.69
694.45	19899.23
694.59	19751.78
694.72	19428.79
694.86	19206.44
694.99	19314.10
695.13	18981.74
695.26	18906.85
695.39	18724.29
695.53	18728.97
695.66	18740.67
695.80	18621.30
695.93	18277.24
696.07	18066.60
696.20	18310.01
696.33	17898.08
696.47	18169.58
696.60	18094.68
696.73	18122.77
696.87	18265.54
697.00	18017.44
697.14	17954.25
697.27	17654.66
697.40	17486.14
697.54	17703.81
697.67	17841.90
697.80	17451.03
697.94	17453.37
698.07	17158.47
698.21	17326.99
698.34	17092.93
698.47	17036.76
698.61	16416.52
698.74	16950.16
698.87	16472.69
699.01	16678.66
699.14	16849.52
699.27	16379.07
699.40	16367.37
699.54	16161.40
699.67	16650.57
699.80	16290.13
699.94	15981.18
700.07	16184.80
700.20	16407.16
700.34	16070.12
700.47	15976.50
700.60	16248.00
700.73	15730.74
700.87	15604.35
701.00	15342.21
701.13	15178.37
701.26	15384.34
701.40	15400.72
701.53	15131.56
701.66	15283.70
701.79	15077.73
701.93	14864.74
702.06	14958.36
702.19	14815.59
702.32	15131.56
702.46	14986.45
702.59	14827.29
702.72	14801.55
702.85	14860.06
702.99	14621.33
703.12	14494.94
703.25	14307.69
703.38	14333.44
703.51	14260.88
703.65	14207.05
703.78	13926.19
703.91	13949.59
704.04	13813.84
704.17	13804.48
704.31	13542.34
704.44	13638.30
704.57	13591.49
704.70	13624.26
704.83	13488.51
704.96	13422.97
705.10	13303.60
705.23	13214.66
>>>>>End Processed Spectral Data<<<<<
