SpectraSuite Data File
++++++++++++++++++++++++++++++++++++
Date: Fri Oct 25 10:48:06 EDT 2013
User: price-jones
Dark Spectrum Present: No
Reference Spectrum Present: No
Number of Sampled Component Spectra: 1
Spectrometers: USB2+H05261
Integration Time (usec): 100000 (USB2+H05261)
Spectra Averaged: 1 (USB2+H05261)
Boxcar Smoothing: 0 (USB2+H05261)
Correct for Electrical Dark: No (USB2+H05261)
Strobe/Lamp Enabled: No (USB2+H05261)
Correct for Detector Non-linearity: No (USB2+H05261)
Correct for Stray Light: No (USB2+H05261)
Number of Pixels in Processed Spectrum: 2048
>>>>>Begin Processed Spectral Data<<<<<
365.73	159.16
365.92	159.16
366.12	159.16
366.32	81.92
366.52	46.81
366.72	25.75
366.91	86.60
367.11	32.77
367.31	14.04
367.51	39.79
367.70	35.11
367.90	77.24
368.10	35.11
368.30	42.13
368.49	42.13
368.69	30.43
368.89	74.90
369.09	53.83
369.28	128.73
369.48	86.60
369.68	138.09
369.87	138.09
370.07	102.98
370.27	187.24
370.47	220.01
370.66	365.12
370.86	351.08
371.06	421.30
371.25	461.09
371.45	423.64
371.65	437.68
371.84	425.98
372.04	477.47
372.24	528.96
372.44	475.13
372.63	528.96
372.83	351.08
373.03	418.96
373.22	526.62
373.42	526.62
373.62	505.56
373.81	528.96
374.01	587.47
374.21	566.41
374.40	582.79
374.60	629.60
374.79	425.98
374.99	496.19
375.19	500.87
375.38	606.20
375.58	578.11
375.78	547.69
375.97	540.66
376.17	669.39
376.37	547.69
376.56	512.58
376.76	578.11
376.95	629.60
377.15	561.73
377.35	578.11
377.54	571.09
377.74	528.96
377.93	709.18
378.13	580.45
378.33	650.67
378.52	587.47
378.72	685.78
378.91	559.39
379.11	557.05
379.31	662.37
379.50	636.63
379.70	681.10
379.89	561.73
380.09	613.22
380.28	585.13
380.48	610.88
380.68	627.26
380.87	671.73
381.07	674.07
381.26	678.76
381.46	718.54
381.65	702.16
381.85	671.73
382.04	615.56
382.24	690.46
382.43	671.73
382.63	716.20
382.83	622.58
383.02	737.27
383.22	732.59
383.41	627.26
383.61	732.59
383.80	763.01
384.00	709.18
384.19	685.78
384.39	795.78
384.58	699.82
384.78	847.27
384.97	777.06
385.17	772.38
385.36	706.84
385.56	716.20
385.75	800.46
385.95	753.65
386.14	770.04
386.34	819.19
386.53	884.72
386.72	704.50
386.92	816.85
387.11	849.61
387.31	758.33
387.50	760.67
387.70	753.65
387.89	814.51
388.09	748.97
388.28	861.32
388.48	828.55
388.67	933.87
388.86	938.55
389.06	880.04
389.25	901.11
389.45	901.11
389.64	858.98
389.84	875.36
390.03	1004.09
390.22	891.74
390.42	880.04
390.61	959.62
390.81	873.02
391.00	908.13
391.19	905.79
391.39	821.53
391.58	964.30
391.78	912.81
391.97	1027.50
392.16	952.60
392.36	987.71
392.55	1008.77
392.75	940.90
392.94	990.05
393.13	940.90
393.33	992.39
393.52	908.13
393.71	1039.20
393.91	896.43
394.10	964.30
394.29	1121.12
394.49	1036.86
394.68	1123.46
394.88	1050.90
395.07	1137.50
395.26	1123.46
395.46	1071.97
395.65	1078.99
395.84	1078.99
396.04	1095.37
396.23	1069.62
396.42	1116.44
396.62	1121.12
396.81	1135.16
397.00	1188.99
397.19	1170.27
397.39	1165.59
397.58	1151.54
397.77	1205.38
397.97	1329.42
398.16	1221.76
398.35	1273.25
398.55	1252.19
398.74	1224.10
398.93	1310.70
399.12	1336.45
399.32	1334.11
399.51	1306.02
399.70	1404.32
399.90	1303.68
400.09	1364.53
400.28	1378.58
400.47	1299.00
400.67	1390.28
400.86	1432.41
401.05	1359.85
401.24	1432.41
401.44	1514.33
401.63	1453.47
401.82	1528.37
402.01	1507.30
402.21	1423.05
402.40	1514.33
402.59	1540.07
402.78	1535.39
402.97	1497.94
403.17	1577.52
403.36	1495.60
403.55	1563.48
403.74	1605.61
403.93	1598.59
404.13	1614.97
404.32	1640.72
404.51	1568.16
404.70	1640.72
404.89	1661.78
405.09	1645.40
405.28	1584.54
405.47	1657.10
405.66	1584.54
405.85	1708.59
406.05	1696.89
406.24	1741.36
406.43	1795.19
406.62	1851.36
406.81	1879.45
407.00	1762.42
407.20	1706.25
407.39	1846.68
407.58	1905.20
407.77	1930.94
407.96	1884.13
408.15	1874.77
408.34	1947.33
408.54	1930.94
408.73	1930.94
408.92	1905.20
409.11	1975.41
409.30	1982.43
409.49	1916.90
409.68	1923.92
409.87	2071.37
410.07	2005.84
410.26	2015.20
410.45	2064.35
410.64	2031.58
410.83	2069.03
411.02	2139.25
411.21	2237.55
411.40	2172.02
411.59	2321.81
411.78	2214.15
411.98	2256.28
412.17	2260.96
412.36	2326.49
412.55	2270.32
412.74	2459.90
412.93	2368.62
413.12	2305.43
413.31	2534.80
413.50	2410.75
413.69	2487.99
413.88	2537.14
414.07	2619.06
414.26	2572.25
414.45	2602.68
414.64	2696.30
414.83	2595.65
415.02	2635.44
415.22	2607.36
415.41	2616.72
415.60	2766.51
415.79	2733.75
415.98	2766.51
416.17	2736.09
416.36	2874.18
416.55	2731.41
416.74	2839.07
416.93	2832.05
417.12	2883.54
417.31	2799.28
417.50	2956.10
417.69	3042.70
417.88	2977.16
418.07	2937.37
418.26	2876.52
418.45	3061.42
418.64	3124.62
418.83	3222.92
419.02	3059.08
419.21	3133.98
419.39	3204.19
419.58	3068.44
419.77	3066.10
419.96	3183.13
420.15	3255.69
420.34	3215.90
420.53	3155.04
420.72	3304.84
420.91	3274.41
421.10	3370.37
421.29	3412.50
421.48	3201.85
421.67	3307.18
421.86	3288.45
422.05	3405.48
422.24	3325.90
422.43	3440.59
422.61	3353.99
422.80	3562.30
422.99	3494.42
423.18	3482.72
423.37	3581.02
423.56	3328.24
423.75	3459.31
423.94	3508.46
424.13	3204.19
424.32	3276.75
424.50	3456.97
424.69	3543.57
424.88	3506.12
425.07	3569.32
425.26	3379.73
425.45	3548.25
425.64	3543.57
425.83	3541.23
426.01	3480.38
426.20	3581.02
426.39	3440.59
426.58	3480.38
426.77	3440.59
426.96	3595.06
427.15	3482.72
427.33	3644.21
427.52	3641.87
427.71	3597.40
427.90	3684.00
428.09	3768.26
428.28	3714.43
428.46	3585.70
428.65	3676.98
428.84	3826.78
429.03	3812.73
429.22	3765.92
429.40	3625.49
429.59	3728.47
429.78	3660.60
429.97	3538.89
430.16	3768.26
430.34	3754.22
430.53	3798.69
430.72	3815.07
430.91	3775.28
431.10	3913.38
431.28	4056.15
431.47	4063.17
431.66	4114.66
431.85	3904.01
432.03	3974.23
432.22	4259.78
432.41	4030.40
432.60	4081.89
432.79	4147.43
432.97	4154.45
433.16	4098.28
433.35	4063.17
433.54	4121.68
433.72	4119.34
433.91	4238.71
434.10	4191.90
434.28	4276.16
434.47	4269.14
434.66	4449.36
434.85	4337.01
435.03	4482.13
435.22	4259.78
435.41	4507.87
435.59	4442.34
435.78	4484.47
435.97	4510.21
436.16	4440.00
436.34	4442.34
436.53	4395.53
436.72	4711.50
436.90	4475.10
437.09	4547.66
437.28	4500.85
437.46	4540.64
437.65	4550.00
437.84	4660.01
438.02	4578.09
438.21	4613.20
438.40	4468.08
438.58	4706.82
438.77	4664.69
438.96	4833.21
439.14	4772.35
439.33	4938.53
439.52	4905.76
439.70	4786.40
439.89	5025.13
440.08	4933.85
440.26	5032.15
440.45	5097.69
440.63	5193.65
440.82	5238.12
441.01	5233.44
441.19	5217.05
441.38	5284.93
441.57	5280.25
441.75	5509.62
441.94	5675.80
442.12	5380.89
442.31	5502.60
442.50	5511.96
442.68	5507.28
442.87	5666.44
443.05	5636.01
443.24	5666.44
443.43	5542.39
443.61	5586.86
443.80	5729.63
443.98	5666.44
444.17	5462.81
444.35	5771.76
444.54	5874.74
444.73	5839.64
444.91	5827.93
445.10	5685.16
445.28	5783.46
445.47	5748.36
445.65	5568.13
445.84	5785.80
446.02	5675.80
446.21	5781.12
446.39	5577.50
446.58	5888.79
446.77	5968.37
446.95	5708.57
447.14	5813.89
447.32	5820.91
447.51	5699.20
447.69	5863.04
447.88	5863.04
448.06	6045.60
448.25	5856.02
448.43	6008.16
448.62	6015.18
448.80	6029.22
448.99	5823.25
449.17	5881.77
449.36	5895.81
449.54	6061.99
449.73	6195.40
449.91	6111.14
450.10	6354.55
450.28	6349.87
450.46	6303.06
450.65	6242.21
450.83	6164.97
451.02	6239.87
451.20	6406.05
451.39	6230.51
451.57	6380.30
451.76	6342.85
451.94	6289.02
452.13	6305.40
452.31	6244.55
452.49	6047.94
452.68	6497.33
452.86	6399.02
453.05	6492.65
453.23	6380.30
453.42	6300.72
453.60	6583.93
453.78	6541.80
453.97	6551.16
454.15	6576.91
454.34	6537.12
454.52	6663.51
454.70	6757.13
454.89	6628.40
455.07	6719.68
455.26	6745.42
455.44	6794.58
455.62	6635.42
455.81	6841.39
455.99	6834.36
456.17	6864.79
456.36	6810.96
456.54	6913.94
456.73	6965.43
456.91	7012.24
457.09	7105.87
457.28	7220.55
457.46	7033.31
457.64	7258.00
457.83	7201.83
458.01	7136.29
458.19	7419.50
458.38	7173.74
458.56	7239.28
458.74	7356.30
458.93	7393.75
459.11	7386.73
459.29	7363.33
459.48	7459.29
459.66	7241.62
459.84	7178.42
460.03	7480.35
460.21	7293.11
460.39	7442.90
460.57	7419.50
460.76	7665.25
460.94	7726.11
461.12	7463.97
461.31	7676.96
461.49	7616.10
461.67	7618.44
461.85	7772.92
462.04	7698.02
462.22	8212.94
462.40	7789.30
462.59	7798.66
462.77	7651.21
462.95	7747.17
463.13	7859.52
463.32	8042.08
463.50	7992.93
463.68	8051.44
463.86	7927.39
464.05	7899.31
464.23	7749.51
464.41	8100.59
464.59	7829.09
464.78	8109.96
464.96	8037.40
465.14	8196.56
465.32	8234.00
465.50	8175.49
465.69	8210.60
465.87	8264.43
466.05	8250.39
466.23	8107.62
466.41	8191.88
466.60	8248.05
466.78	8049.10
466.96	8217.62
467.14	8166.13
467.32	8451.67
467.51	8468.06
467.69	8203.58
467.87	8355.71
468.05	8491.46
468.23	8360.39
468.41	8395.50
468.60	8472.74
468.78	8592.11
468.96	8538.27
469.14	8685.73
469.32	8847.22
469.50	8528.91
469.69	8610.83
469.87	8805.10
470.05	8645.94
470.23	8816.80
470.41	8664.66
470.59	8842.54
470.77	8774.67
470.95	8898.72
471.14	8982.98
471.32	8840.20
471.50	9177.24
471.68	9259.16
471.86	9210.01
472.04	9401.93
472.22	9392.57
472.40	9057.87
472.58	9191.28
472.77	9357.46
472.95	9488.53
473.13	9481.51
473.31	9383.21
473.49	9357.46
473.67	9563.43
473.85	9500.23
474.03	9710.88
474.21	9764.72
474.39	9818.55
474.57	9811.53
474.75	9844.29
474.93	9912.17
475.12	10047.92
475.30	10167.29
475.48	10073.67
475.66	10197.71
475.84	9848.97
476.02	10483.26
476.20	10326.44
476.38	10436.45
476.56	10808.59
476.74	10640.08
476.92	10478.58
477.10	10611.99
477.28	10607.31
477.46	10888.17
477.64	10911.58
477.82	10974.77
478.00	11229.89
478.18	11073.07
478.36	11417.13
478.54	11337.56
478.72	11267.34
478.90	11452.24
479.08	11674.59
479.26	11665.23
479.44	11653.53
479.62	11686.29
479.80	11742.47
479.98	12046.74
480.16	12046.74
480.34	11829.07
480.52	12269.09
480.70	12159.08
480.88	12128.66
481.06	12416.54
481.24	12517.18
481.41	12655.28
481.59	12688.04
481.77	13053.17
481.95	12802.73
482.13	13022.74
482.31	12957.21
482.49	13441.70
482.67	13345.73
482.85	13081.25
483.03	13619.58
483.21	13603.19
483.39	13832.57
483.57	13760.01
483.74	13755.33
483.92	14134.50
484.10	13809.16
484.28	14279.61
484.46	14310.04
484.64	14642.39
484.82	14410.68
485.00	14626.01
485.18	14700.90
485.35	14733.67
485.53	14775.80
485.71	14764.10
485.89	15393.70
486.07	14817.93
486.25	15204.12
486.43	15372.64
486.61	15625.42
486.78	15641.80
486.96	15747.12
487.14	15985.86
487.32	16177.78
487.50	16229.27
487.68	16262.04
487.85	16779.30
488.03	16552.27
488.21	16821.43
488.39	16854.20
488.57	16863.56
488.75	17078.89
488.92	17301.24
489.10	17465.08
489.28	17448.69
489.46	17708.49
489.64	17378.48
489.81	18068.94
489.99	17984.68
490.17	18017.44
490.35	18319.37
490.53	18106.38
490.70	18448.10
490.88	18565.13
491.06	19002.81
491.24	18551.09
491.41	18981.74
491.59	19091.75
491.77	18792.16
491.95	18958.34
492.13	19489.64
492.30	19782.21
492.48	19667.52
492.66	19587.94
492.84	19922.64
493.01	19587.94
493.19	20006.90
493.37	20374.36
493.54	20269.04
493.72	20608.42
493.90	20372.02
494.08	20706.72
494.25	20669.27
494.43	20589.69
494.61	21268.45
494.79	21247.38
494.96	21043.76
495.14	21036.74
495.32	21500.16
495.49	21528.25
495.67	21488.46
495.85	22010.40
496.02	21820.81
496.20	22108.70
496.38	21687.40
496.55	21869.97
496.73	22810.86
496.91	22515.95
497.09	22345.09
497.26	22635.32
497.44	22530.00
497.62	22998.10
497.79	22855.33
497.97	22754.69
498.14	23112.79
498.32	23171.30
498.50	23009.81
498.67	23506.00
498.85	23576.22
499.03	23887.51
499.20	23749.42
499.38	24086.45
499.56	23896.87
499.73	23990.49
499.91	24187.10
500.08	24531.15
500.26	23934.32
500.44	24430.51
500.61	24531.15
500.79	24159.01
500.97	24301.78
501.14	25013.31
501.32	24760.53
501.49	24706.70
501.67	24992.24
501.84	24795.64
502.02	24835.42
502.20	25357.36
502.37	25364.39
502.55	25350.34
502.72	25671.00
502.90	25553.97
503.07	25790.36
503.25	25750.57
503.43	25919.09
503.60	25841.85
503.78	25596.10
503.95	26057.18
504.13	26008.03
504.30	26272.51
504.48	26136.76
504.65	26415.29
504.83	26602.53
505.01	26644.66
505.18	26541.68
505.36	27103.40
505.53	26764.03
505.71	26712.53
505.88	27054.25
506.06	26473.80
506.23	27138.51
506.41	26885.73
506.58	27318.73
506.76	27491.93
506.93	27190.00
507.11	27372.57
507.28	27597.26
507.46	27751.73
507.63	27648.75
507.81	27440.44
507.98	27892.16
508.16	28116.86
508.33	27971.74
508.50	27803.22
508.68	27892.16
508.85	28271.33
509.03	28329.84
509.20	28402.40
509.38	28800.29
509.55	28659.86
509.73	28933.70
509.90	28694.97
510.08	28919.66
510.25	28788.59
510.42	28992.22
510.60	29261.38
510.77	29055.41
510.95	29338.62
511.12	29230.95
511.30	29172.44
511.47	29635.86
511.64	29530.54
511.82	29926.09
511.99	29652.25
512.17	29542.24
512.34	29336.27
512.51	29862.90
512.69	30464.41
512.86	30382.49
513.04	30352.07
513.21	30010.35
513.38	30209.29
513.56	30464.41
513.73	30099.29
513.90	30452.71
514.08	30682.08
514.25	30637.61
514.43	30590.80
514.60	30485.48
514.77	30593.14
514.95	30726.55
515.12	30766.34
515.29	31049.55
515.47	31630.00
515.64	31337.43
515.81	31349.14
515.99	31065.93
516.16	30948.90
516.33	31807.88
516.51	31201.68
516.68	31222.75
516.85	31171.25
517.03	31417.01
517.20	31550.42
517.37	31793.84
517.54	31899.16
517.72	31964.70
517.89	31901.50
518.06	31688.51
518.24	31824.26
518.41	31894.48
518.58	32098.11
518.75	32308.76
518.93	32385.99
519.10	32217.47
519.27	32402.38
519.45	32439.82
519.62	32753.46
519.79	32268.97
519.96	32847.08
520.14	32982.83
520.31	32587.28
520.48	32917.29
520.65	32903.25
520.83	33280.08
521.00	33549.24
521.17	33558.60
521.34	33366.68
521.52	33474.34
521.69	33813.72
521.86	33514.13
522.03	33518.81
522.20	34120.33
522.38	33846.49
522.55	34265.44
522.72	33586.69
522.89	34052.45
523.07	34094.58
523.24	34092.24
523.41	34080.54
523.58	34272.46
523.75	34719.51
523.92	34064.16
524.10	34440.98
524.27	34871.64
524.44	34918.45
524.61	34836.53
524.78	34630.57
524.96	34534.60
525.13	34602.48
525.30	34663.33
525.47	35377.20
525.64	34745.25
525.81	34834.19
525.98	35192.30
526.16	35089.31
526.33	35269.53
526.50	35182.93
526.67	35196.98
526.84	34920.79
527.01	35178.25
527.18	35302.30
527.36	35761.05
527.53	35702.53
527.70	35360.81
527.87	36079.36
528.04	35620.61
528.21	35625.29
528.38	35644.02
528.55	35981.06
528.72	35541.03
528.89	36079.36
529.07	36060.63
529.24	35669.76
529.41	36315.75
529.58	36072.34
529.75	35899.14
529.92	36077.02
530.09	36767.48
530.26	36383.63
530.43	36414.05
530.60	36362.56
530.77	36381.29
530.94	36744.07
531.11	36687.90
531.28	36746.41
531.46	36711.30
531.63	37111.53
531.80	36549.81
531.97	36851.73
532.14	36795.56
532.31	36776.84
532.48	37368.99
532.65	37434.53
532.82	36884.50
532.99	37046.00
533.16	36877.48
533.33	37163.03
533.50	37687.31
533.67	37256.65
533.84	37244.94
534.01	37551.56
534.18	37638.15
534.35	37146.64
534.52	37404.10
534.69	37558.58
534.86	37837.10
535.03	37558.58
535.20	37947.11
535.37	37771.57
535.54	38110.94
535.71	37495.38
535.88	38017.32
536.05	37846.46
536.22	38424.57
536.38	38251.38
536.55	38124.99
536.72	38253.72
536.89	37741.14
537.06	38450.32
537.23	38433.94
537.40	38281.80
537.57	38520.54
537.74	38401.17
537.91	38827.15
538.08	38857.57
538.25	38178.82
538.42	38550.96
538.59	39028.43
538.75	38024.34
538.92	38689.06
539.09	39105.67
539.26	39098.65
539.43	38892.68
539.60	38667.99
539.77	38911.41
539.94	38637.56
540.11	38639.90
540.28	38960.56
540.44	39110.35
540.61	38834.17
540.78	39108.01
540.95	39316.32
541.12	38939.49
541.29	39241.42
541.46	38946.51
541.62	39243.76
541.79	39391.22
541.96	39454.41
542.13	39194.61
542.30	39585.48
542.47	39758.68
542.63	39683.78
542.80	39679.10
542.97	39999.76
543.14	40107.42
543.31	39948.26
543.48	39943.58
543.64	40198.70
543.81	40112.10
543.98	40257.21
544.15	40238.49
544.32	40446.80
544.48	40535.74
544.65	40203.38
544.82	40301.68
544.99	39922.52
545.16	40526.38
545.32	40149.55
545.49	40701.92
545.66	40858.73
545.83	40863.41
546.00	40507.65
546.16	40706.60
546.33	40840.01
546.50	40645.74
546.67	40758.09
546.83	40095.72
547.00	40713.62
547.17	40313.39
547.34	40875.12
547.50	40854.05
547.67	41205.13
547.84	41200.45
548.00	41301.09
548.17	41111.51
548.34	40795.54
548.51	41600.68
548.67	41387.69
548.84	41448.55
549.01	41422.80
549.18	41507.06
549.34	41511.74
549.51	41614.72
549.68	41687.28
549.84	41242.58
550.01	41687.28
550.18	41425.14
550.34	41553.87
550.51	41703.67
550.68	41507.06
550.84	41181.73
551.01	41418.12
551.18	41596.00
551.34	41397.06
551.51	41895.59
551.68	41832.39
551.84	41687.28
552.01	41755.16
552.18	41717.71
552.34	41951.76
552.51	41949.42
552.68	41949.42
552.84	42696.05
553.01	42267.73
553.18	42220.92
553.34	42330.93
553.51	41993.89
553.67	42068.79
553.84	42344.97
554.01	42281.78
554.17	42586.05
554.34	42462.00
554.51	42405.83
554.67	42784.99
554.84	42340.29
555.00	42211.56
555.17	42122.62
555.33	42464.34
555.50	42398.80
555.67	42314.55
555.83	42691.37
556.00	42632.86
556.16	43068.20
556.33	43028.41
556.50	42693.71
556.66	43103.31
556.83	42314.55
556.99	43077.56
557.16	43150.12
557.32	42852.87
557.49	42909.04
557.65	43058.84
557.82	42410.51
557.98	42794.36
558.15	43208.63
558.32	42899.68
558.48	42939.47
558.65	42918.40
558.81	42408.17
558.98	43175.86
559.14	42895.00
559.31	43035.43
559.47	43494.18
559.64	43557.37
559.80	43391.19
559.97	43445.02
560.13	43082.24
560.30	43168.84
560.46	43173.52
560.63	43115.01
560.79	43482.47
560.96	43683.76
561.12	43271.82
561.29	42988.62
561.45	43306.93
561.61	43267.14
561.78	43105.65
561.94	42878.61
562.11	43536.30
562.27	43236.72
562.44	43122.03
562.60	43559.71
562.77	43597.16
562.93	43430.98
563.10	44039.52
563.26	43309.27
563.42	44095.69
563.59	43325.66
563.75	43449.70
563.92	43550.35
564.08	43805.47
564.24	43707.16
564.41	43655.67
564.57	43449.70
564.74	43550.35
564.90	43510.56
565.07	43854.62
565.23	43648.65
565.39	43636.95
565.56	43814.83
565.72	43814.83
565.88	43405.23
566.05	43936.54
566.21	43840.57
566.38	43557.37
566.54	43536.30
566.70	43770.36
566.87	43838.23
567.03	43796.10
567.19	44039.52
567.36	43718.87
567.52	43515.24
567.68	44065.27
567.85	43679.08
568.01	43784.40
568.17	43826.53
568.34	44133.14
568.50	43908.45
568.66	43669.72
568.83	44144.84
568.99	43414.60
569.15	43988.03
569.32	43812.49
569.48	44004.41
569.64	43969.30
569.81	44116.76
569.97	44002.07
570.13	44109.74
570.30	43882.70
570.46	43564.39
570.62	43856.96
570.78	43983.35
570.95	43983.35
571.11	44378.90
571.27	44421.03
571.43	43789.08
571.60	44128.46
571.76	43772.70
571.92	43880.36
572.09	44130.80
572.25	43695.46
572.41	44067.61
572.57	44266.55
572.74	44615.29
572.90	43728.23
573.06	44137.82
573.22	44690.19
573.38	44149.53
573.55	43950.58
573.71	44304.00
573.87	44477.20
574.03	44133.14
574.20	44465.50
574.36	44030.16
574.52	44163.57
574.68	44292.30
574.84	44128.46
575.01	44570.82
575.17	44086.33
575.33	44006.75
575.49	44205.70
575.65	44360.17
575.82	44456.14
575.98	44233.78
576.14	44535.71
576.30	44357.83
576.46	43922.49
576.62	44243.15
576.79	44123.78
576.95	43791.42
577.11	43922.49
577.27	44346.13
577.43	44451.45
577.59	44079.31
577.75	43901.43
577.92	43931.86
578.08	44002.07
578.24	44006.75
578.40	44409.32
578.56	43938.88
578.72	44034.84
578.88	44254.85
579.04	44774.45
579.21	43828.87
579.37	44083.99
579.53	44058.24
579.69	44327.41
579.85	44479.54
580.01	44116.76
580.17	44353.15
580.33	44580.18
580.49	45017.86
580.65	44566.14
580.82	44339.11
580.98	44196.34
581.14	44191.65
581.30	44275.91
581.46	44467.84
581.62	44161.23
581.78	44219.74
581.94	44772.11
582.10	44210.38
582.26	44535.71
582.42	44254.85
582.58	44194.00
582.74	44058.24
582.90	44402.30
583.06	44512.31
583.22	44879.77
583.38	44900.84
583.54	44191.65
583.70	44690.19
583.86	44500.61
584.02	44079.31
584.18	44154.21
584.34	44580.18
584.50	44514.65
584.66	44121.44
584.82	44596.57
584.98	44727.64
585.14	44198.68
585.30	44467.84
585.46	44346.13
585.62	44313.36
585.78	44432.73
585.94	44343.79
586.10	44229.10
586.26	44296.98
586.42	44582.52
586.58	44346.13
586.74	44240.81
586.90	44313.36
587.06	44566.14
587.22	44357.83
587.38	44402.30
587.54	44652.74
587.70	44804.88
587.86	44336.77
588.02	44526.35
588.18	44453.79
588.34	44416.35
588.49	44233.78
588.65	44304.00
588.81	44353.15
588.97	44266.55
589.13	44779.13
589.29	44678.49
589.45	44273.57
589.61	44751.04
589.77	44687.85
589.93	44645.72
590.08	44697.21
590.24	44697.21
590.40	45134.89
590.56	44903.18
590.72	44538.05
590.88	44701.89
591.04	44905.52
591.20	44776.79
591.35	45205.11
591.51	44875.09
591.67	44809.56
591.83	44626.99
591.99	44589.55
592.15	44828.28
592.31	44594.23
592.46	44900.84
592.62	44722.96
592.78	44662.10
592.94	45074.04
593.10	45006.16
593.26	44439.75
593.41	44942.97
593.57	44552.10
593.73	44521.67
593.89	44760.40
594.05	44540.39
594.20	44500.61
594.36	44758.06
594.52	45134.89
594.68	44921.90
594.84	44891.48
594.99	45214.47
595.15	44690.19
595.31	44891.48
595.47	44837.64
595.62	44884.45
595.78	45078.72
595.94	45357.24
596.10	45090.42
596.25	45160.64
596.41	44818.92
596.57	45069.36
596.73	44959.35
596.88	44669.12
597.04	44729.98
597.20	44992.12
597.36	44713.59
597.51	45432.14
597.67	44940.63
597.83	44985.10
597.99	45043.61
598.14	45059.99
598.30	44685.51
598.46	45048.29
598.61	44786.15
598.77	44968.71
598.93	44779.13
599.09	44828.28
599.24	45394.69
599.40	45132.55
599.56	45008.50
599.71	44722.96
599.87	45179.36
600.03	45427.46
600.18	44818.92
600.34	44896.16
600.50	45022.54
600.65	44484.22
600.81	45113.83
600.97	44802.53
601.12	45322.13
601.28	45090.42
601.44	44919.56
601.59	44870.41
601.75	44849.35
601.91	45067.02
602.06	44765.09
602.22	44715.93
602.37	44374.22
602.53	44949.99
602.69	45146.59
602.84	45270.64
603.00	44758.06
603.16	44971.05
603.31	45130.21
603.47	44669.12
603.62	45031.91
603.78	45078.72
603.94	44912.54
604.09	45024.89
604.25	44851.69
604.40	44362.51
604.56	44556.78
604.71	45036.59
604.87	44718.28
605.03	45104.46
605.18	44968.71
605.34	44938.29
605.49	44493.58
605.65	44816.58
605.80	44725.30
605.96	44931.26
606.12	45144.25
606.27	45237.87
606.43	44414.01
606.58	44996.80
606.74	44343.79
606.89	44718.28
607.05	44617.63
607.20	44683.17
607.36	44491.24
607.51	44992.12
607.67	44786.15
607.82	44779.13
607.98	44236.12
608.13	44507.63
608.29	44692.53
608.44	44388.26
608.60	44013.77
608.75	44495.92
608.91	44514.65
609.06	44545.08
609.22	45001.48
609.37	44425.71
609.53	44865.73
609.68	44884.45
609.84	44479.54
609.99	44547.42
610.15	44285.28
610.30	44538.05
610.46	44098.03
610.61	44259.53
610.76	44098.03
610.92	44638.70
611.07	44552.10
611.23	44091.01
611.38	44793.17
611.54	44081.65
611.69	44641.04
611.84	44360.17
612.00	44055.90
612.15	43971.64
612.31	44395.28
612.46	44198.68
612.62	44411.67
612.77	44034.84
612.92	44233.78
613.08	44083.99
613.23	44102.71
613.39	43833.55
613.54	43934.20
613.69	44102.71
613.85	43768.02
614.00	44442.09
614.15	44112.08
614.31	43908.45
614.46	43913.13
614.62	43777.38
614.77	44004.41
614.92	43524.60
615.08	43957.60
615.23	43908.45
615.38	43723.55
615.54	43753.97
615.69	43730.57
615.84	43679.08
616.00	43679.08
616.15	44376.56
616.30	43540.99
616.46	43608.86
616.61	43679.08
616.76	43716.53
616.92	43166.50
617.07	43721.21
617.22	43559.71
617.37	43746.95
617.53	43601.84
617.68	43779.72
617.83	43917.81
617.99	43700.14
618.14	43414.60
618.29	43346.72
618.45	43325.66
618.60	43517.58
618.75	43517.58
618.90	43466.09
619.06	43414.60
619.21	43512.90
619.36	43587.80
619.51	43445.02
619.67	42752.23
619.82	43356.08
619.97	43320.98
620.12	43222.67
620.28	42843.51
620.43	42902.02
620.58	43143.09
620.73	43285.87
620.89	42705.41
621.04	43306.93
621.19	42951.17
621.34	42712.44
621.49	42930.11
621.65	42700.73
621.80	42679.67
621.95	42712.44
622.10	43136.07
622.25	42628.18
622.41	42253.69
622.56	43089.26
622.71	43166.50
622.86	42464.34
623.01	42930.11
623.16	42714.78
623.32	42646.90
623.47	42895.00
623.62	42714.78
623.77	42604.77
623.92	42288.80
624.07	42349.65
624.23	42312.20
624.38	42185.82
624.53	42260.71
624.68	42740.52
624.83	42342.63
624.98	42522.85
625.13	42384.76
625.29	42440.93
625.44	42305.18
625.59	42176.45
625.74	42033.68
625.89	42195.18
626.04	41904.95
626.19	42209.22
626.34	42007.94
626.49	41954.10
626.65	41801.97
626.80	42403.49
626.95	41549.19
627.10	42017.30
627.25	41745.80
627.40	41766.86
627.55	41500.04
627.70	41411.10
627.85	41537.49
628.00	41509.40
628.15	42220.92
628.30	41975.17
628.45	41633.45
628.60	41961.12
628.76	41872.18
628.91	41830.05
629.06	41837.08
629.21	41516.42
629.36	41284.71
629.51	41563.23
629.66	41759.84
629.81	41460.25
629.96	41329.18
630.11	41610.04
630.26	41963.46
630.41	41462.59
630.56	41160.66
630.71	41656.85
630.86	41212.15
631.01	41001.50
631.16	41343.22
631.31	40884.48
631.46	40760.43
631.61	41364.29
631.76	41020.23
631.91	41134.92
632.06	41420.46
632.21	41429.82
632.36	41469.61
632.51	41383.01
632.66	41024.91
632.81	40552.12
632.96	40935.97
633.10	40533.40
633.25	40781.49
633.40	41095.13
633.55	41331.52
633.70	41090.44
633.85	41380.67
634.00	40825.96
634.15	40664.47
634.30	40545.10
634.45	40982.78
634.60	40254.87
634.75	40786.18
634.90	40662.13
635.05	40687.87
635.19	40547.44
635.34	40683.19
635.49	40751.07
635.64	40105.08
635.79	39999.76
635.94	40395.31
636.09	40528.72
636.24	40472.54
636.39	40023.16
636.53	40297.00
636.68	40046.57
636.83	39974.01
636.98	40577.87
637.13	40212.74
637.28	40240.83
637.43	40598.93
637.57	40229.13
637.72	40299.34
637.87	40315.73
638.02	40250.19
638.17	40114.44
638.32	40182.32
638.46	40102.74
638.61	39927.20
638.76	39690.80
638.91	40275.94
639.06	40076.99
639.20	40041.88
639.35	39941.24
639.50	39959.97
639.65	39966.99
639.80	40018.48
639.94	39800.81
640.09	39892.09
640.24	39201.63
640.39	39756.34
640.54	39548.03
640.68	39536.33
640.83	39676.76
640.98	39594.84
641.13	39203.97
641.27	39646.33
641.42	39648.68
641.57	39613.57
641.72	39491.86
641.86	39028.43
642.01	39161.84
642.16	39255.46
642.31	39061.20
642.45	39604.20
642.60	39133.76
642.75	39122.05
642.90	39215.68
643.04	39086.95
643.19	38850.55
643.34	39019.07
643.48	39384.19
643.63	38976.94
643.78	39112.69
643.93	38630.54
644.07	39402.92
644.22	39337.38
644.37	38347.34
644.51	38836.51
644.66	39297.59
644.81	39079.92
644.95	39269.51
645.10	39243.76
645.25	39103.33
645.39	39501.22
645.54	39068.22
645.69	39005.03
645.83	38855.23
645.98	38857.57
646.13	39351.43
646.27	38649.27
646.42	38672.67
646.57	38740.55
646.71	38557.99
646.86	38698.42
647.00	38803.74
647.15	38682.03
647.30	38555.64
647.44	38370.74
647.59	38897.36
647.74	38553.30
647.88	38314.57
648.03	38141.37
648.17	38579.05
648.32	38078.18
648.47	38574.37
648.61	38541.60
648.76	38679.69
648.90	38403.51
649.05	38225.63
649.20	38906.73
649.34	38550.96
649.49	38234.99
649.63	38370.74
649.78	38014.98
649.92	38237.33
650.07	38284.14
650.21	38043.07
650.36	38052.43
650.51	37762.20
650.65	38335.63
650.80	38660.97
650.94	38543.94
651.09	37816.04
651.23	38068.81
651.38	38078.18
651.52	37684.97
651.67	37806.67
651.81	37804.33
651.96	37841.78
652.10	37837.10
652.25	37521.13
652.39	37631.13
652.54	38300.53
652.68	37982.21
652.83	37738.80
652.97	37640.50
653.12	37975.19
653.26	37804.33
653.41	37572.62
653.55	37495.38
653.70	37614.75
653.84	37088.13
653.99	37509.43
654.13	37347.93
654.27	37764.54
654.42	37645.18
654.56	37324.52
654.71	37464.96
654.85	37123.24
655.00	37436.87
655.14	37188.77
655.29	36994.51
655.43	36945.36
655.57	36903.23
655.72	36526.40
655.86	36769.82
656.01	37050.68
656.15	37020.25
656.30	36954.72
656.44	36730.03
656.58	36989.83
656.73	36914.93
656.87	36921.95
657.01	36503.00
657.16	36788.54
657.30	36517.04
657.45	36315.75
657.59	36563.85
657.73	36795.56
657.88	36685.56
658.02	36818.97
658.16	36830.67
658.31	37148.98
658.45	36697.26
658.60	36222.13
658.74	36582.57
658.88	37212.18
659.03	36208.09
659.17	36074.68
659.31	36484.27
659.46	36325.11
659.60	36002.12
659.74	36280.64
659.89	36032.55
660.03	36194.04
660.17	36282.98
660.32	36299.37
660.46	35899.14
660.60	35983.40
660.74	36339.16
660.89	36018.50
661.03	35716.58
661.17	35711.89
661.32	35353.79
661.46	35674.45
661.60	35555.08
661.74	35346.77
661.89	35512.95
662.03	35730.62
662.17	35604.23
662.31	35309.32
662.46	35484.86
662.60	35189.95
662.74	35161.87
662.88	35725.94
663.03	35370.18
663.17	35339.75
663.31	35110.38
663.45	35377.20
663.60	35086.97
663.74	34780.36
663.88	35023.78
664.02	34866.96
664.17	34974.63
664.31	34370.77
664.45	34808.45
664.59	34829.51
664.73	34923.13
664.88	34789.72
665.02	34440.98
665.16	34588.44
665.30	34153.10
665.44	34419.92
665.59	34015.01
665.73	34157.78
665.87	34265.44
666.01	34171.82
666.15	33795.00
666.29	34518.22
666.44	34691.42
666.58	34146.08
666.72	33933.09
666.86	34075.86
667.00	34209.27
667.14	34022.03
667.28	33783.29
667.43	33621.80
667.57	33811.38
667.71	33680.31
667.85	33766.91
667.99	33642.86
668.13	33287.10
668.27	33237.95
668.41	33612.43
668.56	33249.65
668.70	33273.06
668.84	32788.56
668.98	33106.88
669.12	33195.82
669.26	33078.79
669.40	33130.28
669.54	32877.51
669.68	33062.41
669.82	32517.06
669.96	32332.16
670.10	33099.86
670.25	32961.76
670.39	32847.08
670.53	32512.38
670.67	32678.56
670.81	32624.73
670.95	32355.57
671.09	32568.55
671.23	32357.91
671.37	32472.59
671.51	32144.92
671.65	32311.10
671.79	31627.66
671.93	31852.35
672.07	32423.44
672.21	32086.40
672.35	31763.41
672.49	31824.26
672.63	32264.28
672.77	31765.75
672.91	31637.02
673.05	31424.03
673.19	31814.90
673.33	31351.48
673.47	31377.22
673.61	31042.53
673.75	31351.48
673.89	30911.46
674.03	30703.15
674.17	30803.79
674.31	30536.97
674.45	30672.72
674.59	31042.53
674.73	30899.75
674.87	30806.13
675.01	30843.58
675.15	30799.11
675.29	30595.48
675.43	30733.57
675.56	30478.46
675.70	30162.48
675.84	30103.97
675.98	29020.30
676.12	30298.23
676.26	29696.72
676.40	29572.67
676.54	29876.94
676.68	29984.60
676.82	29273.08
676.96	29706.08
677.10	29085.84
677.23	29193.50
677.37	29214.57
677.51	29378.40
677.65	29413.51
677.79	28737.10
677.93	29041.37
678.07	28975.83
678.21	28142.60
678.34	28826.04
678.48	28531.13
678.62	28753.48
678.76	28149.62
678.90	27857.06
679.04	28002.17
679.18	28446.87
679.31	28063.02
679.45	27969.40
679.59	27496.61
679.73	27789.18
679.87	27536.40
680.00	27711.94
680.14	27665.13
680.28	27754.07
680.42	27288.31
680.56	27454.48
680.70	27335.12
680.83	26888.07
680.97	27262.56
681.11	26817.86
681.25	26686.79
681.39	26820.20
681.52	27117.45
681.66	26944.25
681.80	26661.04
681.94	26396.56
682.07	26604.87
682.21	26033.78
682.35	26293.58
682.49	26623.59
682.62	26384.86
682.76	26066.55
682.90	25869.94
683.04	26204.64
683.17	25706.10
683.31	25876.96
683.45	25713.13
683.59	25488.43
683.72	25015.65
683.86	25397.15
684.00	25137.35
684.13	25153.74
684.27	25219.27
684.41	25116.29
684.55	24697.33
684.68	24491.37
684.82	24563.92
684.96	24680.95
685.09	24875.21
685.23	24451.58
685.37	24320.51
685.50	24318.17
685.64	24332.21
685.78	24500.73
685.91	24355.61
686.05	24016.24
686.19	24011.56
686.32	24086.45
686.46	23620.69
686.60	23386.63
686.73	23435.78
686.87	23101.09
687.01	23325.78
687.14	23065.98
687.28	23178.33
687.42	23136.20
687.55	22951.29
687.69	22885.76
687.82	23190.03
687.96	22417.65
688.10	22569.79
688.23	22389.56
688.37	22698.52
688.50	22331.05
688.64	22279.56
688.78	22150.83
688.91	21881.67
689.05	21977.63
689.18	21827.84
689.32	21317.60
689.46	21685.06
689.59	21820.81
689.73	22015.08
689.86	21799.75
690.00	21397.18
690.13	21598.46
690.27	21401.86
690.41	21514.20
690.54	20851.83
690.68	21329.30
690.81	20957.16
690.95	20692.68
691.08	21013.33
691.22	21074.18
691.35	21053.12
691.49	20835.45
691.62	20723.10
691.76	20559.27
691.89	20636.50
692.03	20493.73
692.16	20388.41
692.30	20449.26
692.43	20065.41
692.57	19845.40
692.70	19761.14
692.84	20034.99
692.97	20009.24
693.11	19681.56
693.24	19587.94
693.38	19534.11
693.51	19576.24
693.65	19529.43
693.78	19405.38
693.92	19353.89
694.05	19246.23
694.19	19021.53
694.32	19475.60
694.45	19023.87
694.59	18864.72
694.72	18911.53
694.86	18857.70
694.99	18459.81
695.13	18244.48
695.26	18483.21
695.39	18202.35
695.53	18356.82
695.66	18277.24
695.80	18352.14
695.93	18188.30
696.07	18031.49
696.20	18146.17
696.33	18176.60
696.47	17905.10
696.60	17628.92
696.73	17834.88
696.87	17862.97
697.00	17657.00
697.14	17797.43
697.27	17413.59
697.40	17263.79
697.54	17266.13
697.67	17422.95
697.80	17228.68
697.94	17001.65
698.07	16999.31
698.21	17036.76
698.34	16533.54
698.47	16690.36
698.61	16519.50
698.74	16301.83
698.87	16601.42
699.01	16547.59
699.14	16229.27
699.27	16362.69
699.40	16266.72
699.54	16175.44
699.67	16194.17
699.80	16273.74
699.94	16142.67
700.07	16191.83
700.20	15662.86
700.34	15585.63
700.47	15662.86
700.60	15630.10
700.73	15630.10
700.87	15630.10
701.00	15508.39
701.13	15487.32
701.26	15393.70
701.40	15185.40
701.53	15255.61
701.66	15129.22
701.79	15096.46
701.93	14815.59
702.06	14824.95
702.19	14750.06
702.32	14941.98
702.46	14890.49
702.59	14871.76
702.72	14768.78
702.85	14759.42
702.99	14656.43
703.12	14640.05
703.25	14773.46
703.38	14703.25
703.51	14335.78
703.65	14209.39
703.78	14094.71
703.91	14031.51
704.04	14108.75
704.17	14064.28
704.31	13752.99
704.44	13680.43
704.57	13778.73
704.70	13635.96
704.83	13647.66
704.96	13832.57
705.10	13671.07
705.23	13666.39
>>>>>End Processed Spectral Data<<<<<
