SpectraSuite Data File
++++++++++++++++++++++++++++++++++++
Date: Fri Oct 25 10:44:12 EDT 2013
User: price-jones
Dark Spectrum Present: No
Reference Spectrum Present: No
Number of Sampled Component Spectra: 1
Spectrometers: USB2+H05261
Integration Time (usec): 100000 (USB2+H05261)
Spectra Averaged: 1 (USB2+H05261)
Boxcar Smoothing: 0 (USB2+H05261)
Correct for Electrical Dark: No (USB2+H05261)
Strobe/Lamp Enabled: No (USB2+H05261)
Correct for Detector Non-linearity: No (USB2+H05261)
Correct for Stray Light: No (USB2+H05261)
Number of Pixels in Processed Spectrum: 2048
>>>>>Begin Processed Spectral Data<<<<<
365.73	67.88
365.92	67.88
366.12	67.88
366.32	74.90
366.52	2.34
366.72	53.83
366.91	0.00
367.11	0.00
367.31	0.00
367.51	0.00
367.70	18.72
367.90	100.64
368.10	88.94
368.30	95.96
368.49	28.09
368.69	42.13
368.89	84.26
369.09	110.01
369.28	42.13
369.48	84.26
369.68	112.35
369.87	112.35
370.07	88.94
370.27	159.16
370.47	180.22
370.66	346.40
370.86	365.12
371.06	414.27
371.25	465.77
371.45	475.13
371.65	447.04
371.84	435.34
372.04	477.47
372.24	489.17
372.44	528.96
372.63	482.15
372.83	416.62
373.03	486.83
373.22	442.36
373.42	454.06
373.62	533.64
373.81	535.98
374.01	648.33
374.21	559.39
374.40	491.51
374.60	526.62
374.79	587.47
374.99	559.39
375.19	575.77
375.38	566.41
375.58	486.83
375.78	587.47
375.97	650.67
376.17	594.50
376.37	575.77
376.56	645.99
376.76	620.24
376.95	587.47
377.15	648.33
377.35	587.47
377.54	685.78
377.74	641.31
377.93	631.94
378.13	631.94
378.33	634.29
378.52	592.16
378.72	557.05
378.91	699.82
379.11	596.84
379.31	777.06
379.50	582.79
379.70	671.73
379.89	702.16
380.09	669.39
380.28	622.58
380.48	711.52
380.68	653.01
380.87	573.43
381.07	697.48
381.26	699.82
381.46	737.27
381.65	716.20
381.85	781.74
382.04	723.23
382.24	678.76
382.43	697.48
382.63	690.46
382.83	746.63
383.02	760.67
383.22	767.70
383.41	709.18
383.61	704.50
383.80	730.25
384.00	751.31
384.19	746.63
384.39	777.06
384.58	840.25
384.78	837.91
384.97	889.40
385.17	746.63
385.36	819.19
385.56	800.46
385.75	725.57
385.95	814.51
386.14	858.98
386.34	786.42
386.53	870.68
386.72	873.02
386.92	842.59
387.11	828.55
387.31	922.17
387.50	826.21
387.70	891.74
387.89	847.27
388.09	873.02
388.28	884.72
388.48	910.47
388.67	912.81
388.86	863.66
389.06	926.85
389.25	961.96
389.45	961.96
389.64	964.30
389.84	910.47
390.03	1050.90
390.22	1027.50
390.42	915.15
390.61	1004.09
390.81	1067.28
391.00	1015.79
391.19	1071.97
391.39	1109.41
391.58	1088.35
391.78	1020.47
391.97	1053.24
392.16	1050.90
392.36	1114.10
392.55	1008.77
392.75	1050.90
392.94	1015.79
393.13	1100.05
393.33	1060.26
393.52	1062.60
393.71	1022.81
393.91	1062.60
394.10	1125.80
394.29	1128.14
394.49	1142.18
394.68	1174.95
394.88	1149.20
395.07	1226.44
395.26	1224.10
395.46	1142.18
395.65	1240.48
395.84	1217.08
396.04	1184.31
396.23	1128.14
396.42	1083.67
396.62	1224.10
396.81	1217.08
397.00	1184.31
397.19	1174.95
397.39	1315.38
397.58	1277.93
397.77	1324.74
397.97	1355.17
398.16	1497.94
398.35	1472.20
398.55	1432.41
398.74	1537.73
398.93	1504.96
399.12	1446.45
399.32	1479.22
399.51	1418.36
399.70	1614.97
399.90	1572.84
400.09	1621.99
400.28	1565.82
400.47	1614.97
400.67	1703.91
400.86	1652.42
401.05	1636.03
401.24	1619.65
401.44	1673.48
401.63	1675.82
401.82	1586.88
402.01	1682.85
402.21	1699.23
402.40	1713.27
402.59	1748.38
402.78	1771.79
402.97	1678.16
403.17	1844.34
403.36	1769.44
403.55	1863.07
403.74	1912.22
403.93	1933.28
404.13	1820.94
404.32	1916.90
404.51	1907.54
404.70	1912.22
404.89	1930.94
405.09	1916.90
405.28	1940.30
405.47	1944.99
405.66	1989.46
405.85	1975.41
406.05	1858.39
406.24	1954.35
406.43	2050.31
406.62	2019.88
406.81	2040.95
407.00	2085.42
407.20	2059.67
407.39	2073.71
407.58	2162.66
407.77	2244.57
407.96	2148.61
408.15	2197.76
408.34	2160.31
408.54	2307.77
408.73	2246.91
408.92	2279.68
409.11	2242.23
409.30	2242.23
409.49	2200.10
409.68	2282.02
409.87	2314.79
410.07	2279.68
410.26	2345.22
410.45	2366.28
410.64	2408.41
410.83	2422.45
411.02	2471.61
411.21	2523.10
411.40	2457.56
411.59	2541.82
411.78	2586.29
411.98	2597.99
412.17	2616.72
412.36	2693.96
412.55	2836.73
412.74	2698.64
412.93	2731.41
413.12	2822.69
413.31	2836.73
413.50	2766.51
413.69	2808.64
413.88	2876.52
414.07	2949.08
414.26	2935.03
414.45	2977.16
414.64	2958.44
414.83	3059.08
415.02	3014.61
415.22	2918.65
415.41	2979.50
415.60	3094.19
415.79	3180.79
415.98	3173.77
416.17	3173.77
416.36	3183.13
416.55	3157.38
416.74	3080.14
416.93	3276.75
417.12	3204.19
417.31	3286.11
417.50	3248.66
417.69	3452.29
417.88	3372.71
418.07	3428.88
418.26	3405.48
418.45	3471.01
418.64	3569.32
418.83	3609.11
419.02	3499.10
419.21	3522.51
419.39	3466.33
419.58	3377.39
419.77	3421.86
419.96	3555.27
420.15	3641.87
420.34	3623.15
420.53	3679.32
420.72	3754.22
420.91	3772.94
421.10	3744.86
421.29	3826.78
421.48	3850.18
421.67	3885.29
421.86	3791.67
422.05	3744.86
422.24	3772.94
422.43	3815.07
422.61	3770.60
422.80	3948.48
422.99	3747.20
423.18	3908.69
423.37	4021.04
423.56	3981.25
423.75	3943.80
423.94	3911.04
424.13	3674.64
424.32	3716.77
424.50	3960.19
424.69	3934.44
424.88	4025.72
425.07	3925.08
425.26	3831.46
425.45	3803.37
425.64	3915.72
425.83	4030.40
426.01	3955.51
426.20	4035.08
426.39	3866.56
426.58	3948.48
426.77	4004.66
426.96	3882.95
427.15	3932.10
427.33	4011.68
427.52	4035.08
427.71	4140.41
427.90	4037.42
428.09	4196.58
428.28	4074.87
428.46	4051.47
428.65	4212.96
428.84	4163.81
429.03	4266.80
429.22	3981.25
429.40	4163.81
429.59	4166.15
429.78	3997.64
429.97	3845.50
430.16	4100.62
430.34	4149.77
430.53	4128.70
430.72	4273.82
430.91	4334.67
431.10	4418.93
431.28	4535.96
431.47	4723.20
431.66	4512.55
431.85	4741.93
432.03	4561.70
432.22	4526.60
432.41	4465.74
432.60	4617.88
432.79	4631.92
432.97	4741.93
433.16	4678.73
433.35	4638.94
433.54	4526.60
433.72	4660.01
433.91	4547.66
434.10	4655.33
434.28	4727.88
434.47	4844.91
434.66	4833.21
434.85	4842.57
435.03	4975.98
435.22	4856.61
435.41	5121.09
435.59	5071.94
435.78	5015.77
435.97	5205.35
436.16	4975.98
436.34	4999.38
436.53	5144.50
436.72	5135.14
436.90	5064.92
437.09	5212.37
437.28	5177.26
437.46	5100.03
437.65	5071.94
437.84	5046.20
438.02	5029.81
438.21	5214.71
438.40	5193.65
438.58	5305.99
438.77	5327.06
438.96	5411.32
439.14	5612.60
439.33	5584.52
439.52	5628.99
439.70	5537.71
439.89	5579.84
440.08	5643.03
440.26	5673.46
440.45	5640.69
440.63	5617.29
440.82	5959.00
441.01	5837.30
441.19	5977.73
441.38	6001.13
441.57	6174.33
441.75	6108.80
441.94	6045.60
442.12	6347.53
442.31	6289.02
442.50	6246.89
442.68	6188.38
442.87	6370.94
443.05	6328.81
443.24	6441.15
443.43	6274.98
443.61	6560.52
443.80	6583.93
443.98	6303.06
444.17	6167.31
444.35	6246.89
444.54	6558.18
444.73	6551.16
444.91	6314.77
445.10	6356.90
445.28	6370.94
445.47	6282.00
445.65	6487.96
445.84	6518.39
446.02	6406.05
446.21	6612.01
446.39	6572.22
446.58	6745.42
446.77	6663.51
446.95	6457.54
447.14	6731.38
447.32	6794.58
447.51	6518.39
447.69	6750.10
447.88	6588.61
448.06	6689.25
448.25	6691.59
448.43	6640.10
448.62	6703.29
448.80	6502.01
448.99	6696.27
449.17	6672.87
449.36	6846.07
449.54	6869.47
449.73	6836.70
449.91	6963.09
450.10	7047.35
450.28	7201.83
450.46	7162.04
450.65	7215.87
450.83	7318.86
451.02	7187.79
451.20	7262.68
451.39	7089.48
451.57	7267.36
451.76	7234.60
451.94	7040.33
452.13	7087.14
452.31	7229.91
452.49	6981.82
452.68	7166.72
452.86	7101.19
453.05	7260.34
453.23	7258.00
453.42	7232.26
453.60	7414.82
453.78	7384.39
453.97	7332.90
454.15	7300.13
454.34	7428.86
454.52	7527.16
454.70	7585.68
454.89	7375.03
455.07	7398.43
455.26	7630.15
455.44	7719.09
455.62	7599.72
455.81	7716.75
455.99	7613.76
456.17	7903.99
456.36	7808.03
456.54	7822.07
456.73	7873.56
456.91	8077.19
457.09	8049.10
457.28	8091.23
457.46	7765.90
457.64	8231.66
457.83	8053.78
458.01	7992.93
458.19	8067.83
458.38	8011.65
458.56	8168.47
458.74	8283.16
458.93	8205.92
459.11	8238.69
459.29	8329.97
459.48	8315.92
459.66	8205.92
459.84	8140.38
460.03	8535.93
460.21	8418.91
460.39	8402.52
460.57	8376.78
460.76	8568.70
460.94	8554.66
461.12	8493.80
461.31	8631.90
461.49	8573.38
461.67	8606.15
461.85	8854.25
462.04	8879.99
462.22	8905.74
462.40	8840.20
462.59	8732.54
462.77	8908.08
462.95	8741.90
463.13	8894.04
463.32	8861.27
463.50	8968.93
463.68	8851.91
463.86	9069.58
464.05	8821.48
464.23	8826.16
464.41	9207.67
464.59	8713.81
464.78	9057.87
464.96	8912.76
465.14	8819.14
465.32	8961.91
465.50	9329.38
465.69	9359.80
465.87	8954.89
466.05	9212.35
466.23	9135.11
466.41	9114.05
466.60	9315.33
466.78	9193.62
466.96	9373.85
467.14	9224.05
467.32	9254.48
467.51	9481.51
467.69	9282.56
467.87	9549.39
468.05	9533.00
468.23	9287.25
468.41	9350.44
468.60	9579.81
468.78	9657.05
468.96	9476.83
469.14	9551.73
469.32	9572.79
469.50	9408.95
469.69	9537.68
469.87	9776.42
470.05	9806.84
470.23	9661.73
470.41	9540.02
470.59	9870.04
470.77	9635.99
470.95	9806.84
471.14	10038.56
471.32	9825.57
471.50	10384.96
471.68	10188.35
471.86	10132.18
472.04	10190.69
472.22	10551.14
472.40	10300.70
472.58	10272.61
472.77	10523.05
472.95	10651.78
473.13	10829.66
473.31	10595.61
473.49	10635.39
473.67	10602.63
473.85	10572.20
474.03	10684.55
474.21	10721.99
474.39	10967.75
474.57	11140.95
474.75	11028.60
474.93	11173.72
475.12	11391.39
475.30	11243.93
475.48	11063.71
475.66	11162.01
475.84	11110.52
476.02	11506.07
476.20	11101.16
476.38	11375.00
476.56	11779.92
476.74	11721.40
476.92	11604.38
477.10	11808.00
477.28	11932.05
477.46	12084.19
477.64	11887.58
477.82	12138.02
478.00	12456.33
478.18	12404.84
478.36	12552.29
478.54	12582.72
478.72	12556.97
478.90	12762.94
479.08	12994.65
479.26	12982.95
479.44	13132.75
479.62	12884.65
479.80	13277.86
479.98	13371.48
480.16	13762.35
480.34	13638.30
480.52	13715.54
480.70	13626.60
480.88	13518.93
481.06	13879.38
481.24	13823.20
481.41	14129.81
481.59	14321.74
481.77	14246.84
481.95	14326.42
482.13	14569.83
482.31	14597.92
482.49	14860.06
482.67	14747.72
482.85	15243.91
483.03	15096.46
483.21	15157.31
483.39	15321.15
483.57	15499.03
483.74	15417.11
483.92	15513.07
484.10	15550.52
484.28	15920.32
484.46	15894.58
484.64	16287.79
484.82	15910.96
485.00	16049.05
485.18	16514.82
485.35	16358.00
485.53	16189.49
485.71	15992.88
485.89	16262.04
486.07	16690.36
486.25	16510.14
486.43	16575.67
486.61	17064.85
486.78	17025.06
486.96	17076.55
487.14	17366.78
487.32	17439.33
487.50	17933.18
487.68	17947.23
487.85	18525.34
488.03	18188.30
488.21	18359.16
488.39	18464.49
488.57	18754.71
488.75	18642.37
488.92	18862.38
489.10	19185.37
489.28	19157.28
489.46	19604.33
489.64	19580.92
489.81	20198.82
489.99	20121.59
490.17	20130.95
490.35	20311.17
490.53	20065.41
490.70	20432.88
490.88	20428.20
491.06	20732.47
491.24	20510.11
491.41	20496.07
491.59	20524.16
491.77	20697.36
491.95	21188.87
492.13	21064.82
492.30	21638.25
492.48	21542.29
492.66	21303.56
492.84	21975.29
493.01	21848.90
493.19	21804.43
493.37	22333.39
493.54	22071.25
493.72	22457.44
493.90	22249.13
494.08	22745.33
494.25	23026.19
494.43	23307.05
494.61	23363.23
494.79	23428.76
494.96	23033.21
495.14	23463.87
495.32	23587.92
495.49	23349.18
495.67	23508.34
495.85	24339.23
496.02	24219.86
496.20	24432.85
496.38	24451.58
496.55	24610.73
496.73	24994.58
496.91	24620.10
497.09	25015.65
497.26	25259.06
497.44	24847.13
497.62	25046.07
497.79	25139.69
497.97	24907.98
498.14	25373.75
498.32	25411.20
498.50	25504.82
498.67	25785.68
498.85	25750.57
499.03	26075.91
499.20	26244.43
499.38	26277.19
499.56	26064.21
499.73	26625.93
499.91	26558.06
500.08	26628.27
500.26	26345.07
500.44	26426.99
500.61	26656.36
500.79	26663.38
500.97	26658.70
501.14	26654.02
501.32	26703.17
501.49	26920.84
501.67	27206.39
501.84	27414.69
502.02	27398.31
502.20	27520.02
502.37	27833.65
502.55	27740.03
502.72	27866.42
502.90	28088.77
503.07	27821.95
503.25	27946.00
503.43	27791.52
503.60	27885.14
503.78	28247.93
503.95	28112.17
504.13	28685.61
504.30	28538.15
504.48	28357.93
504.65	28793.27
504.83	29067.11
505.01	29127.97
505.18	29434.58
505.36	28872.85
505.53	29113.92
505.71	29589.05
505.88	29738.85
506.06	29289.46
506.23	29497.77
506.41	29142.01
506.58	29567.99
506.76	29502.45
506.93	30110.99
507.11	30113.33
507.28	29923.75
507.46	29673.31
507.63	29956.52
507.81	30059.50
507.98	30235.04
508.16	30066.52
508.33	30466.75
508.50	30426.96
508.68	30778.04
508.85	31213.38
509.03	31166.57
509.20	30691.44
509.38	31278.92
509.55	31213.38
509.73	31468.50
509.90	31255.51
510.08	31489.57
510.25	31503.61
510.42	31543.40
510.60	31517.65
510.77	31562.12
510.95	31594.89
511.12	31899.16
511.30	32278.33
511.47	32121.51
511.64	32638.77
511.82	32385.99
511.99	32102.79
512.17	32397.70
512.34	32367.27
512.51	32196.41
512.69	32746.44
512.86	32833.04
513.04	33041.34
513.21	32666.86
513.38	32919.63
513.56	32400.04
513.73	32685.58
513.90	33081.13
514.08	32994.53
514.25	33116.24
514.43	33015.60
514.60	33092.83
514.77	33394.76
514.95	33333.91
515.12	33574.98
515.29	33373.70
515.47	33930.75
515.64	33907.34
515.81	33357.32
515.99	33649.88
516.16	33799.68
516.33	33523.49
516.51	33633.50
516.68	33294.12
516.85	33593.71
517.03	33600.73
517.20	34321.62
517.37	34007.98
517.54	34499.50
517.72	34625.89
517.89	34029.05
518.06	33947.13
518.24	34162.46
518.41	34527.58
518.58	34588.44
518.75	34623.54
518.93	34934.84
519.10	34822.49
519.27	34923.13
519.45	34878.66
519.62	34948.88
519.79	35222.72
519.96	35358.47
520.14	35147.82
520.31	34883.34
520.48	35723.60
520.65	35782.11
520.83	35496.56
521.00	36147.23
521.17	35747.00
521.34	35908.50
521.52	35922.54
521.69	36105.10
521.86	36893.86
522.03	36477.25
522.20	36306.39
522.38	36203.41
522.55	36563.85
522.72	36470.23
522.89	36250.22
523.07	36360.22
523.24	36582.57
523.41	36779.18
523.58	36898.55
523.75	37504.74
523.92	37371.33
524.10	36917.27
524.27	37148.98
524.44	37230.90
524.61	37495.38
524.78	37221.54
524.96	37724.75
525.13	37785.61
525.30	37879.23
525.47	37778.59
525.64	37490.70
525.81	38106.26
525.98	37413.46
526.16	37336.23
526.33	36795.56
526.50	38073.49
526.67	37177.07
526.84	37249.63
527.01	37207.50
527.18	37708.37
527.36	38190.52
527.53	38431.60
527.70	38195.20
527.87	38337.98
528.04	38359.04
528.21	38403.51
528.38	38272.44
528.55	38604.80
528.72	38733.53
528.89	39065.88
529.07	38880.98
529.24	38557.99
529.41	38710.12
529.58	38871.62
529.75	38422.23
529.92	38829.49
530.09	38735.87
530.26	39047.16
530.43	39019.07
530.60	39082.27
530.77	38960.56
530.94	39302.28
531.11	39526.97
531.28	39433.35
531.46	39271.85
531.63	39529.31
531.80	39215.68
531.97	39653.36
532.14	39374.83
532.31	39103.33
532.48	39264.83
532.65	39653.36
532.82	39225.04
532.99	39711.87
533.16	39306.96
533.33	39971.67
533.50	39824.22
533.67	39459.09
533.84	39765.70
534.01	39983.37
534.18	40140.19
534.35	40137.85
534.52	40163.59
534.69	40341.47
534.86	40556.80
535.03	40245.51
535.20	40561.48
535.37	40636.38
535.54	40910.22
535.71	40266.58
535.88	40479.57
536.05	40720.64
536.22	40746.39
536.38	40950.01
536.55	40460.84
536.72	41139.60
536.89	40271.26
537.06	40952.35
537.23	41123.21
537.40	40875.12
537.57	41125.55
537.74	41041.29
537.91	41139.60
538.08	41141.94
538.25	41333.86
538.42	41055.34
538.59	41588.98
538.75	41177.04
538.92	41404.08
539.09	41097.47
539.26	41600.68
539.43	41607.70
539.60	41481.31
539.77	41305.77
539.94	41816.01
540.11	41202.79
540.28	41572.60
540.44	41200.45
540.61	41483.66
540.78	41535.15
540.95	41785.58
541.12	41544.51
541.29	41687.28
541.46	41731.75
541.62	41853.46
541.79	42153.05
541.96	41507.06
542.13	42036.02
542.30	42101.56
542.47	41900.27
542.63	41993.89
542.80	42185.82
542.97	42384.76
543.14	43161.82
543.31	42548.60
543.48	42792.01
543.64	43037.77
543.81	43040.11
543.98	42667.97
544.15	43000.32
544.32	42937.13
544.48	43400.55
544.65	42979.26
544.82	43215.65
544.99	42408.17
545.16	43089.26
545.32	42880.95
545.49	43477.79
545.66	43229.69
545.83	43299.91
546.00	43529.28
546.16	43367.79
546.33	43023.73
546.50	42817.76
546.67	43220.33
546.83	42841.17
547.00	43112.67
547.17	43377.15
547.34	43229.69
547.50	43318.64
547.67	43412.26
547.84	43407.58
548.00	44105.06
548.17	43592.48
548.34	43452.05
548.51	44013.77
548.67	43761.00
548.84	43913.13
549.01	43807.81
549.18	43704.82
549.34	44238.47
549.51	43812.49
549.68	43973.98
549.84	44025.48
550.01	44044.20
550.18	44186.97
550.34	43866.32
550.51	44065.27
550.68	44002.07
550.84	43749.29
551.01	44406.98
551.18	44552.10
551.34	43721.21
551.51	44053.56
551.68	44002.07
551.84	44453.79
552.01	44114.42
552.18	43903.77
552.34	43966.96
552.51	44479.54
552.68	44201.02
552.84	44554.44
553.01	44793.17
553.18	44304.00
553.34	44322.72
553.51	43992.71
553.67	44421.03
553.84	44732.32
554.01	44760.40
554.17	44470.18
554.34	44662.10
554.51	44641.04
554.67	44865.73
554.84	44748.70
555.00	44566.14
555.17	44634.02
555.33	44769.77
555.50	44861.05
555.67	44575.50
555.83	44914.88
556.00	45139.57
556.16	45097.44
556.33	44713.59
556.50	44414.01
556.66	44727.64
556.83	44776.79
556.99	44940.63
557.16	45141.91
557.32	45006.16
557.49	45476.61
557.65	44844.66
557.82	44863.39
557.98	45223.83
558.15	44978.07
558.32	44971.05
558.48	44987.44
558.65	44992.12
558.81	44931.26
558.98	44793.17
559.14	45275.32
559.31	44957.01
559.47	45509.38
559.64	45790.24
559.80	45471.93
559.97	45474.27
560.13	45401.71
560.30	45434.48
560.46	45209.79
560.63	45184.04
560.79	45415.76
560.96	45048.29
561.12	45858.12
561.29	45228.51
561.45	45511.72
561.61	45361.92
561.78	45291.71
561.94	45174.68
562.11	45453.20
562.27	45516.40
562.44	45663.85
562.60	46007.91
562.77	46181.11
562.93	45418.10
563.10	46005.57
563.26	45560.87
563.42	45801.94
563.59	45694.28
563.75	45263.62
563.92	45504.70
564.08	45780.88
564.24	45916.63
564.41	45689.60
564.57	45666.19
564.74	45500.01
564.90	45518.74
565.07	45624.06
565.23	45539.80
565.39	45645.13
565.56	45813.65
565.72	45177.02
565.88	45464.91
566.05	45918.97
566.21	45565.55
566.38	45954.08
566.54	45621.72
566.70	46225.58
566.87	46316.86
567.03	45755.13
567.19	46394.10
567.36	45930.67
567.52	45329.16
567.68	45787.90
567.85	45720.02
568.01	45862.80
568.17	45907.27
568.34	46110.89
568.50	45787.90
568.66	45588.95
568.83	45820.67
568.99	45469.59
569.15	45916.63
569.32	45918.97
569.48	45715.34
569.64	46232.60
569.81	45961.10
569.97	45647.47
570.13	46169.41
570.30	45876.84
570.46	45757.47
570.62	45820.67
570.78	45729.39
570.95	45701.30
571.11	45820.67
571.27	45504.70
571.43	45603.00
571.60	46157.70
571.76	45787.90
571.92	46040.68
572.09	45811.31
572.25	45975.14
572.41	45830.03
572.57	46307.50
572.74	46141.32
572.90	45930.67
573.06	46223.24
573.22	46234.94
573.38	46274.73
573.55	46253.67
573.71	46157.70
573.87	46384.74
574.03	45996.21
574.20	46319.20
574.36	46223.24
574.52	45874.50
574.68	46396.44
574.84	45834.71
575.01	45895.56
575.17	45858.12
575.33	45886.20
575.49	46012.59
575.65	46197.49
575.82	46382.40
575.98	46162.39
576.14	46457.29
576.30	46223.24
576.46	45916.63
576.62	46019.61
576.79	45982.16
576.95	45930.67
577.11	46366.01
577.27	46295.80
577.43	46188.13
577.59	46363.67
577.75	45998.55
577.92	45886.20
578.08	45652.15
578.24	45696.62
578.40	45762.15
578.56	46155.36
578.72	45801.94
578.88	46115.58
579.04	46380.06
579.21	46024.29
579.37	46281.75
579.53	45977.48
579.69	45958.76
579.85	45949.40
580.01	46438.57
580.17	46050.04
580.33	46164.73
580.49	46028.98
580.65	46443.25
580.82	46476.02
580.98	46129.62
581.14	46146.00
581.30	46162.39
581.46	46485.38
581.62	46330.90
581.78	46050.04
581.94	46417.50
582.10	46010.25
582.26	46398.78
582.42	46410.48
582.58	46134.30
582.74	46239.62
582.90	46059.40
583.06	46323.88
583.22	46272.39
583.38	46602.41
583.54	46274.73
583.70	46176.43
583.86	46272.39
584.02	45993.87
584.18	46440.91
584.34	45928.33
584.50	46309.84
584.66	46218.56
584.82	46108.55
584.98	46520.49
585.14	46550.91
585.30	46314.52
585.46	46000.89
585.62	46169.41
585.78	45996.21
585.94	45970.46
586.10	46017.27
586.26	46171.75
586.42	46305.16
586.58	46316.86
586.74	46377.72
586.90	46335.59
587.06	46349.63
587.22	46218.56
587.38	45834.71
587.54	46487.72
587.70	46164.73
587.86	46085.15
588.02	46040.68
588.18	46436.23
588.34	45904.93
588.49	45488.31
588.65	45881.52
588.81	45689.60
588.97	45909.61
589.13	45553.85
589.29	45879.18
589.45	46129.62
589.61	46244.30
589.77	46433.89
589.93	46131.96
590.08	46211.54
590.24	46583.68
590.40	46473.68
590.56	46773.27
590.72	46597.73
590.88	46553.26
591.04	46225.58
591.20	46700.71
591.35	46532.19
591.51	46485.38
591.67	46747.52
591.83	46454.95
591.99	46457.29
592.15	46473.68
592.31	46623.47
592.46	46373.03
592.62	46026.63
592.78	46930.08
592.94	46712.41
593.10	46330.90
593.26	46508.79
593.41	46520.49
593.57	46513.47
593.73	46497.08
593.89	46586.02
594.05	46438.57
594.20	46504.10
594.36	46550.91
594.52	46164.73
594.68	46274.73
594.84	46267.71
594.99	46574.32
595.15	46227.92
595.31	46569.64
595.47	46373.03
595.62	46527.51
595.78	46728.80
595.94	46604.75
596.10	46452.61
596.25	46635.17
596.41	46672.62
596.57	46742.84
596.73	46642.20
596.88	46410.48
597.04	46677.30
597.20	46263.03
597.36	46480.70
597.51	46445.59
597.67	46738.16
597.83	46319.20
597.99	46342.61
598.14	46712.41
598.30	46499.42
598.46	46281.75
598.61	46581.34
598.77	46459.63
598.93	46253.67
599.09	46520.49
599.24	47262.44
599.40	46939.44
599.56	46431.55
599.71	46469.00
599.87	46902.00
600.03	46457.29
600.18	46199.83
600.34	46380.06
600.50	46752.20
600.65	46349.63
600.81	46473.68
600.97	46469.00
601.12	46642.20
601.28	46691.35
601.44	46461.97
601.59	46277.07
601.75	46230.26
601.91	46024.29
602.06	46380.06
602.22	46513.47
602.37	46309.84
602.53	46155.36
602.69	46972.21
602.84	46344.95
603.00	46176.43
603.16	46511.13
603.31	46253.67
603.47	46476.02
603.62	46075.79
603.78	46347.29
603.94	46211.54
604.09	46225.58
604.25	46738.16
604.40	46387.08
604.56	46349.63
604.71	46499.42
604.87	45947.06
605.03	45982.16
605.18	46281.75
605.34	46218.56
605.49	46054.72
605.65	46234.94
605.80	46464.32
605.96	46110.89
606.12	46513.47
606.27	46312.18
606.43	46162.39
606.58	46204.52
606.74	46253.67
606.89	46003.23
607.05	46555.60
607.20	46391.76
607.36	46183.45
607.51	46192.81
607.67	46497.08
607.82	46665.60
607.98	46230.26
608.13	45909.61
608.29	46073.45
608.44	45940.04
608.60	45474.27
608.75	45495.33
608.91	45975.14
609.06	45916.63
609.22	46066.42
609.37	45605.34
609.53	46003.23
609.68	45839.39
609.84	45790.24
609.99	45621.72
610.15	45830.03
610.30	45961.10
610.46	45525.76
610.61	45757.47
610.76	45375.97
610.92	45820.67
611.07	45633.42
611.23	45736.41
611.38	45792.58
611.54	45872.16
611.69	45624.06
611.84	45415.76
612.00	45464.91
612.15	45294.05
612.31	45525.76
612.46	45492.99
612.62	45642.79
612.77	45794.92
612.92	46017.27
613.08	45361.92
613.23	45708.32
613.39	45490.65
613.54	45284.68
613.69	45214.47
613.85	45401.71
614.00	45368.94
614.15	45446.18
614.31	45387.67
614.46	45478.95
614.62	45586.61
614.77	45144.25
614.92	45284.68
615.08	45141.91
615.23	44940.63
615.38	45244.90
615.54	44985.10
615.69	44851.69
615.84	45181.70
616.00	45034.25
616.15	44769.77
616.30	45390.01
616.46	44966.37
616.61	44596.57
616.76	45029.57
616.92	44381.24
617.07	44729.98
617.22	44847.00
617.37	44385.92
617.53	45158.30
617.68	45062.33
617.83	44804.88
617.99	45010.84
618.14	44605.93
618.29	45172.34
618.45	44741.68
618.60	44449.11
618.75	44229.10
618.90	44978.07
619.06	44531.03
619.21	44973.39
619.36	44816.58
619.51	44643.38
619.67	44453.79
619.82	44739.34
619.97	44659.76
620.12	44587.21
620.28	44182.29
620.43	44549.76
620.58	44229.10
620.73	44552.10
620.89	44411.67
621.04	44538.05
621.19	44137.82
621.34	44481.88
621.49	44121.44
621.65	44383.58
621.80	43901.43
621.95	43906.11
622.10	44552.10
622.25	43908.45
622.41	43739.93
622.56	43414.60
622.71	44172.93
622.86	43847.60
623.01	44086.33
623.16	43959.94
623.32	43922.49
623.47	43966.96
623.62	43910.79
623.77	43758.66
623.92	44151.87
624.07	43753.97
624.23	43489.49
624.38	43241.40
624.53	43690.78
624.68	43524.60
624.83	43821.85
624.98	43676.74
625.13	42932.45
625.29	43250.76
625.44	43318.64
625.59	42972.24
625.74	42848.19
625.89	42995.64
626.04	42873.93
626.19	43318.64
626.34	43398.21
626.49	43253.10
626.65	43440.34
626.80	43358.42
626.95	43349.06
627.10	42974.58
627.25	43250.76
627.40	42789.67
627.55	42548.60
627.70	42803.72
627.85	43033.09
628.00	42660.94
628.15	42766.27
628.30	42674.99
628.45	43126.71
628.60	43274.16
628.76	43098.62
628.91	42689.03
629.06	42307.52
629.21	42691.37
629.36	42728.82
629.51	42403.49
629.66	42478.38
629.81	42045.38
629.96	42335.61
630.11	42700.73
630.26	42705.41
630.41	42789.67
630.56	42410.51
630.71	42412.85
630.86	42375.40
631.01	42267.73
631.16	42169.43
631.31	42415.19
631.46	42366.04
631.61	42232.63
631.76	41975.17
631.91	42462.00
632.06	42330.93
632.21	42169.43
632.36	42670.31
632.51	41731.75
632.66	41986.87
632.81	41783.24
632.96	41968.15
633.10	41942.40
633.25	41701.32
633.40	42169.43
633.55	42115.60
633.70	42150.71
633.85	41607.70
634.00	41825.37
634.15	41427.48
634.30	41947.08
634.45	41668.56
634.60	42146.03
634.75	41724.73
634.90	41574.94
635.05	41455.57
635.19	41425.14
635.34	41757.50
635.49	41563.23
635.64	41607.70
635.79	41827.71
635.94	41598.34
636.09	41869.84
636.24	41282.37
636.39	41310.46
636.53	41558.55
636.68	41418.12
636.83	41441.53
636.98	41493.02
637.13	41062.36
637.28	41181.73
637.43	41280.03
637.57	41329.18
637.72	41366.63
637.87	41174.70
638.02	40938.31
638.17	41186.41
638.32	41432.16
638.46	41057.68
638.61	40985.12
638.76	40856.39
638.91	40786.18
639.06	41170.02
639.20	41055.34
639.35	41043.63
639.50	40973.42
639.65	40872.78
639.80	41221.52
639.94	40725.32
640.09	41003.85
640.24	40587.23
640.39	40163.59
640.54	40832.99
640.68	40741.71
640.83	40828.30
640.98	40294.66
641.13	40231.47
641.27	40760.43
641.42	40198.70
641.57	40194.02
641.72	40432.75
641.86	40121.46
642.01	40004.44
642.16	40612.98
642.31	39941.24
642.45	40414.03
642.60	39894.43
642.75	40397.65
642.90	40371.90
643.04	40055.93
643.19	39639.31
643.34	40208.06
643.48	39915.50
643.63	40329.77
643.78	40154.23
643.93	39751.66
644.07	40011.46
644.22	39709.53
644.37	39681.44
644.51	39957.63
644.66	39704.85
644.81	40184.66
644.95	39868.69
645.10	39952.94
645.25	40378.92
645.39	40095.72
645.54	39952.94
645.69	39842.94
645.83	39849.96
645.98	39833.58
646.13	39372.49
646.27	39674.42
646.42	39557.39
646.57	39665.06
646.71	39627.61
646.86	39786.77
647.00	39852.30
647.15	39557.39
647.30	39257.81
647.44	39737.62
647.59	39522.29
647.74	39510.58
647.88	39323.34
648.03	39739.96
648.17	39152.48
648.32	39100.99
648.47	39243.76
648.61	38988.64
648.76	39164.18
648.90	39548.03
649.05	39070.56
649.20	39061.20
649.34	39655.70
649.49	39218.02
649.63	38632.88
649.78	38810.76
649.92	38902.04
650.07	39189.93
650.21	38738.21
650.36	38986.30
650.51	38667.99
650.65	39496.54
650.80	39082.27
650.94	39491.86
651.09	39545.69
651.23	38885.66
651.38	38927.79
651.52	38656.29
651.67	39201.63
651.81	38660.97
651.96	38679.69
652.10	38345.00
652.25	38693.74
652.39	38658.63
652.54	38579.05
652.68	38494.79
652.83	38455.00
652.97	39196.95
653.12	38663.31
653.26	38103.92
653.41	38340.32
653.55	38078.18
653.70	38291.16
653.84	38483.09
653.99	38431.60
654.13	38363.72
654.27	38658.63
654.42	37806.67
654.56	38022.00
654.71	38103.92
654.85	38115.62
655.00	38178.82
655.14	37867.53
655.29	37467.30
655.43	37504.74
655.57	37446.23
655.72	37226.22
655.86	37141.96
656.01	37345.59
656.15	37455.59
656.30	37553.90
656.44	37425.17
656.58	37514.11
656.73	37872.21
656.87	37832.42
657.01	37230.90
657.16	37490.70
657.30	37352.61
657.45	37046.00
657.59	37464.96
657.73	37305.80
657.88	37846.46
658.02	37610.07
658.16	37809.01
658.31	37844.12
658.45	37509.43
658.60	37188.77
658.74	37336.23
658.88	37284.73
659.03	36938.33
659.17	36828.33
659.31	37043.66
659.46	36896.20
659.60	36765.14
659.74	37418.14
659.89	37301.12
660.03	36999.19
660.17	37207.50
660.32	36821.31
660.46	37258.99
660.60	36828.33
660.74	36608.32
660.89	36685.56
661.03	36388.31
661.17	36435.12
661.32	36142.55
661.46	36224.47
661.60	36383.63
661.74	36460.87
661.89	36748.75
662.03	36311.07
662.17	36465.55
662.31	35861.69
662.46	36804.92
662.60	36481.93
662.74	35967.01
662.88	35861.69
663.03	35964.67
663.17	35952.97
663.31	35995.10
663.45	35763.39
663.60	36177.66
663.74	35810.20
663.88	35475.50
664.02	35269.53
664.17	35849.99
664.31	35592.53
664.45	35688.49
664.59	35379.54
664.73	35342.09
664.88	35419.33
665.02	35154.85
665.16	35428.69
665.30	34958.24
665.44	35108.04
665.59	34700.78
665.73	34675.04
665.87	35225.06
666.01	35084.63
666.15	34642.27
666.29	34972.28
666.44	35091.65
666.58	34546.31
666.72	35173.57
666.86	34637.59
667.00	34789.72
667.14	34471.41
667.28	34267.78
667.43	34356.72
667.57	34513.54
667.71	34281.83
667.85	34682.06
667.99	34031.39
668.13	34183.52
668.27	34209.27
668.41	34532.26
668.56	33532.86
668.70	34052.45
668.84	33589.03
668.98	33479.02
669.12	33738.82
669.26	33823.08
669.40	33432.21
669.54	33460.30
669.68	33273.06
669.82	33184.12
669.96	33284.76
670.10	33401.79
670.25	33097.52
670.39	33268.37
670.53	32952.40
670.67	33067.09
670.81	33273.06
670.95	33301.14
671.09	33244.97
671.23	33116.24
671.37	33027.30
671.51	32409.40
671.65	32683.24
671.79	32481.95
671.93	32524.08
672.07	32830.69
672.21	32481.95
672.35	32404.72
672.49	32383.65
672.63	32498.34
672.77	32116.83
672.91	32348.54
673.05	32229.18
673.19	31960.02
673.33	32142.58
673.47	31782.13
673.61	31550.42
673.75	31828.95
673.89	31531.70
674.03	30923.16
674.17	31335.09
674.31	31772.77
674.45	31477.86
674.59	31358.50
674.73	31737.66
674.87	31023.80
675.01	31323.39
675.15	30946.56
675.29	31051.89
675.43	30792.09
675.56	30967.63
675.70	30771.02
675.84	30707.83
675.98	29778.64
676.12	30803.79
676.26	30691.44
676.40	30373.13
676.54	30799.11
676.68	30864.64
676.82	29825.45
676.96	30356.75
677.10	30277.17
677.23	29879.28
677.37	30272.49
677.51	29717.78
677.65	29387.77
677.79	29111.58
677.93	29495.43
678.07	29113.92
678.21	29191.16
678.34	28795.61
678.48	28924.34
678.62	28802.63
678.76	28776.89
678.90	28407.08
679.04	28226.86
679.18	28650.50
679.31	28276.01
679.45	28367.29
679.59	27981.10
679.73	28067.70
679.87	28093.45
680.00	27744.71
680.14	27878.12
680.28	27821.95
680.42	28030.26
680.56	27938.97
680.70	27761.09
680.83	27950.68
680.97	27864.08
681.11	27482.57
681.25	27309.37
681.39	27353.84
681.52	27281.28
681.66	27365.54
681.80	27253.20
681.94	26761.69
682.07	27140.85
682.21	26780.41
682.35	26904.46
682.49	26874.03
682.62	26782.75
682.76	26522.95
682.90	26410.60
683.04	26127.40
683.17	26120.38
683.31	26078.25
683.45	25888.67
683.59	25668.66
683.72	25816.11
683.86	25979.95
684.00	25825.47
684.13	25544.61
684.27	25165.44
684.41	25406.52
684.55	25055.43
684.68	25319.92
684.82	25448.64
684.96	25273.10
685.09	25221.61
685.23	24823.72
685.37	24594.35
685.50	24411.79
685.64	24535.84
685.78	24528.81
685.91	24393.06
686.05	24222.20
686.19	24259.65
686.32	23566.85
686.46	23665.16
686.60	23812.61
686.73	23349.18
686.87	23342.16
687.01	23260.24
687.14	23117.47
687.28	22965.34
687.42	23115.13
687.55	23283.65
687.69	23377.27
687.82	22852.99
687.96	23215.77
688.10	22817.88
688.23	22773.41
688.37	22562.76
688.50	22412.97
688.64	22705.54
688.78	22469.14
688.91	22647.02
689.05	22441.06
689.18	22328.71
689.32	22097.00
689.46	22214.02
689.59	22249.13
689.73	22115.72
689.86	21930.82
690.00	21965.93
690.13	21998.70
690.27	21881.67
690.41	21546.97
690.54	21453.35
690.68	21462.71
690.81	21425.26
690.95	21355.05
691.08	21455.69
691.22	21495.48
691.35	21092.91
691.49	21287.17
691.62	21048.44
691.76	20730.12
691.89	20889.28
692.03	20877.58
692.16	20695.02
692.30	20538.20
692.43	20425.86
692.57	20397.77
692.70	20292.44
692.84	20311.17
692.97	19744.76
693.11	20009.24
693.24	20133.29
693.38	19695.61
693.51	19791.57
693.65	20177.76
693.78	19913.28
693.92	20006.90
694.05	19473.26
694.19	19323.46
694.32	19396.02
694.45	19290.70
694.59	19154.94
694.72	18988.77
694.86	19215.80
694.99	19009.83
695.13	18478.53
695.26	18937.27
695.39	18764.07
695.53	18895.14
695.66	18698.54
695.80	18703.22
695.93	18745.35
696.07	18387.25
696.20	18347.46
696.33	18267.88
696.47	18647.05
696.60	17940.21
696.73	17839.56
696.87	17853.61
697.00	17830.20
697.14	17893.40
697.27	17603.17
697.40	17851.27
697.54	17673.39
697.67	17678.07
697.80	17348.05
697.94	17322.30
698.07	17156.13
698.21	17436.99
698.34	17181.87
698.47	16896.33
698.61	16835.47
698.74	16739.51
698.87	16428.22
699.01	16329.92
699.14	16570.99
699.27	16475.03
699.40	16133.31
699.54	16252.68
699.67	16250.34
699.80	16390.77
699.94	16039.69
700.07	16159.06
700.20	16149.70
700.34	16191.83
700.47	16140.33
700.60	16191.83
700.73	16334.60
700.87	15714.36
701.00	15747.12
701.13	15789.25
701.26	15527.11
701.40	15370.30
701.53	15337.53
701.66	15098.80
701.79	15253.27
701.93	15164.33
702.06	15208.80
702.19	14883.47
702.32	15206.46
702.46	15154.97
702.59	15122.20
702.72	14974.75
702.85	14827.29
702.99	14888.15
703.12	14438.76
703.25	14363.87
703.38	14677.50
703.51	14518.34
703.65	14211.73
703.78	14349.82
703.91	14181.31
704.04	14099.39
704.17	14031.51
704.31	14279.61
704.44	14136.84
704.57	13914.48
704.70	13729.58
704.83	13912.14
704.96	13989.38
705.10	13940.23
705.23	13551.70
>>>>>End Processed Spectral Data<<<<<
