SpectraSuite Data File
++++++++++++++++++++++++++++++++++++
Date: Fri Oct 25 10:47:42 EDT 2013
User: price-jones
Dark Spectrum Present: No
Reference Spectrum Present: No
Number of Sampled Component Spectra: 1
Spectrometers: USB2+H05261
Integration Time (usec): 100000 (USB2+H05261)
Spectra Averaged: 1 (USB2+H05261)
Boxcar Smoothing: 0 (USB2+H05261)
Correct for Electrical Dark: No (USB2+H05261)
Strobe/Lamp Enabled: No (USB2+H05261)
Correct for Detector Non-linearity: No (USB2+H05261)
Correct for Stray Light: No (USB2+H05261)
Number of Pixels in Processed Spectrum: 2048
>>>>>Begin Processed Spectral Data<<<<<
365.73	170.86
365.92	170.86
366.12	170.86
366.32	0.00
366.52	60.85
366.72	84.26
366.91	53.83
367.11	0.00
367.31	49.15
367.51	0.00
367.70	121.71
367.90	51.49
368.10	0.00
368.30	114.69
368.49	11.70
368.69	98.30
368.89	49.15
369.09	28.09
369.28	74.90
369.48	117.03
369.68	67.88
369.87	102.98
370.07	124.05
370.27	140.43
370.47	168.52
370.66	442.36
370.86	367.46
371.06	444.70
371.25	510.24
371.45	449.38
371.65	519.60
371.84	418.96
372.04	397.89
372.24	498.53
372.44	496.19
372.63	447.04
372.83	428.32
373.03	437.68
373.22	526.62
373.42	524.28
373.62	482.15
373.81	582.79
374.01	554.71
374.21	561.73
374.40	489.17
374.60	468.11
374.79	484.49
374.99	578.11
375.19	561.73
375.38	540.66
375.58	543.00
375.78	643.65
375.97	575.77
376.17	681.10
376.37	554.71
376.56	571.09
376.76	517.26
376.95	613.22
377.15	678.76
377.35	610.88
377.54	566.41
377.74	585.13
377.93	725.57
378.13	592.16
378.33	589.82
378.52	594.50
378.72	582.79
378.91	578.11
379.11	573.43
379.31	601.52
379.50	592.16
379.70	575.77
379.89	645.99
380.09	575.77
380.28	589.82
380.48	643.65
380.68	610.88
380.87	641.31
381.07	716.20
381.26	716.20
381.46	692.80
381.65	695.14
381.85	737.27
382.04	624.92
382.24	725.57
382.43	683.44
382.63	734.93
382.83	704.50
383.02	653.01
383.22	786.42
383.41	678.76
383.61	744.29
383.80	753.65
384.00	662.37
384.19	800.46
384.39	805.14
384.58	767.70
384.78	814.51
384.97	809.83
385.17	849.61
385.36	683.44
385.56	753.65
385.75	788.76
385.95	739.61
386.14	772.38
386.34	713.86
386.53	781.74
386.72	763.01
386.92	784.08
387.11	795.78
387.31	849.61
387.50	798.12
387.70	774.72
387.89	793.44
388.09	727.91
388.28	765.36
388.48	837.91
388.67	788.76
388.86	905.79
389.06	889.40
389.25	835.57
389.45	835.57
389.64	805.14
389.84	1001.75
390.03	898.77
390.22	896.43
390.42	889.40
390.61	957.28
390.81	863.66
391.00	903.45
391.19	1025.15
391.39	992.39
391.58	959.62
391.78	929.19
391.97	952.60
392.16	971.32
392.36	966.64
392.55	1018.13
392.75	940.90
392.94	910.47
393.13	915.15
393.33	933.87
393.52	966.64
393.71	1128.14
393.91	1102.39
394.10	1018.13
394.29	1034.52
394.49	1064.94
394.68	1093.03
394.88	1060.26
395.07	1172.61
395.26	1163.25
395.46	1088.35
395.65	1142.18
395.84	1116.44
396.04	1261.55
396.23	1078.99
396.42	1121.12
396.62	1111.75
396.81	1097.71
397.00	1109.41
397.19	1121.12
397.39	1177.29
397.58	1203.04
397.77	1268.57
397.97	1296.66
398.16	1263.89
398.35	1226.44
398.55	1266.23
398.74	1254.53
398.93	1310.70
399.12	1327.08
399.32	1315.38
399.51	1327.08
399.70	1352.83
399.90	1406.66
400.09	1413.68
400.28	1336.45
400.47	1371.55
400.67	1504.96
400.86	1432.41
401.05	1425.39
401.24	1453.47
401.44	1509.65
401.63	1488.58
401.82	1504.96
402.01	1561.14
402.21	1490.92
402.40	1577.52
402.59	1577.52
402.78	1514.33
402.97	1500.28
403.17	1647.74
403.36	1519.01
403.55	1528.37
403.74	1626.67
403.93	1696.89
404.13	1605.61
404.32	1563.48
404.51	1689.87
404.70	1682.85
404.89	1629.01
405.09	1771.79
405.28	1734.34
405.47	1729.66
405.66	1739.02
405.85	1734.34
406.05	1713.27
406.24	1645.40
406.43	1762.42
406.62	1750.72
406.81	1905.20
407.00	1907.54
407.20	1783.49
407.39	1870.09
407.58	1933.28
407.77	1975.41
407.96	1898.17
408.15	1898.17
408.34	1879.45
408.54	2017.54
408.73	2045.63
408.92	1977.75
409.11	1935.62
409.30	2076.06
409.49	2038.61
409.68	1994.14
409.87	2012.86
410.07	2073.71
410.26	2078.40
410.45	2036.27
410.64	2127.55
410.83	2139.25
411.02	2176.70
411.21	2174.36
411.40	2207.13
411.59	2272.66
411.78	2225.85
411.98	2366.28
412.17	2193.08
412.36	2289.04
412.55	2438.84
412.74	2422.45
412.93	2389.69
413.12	2373.30
413.31	2459.90
413.50	2399.05
413.69	2473.95
413.88	2513.74
414.07	2492.67
414.26	2621.40
414.45	2614.38
414.64	2637.78
414.83	2656.51
415.02	2740.77
415.22	2710.34
415.41	2710.34
415.60	2717.36
415.79	2750.13
415.98	2857.79
416.17	2768.85
416.36	2808.64
416.55	2923.33
416.74	3066.10
416.93	3016.95
417.12	2904.60
417.31	2888.22
417.50	2902.26
417.69	3089.51
417.88	3005.25
418.07	3040.36
418.26	2967.80
418.45	3108.23
418.64	3145.68
418.83	3176.11
419.02	3124.62
419.21	3213.56
419.39	3162.06
419.58	3126.96
419.77	3157.38
419.96	3314.20
420.15	3323.56
420.34	3227.60
420.53	3246.32
420.72	3417.18
420.91	3428.88
421.10	3316.54
421.29	3372.71
421.48	3550.59
421.67	3428.88
421.86	3265.05
422.05	3309.52
422.24	3379.73
422.43	3361.01
422.61	3358.67
422.80	3386.76
422.99	3595.06
423.18	3595.06
423.37	3534.21
423.56	3559.95
423.75	3466.33
423.94	3571.66
424.13	3215.90
424.32	3375.05
424.50	3466.33
424.69	3630.17
424.88	3637.19
425.07	3492.08
425.26	3407.82
425.45	3517.83
425.64	3585.70
425.83	3564.64
426.01	3651.24
426.20	3496.76
426.39	3471.01
426.58	3585.70
426.77	3522.51
426.96	3681.66
427.15	3552.93
427.33	3702.73
427.52	3634.85
427.71	3627.83
427.90	3721.45
428.09	3707.41
428.28	3630.17
428.46	3721.45
428.65	3784.65
428.84	3880.61
429.03	3885.29
429.22	3791.67
429.40	3777.62
429.59	3749.54
429.78	3611.45
429.97	3583.36
430.16	3693.37
430.34	3754.22
430.53	3719.11
430.72	3882.95
430.91	3751.88
431.10	3922.74
431.28	4058.49
431.47	4037.42
431.66	4112.32
431.85	4030.40
432.03	4042.11
432.22	4259.78
432.41	4203.60
432.60	4051.47
432.79	4159.13
432.97	4255.09
433.16	4180.20
433.35	4067.85
433.54	4187.22
433.72	4273.82
433.91	4180.20
434.10	4355.74
434.28	4280.84
434.47	4301.90
434.66	4334.67
434.85	4425.95
435.03	4479.79
435.22	4475.10
435.41	4484.47
435.59	4498.51
435.78	4521.92
435.97	4573.41
436.16	4561.70
436.34	4622.56
436.53	4531.28
436.72	4690.43
436.90	4369.78
437.09	4521.92
437.28	4571.07
437.46	4624.90
437.65	4664.69
437.84	4613.20
438.02	4676.39
438.21	4627.24
438.40	4634.26
438.58	4798.10
438.77	4837.89
438.96	4954.91
439.14	4990.02
439.33	5125.77
439.52	4865.97
439.70	4999.38
439.89	5188.97
440.08	5057.90
440.26	5055.56
440.45	5116.41
440.63	5195.99
440.82	5195.99
441.01	5268.55
441.19	5165.56
441.38	5371.53
441.57	5345.78
441.75	5399.62
441.94	5504.94
442.12	5556.43
442.31	5617.29
442.50	5640.69
442.68	5568.13
442.87	5542.39
443.05	5650.05
443.24	5881.77
443.43	5764.74
443.61	5654.73
443.80	5853.68
443.98	5643.03
444.17	5554.09
444.35	5806.87
444.54	5809.21
444.73	5699.20
444.91	5619.63
445.10	5645.37
445.28	5607.92
445.47	5701.54
445.65	5701.54
445.84	5886.45
446.02	5968.37
446.21	5891.13
446.39	5973.05
446.58	5846.66
446.77	5820.91
446.95	5797.51
447.14	5994.11
447.32	6073.69
447.51	5851.34
447.69	5760.06
447.88	6036.24
448.06	6005.81
448.25	5884.11
448.43	6050.28
448.62	5926.24
448.80	5856.02
448.99	5984.75
449.17	6183.70
449.36	6031.56
449.54	6167.31
449.73	6134.54
449.91	6296.04
450.10	6083.05
450.28	6267.95
450.46	6373.28
450.65	6300.72
450.83	6225.82
451.02	6195.40
451.20	6352.21
451.39	6277.32
451.57	6249.23
451.76	6237.53
451.94	6377.96
452.13	6473.92
452.31	6335.83
452.49	6260.93
452.68	6230.51
452.86	6373.28
453.05	6523.07
453.23	6553.50
453.42	6396.68
453.60	6473.92
453.78	6497.33
453.97	6466.90
454.15	6534.78
454.34	6457.54
454.52	6745.42
454.70	6511.37
454.89	6483.28
455.07	6747.76
455.26	6789.89
455.44	6904.58
455.62	7000.54
455.81	6876.49
455.99	6871.81
456.17	6911.60
456.36	6958.41
456.54	6998.20
456.73	7049.69
456.91	7243.96
457.09	7157.36
457.28	7218.21
457.46	6991.18
457.64	7370.35
457.83	7353.96
458.01	7056.72
458.19	7410.14
458.38	7232.26
458.56	7215.87
458.74	7442.90
458.93	7382.05
459.11	7424.18
459.29	7508.44
459.48	7342.26
459.66	7435.88
459.84	7513.12
460.03	7695.68
460.21	7508.44
460.39	7566.95
460.57	7473.33
460.76	7660.57
460.94	7695.68
461.12	7648.87
461.31	7639.51
461.49	7740.15
461.67	7754.19
461.85	7999.95
462.04	7623.12
462.22	8379.12
462.40	7983.57
462.59	7941.44
462.77	7920.37
462.95	7894.63
463.13	7906.33
463.32	7829.09
463.50	8098.25
463.68	8051.44
463.86	8121.66
464.05	7962.50
464.23	8126.34
464.41	7911.01
464.59	7927.39
464.78	8266.77
464.96	7948.46
465.14	8114.64
465.32	8135.70
465.50	8325.29
465.69	8409.54
465.87	8463.38
466.05	8304.22
466.23	8285.50
466.41	8255.07
466.60	8505.51
466.78	8208.26
466.96	8304.22
467.14	8114.64
467.32	8458.70
467.51	8397.84
467.69	8510.19
467.87	8346.35
468.05	8552.32
468.23	8533.59
468.41	8390.82
468.60	8505.51
468.78	8582.74
468.96	8421.25
469.14	8713.81
469.32	8622.53
469.50	8535.93
469.69	8760.63
469.87	8652.96
470.05	8877.65
470.23	8917.44
470.41	9053.19
470.59	9022.77
470.77	8901.06
470.95	8987.66
471.14	9006.38
471.32	8929.14
471.50	9202.99
471.68	9207.67
471.86	9331.72
472.04	9165.54
472.22	9778.76
472.40	9146.81
472.58	9350.44
472.77	9331.72
472.95	9373.85
473.13	9816.21
473.31	9509.60
473.49	9476.83
473.67	9467.47
473.85	9568.11
474.03	9652.37
474.21	9762.37
474.39	9923.87
474.57	10050.26
474.75	9977.70
474.93	9771.74
475.12	10202.40
475.30	10176.65
475.48	10092.39
475.66	10274.95
475.84	10080.69
476.02	10340.49
476.20	10370.91
476.38	10396.66
476.56	10775.83
476.74	10600.29
476.92	10602.63
477.10	10682.20
477.28	10850.72
477.46	10918.60
477.64	11033.29
477.82	10998.18
478.00	11152.65
478.18	11330.53
478.36	11332.87
478.54	11335.21
478.72	11639.48
478.90	11674.59
479.08	11716.72
479.26	11925.03
479.44	11646.51
479.62	11920.35
479.80	11889.92
479.98	12018.65
480.16	12416.54
480.34	11992.90
480.52	12252.70
480.70	12489.10
480.88	12355.69
481.06	12444.63
481.24	12510.16
481.41	12531.23
481.59	12788.69
481.77	12889.33
481.95	13029.76
482.13	13095.30
482.31	13011.04
482.49	13399.57
482.67	13523.62
482.85	13350.42
483.03	13715.54
483.21	13860.65
483.39	13764.69
483.57	14019.81
483.74	14085.34
483.92	14045.55
484.10	13965.98
484.28	14401.32
484.46	14424.72
484.64	14686.86
484.82	14899.85
485.00	14670.48
485.18	14794.53
485.35	14949.00
485.53	14991.13
485.71	15122.20
485.89	15232.21
486.07	15295.40
486.25	15339.87
486.43	15302.42
486.61	15524.77
486.78	15681.59
486.96	15955.43
487.14	15988.20
487.32	16238.64
487.50	16187.14
487.68	16432.90
487.85	16751.21
488.03	16734.83
488.21	17252.09
488.39	16971.22
488.57	17163.15
488.75	17022.72
488.92	17064.85
489.10	17563.38
489.28	17617.21
489.46	18050.21
489.64	17605.51
489.81	18160.22
489.99	17984.68
490.17	18370.86
490.35	18562.79
490.53	18384.91
490.70	18707.90
490.88	18642.37
491.06	19126.86
491.24	19084.73
491.41	18693.86
491.59	19211.12
491.77	19080.05
491.95	19047.28
492.13	19517.73
492.30	19800.93
492.48	19728.38
492.66	20032.65
492.84	19861.79
493.01	20011.58
493.19	19992.86
493.37	20287.76
493.54	20287.76
493.72	20414.15
493.90	20629.48
494.08	20872.90
494.25	20765.23
494.43	21163.12
494.61	21357.39
494.79	21170.15
494.96	21120.99
495.14	21144.40
495.32	21668.68
495.49	21986.99
495.67	22122.74
495.85	21860.60
496.02	21830.18
496.20	22317.01
496.38	22195.30
496.55	22040.82
496.73	23061.30
496.91	22412.97
497.09	22845.97
497.26	22815.54
497.44	23061.30
497.62	22948.95
497.79	23346.84
497.97	22960.66
498.14	23194.71
498.32	23625.37
498.50	23571.54
498.67	23864.10
498.85	23901.55
499.03	24030.28
499.20	23779.84
499.38	23995.17
499.56	24273.70
499.73	24135.60
499.91	24283.06
500.08	24524.13
500.26	24266.67
500.44	24718.40
500.61	24800.32
500.79	24402.43
500.97	24797.98
501.14	24900.96
501.32	25088.20
501.49	24898.62
501.67	25099.90
501.84	25282.47
502.02	24964.15
502.20	25252.04
502.37	25600.78
502.55	25465.03
502.72	25631.21
502.90	25809.09
503.07	25624.18
503.25	25584.40
503.43	26019.74
503.60	25961.22
503.78	26235.06
503.95	26581.46
504.13	26363.79
504.30	26506.57
504.48	26586.15
504.65	26417.63
504.83	26621.25
505.01	27096.38
505.18	26780.41
505.36	27070.64
505.53	26855.31
505.71	26923.18
505.88	27171.28
506.06	26796.79
506.23	27316.39
506.41	27260.22
506.58	27192.34
506.76	27461.51
506.93	27700.24
507.11	27363.20
507.28	27349.16
507.46	27660.45
507.63	27431.08
507.81	27531.72
507.98	27990.47
508.16	27941.32
508.33	28177.71
508.50	28086.43
508.68	28500.70
508.85	28645.82
509.03	28166.01
509.20	28762.84
509.38	28952.43
509.55	28900.94
509.73	29043.71
509.90	29050.73
510.08	28992.22
510.25	28751.14
510.42	28989.88
510.60	29301.17
510.77	29364.36
510.95	29603.10
511.12	29352.66
511.30	29411.17
511.47	29764.59
511.64	29748.21
511.82	29881.62
511.99	29991.62
512.17	29858.21
512.34	30078.22
512.51	30260.79
512.69	30354.41
512.86	30408.24
513.04	30558.03
513.21	30319.30
513.38	30696.13
513.56	30108.65
513.73	30426.96
513.90	30572.08
514.08	31119.76
514.25	30909.11
514.43	31023.80
514.60	30930.18
514.77	30771.02
514.95	31087.00
515.12	31152.53
515.29	31480.21
515.47	31384.24
515.64	31468.50
515.81	31253.17
515.99	31459.14
516.16	31428.71
516.33	31328.07
516.51	31798.52
516.68	31381.90
516.85	31487.23
517.03	31590.21
517.20	32004.49
517.37	31807.88
517.54	32154.28
517.72	31920.23
517.89	31840.65
518.06	32144.92
518.24	31894.48
518.41	31793.84
518.58	32287.69
518.75	32196.41
518.93	32753.46
519.10	32348.54
519.27	32238.54
519.45	32631.75
519.62	32673.88
519.79	32893.89
519.96	32584.94
520.14	33282.42
520.31	33106.88
520.48	33324.55
520.65	32837.72
520.83	33244.97
521.00	33689.67
521.17	33378.38
521.34	33624.14
521.52	34005.64
521.69	33834.78
521.86	33928.41
522.03	33848.83
522.20	33539.88
522.38	34153.10
522.55	34178.84
522.72	34335.66
522.89	34251.40
523.07	33979.90
523.24	34476.09
523.41	34347.36
523.58	34209.27
523.75	34471.41
523.92	34866.96
524.10	34745.25
524.27	35157.19
524.44	34256.08
524.61	34852.92
524.78	35290.60
524.96	35449.75
525.13	35072.93
525.30	35103.35
525.47	35564.44
525.64	35166.55
525.81	35555.08
525.98	35398.26
526.16	35044.84
526.33	35199.32
526.50	35564.44
526.67	35068.25
526.84	35475.50
527.01	35007.39
527.18	35405.28
527.36	35913.18
527.53	35665.08
527.70	35864.03
527.87	36182.34
528.04	35880.41
528.21	36060.63
528.38	36030.21
528.55	36318.09
528.72	36030.21
528.89	36467.89
529.07	36208.09
529.24	36084.04
529.41	36226.81
529.58	36397.67
529.75	36390.65
529.92	36439.80
530.09	36575.55
530.26	36201.07
530.43	36634.06
530.60	36624.70
530.77	36629.38
530.94	37104.51
531.11	36594.28
531.28	36741.73
531.46	36877.48
531.63	37303.46
531.80	37233.24
531.97	37380.70
532.14	37258.99
532.31	37090.47
532.48	37170.05
532.65	37483.68
532.82	37041.32
532.99	37310.48
533.16	37179.41
533.33	37188.77
533.50	37654.54
533.67	37427.51
533.84	37441.55
534.01	37720.07
534.18	37897.95
534.35	38094.56
534.52	37703.69
534.69	37785.61
534.86	38024.34
535.03	37902.64
535.20	38277.12
535.37	38286.48
535.54	38244.35
535.71	38483.09
535.88	38518.20
536.05	38146.05
536.22	38361.38
536.38	38345.00
536.55	38270.10
536.72	38192.86
536.89	38162.43
537.06	38178.82
537.23	38560.33
537.40	38756.93
537.57	38789.70
537.74	38237.33
537.91	39232.06
538.08	38553.30
538.25	38581.39
538.42	38707.78
538.59	38583.73
538.75	38330.95
538.92	38960.56
539.09	39257.81
539.26	38707.78
539.43	38953.54
539.60	39199.29
539.77	38572.03
539.94	39166.52
540.11	39077.58
540.28	39321.00
540.44	39297.59
540.61	39370.15
540.78	39161.84
540.95	39206.31
541.12	38773.31
541.29	39372.49
541.46	39093.97
541.62	39543.35
541.79	39578.46
541.96	39510.58
542.13	39391.22
542.30	39487.18
542.47	39641.65
542.63	39466.11
542.80	40109.76
542.97	40261.90
543.14	40575.53
543.31	40299.34
543.48	40238.49
543.64	40971.08
543.81	40715.96
543.98	40212.74
544.15	40495.95
544.32	40500.63
544.48	40659.79
544.65	40652.76
544.82	40942.99
544.99	40203.38
545.16	40348.50
545.32	40414.03
545.49	40495.95
545.66	40933.63
545.83	41132.57
546.00	41057.68
546.16	40704.26
546.33	40683.19
546.50	40769.79
546.67	40598.93
546.83	40467.86
547.00	40870.43
547.17	40863.41
547.34	40851.71
547.50	40797.88
547.67	41415.78
547.84	41099.81
548.00	40877.46
548.17	41347.90
548.34	41287.05
548.51	41303.43
548.67	41649.83
548.84	41422.80
549.01	41394.71
549.18	41265.99
549.34	41338.54
549.51	41516.42
549.68	41813.67
549.84	41621.75
550.01	41755.16
550.18	41647.49
550.34	41785.58
550.51	41577.28
550.68	41528.13
550.84	41574.94
551.01	41698.98
551.18	41797.29
551.34	42141.35
551.51	41961.12
551.68	41998.57
551.84	41888.57
552.01	41724.73
552.18	42068.79
552.34	42129.64
552.51	42267.73
552.68	42450.30
552.84	42316.89
553.01	42050.06
553.18	42155.39
553.34	42190.50
553.51	41979.85
553.67	42462.00
553.84	42422.21
554.01	42789.67
554.17	42623.50
554.34	42925.42
554.51	42431.57
554.67	42639.88
554.84	42623.50
555.00	42497.11
555.17	42564.98
555.33	42808.40
555.50	42462.00
555.67	42691.37
555.83	42859.89
556.00	42733.50
556.16	42930.11
556.33	43145.44
556.50	43168.84
556.66	43058.84
556.83	42384.76
556.99	42674.99
557.16	42820.10
557.32	42770.95
557.49	42836.48
557.65	42983.94
557.82	42543.92
557.98	42674.99
558.15	42698.39
558.32	43246.08
558.48	42887.98
558.65	43033.09
558.81	43264.80
558.98	42920.74
559.14	43199.27
559.31	43225.01
559.47	43058.84
559.64	43751.63
559.80	43526.94
559.97	43217.99
560.13	43257.78
560.30	43192.25
560.46	43433.32
560.63	43342.04
560.79	43482.47
560.96	43665.03
561.12	43475.45
561.29	43299.91
561.45	43276.51
561.61	43159.48
561.78	43377.15
561.94	43194.59
562.11	43161.82
562.27	43819.51
562.44	43267.14
562.60	43124.37
562.77	43976.33
562.93	43491.83
563.10	43782.06
563.26	43686.10
563.42	43442.68
563.59	43676.74
563.75	43618.22
563.92	43861.64
564.08	43746.95
564.24	43845.26
564.41	43920.15
564.57	43686.10
564.74	43693.12
564.90	44189.31
565.07	43519.92
565.23	43751.63
565.39	43807.81
565.56	43606.52
565.72	43688.44
565.88	43772.70
566.05	43777.38
566.21	43260.12
566.38	43798.44
566.54	43831.21
566.70	44203.36
566.87	43922.49
567.03	43922.49
567.19	44126.12
567.36	44102.71
567.52	43690.78
567.68	44243.15
567.85	43786.74
568.01	44088.67
568.17	43945.90
568.34	44128.46
568.50	43828.87
568.66	43335.02
568.83	44142.50
568.99	44023.14
569.15	44229.10
569.32	43498.86
569.48	43634.61
569.64	44156.55
569.81	44051.22
569.97	43878.02
570.13	44109.74
570.30	43812.49
570.46	44009.09
570.62	43941.22
570.78	43791.42
570.95	44198.68
571.11	44268.89
571.27	44011.43
571.43	44369.54
571.60	44385.92
571.76	44119.10
571.92	43959.94
572.09	44170.59
572.25	44327.41
572.41	44474.86
572.57	44055.90
572.74	45024.89
572.90	44121.44
573.06	44247.83
573.22	44247.83
573.38	44072.29
573.55	44147.18
573.71	44346.13
573.87	44095.69
574.03	44013.77
574.20	44081.65
574.36	44135.48
574.52	44299.32
574.68	44423.37
574.84	44378.90
575.01	44191.65
575.17	44079.31
575.33	44231.44
575.49	44414.01
575.65	44229.10
575.82	44978.07
575.98	44395.28
576.14	44217.40
576.30	44369.54
576.46	44257.19
576.62	44198.68
576.79	44364.85
576.95	43866.32
577.11	44388.26
577.27	44362.51
577.43	44521.67
577.59	44275.91
577.75	44205.70
577.92	43812.49
578.08	44126.12
578.24	44219.74
578.40	44151.87
578.56	44575.50
578.72	44374.22
578.88	44652.74
579.04	44610.61
579.21	44226.76
579.37	44210.38
579.53	44563.80
579.69	43688.44
579.85	44353.15
580.01	44636.36
580.17	44388.26
580.33	44669.12
580.49	44741.68
580.65	44746.36
580.82	44514.65
580.98	44406.98
581.14	44107.40
581.30	44629.34
581.46	44390.60
581.62	44266.55
581.78	44479.54
581.94	44921.90
582.10	44790.83
582.26	44924.24
582.42	44444.43
582.58	44432.73
582.74	44509.97
582.90	44650.40
583.06	44680.83
583.22	44624.65
583.38	44774.45
583.54	44825.94
583.70	43995.05
583.86	43971.64
584.02	44362.51
584.18	44631.68
584.34	44737.00
584.50	44428.05
584.66	44470.18
584.82	44322.72
584.98	44865.73
585.14	44498.26
585.30	44332.09
585.46	44409.32
585.62	44615.29
585.78	44563.80
585.94	44311.02
586.10	44294.64
586.26	44397.62
586.42	44648.06
586.58	44781.47
586.74	44542.74
586.90	44369.54
587.06	44369.54
587.22	44428.05
587.38	44128.46
587.54	44996.80
587.70	44830.62
587.86	44973.39
588.02	44687.85
588.18	44900.84
588.34	44533.37
588.49	44039.52
588.65	44399.96
588.81	44437.41
588.97	44376.56
589.13	43990.37
589.29	44378.90
589.45	44411.67
589.61	44676.15
589.77	44942.97
589.93	44776.79
590.08	45193.40
590.24	45071.70
590.40	44851.69
590.56	45301.07
590.72	44631.68
590.88	44725.30
591.04	44531.03
591.20	45081.06
591.35	44725.30
591.51	44961.69
591.67	44781.47
591.83	45017.86
591.99	44961.69
592.15	44315.70
592.31	44252.51
592.46	44629.34
592.62	44954.67
592.78	45242.56
592.94	44432.73
593.10	44725.30
593.26	44868.07
593.41	44786.15
593.57	44774.45
593.73	45015.52
593.89	44926.58
594.05	44739.34
594.20	44694.87
594.36	44732.32
594.52	44907.86
594.68	44919.56
594.84	44535.71
594.99	45132.55
595.15	45380.65
595.31	45045.95
595.47	44893.82
595.62	45481.29
595.78	45069.36
595.94	45315.11
596.10	45179.36
596.25	44905.52
596.41	45015.52
596.57	44957.01
596.73	44837.64
596.88	44718.28
597.04	44514.65
597.20	45439.16
597.36	44816.58
597.51	45546.82
597.67	45055.31
597.83	45174.68
597.99	45024.89
598.14	45090.42
598.30	45214.47
598.46	45167.66
598.61	44872.75
598.77	44432.73
598.93	44917.22
599.09	44563.80
599.24	45368.94
599.40	44678.49
599.56	45347.88
599.71	44718.28
599.87	44830.62
600.03	45172.34
600.18	44825.94
600.34	44919.56
600.50	44722.96
600.65	44854.03
600.81	45207.45
600.97	45188.72
601.12	45155.96
601.28	44933.60
601.44	45038.93
601.59	45268.30
601.75	45076.38
601.91	44622.31
602.06	44713.59
602.22	44914.88
602.37	44793.17
602.53	44959.35
602.69	45413.41
602.84	44889.13
603.00	45352.56
603.16	44837.64
603.31	44769.77
603.47	44765.09
603.62	44507.63
603.78	45179.36
603.94	44839.98
604.09	44828.28
604.25	45256.60
604.40	44903.18
604.56	45116.17
604.71	44926.58
604.87	44657.42
605.03	44568.48
605.18	44722.96
605.34	44854.03
605.49	44676.15
605.65	44765.09
605.80	44957.01
605.96	44821.26
606.12	45024.89
606.27	45223.83
606.43	44921.90
606.58	44931.26
606.74	44421.03
606.89	44926.58
607.05	44910.20
607.20	44954.67
607.36	44837.64
607.51	44989.78
607.67	44701.89
607.82	45083.40
607.98	44942.97
608.13	44561.46
608.29	45031.91
608.44	44299.32
608.60	44086.33
608.75	44353.15
608.91	44446.77
609.06	44395.28
609.22	44870.41
609.37	44460.82
609.53	44444.43
609.68	44568.48
609.84	44442.09
609.99	44556.78
610.15	44062.93
610.30	44554.44
610.46	44037.18
610.61	44533.37
610.76	44306.34
610.92	44140.16
611.07	44205.70
611.23	44547.42
611.38	44624.65
611.54	44404.64
611.69	44430.39
611.84	44252.51
612.00	44421.03
612.15	44533.37
612.31	44219.74
612.46	44126.12
612.62	44423.37
612.77	44554.44
612.92	44549.76
613.08	43931.86
613.23	44446.77
613.39	44404.64
613.54	43576.09
613.69	44011.43
613.85	44137.82
614.00	43812.49
614.15	44245.49
614.31	44538.05
614.46	44481.88
614.62	44013.77
614.77	43828.87
614.92	43618.22
615.08	43695.46
615.23	43697.80
615.38	43999.73
615.54	43494.18
615.69	43732.91
615.84	43751.63
616.00	44123.78
616.15	43665.03
616.30	43845.26
616.46	43899.09
616.61	43473.11
616.76	43693.12
616.92	43997.39
617.07	43707.16
617.22	43697.80
617.37	43725.89
617.53	43454.39
617.68	43674.40
617.83	44135.48
617.99	43826.53
618.14	43438.00
618.29	43772.70
618.45	43028.41
618.60	43519.92
618.75	43405.23
618.90	43456.73
619.06	43737.59
619.21	43372.47
619.36	43442.68
619.51	43391.19
619.67	43023.73
619.82	43590.14
619.97	43243.74
620.12	42941.81
620.28	42777.97
620.43	42972.24
620.58	43267.14
620.73	42841.17
620.89	43625.25
621.04	43454.39
621.19	43082.24
621.34	42939.47
621.49	42834.14
621.65	42768.61
621.80	43311.61
621.95	42801.38
622.10	42361.36
622.25	43047.13
622.41	42848.19
622.56	42644.56
622.71	42951.17
622.86	42747.54
623.01	42614.13
623.16	42927.77
623.32	43292.89
623.47	42951.17
623.62	42843.51
623.77	42642.22
623.92	42691.37
624.07	42057.09
624.23	42864.57
624.38	42047.72
624.53	42031.34
624.68	42579.03
624.83	42623.50
624.98	42534.56
625.13	42190.50
625.29	42422.21
625.44	42763.93
625.59	42073.47
625.74	42490.09
625.89	41914.31
626.04	42036.02
626.19	42227.95
626.34	42431.57
626.49	42160.07
626.65	42333.27
626.80	42265.39
626.95	41689.62
627.10	42010.28
627.25	41677.92
627.40	41380.67
627.55	41446.21
627.70	41703.67
627.85	41911.97
628.00	41755.16
628.15	42073.47
628.30	41762.18
628.45	42033.68
628.60	41923.68
628.76	41968.15
628.91	42108.58
629.06	42143.69
629.21	41371.31
629.36	41338.54
629.51	41448.55
629.66	41153.64
629.81	41289.39
629.96	41448.55
630.11	41867.50
630.26	42014.96
630.41	41560.89
630.56	41432.16
630.71	41666.22
630.86	40945.33
631.01	41184.07
631.16	41551.53
631.31	41345.56
631.46	40486.59
631.61	41060.02
631.76	41319.82
631.91	41265.99
632.06	41125.55
632.21	41504.72
632.36	41174.70
632.51	41483.66
632.66	41392.37
632.81	40423.39
632.96	41160.66
633.10	40945.33
633.25	40776.81
633.40	40968.74
633.55	41024.91
633.70	41146.62
633.85	41003.85
634.00	40397.65
634.15	40746.39
634.30	40790.86
634.45	40975.76
634.60	40980.44
634.75	40327.43
634.90	40975.76
635.05	40776.81
635.19	40287.64
635.34	41017.89
635.49	40608.29
635.64	40687.87
635.79	40381.26
635.94	40390.62
636.09	40809.58
636.24	40144.87
636.39	40072.31
636.53	40465.52
636.68	40034.86
636.83	39948.26
636.98	40828.30
637.13	40142.53
637.28	40566.16
637.43	40577.87
637.57	40498.29
637.72	40458.50
637.87	40168.27
638.02	40074.65
638.17	39981.03
638.32	40301.68
638.46	39997.41
638.61	39962.31
638.76	39739.96
638.91	40079.33
639.06	39922.52
639.20	39847.62
639.35	40463.18
639.50	40079.33
639.65	39896.77
639.80	40069.97
639.94	39833.58
640.09	39709.53
640.24	39461.43
640.39	39468.45
640.54	39693.15
640.68	39739.96
640.83	39800.81
640.98	39777.40
641.13	39639.31
641.27	39878.05
641.42	39576.12
641.57	39838.26
641.72	39482.50
641.86	39613.57
642.01	39416.96
642.16	39269.51
642.31	38696.08
642.45	39569.10
642.60	39309.30
642.75	38986.30
642.90	39250.78
643.04	39302.28
643.19	39412.28
643.34	39590.16
643.48	38986.30
643.63	39089.29
643.78	38951.20
643.93	38822.47
644.07	38660.97
644.22	39304.62
644.37	38946.51
644.51	38848.21
644.66	38735.87
644.81	39253.12
644.95	39218.02
645.10	38740.55
645.25	39133.76
645.39	39234.40
645.54	39358.45
645.69	38911.41
645.83	38983.96
645.98	38618.84
646.13	38710.12
646.27	38417.55
646.42	38609.48
646.57	38972.26
646.71	38359.04
646.86	38899.70
647.00	38677.35
647.15	39033.11
647.30	38602.46
647.44	39070.56
647.59	38726.50
647.74	38534.58
647.88	38330.95
648.03	38724.16
648.17	38494.79
648.32	38286.48
648.47	38457.34
648.61	38412.87
648.76	38646.93
648.90	38593.09
649.05	38522.88
649.20	38347.34
649.34	38515.86
649.49	38206.90
649.63	38391.81
649.78	38005.62
649.92	38103.92
650.07	38218.61
650.21	38096.90
650.36	37717.73
650.51	38064.13
650.65	38452.66
650.80	38450.32
650.94	38246.69
651.09	38209.25
651.23	38485.43
651.38	38246.69
651.52	37504.74
651.67	38143.71
651.81	38057.11
651.96	37668.58
652.10	37687.31
652.25	37778.59
652.39	38080.52
652.54	37792.63
652.68	38061.79
652.83	38326.27
652.97	37638.15
653.12	37666.24
653.26	37642.84
653.41	37614.75
653.55	37333.89
653.70	37518.79
653.84	37359.63
653.99	37219.20
654.13	37717.73
654.27	37443.89
654.42	37755.18
654.56	37364.31
654.71	37574.96
654.85	37460.27
655.00	37205.16
655.14	36861.10
655.29	36921.95
655.43	36893.86
655.57	36374.27
655.72	36371.92
655.86	37006.21
656.01	36821.31
656.15	36587.25
656.30	36840.03
656.44	36744.07
656.58	36989.83
656.73	36715.98
656.87	36449.16
657.01	36582.57
657.16	36608.32
657.30	36549.81
657.45	36327.45
657.59	36725.35
657.73	36615.34
657.88	36790.88
658.02	36704.28
658.16	36692.58
658.31	37104.51
658.45	37034.30
658.60	36458.52
658.74	36189.36
658.88	36643.43
659.03	35896.80
659.17	36130.85
659.31	36357.88
659.46	36222.13
659.60	36114.47
659.74	36098.08
659.89	36231.49
660.03	35920.20
660.17	35866.37
660.32	35981.06
660.46	36465.55
660.60	36484.27
660.74	36388.31
660.89	36156.60
661.03	35847.64
661.17	35629.98
661.32	35653.38
661.46	35466.14
661.60	35629.98
661.74	35187.61
661.89	35463.80
662.03	35456.78
662.17	35438.05
662.31	35358.47
662.46	35725.94
662.60	35246.13
662.74	35101.01
662.88	35328.05
663.03	35342.09
663.17	35552.74
663.31	35103.35
663.45	34962.92
663.60	35248.47
663.74	34822.49
663.88	34988.67
664.02	34693.76
664.17	34712.49
664.31	34660.99
664.45	34843.56
664.59	35049.52
664.73	34635.25
664.88	34653.97
665.02	34543.97
665.16	34595.46
665.30	34609.50
665.44	34162.46
665.59	34183.52
665.73	34321.62
665.87	33989.26
666.01	34211.61
666.15	33834.78
666.29	34185.86
666.44	34134.37
666.58	34167.14
666.72	34232.68
666.86	33886.28
667.00	34026.71
667.14	33574.98
667.28	33888.62
667.43	33457.96
667.57	33600.73
667.71	33254.33
667.85	33572.64
667.99	33680.31
668.13	33205.18
668.27	33486.04
668.41	33546.90
668.56	33064.75
668.70	33240.29
668.84	33237.95
668.98	33343.27
669.12	33170.07
669.26	33015.60
669.40	33064.75
669.54	33144.33
669.68	32811.97
669.82	32861.12
669.96	32325.14
670.10	32402.38
670.25	32744.09
670.39	32687.92
670.53	32446.85
670.67	32589.62
670.81	32690.26
670.95	32587.28
671.09	32638.77
671.23	32353.23
671.37	32734.73
671.51	32364.93
671.65	32655.15
671.79	31852.35
671.93	32173.00
672.07	32236.20
672.21	32137.90
672.35	31431.05
672.49	31578.51
672.63	31651.06
672.77	31704.90
672.91	31644.04
673.05	31232.11
673.19	31498.93
673.33	31009.76
673.47	31377.22
673.61	31061.25
673.75	31241.47
673.89	30939.54
674.03	30609.53
674.17	30794.43
674.31	30703.15
674.45	30630.59
674.59	30932.52
674.73	31061.25
674.87	30829.54
675.01	30558.03
675.15	30656.34
675.29	30951.24
675.43	30239.72
675.56	30384.83
675.70	30223.34
675.84	30118.01
675.98	29212.23
676.12	30033.75
676.26	29813.74
676.40	29825.45
676.54	29670.97
676.68	29766.93
676.82	29127.97
676.96	29652.25
677.10	29149.03
677.23	29324.57
677.37	29043.71
677.51	29233.29
677.65	29046.05
677.79	28496.02
677.93	29067.11
678.07	29123.29
678.21	28657.52
678.34	28411.76
678.48	28353.25
678.62	28304.10
678.76	28182.39
678.90	28259.63
679.04	28287.71
679.18	28027.92
679.31	28278.35
679.45	27611.30
679.59	27681.52
679.73	27723.65
679.87	27826.63
680.00	27522.36
680.14	27812.59
680.28	27623.00
680.42	27721.30
680.56	27381.93
680.70	26974.67
680.83	27257.88
680.97	26749.98
681.11	27089.36
681.25	26810.84
681.39	26373.16
681.52	26857.65
681.66	26724.24
681.80	26939.57
681.94	26724.24
682.07	26668.06
682.21	26089.95
682.35	26375.50
682.49	26216.34
682.62	26155.49
682.76	25956.54
682.90	25680.36
683.04	26167.19
683.17	26139.10
683.31	25947.18
683.45	25713.13
683.59	25479.07
683.72	25142.03
683.86	25390.13
684.00	25046.07
684.13	25448.64
684.27	25085.86
684.41	25088.20
684.55	24910.32
684.68	24650.52
684.82	25032.03
684.96	24655.20
685.09	24629.46
685.23	24608.39
685.37	24449.24
685.50	24566.26
685.64	24482.00
685.78	23985.81
685.91	24013.90
686.05	24020.92
686.19	23627.71
686.32	23754.10
686.46	23608.98
686.60	23585.58
686.73	23688.56
686.87	22944.27
687.01	23049.60
687.14	22986.40
687.28	22988.74
687.42	23220.45
687.55	22979.38
687.69	23002.78
687.82	22471.48
687.96	22581.49
688.10	22572.13
688.23	22721.92
688.37	22401.27
688.50	22122.74
688.64	22401.27
688.78	22216.36
688.91	22106.36
689.05	22059.55
689.18	22075.93
689.32	21869.97
689.46	21916.78
689.59	22120.40
689.73	22174.24
689.86	21806.77
690.00	21427.60
690.13	21771.66
690.27	21659.32
690.41	21422.92
690.54	21209.93
690.68	21268.45
690.81	21083.55
690.95	20908.01
691.08	20858.85
691.22	20760.55
691.35	21050.78
691.49	20919.71
691.62	20711.40
691.76	21001.63
691.89	20732.47
692.03	20376.70
692.16	20439.90
692.30	20283.08
692.43	20144.99
692.57	20081.80
692.70	19775.19
692.84	20002.22
692.97	19829.02
693.11	19704.97
693.24	19878.17
693.38	19655.82
693.51	19445.17
693.65	19264.95
693.78	19386.66
693.92	19325.80
694.05	19461.55
694.19	19080.05
694.32	19124.52
694.45	19164.31
694.59	19044.94
694.72	18988.77
694.86	18888.12
694.99	18675.13
695.13	18551.09
695.26	18321.71
695.39	18258.52
695.53	18235.11
695.66	18686.84
695.80	18291.29
695.93	18160.22
696.07	17570.40
696.20	18075.96
696.33	17708.49
696.47	17963.61
696.60	17905.10
696.73	17872.33
696.87	17558.70
697.00	17619.55
697.14	17572.74
697.27	17305.92
697.40	17488.48
697.54	17502.53
697.67	17092.93
697.80	17216.98
697.94	17071.87
698.07	16966.54
698.21	17095.27
698.34	16971.22
698.47	16837.81
698.61	16718.45
698.74	16512.48
698.87	16402.47
699.01	16348.64
699.14	16114.59
699.27	16460.99
699.40	16613.12
699.54	16154.38
699.67	16224.59
699.80	15988.20
699.94	16161.40
700.07	16079.48
700.20	15688.61
700.34	15744.78
700.47	15667.55
700.60	15885.22
700.73	15925.00
700.87	15494.35
701.00	15400.72
701.13	15496.69
701.26	15346.89
701.40	15499.03
701.53	15171.35
701.66	15204.12
701.79	14827.29
701.93	15152.63
702.06	14736.01
702.19	14848.36
702.32	14918.57
702.46	14878.79
702.59	14787.50
702.72	14677.50
702.85	14693.88
702.99	14686.86
703.12	14541.75
703.25	14647.07
703.38	14319.40
703.51	14047.90
703.65	14003.43
703.78	14218.75
703.91	14295.99
704.04	13830.23
704.17	13951.93
704.31	13881.72
704.44	13439.36
704.57	13598.51
704.70	13596.17
704.83	13699.16
704.96	13685.11
705.10	13610.22
705.23	13518.93
>>>>>End Processed Spectral Data<<<<<
