SpectraSuite Data File
++++++++++++++++++++++++++++++++++++
Date: Fri Oct 25 10:43:57 EDT 2013
User: price-jones
Dark Spectrum Present: No
Reference Spectrum Present: No
Number of Sampled Component Spectra: 1
Spectrometers: USB2+H05261
Integration Time (usec): 100000 (USB2+H05261)
Spectra Averaged: 1 (USB2+H05261)
Boxcar Smoothing: 0 (USB2+H05261)
Correct for Electrical Dark: No (USB2+H05261)
Strobe/Lamp Enabled: No (USB2+H05261)
Correct for Detector Non-linearity: No (USB2+H05261)
Correct for Stray Light: No (USB2+H05261)
Number of Pixels in Processed Spectrum: 2048
>>>>>Begin Processed Spectral Data<<<<<
365.73	154.48
365.92	154.48
366.12	154.48
366.32	0.00
366.52	95.96
366.72	79.58
366.91	0.00
367.11	2.34
367.31	53.83
367.51	16.38
367.70	0.00
367.90	14.04
368.10	53.83
368.30	39.79
368.49	7.02
368.69	53.83
368.89	14.04
369.09	39.79
369.28	39.79
369.48	46.81
369.68	67.88
369.87	86.60
370.07	49.15
370.27	145.11
370.47	220.01
370.66	386.19
370.86	416.62
371.06	461.09
371.25	531.30
371.45	552.37
371.65	503.22
371.84	407.25
372.04	444.70
372.24	425.98
372.44	505.56
372.63	425.98
372.83	526.62
373.03	543.00
373.22	540.66
373.42	533.64
373.62	564.07
373.81	505.56
374.01	543.00
374.21	578.11
374.40	461.09
374.60	601.52
374.79	559.39
374.99	592.16
375.19	603.86
375.38	645.99
375.58	671.73
375.78	613.22
375.97	624.92
376.17	702.16
376.37	650.67
376.56	627.26
376.76	500.87
376.95	578.11
377.15	645.99
377.35	662.37
377.54	601.52
377.74	641.31
377.93	613.22
378.13	699.82
378.33	683.44
378.52	709.18
378.72	695.14
378.91	624.92
379.11	606.20
379.31	699.82
379.50	627.26
379.70	716.20
379.89	669.39
380.09	643.65
380.28	699.82
380.48	683.44
380.68	641.31
380.87	657.69
381.07	688.12
381.26	683.44
381.46	779.40
381.65	784.08
381.85	706.84
382.04	622.58
382.24	702.16
382.43	636.63
382.63	650.67
382.83	688.12
383.02	678.76
383.22	788.76
383.41	650.67
383.61	770.04
383.80	753.65
384.00	758.33
384.19	842.59
384.39	861.32
384.58	816.85
384.78	842.59
384.97	849.61
385.17	734.93
385.36	802.80
385.56	734.93
385.75	760.67
385.95	748.97
386.14	873.02
386.34	847.27
386.53	887.06
386.72	807.48
386.92	912.81
387.11	917.49
387.31	868.34
387.50	856.64
387.70	896.43
387.89	891.74
388.09	929.19
388.28	896.43
388.48	968.98
388.67	1029.84
388.86	924.51
389.06	903.45
389.25	957.28
389.45	954.94
389.64	933.87
389.84	1102.39
390.03	1025.15
390.22	1015.79
390.42	1013.45
390.61	1041.54
390.81	1060.26
391.00	1041.54
391.19	1071.97
391.39	1027.50
391.58	1097.71
391.78	1097.71
391.97	1142.18
392.16	1078.99
392.36	1146.86
392.55	1130.48
392.75	1013.45
392.94	950.26
393.13	999.41
393.33	1060.26
393.52	1053.24
393.71	1123.46
393.91	1151.54
394.10	1200.69
394.29	1359.85
394.49	1156.22
394.68	1160.91
394.88	1261.55
395.07	1303.68
395.26	1299.00
395.46	1186.65
395.65	1254.53
395.84	1280.27
396.04	1205.38
396.23	1228.78
396.42	1181.97
396.62	1224.10
396.81	1299.00
397.00	1345.81
397.19	1434.75
397.39	1409.00
397.58	1399.64
397.77	1345.81
397.97	1451.13
398.16	1544.75
398.35	1488.58
398.55	1476.88
398.74	1521.35
398.93	1593.90
399.12	1521.35
399.32	1647.74
399.51	1589.22
399.70	1631.35
399.90	1568.16
400.09	1647.74
400.28	1713.27
400.47	1610.29
400.67	1703.91
400.86	1668.80
401.05	1715.61
401.24	1713.27
401.44	1781.15
401.63	1729.66
401.82	1753.06
402.01	1689.87
402.21	1806.89
402.40	1708.59
402.59	1708.59
402.78	1720.29
402.97	1799.87
403.17	1825.62
403.36	1956.69
403.55	1827.96
403.74	1921.58
403.93	1853.70
404.13	1881.79
404.32	1942.64
404.51	1853.70
404.70	1895.83
404.89	1877.11
405.09	2094.78
405.28	1961.37
405.47	1952.01
405.66	2099.46
405.85	1998.82
406.05	2101.80
406.24	1944.99
406.43	2059.67
406.62	2167.34
406.81	2214.15
407.00	2150.95
407.20	2115.84
407.39	2106.48
407.58	2275.00
407.77	2183.72
407.96	2284.36
408.15	2338.20
408.34	2342.88
408.54	2342.88
408.73	2310.11
408.92	2375.64
409.11	2436.50
409.30	2349.90
409.49	2347.56
409.68	2342.88
409.87	2385.01
410.07	2370.96
410.26	2429.48
410.45	2504.37
410.64	2333.51
410.83	2546.50
411.02	2534.80
411.21	2593.31
411.40	2623.74
411.59	2616.72
411.78	2670.55
411.98	2572.25
412.17	2719.70
412.36	2602.68
412.55	2757.15
412.74	2822.69
412.93	2733.75
413.12	2820.35
413.31	3007.59
413.50	3007.59
413.69	2991.20
413.88	3028.65
414.07	3045.04
414.26	3075.46
414.45	2930.35
414.64	2995.89
414.83	3000.57
415.02	3124.62
415.22	3112.91
415.41	3042.70
415.60	3302.50
415.79	3274.41
415.98	3248.66
416.17	3307.18
416.36	3356.33
416.55	3452.29
416.74	3279.09
416.93	3309.52
417.12	3363.35
417.31	3506.12
417.50	3363.35
417.69	3531.87
417.88	3531.87
418.07	3349.31
418.26	3536.55
418.45	3524.85
418.64	3616.13
418.83	3716.77
419.02	3613.79
419.21	3599.74
419.39	3676.98
419.58	3559.95
419.77	3655.92
419.96	3777.62
420.15	3756.56
420.34	3726.13
420.53	3693.37
420.72	3812.73
420.91	3941.46
421.10	3971.89
421.29	4016.36
421.48	3775.28
421.67	3932.10
421.86	3918.06
422.05	3976.57
422.24	3859.54
422.43	3861.88
422.61	4032.74
422.80	4044.45
422.99	4049.13
423.18	3920.40
423.37	4112.32
423.56	3983.59
423.75	3941.46
423.94	3892.31
424.13	3733.15
424.32	3887.63
424.50	4035.08
424.69	4154.45
424.88	4140.41
425.07	3852.52
425.26	4007.00
425.45	3918.06
425.64	3955.51
425.83	4077.21
426.01	4044.45
426.20	4028.06
426.39	4011.68
426.58	4011.68
426.77	4187.22
426.96	4135.73
427.15	4004.66
427.33	4109.98
427.52	4128.70
427.71	4266.80
427.90	4311.27
428.09	4147.43
428.28	4283.18
428.46	4194.24
428.65	4276.16
428.84	4255.09
429.03	4290.20
429.22	4163.81
429.40	4124.02
429.59	4227.01
429.78	4079.55
429.97	3868.91
430.16	3978.91
430.34	4187.22
430.53	4243.39
430.72	4262.12
430.91	4264.46
431.10	4379.14
431.28	4671.71
431.47	4737.24
431.66	4643.62
431.85	4407.23
432.03	4517.23
432.22	4833.21
432.41	4889.38
432.60	4828.53
432.79	4760.65
432.97	4945.55
433.16	5076.62
433.35	4706.82
433.54	4737.24
433.72	4772.35
433.91	4868.31
434.10	4840.23
434.28	4837.89
434.47	4858.95
434.66	5060.24
434.85	4959.60
435.03	5053.22
435.22	5111.73
435.41	5097.69
435.59	5167.90
435.78	5217.05
435.97	5217.05
436.16	5315.36
436.34	5359.83
436.53	5420.68
436.72	5427.70
436.90	5170.24
437.09	5303.65
437.28	5287.27
437.46	5364.51
437.65	5289.61
437.84	5184.29
438.02	5200.67
438.21	5308.34
438.40	5256.84
438.58	5406.64
438.77	5547.07
438.96	5448.77
439.14	5685.16
439.33	5809.21
439.52	5657.07
439.70	5694.52
439.89	5778.78
440.08	5797.51
440.26	5970.71
440.45	5823.25
440.63	6094.76
440.82	6183.70
441.01	6045.60
441.19	6167.31
441.38	6286.68
441.57	6122.84
441.75	6181.35
441.94	6457.54
442.12	6340.51
442.31	6553.50
442.50	6263.27
442.68	6417.75
442.87	6455.20
443.05	6443.49
443.24	6658.82
443.43	6579.25
443.61	6663.51
443.80	6771.17
443.98	6511.37
444.17	6335.83
444.35	6530.09
444.54	6752.45
444.73	6511.37
444.91	6801.60
445.10	6485.62
445.28	6628.40
445.47	6595.63
445.65	6347.53
445.84	6661.16
446.02	6661.16
446.21	6595.63
446.39	6654.14
446.58	6747.76
446.77	6691.59
446.95	6712.66
447.14	6764.15
447.32	6700.95
447.51	6799.26
447.69	6778.19
447.88	6832.02
448.06	6995.86
448.25	6932.67
448.43	6829.68
448.62	6977.14
448.80	7002.88
448.99	6906.92
449.17	7080.12
449.36	6876.49
449.54	7045.01
449.73	7325.88
449.91	7358.64
450.10	7227.57
450.28	7501.42
450.46	7431.20
450.65	7463.97
450.83	7407.80
451.02	7269.70
451.20	7337.58
451.39	7573.97
451.57	7353.96
451.76	7309.49
451.94	7290.77
452.13	7506.10
452.31	7440.56
452.49	7281.41
452.68	7440.56
452.86	7218.21
453.05	7349.28
453.23	7368.01
453.42	7480.35
453.60	7370.35
453.78	7538.87
453.97	7454.61
454.15	7667.60
454.34	7573.97
454.52	7777.60
454.70	7557.59
454.89	7627.81
455.07	7707.38
455.26	7758.88
455.44	7850.16
455.62	7723.77
455.81	7913.35
455.99	7948.46
456.17	8114.64
456.36	8224.64
456.54	8149.75
456.73	8168.47
456.91	8381.46
457.09	8168.47
457.28	8451.67
457.46	8079.53
457.64	8320.60
457.83	8234.00
458.01	8226.98
458.19	8308.90
458.38	8245.71
458.56	8545.30
458.74	8292.52
458.93	8423.59
459.11	8390.82
459.29	8404.86
459.48	8458.70
459.66	8592.11
459.84	8557.00
460.03	8526.57
460.21	8690.41
460.39	8706.79
460.57	8629.56
460.76	8615.51
460.94	8659.98
461.12	8872.97
461.31	8856.59
461.49	8879.99
461.67	8833.18
461.85	9029.79
462.04	8929.14
462.22	9252.14
462.40	9212.35
462.59	9001.70
462.77	9212.35
462.95	9095.32
463.13	8847.22
463.32	9130.43
463.50	9252.14
463.68	9025.11
463.86	9177.24
464.05	9060.21
464.23	9163.20
464.41	9427.68
464.59	9142.13
464.78	9315.33
464.96	9312.99
465.14	9212.35
465.32	9238.09
465.50	9451.08
465.69	9397.25
465.87	9357.46
466.05	9481.51
466.23	9179.58
466.41	9128.09
466.60	9324.69
466.78	9266.18
466.96	9334.06
467.14	9619.60
467.32	9554.07
467.51	9568.11
467.69	9411.29
467.87	9635.99
468.05	9856.00
468.23	9451.08
468.41	9769.40
468.60	9720.24
468.78	9792.80
468.96	9694.50
469.14	9820.89
469.32	9944.94
469.50	9579.81
469.69	9760.03
469.87	9792.80
470.05	10092.39
470.23	10024.51
470.41	10068.98
470.59	10143.88
470.77	9991.75
470.95	10253.89
471.14	10413.04
471.32	10057.28
471.50	10310.06
471.68	10389.64
471.86	10686.89
472.04	10607.31
472.22	10892.85
472.40	10551.14
472.58	10604.97
472.77	10626.03
472.95	10874.13
473.13	10932.64
473.31	10705.61
473.49	10703.27
473.67	10864.77
473.85	10836.68
474.03	11440.54
474.21	11241.59
474.39	11243.93
474.57	11091.80
474.75	11187.76
474.93	11260.32
475.12	11421.81
475.30	11311.81
475.48	11440.54
475.66	11566.93
475.84	11644.17
476.02	11878.22
476.20	11850.13
476.38	11882.90
476.56	12091.21
476.74	11964.82
476.92	11946.09
477.10	12180.15
477.28	12294.83
477.46	12292.49
477.64	12395.48
477.82	12538.25
478.00	12695.07
478.18	12746.56
478.36	12870.61
478.54	12819.11
478.72	13055.51
478.90	13041.46
479.08	13315.31
479.26	13336.37
479.44	13420.63
479.62	13575.11
479.80	13319.99
479.98	13680.43
480.16	13839.59
480.34	14017.47
480.52	14221.10
480.70	14111.09
480.88	13977.68
481.06	13867.67
481.24	14319.40
481.41	14544.09
481.59	14593.24
481.77	14661.12
481.95	14752.40
482.13	15098.80
482.31	14855.38
482.49	15314.13
482.67	15047.30
482.85	15309.44
483.03	15234.55
483.21	15520.09
483.39	15709.68
483.57	15513.07
483.74	15861.81
483.92	15939.05
484.10	15704.99
484.28	16027.99
484.46	16517.16
484.64	16650.57
484.82	16353.32
485.00	16255.02
485.18	16549.93
485.35	16856.54
485.53	16315.87
485.71	16217.57
485.89	16629.51
486.07	16521.84
486.25	16922.07
486.43	17305.92
486.61	17582.10
486.78	17486.14
486.96	17818.50
487.14	18232.77
487.32	17884.03
487.50	18501.93
487.68	18277.24
487.85	18679.82
488.03	18960.68
488.21	18778.12
488.39	18743.01
488.57	18885.78
488.75	19218.14
488.92	19487.30
489.10	19847.74
489.28	19571.56
489.46	20137.97
489.64	19859.45
489.81	20116.90
489.99	20465.64
490.17	20568.63
490.35	20847.15
490.53	20699.70
490.70	20620.12
490.88	20856.51
491.06	20844.81
491.24	21233.34
491.41	21067.16
491.59	21146.74
491.77	21081.21
491.95	21439.31
492.13	21898.05
492.30	21764.64
492.48	22073.59
492.66	22164.87
492.84	22249.13
493.01	22679.79
493.19	22204.66
493.37	22586.17
493.54	22712.56
493.72	22852.99
493.90	23049.60
494.08	22988.74
494.25	23641.75
494.43	23332.80
494.61	24046.66
494.79	23623.03
494.96	23784.52
495.14	24011.56
495.32	23793.89
495.49	24149.65
495.67	24493.71
495.85	24657.54
496.02	24528.81
496.20	24835.42
496.38	24596.69
496.55	24767.55
496.73	25596.10
496.91	25041.39
497.09	25207.57
497.26	25919.09
497.44	25493.12
497.62	25605.46
497.79	25844.20
497.97	25308.21
498.14	25479.07
498.32	25926.11
498.50	26441.03
498.67	26759.34
498.85	26202.30
499.03	26728.92
499.20	26553.38
499.38	26403.58
499.56	26436.35
499.73	26801.47
499.91	26817.86
500.08	27091.70
500.26	26630.62
500.44	27307.03
500.61	27091.70
500.79	26965.31
500.97	27171.28
501.14	27517.68
501.32	27433.42
501.49	27452.14
501.67	27300.01
501.84	27859.40
502.02	27868.76
502.20	27889.82
502.37	27941.32
502.55	28137.92
502.72	28383.68
502.90	28519.43
503.07	28559.22
503.25	28339.21
503.43	28734.76
503.60	28465.60
503.78	28088.77
503.95	28655.18
504.13	29413.51
504.30	29240.31
504.48	29233.29
504.65	29216.91
504.83	29488.41
505.01	29467.34
505.18	29404.15
505.36	29867.58
505.53	30412.92
505.71	30366.11
505.88	30366.11
506.06	29450.96
506.23	30043.12
506.41	30164.82
506.58	30211.64
506.76	30284.19
506.93	30106.31
507.11	30630.59
507.28	30408.24
507.46	30600.16
507.63	30443.35
507.81	30756.98
507.98	30260.79
508.16	30345.05
508.33	31140.83
508.50	31007.42
508.68	31342.11
508.85	31475.52
509.03	31475.52
509.20	31732.98
509.38	31709.58
509.55	31634.68
509.73	31828.95
509.90	31948.31
510.08	31828.95
510.25	31751.71
510.42	31960.02
510.60	32844.74
510.77	32191.73
510.95	32100.45
511.12	32065.34
511.30	32364.93
511.47	32732.39
511.64	32985.17
511.82	32868.14
511.99	32835.38
512.17	32861.12
512.34	32505.36
512.51	32978.15
512.69	32868.14
512.86	33088.15
513.04	33647.54
513.21	33202.84
513.38	33696.69
513.56	33446.26
513.73	33404.13
513.90	33759.89
514.08	33287.10
514.25	33507.11
514.43	33619.46
514.60	33771.59
514.77	33661.58
514.95	34015.01
515.12	33780.95
515.29	33956.49
515.47	34368.43
515.64	34534.60
515.81	34223.31
515.99	34244.38
516.16	34183.52
516.33	34309.91
516.51	33792.65
516.68	33525.83
516.85	33890.96
517.03	34251.40
517.20	34094.58
517.37	34998.03
517.54	35054.20
517.72	34862.28
517.89	34391.83
518.06	34525.24
518.24	34387.15
518.41	34771.00
518.58	35084.63
518.75	35117.40
518.93	35339.75
519.10	35398.26
519.27	35747.00
519.45	35386.56
519.62	35669.76
519.79	35667.42
519.96	35782.11
520.14	35747.00
520.31	35625.29
520.48	36062.97
520.65	35995.10
520.83	36236.17
521.00	36032.55
521.17	36016.16
521.34	36545.12
521.52	36224.47
521.69	36905.57
521.86	36414.05
522.03	36935.99
522.20	36762.79
522.38	36847.05
522.55	36809.61
522.72	36669.17
522.89	37017.91
523.07	36828.33
523.24	37319.84
523.41	36893.86
523.58	37130.26
523.75	37979.87
523.92	37172.39
524.10	37771.57
524.27	37558.58
524.44	37699.01
524.61	37930.72
524.78	38124.99
524.96	38230.31
525.13	38185.84
525.30	37979.87
525.47	38249.03
525.64	38132.01
525.81	38106.26
525.98	37984.55
526.16	37743.48
526.33	37862.85
526.50	38071.15
526.67	37837.10
526.84	37900.29
527.01	38188.18
527.18	38022.00
527.36	38630.54
527.53	38239.67
527.70	38974.60
527.87	38885.66
528.04	39033.11
528.21	38909.07
528.38	38934.81
528.55	39056.52
528.72	39557.39
528.89	39573.78
529.07	39161.84
529.24	38953.54
529.41	39147.80
529.58	39215.68
529.75	39180.57
529.92	39281.21
530.09	39625.27
530.26	40147.21
530.43	40004.44
530.60	39927.20
530.77	39833.58
530.94	39901.45
531.11	39761.02
531.28	40034.86
531.46	40582.55
531.63	39798.47
531.80	39353.77
531.97	40018.48
532.14	39725.91
532.31	39716.55
532.48	39665.06
532.65	40130.83
532.82	40114.44
532.99	40463.18
533.16	40076.99
533.33	40627.02
533.50	40636.38
533.67	40664.47
533.84	40350.84
534.01	40748.73
534.18	40439.78
534.35	40788.52
534.52	40399.99
534.69	40910.22
534.86	41233.22
535.03	40767.45
535.20	41570.25
535.37	41514.08
535.54	41462.59
535.71	41504.72
535.88	41092.79
536.05	41710.69
536.22	41144.28
536.38	41448.55
536.55	40912.56
536.72	41453.23
536.89	41001.50
537.06	41071.72
537.23	41621.75
537.40	41284.71
537.57	41441.53
537.74	41518.76
537.91	42127.30
538.08	41495.36
538.25	41574.94
538.42	41411.10
538.59	41567.91
538.75	41696.64
538.92	42017.30
539.09	42089.85
539.26	41820.69
539.43	42054.75
539.60	42108.58
539.77	41722.39
539.94	41937.72
540.11	41745.80
540.28	42043.04
540.44	41970.49
540.61	41851.12
540.78	41429.82
540.95	41745.80
541.12	42239.65
541.29	41860.48
541.46	42082.83
541.62	42412.85
541.79	42258.37
541.96	41862.82
542.13	42738.18
542.30	42333.27
542.47	42567.32
542.63	42485.40
542.80	42883.30
542.97	43157.14
543.14	42958.19
543.31	43227.35
543.48	42644.56
543.64	43498.86
543.81	43522.26
543.98	43253.10
544.15	42880.95
544.32	43124.37
544.48	43545.67
544.65	43173.52
544.82	43716.53
544.99	43299.91
545.16	43709.50
545.32	42972.24
545.49	43868.66
545.66	43959.94
545.83	43643.97
546.00	43599.50
546.16	43716.53
546.33	43770.36
546.50	43463.75
546.67	43739.93
546.83	43276.51
547.00	43995.05
547.17	43690.78
547.34	43449.70
547.50	43948.24
547.67	43826.53
547.84	44299.32
548.00	44439.75
548.17	44299.32
548.34	43789.08
548.51	44114.42
548.67	43885.04
548.84	44292.30
549.01	43988.03
549.18	44474.86
549.34	44112.08
549.51	44154.21
549.68	44451.45
549.84	44554.44
550.01	44711.25
550.18	44355.49
550.34	44828.28
550.51	44531.03
550.68	43908.45
550.84	44116.76
551.01	44442.09
551.18	44280.60
551.34	44715.93
551.51	44350.81
551.68	44917.22
551.84	44912.54
552.01	44554.44
552.18	44669.12
552.34	44350.81
552.51	44788.49
552.68	45010.84
552.84	44500.61
553.01	45067.02
553.18	44842.32
553.34	44566.14
553.51	44949.99
553.67	45469.59
553.84	45177.02
554.01	45275.32
554.17	45338.52
554.34	44924.24
554.51	44966.37
554.67	45500.01
554.84	45249.58
555.00	45406.39
555.17	45188.72
555.33	45095.10
555.50	44896.16
555.67	45518.74
555.83	45095.10
556.00	45162.98
556.16	45640.45
556.33	45219.15
556.50	45272.98
556.66	45172.34
556.83	44786.15
556.99	45340.86
557.16	46057.06
557.32	45352.56
557.49	45640.45
557.65	45003.82
557.82	45172.34
557.98	45289.37
558.15	45525.76
558.32	45488.31
558.48	45247.24
558.65	45469.59
558.81	45158.30
558.98	45682.58
559.14	45769.18
559.31	45521.08
559.47	45652.15
559.64	45785.56
559.80	45628.74
559.97	45942.38
560.13	45574.91
560.30	45485.97
560.46	46019.61
560.63	45808.96
560.79	45970.46
560.96	45968.12
561.12	45867.48
561.29	45418.10
561.45	45762.15
561.61	46160.05
561.78	45729.39
561.94	45764.49
562.11	45801.94
562.27	45624.06
562.44	46012.59
562.60	46461.97
562.77	45668.53
562.93	46040.68
563.10	46188.13
563.26	45827.69
563.42	46295.80
563.59	45888.54
563.75	46040.68
563.92	46160.05
564.08	46124.94
564.24	45970.46
564.41	46234.94
564.57	46380.06
564.74	45914.29
564.90	45839.39
565.07	45839.39
565.23	45638.11
565.39	45930.67
565.56	46183.45
565.72	46068.76
565.88	45944.72
566.05	45668.53
566.21	45986.85
566.38	45865.14
566.54	46120.26
566.70	46330.90
566.87	46740.50
567.03	46265.37
567.19	47026.04
567.36	46567.30
567.52	46211.54
567.68	46237.28
567.85	46225.58
568.01	46492.40
568.17	46234.94
568.34	46553.26
568.50	46265.37
568.66	45867.48
568.83	46239.62
568.99	45654.49
569.15	46115.58
569.32	46085.15
569.48	46232.60
569.64	46314.52
569.81	46358.99
569.97	46277.07
570.13	46454.95
570.30	46089.83
570.46	45794.92
570.62	46110.89
570.78	46085.15
570.95	46150.68
571.11	46452.61
571.27	46401.12
571.43	46028.98
571.60	46429.21
571.76	46497.08
571.92	46546.23
572.09	46211.54
572.25	46354.31
572.41	46340.27
572.57	46333.24
572.74	46885.61
572.90	46649.22
573.06	46469.00
573.22	46454.95
573.38	46424.53
573.55	46218.56
573.71	46815.40
573.87	46703.05
574.03	46106.21
574.20	45970.46
574.36	46593.04
574.52	46293.46
574.68	46880.93
574.84	46815.40
575.01	46445.59
575.17	46321.54
575.33	46190.47
575.49	46096.85
575.65	46665.60
575.82	46738.16
575.98	46618.79
576.14	46499.42
576.30	46976.89
576.46	45975.14
576.62	45785.56
576.79	46724.11
576.95	46363.67
577.11	46354.31
577.27	46333.24
577.43	46323.88
577.59	46281.75
577.75	46366.01
577.92	46094.51
578.08	45989.19
578.24	46429.21
578.40	46483.04
578.56	46527.51
578.72	46295.80
578.88	46504.10
579.04	46763.90
579.21	46422.19
579.37	46312.18
579.53	46550.91
579.69	46356.65
579.85	46433.89
580.01	46674.96
580.17	46323.88
580.33	46309.84
580.49	46735.82
580.65	46614.11
580.82	46562.62
580.98	46232.60
581.14	46394.10
581.30	46766.24
581.46	46527.51
581.62	46344.95
581.78	46541.55
581.94	46894.97
582.10	46597.73
582.26	46906.68
582.42	46403.46
582.58	46623.47
582.74	46621.13
582.90	46358.99
583.06	47007.32
583.22	46705.39
583.38	46972.21
583.54	46667.94
583.70	46752.20
583.86	46490.06
584.02	46136.64
584.18	46548.57
584.34	46576.66
584.50	46447.93
584.66	46436.23
584.82	46169.41
584.98	46417.50
585.14	46637.51
585.30	46396.44
585.46	46363.67
585.62	46146.00
585.78	46340.27
585.94	46129.62
586.10	46211.54
586.26	46080.47
586.42	46855.18
586.58	47077.54
586.74	46506.44
586.90	46227.92
587.06	46586.02
587.22	46583.68
587.38	46485.38
587.54	46375.37
587.70	46742.84
587.86	46663.26
588.02	46904.34
588.18	46504.10
588.34	46319.20
588.49	46183.45
588.65	46043.02
588.81	46256.01
588.97	46373.03
589.13	45844.07
589.29	46363.67
589.45	46127.28
589.61	46993.28
589.77	46766.24
589.93	46602.41
590.08	46520.49
590.24	46679.64
590.40	47164.14
590.56	46852.84
590.72	46513.47
590.88	46452.61
591.04	46450.27
591.20	46674.96
591.35	46813.05
591.51	46913.70
591.67	46288.77
591.83	46955.83
591.99	46651.56
592.15	46574.32
592.31	46686.67
592.46	46553.26
592.62	46515.81
592.78	46784.97
592.94	46993.28
593.10	46508.79
593.26	46913.70
593.41	46880.93
593.57	46616.45
593.73	46831.78
593.89	46986.25
594.05	46738.16
594.20	46714.75
594.36	46834.12
594.52	46623.47
594.68	46801.35
594.84	46513.47
594.99	46562.62
595.15	46562.62
595.31	46679.64
595.47	46553.26
595.62	46958.17
595.78	46340.27
595.94	46993.28
596.10	47070.51
596.25	47009.66
596.41	46995.62
596.57	46632.83
596.73	46834.12
596.88	46576.66
597.04	46674.96
597.20	46930.08
597.36	46824.76
597.51	47089.24
597.67	47084.56
597.83	46660.92
597.99	46871.57
598.14	46693.69
598.30	46677.30
598.46	46541.55
598.61	46962.85
598.77	46375.37
598.93	46443.25
599.09	46789.65
599.24	47068.17
599.40	47044.77
599.56	46593.04
599.71	46326.22
599.87	46700.71
600.03	46590.70
600.18	46843.48
600.34	46609.43
600.50	46562.62
600.65	46548.57
600.81	46796.67
600.97	46703.05
601.12	46799.01
601.28	46766.24
601.44	46621.13
601.59	46389.42
601.75	46178.77
601.91	46604.75
602.06	46438.57
602.22	46550.91
602.37	46782.63
602.53	46707.73
602.69	46876.25
602.84	46522.83
603.00	46670.28
603.16	46433.89
603.31	46735.82
603.47	46567.30
603.62	46831.78
603.78	46817.74
603.94	46686.67
604.09	46693.69
604.25	46583.68
604.40	46387.08
604.56	46504.10
604.71	46696.03
604.87	46611.77
605.03	46396.44
605.18	46766.24
605.34	46478.36
605.49	46108.55
605.65	46649.22
605.80	46141.32
605.96	46461.97
606.12	46684.33
606.27	47124.35
606.43	46728.80
606.58	46478.36
606.74	46300.48
606.89	46298.14
607.05	46504.10
607.20	46450.27
607.36	46541.55
607.51	46646.88
607.67	46799.01
607.82	46770.93
607.98	46295.80
608.13	46642.20
608.29	46225.58
608.44	46169.41
608.60	46244.30
608.75	46153.02
608.91	46330.90
609.06	46012.59
609.22	46246.65
609.37	46134.30
609.53	46403.46
609.68	46096.85
609.84	45949.40
609.99	45989.19
610.15	46068.76
610.30	45914.29
610.46	45766.84
610.61	45940.04
610.76	46314.52
610.92	45827.69
611.07	46286.43
611.23	46150.68
611.38	46054.72
611.54	45984.51
611.69	45734.07
611.84	45977.48
612.00	45703.64
612.15	45647.47
612.31	45930.67
612.46	45830.03
612.62	45783.22
612.77	45869.82
612.92	45696.62
613.08	45350.22
613.23	45619.38
613.39	45298.73
613.54	45165.32
613.69	45720.02
613.85	45808.96
614.00	45827.69
614.15	45825.35
614.31	45797.26
614.46	46043.02
614.62	45874.50
614.77	45778.54
614.92	45546.82
615.08	45280.00
615.23	45455.54
615.38	45357.24
615.54	45043.61
615.69	44973.39
615.84	45015.52
616.00	45333.84
616.15	45212.13
616.30	45514.06
616.46	44921.90
616.61	45511.72
616.76	45015.52
616.92	44692.53
617.07	44935.95
617.22	44755.72
617.37	44837.64
617.53	45593.64
617.68	45565.55
617.83	45364.26
617.99	45277.66
618.14	44685.51
618.29	44622.31
618.45	44851.69
618.60	44519.33
618.75	44449.11
618.90	44601.25
619.06	44610.61
619.21	44856.37
619.36	45139.57
619.51	44987.44
619.67	44844.66
619.82	44655.08
619.97	45003.82
620.12	44456.14
620.28	44154.21
620.43	44694.87
620.58	44648.06
620.73	44692.53
620.89	44898.50
621.04	44729.98
621.19	44800.19
621.34	44905.52
621.49	44491.24
621.65	43962.28
621.80	44514.65
621.95	44315.70
622.10	44369.54
622.25	44093.35
622.41	44161.23
622.56	44179.95
622.71	44392.94
622.86	44299.32
623.01	44102.71
623.16	44304.00
623.32	44505.29
623.47	43988.03
623.62	43988.03
623.77	44177.61
623.92	44287.62
624.07	43756.32
624.23	43585.46
624.38	43540.99
624.53	43536.30
624.68	43920.15
624.83	44060.58
624.98	43899.09
625.13	43662.69
625.29	43515.24
625.44	43430.98
625.59	43440.34
625.74	43189.91
625.89	43206.29
626.04	43438.00
626.19	43934.20
626.34	43295.23
626.49	43166.50
626.65	43611.20
626.80	43606.52
626.95	43180.54
627.10	43475.45
627.25	43246.08
627.40	43229.69
627.55	42780.31
627.70	43281.19
627.85	42930.11
628.00	42857.55
628.15	43269.48
628.30	43049.47
628.45	43407.58
628.60	43065.86
628.76	43147.78
628.91	43477.79
629.06	42773.29
629.21	42682.01
629.36	42859.89
629.51	42841.17
629.66	42691.37
629.81	43227.35
629.96	42855.21
630.11	42689.03
630.26	42953.51
630.41	42698.39
630.56	42560.30
630.71	42735.84
630.86	42433.91
631.01	42305.18
631.16	42351.99
631.31	42232.63
631.46	42433.91
631.61	42679.67
631.76	42286.46
631.91	42249.01
632.06	42356.67
632.21	42696.05
632.36	42246.67
632.51	42312.20
632.66	41979.85
632.81	41858.14
632.96	42298.16
633.10	42003.25
633.25	41975.17
633.40	41794.95
633.55	42501.79
633.70	42431.57
633.85	41706.01
634.00	41879.21
634.15	42136.66
634.30	42033.68
634.45	41921.34
634.60	42089.85
634.75	41862.82
634.90	42075.81
635.05	41691.96
635.19	41631.11
635.34	41759.84
635.49	41588.98
635.64	41834.74
635.79	41429.82
635.94	41736.43
636.09	41610.04
636.24	41614.72
636.39	41446.21
636.53	41801.97
636.68	41242.58
636.83	41668.56
636.98	41745.80
637.13	41769.20
637.28	41516.42
637.43	41500.04
637.57	41879.21
637.72	41556.21
637.87	41399.40
638.02	41663.88
638.17	41439.18
638.32	41404.08
638.46	41422.80
638.61	41752.82
638.76	40809.58
638.91	41083.42
639.06	41216.83
639.20	41193.43
639.35	41621.75
639.50	41273.01
639.65	41165.34
639.80	41275.35
639.94	40870.43
640.09	41123.21
640.24	40753.41
640.39	40631.70
640.54	40477.22
640.68	40641.06
640.83	40954.69
640.98	40914.90
641.13	40863.41
641.27	41120.87
641.42	40552.12
641.57	40568.51
641.72	40474.88
641.86	40371.90
642.01	40568.51
642.16	40395.31
642.31	40453.82
642.45	40811.92
642.60	40163.59
642.75	40636.38
642.90	40519.35
643.04	40135.51
643.19	40278.28
643.34	40390.62
643.48	40399.99
643.63	40140.19
643.78	40126.14
643.93	39943.58
644.07	40179.98
644.22	39990.39
644.37	39868.69
644.51	40203.38
644.66	40294.66
644.81	39999.76
644.95	40278.28
645.10	39840.60
645.25	40257.21
645.39	40004.44
645.54	39861.66
645.69	39751.66
645.83	39866.34
645.98	39564.42
646.13	39702.51
646.27	40189.34
646.42	39636.97
646.57	39856.98
646.71	39250.78
646.86	39777.40
647.00	39700.17
647.15	39791.45
647.30	39599.52
647.44	39416.96
647.59	39199.29
647.74	39482.50
647.88	39262.49
648.03	39814.85
648.17	39669.74
648.32	39145.46
648.47	39618.25
648.61	39395.90
648.76	39805.49
648.90	39023.75
649.05	39234.40
649.20	39391.22
649.34	39388.88
649.49	38972.26
649.63	39033.11
649.78	39278.87
649.92	38993.32
650.07	39646.33
650.21	39005.03
650.36	39145.46
650.51	39510.58
650.65	39934.22
650.80	39601.86
650.94	39353.77
651.09	39192.27
651.23	38824.81
651.38	38607.14
651.52	38899.70
651.67	38967.58
651.81	38703.10
651.96	38890.34
652.10	38941.83
652.25	39269.51
652.39	38525.22
652.54	38888.00
652.68	38639.90
652.83	38927.79
652.97	39166.52
653.12	39086.95
653.26	38721.82
653.41	38724.16
653.55	38160.09
653.70	38455.00
653.84	38377.76
653.99	38389.47
654.13	37916.68
654.27	38171.80
654.42	37694.33
654.56	37881.57
654.71	38352.02
654.85	38345.00
655.00	38141.37
655.14	37928.38
655.29	38096.90
655.43	38036.05
655.57	37858.17
655.72	37413.46
655.86	37757.52
656.01	37266.01
656.15	36753.43
656.30	37303.46
656.44	37722.41
656.58	37834.76
656.73	37366.65
656.87	37099.83
657.01	37904.98
657.16	37471.98
657.30	37170.05
657.45	37347.93
657.59	37769.22
657.73	37972.85
657.88	37926.04
658.02	38073.49
658.16	37914.34
658.31	37792.63
658.45	37652.20
658.60	37296.44
658.74	37490.70
658.88	37621.77
659.03	37212.18
659.17	37034.30
659.31	37029.62
659.46	36568.53
659.60	36975.78
659.74	37020.25
659.89	36973.44
660.03	36662.15
660.17	36776.84
660.32	37397.08
660.46	37263.67
660.60	36711.30
660.74	36507.68
660.89	36718.32
661.03	36133.19
661.17	36357.88
661.32	36512.36
661.46	36655.13
661.60	36811.95
661.74	36430.44
661.89	36273.62
662.03	36570.87
662.17	36416.40
662.31	36133.19
662.46	36320.43
662.60	36685.56
662.74	36123.83
662.88	35899.14
663.03	35842.96
663.17	36240.86
663.31	36018.50
663.45	35981.06
663.60	36006.80
663.74	36032.55
663.88	35761.05
664.02	35285.92
664.17	35964.67
664.31	35456.78
664.45	35519.97
664.59	35398.26
664.73	35250.81
664.88	35304.64
665.02	35281.24
665.16	35398.26
665.30	35285.92
665.44	34845.90
665.59	34707.80
665.73	35199.32
665.87	34857.60
666.01	34932.50
666.15	35700.19
666.29	35037.82
666.44	35189.95
666.58	34731.21
666.72	35281.24
666.86	34724.19
667.00	34766.32
667.14	34483.11
667.28	34436.30
667.43	34602.48
667.57	34689.08
667.71	34462.05
667.85	34567.37
667.99	34548.65
668.13	34405.88
668.27	34501.84
668.41	34693.76
668.56	34139.05
668.70	34438.64
668.84	33544.56
668.98	33497.75
669.12	33783.29
669.26	33851.17
669.40	34057.14
669.54	33237.95
669.68	33525.83
669.82	33572.64
669.96	33429.87
670.10	33010.92
670.25	33369.02
670.39	32919.63
670.53	32856.44
670.67	33092.83
670.81	33081.13
670.95	33125.60
671.09	32816.65
671.23	32945.38
671.37	32938.36
671.51	32914.95
671.65	32598.98
671.79	32568.55
671.93	32472.59
672.07	32418.76
672.21	32505.36
672.35	32556.85
672.49	32299.39
672.63	32730.05
672.77	32758.14
672.91	32191.73
673.05	32168.32
673.19	32254.92
673.33	31969.38
673.47	32191.73
673.61	31648.72
673.75	31669.79
673.89	31592.55
674.03	31817.24
674.17	31545.74
674.31	31548.08
674.45	31927.25
674.59	31405.31
674.73	31634.68
674.87	31672.13
675.01	31281.26
675.15	31117.42
675.29	30817.83
675.43	31091.68
675.56	31239.13
675.70	30649.32
675.84	30801.45
675.98	30192.91
676.12	30651.66
676.26	30778.04
676.40	30649.32
676.54	30792.09
676.68	30361.43
676.82	30331.00
676.96	30216.32
677.10	29816.08
677.23	30075.88
677.37	29944.81
677.51	29631.18
677.65	29696.72
677.79	29397.13
677.93	29233.29
678.07	29177.12
678.21	28758.16
678.34	28940.72
678.48	29006.26
678.62	29291.80
678.76	28833.06
678.90	28765.18
679.04	28451.55
679.18	28610.71
679.31	28657.52
679.45	28304.10
679.59	28322.82
679.73	27971.74
679.87	27917.91
680.00	28191.75
680.14	28393.04
680.28	28030.26
680.42	27908.55
680.56	28109.83
680.70	28046.64
680.83	28020.89
680.97	27557.47
681.11	27510.66
681.25	27421.72
681.39	27257.88
681.52	27016.80
681.66	27147.87
681.80	27239.15
681.94	27077.66
682.07	27222.77
682.21	27103.40
682.35	26721.90
682.49	26806.16
682.62	26490.18
682.76	26174.21
682.90	26452.73
683.04	26314.64
683.17	25949.52
683.31	26426.99
683.45	25923.77
683.59	25823.13
683.72	25935.48
683.86	26019.74
684.00	26298.26
684.13	25645.25
684.27	25895.69
684.41	25352.68
684.55	24975.86
684.68	25060.12
684.82	25324.60
684.96	25032.03
685.09	25053.09
685.23	24793.29
685.37	24854.15
685.50	24910.32
685.64	24826.06
685.78	24683.29
685.91	24613.07
686.05	24563.92
686.19	24519.45
686.32	23922.62
686.46	23735.37
686.60	23578.56
686.73	23538.77
686.87	23328.12
687.01	23152.58
687.14	22871.72
687.28	23220.45
687.42	23428.76
687.55	23232.16
687.69	23150.24
687.82	23014.49
687.96	23112.79
688.10	22892.78
688.23	22506.59
688.37	22581.49
688.50	22661.07
688.64	22600.21
688.78	22389.56
688.91	22324.03
689.05	22534.68
689.18	22593.19
689.32	21708.47
689.46	22073.59
689.59	22230.41
689.73	22480.85
689.86	22045.51
690.00	21668.68
690.13	22204.66
690.27	21905.07
690.41	21591.44
690.54	21312.92
690.68	21465.05
690.81	21088.23
690.95	21654.64
691.08	21493.14
691.22	21516.54
691.35	21275.47
691.49	21397.18
691.62	21369.09
691.76	20893.96
691.89	20947.79
692.03	20650.55
692.16	20683.31
692.30	20336.91
692.43	20233.93
692.57	20229.25
692.70	20123.93
692.84	20435.22
692.97	20042.01
693.11	20130.95
693.24	19983.49
693.38	19789.23
693.51	19613.69
693.65	19613.69
693.78	19222.82
693.92	19754.12
694.05	19833.70
694.19	19363.25
694.32	19180.69
694.45	19176.01
694.59	19138.56
694.72	18991.11
694.86	19080.05
694.99	18883.44
695.13	18904.51
695.26	18934.93
695.39	18759.39
695.53	18679.82
695.66	18895.14
695.80	18787.48
695.93	18780.46
696.07	18539.38
696.20	18581.51
696.33	18387.25
696.47	18225.75
696.60	18054.89
696.73	17916.80
696.87	17933.18
697.00	17977.65
697.14	17825.52
697.27	17724.88
697.40	17673.39
697.54	17343.37
697.67	17413.59
697.80	17312.94
697.94	17249.75
698.07	17069.53
698.21	17095.27
698.34	17160.81
698.47	16905.69
698.61	16971.22
698.74	16833.13
698.87	16830.79
699.01	16858.88
699.14	16563.97
699.27	16486.73
699.40	16542.91
699.54	16222.25
699.67	16299.49
699.80	16187.14
699.94	16130.97
700.07	16229.27
700.20	16240.98
700.34	16049.05
700.47	16233.96
700.60	16175.44
700.73	16184.80
700.87	15852.45
701.00	15667.55
701.13	15463.92
701.26	15424.13
701.40	15318.81
701.53	15634.78
701.66	15452.22
701.79	15510.73
701.93	15091.77
702.06	15136.24
702.19	14911.55
702.32	15185.40
702.46	14717.29
702.59	15133.90
702.72	15002.83
702.85	14813.25
702.99	15005.17
703.12	14618.99
703.25	14513.66
703.38	14633.03
703.51	14483.24
703.65	14525.36
703.78	14396.64
703.91	13827.88
704.04	14127.47
704.17	14012.79
704.31	14237.48
704.44	14223.44
704.57	13916.83
704.70	13809.16
704.83	13968.32
704.96	13858.31
705.10	13783.41
705.23	13600.85
>>>>>End Processed Spectral Data<<<<<
