SpectraSuite Data File
++++++++++++++++++++++++++++++++++++
Date: Fri Oct 25 10:43:28 EDT 2013
User: price-jones
Dark Spectrum Present: No
Reference Spectrum Present: No
Number of Sampled Component Spectra: 1
Spectrometers: USB2+H05261
Integration Time (usec): 100000 (USB2+H05261)
Spectra Averaged: 1 (USB2+H05261)
Boxcar Smoothing: 0 (USB2+H05261)
Correct for Electrical Dark: No (USB2+H05261)
Strobe/Lamp Enabled: No (USB2+H05261)
Correct for Detector Non-linearity: No (USB2+H05261)
Correct for Stray Light: No (USB2+H05261)
Number of Pixels in Processed Spectrum: 2048
>>>>>Begin Processed Spectral Data<<<<<
365.73	175.54
365.92	175.54
366.12	175.54
366.32	44.47
366.52	35.11
366.72	56.17
366.91	0.00
367.11	105.32
367.31	0.00
367.51	0.00
367.70	53.83
367.90	11.70
368.10	0.00
368.30	44.47
368.49	14.04
368.69	65.54
368.89	0.00
369.09	60.85
369.28	77.24
369.48	77.24
369.68	39.79
369.87	168.52
370.07	84.26
370.27	124.05
370.47	231.71
370.66	327.68
370.86	400.23
371.06	425.98
371.25	498.53
371.45	414.27
371.65	416.62
371.84	372.15
372.04	367.46
372.24	437.68
372.44	458.74
372.63	468.11
372.83	531.30
373.03	524.28
373.22	458.74
373.42	524.28
373.62	486.83
373.81	561.73
374.01	458.74
374.21	528.96
374.40	566.41
374.60	592.16
374.79	561.73
374.99	547.69
375.19	617.90
375.38	578.11
375.58	580.45
375.78	571.09
375.97	624.92
376.17	657.69
376.37	568.75
376.56	606.20
376.76	543.00
376.95	561.73
377.15	650.67
377.35	589.82
377.54	669.39
377.74	634.29
377.93	608.54
378.13	603.86
378.33	624.92
378.52	622.58
378.72	664.71
378.91	692.80
379.11	636.63
379.31	535.98
379.50	603.86
379.70	606.20
379.89	603.86
380.09	697.48
380.28	699.82
380.48	664.71
380.68	713.86
380.87	681.10
381.07	695.14
381.26	660.03
381.46	732.59
381.65	702.16
381.85	692.80
382.04	716.20
382.24	655.35
382.43	755.99
382.63	617.90
382.83	781.74
383.02	784.08
383.22	669.39
383.41	702.16
383.61	674.07
383.80	706.84
384.00	753.65
384.19	758.33
384.39	793.44
384.58	772.38
384.78	866.00
384.97	877.70
385.17	760.67
385.36	765.36
385.56	812.17
385.75	805.14
385.95	816.85
386.14	772.38
386.34	767.70
386.53	842.59
386.72	777.06
386.92	851.96
387.11	896.43
387.31	908.13
387.50	851.96
387.70	882.38
387.89	837.91
388.09	919.83
388.28	957.28
388.48	933.87
388.67	940.90
388.86	898.77
389.06	966.64
389.25	950.26
389.45	866.00
389.64	943.24
389.84	1008.77
390.03	980.68
390.22	990.05
390.42	1020.47
390.61	1008.77
390.81	1013.45
391.00	1025.15
391.19	1041.54
391.39	1062.60
391.58	1020.47
391.78	1071.97
391.97	1139.84
392.16	1088.35
392.36	1029.84
392.55	1083.67
392.75	919.83
392.94	1006.43
393.13	1057.92
393.33	1025.15
393.52	1011.11
393.71	1128.14
393.91	1102.39
394.10	1011.11
394.29	1153.88
394.49	1081.33
394.68	1160.91
394.88	1198.35
395.07	1203.04
395.26	1219.42
395.46	1153.88
395.65	1282.61
395.84	1210.06
396.04	1242.82
396.23	1226.44
396.42	1160.91
396.62	1109.41
396.81	1303.68
397.00	1191.33
397.19	1284.95
397.39	1331.76
397.58	1341.13
397.77	1310.70
397.97	1359.85
398.16	1413.68
398.35	1439.43
398.55	1434.75
398.74	1490.92
398.93	1619.65
399.12	1467.52
399.32	1430.07
399.51	1528.37
399.70	1565.82
399.90	1533.05
400.09	1577.52
400.28	1633.69
400.47	1614.97
400.67	1685.19
400.86	1696.89
401.05	1689.87
401.24	1603.27
401.44	1699.23
401.63	1668.80
401.82	1797.53
402.01	1650.08
402.21	1659.44
402.40	1739.02
402.59	1717.95
402.78	1668.80
402.97	1739.02
403.17	1809.23
403.36	1750.72
403.55	1799.87
403.74	1832.64
403.93	1799.87
404.13	1872.43
404.32	1813.92
404.51	1891.15
404.70	1870.09
404.89	1849.02
405.09	1933.28
405.28	1959.03
405.47	1867.75
405.66	1966.05
405.85	1872.43
406.05	1987.11
406.24	2054.99
406.43	1987.11
406.62	2106.48
406.81	2143.93
407.00	2104.14
407.20	2038.61
407.39	2047.97
407.58	2251.60
407.77	2052.65
407.96	2303.09
408.15	2265.64
408.34	2115.84
408.54	2251.60
408.73	2265.64
408.92	2204.78
409.11	2275.00
409.30	2204.78
409.49	2197.76
409.68	2174.36
409.87	2258.62
410.07	2342.88
410.26	2396.71
410.45	2429.48
410.64	2422.45
410.83	2537.14
411.02	2436.50
411.21	2546.50
411.40	2616.72
411.59	2583.95
411.78	2560.55
411.98	2551.18
412.17	2691.62
412.36	2703.32
412.55	2691.62
412.74	2700.98
412.93	2649.49
413.12	2731.41
413.31	2815.66
413.50	2883.54
413.69	2920.99
413.88	2902.26
414.07	2827.37
414.26	2874.18
414.45	2932.69
414.64	3052.06
414.83	3162.06
415.02	3023.97
415.22	3110.57
415.41	3272.07
415.60	3103.55
415.79	3129.30
415.98	3330.58
416.17	3162.06
416.36	3173.77
416.55	3166.74
416.74	3166.74
416.93	3112.91
417.12	3295.47
417.31	3314.20
417.50	3496.76
417.69	3445.27
417.88	3419.52
418.07	3309.52
418.26	3515.48
418.45	3552.93
418.64	3609.11
418.83	3552.93
419.02	3552.93
419.21	3648.90
419.39	3562.30
419.58	3529.53
419.77	3566.98
419.96	3536.55
420.15	3585.70
420.34	3700.39
420.53	3705.07
420.72	3819.75
420.91	3796.35
421.10	3791.67
421.29	3791.67
421.48	3698.05
421.67	3859.54
421.86	3705.07
422.05	3681.66
422.24	3623.15
422.43	3702.73
422.61	3840.82
422.80	3808.05
422.99	3925.08
423.18	3999.98
423.37	3868.91
423.56	3822.09
423.75	3932.10
423.94	3794.01
424.13	3658.26
424.32	3742.52
424.50	3922.74
424.69	4021.04
424.88	4138.07
425.07	3882.95
425.26	3791.67
425.45	3950.82
425.64	3882.95
425.83	3934.44
426.01	3999.98
426.20	3967.21
426.39	3995.29
426.58	3822.09
426.77	3904.01
426.96	4065.51
427.15	4142.75
427.33	4051.47
427.52	4091.26
427.71	4180.20
427.90	4107.64
428.09	4086.58
428.28	4117.00
428.46	4212.96
428.65	4177.86
428.84	4271.48
429.03	4187.22
429.22	4023.38
429.40	4093.60
429.59	4217.65
429.78	3934.44
429.97	3735.50
430.16	4079.55
430.34	4058.49
430.53	4250.41
430.72	4100.62
430.91	4257.43
431.10	4409.57
431.28	4442.34
431.47	4542.98
431.66	4470.42
431.85	4400.21
432.03	4454.04
432.22	4524.26
432.41	4599.15
432.60	4699.80
432.79	4596.81
432.97	4851.93
433.16	4706.82
433.35	4734.90
433.54	4655.33
433.72	4606.17
433.91	4685.75
434.10	4669.37
434.28	4772.35
434.47	4823.84
434.66	4699.80
434.85	4950.23
435.03	4968.96
435.22	4847.25
435.41	5151.52
435.59	4980.66
435.78	5018.11
435.97	5170.24
436.16	5085.98
436.34	5128.11
436.53	5034.49
436.72	5195.99
436.90	5102.37
437.09	5270.89
437.28	5013.43
437.46	4994.70
437.65	5004.07
437.84	5186.63
438.02	5121.09
438.21	5149.18
438.40	5041.51
438.58	5179.61
438.77	5483.88
438.96	5521.32
439.14	5633.67
439.33	5537.71
439.52	5577.50
439.70	5818.57
439.89	5593.88
440.08	5643.03
440.26	5603.24
440.45	5720.27
440.63	6045.60
440.82	5982.41
441.01	5884.11
441.19	5879.43
441.38	6101.78
441.57	6019.86
441.75	6047.94
441.94	6335.83
442.12	6167.31
442.31	6389.66
442.50	6384.98
442.68	6328.81
442.87	6207.10
443.05	6246.89
443.24	6424.77
443.43	6342.85
443.61	6361.58
443.80	6558.18
443.98	6300.72
444.17	6230.51
444.35	6502.01
444.54	6539.46
444.73	6635.42
444.91	6530.09
445.10	6539.46
445.28	6399.02
445.47	6333.49
445.65	6324.13
445.84	6560.52
446.02	6579.25
446.21	6607.33
446.39	6576.91
446.58	6736.06
446.77	6705.63
446.95	6520.73
447.14	6609.67
447.32	6593.29
447.51	6656.48
447.69	6588.61
447.88	6478.60
448.06	6572.22
448.25	6700.95
448.43	6707.98
448.62	6560.52
448.80	6633.08
448.99	6733.72
449.17	6972.46
449.36	6902.24
449.54	6986.50
449.73	6967.77
449.91	6974.80
450.10	6946.71
450.28	7126.93
450.46	7087.14
450.65	7485.03
450.83	7225.23
451.02	6993.52
451.20	7197.15
451.39	7225.23
451.57	7019.27
451.76	7094.16
451.94	7243.96
452.13	7372.69
452.31	7087.14
452.49	7040.33
452.68	7199.49
452.86	7073.10
453.05	7232.26
453.23	7353.96
453.42	7243.96
453.60	7461.63
453.78	7307.15
453.97	7405.46
454.15	7246.30
454.34	7405.46
454.52	7510.78
454.70	7417.16
454.89	7318.86
455.07	7616.10
455.26	7674.62
455.44	7737.81
455.62	7529.50
455.81	7566.95
455.99	7777.60
456.17	7957.82
456.36	7843.14
456.54	7836.11
456.73	7868.88
456.91	7985.91
457.09	7971.86
457.28	8250.39
457.46	8116.98
457.64	8088.89
457.83	8184.85
458.01	7962.50
458.19	8306.56
458.38	8152.09
458.56	8234.00
458.74	8245.71
458.93	8154.43
459.11	8322.94
459.29	8374.44
459.48	8512.53
459.66	8329.97
459.84	8439.97
460.03	8505.51
460.21	8554.66
460.39	8360.39
460.57	8313.58
460.76	8461.04
460.94	8643.60
461.12	8482.10
461.31	8603.81
461.49	8486.78
461.67	8540.61
461.85	8678.71
462.04	8709.13
462.22	9378.53
462.40	8978.30
462.59	9034.47
462.77	8814.46
462.95	8973.61
463.13	8772.33
463.32	8809.78
463.50	9039.15
463.68	8964.25
463.86	8884.67
464.05	8664.66
464.23	8847.22
464.41	9170.22
464.59	8564.02
464.78	9324.69
464.96	9228.73
465.14	9008.72
465.32	9053.19
465.50	9547.05
465.69	9186.60
465.87	9107.02
466.05	9130.43
466.23	8889.35
466.41	9036.81
466.60	9441.72
466.78	9163.20
466.96	8926.80
467.14	9252.14
467.32	9308.31
467.51	9240.44
467.69	9364.48
467.87	9331.72
468.05	9376.19
468.23	9341.08
468.41	9462.79
468.60	9476.83
468.78	9753.01
468.96	9607.90
469.14	9523.64
469.32	9631.30
469.50	9474.49
469.69	9593.86
469.87	9713.22
470.05	9774.08
470.23	9643.01
470.41	9820.89
470.59	9998.77
470.77	9586.83
470.95	9846.63
471.14	10176.65
471.32	9935.57
471.50	10200.05
471.68	10377.94
471.86	10246.87
472.04	10195.37
472.22	10644.76
472.40	10181.33
472.58	10497.30
472.77	10527.73
472.95	10408.36
473.13	10717.31
473.31	10553.48
473.49	10471.56
473.67	10298.36
473.85	10644.76
474.03	10986.47
474.21	10717.31
474.39	11054.35
474.57	10951.37
474.75	10965.41
474.93	11180.74
475.12	11002.86
475.30	11129.25
475.48	11012.22
475.66	11232.23
475.84	11122.23
476.02	11122.23
476.20	11318.83
476.38	11566.93
476.56	11920.35
476.74	11583.31
476.92	11733.11
477.10	11705.02
477.28	11939.07
477.46	11878.22
477.64	11845.45
477.82	12161.42
478.00	12561.66
478.18	12566.34
478.36	12320.58
478.54	12587.40
478.72	12594.42
478.90	12931.46
479.08	13013.38
479.26	13135.09
479.44	13174.88
479.62	13114.02
479.80	12933.80
479.98	13511.91
480.16	13565.74
480.34	13408.93
480.52	13741.29
480.70	13511.91
480.88	13439.36
481.06	13554.04
481.24	13858.31
481.41	14171.94
481.59	14368.55
481.77	14317.06
481.95	13949.59
482.13	14307.69
482.31	14633.03
482.49	14508.98
482.67	14794.53
482.85	14593.24
483.03	14981.77
483.21	14951.34
483.39	15272.00
483.57	15276.68
483.74	15482.64
483.92	15414.77
484.10	15382.00
484.28	15452.22
484.46	15733.08
484.64	16063.10
484.82	16262.04
485.00	16126.29
485.18	16395.45
485.35	16411.84
485.53	16177.78
485.71	16056.08
485.89	16393.11
486.07	16203.53
486.25	16463.33
486.43	17001.65
486.61	17048.46
486.78	16978.25
486.96	17146.76
487.14	17584.44
487.32	17600.83
487.50	17790.41
487.68	17937.87
487.85	18310.01
488.03	18574.49
488.21	18246.82
488.39	18293.63
488.57	18410.65
488.75	18623.64
488.92	18909.19
489.10	19066.00
489.28	19140.90
489.46	19477.94
489.64	19623.05
489.81	19934.34
489.99	20137.97
490.17	19978.81
490.35	20297.13
490.53	20250.32
490.70	20627.14
490.88	20313.51
491.06	20725.44
491.24	20397.77
491.41	20610.76
491.59	20727.78
491.77	20699.70
491.95	20716.08
492.13	21088.23
492.30	21418.24
492.48	21404.20
492.66	21579.74
492.84	21689.74
493.01	22113.38
493.19	21797.41
493.37	22099.34
493.54	22258.49
493.72	22251.47
493.90	22614.26
494.08	22728.94
494.25	22993.42
494.43	22871.72
494.61	23220.45
494.79	23517.70
494.96	23449.83
495.14	23604.30
495.32	23400.68
495.49	23417.06
495.67	23557.49
495.85	23824.31
496.02	24278.38
496.20	24460.94
496.38	24222.20
496.55	24547.54
496.73	24718.40
496.91	24730.10
497.09	24779.25
497.26	24868.19
497.44	25008.62
497.62	25333.96
497.79	25081.18
497.97	25123.31
498.14	25165.44
498.32	25523.54
498.50	25277.79
498.67	25633.55
498.85	25734.19
499.03	26426.99
499.20	25991.65
499.38	26544.02
499.56	26230.38
499.73	26211.66
499.91	26333.37
500.08	26771.05
500.26	26588.49
500.44	26403.58
500.61	26441.03
500.79	26738.28
500.97	26476.14
501.14	26714.87
501.32	26960.63
501.49	27019.14
501.67	27138.51
501.84	27447.46
502.02	27356.18
502.20	27037.87
502.37	27557.47
502.55	27498.95
502.72	28130.90
502.90	28201.11
503.07	27737.69
503.25	28137.92
503.43	27744.71
503.60	27885.14
503.78	27681.52
503.95	27915.57
504.13	28283.03
504.30	28182.39
504.48	28655.18
504.65	28954.77
504.83	28456.23
505.01	29032.00
505.18	29013.28
505.36	29221.59
505.53	29275.42
505.71	29617.14
505.88	29565.65
506.06	29202.86
506.23	29802.04
506.41	29181.80
506.58	29668.63
506.76	29750.55
506.93	29757.57
507.11	29797.36
507.28	29589.05
507.46	29738.85
507.63	29820.77
507.81	30363.77
507.98	29783.32
508.16	30401.22
508.33	30263.13
508.50	30424.62
508.68	30852.94
508.85	31000.40
509.03	30707.83
509.20	30820.17
509.38	30876.35
509.55	30902.09
509.73	31384.24
509.90	31000.40
510.08	30836.56
510.25	31239.13
510.42	31236.79
510.60	31433.39
510.77	31454.46
510.95	31924.91
511.12	31789.16
511.30	32135.56
511.47	32173.00
511.64	32163.64
511.82	32086.40
511.99	32030.23
512.17	32245.56
512.34	32065.34
512.51	32510.04
512.69	32142.58
512.86	32168.32
513.04	32952.40
513.21	32591.96
513.38	32718.35
513.56	32456.21
513.73	32243.22
513.90	32531.11
514.08	32741.75
514.25	33034.32
514.43	33104.54
514.60	33029.64
514.77	33149.01
514.95	33495.41
515.12	32856.44
515.29	33411.15
515.47	33787.97
515.64	33736.48
515.81	33420.51
515.99	33708.40
516.16	33780.95
516.33	33273.06
516.51	33876.91
516.68	33111.56
516.85	33017.94
517.03	33675.63
517.20	33762.23
517.37	34284.17
517.54	34195.23
517.72	34153.10
517.89	34033.73
518.06	33837.12
518.24	33940.11
518.41	34520.56
518.58	34480.77
518.75	34529.92
518.93	34352.04
519.10	34396.51
519.27	34941.86
519.45	34593.12
519.62	35065.91
519.79	34862.28
519.96	35189.95
520.14	35180.59
520.31	34785.04
520.48	34888.03
520.65	35215.70
520.83	35569.12
521.00	35707.21
521.17	35651.04
521.34	35901.48
521.52	35590.19
521.69	35929.56
521.86	36084.04
522.03	36016.16
522.20	36086.38
522.38	35906.16
522.55	35791.47
522.72	36411.71
522.89	35945.95
523.07	36252.56
523.24	36563.85
523.41	36540.44
523.58	36861.10
523.75	36994.51
523.92	36877.48
524.10	37296.44
524.27	36774.50
524.44	36994.51
524.61	37104.51
524.78	37137.28
524.96	37350.27
525.13	37216.86
525.30	37205.16
525.47	37556.24
525.64	37368.99
525.81	37174.73
525.98	37156.00
526.16	37268.35
526.33	37020.25
526.50	37148.98
526.67	37053.02
526.84	36877.48
527.01	37331.54
527.18	37879.23
527.36	37855.82
527.53	37731.78
527.70	38127.33
527.87	37666.24
528.04	38078.18
528.21	38127.33
528.38	38469.04
528.55	38527.56
528.72	38452.66
528.89	39105.67
529.07	38675.01
529.24	38396.49
529.41	38780.34
529.58	38583.73
529.75	38630.54
529.92	39035.45
530.09	39049.50
530.26	39157.16
530.43	39166.52
530.60	38876.30
530.77	39196.95
530.94	38852.89
531.11	39372.49
531.28	39222.70
531.46	39194.61
531.63	39299.94
531.80	39306.96
531.97	38986.30
532.14	39533.99
532.31	38974.60
532.48	39063.54
532.65	39412.28
532.82	39318.66
532.99	39515.26
533.16	39250.78
533.33	39686.12
533.50	39749.32
533.67	39892.09
533.84	39871.03
534.01	39503.56
534.18	39807.83
534.35	40421.05
534.52	40081.67
534.69	40100.40
534.86	40278.28
535.03	40194.02
535.20	40598.93
535.37	40828.30
535.54	40823.62
535.71	40233.81
535.88	40573.19
536.05	40376.58
536.22	40512.33
536.38	40884.48
536.55	40458.50
536.72	40528.72
536.89	40039.54
537.06	40732.34
537.23	40680.85
537.40	41071.72
537.57	40554.46
537.74	40755.75
537.91	41045.97
538.08	40872.78
538.25	40765.11
538.42	41092.79
538.59	40765.11
538.75	41003.85
538.92	41228.54
539.09	41729.41
539.26	40837.67
539.43	41216.83
539.60	41064.70
539.77	40999.16
539.94	41207.47
540.11	41088.10
540.28	41322.16
540.44	41221.52
540.61	41333.86
540.78	41202.79
540.95	41621.75
541.12	41167.68
541.29	41539.83
541.46	41713.03
541.62	41628.77
541.79	41504.72
541.96	41205.13
542.13	41654.51
542.30	41551.53
542.47	41965.81
542.63	41617.07
542.80	41865.16
542.97	41918.99
543.14	42087.51
543.31	42012.62
543.48	42440.93
543.64	42377.74
543.81	42674.99
543.98	42171.77
544.15	42576.69
544.32	42501.79
544.48	42766.27
544.65	42586.05
544.82	42450.30
544.99	42401.14
545.16	42630.52
545.32	42232.63
545.49	42995.64
545.66	42995.64
545.83	42960.53
546.00	42965.21
546.16	42478.38
546.33	43250.76
546.50	42543.92
546.67	43330.34
546.83	42665.63
547.00	42962.87
547.17	42927.77
547.34	42904.36
547.50	43281.19
547.67	43253.10
547.84	43365.45
548.00	43386.51
548.17	43650.99
548.34	43255.44
548.51	43945.90
548.67	43555.03
548.84	43540.99
549.01	43194.59
549.18	43423.96
549.34	43496.52
549.51	43840.57
549.68	43922.49
549.84	43615.88
550.01	43498.86
550.18	43622.90
550.34	43288.21
550.51	43384.17
550.68	43716.53
550.84	43447.36
551.01	43667.37
551.18	43749.29
551.34	43831.21
551.51	44308.68
551.68	44060.58
551.84	43810.15
552.01	43945.90
552.18	44149.53
552.34	43758.66
552.51	43709.50
552.68	43756.32
552.84	44179.95
553.01	44254.85
553.18	44406.98
553.34	44179.95
553.51	44121.44
553.67	44402.30
553.84	44580.18
554.01	44573.16
554.17	44776.79
554.34	44524.01
554.51	44247.83
554.67	44622.31
554.84	44472.52
555.00	44421.03
555.17	43962.28
555.33	44521.67
555.50	44652.74
555.67	44671.46
555.83	44226.76
556.00	44390.60
556.16	44818.92
556.33	44271.23
556.50	44442.09
556.66	44390.60
556.83	44421.03
556.99	44388.26
557.16	44662.10
557.32	44802.53
557.49	44699.55
557.65	44364.85
557.82	45387.67
557.98	44484.22
558.15	44959.35
558.32	44907.86
558.48	44870.41
558.65	44821.26
558.81	44556.78
558.98	45064.67
559.14	44718.28
559.31	44807.22
559.47	44435.07
559.64	45081.06
559.80	44886.79
559.97	45191.06
560.13	44360.17
560.30	44744.02
560.46	45055.31
560.63	45331.50
560.79	45104.46
560.96	45556.19
561.12	45036.59
561.29	44727.64
561.45	45167.66
561.61	45188.72
561.78	45078.72
561.94	44676.15
562.11	44987.44
562.27	45067.02
562.44	45160.64
562.60	45736.41
562.77	45347.88
562.93	44992.12
563.10	45471.93
563.26	45450.86
563.42	45467.25
563.59	44968.71
563.75	45226.17
563.92	45392.35
564.08	45345.54
564.24	45673.21
564.41	45485.97
564.57	44954.67
564.74	45083.40
564.90	45280.00
565.07	44924.24
565.23	45361.92
565.39	45375.97
565.56	45380.65
565.72	44830.62
565.88	45172.34
566.05	45495.33
566.21	45207.45
566.38	45298.73
566.54	45226.17
566.70	45308.09
566.87	45794.92
567.03	45624.06
567.19	45738.75
567.36	45443.84
567.52	45652.15
567.68	45581.93
567.85	45724.71
568.01	45385.33
568.17	45638.11
568.34	45572.57
568.50	45455.54
568.66	45876.84
568.83	46010.25
568.99	45549.17
569.15	45357.24
569.32	45380.65
569.48	45750.45
569.64	46012.59
569.81	45563.21
569.97	45483.63
570.13	45993.87
570.30	44884.45
570.46	45617.04
570.62	44924.24
570.78	45275.32
570.95	45081.06
571.11	45598.32
571.27	45265.96
571.43	45647.47
571.60	45666.19
571.76	45001.48
571.92	45647.47
572.09	45661.51
572.25	45823.01
572.41	45680.24
572.57	45525.76
572.74	46014.93
572.90	45240.21
573.06	45677.90
573.22	46106.21
573.38	45696.62
573.55	45565.55
573.71	46038.34
573.87	46028.98
574.03	45603.00
574.20	45666.19
574.36	45617.04
574.52	46124.94
574.68	45502.35
574.84	45359.58
575.01	45691.94
575.17	45787.90
575.33	45675.55
575.49	45729.39
575.65	45495.33
575.82	45748.11
575.98	45581.93
576.14	45860.46
576.30	46190.47
576.46	45647.47
576.62	45617.04
576.79	46087.49
576.95	45464.91
577.11	45935.35
577.27	45935.35
577.43	45886.20
577.59	45373.63
577.75	45764.49
577.92	45502.35
578.08	45275.32
578.24	45052.97
578.40	45532.78
578.56	45574.91
578.72	45511.72
578.88	45909.61
579.04	46150.68
579.21	45827.69
579.37	45827.69
579.53	45764.49
579.69	45797.26
579.85	45750.45
580.01	45745.77
580.17	45411.07
580.33	45736.41
580.49	45722.37
580.65	45752.79
580.82	45834.71
580.98	45698.96
581.14	45713.00
581.30	45832.37
581.46	45996.21
581.62	46134.30
581.78	46120.26
581.94	46010.25
582.10	45741.09
582.26	46263.03
582.42	46309.84
582.58	45923.65
582.74	46239.62
582.90	45949.40
583.06	46396.44
583.22	45855.78
583.38	46131.96
583.54	46167.07
583.70	45965.78
583.86	46122.60
584.02	45942.38
584.18	45567.89
584.34	46195.15
584.50	45965.78
584.66	45663.85
584.82	45626.40
584.98	46052.38
585.14	45961.10
585.30	45853.44
585.46	45787.90
585.62	45542.14
585.78	45820.67
585.94	45839.39
586.10	45593.64
586.26	45823.01
586.42	46115.58
586.58	45860.46
586.74	46071.10
586.90	45918.97
587.06	45937.69
587.22	45801.94
587.38	45930.67
587.54	46124.94
587.70	46131.96
587.86	45766.84
588.02	46066.42
588.18	46401.12
588.34	45879.18
588.49	45397.03
588.65	45305.75
588.81	45251.92
588.97	45387.67
589.13	45219.15
589.29	45305.75
589.45	45418.10
589.61	46106.21
589.77	45776.20
589.93	45846.41
590.08	46054.72
590.24	46316.86
590.40	46038.34
590.56	46181.11
590.72	45897.91
590.88	45902.59
591.04	45888.54
591.20	46314.52
591.35	46328.56
591.51	46335.59
591.67	45680.24
591.83	45794.92
591.99	46225.58
592.15	45432.14
592.31	46185.79
592.46	45972.80
592.62	45928.33
592.78	46162.39
592.94	45996.21
593.10	45909.61
593.26	45970.46
593.41	45900.25
593.57	46167.07
593.73	45827.69
593.89	45874.50
594.05	46005.57
594.20	45869.82
594.36	46171.75
594.52	45741.09
594.68	45820.67
594.84	45886.20
594.99	45996.21
595.15	46052.38
595.31	46113.23
595.47	46464.32
595.62	46110.89
595.78	46651.56
595.94	46206.86
596.10	46354.31
596.25	45855.78
596.41	45621.72
596.57	45743.43
596.73	46061.74
596.88	45895.56
597.04	46071.10
597.20	45841.73
597.36	45787.90
597.51	46382.40
597.67	46197.49
597.83	46050.04
597.99	46272.39
598.14	46057.06
598.30	46089.83
598.46	46188.13
598.61	46110.89
598.77	46092.17
598.93	46160.05
599.09	46007.91
599.24	46749.86
599.40	46150.68
599.56	46019.61
599.71	46012.59
599.87	46560.28
600.03	45991.53
600.18	45916.63
600.34	45930.67
600.50	45813.65
600.65	45972.80
600.81	46134.30
600.97	45933.01
601.12	46054.72
601.28	46127.28
601.44	45815.99
601.59	45902.59
601.75	45897.91
601.91	45832.37
602.06	45996.21
602.22	46251.33
602.37	46066.42
602.53	46036.00
602.69	46082.81
602.84	45860.46
603.00	46066.42
603.16	45904.93
603.31	46192.81
603.47	46190.47
603.62	45228.51
603.78	46124.94
603.94	45787.90
604.09	45940.04
604.25	45544.48
604.40	45977.48
604.56	45954.08
604.71	46050.04
604.87	45813.65
605.03	45925.99
605.18	45815.99
605.34	45750.45
605.49	45729.39
605.65	46174.09
605.80	46274.73
605.96	45830.03
606.12	46007.91
606.27	45897.91
606.43	45345.54
606.58	45525.76
606.74	45956.42
606.89	45581.93
607.05	45752.79
607.20	46129.62
607.36	45720.02
607.51	46117.92
607.67	46019.61
607.82	45621.72
607.98	45769.18
608.13	45502.35
608.29	45645.13
608.44	45560.87
608.60	45471.93
608.75	45801.94
608.91	45869.82
609.06	44830.62
609.22	45696.62
609.37	45401.71
609.53	46183.45
609.68	45691.94
609.84	45415.76
609.99	45455.54
610.15	45055.31
610.30	45404.05
610.46	45523.42
610.61	45535.12
610.76	45797.26
610.92	45778.54
611.07	45624.06
611.23	45324.47
611.38	45844.07
611.54	45151.27
611.69	45280.00
611.84	44968.71
612.00	45116.17
612.15	45284.68
612.31	45586.61
612.46	45024.89
612.62	45153.62
612.77	45352.56
612.92	45474.27
613.08	45195.74
613.23	44715.93
613.39	44854.03
613.54	44369.54
613.69	44851.69
613.85	44626.99
614.00	44994.46
614.15	45017.86
614.31	44746.36
614.46	45560.87
614.62	45017.86
614.77	45104.46
614.92	44484.22
615.08	45036.59
615.23	44746.36
615.38	45074.04
615.54	44514.65
615.69	44657.42
615.84	44432.73
616.00	44507.63
616.15	44566.14
616.30	44879.77
616.46	44416.35
616.61	44098.03
616.76	44311.02
616.92	44039.52
617.07	44575.50
617.22	44191.65
617.37	44481.88
617.53	44533.37
617.68	44311.02
617.83	44502.95
617.99	44332.09
618.14	44463.16
618.29	44524.01
618.45	44264.21
618.60	44088.67
618.75	44472.52
618.90	43627.59
619.06	44112.08
619.21	44046.54
619.36	44411.67
619.51	43814.83
619.67	44048.88
619.82	43835.89
619.97	44385.92
620.12	43253.10
620.28	43562.05
620.43	43789.08
620.58	43681.42
620.73	44114.42
620.89	43536.30
621.04	44334.43
621.19	44463.16
621.34	43854.62
621.49	43468.43
621.65	43674.40
621.80	43412.26
621.95	43763.34
622.10	43686.10
622.25	43522.26
622.41	43943.56
622.56	43629.93
622.71	43641.63
622.86	43416.94
623.01	43669.72
623.16	43203.95
623.32	43597.16
623.47	43430.98
623.62	43423.96
623.77	43306.93
623.92	43683.76
624.07	43454.39
624.23	43241.40
624.38	43147.78
624.53	43285.87
624.68	43510.56
624.83	43723.55
624.98	43220.33
625.13	42735.84
625.29	43213.31
625.44	42665.63
625.59	42504.13
625.74	42700.73
625.89	42660.94
626.04	42895.00
626.19	42930.11
626.34	43267.14
626.49	43005.00
626.65	43175.86
626.80	43070.54
626.95	42630.52
627.10	42466.68
627.25	42693.71
627.40	42351.99
627.55	42321.57
627.70	42043.04
627.85	42686.69
628.00	42522.85
628.15	42752.23
628.30	42703.07
628.45	42216.24
628.60	42546.26
628.76	42424.55
628.91	42436.25
629.06	42181.13
629.21	41942.40
629.36	42005.59
629.51	42284.12
629.66	41961.12
629.81	42117.94
629.96	42052.41
630.11	42162.41
630.26	42124.96
630.41	42115.60
630.56	42134.32
630.71	42368.38
630.86	42342.63
631.01	41811.33
631.16	41645.15
631.31	41476.63
631.46	41694.30
631.61	41677.92
631.76	41703.67
631.91	41832.39
632.06	42382.42
632.21	41446.21
632.36	41689.62
632.51	41312.80
632.66	41563.23
632.81	41373.65
632.96	41691.96
633.10	41720.05
633.25	41736.43
633.40	41694.30
633.55	41586.64
633.70	41450.89
633.85	41656.85
634.00	41418.12
634.15	41663.88
634.30	41364.29
634.45	41462.59
634.60	41558.55
634.75	40828.30
634.90	40978.10
635.05	41565.57
635.19	40992.14
635.34	41645.15
635.49	41038.95
635.64	40896.18
635.79	41163.00
635.94	40975.76
636.09	41336.20
636.24	40823.62
636.39	40559.14
636.53	40893.84
636.68	40683.19
636.83	41137.26
636.98	40994.48
637.13	40493.61
637.28	40882.14
637.43	41448.55
637.57	41247.26
637.72	40458.50
637.87	41282.37
638.02	40837.67
638.17	40971.08
638.32	40409.35
638.46	40596.59
638.61	40470.20
638.76	40648.08
638.91	40556.80
639.06	40437.44
639.20	40968.74
639.35	40362.54
639.50	40797.88
639.65	40821.28
639.80	40392.97
639.94	40439.78
640.09	40414.03
640.24	40292.32
640.39	40299.34
640.54	40297.00
640.68	40233.81
640.83	40179.98
640.98	40189.34
641.13	40060.61
641.27	40559.14
641.42	39880.39
641.57	40231.47
641.72	40179.98
641.86	40107.42
642.01	39873.37
642.16	39805.49
642.31	39744.64
642.45	40294.66
642.60	39452.07
642.75	39784.43
642.90	39887.41
643.04	39828.90
643.19	39562.08
643.34	39779.74
643.48	39915.50
643.63	39969.33
643.78	39672.08
643.93	39770.38
644.07	39557.39
644.22	39585.48
644.37	39938.90
644.51	39388.88
644.66	39789.11
644.81	39136.10
644.95	39126.74
645.10	39203.97
645.25	39538.67
645.39	39484.84
645.54	39620.59
645.69	39606.55
645.83	39426.32
645.98	39082.27
646.13	39075.24
646.27	39407.60
646.42	39431.01
646.57	39180.57
646.71	38960.56
646.86	39019.07
647.00	38981.62
647.15	38944.17
647.30	39079.92
647.44	38841.19
647.59	39002.69
647.74	38838.85
647.88	39019.07
648.03	38630.54
648.17	38242.01
648.32	38960.56
648.47	38658.63
648.61	38363.72
648.76	38895.02
648.90	38635.22
649.05	38822.47
649.20	38974.60
649.34	38637.56
649.49	38239.67
649.63	38443.30
649.78	38595.43
649.92	38504.15
650.07	38756.93
650.21	38796.72
650.36	38768.63
650.51	38656.29
650.65	38885.66
650.80	39290.57
650.94	38611.82
651.09	38471.39
651.23	37935.40
651.38	38270.10
651.52	38302.87
651.67	37982.21
651.81	38134.35
651.96	38256.06
652.10	38586.07
652.25	38218.61
652.39	38312.23
652.54	38162.43
652.68	38171.80
652.83	37993.92
652.97	38452.66
653.12	38548.62
653.26	37722.41
653.41	37996.26
653.55	37717.73
653.70	37919.02
653.84	37993.92
653.99	37792.63
654.13	37928.38
654.27	37486.02
654.42	37890.93
654.56	38045.41
654.71	37565.60
654.85	37715.39
655.00	37787.95
655.14	37338.57
655.29	37352.61
655.43	37249.63
655.57	37017.91
655.72	36781.52
655.86	37102.17
656.01	36882.16
656.15	36697.26
656.30	36748.75
656.44	37027.28
656.58	37415.80
656.73	37312.82
656.87	37329.20
657.01	36950.04
657.16	36755.77
657.30	36786.20
657.45	36900.89
657.59	36634.06
657.73	36715.98
657.88	37268.35
658.02	37043.66
658.16	36767.48
658.31	36985.15
658.45	37350.27
658.60	36919.61
658.74	37184.09
658.88	37305.80
659.03	36683.22
659.17	36442.14
659.31	36503.00
659.46	36577.89
659.60	36360.22
659.74	36130.85
659.89	36367.24
660.03	36212.77
660.17	37104.51
660.32	36416.40
660.46	36582.57
660.60	36121.49
660.74	36421.08
660.89	36306.39
661.03	35810.20
661.17	36290.01
661.32	36161.28
661.46	35894.46
661.60	35849.99
661.74	35943.61
661.89	35686.15
662.03	35583.16
662.17	35716.58
662.31	35489.54
662.46	36264.26
662.60	36046.59
662.74	35859.35
662.88	35988.08
663.03	35344.43
663.17	35391.24
663.31	35110.38
663.45	35571.46
663.60	35372.52
663.74	35487.20
663.88	35491.88
664.02	35318.68
664.17	35292.94
664.31	35000.37
664.45	34941.86
664.59	34815.47
664.73	35049.52
664.88	35044.84
665.02	34604.82
665.16	34565.03
665.30	34422.26
665.44	34658.65
665.59	34553.33
665.73	34218.63
665.87	34483.11
666.01	34319.28
666.15	34436.30
666.29	33982.24
666.44	34064.16
666.58	34548.65
666.72	34574.39
666.86	34143.74
667.00	34452.69
667.14	34171.82
667.28	34000.96
667.43	34270.12
667.57	33881.60
667.71	34000.96
667.85	33900.32
667.99	34003.30
668.13	34071.18
668.27	34024.37
668.41	34017.35
668.56	33373.70
668.70	33802.02
668.84	33181.77
668.98	33083.47
669.12	33251.99
669.26	33893.30
669.40	33219.22
669.54	33078.79
669.68	33039.00
669.82	32943.04
669.96	33167.73
670.10	32706.65
670.25	32865.80
670.39	32549.83
670.53	32638.77
670.67	32402.38
670.81	32690.26
670.95	32589.62
671.09	32811.97
671.23	32914.95
671.37	32472.59
671.51	32231.52
671.65	32105.13
671.79	32170.66
671.93	32114.49
672.07	32114.49
672.21	32055.98
672.35	32170.66
672.49	31908.52
672.63	31957.67
672.77	31611.28
672.91	31761.07
673.05	31768.09
673.19	31372.54
673.33	31557.44
673.47	31398.29
673.61	31536.38
673.75	31000.40
673.89	31023.80
674.03	31424.03
674.17	31260.20
674.31	30892.73
674.45	31075.29
674.59	31428.71
674.73	31044.87
674.87	30850.60
675.01	30639.95
675.15	30902.09
675.29	30707.83
675.43	30635.27
675.56	30918.48
675.70	30604.84
675.84	30700.81
675.98	29188.82
676.12	30415.26
676.26	30366.11
676.40	30209.29
676.54	30249.08
676.68	29771.61
676.82	29457.98
676.96	29553.94
677.10	29811.40
677.23	29715.44
677.37	29371.38
677.51	29345.64
677.65	29062.43
677.79	28613.05
677.93	28755.82
678.07	28608.37
678.21	28732.42
678.34	28404.74
678.48	28109.83
678.62	28301.76
678.76	28360.27
678.90	28315.80
679.04	28212.82
679.18	28407.08
679.31	28173.03
679.45	27641.73
679.59	27974.08
679.73	27915.57
679.87	27847.69
680.00	27744.71
680.14	27784.50
680.28	27557.47
680.42	27042.55
680.56	27531.72
680.70	27391.29
680.83	27344.48
680.97	26878.71
681.11	27300.01
681.25	27101.06
681.39	27016.80
681.52	26923.18
681.66	26890.41
681.80	26824.88
681.94	26834.24
682.07	26148.46
682.21	25986.97
682.35	26050.16
682.49	26370.82
682.62	26118.04
682.76	25799.73
682.90	26183.57
683.04	25656.95
683.17	25759.94
683.31	25600.78
683.45	25762.28
683.59	25542.27
683.72	25628.87
683.86	25357.36
684.00	25350.34
684.13	25001.60
684.27	25163.10
684.41	24599.03
684.55	24716.06
684.68	24819.04
684.82	24390.72
684.96	24840.11
685.09	24727.76
685.23	24224.54
685.37	24744.14
685.50	24533.50
685.64	24390.72
685.78	24159.01
685.91	23887.51
686.05	23868.78
686.19	23531.75
686.32	24135.60
686.46	23693.24
686.60	23302.37
686.73	23168.96
686.87	23344.50
687.01	23232.16
687.14	22981.72
687.28	23042.57
687.42	22757.03
687.55	22843.63
687.69	23030.87
687.82	22860.01
687.96	22951.29
688.10	22602.55
688.23	22412.97
688.37	22508.93
688.50	22256.15
688.64	22272.54
688.78	22197.64
688.91	21940.18
689.05	22003.38
689.18	21851.24
689.32	21729.53
689.46	21710.81
689.59	22040.82
689.73	21909.75
689.86	21668.68
690.00	21816.13
690.13	21465.05
690.27	20973.54
690.41	21156.10
690.54	21128.02
690.68	21170.15
690.81	21179.51
690.95	21413.56
691.08	21252.06
691.22	20971.20
691.35	21036.74
691.49	20812.04
691.62	20496.07
691.76	20692.68
691.89	20601.40
692.03	20423.51
692.16	20407.13
692.30	20372.02
692.43	20273.72
692.57	20177.76
692.70	19882.85
692.84	20006.90
692.97	19545.81
693.11	19433.47
693.24	19475.60
693.38	19499.00
693.51	19309.42
693.65	19475.60
693.78	19391.34
693.92	19234.52
694.05	19227.50
694.19	19012.17
694.32	19147.92
694.45	19150.26
694.59	18941.96
694.72	18817.91
694.86	18899.83
694.99	18277.24
695.13	18740.67
695.26	18513.64
695.39	18611.94
695.53	18623.64
695.66	18485.55
695.80	18125.11
695.93	18359.16
696.07	18380.23
696.20	18169.58
696.33	18099.36
696.47	17572.74
696.60	17851.27
696.73	17666.36
696.87	17661.68
697.00	17488.48
697.14	17518.91
697.27	16947.82
697.40	17411.25
697.54	17209.96
697.67	17212.30
697.80	17001.65
697.94	17097.61
698.07	17181.87
698.21	16741.85
698.34	17111.66
698.47	17254.43
698.61	16636.53
698.74	16582.70
698.87	16713.77
699.01	16360.34
699.14	16365.03
699.27	15960.11
699.40	16266.72
699.54	16297.15
699.67	15810.32
699.80	15917.98
699.94	16058.42
700.07	16147.36
700.20	15988.20
700.34	15719.04
700.47	15903.94
700.60	15573.92
700.73	15836.06
700.87	15754.15
701.00	15648.82
701.13	15660.52
701.26	15318.81
701.40	15166.67
701.53	15185.40
701.66	14888.15
701.79	15070.71
701.93	14958.36
702.06	14953.68
702.19	14750.06
702.32	14633.03
702.46	14946.66
702.59	14836.66
702.72	14621.33
702.85	14511.32
702.99	14513.66
703.12	14504.30
703.25	14410.68
703.38	14518.34
703.51	14232.80
703.65	14169.60
703.78	13867.67
703.91	14033.85
704.04	13891.08
704.17	13696.82
704.31	13891.08
704.44	13638.30
704.57	13877.04
704.70	13532.98
704.83	13542.34
704.96	13408.93
705.10	13540.00
705.23	13338.71
>>>>>End Processed Spectral Data<<<<<
