SpectraSuite Data File
++++++++++++++++++++++++++++++++++++
Date: Fri Oct 25 11:33:29 EDT 2013
User: price-jones
Dark Spectrum Present: No
Reference Spectrum Present: No
Number of Sampled Component Spectra: 1
Spectrometers: USB2+H05261
Integration Time (usec): 100000 (USB2+H05261)
Spectra Averaged: 1 (USB2+H05261)
Boxcar Smoothing: 0 (USB2+H05261)
Correct for Electrical Dark: No (USB2+H05261)
Strobe/Lamp Enabled: No (USB2+H05261)
Correct for Detector Non-linearity: No (USB2+H05261)
Correct for Stray Light: No (USB2+H05261)
Number of Pixels in Processed Spectrum: 2048
>>>>>Begin Processed Spectral Data<<<<<
365.73	248.10
365.92	248.10
366.12	248.10
366.32	248.10
366.52	224.69
366.72	140.43
366.91	126.39
367.11	107.66
367.31	170.86
367.51	210.65
367.70	168.52
367.90	105.32
368.10	196.60
368.30	110.01
368.49	210.65
368.69	276.18
368.89	241.08
369.09	140.43
369.28	201.29
369.48	257.46
369.68	238.73
369.87	191.92
370.07	217.67
370.27	201.29
370.47	376.83
370.66	531.30
370.86	407.25
371.06	568.75
371.25	552.37
371.45	503.22
371.65	559.39
371.84	538.32
372.04	479.81
372.24	566.41
372.44	512.58
372.63	578.11
372.83	547.69
373.03	596.84
373.22	521.94
373.42	610.88
373.62	594.50
373.81	629.60
374.01	631.94
374.21	615.56
374.40	709.18
374.60	620.24
374.79	645.99
374.99	664.71
375.19	638.97
375.38	692.80
375.58	709.18
375.78	653.01
375.97	681.10
376.17	669.39
376.37	648.33
376.56	671.73
376.76	662.37
376.95	667.05
377.15	692.80
377.35	744.29
377.54	709.18
377.74	657.69
377.93	678.76
378.13	730.25
378.33	734.93
378.52	744.29
378.72	702.16
378.91	662.37
379.11	657.69
379.31	770.04
379.50	655.35
379.70	772.38
379.89	730.25
380.09	772.38
380.28	702.16
380.48	751.31
380.68	725.57
380.87	784.08
381.07	830.89
381.26	746.63
381.46	844.93
381.65	791.10
381.85	816.85
382.04	805.14
382.24	816.85
382.43	812.17
382.63	744.29
382.83	770.04
383.02	833.23
383.22	842.59
383.41	814.51
383.61	849.61
383.80	854.30
384.00	772.38
384.19	793.44
384.39	823.87
384.58	791.10
384.78	856.64
384.97	880.04
385.17	821.53
385.36	870.68
385.56	821.53
385.75	812.17
385.95	884.72
386.14	858.98
386.34	800.46
386.53	823.87
386.72	807.48
386.92	877.70
387.11	835.57
387.31	957.28
387.50	875.36
387.70	835.57
387.89	903.45
388.09	889.40
388.28	863.66
388.48	954.94
388.67	896.43
388.86	858.98
389.06	950.26
389.25	964.30
389.45	940.90
389.64	961.96
389.84	992.39
390.03	966.64
390.22	957.28
390.42	971.32
390.61	919.83
390.81	973.66
391.00	964.30
391.19	1116.44
391.39	950.26
391.58	1083.67
391.78	1057.92
391.97	1118.78
392.16	1039.20
392.36	1069.62
392.55	1036.86
392.75	1090.69
392.94	1062.60
393.13	1015.79
393.33	1064.94
393.52	1006.43
393.71	1083.67
393.91	1097.71
394.10	1078.99
394.29	1135.16
394.49	1165.59
394.68	1116.44
394.88	1088.35
395.07	1086.01
395.26	1111.75
395.46	1137.50
395.65	1146.86
395.84	1132.82
396.04	1151.54
396.23	1210.06
396.42	1210.06
396.62	1320.06
396.81	1203.04
397.00	1114.10
397.19	1301.34
397.39	1163.25
397.58	1291.98
397.77	1242.82
397.97	1343.47
398.16	1231.12
398.35	1341.13
398.55	1242.82
398.74	1322.40
398.93	1284.95
399.12	1291.98
399.32	1313.04
399.51	1313.04
399.70	1240.48
399.90	1357.51
400.09	1324.74
400.28	1345.81
400.47	1397.30
400.67	1392.62
400.86	1465.18
401.05	1392.62
401.24	1394.96
401.44	1490.92
401.63	1495.60
401.82	1535.39
402.01	1418.36
402.21	1479.22
402.40	1490.92
402.59	1430.07
402.78	1596.25
402.97	1561.14
403.17	1533.05
403.36	1467.52
403.55	1629.01
403.74	1535.39
403.93	1474.54
404.13	1596.25
404.32	1626.67
404.51	1647.74
404.70	1664.12
404.89	1621.99
405.09	1699.23
405.28	1638.38
405.47	1591.56
405.66	1703.91
405.85	1678.16
406.05	1645.40
406.24	1774.13
406.43	1734.34
406.62	1764.76
406.81	1809.23
407.00	1741.36
407.20	1832.64
407.39	1767.10
407.58	1834.98
407.77	1837.32
407.96	1926.26
408.15	2033.93
408.34	1839.66
408.54	1893.49
408.73	1966.05
408.92	1940.30
409.11	1968.39
409.30	2059.67
409.49	2017.54
409.68	1947.33
409.87	2019.88
410.07	2083.08
410.26	2031.58
410.45	1952.01
410.64	2141.59
410.83	2228.19
411.02	2066.69
411.21	2195.42
411.40	2064.35
411.59	2221.17
411.78	2139.25
411.98	2235.21
412.17	2375.64
412.36	2263.30
412.55	2452.88
412.74	2296.07
412.93	2340.54
413.12	2300.75
413.31	2448.20
413.50	2457.56
413.69	2335.85
413.88	2476.29
414.07	2487.99
414.26	2420.11
414.45	2569.91
414.64	2609.70
414.83	2572.25
415.02	2607.36
415.22	2661.19
415.41	2668.21
415.60	2590.97
415.79	2616.72
415.98	2689.28
416.17	2717.36
416.36	2731.41
416.55	2670.55
416.74	2932.69
416.93	2665.87
417.12	2832.05
417.31	2848.43
417.50	2752.47
417.69	2949.08
417.88	2958.44
418.07	2963.12
418.26	2974.82
418.45	2925.67
418.64	2953.76
418.83	3075.46
419.02	3021.63
419.21	3096.53
419.39	3040.36
419.58	3056.74
419.77	3068.44
419.96	3124.62
420.15	3166.74
420.34	3119.93
420.53	3330.58
420.72	3300.16
420.91	3260.37
421.10	3218.24
421.29	3344.63
421.48	3194.83
421.67	3332.92
421.86	3283.77
422.05	3267.39
422.24	3185.47
422.43	3363.35
422.61	3356.33
422.80	3368.03
422.99	3398.46
423.18	3391.44
423.37	3550.59
423.56	3447.61
423.75	3449.95
423.94	3337.60
424.13	3145.68
424.32	3398.46
424.50	3501.44
424.69	3536.55
424.88	3520.17
425.07	3438.25
425.26	3337.60
425.45	3353.99
425.64	3503.78
425.83	3492.08
426.01	3630.17
426.20	3569.32
426.39	3569.32
426.58	3459.31
426.77	3414.84
426.96	3482.72
427.15	3536.55
427.33	3581.02
427.52	3494.42
427.71	3606.77
427.90	3569.32
428.09	3632.51
428.28	3473.36
428.46	3658.26
428.65	3630.17
428.84	3899.33
429.03	3819.75
429.22	3747.20
429.40	3726.13
429.59	3845.50
429.78	3709.75
429.97	3686.34
430.16	3758.90
430.34	3801.03
430.53	3712.09
430.72	4007.00
430.91	3925.08
431.10	3779.97
431.28	3967.21
431.47	3939.12
431.66	4063.17
431.85	3976.57
432.03	3906.35
432.22	4102.96
432.41	3997.64
432.60	4030.40
432.79	4072.53
432.97	4170.83
433.16	4215.30
433.35	4119.34
433.54	4049.13
433.72	4376.80
433.91	4184.88
434.10	4212.96
434.28	4088.92
434.47	4329.99
434.66	4311.27
434.85	4344.03
435.03	4301.90
435.22	4390.84
435.41	4491.49
435.59	4526.60
435.78	4362.76
435.97	4447.02
436.16	4479.79
436.34	4435.32
436.53	4383.82
436.72	4617.88
436.90	4461.06
437.09	4620.22
437.28	4428.29
437.46	4423.61
437.65	4622.56
437.84	4655.33
438.02	4589.79
438.21	4779.37
438.40	4617.88
438.58	4943.21
438.77	4746.61
438.96	4690.43
439.14	4858.95
439.33	4947.89
439.52	4837.89
439.70	4786.40
439.89	4945.55
440.08	5064.92
440.26	4943.21
440.45	5078.96
440.63	5078.96
440.82	5184.29
441.01	5069.60
441.19	5149.18
441.38	5210.03
441.57	5352.81
441.75	5355.15
441.94	5479.19
442.12	5514.30
442.31	5509.62
442.50	5406.64
442.68	5518.98
442.87	5357.49
443.05	5371.53
443.24	5551.75
443.43	5540.05
443.61	5640.69
443.80	5664.10
443.98	5500.26
444.17	5275.57
444.35	5584.52
444.54	5603.24
444.73	5640.69
444.91	5666.44
445.10	5657.07
445.28	5643.03
445.47	5614.95
445.65	5664.10
445.84	5694.52
446.02	5727.29
446.21	5736.65
446.39	5764.74
446.58	5722.61
446.77	5884.11
446.95	5675.80
447.14	5767.08
447.32	5769.42
447.51	5916.87
447.69	5825.59
447.88	5909.85
448.06	5685.16
448.25	5792.83
448.43	5809.21
448.62	5827.93
448.80	5771.76
448.99	5961.34
449.17	5818.57
449.36	5832.62
449.54	6033.90
449.73	6071.35
449.91	6204.76
450.10	6157.95
450.28	6211.78
450.46	6239.87
450.65	6143.91
450.83	6307.74
451.02	6200.08
451.20	6249.23
451.39	6171.99
451.57	6251.57
451.76	6237.53
451.94	6024.54
452.13	6380.30
452.31	6232.85
452.49	6204.76
452.68	6363.92
452.86	6092.41
453.05	6471.58
453.23	6392.00
453.42	6335.83
453.60	6319.45
453.78	6441.15
453.97	6387.32
454.15	6384.98
454.34	6356.90
454.52	6511.37
454.70	6583.93
454.89	6675.21
455.07	6513.71
455.26	6633.08
455.44	6656.48
455.62	6719.68
455.81	6567.54
455.99	6848.41
456.17	6874.15
456.36	6715.00
456.54	7016.93
456.73	6998.20
456.91	7047.35
457.09	6843.73
457.28	7148.00
457.46	6979.48
457.64	7194.81
457.83	7250.98
458.01	7148.00
458.19	7164.38
458.38	7035.65
458.56	7248.64
458.74	7201.83
458.93	7248.64
459.11	7316.51
459.29	7375.03
459.48	7328.22
459.66	7199.49
459.84	7398.43
460.03	7588.02
460.21	7281.41
460.39	7485.03
460.57	7353.96
460.76	7360.98
460.94	7669.94
461.12	7485.03
461.31	7391.41
461.49	7585.68
461.67	7445.24
461.85	7597.38
462.04	7508.44
462.22	8105.28
462.40	8018.68
462.59	7901.65
462.77	7747.17
462.95	7712.07
463.13	7679.30
463.32	7726.11
463.50	7962.50
463.68	7786.96
463.86	7845.48
464.05	7817.39
464.23	8006.97
464.41	7960.16
464.59	7887.61
464.78	8065.49
464.96	8198.90
465.14	7955.48
465.32	8119.32
465.50	8257.41
465.69	8241.03
465.87	8322.94
466.05	8168.47
466.23	8177.83
466.41	8093.57
466.60	8404.86
466.78	8049.10
466.96	8203.58
467.14	7969.52
467.32	8205.92
467.51	8432.95
467.69	8011.65
467.87	8376.78
468.05	8540.61
468.23	8428.27
468.41	8559.34
468.60	8578.06
468.78	8362.73
468.96	8498.49
469.14	8549.98
469.32	8617.85
469.50	8468.06
469.69	8678.71
469.87	8805.10
470.05	8830.84
470.23	9001.70
470.41	8908.08
470.59	8954.89
470.77	8847.22
470.95	8950.21
471.14	9170.22
471.32	8858.93
471.50	9013.40
471.68	8947.87
471.86	9076.60
472.04	9184.26
472.22	9486.19
472.40	9116.39
472.58	9404.27
472.77	9380.87
472.95	9413.63
473.13	9743.65
473.31	9352.78
473.49	9430.02
473.67	9399.59
473.85	9717.90
474.03	9706.20
474.21	9724.93
474.39	9722.59
474.57	9827.91
474.75	10001.11
474.93	9949.62
475.12	10024.51
475.30	10139.20
475.48	10157.92
475.66	10207.08
475.84	10157.92
476.02	10359.21
476.20	10197.71
476.38	10452.83
476.56	10726.68
476.74	10583.90
476.92	10483.26
477.10	10452.83
477.28	10705.61
477.46	10883.49
477.64	10874.13
477.82	11162.01
478.00	11580.97
478.18	10979.45
478.36	11098.82
478.54	11510.75
478.72	11552.88
478.90	11293.08
479.08	11740.13
479.26	11779.92
479.44	11812.68
479.62	11829.07
479.80	11728.42
479.98	11786.94
480.16	12156.74
480.34	12116.95
480.52	12243.34
480.70	12449.31
480.88	12390.80
481.06	12671.66
481.24	12479.74
481.41	12524.21
481.59	12765.28
481.77	12666.98
481.95	12875.29
482.13	13048.49
482.31	13092.96
482.49	13310.63
482.67	13369.14
482.85	13755.33
483.03	13418.29
483.21	13568.09
483.39	13689.79
483.57	13619.58
483.74	13996.40
483.92	14045.55
484.10	13961.30
484.28	14441.11
484.46	14665.80
484.64	14642.39
484.82	14427.06
485.00	14464.51
485.18	14918.57
485.35	15246.25
485.53	15129.22
485.71	15161.99
485.89	15382.00
486.07	15358.60
486.25	15367.96
486.43	15442.85
486.61	15723.72
486.78	15807.98
486.96	15815.00
487.14	16327.58
487.32	16306.51
487.50	16601.42
487.68	16711.42
487.85	16362.69
488.03	16706.74
488.21	16805.05
488.39	17226.34
488.57	17198.26
488.75	17062.51
488.92	17366.78
489.10	17657.00
489.28	17743.60
489.46	17647.64
489.64	18073.62
489.81	18298.31
489.99	18492.57
490.17	18286.61
490.35	18572.15
490.53	18658.75
490.70	18623.64
490.88	18499.59
491.06	18675.13
491.24	18780.46
491.41	19281.33
491.59	19110.47
491.77	19119.84
491.95	19234.52
492.13	19391.34
492.30	19651.14
492.48	19777.53
492.66	19754.12
492.84	20032.65
493.01	20416.49
493.19	19948.39
493.37	20596.71
493.54	20510.11
493.72	20842.47
493.90	20467.98
494.08	20922.05
494.25	21069.50
494.43	21083.55
494.61	21591.44
494.79	21446.33
494.96	21474.42
495.14	21806.77
495.32	21816.13
495.49	21916.78
495.67	21928.48
495.85	21994.01
496.02	22111.04
496.20	22230.41
496.38	22207.00
496.55	22443.40
496.73	23192.37
496.91	22860.01
497.09	23084.70
497.26	23264.92
497.44	22824.90
497.62	23204.07
497.79	23555.15
497.97	23489.62
498.14	23700.26
498.32	23964.75
498.50	23744.73
498.67	23995.17
498.85	23920.28
499.03	23728.35
499.20	24322.85
499.38	24039.64
499.56	24285.40
499.73	24795.64
499.91	24718.40
500.08	24737.12
500.26	24793.29
500.44	24718.40
500.61	24931.39
500.79	24992.24
500.97	25219.27
501.14	25474.39
501.32	25301.19
501.49	25420.56
501.67	25186.50
501.84	25539.93
502.02	25773.98
502.20	25773.98
502.37	25919.09
502.55	25671.00
502.72	25832.49
502.90	26047.82
503.07	26059.52
503.25	26595.51
503.43	25989.31
503.60	26415.29
503.78	26611.89
503.95	26434.01
504.13	26419.97
504.30	26618.91
504.48	26824.88
504.65	26988.72
504.83	27321.07
505.01	27087.02
505.18	27374.91
505.36	27398.31
505.53	27051.91
505.71	27456.82
505.88	27531.72
506.06	27300.01
506.23	27789.18
506.41	27370.22
506.58	27709.60
506.76	27922.59
506.93	28350.91
507.11	28112.17
507.28	28084.09
507.46	28201.11
507.63	28240.90
507.81	28243.24
507.98	28545.17
508.16	28683.27
508.33	28804.97
508.50	28748.80
508.68	28807.31
508.85	28872.85
509.03	28868.17
509.20	29010.94
509.38	29610.12
509.55	29247.33
509.73	29572.67
509.90	29200.52
510.08	29347.98
510.25	29422.87
510.42	29839.49
510.60	29900.34
510.77	29968.22
510.95	30356.75
511.12	30064.18
511.30	30115.67
511.47	30045.46
511.64	30614.21
511.82	30649.32
511.99	30651.66
512.17	30525.27
512.34	30504.20
512.51	31019.12
512.69	31321.05
512.86	30651.66
513.04	31197.00
513.21	31079.97
513.38	31061.25
513.56	31524.68
513.73	31103.38
513.90	31271.90
514.08	31761.07
514.25	31274.24
514.43	31695.53
514.60	31896.82
514.77	31482.55
514.95	31821.92
515.12	32002.14
515.29	31845.33
515.47	31969.38
515.64	32357.91
515.81	31990.44
515.99	32283.01
516.16	32624.73
516.33	32203.43
516.51	32488.98
516.68	32353.23
516.85	32491.32
517.03	32924.32
517.20	32919.63
517.37	32589.62
517.54	33130.28
517.72	33123.26
517.89	32975.81
518.06	33401.79
518.24	32952.40
518.41	33015.60
518.58	32947.72
518.75	32889.21
518.93	33582.01
519.10	33546.90
519.27	33820.74
519.45	33745.84
519.62	33886.28
519.79	33968.19
519.96	34010.32
520.14	34125.01
520.31	33813.72
520.48	34455.03
520.65	34536.94
520.83	34649.29
521.00	34625.89
521.17	34529.92
521.34	34653.97
521.52	34560.35
521.69	34534.60
521.86	34944.20
522.03	35260.17
522.20	35112.72
522.38	35468.48
522.55	35145.48
522.72	34988.67
522.89	35194.64
523.07	35545.72
523.24	35070.59
523.41	35386.56
523.58	35260.17
523.75	35505.93
523.92	35384.22
524.10	35723.60
524.27	35999.78
524.44	35688.49
524.61	36114.47
524.78	35875.73
524.96	36100.42
525.13	36074.68
525.30	36430.44
525.47	36306.39
525.64	36400.01
525.81	36470.23
525.98	36500.65
526.16	36261.92
526.33	36084.04
526.50	36540.44
526.67	36512.36
526.84	36814.29
527.01	36596.62
527.18	36818.97
527.36	36947.70
527.53	37097.49
527.70	37376.01
527.87	37525.81
528.04	37050.68
528.21	37368.99
528.38	37270.69
528.55	37146.64
528.72	37738.80
528.89	37160.69
529.07	37301.12
529.24	37483.68
529.41	37855.82
529.58	37574.96
529.75	37530.49
529.92	37460.27
530.09	37734.12
530.26	38096.90
530.43	37806.67
530.60	37773.91
530.77	37860.51
530.94	38064.13
531.11	37596.03
531.28	38150.73
531.46	38162.43
531.63	38345.00
531.80	38349.68
531.97	38328.61
532.14	38335.63
532.31	38277.12
532.48	39253.12
532.65	38824.81
532.82	38845.87
532.99	38880.98
533.16	38745.23
533.33	38721.82
533.50	38934.81
533.67	39075.24
533.84	38644.59
534.01	38754.59
534.18	39124.40
534.35	39363.13
534.52	39264.83
534.69	39613.57
534.86	39864.00
535.03	39496.54
535.20	39466.11
535.37	39594.84
535.54	39831.24
535.71	39517.60
535.88	39821.87
536.05	39580.80
536.22	39749.32
536.38	39667.40
536.55	39754.00
536.72	39775.06
536.89	39508.24
537.06	39721.23
537.23	40161.25
537.40	40091.04
537.57	40004.44
537.74	39761.02
537.91	40023.16
538.08	40231.47
538.25	39845.28
538.42	40332.11
538.59	40409.35
538.75	40470.20
538.92	40825.96
539.09	40540.42
539.26	40456.16
539.43	40730.00
539.60	40851.71
539.77	40524.04
539.94	40971.08
540.11	40966.40
540.28	41132.57
540.44	40982.78
540.61	40938.31
540.78	40886.82
540.95	41043.63
541.12	40863.41
541.29	41432.16
541.46	41263.64
541.62	41696.64
541.79	41383.01
541.96	41347.90
542.13	40835.33
542.30	41331.52
542.47	41797.29
542.63	41436.84
542.80	41462.59
542.97	42195.18
543.14	42164.75
543.31	42148.37
543.48	41806.65
543.64	42440.93
543.81	42192.84
543.98	42206.88
544.15	42094.53
544.32	42696.05
544.48	42822.44
544.65	42106.24
544.82	42504.13
544.99	42480.72
545.16	42501.79
545.32	42342.63
545.49	42937.13
545.66	43040.11
545.83	42773.29
546.00	42892.66
546.16	42749.88
546.33	42714.78
546.50	42983.94
546.67	42607.11
546.83	42593.07
547.00	42394.12
547.17	42768.61
547.34	42997.98
547.50	43304.59
547.67	43241.40
547.84	43117.35
548.00	43419.28
548.17	44058.24
548.34	43473.11
548.51	43337.36
548.67	43620.56
548.84	43306.93
549.01	43145.44
549.18	43512.90
549.34	43798.44
549.51	43889.73
549.68	43849.94
549.84	43744.61
550.01	43929.51
550.18	43337.36
550.34	44266.55
550.51	43585.46
550.68	44086.33
550.84	43613.54
551.01	43782.06
551.18	44086.33
551.34	43924.83
551.51	43985.69
551.68	44037.18
551.84	43908.45
552.01	43723.55
552.18	44083.99
552.34	44072.29
552.51	43882.70
552.68	44261.87
552.84	43927.17
553.01	44664.44
553.18	44137.82
553.34	44477.20
553.51	44463.16
553.67	44168.25
553.84	44549.76
554.01	44657.42
554.17	44332.09
554.34	44435.07
554.51	44500.61
554.67	45205.11
554.84	44945.31
555.00	44498.26
555.17	44542.74
555.33	44776.79
555.50	44847.00
555.67	44762.75
555.83	44847.00
556.00	44952.33
556.16	45361.92
556.33	45226.17
556.50	44912.54
556.66	44926.58
556.83	44662.10
556.99	44783.81
557.16	45462.57
557.32	45453.20
557.49	45584.27
557.65	45038.93
557.82	45380.65
557.98	45148.93
558.15	45242.56
558.32	45631.08
558.48	45467.25
558.65	45469.59
558.81	45441.50
558.98	45668.53
559.14	45371.28
559.31	45556.19
559.47	45390.01
559.64	45544.48
559.80	45624.06
559.97	45984.51
560.13	45612.36
560.30	45399.37
560.46	45631.08
560.63	45769.18
560.79	45801.94
560.96	45818.33
561.12	45956.42
561.29	45642.79
561.45	45942.38
561.61	45773.86
561.78	45705.98
561.94	45830.03
562.11	46113.23
562.27	45626.40
562.44	46445.59
562.60	45951.74
562.77	45977.48
562.93	45881.52
563.10	46148.34
563.26	46244.30
563.42	46906.68
563.59	45820.67
563.75	45631.08
563.92	45844.07
564.08	45921.31
564.24	46263.03
564.41	45970.46
564.57	46012.59
564.74	46136.64
564.90	46272.39
565.07	45977.48
565.23	45670.87
565.39	46337.93
565.56	46806.03
565.72	46239.62
565.88	46263.03
566.05	46246.65
566.21	46497.08
566.38	46415.16
566.54	46300.48
566.70	46209.20
566.87	46656.24
567.03	46256.01
567.19	46321.54
567.36	46689.01
567.52	46272.39
567.68	46756.88
567.85	46721.77
568.01	46674.96
568.17	46291.12
568.34	46803.69
568.50	46749.86
568.66	46087.49
568.83	46452.61
568.99	46932.42
569.15	47012.00
569.32	46831.78
569.48	47070.51
569.64	46768.58
569.81	46953.49
569.97	46904.34
570.13	47072.85
570.30	46623.47
570.46	46693.69
570.62	46958.17
570.78	47154.77
570.95	47061.15
571.11	47353.72
571.27	46447.93
571.43	46761.56
571.60	46916.04
571.76	46714.75
571.92	46609.43
572.09	46953.49
572.25	46581.34
572.41	46651.56
572.57	46937.10
572.74	47175.84
572.90	47222.65
573.06	47084.56
573.22	47082.22
573.38	46777.95
573.55	47126.69
573.71	47168.82
573.87	47047.11
574.03	47110.30
574.20	47751.61
574.36	46927.74
574.52	47316.27
574.68	47154.77
574.84	47264.78
575.01	47196.90
575.17	47309.25
575.33	47168.82
575.49	47054.13
575.65	47356.06
575.82	47117.32
575.98	47178.18
576.14	47306.91
576.30	47292.86
576.46	47295.21
576.62	46726.46
576.79	47042.43
576.95	46595.38
577.11	47318.61
577.27	47075.19
577.43	47480.11
577.59	47131.37
577.75	47107.96
577.92	46782.63
578.08	47138.39
578.24	47309.25
578.40	47358.40
578.56	47327.97
578.72	47313.93
578.88	47599.47
579.04	47363.08
579.21	47234.35
579.37	47255.42
579.53	47620.54
579.69	47147.75
579.85	47278.82
580.01	47391.17
580.17	47519.90
580.33	47931.83
580.49	47529.26
580.65	47690.76
580.82	47033.07
580.98	46848.16
581.14	47119.66
581.30	47320.95
581.46	47325.63
581.62	47461.38
581.78	47232.01
581.94	47615.86
582.10	47613.52
582.26	47290.52
582.42	47494.15
582.58	47208.61
582.74	47433.30
582.90	47353.72
583.06	47325.63
583.22	47206.26
583.38	47447.34
583.54	47168.82
583.70	47562.03
583.86	47763.31
584.02	47629.90
584.18	47569.05
584.34	47793.74
584.50	47484.79
584.66	47711.82
584.82	47604.16
584.98	48156.52
585.14	47459.04
585.30	47349.04
585.46	47599.47
585.62	47751.61
585.78	47772.67
585.94	47150.09
586.10	47667.35
586.26	47442.66
586.42	47742.25
586.58	47707.14
586.74	47346.70
586.90	47297.55
587.06	47599.47
587.22	47461.38
587.38	47351.38
587.54	47742.25
587.70	48018.43
587.86	47901.40
588.02	47796.08
588.18	47423.93
588.34	47428.62
588.49	47657.99
588.65	47580.75
588.81	47721.18
588.97	47763.31
589.13	47744.59
589.29	47674.37
589.45	48203.33
589.61	47749.27
589.77	48273.55
589.93	47880.34
590.08	48002.05
590.24	48226.74
590.40	48360.15
590.56	48456.11
590.72	48119.07
590.88	47819.49
591.04	47868.64
591.20	48023.11
591.35	48149.50
591.51	48339.08
591.67	48156.52
591.83	48177.59
591.99	48074.60
592.15	48039.50
592.31	47704.80
592.46	47880.34
592.62	48112.05
592.78	48273.55
592.94	48163.54
593.10	48516.96
593.26	48378.87
593.41	48425.68
593.57	48437.39
593.73	48275.89
593.89	48713.57
594.05	48399.94
594.20	47990.34
594.36	48456.11
594.52	48261.85
594.68	48495.90
594.84	48343.77
594.99	48720.59
595.15	48332.06
595.31	48374.19
595.47	48170.57
595.62	48222.06
595.78	48303.98
595.94	48467.81
596.10	48439.73
596.25	48451.43
596.41	48552.07
596.57	47950.56
596.73	48362.49
596.88	48500.58
597.04	48205.67
597.20	48472.49
597.36	48528.67
597.51	48369.51
597.67	48535.69
597.83	48278.23
597.99	48535.69
598.14	48432.71
598.30	48470.15
598.46	48006.73
598.61	48535.69
598.77	48633.99
598.93	48779.10
599.09	48804.85
599.24	48802.51
599.40	48367.17
599.56	48339.08
599.71	48816.55
599.87	49022.52
600.03	48711.23
600.18	48498.24
600.34	48582.50
600.50	48381.21
600.65	48226.74
600.81	48732.29
600.97	48566.12
601.12	48629.31
601.28	48367.17
601.44	48343.77
601.59	48107.37
601.75	48163.54
601.91	48612.93
602.06	48577.82
602.22	48472.49
602.37	48493.56
602.53	48612.93
602.69	48767.40
602.84	48392.92
603.00	48516.96
603.16	48367.17
603.31	48350.79
603.47	48690.16
603.62	48210.35
603.78	48945.28
603.94	48713.57
604.09	48584.84
604.25	48533.35
604.40	48303.98
604.56	48460.79
604.71	49029.54
604.87	48289.93
605.03	48163.54
605.18	48390.58
605.34	48439.73
605.49	48444.41
605.65	48591.86
605.80	48411.64
605.96	48275.89
606.12	48652.72
606.27	48376.53
606.43	48374.19
606.58	48678.46
606.74	48715.91
606.89	48322.70
607.05	48577.82
607.20	48303.98
607.36	48453.77
607.51	48790.81
607.67	48399.94
607.82	47957.58
607.98	47990.34
608.13	48364.83
608.29	47966.94
608.44	48280.57
608.60	48119.07
608.75	48107.37
608.91	48252.48
609.06	48168.22
609.22	48402.28
609.37	48149.50
609.53	48212.70
609.68	47796.08
609.84	48051.20
609.99	48378.87
610.15	48037.16
610.30	48472.49
610.46	47988.00
610.61	48098.01
610.76	48222.06
610.92	47842.89
611.07	47945.87
611.23	48107.37
611.38	47952.90
611.54	48222.06
611.69	48306.32
611.84	48088.65
612.00	47700.12
612.15	48172.91
612.31	47863.96
612.46	47742.25
612.62	47903.74
612.77	47997.37
612.92	48058.22
613.08	47955.24
613.23	48027.79
613.39	47749.27
613.54	47929.49
613.69	47707.14
613.85	47608.84
614.00	48076.94
614.15	47988.00
614.31	47627.56
614.46	47681.39
614.62	47667.35
614.77	47725.86
614.92	48067.58
615.08	47248.39
615.23	47667.35
615.38	47782.04
615.54	47571.39
615.69	47566.71
615.84	47885.02
616.00	47959.92
616.15	47386.49
616.30	47660.33
616.46	47838.21
616.61	47796.08
616.76	47786.72
616.92	47281.16
617.07	47494.15
617.22	47660.33
617.37	47077.54
617.53	47388.83
617.68	47306.91
617.83	47168.82
617.99	47786.72
618.14	47559.69
618.29	47299.89
618.45	47236.69
618.60	47330.31
618.75	47143.07
618.90	47440.32
619.06	46983.91
619.21	47037.75
619.36	47814.80
619.51	47332.65
619.67	47014.34
619.82	46974.55
619.97	47531.60
620.12	47292.86
620.28	46862.21
620.43	47636.92
620.58	47283.50
620.73	46981.57
620.89	47482.45
621.04	47262.44
621.19	47365.42
621.34	47016.68
621.49	47283.50
621.65	47107.96
621.80	47229.67
621.95	46918.38
622.10	47215.63
622.25	46761.56
622.41	46864.55
622.56	46969.87
622.71	46843.48
622.86	47131.37
623.01	46972.21
623.16	46969.87
623.32	47180.52
623.47	47150.09
623.62	46909.02
623.77	47054.13
623.92	46719.43
624.07	46780.29
624.23	46670.28
624.38	46389.42
624.53	46534.53
624.68	46799.01
624.83	46302.82
624.98	46696.03
625.13	45963.44
625.29	46007.91
625.44	46752.20
625.59	46319.20
625.74	46256.01
625.89	46052.38
626.04	46279.41
626.19	46333.24
626.34	46007.91
626.49	46410.48
626.65	46127.28
626.80	46213.88
626.95	46068.76
627.10	45942.38
627.25	46358.99
627.40	46319.20
627.55	46174.09
627.70	46157.70
627.85	46167.07
628.00	45785.56
628.15	46351.97
628.30	45406.39
628.45	45338.52
628.60	45677.90
628.76	45478.95
628.91	46010.25
629.06	45490.65
629.21	45820.67
629.36	45801.94
629.51	45633.42
629.66	45991.53
629.81	45525.76
629.96	45764.49
630.11	45893.22
630.26	45476.61
630.41	45827.69
630.56	45846.41
630.71	45724.71
630.86	45787.90
631.01	45162.98
631.16	45689.60
631.31	45504.70
631.46	45181.70
631.61	45830.03
631.76	45972.80
631.91	45481.29
632.06	45823.01
632.21	45893.22
632.36	45804.28
632.51	44985.10
632.66	45523.42
632.81	45553.85
632.96	45411.07
633.10	45619.38
633.25	45165.32
633.40	45205.11
633.55	45528.10
633.70	45268.30
633.85	45310.43
634.00	44863.39
634.15	44814.24
634.30	45284.68
634.45	44729.98
634.60	45556.19
634.75	45109.14
634.90	44910.20
635.05	45052.97
635.19	44959.35
635.34	44868.07
635.49	45043.61
635.64	44722.96
635.79	45748.11
635.94	44786.15
636.09	44842.32
636.24	44725.30
636.39	44870.41
636.53	44666.78
636.68	44732.32
636.83	44458.48
636.98	44552.10
637.13	43885.04
637.28	44423.37
637.43	45155.96
637.57	44643.38
637.72	44006.75
637.87	44327.41
638.02	44442.09
638.17	44458.48
638.32	44587.21
638.46	43920.15
638.61	44336.77
638.76	43929.51
638.91	44292.30
639.06	44252.51
639.20	43945.90
639.35	43899.09
639.50	43821.85
639.65	44685.51
639.80	44978.07
639.94	44219.74
640.09	44399.96
640.24	44488.90
640.39	43950.58
640.54	43480.13
640.68	44088.67
640.83	44182.29
640.98	43498.86
641.13	43461.41
641.27	44252.51
641.42	43608.86
641.57	43978.67
641.72	43545.67
641.86	43613.54
642.01	43524.60
642.16	43730.57
642.31	43435.66
642.45	44044.20
642.60	42887.98
642.75	43386.51
642.90	43608.86
643.04	43573.75
643.19	43283.53
643.34	43438.00
643.48	42876.27
643.63	43580.78
643.78	43384.17
643.93	43646.31
644.07	43793.76
644.22	43182.88
644.37	43494.18
644.51	43494.18
644.66	43384.17
644.81	43164.16
644.95	43239.06
645.10	43229.69
645.25	42997.98
645.39	43175.86
645.54	42696.05
645.69	42607.11
645.83	42742.86
645.98	42717.12
646.13	42623.50
646.27	43075.22
646.42	42845.85
646.57	42703.07
646.71	43526.94
646.86	43459.07
647.00	43285.87
647.15	43124.37
647.30	42843.51
647.44	42883.30
647.59	42887.98
647.74	42990.96
647.88	42831.80
648.03	43262.46
648.17	43044.79
648.32	43262.46
648.47	43290.55
648.61	42663.28
648.76	42244.33
648.90	42639.88
649.05	42775.63
649.20	42735.84
649.34	42602.43
649.49	42686.69
649.63	42543.92
649.78	42569.66
649.92	42670.31
650.07	42911.38
650.21	43119.69
650.36	42852.87
650.51	42656.26
650.65	42698.39
650.80	42560.30
650.94	42150.71
651.09	42438.59
651.23	41958.78
651.38	42316.89
651.52	41841.76
651.67	42183.48
651.81	42595.41
651.96	41923.68
652.10	41579.62
652.25	42232.63
652.39	42639.88
652.54	42108.58
652.68	41944.74
652.83	41801.97
652.97	42387.10
653.12	41811.33
653.26	41837.08
653.41	41638.13
653.55	42050.06
653.70	41677.92
653.84	42244.33
653.99	42239.65
654.13	42239.65
654.27	41710.69
654.42	41701.32
654.56	41628.77
654.71	41830.05
654.85	41876.86
655.00	42246.67
655.14	41511.74
655.29	41949.42
655.43	42082.83
655.57	41656.85
655.72	41694.30
655.86	41769.20
656.01	41652.17
656.15	41167.68
656.30	41467.27
656.44	41698.98
656.58	41684.94
656.73	41294.07
656.87	41102.15
657.01	41013.21
657.16	41287.05
657.30	41193.43
657.45	41317.48
657.59	41031.93
657.73	40910.22
657.88	41191.09
658.02	41483.66
658.16	41413.44
658.31	41184.07
658.45	41233.22
658.60	40968.74
658.74	40910.22
658.88	40554.46
659.03	40889.16
659.17	40612.98
659.31	40341.47
659.46	40418.71
659.60	40912.56
659.74	40411.69
659.89	40336.79
660.03	39651.02
660.17	40601.27
660.32	40119.12
660.46	40229.13
660.60	40013.80
660.74	40203.38
660.89	40547.44
661.03	40212.74
661.17	39882.73
661.32	39831.24
661.46	40130.83
661.60	39714.21
661.74	39302.28
661.89	39978.69
662.03	39718.89
662.17	39714.21
662.31	39082.27
662.46	39742.30
662.60	39489.52
662.74	39182.91
662.88	39435.69
663.03	39505.90
663.17	39023.75
663.31	38852.89
663.45	39157.16
663.60	39578.46
663.74	39206.31
663.88	39152.48
664.02	38698.42
664.17	39548.03
664.31	38658.63
664.45	38799.06
664.59	38602.46
664.73	38642.24
664.88	38740.55
665.02	38345.00
665.16	38824.81
665.30	38932.47
665.44	38824.81
665.59	38153.07
665.73	38352.02
665.87	37792.63
666.01	38621.18
666.15	38181.16
666.29	38815.44
666.44	38223.29
666.58	38295.85
666.72	37904.98
666.86	37867.53
667.00	37710.71
667.14	37965.83
667.28	37605.39
667.43	37694.33
667.57	38106.26
667.71	37691.99
667.85	38092.22
667.99	37610.07
668.13	37553.90
668.27	37460.27
668.41	37277.71
668.56	36971.10
668.70	36758.11
668.84	37006.21
668.98	36500.65
669.12	37266.01
669.26	37001.53
669.40	36788.54
669.54	36676.19
669.68	37113.87
669.82	37017.91
669.96	36327.45
670.10	36467.89
670.25	36383.63
670.39	36250.22
670.53	36692.58
670.67	36432.78
670.81	36659.81
670.95	36229.15
671.09	35833.60
671.23	35662.74
671.37	36320.43
671.51	35931.90
671.65	36086.38
671.79	35971.69
671.93	35646.36
672.07	36332.14
672.21	35866.37
672.35	35306.98
672.49	35440.39
672.63	35370.18
672.77	35196.98
672.91	35173.57
673.05	35342.09
673.19	35248.47
673.33	35044.84
673.47	34995.69
673.61	34752.27
673.75	34550.99
673.89	34595.46
674.03	34534.60
674.17	34230.33
674.31	34195.23
674.45	34389.49
674.59	34298.21
674.73	34457.37
674.87	34061.82
675.01	33876.91
675.15	33507.11
675.29	33638.18
675.43	33537.54
675.56	34153.10
675.70	33696.69
675.84	33558.60
675.98	32390.67
676.12	33184.12
676.26	33528.17
676.40	33071.77
676.54	32996.87
676.68	33102.20
676.82	32531.11
676.96	32884.53
677.10	32662.18
677.23	32802.61
677.37	32596.64
677.51	32259.60
677.65	32496.00
677.79	32243.22
677.93	32065.34
678.07	32128.53
678.21	31772.77
678.34	31859.37
678.48	31634.68
678.62	31721.28
678.76	31356.16
678.90	31295.30
679.04	31213.38
679.18	31672.13
679.31	31283.60
679.45	30986.35
679.59	30850.60
679.73	31182.96
679.87	30494.84
680.00	30754.64
680.14	30588.46
680.28	30471.43
680.42	30429.30
680.56	30361.43
680.70	30249.08
680.83	30136.74
680.97	29785.66
681.11	29811.40
681.25	29371.38
681.39	29769.27
681.52	29745.87
681.66	29301.17
681.80	29151.37
681.94	29060.09
682.07	29062.43
682.21	28943.06
682.35	28849.44
682.49	28521.77
682.62	29076.48
682.76	29085.84
682.90	28840.08
683.04	28481.98
683.17	28673.90
683.31	28048.98
683.45	28056.00
683.59	28126.22
683.72	27672.15
683.86	27721.30
684.00	28194.09
684.13	27988.13
684.27	27810.25
684.41	27335.12
684.55	27569.17
684.68	27632.36
684.82	26974.67
684.96	27101.06
685.09	26984.04
685.23	27407.67
685.37	27407.67
685.50	27674.49
685.64	27056.59
685.78	26703.17
685.91	26450.39
686.05	26078.25
686.19	25914.41
686.32	26349.75
686.46	26080.59
686.60	25537.59
686.73	25958.88
686.87	25764.62
687.01	26017.40
687.14	25914.41
687.28	25291.83
687.42	25242.68
687.55	25408.86
687.69	25532.90
687.82	25020.33
687.96	25153.74
688.10	24943.09
688.23	25193.53
688.37	24903.30
688.50	24875.21
688.64	24816.70
688.78	24531.15
688.91	24617.75
689.05	24444.56
689.18	24100.50
689.32	23468.55
689.46	23920.28
689.59	24109.86
689.73	23747.08
689.86	24023.26
690.00	23807.93
690.13	24182.42
690.27	23374.93
690.41	23765.80
690.54	23145.56
690.68	22960.66
690.81	23257.90
690.95	23023.85
691.08	22876.40
691.22	22941.93
691.35	22682.13
691.49	22796.82
691.62	22981.72
691.76	22803.84
691.89	22384.88
692.03	21649.96
692.16	22043.17
692.30	22405.95
692.43	21806.77
692.57	21750.60
692.70	21577.40
692.84	21750.60
692.97	21483.78
693.11	21568.04
693.24	21348.03
693.38	21387.82
693.51	21172.49
693.65	21369.09
693.78	21015.67
693.92	20776.94
694.05	20561.61
694.19	20781.62
694.32	21041.42
694.45	21111.63
694.59	20814.38
694.72	20966.52
694.86	20357.98
694.99	20442.24
695.13	20280.74
695.26	19623.05
695.39	19868.81
695.53	19992.86
695.66	19679.22
695.80	19447.51
695.93	19601.99
696.07	19552.84
696.20	19321.12
696.33	19047.28
696.47	19176.01
696.60	19080.05
696.73	19040.26
696.87	19124.52
697.00	19066.00
697.14	18813.23
697.27	18735.99
697.40	18787.48
697.54	18733.65
697.67	18633.00
697.80	18635.35
697.94	18155.54
698.07	17893.40
698.21	18101.70
698.34	18040.85
698.47	18033.83
698.61	17549.34
698.74	17673.39
698.87	17781.05
699.01	17624.23
699.14	17682.75
699.27	17427.63
699.40	17722.54
699.54	17598.49
699.67	17350.39
699.80	17404.22
699.94	17128.04
700.07	17041.44
700.20	16800.37
700.34	17050.80
700.47	16610.78
700.60	17235.70
700.73	16879.94
700.87	16695.04
701.00	16348.64
701.13	16077.14
701.26	16269.06
701.40	16205.87
701.53	16170.76
701.66	15997.56
701.79	16056.08
701.93	15800.96
702.06	15859.47
702.19	15819.68
702.32	15791.59
702.46	15571.58
702.59	15815.00
702.72	15800.96
702.85	15688.61
702.99	15377.32
703.12	15690.95
703.25	15147.95
703.38	14991.13
703.51	14895.17
703.65	14904.53
703.78	14904.53
703.91	14682.18
704.04	14668.14
704.17	14473.87
704.31	14623.67
704.44	14558.13
704.57	14345.14
704.70	14328.76
704.83	14209.39
704.96	14221.10
705.10	13933.21
705.23	14150.88
>>>>>End Processed Spectral Data<<<<<
