SpectraSuite Data File
++++++++++++++++++++++++++++++++++++
Date: Fri Oct 25 11:33:28 EDT 2013
User: price-jones
Dark Spectrum Present: No
Reference Spectrum Present: No
Number of Sampled Component Spectra: 1
Spectrometers: USB2+H05261
Integration Time (usec): 100000 (USB2+H05261)
Spectra Averaged: 1 (USB2+H05261)
Boxcar Smoothing: 0 (USB2+H05261)
Correct for Electrical Dark: No (USB2+H05261)
Strobe/Lamp Enabled: No (USB2+H05261)
Correct for Detector Non-linearity: No (USB2+H05261)
Correct for Stray Light: No (USB2+H05261)
Number of Pixels in Processed Spectrum: 2048
>>>>>Begin Processed Spectral Data<<<<<
365.73	313.63
365.92	313.63
366.12	313.63
366.32	154.48
366.52	177.88
366.72	191.92
366.91	231.71
367.11	217.67
367.31	191.92
367.51	112.35
367.70	119.37
367.90	248.10
368.10	163.84
368.30	170.86
368.49	203.63
368.69	250.44
368.89	252.78
369.09	210.65
369.28	245.76
369.48	241.08
369.68	212.99
369.87	208.31
370.07	283.20
370.27	304.27
370.47	395.55
370.66	486.83
370.86	505.56
371.06	589.82
371.25	613.22
371.45	599.18
371.65	578.11
371.84	561.73
372.04	629.60
372.24	585.13
372.44	641.31
372.63	585.13
372.83	578.11
373.03	566.41
373.22	641.31
373.42	655.35
373.62	620.24
373.81	627.26
374.01	589.82
374.21	671.73
374.40	613.22
374.60	662.37
374.79	608.54
374.99	655.35
375.19	702.16
375.38	713.86
375.58	667.05
375.78	706.84
375.97	713.86
376.17	697.48
376.37	664.71
376.56	709.18
376.76	648.33
376.95	706.84
377.15	657.69
377.35	699.82
377.54	674.07
377.74	641.31
377.93	655.35
378.13	603.86
378.33	711.52
378.52	720.88
378.72	711.52
378.91	727.91
379.11	725.57
379.31	674.07
379.50	732.59
379.70	781.74
379.89	751.31
380.09	805.14
380.28	802.80
380.48	828.55
380.68	744.29
380.87	727.91
381.07	753.65
381.26	706.84
381.46	795.78
381.65	760.67
381.85	713.86
382.04	723.23
382.24	753.65
382.43	774.72
382.63	767.70
382.83	840.25
383.02	800.46
383.22	821.53
383.41	830.89
383.61	835.57
383.80	746.63
384.00	833.23
384.19	786.42
384.39	828.55
384.58	866.00
384.78	795.78
384.97	793.44
385.17	828.55
385.36	809.83
385.56	884.72
385.75	755.99
385.95	809.83
386.14	828.55
386.34	837.91
386.53	856.64
386.72	800.46
386.92	924.51
387.11	791.10
387.31	917.49
387.50	891.74
387.70	809.83
387.89	896.43
388.09	847.27
388.28	842.59
388.48	837.91
388.67	1001.75
388.86	973.66
389.06	915.15
389.25	889.40
389.45	952.60
389.64	959.62
389.84	947.92
390.03	1020.47
390.22	983.02
390.42	903.45
390.61	971.32
390.81	938.55
391.00	968.98
391.19	1076.65
391.39	1013.45
391.58	1069.62
391.78	1078.99
391.97	997.07
392.16	943.24
392.36	1093.03
392.55	1025.15
392.75	990.05
392.94	994.73
393.13	1069.62
393.33	1046.22
393.52	1055.58
393.71	1086.01
393.91	1093.03
394.10	1001.75
394.29	1123.46
394.49	1048.56
394.68	1174.95
394.88	1146.86
395.07	1212.40
395.26	1198.35
395.46	1181.97
395.65	1224.10
395.84	1132.82
396.04	1228.78
396.23	1200.69
396.42	1249.85
396.62	1221.76
396.81	1226.44
397.00	1219.42
397.19	1287.29
397.39	1270.91
397.58	1266.23
397.77	1247.51
397.97	1308.36
398.16	1345.81
398.35	1331.76
398.55	1291.98
398.74	1284.95
398.93	1343.47
399.12	1324.74
399.32	1306.02
399.51	1252.19
399.70	1315.38
399.90	1310.70
400.09	1296.66
400.28	1362.19
400.47	1439.43
400.67	1369.21
400.86	1458.15
401.05	1390.28
401.24	1453.47
401.44	1369.21
401.63	1458.15
401.82	1448.79
402.01	1430.07
402.21	1504.96
402.40	1481.56
402.59	1584.54
402.78	1495.60
402.97	1469.86
403.17	1563.48
403.36	1603.27
403.55	1605.61
403.74	1647.74
403.93	1537.73
404.13	1659.44
404.32	1645.40
404.51	1640.72
404.70	1652.42
404.89	1621.99
405.09	1696.89
405.28	1636.03
405.47	1675.82
405.66	1621.99
405.85	1689.87
406.05	1701.57
406.24	1755.40
406.43	1736.68
406.62	1722.63
406.81	1823.28
407.00	1774.13
407.20	1837.32
407.39	1797.53
407.58	1776.47
407.77	1919.24
407.96	1853.70
408.15	1893.49
408.34	1853.70
408.54	1851.36
408.73	1816.26
408.92	1905.20
409.11	1966.05
409.30	2038.61
409.49	1952.01
409.68	2036.27
409.87	2129.89
410.07	2076.06
410.26	2069.03
410.45	2104.14
410.64	2083.08
410.83	2141.59
411.02	2153.29
411.21	2214.15
411.40	2242.23
411.59	2200.10
411.78	2202.44
411.98	2253.94
412.17	2385.01
412.36	2200.10
412.55	2366.28
412.74	2399.05
412.93	2462.24
413.12	2399.05
413.31	2452.88
413.50	2335.85
413.69	2394.37
413.88	2455.22
414.07	2492.67
414.26	2429.48
414.45	2499.69
414.64	2478.63
414.83	2560.55
415.02	2581.61
415.22	2644.81
415.41	2715.02
415.60	2708.00
415.79	2731.41
415.98	2726.72
416.17	2609.70
416.36	2684.59
416.55	2724.38
416.74	2750.13
416.93	2874.18
417.12	2925.67
417.31	2846.09
417.50	2892.90
417.69	3019.29
417.88	2867.16
418.07	2871.84
418.26	2942.05
418.45	3000.57
418.64	3103.55
418.83	3059.08
419.02	2904.60
419.21	3063.76
419.39	3143.34
419.58	3098.87
419.77	3049.72
419.96	3194.83
420.15	3218.24
420.34	3227.60
420.53	3213.56
420.72	3290.79
420.91	3155.04
421.10	3339.94
421.29	3363.35
421.48	3218.24
421.67	3323.56
421.86	3283.77
422.05	3255.69
422.24	3283.77
422.43	3339.94
422.61	3379.73
422.80	3407.82
422.99	3321.22
423.18	3562.30
423.37	3431.23
423.56	3335.26
423.75	3426.54
423.94	3265.05
424.13	3159.72
424.32	3265.05
424.50	3410.16
424.69	3585.70
424.88	3396.12
425.07	3414.84
425.26	3419.52
425.45	3396.12
425.64	3510.80
425.83	3501.44
426.01	3597.40
426.20	3534.21
426.39	3517.83
426.58	3508.46
426.77	3597.40
426.96	3564.64
427.15	3559.95
427.33	3592.72
427.52	3613.79
427.71	3618.47
427.90	3602.08
428.09	3686.34
428.28	3740.18
428.46	3632.51
428.65	3695.71
428.84	3716.77
429.03	3740.18
429.22	3562.30
429.40	3733.15
429.59	3786.99
429.78	3602.08
429.97	3637.19
430.16	3808.05
430.34	3857.20
430.53	3847.84
430.72	3962.53
430.91	3789.33
431.10	3861.88
431.28	3831.46
431.47	3999.98
431.66	4056.15
431.85	3983.59
432.03	3960.19
432.22	4112.32
432.41	4021.04
432.60	4065.51
432.79	4049.13
432.97	4131.05
433.16	4142.75
433.35	4088.92
433.54	4180.20
433.72	4177.86
433.91	4074.87
434.10	4112.32
434.28	4112.32
434.47	4198.92
434.66	4299.56
434.85	4353.40
435.03	4306.59
435.22	4388.50
435.41	4432.97
435.59	4299.56
435.78	4402.55
435.97	4411.91
436.16	4381.48
436.34	4496.17
436.53	4540.64
436.72	4608.51
436.90	4402.55
437.09	4489.15
437.28	4479.79
437.46	4528.94
437.65	4622.56
437.84	4552.34
438.02	4613.20
438.21	4711.50
438.40	4500.85
438.58	4868.31
438.77	4809.80
438.96	4730.22
439.14	4711.50
439.33	4903.42
439.52	4842.57
439.70	4938.53
439.89	4983.00
440.08	5076.62
440.26	5144.50
440.45	5018.11
440.63	5135.14
440.82	5167.90
441.01	5095.35
441.19	5022.79
441.38	5308.34
441.57	5373.87
441.75	5256.84
441.94	5467.49
442.12	5380.89
442.31	5432.38
442.50	5469.83
442.68	5462.81
442.87	5568.13
443.05	5336.42
443.24	5731.97
443.43	5598.56
443.61	5572.82
443.80	5643.03
443.98	5497.92
444.17	5193.65
444.35	5430.04
444.54	5614.95
444.73	5614.95
444.91	5734.31
445.10	5757.72
445.28	5692.18
445.47	5600.90
445.65	5600.90
445.84	5589.20
446.02	5743.67
446.21	5668.78
446.39	5582.18
446.58	5727.29
446.77	5631.33
446.95	5671.12
447.14	5743.67
447.32	5809.21
447.51	5837.30
447.69	5736.65
447.88	5755.38
448.06	5764.74
448.25	5696.86
448.43	5816.23
448.62	5870.06
448.80	5788.14
448.99	5926.24
449.17	5912.19
449.36	5823.25
449.54	5959.00
449.73	6036.24
449.91	6193.06
450.10	6174.33
450.28	6242.21
450.46	6129.86
450.65	6167.31
450.83	6148.59
451.02	6097.10
451.20	6317.11
451.39	6115.82
451.57	6265.61
451.76	6176.67
451.94	6164.97
452.13	6487.96
452.31	6274.98
452.49	6408.39
452.68	6127.52
452.86	6171.99
453.05	6487.96
453.23	6518.39
453.42	6408.39
453.60	6345.19
453.78	6366.26
453.97	6307.74
454.15	6345.19
454.34	6373.28
454.52	6551.16
454.70	6399.02
454.89	6693.93
455.07	6663.51
455.26	6712.66
455.44	6803.94
455.62	6766.49
455.81	6595.63
455.99	6747.76
456.17	6820.32
456.36	6766.49
456.54	6750.10
456.73	6820.32
456.91	7122.25
457.09	7035.65
457.28	7054.37
457.46	6878.83
457.64	7148.00
457.83	7241.62
458.01	6979.48
458.19	7204.17
458.38	7169.06
458.56	7232.26
458.74	7199.49
458.93	7162.04
459.11	7258.00
459.29	7283.75
459.48	7236.94
459.66	7377.37
459.84	7194.81
460.03	7433.54
460.21	7342.26
460.39	7566.95
460.57	7386.73
460.76	7398.43
460.94	7552.91
461.12	7478.01
461.31	7569.29
461.49	7583.34
461.67	7562.27
461.85	7644.19
462.04	7534.18
462.22	8147.40
462.40	7845.48
462.59	7658.23
462.77	7712.07
462.95	7824.41
463.13	7751.85
463.32	7866.54
463.50	7974.21
463.68	7847.82
463.86	8039.74
464.05	7887.61
464.23	7960.16
464.41	8102.93
464.59	7775.26
464.78	8191.88
464.96	8056.12
465.14	7880.58
465.32	8081.87
465.50	8163.79
465.69	8329.97
465.87	8332.31
466.05	8126.34
466.23	8187.19
466.41	8320.60
466.60	8294.86
466.78	8177.83
466.96	8308.90
467.14	8318.26
467.32	8212.94
467.51	8329.97
467.69	8238.69
467.87	8266.77
468.05	8329.97
468.23	8325.29
468.41	8308.90
468.60	8409.54
468.78	8498.49
468.96	8428.27
469.14	8428.27
469.32	8610.83
469.50	8505.51
469.69	8659.98
469.87	8762.97
470.05	8461.04
470.23	8706.79
470.41	8746.58
470.59	8964.25
470.77	8681.05
470.95	8772.33
471.14	9064.89
471.32	8748.92
471.50	8936.17
471.68	9128.09
471.86	9205.33
472.04	9270.86
472.22	9474.49
472.40	9114.05
472.58	9423.00
472.77	9242.78
472.95	9373.85
473.13	9816.21
473.31	9338.74
473.49	9404.27
473.67	9418.32
473.85	9703.86
474.03	9502.58
474.21	9717.90
474.39	10059.62
474.57	9820.89
474.75	9951.96
474.93	10076.01
475.12	9884.08
475.30	10141.54
475.48	10061.96
475.66	9961.32
475.84	10129.84
476.02	10291.34
476.20	10068.98
476.38	10581.56
476.56	10544.11
476.74	10391.98
476.92	10574.54
477.10	10410.70
477.28	10832.00
477.46	10885.83
477.64	10787.53
477.82	10626.03
478.00	11265.00
478.18	11091.80
478.36	11028.60
478.54	11236.91
478.72	11405.43
478.90	11412.45
479.08	11496.71
479.26	11768.21
479.44	11742.47
479.62	11592.67
479.80	11744.81
479.98	11955.46
480.16	12233.98
480.34	12035.03
480.52	12383.77
480.70	12271.43
480.88	12067.80
481.06	12449.31
481.24	12505.48
481.41	12688.04
481.59	12788.69
481.77	12657.62
481.95	12908.05
482.13	13088.28
482.31	12877.63
482.49	13504.89
482.67	13465.10
482.85	13415.95
483.03	13872.36
483.21	13809.16
483.39	13689.79
483.57	13806.82
483.74	14059.60
483.92	13879.38
484.10	14087.68
484.28	14279.61
484.46	14462.17
484.64	14768.78
484.82	14457.49
485.00	14642.39
485.18	14881.13
485.35	14876.44
485.53	15056.67
485.71	15243.91
485.89	15433.49
486.07	15412.43
486.25	15456.90
486.43	15459.24
486.61	15704.99
486.78	15824.36
486.96	15927.35
487.14	16215.23
487.32	16269.06
487.50	16411.84
487.68	16264.38
487.85	16301.83
488.03	16814.41
488.21	16903.35
488.39	16886.97
488.57	16964.20
488.75	17277.83
488.92	17411.25
489.10	17537.63
489.28	17586.79
489.46	17682.75
489.64	17823.18
489.81	18380.23
489.99	18101.70
490.17	18211.71
490.35	18579.17
490.53	18483.21
490.70	18829.61
490.88	18607.26
491.06	19012.17
491.24	18813.23
491.41	19033.24
491.59	19199.41
491.77	19391.34
491.95	19541.13
492.13	19513.05
492.30	19655.82
492.48	19873.49
492.66	19592.62
492.84	20217.55
493.01	20233.93
493.19	20416.49
493.37	20116.90
493.54	20367.34
493.72	20533.52
493.90	20844.81
494.08	21088.23
494.25	21043.76
494.43	20943.11
494.61	21589.10
494.79	21322.28
494.96	21341.00
495.14	21642.93
495.32	21774.00
495.49	21610.17
495.67	21991.67
495.85	21944.86
496.02	22253.81
496.20	22356.80
496.38	22483.19
496.55	22008.06
496.73	23126.83
496.91	22822.56
497.09	22520.63
497.26	23056.62
497.44	23166.62
497.62	23508.34
497.79	23878.15
497.97	23321.10
498.14	23304.71
498.32	24037.30
498.50	23786.86
498.67	23887.51
498.85	23576.22
499.03	24243.27
499.20	24027.94
499.38	24493.71
499.56	24662.22
499.73	24608.39
499.91	24744.14
500.08	24952.45
500.26	24652.86
500.44	24451.58
500.61	24809.68
500.79	24884.58
500.97	25198.21
501.14	25179.48
501.32	25156.08
501.49	25062.46
501.67	25448.64
501.84	25839.51
502.02	25717.81
502.20	25647.59
502.37	25570.35
502.55	25748.23
502.72	26108.68
502.90	25565.67
503.07	26324.01
503.25	26288.90
503.43	26375.50
503.60	26473.80
503.78	26590.83
503.95	26368.48
504.13	26466.78
504.30	26731.26
504.48	26242.09
504.65	27154.90
504.83	27061.27
505.01	27021.48
505.18	27562.15
505.36	27644.07
505.53	27094.04
505.71	27461.51
505.88	27414.69
506.06	27573.85
506.23	27555.13
506.41	27681.52
506.58	27840.67
506.76	27946.00
506.93	27922.59
507.11	27634.71
507.28	28252.61
507.46	28381.34
507.63	28393.04
507.81	28692.63
507.98	28322.82
508.16	28191.75
508.33	28676.24
508.50	28781.57
508.68	28666.88
508.85	29275.42
509.03	28720.71
509.20	29263.72
509.38	29586.71
509.55	29282.44
509.73	29277.76
509.90	29558.63
510.08	29586.71
510.25	29731.83
510.42	29500.11
510.60	29652.25
510.77	30026.73
510.95	30115.67
511.12	29788.00
511.30	30246.74
511.47	30429.30
511.64	30026.73
511.82	30373.13
511.99	30359.09
512.17	30628.25
512.34	30408.24
512.51	30866.98
512.69	30792.09
512.86	30911.46
513.04	31276.58
513.21	30932.52
513.38	31012.10
513.56	31290.62
513.73	30953.58
513.90	31260.20
514.08	31309.35
514.25	31330.41
514.43	31391.26
514.60	31669.79
514.77	31632.34
514.95	31974.06
515.12	31604.25
515.29	31440.42
515.47	32318.12
515.64	32360.25
515.81	31714.26
515.99	32006.83
516.16	32505.36
516.33	32531.11
516.51	32470.25
516.68	32011.51
516.85	32673.88
517.03	32896.23
517.20	33123.26
517.37	32741.75
517.54	33099.86
517.72	32580.26
517.89	33085.81
518.06	32701.96
518.24	32685.58
518.41	33376.04
518.58	33132.62
518.75	33022.62
518.93	33827.76
519.10	33537.54
519.27	33525.83
519.45	34033.73
519.62	33734.14
519.79	33759.89
519.96	33589.03
520.14	33972.88
520.31	33982.24
520.48	34349.70
520.65	33972.88
520.83	34394.17
521.00	34455.03
521.17	34373.11
521.34	34153.10
521.52	34394.17
521.69	34548.65
521.86	34251.40
522.03	34710.14
522.20	34923.13
522.38	35000.37
522.55	35353.79
522.72	35047.18
522.89	35129.10
523.07	35295.28
523.24	35353.79
523.41	35271.87
523.58	34815.47
523.75	35672.10
523.92	35548.06
524.10	35552.74
524.27	35768.07
524.44	35889.77
524.61	35789.13
524.78	35931.90
524.96	36446.82
525.13	35833.60
525.30	36388.31
525.47	36643.43
525.64	36119.15
525.81	36463.21
525.98	36542.78
526.16	36053.61
526.33	36428.10
526.50	36645.77
526.67	36730.03
526.84	37001.53
527.01	36690.24
527.18	36746.41
527.36	36851.73
527.53	36959.40
527.70	37242.60
527.87	37036.64
528.04	37158.34
528.21	37287.07
528.38	37244.94
528.55	37099.83
528.72	37280.05
528.89	37179.41
529.07	37099.83
529.24	37411.12
529.41	37509.43
529.58	37722.41
529.75	37481.34
529.92	37701.35
530.09	37809.01
530.26	38017.32
530.43	38036.05
530.60	37338.57
530.77	37621.77
530.94	38080.52
531.11	37874.55
531.28	38176.48
531.46	38597.77
531.63	37902.64
531.80	38398.83
531.97	38162.43
532.14	38565.01
532.31	38029.02
532.48	38330.95
532.65	38665.65
532.82	38096.90
532.99	38361.38
533.16	38735.87
533.33	38625.86
533.50	38895.02
533.67	38576.71
533.84	38527.56
534.01	38693.74
534.18	39079.92
534.35	39611.23
534.52	38976.94
534.69	39665.06
534.86	40093.38
535.03	39313.98
535.20	39578.46
535.37	39510.58
535.54	39049.50
535.71	39187.59
535.88	39763.36
536.05	39739.96
536.22	39981.03
536.38	40093.38
536.55	39578.46
536.72	39854.64
536.89	39519.95
537.06	39845.28
537.23	40208.06
537.40	39924.86
537.57	40102.74
537.74	40123.80
537.91	40327.43
538.08	40252.53
538.25	40006.78
538.42	40383.60
538.59	40591.91
538.75	40329.77
538.92	40402.33
539.09	40767.45
539.26	40973.42
539.43	40488.93
539.60	40629.36
539.77	40821.28
539.94	41120.87
540.11	40568.51
540.28	41109.17
540.44	41151.30
540.61	40947.67
540.78	41123.21
540.95	41130.23
541.12	40954.69
541.29	40713.62
541.46	40767.45
541.62	40964.06
541.79	42017.30
541.96	40905.54
542.13	41097.47
542.30	41268.33
542.47	41673.24
542.63	41738.77
542.80	41914.31
542.97	41818.35
543.14	41940.06
543.31	41677.92
543.48	41614.72
543.64	41965.81
543.81	42029.00
543.98	42064.11
544.15	42019.64
544.32	42471.36
544.48	42410.51
544.65	42263.05
544.82	42653.92
544.99	41998.57
545.16	41846.44
545.32	42534.56
545.49	42600.09
545.66	43196.93
545.83	42553.28
546.00	42738.18
546.16	42604.77
546.33	42431.57
546.50	42447.96
546.67	42696.05
546.83	42256.03
547.00	42532.22
547.17	42471.36
547.34	42801.38
547.50	43246.08
547.67	43070.54
547.84	43026.07
548.00	43545.67
548.17	43716.53
548.34	43213.31
548.51	43175.86
548.67	43548.01
548.84	43405.23
549.01	43409.92
549.18	43283.53
549.34	43337.36
549.51	43416.94
549.68	43477.79
549.84	43381.83
550.01	43777.38
550.18	43257.78
550.34	43583.12
550.51	43908.45
550.68	43966.96
550.84	43564.39
551.01	43873.34
551.18	43576.09
551.34	43515.24
551.51	43995.05
551.68	43779.72
551.84	44336.77
552.01	43564.39
552.18	43730.57
552.34	44182.29
552.51	44018.46
552.68	43957.60
552.84	43950.58
553.01	44175.27
553.18	44212.72
553.34	44425.71
553.51	44098.03
553.67	44842.32
553.84	44556.78
554.01	44498.26
554.17	44470.18
554.34	44858.71
554.51	44765.09
554.67	45017.86
554.84	45104.46
555.00	44673.81
555.17	44439.75
555.33	44797.85
555.50	44851.69
555.67	44896.16
555.83	44847.00
556.00	44858.71
556.16	45462.57
556.33	45031.91
556.50	44720.62
556.66	45078.72
556.83	44694.87
556.99	45331.50
557.16	45310.43
557.32	45291.71
557.49	45198.09
557.65	44868.07
557.82	45130.21
557.98	45240.21
558.15	44978.07
558.32	44917.22
558.48	45209.79
558.65	45481.29
558.81	45514.06
558.98	45081.06
559.14	45425.12
559.31	45338.52
559.47	45469.59
559.64	45787.90
559.80	45951.74
559.97	45492.99
560.13	45240.21
560.30	45436.82
560.46	45649.81
560.63	45600.66
560.79	46012.59
560.96	46190.47
561.12	46014.93
561.29	45628.74
561.45	45406.39
561.61	45727.05
561.78	45984.51
561.94	45968.12
562.11	45673.21
562.27	46136.64
562.44	45560.87
562.60	45811.31
562.77	45855.78
562.93	45977.48
563.10	45895.56
563.26	46040.68
563.42	46494.74
563.59	46270.05
563.75	45909.61
563.92	46117.92
564.08	46164.73
564.24	46178.77
564.41	45860.46
564.57	46136.64
564.74	46143.66
564.90	46387.08
565.07	46043.02
565.23	46461.97
565.39	46256.01
565.56	46361.33
565.72	46490.06
565.88	46377.72
566.05	46471.34
566.21	46483.04
566.38	46653.90
566.54	46564.96
566.70	46246.65
566.87	46398.78
567.03	46447.93
567.19	46539.21
567.36	46146.00
567.52	46567.30
567.68	46646.88
567.85	46387.08
568.01	47117.32
568.17	46192.81
568.34	46504.10
568.50	46426.87
568.66	46124.94
568.83	46380.06
568.99	46501.76
569.15	46326.22
569.32	46902.00
569.48	46525.17
569.64	46913.70
569.81	46838.80
569.97	46618.79
570.13	46890.29
570.30	46586.02
570.46	46806.03
570.62	46869.23
570.78	46965.19
570.95	46759.22
571.11	46934.76
571.27	46946.47
571.43	46401.12
571.60	46571.98
571.76	47239.03
571.92	46951.15
572.09	46621.13
572.25	46478.36
572.41	46707.73
572.57	47491.81
572.74	46979.23
572.90	46670.28
573.06	47147.75
573.22	47124.35
573.38	47175.84
573.55	46794.33
573.71	47442.66
573.87	47124.35
574.03	47035.41
574.20	47318.61
574.36	47370.10
574.52	46869.23
574.68	47166.48
574.84	46997.96
575.01	46958.17
575.17	47274.14
575.33	47531.60
575.49	47241.37
575.65	47030.72
575.82	46848.16
575.98	47023.70
576.14	47145.41
576.30	47426.28
576.46	47154.77
576.62	47112.64
576.79	47168.82
576.95	46983.91
577.11	46904.34
577.27	46838.80
577.43	47133.71
577.59	47302.23
577.75	47089.24
577.92	46930.08
578.08	47196.90
578.24	46817.74
578.40	47131.37
578.56	47508.19
578.72	47594.79
578.88	48048.86
579.04	47332.65
579.21	47206.26
579.37	47695.44
579.53	47374.78
579.69	46997.96
579.85	47271.80
580.01	47543.30
580.17	47311.59
580.33	47409.89
580.49	47487.13
580.65	47196.90
580.82	46894.97
580.98	47089.24
581.14	47143.07
581.30	47363.08
581.46	47580.75
581.62	47304.57
581.78	47334.99
581.94	47363.08
582.10	47477.77
582.26	47421.59
582.42	47372.44
582.58	47119.66
582.74	47487.13
582.90	47171.16
583.06	47716.50
583.22	47222.65
583.38	47384.15
583.54	47381.80
583.70	47613.52
583.86	47559.69
584.02	47182.86
584.18	47646.29
584.34	47330.31
584.50	47454.36
584.66	47622.88
584.82	47466.06
584.98	47625.22
585.14	47676.71
585.30	47337.33
585.46	47690.76
585.62	47515.22
585.78	47634.58
585.94	47440.32
586.10	47442.66
586.26	47491.81
586.42	47690.76
586.58	47943.53
586.74	47468.40
586.90	47152.43
587.06	47445.00
587.22	47683.73
587.38	47267.12
587.54	47667.35
587.70	48051.20
587.86	47702.46
588.02	47210.95
588.18	47332.65
588.34	47688.42
588.49	47557.35
588.65	47475.43
588.81	47480.11
588.97	47629.90
589.13	47627.56
589.29	47655.65
589.45	48090.99
589.61	47751.61
589.77	47627.56
589.93	47587.77
590.08	48023.11
590.24	47931.83
590.40	48067.58
590.56	48098.01
590.72	47732.89
590.88	47688.42
591.04	47828.85
591.20	48109.71
591.35	47840.55
591.51	48095.67
591.67	48079.28
591.83	48512.28
591.99	48086.31
592.15	47969.28
592.31	47957.58
592.46	48116.73
592.62	48144.82
592.78	48088.65
592.94	48315.68
593.10	48378.87
593.26	48603.56
593.41	48198.65
593.57	47943.53
593.73	48519.31
593.89	48507.60
594.05	47889.70
594.20	48652.72
594.36	48353.13
594.52	48327.38
594.68	48053.54
594.84	48032.47
594.99	48638.67
595.15	47578.41
595.31	48261.85
595.47	48226.74
595.62	48079.28
595.78	48369.51
595.94	47906.08
596.10	48034.81
596.25	48086.31
596.41	48140.14
596.57	48250.14
596.73	48657.40
596.88	48128.44
597.04	47842.89
597.20	48376.53
597.36	48226.74
597.51	47978.64
597.67	48161.20
597.83	48203.33
597.99	48608.25
598.14	48301.64
598.30	48481.86
598.46	48292.27
598.61	48425.68
598.77	48259.51
598.93	48318.02
599.09	48573.14
599.24	48329.72
599.40	48402.28
599.56	48198.65
599.71	48882.09
599.87	48626.97
600.03	48844.64
600.18	48573.14
600.34	48470.15
600.50	48612.93
600.65	48296.95
600.81	48196.31
600.97	48708.89
601.12	48638.67
601.28	48381.21
601.44	48505.26
601.59	48339.08
601.75	48390.58
601.91	48685.48
602.06	48460.79
602.22	48437.39
602.37	48472.49
602.53	48491.22
602.69	48472.49
602.84	48018.43
603.00	48107.37
603.16	48325.04
603.31	48119.07
603.47	48442.07
603.62	48271.21
603.78	48725.27
603.94	48519.31
604.09	48523.99
604.25	48222.06
604.40	48678.46
604.56	48512.28
604.71	48666.76
604.87	48442.07
605.03	48193.97
605.18	48112.05
605.34	48561.44
605.49	48308.66
605.65	48411.64
605.80	48306.32
605.96	48182.27
606.12	48540.37
606.27	48327.38
606.43	48011.41
606.58	48495.90
606.74	48062.90
606.89	48044.18
607.05	48236.10
607.20	48428.02
607.36	48196.31
607.51	48355.47
607.67	48432.71
607.82	48287.59
607.98	48306.32
608.13	48172.91
608.29	48002.05
608.44	48348.45
608.60	48088.65
608.75	48552.07
608.91	48788.47
609.06	47838.21
609.22	48470.15
609.37	48062.90
609.53	48509.94
609.68	48369.51
609.84	48238.44
609.99	48161.20
610.15	48439.73
610.30	48364.83
610.46	48755.70
610.61	48055.88
610.76	48245.46
610.92	47924.81
611.07	47625.22
611.23	47983.32
611.38	48055.88
611.54	48266.53
611.69	48268.87
611.84	48271.21
612.00	48142.48
612.15	47772.67
612.31	48018.43
612.46	47636.92
612.62	47751.61
612.77	47903.74
612.92	48437.39
613.08	47831.19
613.23	47924.81
613.39	47880.34
613.54	47281.16
613.69	48112.05
613.85	47657.99
614.00	47543.30
614.15	48257.17
614.31	47819.49
614.46	47611.18
614.62	47473.09
614.77	48079.28
614.92	47295.21
615.08	47594.79
615.23	47931.83
615.38	48224.40
615.54	47679.05
615.69	47503.51
615.84	47679.05
616.00	47999.71
616.15	47297.55
616.30	47924.81
616.46	47559.69
616.61	47440.32
616.76	47372.44
616.92	47852.25
617.07	47777.36
617.22	47562.03
617.37	47168.82
617.53	47704.80
617.68	47150.09
617.83	47625.22
617.99	47723.52
618.14	47552.66
618.29	47487.13
618.45	47215.63
618.60	47185.20
618.75	46635.17
618.90	47414.57
619.06	47166.48
619.21	47370.10
619.36	47835.87
619.51	47196.90
619.67	46965.19
619.82	46632.83
619.97	47484.79
620.12	47299.89
620.28	47234.35
620.43	47044.77
620.58	46969.87
620.73	47180.52
620.89	47334.99
621.04	47213.29
621.19	46941.78
621.34	47189.88
621.49	46983.91
621.65	47004.98
621.80	47445.00
621.95	46766.24
622.10	46983.91
622.25	46539.21
622.41	46927.74
622.56	46892.63
622.71	46724.11
622.86	47035.41
623.01	47260.10
623.16	46775.61
623.32	46595.38
623.47	46794.33
623.62	46550.91
623.77	46745.18
623.92	47114.98
624.07	47023.70
624.23	46815.40
624.38	46777.95
624.53	46457.29
624.68	46354.31
624.83	46527.51
624.98	46483.04
625.13	46129.62
625.29	45979.82
625.44	46340.27
625.59	46548.57
625.74	46412.82
625.89	46136.64
626.04	46164.73
626.19	46066.42
626.34	46237.28
626.49	45652.15
626.65	45846.41
626.80	46213.88
626.95	45715.34
627.10	46026.63
627.25	46426.87
627.40	46141.32
627.55	46080.47
627.70	45483.63
627.85	46319.20
628.00	46087.49
628.15	46293.46
628.30	45284.68
628.45	45118.51
628.60	45525.76
628.76	45839.39
628.91	45741.09
629.06	45549.17
629.21	45429.80
629.36	46010.25
629.51	45677.90
629.66	45895.56
629.81	45907.27
629.96	45986.85
630.11	45605.34
630.26	45474.27
630.41	45848.75
630.56	45345.54
630.71	45481.29
630.86	45401.71
631.01	45441.50
631.16	45298.73
631.31	45460.23
631.46	45162.98
631.61	45413.41
631.76	45794.92
631.91	45691.94
632.06	45666.19
632.21	45291.71
632.36	45705.98
632.51	45146.59
632.66	45635.77
632.81	45062.33
632.96	45492.99
633.10	44980.42
633.25	45043.61
633.40	45607.68
633.55	45598.32
633.70	44978.07
633.85	44746.36
634.00	44947.65
634.15	45022.54
634.30	44893.82
634.45	45177.02
634.60	44704.23
634.75	45118.51
634.90	44875.09
635.05	44832.96
635.19	44891.48
635.34	44673.81
635.49	45003.82
635.64	44971.05
635.79	44966.37
635.94	44760.40
636.09	44659.76
636.24	44683.17
636.39	44828.28
636.53	44940.63
636.68	44140.16
636.83	44425.71
636.98	44538.05
637.13	44559.12
637.28	44392.94
637.43	44392.94
637.57	44479.54
637.72	44130.80
637.87	44641.04
638.02	44224.42
638.17	44596.57
638.32	44949.99
638.46	43873.34
638.61	43927.17
638.76	44053.56
638.91	44252.51
639.06	44158.89
639.20	44240.81
639.35	43845.26
639.50	44079.31
639.65	44421.03
639.80	44109.74
639.94	44119.10
640.09	44170.59
640.24	44500.61
640.39	43821.85
640.54	43723.55
640.68	43856.96
640.83	43716.53
640.98	43814.83
641.13	43615.88
641.27	43817.17
641.42	43936.54
641.57	43557.37
641.72	44198.68
641.86	43559.71
642.01	43540.99
642.16	43700.14
642.31	43206.29
642.45	43636.95
642.60	43185.22
642.75	43433.32
642.90	43489.49
643.04	43739.93
643.19	43292.89
643.34	43800.79
643.48	42962.87
643.63	43419.28
643.78	43302.25
643.93	43372.47
644.07	43526.94
644.22	43377.15
644.37	43232.04
644.51	43639.29
644.66	43578.43
644.81	43187.56
644.95	43484.81
645.10	43178.20
645.25	43075.22
645.39	43072.88
645.54	43332.68
645.69	43035.43
645.83	42756.91
645.98	42880.95
646.13	43026.07
646.27	43320.98
646.42	43112.67
646.57	42593.07
646.71	43040.11
646.86	43030.75
647.00	43061.18
647.15	43021.39
647.30	43393.53
647.44	42958.19
647.59	42628.18
647.74	42677.33
647.88	42763.93
648.03	42569.66
648.17	43400.55
648.32	43061.18
648.47	42902.02
648.61	42464.34
648.76	42511.15
648.90	42536.90
649.05	42752.23
649.20	42548.60
649.34	42717.12
649.49	42588.39
649.63	42574.34
649.78	42663.28
649.92	42642.22
650.07	43014.37
650.21	42429.23
650.36	42651.58
650.51	42630.52
650.65	42462.00
650.80	42806.06
650.94	42312.20
651.09	42249.01
651.23	42134.32
651.38	41886.23
651.52	41876.86
651.67	42096.88
651.81	41986.87
651.96	42190.50
652.10	41649.83
652.25	42057.09
652.39	41820.69
652.54	41600.68
652.68	41965.81
652.83	41914.31
652.97	42150.71
653.12	42005.59
653.26	41361.95
653.41	41717.71
653.55	42040.70
653.70	41823.03
653.84	42419.87
653.99	42663.28
654.13	41401.74
654.27	41596.00
654.42	41851.12
654.56	41579.62
654.71	41563.23
654.85	41752.82
655.00	41890.91
655.14	42080.49
655.29	41897.93
655.43	41989.21
655.57	41698.98
655.72	41303.43
655.86	41488.34
656.01	41001.50
656.15	40762.77
656.30	41179.39
656.44	41258.96
656.58	41226.20
656.73	41518.76
656.87	41228.54
657.01	41134.92
657.16	41296.41
657.30	41345.56
657.45	40952.35
657.59	41045.97
657.73	40786.18
657.88	41284.71
658.02	41343.22
658.16	41364.29
658.31	40912.56
658.45	41099.81
658.60	40306.37
658.74	40968.74
658.88	41095.13
659.03	40615.32
659.17	40280.62
659.31	40247.85
659.46	39920.18
659.60	40573.19
659.74	40215.08
659.89	40474.88
660.03	40023.16
660.17	40121.46
660.32	40376.58
660.46	39971.67
660.60	39522.29
660.74	40009.12
660.89	40498.29
661.03	39634.63
661.17	40004.44
661.32	39459.09
661.46	39622.93
661.60	39716.55
661.74	39927.20
661.89	39746.98
662.03	39749.32
662.17	39346.75
662.31	39201.63
662.46	39775.06
662.60	39592.50
662.74	38836.51
662.88	39438.03
663.03	39075.24
663.17	39311.64
663.31	38778.00
663.45	39126.74
663.60	39267.17
663.74	39393.56
663.88	38728.84
664.02	38948.85
664.17	39363.13
664.31	38967.58
664.45	38998.01
664.59	38960.56
664.73	38607.14
664.88	39037.80
665.02	38319.25
665.16	38541.60
665.30	38660.97
665.44	38227.97
665.59	38293.50
665.73	37926.04
665.87	38220.95
666.01	38132.01
666.15	38003.28
666.29	38005.62
666.44	38398.83
666.58	38249.03
666.72	38267.76
666.86	37883.91
667.00	37851.14
667.14	37851.14
667.28	37790.29
667.43	37528.15
667.57	38387.13
667.71	37893.27
667.85	37619.43
667.99	37724.75
668.13	37179.41
668.27	37340.91
668.41	37294.10
668.56	37118.56
668.70	37062.38
668.84	36732.37
668.98	36484.27
669.12	37221.54
669.26	36905.57
669.40	36795.56
669.54	36397.67
669.68	36737.05
669.82	36645.77
669.96	36467.89
670.10	36322.77
670.25	36360.22
670.39	36070.00
670.53	37053.02
670.67	36591.94
670.81	36449.16
670.95	36280.64
671.09	36135.53
671.23	36238.51
671.37	35964.67
671.51	36004.46
671.65	35651.04
671.79	35484.86
671.93	35629.98
672.07	36198.73
672.21	35400.60
672.35	35215.70
672.49	35924.88
672.63	35592.53
672.77	35363.15
672.91	35271.87
673.05	35243.79
673.19	35091.65
673.33	34778.02
673.47	34721.85
673.61	34546.31
673.75	34398.85
673.89	34864.62
674.03	34480.77
674.17	34490.13
674.31	34012.66
674.45	34342.68
674.59	33876.91
674.73	33846.49
674.87	33844.15
675.01	33979.90
675.15	33249.65
675.29	33277.74
675.43	33895.64
675.56	33762.23
675.70	33516.47
675.84	32919.63
675.98	32432.80
676.12	33654.56
676.26	33553.92
676.40	33001.55
676.54	32680.90
676.68	32943.04
676.82	32362.59
676.96	33043.68
677.10	32870.48
677.23	32795.59
677.37	32563.87
677.51	32617.71
677.65	32547.49
677.79	32470.25
677.93	32339.18
678.07	31873.42
678.21	31999.80
678.34	31878.10
678.48	31358.50
678.62	31571.49
678.76	31089.34
678.90	31365.52
679.04	31508.29
679.18	31344.45
679.31	31295.30
679.45	31035.50
679.59	31126.78
679.73	30918.48
679.87	30675.06
680.00	30768.68
680.14	30335.68
680.28	31009.76
680.42	30398.88
680.56	30555.69
680.70	30305.26
680.83	30375.47
680.97	29874.60
681.11	29682.67
681.25	29806.72
681.39	29670.97
681.52	29626.50
681.66	29411.17
681.80	28837.74
681.94	28842.42
682.07	29104.56
682.21	29195.84
682.35	28762.84
682.49	28746.46
682.62	29017.96
682.76	28744.12
682.90	28868.17
683.04	28573.26
683.17	28304.10
683.31	28222.18
683.45	28151.96
683.59	27826.63
683.72	27697.90
683.86	27835.99
684.00	27985.79
684.13	27875.78
684.27	27487.25
684.41	27615.98
684.55	27597.26
684.68	27475.55
684.82	26902.12
684.96	26995.74
685.09	27496.61
685.23	27356.18
685.37	27161.92
685.50	27473.21
685.64	26836.58
685.78	26515.93
685.91	26305.28
686.05	26518.27
686.19	26012.71
686.32	26038.46
686.46	25596.10
686.60	25563.33
686.73	25993.99
686.87	25553.97
687.01	25802.07
687.14	25343.32
687.28	25516.52
687.42	25678.02
687.55	25397.15
687.69	25125.65
687.82	25340.98
687.96	24793.29
688.10	25123.31
688.23	24879.89
688.37	24992.24
688.50	24950.11
688.64	24697.33
688.78	24622.44
688.91	24531.15
689.05	24795.64
689.18	24114.54
689.32	23721.33
689.46	23484.94
689.59	23803.25
689.73	23906.23
689.86	24081.77
690.00	23592.60
690.13	23798.57
690.27	23117.47
690.41	23344.50
690.54	23110.45
690.68	23171.30
690.81	23073.00
690.95	22874.06
691.08	22932.57
691.22	22560.42
691.35	22841.29
691.49	22998.10
691.62	22677.45
691.76	22546.38
691.89	22324.03
692.03	21736.56
692.16	21989.33
692.30	21839.54
692.43	22029.12
692.57	21837.20
692.70	21774.00
692.84	21668.68
692.97	21551.65
693.11	21591.44
693.24	21057.80
693.38	21029.71
693.51	21287.17
693.65	21036.74
693.78	20886.94
693.92	20945.45
694.05	20933.75
694.19	20837.79
694.32	20648.21
694.45	20697.36
694.59	20765.23
694.72	20580.33
694.86	20484.37
694.99	20070.09
695.13	20313.51
695.26	19941.36
695.39	19920.30
695.53	19903.92
695.66	20025.62
695.80	19686.25
695.93	19805.61
696.07	19489.64
696.20	19288.35
696.33	18984.09
696.47	19101.11
696.60	19119.84
696.73	19381.98
696.87	18904.51
697.00	19248.57
697.14	19021.53
697.27	18773.44
697.40	18656.41
697.54	18401.29
697.67	18773.44
697.80	19056.64
697.94	18195.32
698.07	18207.03
698.21	18157.88
698.34	17858.29
698.47	17916.80
698.61	17736.58
698.74	17591.47
698.87	17584.44
699.01	17462.74
699.14	17724.88
699.27	17516.57
699.40	17612.53
699.54	17163.15
699.67	17366.78
699.80	17446.35
699.94	17160.81
700.07	17205.28
700.20	16994.63
700.34	16861.22
700.47	16975.91
700.60	17137.40
700.73	16982.93
700.87	16589.72
701.00	16376.73
701.13	16264.38
701.26	16339.28
701.40	16259.70
701.53	16135.65
701.66	16030.33
701.79	16065.44
701.93	15779.89
702.06	15885.22
702.19	15332.85
702.32	15653.50
702.46	15880.53
702.59	15754.15
702.72	15555.20
702.85	15616.05
702.99	15391.36
703.12	15140.93
703.25	14834.32
703.38	15096.46
703.51	14871.76
703.65	15005.17
703.78	14508.98
703.91	14651.75
704.04	14551.11
704.17	14530.05
704.31	14719.63
704.44	14567.49
704.57	14370.89
704.70	14295.99
704.83	14265.57
704.96	14094.71
705.10	13841.93
705.23	13987.04
>>>>>End Processed Spectral Data<<<<<
