SpectraSuite Data File
++++++++++++++++++++++++++++++++++++
Date: Fri Oct 25 11:34:08 EDT 2013
User: price-jones
Dark Spectrum Present: No
Reference Spectrum Present: No
Number of Sampled Component Spectra: 1
Spectrometers: USB2+H05261
Integration Time (usec): 100000 (USB2+H05261)
Spectra Averaged: 1 (USB2+H05261)
Boxcar Smoothing: 0 (USB2+H05261)
Correct for Electrical Dark: No (USB2+H05261)
Strobe/Lamp Enabled: No (USB2+H05261)
Correct for Detector Non-linearity: No (USB2+H05261)
Correct for Stray Light: No (USB2+H05261)
Number of Pixels in Processed Spectrum: 2048
>>>>>Begin Processed Spectral Data<<<<<
365.73	276.18
365.92	276.18
366.12	276.18
366.32	212.99
366.52	212.99
366.72	196.60
366.91	128.73
367.11	166.18
367.31	145.11
367.51	212.99
367.70	88.94
367.90	166.18
368.10	189.58
368.30	173.20
368.49	201.29
368.69	212.99
368.89	224.69
369.09	154.48
369.28	112.35
369.48	163.84
369.68	217.67
369.87	255.12
370.07	255.12
370.27	220.01
370.47	304.27
370.66	475.13
370.86	521.94
371.06	552.37
371.25	550.03
371.45	472.79
371.65	550.03
371.84	545.34
372.04	547.69
372.24	524.28
372.44	601.52
372.63	636.63
372.83	528.96
373.03	608.54
373.22	543.00
373.42	587.47
373.62	564.07
373.81	552.37
374.01	627.26
374.21	601.52
374.40	599.18
374.60	674.07
374.79	660.03
374.99	634.29
375.19	561.73
375.38	692.80
375.58	664.71
375.78	664.71
375.97	589.82
376.17	692.80
376.37	653.01
376.56	671.73
376.76	706.84
376.95	739.61
377.15	638.97
377.35	692.80
377.54	774.72
377.74	662.37
377.93	655.35
378.13	650.67
378.33	624.92
378.52	601.52
378.72	645.99
378.91	669.39
379.11	723.23
379.31	678.76
379.50	664.71
379.70	681.10
379.89	678.76
380.09	671.73
380.28	655.35
380.48	653.01
380.68	688.12
380.87	634.29
381.07	737.27
381.26	716.20
381.46	746.63
381.65	812.17
381.85	681.10
382.04	716.20
382.24	828.55
382.43	727.91
382.63	805.14
382.83	814.51
383.02	760.67
383.22	772.38
383.41	760.67
383.61	730.25
383.80	828.55
384.00	704.50
384.19	788.76
384.39	786.42
384.58	791.10
384.78	847.27
384.97	807.48
385.17	791.10
385.36	835.57
385.56	774.72
385.75	809.83
385.95	849.61
386.14	833.23
386.34	833.23
386.53	814.51
386.72	807.48
386.92	994.73
387.11	807.48
387.31	919.83
387.50	821.53
387.70	898.77
387.89	898.77
388.09	873.02
388.28	889.40
388.48	950.26
388.67	976.00
388.86	964.30
389.06	992.39
389.25	835.57
389.45	870.68
389.64	957.28
389.84	968.98
390.03	898.77
390.22	922.17
390.42	931.53
390.61	966.64
390.81	947.92
391.00	954.94
391.19	1029.84
391.39	997.07
391.58	957.28
391.78	1050.90
391.97	1006.43
392.16	985.37
392.36	1050.90
392.55	1102.39
392.75	976.00
392.94	1062.60
393.13	1118.78
393.33	1062.60
393.52	1144.52
393.71	1114.10
393.91	1055.58
394.10	1128.14
394.29	1114.10
394.49	1172.61
394.68	1179.63
394.88	1181.97
395.07	1041.54
395.26	1093.03
395.46	1062.60
395.65	1142.18
395.84	1130.48
396.04	1156.22
396.23	1102.39
396.42	1214.74
396.62	1100.05
396.81	1196.01
397.00	1221.76
397.19	1277.93
397.39	1224.10
397.58	1254.53
397.77	1233.46
397.97	1306.02
398.16	1149.20
398.35	1219.42
398.55	1181.97
398.74	1207.72
398.93	1261.55
399.12	1266.23
399.32	1282.61
399.51	1266.23
399.70	1341.13
399.90	1275.59
400.09	1350.49
400.28	1432.41
400.47	1320.06
400.67	1404.32
400.86	1359.85
401.05	1357.51
401.24	1390.28
401.44	1465.18
401.63	1455.81
401.82	1430.07
402.01	1331.76
402.21	1476.88
402.40	1565.82
402.59	1420.71
402.78	1401.98
402.97	1409.00
403.17	1451.13
403.36	1540.07
403.55	1558.80
403.74	1540.07
403.93	1582.20
404.13	1610.29
404.32	1586.88
404.51	1586.88
404.70	1617.31
404.89	1568.16
405.09	1650.08
405.28	1708.59
405.47	1650.08
405.66	1694.55
405.85	1701.57
406.05	1582.20
406.24	1621.99
406.43	1633.69
406.62	1673.48
406.81	1888.81
407.00	1811.57
407.20	1732.00
407.39	1792.85
407.58	1834.98
407.77	1849.02
407.96	1769.44
408.15	1900.52
408.34	1813.92
408.54	1842.00
408.73	1909.88
408.92	1837.32
409.11	1944.99
409.30	1872.43
409.49	1921.58
409.68	1923.92
409.87	1996.48
410.07	1987.11
410.26	1991.80
410.45	1902.86
410.64	2054.99
410.83	2054.99
411.02	2134.57
411.21	2202.44
411.40	2209.47
411.59	2052.65
411.78	2160.31
411.98	2225.85
412.17	2200.10
412.36	2188.40
412.55	2275.00
412.74	2263.30
412.93	2258.62
413.12	2244.57
413.31	2347.56
413.50	2312.45
413.69	2282.02
413.88	2452.88
414.07	2415.43
414.26	2476.29
414.45	2483.31
414.64	2387.35
414.83	2471.61
415.02	2651.83
415.22	2593.31
415.41	2668.21
415.60	2644.81
415.79	2649.49
415.98	2647.15
416.17	2712.68
416.36	2679.91
416.55	2668.21
416.74	2708.00
416.93	2616.72
417.12	2806.30
417.31	2813.32
417.50	2860.13
417.69	2820.35
417.88	2820.35
418.07	2780.56
418.26	2874.18
418.45	2834.39
418.64	3042.70
418.83	2972.48
419.02	2902.26
419.21	3028.65
419.39	3112.91
419.58	3124.62
419.77	2888.22
419.96	3026.31
420.15	3171.43
420.34	3042.70
420.53	3077.80
420.72	3201.85
420.91	3243.98
421.10	3176.11
421.29	3187.81
421.48	3346.97
421.67	3239.30
421.86	3236.96
422.05	3246.32
422.24	3243.98
422.43	3267.39
422.61	3258.03
422.80	3410.16
422.99	3218.24
423.18	3353.99
423.37	3386.76
423.56	3337.60
423.75	3419.52
423.94	3255.69
424.13	3082.49
424.32	3185.47
424.50	3342.28
424.69	3414.84
424.88	3393.78
425.07	3386.76
425.26	3358.67
425.45	3321.22
425.64	3414.84
425.83	3344.63
426.01	3447.61
426.20	3368.03
426.39	3534.21
426.58	3386.76
426.77	3435.91
426.96	3461.65
427.15	3447.61
427.33	3449.95
427.52	3541.23
427.71	3588.04
427.90	3524.85
428.09	3566.98
428.28	3639.53
428.46	3562.30
428.65	3473.36
428.84	3805.71
429.03	3761.24
429.22	3613.79
429.40	3819.75
429.59	3702.73
429.78	3538.89
429.97	3543.57
430.16	3756.56
430.34	3740.18
430.53	3691.02
430.72	3885.29
430.91	3829.12
431.10	3740.18
431.28	3850.18
431.47	3803.37
431.66	3836.14
431.85	3698.05
432.03	3901.67
432.22	3962.53
432.41	3976.57
432.60	4039.76
432.79	3812.73
432.97	4032.74
433.16	4037.42
433.35	4042.11
433.54	4152.11
433.72	4124.02
433.91	4269.14
434.10	4014.02
434.28	3999.98
434.47	4121.68
434.66	4241.05
434.85	4238.71
435.03	4248.07
435.22	4292.54
435.41	4397.87
435.59	4231.69
435.78	4285.52
435.97	4276.16
436.16	4287.86
436.34	4360.42
436.53	4465.74
436.72	4486.81
436.90	4351.06
437.09	4362.76
437.28	4365.10
437.46	4423.61
437.65	4423.61
437.84	4503.19
438.02	4547.66
438.21	4638.94
438.40	4517.23
438.58	4662.35
438.77	4716.18
438.96	4627.24
439.14	4823.84
439.33	4863.63
439.52	4788.74
439.70	4805.12
439.89	4842.57
440.08	4727.88
440.26	4971.30
440.45	4933.85
440.63	5029.81
440.82	5167.90
441.01	5050.88
441.19	5107.05
441.38	5156.20
441.57	5020.45
441.75	5121.09
441.94	5357.49
442.12	5320.04
442.31	5366.85
442.50	5320.04
442.68	5270.89
442.87	5343.44
443.05	5420.68
443.24	5437.06
443.43	5465.15
443.61	5334.08
443.80	5619.63
443.98	5357.49
444.17	5277.91
444.35	5554.09
444.54	5528.35
444.73	5516.64
444.91	5408.98
445.10	5652.39
445.28	5444.09
445.47	5397.28
445.65	5488.56
445.84	5577.50
446.02	5584.52
446.21	5497.92
446.39	5607.92
446.58	5668.78
446.77	5614.95
446.95	5582.18
447.14	5584.52
447.32	5755.38
447.51	5528.35
447.69	5502.60
447.88	5521.32
448.06	5518.98
448.25	5631.33
448.43	5654.73
448.62	5530.69
448.80	5753.04
448.99	5753.04
449.17	5741.33
449.36	5687.50
449.54	5844.32
449.73	5944.96
449.91	6005.81
450.10	5977.73
450.28	6024.54
450.46	6022.20
450.65	5951.98
450.83	6012.84
451.02	5921.56
451.20	6174.33
451.39	5947.30
451.57	6136.88
451.76	6120.50
451.94	6090.07
452.13	6033.90
452.31	6146.25
452.49	6115.82
452.68	6190.72
452.86	5991.77
453.05	6282.00
453.23	6209.44
453.42	6125.18
453.60	6188.38
453.78	6347.53
453.97	6129.86
454.15	6296.04
454.34	6225.82
454.52	6359.24
454.70	6310.08
454.89	6356.90
455.07	6445.84
455.26	6384.98
455.44	6644.78
455.62	6408.39
455.81	6539.46
455.99	6553.50
456.17	6647.12
456.36	6682.23
456.54	6719.68
456.73	6738.40
456.91	6853.09
457.09	6923.30
457.28	7007.56
457.46	6707.98
457.64	6916.28
457.83	7145.66
458.01	6825.00
458.19	7023.95
458.38	6913.94
458.56	7096.50
458.74	7082.46
458.93	7145.66
459.11	6979.48
459.29	7187.79
459.48	7089.48
459.66	7225.23
459.84	7201.83
460.03	7045.01
460.21	7391.41
460.39	7222.89
460.57	7250.98
460.76	7279.07
460.94	7328.22
461.12	7405.46
461.31	7272.04
461.49	7281.41
461.67	7358.64
461.85	7442.90
462.04	7403.11
462.22	7936.76
462.40	7613.76
462.59	7534.18
462.77	7517.80
462.95	7637.17
463.13	7573.97
463.32	7428.86
463.50	7927.39
463.68	7829.09
463.86	7726.11
464.05	7726.11
464.23	7552.91
464.41	7770.58
464.59	7578.65
464.78	8037.40
464.96	7857.18
465.14	7566.95
465.32	7840.79
465.50	8046.76
465.69	7985.91
465.87	8028.04
466.05	7906.33
466.23	8042.08
466.41	7896.97
466.60	8166.13
466.78	8058.46
466.96	7950.80
467.14	8098.25
467.32	8051.44
467.51	8250.39
467.69	8042.08
467.87	8065.49
468.05	8215.28
468.23	8140.38
468.41	8065.49
468.60	8266.77
468.78	8252.73
468.96	8273.79
469.14	8304.22
469.32	8432.95
469.50	8390.82
469.69	8617.85
469.87	8538.27
470.05	8526.57
470.23	8549.98
470.41	8643.60
470.59	8664.66
470.77	8636.58
470.95	8795.73
471.14	8779.35
471.32	8662.32
471.50	8589.77
471.68	8674.03
471.86	8901.06
472.04	8844.88
472.22	9015.74
472.40	8879.99
472.58	8854.25
472.77	9036.81
472.95	9139.79
473.13	9521.30
473.31	9191.28
473.49	9198.31
473.67	9231.07
473.85	9399.59
474.03	9582.15
474.21	9533.00
474.39	9586.83
474.57	9701.52
474.75	9713.22
474.93	9769.40
475.12	9760.03
475.30	9694.50
475.48	9738.97
475.66	9820.89
475.84	9839.61
476.02	9928.55
476.20	9804.50
476.38	10050.26
476.56	10277.29
476.74	10328.78
476.92	10186.01
477.10	10200.05
477.28	10452.83
477.46	10539.43
477.64	10373.25
477.82	10693.91
478.00	10984.13
478.18	10920.94
478.36	10836.68
478.54	10991.16
478.72	10939.66
478.90	11199.46
479.08	11154.99
479.26	11428.84
479.44	11360.96
479.62	11634.80
479.80	11616.08
479.98	11693.32
480.16	11939.07
480.34	11824.39
480.52	12049.08
480.70	11817.36
480.88	11922.69
481.06	11934.39
481.24	12411.86
481.41	12222.28
481.59	12238.66
481.77	12500.80
481.95	12561.66
482.13	12863.58
482.31	12695.07
482.49	13160.83
482.67	12961.89
482.85	13378.50
483.03	13090.62
483.21	13432.33
483.39	13076.57
483.57	13586.81
483.74	13502.55
483.92	13666.39
484.10	13633.62
484.28	13886.40
484.46	14073.64
484.64	14361.53
484.82	14108.75
485.00	14455.15
485.18	14658.78
485.35	14626.01
485.53	14520.68
485.71	14719.63
485.89	15014.54
486.07	14991.13
486.25	14895.17
486.43	15403.07
486.61	15428.81
486.78	15342.21
486.96	15779.89
487.14	15688.61
487.32	16023.31
487.50	15934.37
487.68	16018.63
487.85	16173.10
488.03	16346.30
488.21	16622.48
488.39	16533.54
488.57	16634.19
488.75	16720.79
488.92	17053.14
489.10	17130.38
489.28	17247.41
489.46	17411.25
489.64	17617.21
489.81	17767.01
489.99	17846.58
490.17	18036.17
490.35	18033.83
490.53	18052.55
490.70	18204.69
490.88	18230.43
491.06	18377.89
491.24	18757.05
491.41	18735.99
491.59	18766.42
491.77	18618.96
491.95	18845.99
492.13	19297.72
492.30	19293.04
492.48	19213.46
492.66	19257.93
492.84	19047.28
493.01	19697.95
493.19	19559.86
493.37	20004.56
493.54	19751.78
493.72	19971.79
493.90	20123.93
494.08	20622.46
494.25	20350.96
494.43	20449.26
494.61	20673.95
494.79	20783.96
494.96	20802.68
495.14	21043.76
495.32	20957.16
495.49	21364.41
495.67	21249.72
495.85	21233.34
496.02	21764.64
496.20	21619.53
496.38	21493.14
496.55	21699.11
496.73	22431.69
496.91	22298.28
497.09	22176.58
497.26	22300.62
497.44	22370.84
497.62	22401.27
497.79	23033.21
497.97	22670.43
498.14	23040.23
498.32	23133.86
498.50	22616.60
498.67	23138.54
498.85	23009.81
499.03	23456.85
499.20	23487.28
499.38	23810.27
499.56	23456.85
499.73	23782.18
499.91	24051.34
500.08	24020.92
500.26	24292.42
500.44	24322.85
500.61	24266.67
500.79	23990.49
500.97	24463.28
501.14	24671.59
501.32	24748.82
501.49	24570.94
501.67	24797.98
501.84	25003.94
502.02	25249.70
502.20	24973.52
502.37	24868.19
502.55	25240.34
502.72	25411.20
502.90	25408.86
503.07	25270.76
503.25	25560.99
503.43	25434.60
503.60	25909.73
503.78	26075.91
503.95	25671.00
504.13	26214.00
504.30	25954.20
504.48	25750.57
504.65	26143.78
504.83	26106.34
505.01	26422.31
505.18	26429.33
505.36	26382.52
505.53	26822.54
505.71	26593.17
505.88	26639.98
506.06	26871.69
506.23	26670.40
506.41	26728.92
506.58	27044.89
506.76	26628.27
506.93	27110.43
507.11	27302.35
507.28	27714.28
507.46	27332.78
507.63	27611.30
507.81	27913.23
507.98	27765.78
508.16	27756.41
508.33	27967.06
508.50	28187.07
508.68	27700.24
508.85	28481.98
509.03	27805.56
509.20	28266.65
509.38	28723.05
509.55	28610.71
509.73	28816.68
509.90	28531.13
510.08	28828.38
510.25	29104.56
510.42	28926.68
510.60	29097.54
510.77	29097.54
510.95	29404.15
511.12	29125.63
511.30	29032.00
511.47	29593.73
511.64	29053.07
511.82	29563.31
511.99	29355.00
512.17	29675.65
512.34	29762.25
512.51	29460.32
512.69	30377.81
512.86	29736.51
513.04	30099.29
513.21	30108.65
513.38	30284.19
513.56	30295.89
513.73	30349.73
513.90	30452.71
514.08	30221.00
514.25	30410.58
514.43	30665.70
514.60	30689.10
514.77	30675.06
514.95	31374.88
515.12	30604.84
515.29	31044.87
515.47	31278.92
515.64	31335.09
515.81	31391.26
515.99	31393.61
516.16	31501.27
516.33	31302.32
516.51	31449.78
516.68	31489.57
516.85	31662.77
517.03	31503.61
517.20	31840.65
517.37	31297.64
517.54	32175.34
517.72	31789.16
517.89	32048.96
518.06	31999.80
518.24	31899.16
518.41	32301.73
518.58	32084.06
518.75	32369.61
518.93	32318.12
519.10	32458.55
519.27	32657.49
519.45	32835.38
519.62	32856.44
519.79	33242.63
519.96	32844.74
520.14	33029.64
520.31	32882.19
520.48	33474.34
520.65	33296.46
520.83	33507.11
521.00	33539.88
521.17	33472.00
521.34	33680.31
521.52	33474.34
521.69	33324.55
521.86	34197.57
522.03	34176.50
522.20	34045.43
522.38	33832.44
522.55	34106.29
522.72	33860.53
522.89	34305.23
523.07	34396.51
523.24	34249.06
523.41	34637.59
523.58	34162.46
523.75	34501.84
523.92	34567.37
524.10	34539.29
524.27	34632.91
524.44	35119.74
524.61	35019.10
524.78	35108.04
524.96	35133.78
525.13	35431.03
525.30	34848.24
525.47	35480.18
525.64	35131.44
525.81	35372.52
525.98	35498.91
526.16	35278.89
526.33	35028.46
526.50	36034.89
526.67	35321.02
526.84	35660.40
527.01	35585.50
527.18	35629.98
527.36	35587.85
527.53	35871.05
527.70	36247.88
527.87	35976.37
528.04	35784.45
528.21	36151.91
528.38	36180.00
528.55	36222.13
528.72	36002.12
528.89	36215.11
529.07	36601.30
529.24	35793.81
529.41	36343.84
529.58	36594.28
529.75	36643.43
529.92	36495.97
530.09	36788.54
530.26	36708.96
530.43	36692.58
530.60	36388.31
530.77	36978.12
530.94	36620.02
531.11	36872.80
531.28	36982.80
531.46	37354.95
531.63	36676.19
531.80	37294.10
531.97	37148.98
532.14	37642.84
532.31	37612.41
532.48	37610.07
532.65	37801.99
532.82	37212.18
532.99	37640.50
533.16	37387.72
533.33	37975.19
533.50	37771.57
533.67	37776.25
533.84	37589.00
534.01	37954.13
534.18	37626.45
534.35	38242.01
534.52	38129.67
534.69	38611.82
534.86	38389.47
535.03	38185.84
535.20	37912.00
535.37	38005.62
535.54	38382.45
535.71	38548.62
535.88	38251.38
536.05	38462.02
536.22	38398.83
536.38	38742.89
536.55	38845.87
536.72	38806.08
536.89	38733.53
537.06	39318.66
537.23	38941.83
537.40	38838.85
537.57	38555.64
537.74	39351.43
537.91	39115.03
538.08	39035.45
538.25	38895.02
538.42	39501.22
538.59	39440.37
538.75	39548.03
538.92	39370.15
539.09	39407.60
539.26	39140.78
539.43	39578.46
539.60	39711.87
539.77	39559.73
539.94	39887.41
540.11	39899.11
540.28	40055.93
540.44	39529.31
540.61	39613.57
540.78	39585.48
540.95	40119.12
541.12	39697.83
541.29	40194.02
541.46	40013.80
541.62	39917.84
541.79	40732.34
541.96	39878.05
542.13	40046.57
542.30	40414.03
542.47	40215.08
542.63	40140.19
542.80	40463.18
542.97	40612.98
543.14	40774.47
543.31	40732.34
543.48	40481.91
543.64	41310.46
543.81	40706.60
543.98	40683.19
544.15	40793.20
544.32	40999.16
544.48	41345.56
544.65	41219.17
544.82	41378.33
544.99	41158.32
545.16	41509.40
545.32	41607.70
545.49	41490.68
545.66	41638.13
545.83	41329.18
546.00	41628.77
546.16	41827.71
546.33	41411.10
546.50	41610.04
546.67	41757.50
546.83	40996.82
547.00	41521.10
547.17	41764.52
547.34	41481.31
547.50	42117.94
547.67	42197.52
547.84	42153.05
548.00	42029.00
548.17	42703.07
548.34	42314.55
548.51	41975.17
548.67	42190.50
548.84	42162.41
549.01	42211.56
549.18	42394.12
549.34	42347.31
549.51	42511.15
549.68	42403.49
549.84	42656.26
550.01	42487.74
550.18	41928.36
550.34	42850.53
550.51	42485.40
550.68	43028.41
550.84	42127.30
551.01	42887.98
551.18	42761.59
551.34	42658.60
551.51	43075.22
551.68	42630.52
551.84	42979.26
552.01	42698.39
552.18	42951.17
552.34	43033.09
552.51	42911.38
552.68	42611.79
552.84	42506.47
553.01	43311.61
553.18	43250.76
553.34	43569.07
553.51	43189.91
553.67	43283.53
553.84	43510.56
554.01	43438.00
554.17	43012.02
554.34	43503.54
554.51	43391.19
554.67	43538.65
554.84	43498.86
555.00	43381.83
555.17	42951.17
555.33	43585.46
555.50	43243.74
555.67	43871.00
555.83	43590.14
556.00	43559.71
556.16	44039.52
556.33	43629.93
556.50	43992.71
556.66	43969.30
556.83	43693.12
556.99	44219.74
557.16	44062.93
557.32	44186.97
557.49	44189.31
557.65	43845.26
557.82	44030.16
557.98	44048.88
558.15	43501.20
558.32	44226.76
558.48	44226.76
558.65	43793.76
558.81	44224.42
558.98	44020.80
559.14	44474.86
559.31	44311.02
559.47	44219.74
559.64	44404.64
559.80	44275.91
559.97	44360.17
560.13	43723.55
560.30	44414.01
560.46	44673.81
560.63	44706.57
560.79	44884.45
560.96	45064.67
561.12	45095.10
561.29	44797.85
561.45	44816.58
561.61	44760.40
561.78	44671.46
561.94	44711.25
562.11	44451.45
562.27	44748.70
562.44	44605.93
562.60	45038.93
562.77	44659.76
562.93	44638.70
563.10	44839.98
563.26	45017.86
563.42	45298.73
563.59	45111.49
563.75	44715.93
563.92	44900.84
564.08	44844.66
564.24	45483.63
564.41	44935.95
564.57	45177.02
564.74	44713.59
564.90	44697.21
565.07	44999.14
565.23	45050.63
565.39	45069.36
565.56	45102.12
565.72	44940.63
565.88	45010.84
566.05	44924.24
566.21	45090.42
566.38	45270.64
566.54	45099.78
566.70	45432.14
566.87	45148.93
567.03	45483.63
567.19	45209.79
567.36	45333.84
567.52	45317.45
567.68	45333.84
567.85	45535.12
568.01	45551.51
568.17	45366.60
568.34	45530.44
568.50	45787.90
568.66	45284.68
568.83	45017.86
568.99	45471.93
569.15	45560.87
569.32	45640.45
569.48	45373.63
569.64	46003.23
569.81	45900.25
569.97	45670.87
570.13	45542.14
570.30	45275.32
570.46	45577.25
570.62	45652.15
570.78	45797.26
570.95	45808.96
571.11	45504.70
571.27	45474.27
571.43	45502.35
571.60	45457.88
571.76	45787.90
571.92	45612.36
572.09	45418.10
572.25	45778.54
572.41	45612.36
572.57	45701.30
572.74	45993.87
572.90	45638.11
573.06	45982.16
573.22	46174.09
573.38	46256.01
573.55	45965.78
573.71	46471.34
573.87	45956.42
574.03	45537.46
574.20	45673.21
574.36	46099.19
574.52	45986.85
574.68	45984.51
574.84	46143.66
575.01	46344.95
575.17	46380.06
575.33	46026.63
575.49	45918.97
575.65	45897.91
575.82	45755.13
575.98	45750.45
576.14	45963.44
576.30	46181.11
576.46	45862.80
576.62	45757.47
576.79	45619.38
576.95	45542.14
577.11	46110.89
577.27	45755.13
577.43	45724.71
577.59	45542.14
577.75	45947.06
577.92	45911.95
578.08	45893.22
578.24	46361.33
578.40	46408.14
578.56	45965.78
578.72	46153.02
578.88	46071.10
579.04	46089.83
579.21	46253.67
579.37	46522.83
579.53	46550.91
579.69	46260.69
579.85	45879.18
580.01	46267.71
580.17	45380.65
580.33	46010.25
580.49	46014.93
580.65	46169.41
580.82	46082.81
580.98	45897.91
581.14	45991.53
581.30	45853.44
581.46	45937.69
581.62	45874.50
581.78	46171.75
581.94	46094.51
582.10	45673.21
582.26	46539.21
582.42	45958.76
582.58	46319.20
582.74	46380.06
582.90	46263.03
583.06	46366.01
583.22	46218.56
583.38	46302.82
583.54	46117.92
583.70	46192.81
583.86	46361.33
584.02	46059.40
584.18	46457.29
584.34	46469.00
584.50	46412.82
584.66	46651.56
584.82	46471.34
584.98	47004.98
585.14	46387.08
585.30	46291.12
585.46	46190.47
585.62	46017.27
585.78	46333.24
585.94	45631.08
586.10	46206.86
586.26	45844.07
586.42	46099.19
586.58	46401.12
586.74	46153.02
586.90	46305.16
587.06	46054.72
587.22	46005.57
587.38	46209.20
587.54	46429.21
587.70	47009.66
587.86	46366.01
588.02	46417.50
588.18	46181.11
588.34	46663.26
588.49	46600.07
588.65	46106.21
588.81	46342.61
588.97	46417.50
589.13	46501.76
589.29	46391.76
589.45	46742.84
589.61	46241.96
589.77	46611.77
589.93	46616.45
590.08	46623.47
590.24	46443.25
590.40	46731.14
590.56	47274.14
590.72	46909.02
590.88	46600.07
591.04	46323.88
591.20	46759.22
591.35	47222.65
591.51	46974.55
591.67	47161.79
591.83	47241.37
591.99	46939.44
592.15	46199.83
592.31	46595.38
592.46	46742.84
592.62	47093.92
592.78	46770.93
592.94	47250.74
593.10	46836.46
593.26	46916.04
593.41	46934.76
593.57	47157.11
593.73	46883.27
593.89	47473.09
594.05	47009.66
594.20	47033.07
594.36	47356.06
594.52	47063.49
594.68	47054.13
594.84	47208.61
594.99	47262.44
595.15	47489.47
595.31	47056.47
595.47	46831.78
595.62	46878.59
595.78	46564.96
595.94	47122.01
596.10	47009.66
596.25	47475.43
596.41	47250.74
596.57	47297.55
596.73	47393.51
596.88	46761.56
597.04	47229.67
597.20	47114.98
597.36	46976.89
597.51	47145.41
597.67	47234.35
597.83	47079.88
597.99	47122.01
598.14	47119.66
598.30	47433.30
598.46	47283.50
598.61	47517.56
598.77	47302.23
598.93	47243.71
599.09	47203.92
599.24	47442.66
599.40	46784.97
599.56	47157.11
599.71	47388.83
599.87	48020.77
600.03	47344.36
600.18	47199.24
600.34	47187.54
600.50	47318.61
600.65	47049.45
600.81	47576.07
600.97	47323.29
601.12	47253.08
601.28	47203.92
601.44	47459.04
601.59	47571.39
601.75	47257.76
601.91	47468.40
602.06	47260.10
602.22	47250.74
602.37	47473.09
602.53	47138.39
602.69	47232.01
602.84	46799.01
603.00	47173.50
603.16	47070.51
603.31	47290.52
603.47	47150.09
603.62	47349.04
603.78	47260.10
603.94	46890.29
604.09	47026.04
604.25	47173.50
604.40	47232.01
604.56	47819.49
604.71	47861.61
604.87	46878.59
605.03	46761.56
605.18	47243.71
605.34	47175.84
605.49	47000.30
605.65	47129.03
605.80	46995.62
605.96	47061.15
606.12	46609.43
606.27	47248.39
606.43	47131.37
606.58	47487.13
606.74	47026.04
606.89	47274.14
607.05	47449.68
607.20	47330.31
607.36	46822.42
607.51	47175.84
607.67	47028.38
607.82	46871.57
607.98	47484.79
608.13	47374.78
608.29	46944.12
608.44	47047.11
608.60	46916.04
608.75	47007.32
608.91	46976.89
609.06	46782.63
609.22	46953.49
609.37	46925.40
609.53	46934.76
609.68	46927.74
609.84	47260.10
609.99	47028.38
610.15	46941.78
610.30	46824.76
610.46	46794.33
610.61	46941.78
610.76	46969.87
610.92	46759.22
611.07	46824.76
611.23	46705.39
611.38	46590.70
611.54	46466.66
611.69	46806.03
611.84	46937.10
612.00	46813.05
612.15	46766.24
612.31	46883.27
612.46	46323.88
612.62	46735.82
612.77	46651.56
612.92	46869.23
613.08	46260.69
613.23	46799.01
613.39	46653.90
613.54	46375.37
613.69	46780.29
613.85	46459.63
614.00	46471.34
614.15	47082.22
614.31	46527.51
614.46	46260.69
614.62	46110.89
614.77	46082.81
614.92	46382.40
615.08	46316.86
615.23	46635.17
615.38	46597.73
615.54	46485.38
615.69	46763.90
615.84	46656.24
616.00	46927.74
616.15	46461.97
616.30	46604.75
616.46	46363.67
616.61	46335.59
616.76	46447.93
616.92	46380.06
617.07	46445.59
617.22	46384.74
617.37	45806.62
617.53	46274.73
617.68	46370.69
617.83	46370.69
617.99	46794.33
618.14	46281.75
618.29	46153.02
618.45	45916.63
618.60	46204.52
618.75	45911.95
618.90	45815.99
619.06	46007.91
619.21	45799.60
619.36	46150.68
619.51	45610.02
619.67	45741.09
619.82	45902.59
619.97	45895.56
620.12	46019.61
620.28	45663.85
620.43	46010.25
620.58	45780.88
620.73	45942.38
620.89	46019.61
621.04	46036.00
621.19	45757.47
621.34	45984.51
621.49	45682.58
621.65	45666.19
621.80	46092.17
621.95	45628.74
622.10	45895.56
622.25	45397.03
622.41	45352.56
622.56	45401.71
622.71	45972.80
622.86	45933.01
623.01	45563.21
623.16	45680.24
623.32	45593.64
623.47	45291.71
623.62	45549.17
623.77	45745.77
623.92	46082.81
624.07	45635.77
624.23	45523.42
624.38	45457.88
624.53	45322.13
624.68	45113.83
624.83	45137.23
624.98	45195.74
625.13	45034.25
625.29	44765.09
625.44	45188.72
625.59	45017.86
625.74	45408.73
625.89	44926.58
626.04	45118.51
626.19	45015.52
626.34	45102.12
626.49	44603.59
626.65	44666.78
626.80	44996.80
626.95	45221.49
627.10	44495.92
627.25	44879.77
627.40	44479.54
627.55	45092.76
627.70	44381.24
627.85	44849.35
628.00	44996.80
628.15	45036.59
628.30	44385.92
628.45	44252.51
628.60	44404.64
628.76	44650.40
628.91	44591.89
629.06	44458.48
629.21	44535.71
629.36	44294.64
629.51	44264.21
629.66	44598.91
629.81	44308.68
629.96	44573.16
630.11	44437.41
630.26	44346.13
630.41	44343.79
630.56	44737.00
630.71	44488.90
630.86	44406.98
631.01	44055.90
631.16	44402.30
631.31	44158.89
631.46	43957.60
631.61	44048.88
631.76	44362.51
631.91	44130.80
632.06	44758.06
632.21	44039.52
632.36	44252.51
632.51	44306.34
632.66	44287.62
632.81	43887.39
632.96	44076.97
633.10	43955.26
633.25	43709.50
633.40	44069.95
633.55	44140.16
633.70	43742.27
633.85	44123.78
634.00	43695.46
634.15	43524.60
634.30	43922.49
634.45	43730.57
634.60	43414.60
634.75	44055.90
634.90	43901.43
635.05	44055.90
635.19	43524.60
635.34	44058.24
635.49	43318.64
635.64	43796.10
635.79	43543.33
635.94	43775.04
636.09	43695.46
636.24	43625.25
636.39	43445.02
636.53	42944.15
636.68	43225.01
636.83	43145.44
636.98	42895.00
637.13	43096.28
637.28	43161.82
637.43	43164.16
637.57	43358.42
637.72	42983.94
637.87	43016.71
638.02	43351.40
638.17	42651.58
638.32	43157.14
638.46	43023.73
638.61	42656.26
638.76	42651.58
638.91	43143.09
639.06	42913.72
639.20	42209.22
639.35	42553.28
639.50	42429.23
639.65	43091.60
639.80	43105.65
639.94	42775.63
640.09	42656.26
640.24	42719.46
640.39	42728.82
640.54	42562.64
640.68	42639.88
640.83	42677.33
640.98	42494.77
641.13	42452.64
641.27	42560.30
641.42	42803.72
641.57	42717.12
641.72	42637.54
641.86	42426.89
642.01	42064.11
642.16	42424.55
642.31	42122.62
642.45	42342.63
642.60	42113.26
642.75	42188.16
642.90	42492.43
643.04	42384.76
643.19	42239.65
643.34	42120.28
643.48	41954.10
643.63	41642.81
643.78	42169.43
643.93	42548.60
644.07	42141.35
644.22	41886.23
644.37	42075.81
644.51	42323.91
644.66	42363.70
644.81	41734.09
644.95	42092.19
645.10	41930.70
645.25	41909.63
645.39	41469.61
645.54	41827.71
645.69	41869.84
645.83	41350.24
645.98	41764.52
646.13	41570.25
646.27	41876.86
646.42	41071.72
646.57	41820.69
646.71	41593.66
646.86	41626.43
647.00	42071.13
647.15	41715.37
647.30	41933.04
647.44	41528.13
647.59	41958.78
647.74	41397.06
647.88	41228.54
648.03	41825.37
648.17	41787.92
648.32	41141.94
648.47	41837.08
648.61	41553.87
648.76	41383.01
648.90	41319.82
649.05	41291.73
649.20	41457.91
649.34	41090.44
649.49	41031.93
649.63	41383.01
649.78	41385.35
649.92	41331.52
650.07	41518.76
650.21	41518.76
650.36	41474.29
650.51	41312.80
650.65	41647.49
650.80	41130.23
650.94	41125.55
651.09	40919.59
651.23	40519.35
651.38	40968.74
651.52	40704.26
651.67	40989.80
651.81	41099.81
651.96	40662.13
652.10	40781.49
652.25	40788.52
652.39	41174.70
652.54	40790.86
652.68	40889.16
652.83	40528.72
652.97	40954.69
653.12	40725.32
653.26	40421.05
653.41	40662.13
653.55	40524.04
653.70	40502.97
653.84	40795.54
653.99	40966.40
654.13	40467.86
654.27	40472.54
654.42	40423.39
654.56	40371.90
654.71	40531.06
654.85	40982.78
655.00	40479.57
655.14	40580.21
655.29	40727.66
655.43	40673.83
655.57	40264.24
655.72	40123.80
655.86	40620.00
656.01	40416.37
656.15	39739.96
656.30	40294.66
656.44	40257.21
656.58	40156.57
656.73	39978.69
656.87	39782.09
657.01	39803.15
657.16	40292.32
657.30	40325.09
657.45	39775.06
657.59	39658.04
657.73	39620.59
657.88	40069.97
658.02	39880.39
658.16	39938.90
658.31	39702.51
658.45	39531.65
658.60	39892.09
658.74	39569.10
658.88	39658.04
659.03	39627.61
659.17	39402.92
659.31	39136.10
659.46	39147.80
659.60	39335.04
659.74	39297.59
659.89	39110.35
660.03	38810.76
660.17	39281.21
660.32	39473.13
660.46	39124.40
660.60	38321.59
660.74	38972.26
660.89	38663.31
661.03	38426.92
661.17	38260.74
661.32	38618.84
661.46	38822.47
661.60	38567.35
661.74	38754.59
661.89	38417.55
662.03	38710.12
662.17	38658.63
662.31	38188.18
662.46	38609.48
662.60	38288.82
662.74	37944.76
662.88	38218.61
663.03	37722.41
663.17	38000.94
663.31	37542.19
663.45	38139.03
663.60	38110.94
663.74	37773.91
663.88	37949.45
664.02	37710.71
664.17	38089.88
664.31	37656.88
664.45	37354.95
664.59	37574.96
664.73	37982.21
664.88	37326.86
665.02	37137.28
665.16	37631.13
665.30	37631.13
665.44	37352.61
665.59	37184.09
665.73	36975.78
665.87	36940.68
666.01	37148.98
666.15	37340.91
666.29	37104.51
666.44	37233.24
666.58	36961.74
666.72	36683.22
666.86	36615.34
667.00	36786.20
667.14	36648.11
667.28	36868.12
667.43	36535.76
667.57	36886.84
667.71	36350.86
667.85	36383.63
667.99	36561.51
668.13	36032.55
668.27	35988.08
668.41	36245.54
668.56	35821.90
668.70	35501.25
668.84	35756.36
668.98	35569.12
669.12	36182.34
669.26	35796.15
669.40	35718.92
669.54	35604.23
669.68	35807.86
669.82	35597.21
669.96	34885.68
670.10	34988.67
670.25	35405.28
670.39	35227.40
670.53	35508.27
670.67	35042.50
670.81	35433.37
670.95	35126.76
671.09	35037.82
671.23	34831.85
671.37	34852.92
671.51	34740.57
671.65	34515.88
671.79	34583.76
671.93	34520.56
672.07	34890.37
672.21	34476.09
672.35	34155.44
672.49	34120.33
672.63	34412.90
672.77	33951.81
672.91	34080.54
673.05	34452.69
673.19	33820.74
673.33	33811.38
673.47	33621.80
673.61	33818.40
673.75	33457.96
673.89	33743.50
674.03	33266.03
674.17	33308.16
674.31	32936.02
674.45	33202.84
674.59	33109.22
674.73	32765.16
674.87	32655.15
675.01	32821.33
675.15	32814.31
675.29	32627.07
675.43	32781.54
675.56	33017.94
675.70	32437.48
675.84	32004.49
675.98	31342.11
676.12	32266.63
676.26	32613.02
676.40	31775.11
676.54	31758.73
676.68	31683.83
676.82	31484.89
676.96	31754.05
677.10	31789.16
677.23	31384.24
677.37	31206.36
677.51	31337.43
677.65	31728.30
677.79	31262.54
677.93	31365.52
678.07	30899.75
678.21	30686.76
678.34	30930.18
678.48	30808.47
678.62	30808.47
678.76	30288.87
678.90	30623.57
679.04	30536.97
679.18	30436.33
679.31	30160.14
679.45	29895.66
679.59	29912.05
679.73	29806.72
679.87	29867.58
680.00	29614.80
680.14	29771.61
680.28	29448.62
680.42	29504.79
680.56	29235.63
680.70	29130.31
680.83	29195.84
680.97	29163.08
681.11	29163.08
681.25	28807.31
681.39	28638.80
681.52	28664.54
681.66	28311.12
681.80	27967.06
681.94	27936.63
682.07	28058.34
682.21	28053.66
682.35	27938.97
682.49	27835.99
682.62	28051.32
682.76	28105.15
682.90	27981.10
683.04	27452.14
683.17	27339.80
683.31	27318.73
683.45	27276.60
683.59	26602.53
683.72	26836.58
683.86	27042.55
684.00	27194.68
684.13	26707.85
684.27	26859.99
684.41	26658.70
684.55	26295.92
684.68	26267.83
684.82	26099.31
684.96	26176.55
685.09	26230.38
685.23	26141.44
685.37	26522.95
685.50	26623.59
685.64	26066.55
685.78	25923.77
685.91	25701.42
686.05	25261.40
686.19	25144.38
686.32	25165.44
686.46	25205.23
686.60	25081.18
686.73	24872.87
686.87	24999.26
687.01	24802.66
687.14	24816.70
687.28	25057.78
687.42	24882.24
687.55	24496.05
687.69	24369.66
687.82	24622.44
687.96	24238.59
688.10	24240.93
688.23	24114.54
688.37	24467.96
688.50	24301.78
688.64	24025.60
688.78	23667.50
688.91	23475.57
689.05	24161.35
689.18	23094.07
689.32	23124.49
689.46	23028.53
689.59	23218.11
689.73	23353.87
689.86	23309.40
690.00	23077.68
690.13	23136.20
690.27	22661.07
690.41	22728.94
690.54	22696.17
690.68	22349.78
690.81	22335.73
690.95	22412.97
691.08	22211.68
691.22	21884.01
691.35	22043.17
691.49	22078.27
691.62	21654.64
691.76	21156.10
691.89	21642.93
692.03	21057.80
692.16	21214.62
692.30	21261.43
692.43	21305.90
692.57	21008.65
692.70	21006.31
692.84	21022.69
692.97	20929.07
693.11	20929.07
693.24	20744.17
693.38	20582.67
693.51	20247.97
693.65	20545.22
693.78	20112.22
693.92	20247.97
694.05	19962.43
694.19	20004.56
694.32	20013.92
694.45	20259.68
694.59	20102.86
694.72	20357.98
694.86	19473.26
694.99	19618.37
695.13	19370.27
695.26	19082.39
695.39	19236.86
695.53	19185.37
695.66	19463.90
695.80	19061.32
695.93	19026.21
696.07	18710.24
696.20	18616.62
696.33	18780.46
696.47	18366.18
696.60	18696.20
696.73	18513.64
696.87	18359.16
697.00	18471.51
697.14	18197.67
697.27	17958.93
697.40	18225.75
697.54	17980.00
697.67	18008.08
697.80	17930.84
697.94	17731.90
698.07	17619.55
698.21	17493.16
698.34	17507.21
698.47	17507.21
698.61	16783.98
698.74	17280.18
698.87	17357.41
699.01	17001.65
699.14	17053.14
699.27	17092.93
699.40	16954.84
699.54	17067.19
699.67	16718.45
699.80	16369.71
699.94	16393.11
700.07	16528.86
700.20	16444.60
700.34	16393.11
700.47	16285.45
700.60	16273.74
700.73	15978.84
700.87	16114.59
701.00	15789.25
701.13	15522.43
701.26	15847.77
701.40	15864.15
701.53	15697.97
701.66	15672.23
701.79	15442.85
701.93	15267.31
702.06	15140.93
702.19	15110.50
702.32	15363.28
702.46	15405.41
702.59	15316.47
702.72	15070.71
702.85	15145.61
702.99	15037.94
703.12	15000.49
703.25	14787.50
703.38	14516.00
703.51	14824.95
703.65	14466.85
703.78	14183.65
703.91	14101.73
704.04	14209.39
704.17	14235.14
704.31	14193.01
704.44	14211.73
704.57	14101.73
704.70	13872.36
704.83	13813.84
704.96	13961.30
705.10	13575.11
705.23	13586.81
>>>>>End Processed Spectral Data<<<<<
