SpectraSuite Data File
++++++++++++++++++++++++++++++++++++
Date: Fri Oct 25 11:34:04 EDT 2013
User: price-jones
Dark Spectrum Present: No
Reference Spectrum Present: No
Number of Sampled Component Spectra: 1
Spectrometers: USB2+H05261
Integration Time (usec): 100000 (USB2+H05261)
Spectra Averaged: 1 (USB2+H05261)
Boxcar Smoothing: 0 (USB2+H05261)
Correct for Electrical Dark: No (USB2+H05261)
Strobe/Lamp Enabled: No (USB2+H05261)
Correct for Detector Non-linearity: No (USB2+H05261)
Correct for Stray Light: No (USB2+H05261)
Number of Pixels in Processed Spectrum: 2048
>>>>>Begin Processed Spectral Data<<<<<
365.73	278.52
365.92	278.52
366.12	278.52
366.32	180.22
366.52	196.60
366.72	266.82
366.91	201.29
367.11	177.88
367.31	135.75
367.51	102.98
367.70	154.48
367.90	175.54
368.10	149.79
368.30	191.92
368.49	198.95
368.69	189.58
368.89	147.45
369.09	170.86
369.28	250.44
369.48	201.29
369.68	191.92
369.87	194.26
370.07	243.42
370.27	259.80
370.47	327.68
370.66	411.93
370.86	444.70
371.06	514.92
371.25	507.90
371.45	585.13
371.65	568.75
371.84	535.98
372.04	575.77
372.24	575.77
372.44	587.47
372.63	580.45
372.83	650.67
373.03	540.66
373.22	685.78
373.42	601.52
373.62	606.20
373.81	599.18
374.01	699.82
374.21	629.60
374.40	617.90
374.60	692.80
374.79	601.52
374.99	648.33
375.19	575.77
375.38	683.44
375.58	587.47
375.78	702.16
375.97	741.95
376.17	744.29
376.37	671.73
376.56	585.13
376.76	657.69
376.95	610.88
377.15	709.18
377.35	653.01
377.54	690.46
377.74	667.05
377.93	720.88
378.13	645.99
378.33	706.84
378.52	725.57
378.72	704.50
378.91	758.33
379.11	784.08
379.31	692.80
379.50	678.76
379.70	784.08
379.89	685.78
380.09	741.95
380.28	795.78
380.48	760.67
380.68	744.29
380.87	763.01
381.07	755.99
381.26	739.61
381.46	800.46
381.65	723.23
381.85	683.44
382.04	732.59
382.24	805.14
382.43	723.23
382.63	695.14
382.83	758.33
383.02	751.31
383.22	833.23
383.41	823.87
383.61	856.64
383.80	847.27
384.00	793.44
384.19	819.19
384.39	788.76
384.58	777.06
384.78	830.89
384.97	826.21
385.17	739.61
385.36	798.12
385.56	833.23
385.75	837.91
385.95	851.96
386.14	882.38
386.34	908.13
386.53	854.30
386.72	807.48
386.92	894.08
387.11	945.58
387.31	884.72
387.50	856.64
387.70	894.08
387.89	933.87
388.09	903.45
388.28	828.55
388.48	945.58
388.67	894.08
388.86	880.04
389.06	858.98
389.25	931.53
389.45	894.08
389.64	945.58
389.84	908.13
390.03	964.30
390.22	1020.47
390.42	994.73
390.61	992.39
390.81	1067.28
391.00	945.58
391.19	1001.75
391.39	999.41
391.58	936.21
391.78	1043.88
391.97	997.07
392.16	961.96
392.36	973.66
392.55	994.73
392.75	1027.50
392.94	1015.79
393.13	1034.52
393.33	1011.11
393.52	1036.86
393.71	1074.31
393.91	1029.84
394.10	1081.33
394.29	1071.97
394.49	1116.44
394.68	1107.07
394.88	1130.48
395.07	1149.20
395.26	1114.10
395.46	1137.50
395.65	1132.82
395.84	1163.25
396.04	1327.08
396.23	1125.80
396.42	1207.72
396.62	1193.67
396.81	1242.82
397.00	1128.14
397.19	1282.61
397.39	1210.06
397.58	1221.76
397.77	1252.19
397.97	1268.57
398.16	1221.76
398.35	1299.00
398.55	1186.65
398.74	1221.76
398.93	1310.70
399.12	1313.04
399.32	1299.00
399.51	1217.08
399.70	1245.16
399.90	1327.08
400.09	1385.60
400.28	1341.13
400.47	1397.30
400.67	1362.19
400.86	1390.28
401.05	1423.05
401.24	1565.82
401.44	1439.43
401.63	1509.65
401.82	1418.36
402.01	1455.81
402.21	1439.43
402.40	1432.41
402.59	1453.47
402.78	1465.18
402.97	1493.26
403.17	1493.26
403.36	1509.65
403.55	1558.80
403.74	1638.38
403.93	1638.38
404.13	1645.40
404.32	1603.27
404.51	1565.82
404.70	1619.65
404.89	1650.08
405.09	1736.68
405.28	1586.88
405.47	1668.80
405.66	1636.03
405.85	1727.32
406.05	1720.29
406.24	1664.12
406.43	1703.91
406.62	1802.21
406.81	1785.83
407.00	1783.49
407.20	1781.15
407.39	1696.89
407.58	1863.07
407.77	1790.51
407.96	1792.85
408.15	1816.26
408.34	1867.75
408.54	1802.21
408.73	1898.17
408.92	1879.45
409.11	1923.92
409.30	1994.14
409.49	1909.88
409.68	1996.48
409.87	1984.77
410.07	1916.90
410.26	1952.01
410.45	2062.01
410.64	2017.54
410.83	2050.31
411.02	2092.44
411.21	2059.67
411.40	2076.06
411.59	2181.38
411.78	2050.31
411.98	2251.60
412.17	2260.96
412.36	2181.38
412.55	2242.23
412.74	2314.79
412.93	2284.36
413.12	2246.91
413.31	2375.64
413.50	2277.34
413.69	2420.11
413.88	2478.63
414.07	2434.16
414.26	2464.58
414.45	2431.82
414.64	2452.88
414.83	2485.65
415.02	2509.05
415.22	2576.93
415.41	2544.16
415.60	2583.95
415.79	2612.04
415.98	2637.78
416.17	2619.06
416.36	2705.66
416.55	2832.05
416.74	2834.39
416.93	2813.32
417.12	2794.60
417.31	2736.09
417.50	2862.48
417.69	2974.82
417.88	2836.73
418.07	2937.37
418.26	2977.16
418.45	2993.55
418.64	3007.59
418.83	3009.93
419.02	2974.82
419.21	3138.66
419.39	3115.25
419.58	2951.42
419.77	3103.55
419.96	3059.08
420.15	3094.19
420.34	3101.21
420.53	3155.04
420.72	3234.62
420.91	3162.06
421.10	3157.38
421.29	3258.03
421.48	3201.85
421.67	3274.41
421.86	3185.47
422.05	3328.24
422.24	3190.15
422.43	3311.86
422.61	3185.47
422.80	3309.52
422.99	3335.26
423.18	3279.09
423.37	3412.50
423.56	3208.87
423.75	3440.59
423.94	3239.30
424.13	3157.38
424.32	3227.60
424.50	3344.63
424.69	3445.27
424.88	3463.99
425.07	3405.48
425.26	3349.31
425.45	3440.59
425.64	3424.20
425.83	3412.50
426.01	3466.33
426.20	3375.05
426.39	3473.36
426.58	3447.61
426.77	3487.40
426.96	3431.23
427.15	3302.50
427.33	3473.36
427.52	3550.59
427.71	3606.77
427.90	3471.01
428.09	3651.24
428.28	3534.21
428.46	3716.77
428.65	3733.15
428.84	3887.63
429.03	3637.19
429.22	3590.38
429.40	3634.85
429.59	3761.24
429.78	3569.32
429.97	3496.76
430.16	3836.14
430.34	3777.62
430.53	3733.15
430.72	3850.18
430.91	3719.11
431.10	3957.85
431.28	3953.16
431.47	3829.12
431.66	3829.12
431.85	3936.78
432.03	3999.98
432.22	4067.85
432.41	3974.23
432.60	3915.72
432.79	4046.79
432.97	3985.93
433.16	4016.36
433.35	4004.66
433.54	4088.92
433.72	4187.22
433.91	4184.88
434.10	3997.64
434.28	4154.45
434.47	4163.81
434.66	4205.94
434.85	4161.47
435.03	4238.71
435.22	4222.33
435.41	4311.27
435.59	4367.44
435.78	4360.42
435.97	4301.90
436.16	4243.39
436.34	4313.61
436.53	4374.46
436.72	4489.15
436.90	4428.29
437.09	4470.42
437.28	4308.93
437.46	4542.98
437.65	4519.57
437.84	4435.32
438.02	4432.97
438.21	4568.73
438.40	4521.92
438.58	4702.14
438.77	4704.48
438.96	4711.50
439.14	4884.70
439.33	4835.55
439.52	4793.42
439.70	4779.37
439.89	4926.83
440.08	5114.07
440.26	5114.07
440.45	5088.32
440.63	5020.45
440.82	5167.90
441.01	5071.94
441.19	5085.98
441.38	5100.03
441.57	5153.86
441.75	5210.03
441.94	5294.29
442.12	5277.91
442.31	5313.02
442.50	5411.32
442.68	5446.43
442.87	5261.52
443.05	5446.43
443.24	5418.34
443.43	5530.69
443.61	5390.25
443.80	5605.58
443.98	5296.63
444.17	5259.18
444.35	5535.37
444.54	5654.73
444.73	5600.90
444.91	5455.79
445.10	5516.64
445.28	5455.79
445.47	5570.48
445.65	5509.62
445.84	5666.44
446.02	5668.78
446.21	5561.11
446.39	5584.52
446.58	5514.30
446.77	5589.20
446.95	5547.07
447.14	5657.07
447.32	5870.06
447.51	5652.39
447.69	5661.76
447.88	5699.20
448.06	5640.69
448.25	5577.50
448.43	5713.25
448.62	5694.52
448.80	5839.64
448.99	5657.07
449.17	5846.66
449.36	5661.76
449.54	6094.76
449.73	5832.62
449.91	5963.68
450.10	5858.36
450.28	6022.20
450.46	6099.44
450.65	5884.11
450.83	5994.11
451.02	5944.96
451.20	6104.12
451.39	5980.07
451.57	5994.11
451.76	5980.07
451.94	6012.84
452.13	6279.66
452.31	6176.67
452.49	6111.14
452.68	6113.48
452.86	6136.88
453.05	6427.11
453.23	6438.81
453.42	6244.55
453.60	6113.48
453.78	6417.75
453.97	6162.63
454.15	6244.55
454.34	6171.99
454.52	6396.68
454.70	6457.54
454.89	6558.18
455.07	6588.61
455.26	6581.59
455.44	6630.74
455.62	6511.37
455.81	6518.39
455.99	6661.16
456.17	6710.32
456.36	6532.44
456.54	6682.23
456.73	6813.30
456.91	6960.75
457.09	6937.35
457.28	7061.40
457.46	6918.62
457.64	6977.14
457.83	6871.81
458.01	6862.45
458.19	7002.88
458.38	6780.53
458.56	6986.50
458.74	7045.01
458.93	6981.82
459.11	7178.42
459.29	7164.38
459.48	7269.70
459.66	7169.06
459.84	7375.03
460.03	7454.61
460.21	7110.55
460.39	7250.98
460.57	7325.88
460.76	7192.47
460.94	7466.31
461.12	7269.70
461.31	7492.05
461.49	7438.22
461.67	7368.01
461.85	7520.14
462.04	7360.98
462.22	7847.82
462.40	7648.87
462.59	7765.90
462.77	7744.83
462.95	7723.77
463.13	7667.60
463.32	7681.64
463.50	7775.26
463.68	7744.83
463.86	7843.14
464.05	7611.42
464.23	7751.85
464.41	7824.41
464.59	7487.37
464.78	7960.16
464.96	7983.57
465.14	7777.60
465.32	7955.48
465.50	7936.76
465.69	8006.97
465.87	7901.65
466.05	7913.35
466.23	7850.16
466.41	8109.96
466.60	8163.79
466.78	8163.79
466.96	7997.61
467.14	8180.17
467.32	8121.66
467.51	8341.67
467.69	8114.64
467.87	8304.22
468.05	8299.54
468.23	8166.13
468.41	8252.73
468.60	8334.65
468.78	8315.92
468.96	8271.45
469.14	8521.89
469.32	8587.43
469.50	8383.80
469.69	8386.14
469.87	8624.87
470.05	8456.36
470.23	8500.83
470.41	8503.17
470.59	8456.36
470.77	8821.48
470.95	8805.10
471.14	8872.97
471.32	8599.13
471.50	8723.18
471.68	8980.64
471.86	9036.81
472.04	9071.92
472.22	9174.90
472.40	8851.91
472.58	8975.95
472.77	9088.30
472.95	9305.97
473.13	9558.75
473.31	9125.75
473.49	9217.03
473.67	9324.69
473.85	9275.54
474.03	9635.99
474.21	9586.83
474.39	9521.30
474.57	9671.09
474.75	9858.34
474.93	9944.94
475.12	9668.75
475.30	10024.51
475.48	9753.01
475.66	9989.41
475.84	9802.16
476.02	9914.51
476.20	10132.18
476.38	10391.98
476.56	10413.04
476.74	10317.08
476.92	10270.27
477.10	10399.00
477.28	10513.69
477.46	10410.70
477.64	10600.29
477.82	10665.82
478.00	10789.87
478.18	11087.12
478.36	11147.97
478.54	10925.62
478.72	10906.90
478.90	11389.05
479.08	11370.32
479.26	11276.70
479.44	11410.11
479.62	11351.60
479.80	11644.17
479.98	11646.51
480.16	12135.68
480.34	12002.27
480.52	11932.05
480.70	12020.99
480.88	11948.43
481.06	12180.15
481.24	12376.75
481.41	12294.83
481.59	12472.71
481.77	12465.69
481.95	12549.95
482.13	12748.90
482.31	13029.76
482.49	13039.12
482.67	13092.96
482.85	13277.86
483.03	13214.66
483.21	13266.16
483.39	13429.99
483.57	13322.33
483.74	13586.81
483.92	13596.17
484.10	13500.21
484.28	13919.17
484.46	14139.18
484.64	14480.89
484.82	14193.01
485.00	14588.56
485.18	14560.47
485.35	14860.06
485.53	14670.48
485.71	15173.69
485.89	15002.83
486.07	14972.41
486.25	15199.44
486.43	15145.61
486.61	15653.50
486.78	15763.51
486.96	15599.67
487.14	15716.70
487.32	15955.43
487.50	16098.20
487.68	16290.13
487.85	16414.18
488.03	16491.41
488.21	16919.73
488.39	16795.68
488.57	16793.34
488.75	16798.02
488.92	17261.45
489.10	17291.88
489.28	17455.72
489.46	17247.41
489.64	17441.67
489.81	18192.98
489.99	17862.97
490.17	17769.35
490.35	18420.02
490.53	18207.03
490.70	18202.35
490.88	18223.41
491.06	18558.11
491.24	18946.64
491.41	18836.63
491.59	18642.37
491.77	18799.18
491.95	18967.70
492.13	19187.71
492.30	19424.11
492.48	19278.99
492.66	19559.86
492.84	19419.42
493.01	19922.64
493.19	19936.68
493.37	20056.05
493.54	20016.26
493.72	20224.57
493.90	20166.06
494.08	20645.87
494.25	20336.91
494.43	20692.68
494.61	20882.26
494.79	20702.04
494.96	20748.85
495.14	21235.68
495.32	20980.56
495.49	21577.40
495.67	21479.10
495.85	21462.71
496.02	21642.93
496.20	21633.57
496.38	21809.11
496.55	21902.73
496.73	22319.35
496.91	22298.28
497.09	22403.61
497.26	22394.25
497.44	22742.99
497.62	22485.53
497.79	22841.29
497.97	22778.09
498.14	23204.07
498.32	23330.46
498.50	23201.73
498.67	23377.27
498.85	23342.16
499.03	23527.06
499.20	23601.96
499.38	24079.43
499.56	23901.55
499.73	24013.90
499.91	23983.47
500.08	24643.50
500.26	24245.61
500.44	24086.45
500.61	24580.31
500.79	24393.06
500.97	24699.67
501.14	24503.07
501.32	25069.48
501.49	24863.51
501.67	24734.78
501.84	25142.03
502.02	24994.58
502.20	25167.78
502.37	25392.47
502.55	25277.79
502.72	25319.92
502.90	25708.44
503.07	25500.14
503.25	25378.43
503.43	25458.01
503.60	26031.44
503.78	25783.34
503.95	25755.26
504.13	25874.62
504.30	26228.04
504.48	26157.83
504.65	26569.76
504.83	26398.90
505.01	26691.47
505.18	26279.54
505.36	26761.69
505.53	26979.36
505.71	26808.50
505.88	26794.45
506.06	26738.28
506.23	27030.85
506.41	26721.90
506.58	26831.90
506.76	27653.43
506.93	27431.08
507.11	27442.78
507.28	27953.02
507.46	27819.61
507.63	27833.65
507.81	27838.33
507.98	28119.20
508.16	27878.12
508.33	28283.03
508.50	28046.64
508.68	27971.74
508.85	28238.56
509.03	28322.82
509.20	28301.76
509.38	28786.25
509.55	29092.86
509.73	28481.98
509.90	28833.06
510.08	29062.43
510.25	28659.86
510.42	28952.43
510.60	29006.26
510.77	29465.00
510.95	29638.20
511.12	29184.14
511.30	29577.35
511.47	29589.05
511.64	29546.92
511.82	29656.93
511.99	29748.21
512.17	30106.31
512.34	29949.50
512.51	30169.51
512.69	30286.53
512.86	30115.67
513.04	30459.73
513.21	30008.01
513.38	30501.86
513.56	30988.69
513.73	30188.23
513.90	30731.23
514.08	30579.10
514.25	31101.04
514.43	31133.81
514.60	31110.40
514.77	30986.35
514.95	31204.02
515.12	31271.90
515.29	31234.45
515.47	30960.61
515.64	31545.74
515.81	31559.78
515.99	31424.03
516.16	31583.19
516.33	31887.46
516.51	32070.02
516.68	31374.88
516.85	31971.72
517.03	32030.23
517.20	32264.28
517.37	31538.72
517.54	32173.00
517.72	32390.67
517.89	32460.89
518.06	32432.80
518.24	32177.68
518.41	32451.53
518.58	32804.95
518.75	32451.53
518.93	33113.90
519.10	32781.54
519.27	33116.24
519.45	33057.73
519.62	33266.03
519.79	33022.62
519.96	33134.96
520.14	33055.39
520.31	33364.34
520.48	33677.97
520.65	33560.94
520.83	33783.29
521.00	33858.19
521.17	33553.92
521.34	33769.25
521.52	33720.10
521.69	34061.82
521.86	33748.18
522.03	33497.75
522.20	34223.31
522.38	34497.16
522.55	34789.72
522.72	34424.60
522.89	34483.11
523.07	34658.65
523.24	34696.10
523.41	34710.14
523.58	34857.60
523.75	35007.39
523.92	34742.91
524.10	35037.82
524.27	34991.01
524.44	34899.73
524.61	35192.30
524.78	35227.40
524.96	35550.40
525.13	35416.99
525.30	35807.86
525.47	35681.47
525.64	35358.47
525.81	35878.07
525.98	35613.59
526.16	35414.65
526.33	35599.55
526.50	35597.21
526.67	35571.46
526.84	35845.30
527.01	35775.09
527.18	36292.35
527.36	36313.41
527.53	36086.38
527.70	36355.54
527.87	36400.01
528.04	36353.20
528.21	36769.82
528.38	36428.10
528.55	36491.29
528.72	36416.40
528.89	36753.43
529.07	36821.31
529.24	36568.53
529.41	36500.65
529.58	36671.51
529.75	36542.78
529.92	36987.49
530.09	36917.27
530.26	37441.55
530.43	37158.34
530.60	36751.09
530.77	36821.31
530.94	37226.22
531.11	37015.57
531.28	37448.57
531.46	37432.19
531.63	37514.11
531.80	37240.26
531.97	37720.07
532.14	37397.08
532.31	37373.67
532.48	37722.41
532.65	37830.08
532.82	37450.91
532.99	37989.24
533.16	38082.86
533.33	38052.43
533.50	38433.94
533.67	38309.89
533.84	37844.12
534.01	38494.79
534.18	38213.93
534.35	38354.36
534.52	38822.47
534.69	38689.06
534.86	38394.15
535.03	38263.08
535.20	38382.45
535.37	38960.56
535.54	38600.12
535.71	38700.76
535.88	38759.27
536.05	38780.34
536.22	39339.72
536.38	38749.91
536.55	38946.51
536.72	38981.62
536.89	38995.67
537.06	39086.95
537.23	39536.33
537.40	39253.12
537.57	39108.01
537.74	39409.94
537.91	39660.38
538.08	39524.63
538.25	38848.21
538.42	39438.03
538.59	39761.02
538.75	39395.90
538.92	39578.46
539.09	40135.51
539.26	39838.26
539.43	39992.73
539.60	39892.09
539.77	39667.40
539.94	40098.06
540.11	39945.92
540.28	39959.97
540.44	40388.28
540.61	39868.69
540.78	40116.78
540.95	40093.38
541.12	40334.45
541.29	39880.39
541.46	40353.18
541.62	40179.98
541.79	40435.10
541.96	40123.80
542.13	40474.88
542.30	40407.01
542.47	40701.92
542.63	40456.16
542.80	40910.22
542.97	40905.54
543.14	41265.99
543.31	41029.59
543.48	41172.36
543.64	41612.38
543.81	41294.07
543.98	41570.25
544.15	41422.80
544.32	41303.43
544.48	41270.67
544.65	41876.86
544.82	42120.28
544.99	41310.46
545.16	41500.04
545.32	41319.82
545.49	41979.85
545.66	42113.26
545.83	41460.25
546.00	41628.77
546.16	41717.71
546.33	41647.49
546.50	41666.22
546.67	41787.92
546.83	41682.60
547.00	42115.60
547.17	42017.30
547.34	41902.61
547.50	42426.89
547.67	42354.33
547.84	41933.04
548.00	42038.36
548.17	42515.83
548.34	42796.70
548.51	42539.24
548.67	42497.11
548.84	42658.60
549.01	42288.80
549.18	42422.21
549.34	43086.92
549.51	43110.33
549.68	42883.30
549.84	42775.63
550.01	42848.19
550.18	42824.78
550.34	42918.40
550.51	43199.27
550.68	42976.92
550.84	42773.29
551.01	42597.75
551.18	43047.13
551.34	43175.86
551.51	43072.88
551.68	43147.78
551.84	43131.39
552.01	42579.03
552.18	43035.43
552.34	43239.06
552.51	43079.90
552.68	43124.37
552.84	43480.13
553.01	43529.28
553.18	43152.46
553.34	43070.54
553.51	43416.94
553.67	43409.92
553.84	44048.88
554.01	43646.31
554.17	43737.59
554.34	43800.79
554.51	43758.66
554.67	43573.75
554.84	43737.59
555.00	43337.36
555.17	43662.69
555.33	44247.83
555.50	43676.74
555.67	43592.48
555.83	43889.73
556.00	43945.90
556.16	44037.18
556.33	44095.69
556.50	44179.95
556.66	44069.95
556.83	44086.33
556.99	44486.56
557.16	44210.38
557.32	44311.02
557.49	44713.59
557.65	43749.29
557.82	44376.56
557.98	44521.67
558.15	44065.27
558.32	44622.31
558.48	44442.09
558.65	44612.95
558.81	44884.45
558.98	43892.07
559.14	44175.27
559.31	44306.34
559.47	44182.29
559.64	44753.38
559.80	44465.50
559.97	44776.79
560.13	44491.24
560.30	45249.58
560.46	45095.10
560.63	44615.29
560.79	45240.21
560.96	44987.44
561.12	44718.28
561.29	44961.69
561.45	44877.43
561.61	45099.78
561.78	44814.24
561.94	44648.06
562.11	45137.23
562.27	44931.26
562.44	44975.73
562.60	45106.80
562.77	44814.24
562.93	44650.40
563.10	44903.18
563.26	44830.62
563.42	45359.58
563.59	44807.22
563.75	44823.60
563.92	45474.27
564.08	44526.35
564.24	45207.45
564.41	45038.93
564.57	45280.00
564.74	45127.87
564.90	45078.72
565.07	45237.87
565.23	45284.68
565.39	44978.07
565.56	45181.70
565.72	45184.04
565.88	45354.90
566.05	45766.84
566.21	45628.74
566.38	45326.81
566.54	45717.68
566.70	45530.44
566.87	45485.97
567.03	45460.23
567.19	45586.61
567.36	45794.92
567.52	45120.85
567.68	45638.11
567.85	45153.62
568.01	45673.21
568.17	45832.37
568.34	45823.01
568.50	45560.87
568.66	45275.32
568.83	45757.47
568.99	45635.77
569.15	45593.64
569.32	45462.57
569.48	45572.57
569.64	45923.65
569.81	45640.45
569.97	46019.61
570.13	46284.09
570.30	45631.08
570.46	46143.66
570.62	46316.86
570.78	45223.83
570.95	46054.72
571.11	45942.38
571.27	45642.79
571.43	45818.33
571.60	45930.67
571.76	45808.96
571.92	46073.45
572.09	45542.14
572.25	45600.66
572.41	45654.49
572.57	45958.76
572.74	46253.67
572.90	45942.38
573.06	46167.07
573.22	46281.75
573.38	45979.82
573.55	46059.40
573.71	46459.63
573.87	46080.47
574.03	46052.38
574.20	46602.41
574.36	45961.10
574.52	46487.72
574.68	46382.40
574.84	46443.25
575.01	46377.72
575.17	46384.74
575.33	46028.98
575.49	46513.47
575.65	46787.31
575.82	46085.15
575.98	46129.62
576.14	46199.83
576.30	46752.20
576.46	46117.92
576.62	46398.78
576.79	46494.74
576.95	45897.91
577.11	46260.69
577.27	46335.59
577.43	46223.24
577.59	46363.67
577.75	46000.89
577.92	45799.60
578.08	46408.14
578.24	46354.31
578.40	46600.07
578.56	46356.65
578.72	46539.21
578.88	46314.52
579.04	46256.01
579.21	46181.11
579.37	46658.58
579.53	46295.80
579.69	46014.93
579.85	46148.34
580.01	46347.29
580.17	46698.37
580.33	46478.36
580.49	46869.23
580.65	46611.77
580.82	46010.25
580.98	46335.59
581.14	45872.16
581.30	46398.78
581.46	46663.26
581.62	46698.37
581.78	46649.22
581.94	46183.45
582.10	46344.95
582.26	46305.16
582.42	46632.83
582.58	46548.57
582.74	46710.07
582.90	46319.20
583.06	46595.38
583.22	46319.20
583.38	46525.17
583.54	46583.68
583.70	46316.86
583.86	46967.53
584.02	46197.49
584.18	46660.92
584.34	46768.58
584.50	46553.26
584.66	46974.55
584.82	46827.10
584.98	46906.68
585.14	46326.22
585.30	46326.22
585.46	46319.20
585.62	46483.04
585.78	46880.93
585.94	46059.40
586.10	46361.33
586.26	46195.15
586.42	46366.01
586.58	46684.33
586.74	46607.09
586.90	46454.95
587.06	46576.66
587.22	46838.80
587.38	46389.42
587.54	46646.88
587.70	46522.83
587.86	46850.50
588.02	46520.49
588.18	46714.75
588.34	46581.34
588.49	46583.68
588.65	46380.06
588.81	46546.23
588.97	46827.10
589.13	46483.04
589.29	46663.26
589.45	47007.32
589.61	47105.62
589.77	47100.94
589.93	46799.01
590.08	46902.00
590.24	46969.87
590.40	47075.19
590.56	46934.76
590.72	47098.60
590.88	47103.28
591.04	46520.49
591.20	47072.85
591.35	47215.63
591.51	47360.74
591.67	47540.96
591.83	47533.94
591.99	47157.11
592.15	46616.45
592.31	47232.01
592.46	46536.87
592.62	47241.37
592.78	47189.88
592.94	47091.58
593.10	47267.12
593.26	47529.26
593.41	47447.34
593.57	47117.32
593.73	47342.02
593.89	47805.44
594.05	47814.80
594.20	47253.08
594.36	47419.25
594.52	46967.53
594.68	47526.92
594.84	47388.83
594.99	47608.84
595.15	47217.97
595.31	47372.44
595.47	47215.63
595.62	47007.32
595.78	47622.88
595.94	47384.15
596.10	47531.60
596.25	47262.44
596.41	47093.92
596.57	47597.13
596.73	47573.73
596.88	47463.72
597.04	47437.98
597.20	47447.34
597.36	47672.03
597.51	47136.05
597.67	47075.19
597.83	47709.48
597.99	47412.23
598.14	47100.94
598.30	47054.13
598.46	47030.72
598.61	47545.64
598.77	47325.63
598.93	47655.65
599.09	47384.15
599.24	48123.75
599.40	47351.38
599.56	47597.13
599.71	47620.54
599.87	48196.31
600.03	47580.75
600.18	47459.04
600.34	47409.89
600.50	47384.15
600.65	47295.21
600.81	47533.94
600.97	47751.61
601.12	47349.04
601.28	47398.19
601.44	47428.62
601.59	47150.09
601.75	47262.44
601.91	47744.59
602.06	47702.46
602.22	47606.50
602.37	47222.65
602.53	47377.12
602.69	47526.92
602.84	47091.58
603.00	47524.58
603.16	47573.73
603.31	47573.73
603.47	47917.79
603.62	47463.72
603.78	47459.04
603.94	47468.40
604.09	47480.11
604.25	47416.91
604.40	47445.00
604.56	47608.84
604.71	47702.46
604.87	47278.82
605.03	47374.78
605.18	47758.63
605.34	47253.08
605.49	47114.98
605.65	47597.13
605.80	47103.28
605.96	47004.98
606.12	47224.99
606.27	47400.53
606.43	46974.55
606.58	47639.26
606.74	47597.13
606.89	47236.69
607.05	47470.75
607.20	47882.68
607.36	46967.53
607.51	46993.28
607.67	47028.38
607.82	47000.30
607.98	47285.84
608.13	47227.33
608.29	47072.85
608.44	47267.12
608.60	47615.86
608.75	47150.09
608.91	47274.14
609.06	47227.33
609.22	47435.64
609.37	47086.90
609.53	47571.39
609.68	47847.57
609.84	46770.93
609.99	46986.25
610.15	47370.10
610.30	47210.95
610.46	47402.87
610.61	47367.76
610.76	47054.13
610.92	46607.09
611.07	46721.77
611.23	46656.24
611.38	47009.66
611.54	47199.24
611.69	47068.17
611.84	47234.35
612.00	47192.22
612.15	46801.35
612.31	46934.76
612.46	46731.14
612.62	47274.14
612.77	46981.57
612.92	47234.35
613.08	46447.93
613.23	46857.52
613.39	46403.46
613.54	47180.52
613.69	47061.15
613.85	47161.79
614.00	46787.31
614.15	46951.15
614.31	46532.19
614.46	46934.76
614.62	46579.00
614.77	46616.45
614.92	46452.61
615.08	46705.39
615.23	46934.76
615.38	46852.84
615.54	46527.51
615.69	46515.81
615.84	46548.57
616.00	46621.13
616.15	47105.62
616.30	47096.26
616.46	46337.93
616.61	46227.92
616.76	46733.48
616.92	46382.40
617.07	46696.03
617.22	46632.83
617.37	46281.75
617.53	46335.59
617.68	46096.85
617.83	46445.59
617.99	46564.96
618.14	46932.42
618.29	46323.88
618.45	46199.83
618.60	46160.05
618.75	45783.22
618.90	46476.02
619.06	46054.72
619.21	46387.08
619.36	46354.31
619.51	45916.63
619.67	45801.94
619.82	46443.25
619.97	46164.73
620.12	46234.94
620.28	45881.52
620.43	46232.60
620.58	46609.43
620.73	46351.97
620.89	46396.44
621.04	46326.22
621.19	45886.20
621.34	45846.41
621.49	45577.25
621.65	46300.48
621.80	46380.06
621.95	45666.19
622.10	45773.86
622.25	45972.80
622.41	45839.39
622.56	46092.17
622.71	46038.34
622.86	45902.59
623.01	46167.07
623.16	45851.09
623.32	45942.38
623.47	45687.26
623.62	45815.99
623.77	46092.17
623.92	45977.48
624.07	45661.51
624.23	46087.49
624.38	45530.44
624.53	45797.26
624.68	45537.46
624.83	45703.64
624.98	45315.11
625.13	45214.47
625.29	45371.28
625.44	45127.87
625.59	45551.51
625.74	45600.66
625.89	45064.67
626.04	45478.95
626.19	45088.08
626.34	44982.76
626.49	44994.46
626.65	44961.69
626.80	45436.82
626.95	45078.72
627.10	44935.95
627.25	45270.64
627.40	45329.16
627.55	45244.90
627.70	44879.77
627.85	45338.52
628.00	44877.43
628.15	45516.40
628.30	44573.16
628.45	44327.41
628.60	44559.12
628.76	45207.45
628.91	44809.56
629.06	44598.91
629.21	44612.95
629.36	44133.14
629.51	44825.94
629.66	44851.69
629.81	44486.56
629.96	44783.81
630.11	44383.58
630.26	44151.87
630.41	44744.02
630.56	44327.41
630.71	44538.05
630.86	44201.02
631.01	44285.28
631.16	44353.15
631.31	44526.35
631.46	44313.36
631.61	44746.36
631.76	44313.36
631.91	44737.00
632.06	45181.70
632.21	44381.24
632.36	44584.86
632.51	44027.82
632.66	44233.78
632.81	43871.00
632.96	44299.32
633.10	44112.08
633.25	43896.75
633.40	44540.39
633.55	44435.07
633.70	43992.71
633.85	44048.88
634.00	43770.36
634.15	43625.25
634.30	43999.73
634.45	43737.59
634.60	44147.18
634.75	44018.46
634.90	44009.09
635.05	43878.02
635.19	43732.91
635.34	43938.88
635.49	43988.03
635.64	43875.68
635.79	44278.25
635.94	43948.24
636.09	44156.55
636.24	43985.69
636.39	43761.00
636.53	44114.42
636.68	43402.89
636.83	43082.24
636.98	43318.64
637.13	42756.91
637.28	43311.61
637.43	43505.88
637.57	43782.06
637.72	42988.62
637.87	43515.24
638.02	43440.34
638.17	43498.86
638.32	43320.98
638.46	43103.31
638.61	43299.91
638.76	43096.28
638.91	43225.01
639.06	43133.73
639.20	42506.47
639.35	42960.53
639.50	42806.06
639.65	43299.91
639.80	43555.03
639.94	43501.20
640.09	43016.71
640.24	43267.14
640.39	42822.44
640.54	42373.06
640.68	43550.35
640.83	43346.72
640.98	43070.54
641.13	42469.02
641.27	42686.69
641.42	43019.05
641.57	42632.86
641.72	42866.91
641.86	42618.81
642.01	42328.59
642.16	42738.18
642.31	42043.04
642.45	42686.69
642.60	42181.13
642.75	42742.86
642.90	42997.98
643.04	42717.12
643.19	42066.45
643.34	42295.82
643.48	42176.45
643.63	42047.72
643.78	42546.26
643.93	42359.02
644.07	42478.38
644.22	42237.31
644.37	42380.08
644.51	42155.39
644.66	42429.23
644.81	42305.18
644.95	42705.41
645.10	42300.50
645.25	42171.77
645.39	41986.87
645.54	41940.06
645.69	41661.54
645.83	41703.67
645.98	41560.89
646.13	42232.63
646.27	41834.74
646.42	41404.08
646.57	42277.10
646.71	42162.41
646.86	42342.63
647.00	41743.45
647.15	41844.10
647.30	42019.64
647.44	41947.08
647.59	41734.09
647.74	41366.63
647.88	42050.06
648.03	42256.03
648.17	41734.09
648.32	42064.11
648.47	41647.49
648.61	41780.90
648.76	41717.71
648.90	41593.66
649.05	41881.55
649.20	41446.21
649.34	41897.93
649.49	41827.71
649.63	41584.30
649.78	41516.42
649.92	41551.53
650.07	42103.90
650.21	41497.70
650.36	41581.96
650.51	41322.16
650.65	41404.08
650.80	41722.39
650.94	41432.16
651.09	41155.98
651.23	40795.54
651.38	41202.79
651.52	40769.79
651.67	41226.20
651.81	41062.36
651.96	41273.01
652.10	40849.37
652.25	40863.41
652.39	41237.90
652.54	41010.87
652.68	40769.79
652.83	41078.74
652.97	40957.03
653.12	41579.62
653.26	40832.99
653.41	40893.84
653.55	40961.72
653.70	41020.23
653.84	41265.99
653.99	40580.21
654.13	41083.42
654.27	40657.45
654.42	40802.56
654.56	40175.30
654.71	40875.12
654.85	40746.39
655.00	40641.06
655.14	40966.40
655.29	40809.58
655.43	40907.88
655.57	40093.38
655.72	40210.40
655.86	40041.88
656.01	40828.30
656.15	40472.54
656.30	40528.72
656.44	40481.91
656.58	40549.78
656.73	40811.92
656.87	39840.60
657.01	39739.96
657.16	40299.34
657.30	40435.10
657.45	39938.90
657.59	40126.14
657.73	39938.90
657.88	39957.63
658.02	40397.65
658.16	40559.14
658.31	39597.18
658.45	40315.73
658.60	39878.05
658.74	39999.76
658.88	39826.56
659.03	39718.89
659.17	39868.69
659.31	39686.12
659.46	39349.09
659.60	39613.57
659.74	39470.79
659.89	39585.48
660.03	39239.08
660.17	39503.56
660.32	39157.16
660.46	39229.72
660.60	38990.98
660.74	39311.64
660.89	38904.38
661.03	38625.86
661.17	39100.99
661.32	38696.08
661.46	39377.17
661.60	38555.64
661.74	38623.52
661.89	38649.27
662.03	38602.46
662.17	38756.93
662.31	38672.67
662.46	38848.21
662.60	38761.61
662.74	38251.38
662.88	38471.39
663.03	38143.71
663.17	38101.58
663.31	38415.21
663.45	38698.42
663.60	38653.95
663.74	38103.92
663.88	38265.42
664.02	37928.38
664.17	38412.87
664.31	38260.74
664.45	38438.62
664.59	38162.43
664.73	37996.26
664.88	38092.22
665.02	37661.56
665.16	37633.47
665.30	37502.40
665.44	37535.17
665.59	37298.78
665.73	37734.12
665.87	37202.82
666.01	37326.86
666.15	37481.34
666.29	37605.39
666.44	37317.50
666.58	37139.62
666.72	36694.92
666.86	36851.73
667.00	36825.99
667.14	37184.09
667.28	36821.31
667.43	37099.83
667.57	37251.97
667.71	36833.01
667.85	37277.71
667.99	36624.70
668.13	36488.95
668.27	36364.90
668.41	36594.28
668.56	35796.15
668.70	36456.18
668.84	35782.11
668.98	35978.72
669.12	36062.97
669.26	36247.88
669.40	36156.60
669.54	36013.82
669.68	36315.75
669.82	36205.75
669.96	35337.41
670.10	35765.73
670.25	35412.31
670.39	35445.07
670.53	35424.01
670.67	35342.09
670.81	35400.60
670.95	35412.31
671.09	34925.47
671.23	35171.23
671.37	35297.62
671.51	34834.19
671.65	34824.83
671.79	34976.97
671.93	34820.15
672.07	35168.89
672.21	34855.26
672.35	34492.47
672.49	34670.36
672.63	34782.70
672.77	34401.19
672.91	34635.25
673.05	34122.67
673.19	34045.43
673.33	33944.79
673.47	34195.23
673.61	33771.59
673.75	33731.80
673.89	33673.29
674.03	33694.35
674.17	33598.39
674.31	33457.96
674.45	33413.49
674.59	33322.21
674.73	33617.11
674.87	33184.12
675.01	33083.47
675.15	32669.20
675.29	32598.98
675.43	32486.64
675.56	32854.10
675.70	32570.90
675.84	32540.47
675.98	31667.45
676.12	32594.30
676.26	33013.26
676.40	32292.37
676.54	31838.31
676.68	32320.46
676.82	31845.33
676.96	31775.11
677.10	32123.85
677.23	31826.60
677.37	31370.20
677.51	31793.84
677.65	31487.23
677.79	31800.86
677.93	31510.63
678.07	31475.52
678.21	31283.60
678.34	31072.95
678.48	30859.96
678.62	30857.62
678.76	30588.46
678.90	30443.35
679.04	30543.99
679.18	30883.37
679.31	30302.92
679.45	30206.95
679.59	30274.83
679.73	30433.99
679.87	29841.83
680.00	30181.21
680.14	29890.98
680.28	30022.05
680.42	29680.33
680.56	29603.10
680.70	29376.06
680.83	29123.29
680.97	29273.08
681.11	29043.71
681.25	29097.54
681.39	29057.75
681.52	28734.76
681.66	28559.22
681.80	28063.02
681.94	28425.81
682.07	28231.54
682.21	28086.43
682.35	27953.02
682.49	28093.45
682.62	28194.09
682.76	28011.53
682.90	28158.99
683.04	27873.44
683.17	27866.42
683.31	27344.48
683.45	27122.13
683.59	27122.13
683.72	27131.49
683.86	27360.86
684.00	26735.94
684.13	26979.36
684.27	26852.97
684.41	26663.38
684.55	26941.91
684.68	26422.31
684.82	26480.82
684.96	26450.39
685.09	26518.27
685.23	26377.84
685.37	26511.25
685.50	26721.90
685.64	26031.44
685.78	26146.12
685.91	25891.01
686.05	25469.71
686.19	25116.29
686.32	25617.16
686.46	25062.46
686.60	25228.63
686.73	25158.42
686.87	24842.45
687.01	25336.30
687.14	25275.45
687.28	25097.56
687.42	24783.93
687.55	24795.64
687.69	24643.50
687.82	24226.89
687.96	24091.13
688.10	24491.37
688.23	24367.32
688.37	24250.29
688.50	24372.00
688.64	24100.50
688.78	23946.02
688.91	23716.65
689.05	23885.17
689.18	23728.35
689.32	22787.46
689.46	23267.27
689.59	23105.77
689.73	23527.06
689.86	23543.45
690.00	23248.54
690.13	23307.05
690.27	23136.20
690.41	23438.12
690.54	22405.95
690.68	22462.12
690.81	22611.92
690.95	22583.83
691.08	22155.51
691.22	22237.43
691.35	21734.21
691.49	22419.99
691.62	22246.79
691.76	21898.05
691.89	21745.92
692.03	21366.75
692.16	21462.71
692.30	21455.69
692.43	21223.98
692.57	21095.25
692.70	21362.07
692.84	21139.72
692.97	20957.16
693.11	21142.06
693.24	20900.98
693.38	20788.64
693.51	20519.48
693.65	20636.50
693.78	20467.98
693.92	20299.47
694.05	20208.19
694.19	20126.27
694.32	20451.60
694.45	20287.76
694.59	20383.73
694.72	20383.73
694.86	19960.09
694.99	19524.75
695.13	19908.60
695.26	19499.00
695.39	19346.87
695.53	19133.88
695.66	19300.06
695.80	19391.34
695.93	19276.65
696.07	19007.49
696.20	18731.31
696.33	18078.30
696.47	18649.39
696.60	18501.93
696.73	18785.14
696.87	18518.32
697.00	18466.83
697.14	18504.28
697.27	18073.62
697.40	18221.07
697.54	18218.73
697.67	17848.93
697.80	18038.51
697.94	18071.28
698.07	17715.51
698.21	17881.69
698.34	17528.27
698.47	17516.57
698.61	17385.50
698.74	17027.40
698.87	17224.00
699.01	16947.82
699.14	16879.94
699.27	16945.48
699.40	17121.02
699.54	16678.66
699.67	16882.28
699.80	16676.32
699.94	16585.04
700.07	16664.61
700.20	16500.78
700.34	16393.11
700.47	16428.22
700.60	16613.12
700.73	16313.53
700.87	16320.56
701.00	16072.46
701.13	16018.63
701.26	15793.94
701.40	15992.88
701.53	15662.86
701.66	15590.31
701.79	15672.23
701.93	15428.81
702.06	15264.97
702.19	15126.88
702.32	15346.89
702.46	15433.49
702.59	15246.25
702.72	15248.59
702.85	15190.08
702.99	14949.00
703.12	15042.62
703.25	14731.33
703.38	14628.35
703.51	14574.52
703.65	14434.08
703.78	14375.57
703.91	14305.35
704.04	14235.14
704.17	14190.67
704.31	14083.00
704.44	14073.64
704.57	14239.82
704.70	13823.20
704.83	13935.55
704.96	13540.00
705.10	13884.06
705.23	13785.76
>>>>>End Processed Spectral Data<<<<<
