SpectraSuite Data File
++++++++++++++++++++++++++++++++++++
Date: Fri Oct 25 10:44:19 EDT 2013
User: price-jones
Dark Spectrum Present: No
Reference Spectrum Present: No
Number of Sampled Component Spectra: 1
Spectrometers: USB2+H05261
Integration Time (usec): 100000 (USB2+H05261)
Spectra Averaged: 1 (USB2+H05261)
Boxcar Smoothing: 0 (USB2+H05261)
Correct for Electrical Dark: No (USB2+H05261)
Strobe/Lamp Enabled: No (USB2+H05261)
Correct for Detector Non-linearity: No (USB2+H05261)
Correct for Stray Light: No (USB2+H05261)
Number of Pixels in Processed Spectrum: 2048
>>>>>Begin Processed Spectral Data<<<<<
365.73	95.96
365.92	95.96
366.12	95.96
366.32	11.70
366.52	4.68
366.72	0.00
366.91	14.04
367.11	56.17
367.31	63.19
367.51	58.51
367.70	9.36
367.90	21.06
368.10	0.00
368.30	18.72
368.49	46.81
368.69	63.19
368.89	0.00
369.09	28.09
369.28	44.47
369.48	63.19
369.68	7.02
369.87	121.71
370.07	86.60
370.27	107.66
370.47	273.84
370.66	388.53
370.86	470.45
371.06	468.11
371.25	458.74
371.45	484.49
371.65	451.72
371.84	475.13
372.04	468.11
372.24	493.85
372.44	479.81
372.63	582.79
372.83	500.87
373.03	552.37
373.22	486.83
373.42	505.56
373.62	486.83
373.81	512.58
374.01	603.86
374.21	578.11
374.40	552.37
374.60	526.62
374.79	568.75
374.99	638.97
375.19	636.63
375.38	650.67
375.58	596.84
375.78	594.50
375.97	650.67
376.17	613.22
376.37	554.71
376.56	571.09
376.76	573.43
376.95	587.47
377.15	641.31
377.35	690.46
377.54	664.71
377.74	683.44
377.93	620.24
378.13	660.03
378.33	692.80
378.52	690.46
378.72	734.93
378.91	674.07
379.11	634.29
379.31	650.67
379.50	664.71
379.70	704.50
379.89	739.61
380.09	645.99
380.28	636.63
380.48	671.73
380.68	786.42
380.87	746.63
381.07	711.52
381.26	802.80
381.46	718.54
381.65	774.72
381.85	730.25
382.04	716.20
382.24	720.88
382.43	662.37
382.63	734.93
382.83	711.52
383.02	741.95
383.22	814.51
383.41	739.61
383.61	772.38
383.80	816.85
384.00	692.80
384.19	767.70
384.39	837.91
384.58	842.59
384.78	866.00
384.97	903.45
385.17	777.06
385.36	880.04
385.56	889.40
385.75	903.45
385.95	833.23
386.14	828.55
386.34	884.72
386.53	901.11
386.72	830.89
386.92	959.62
387.11	919.83
387.31	940.90
387.50	784.08
387.70	882.38
387.89	908.13
388.09	842.59
388.28	863.66
388.48	924.51
388.67	997.07
388.86	1008.77
389.06	1013.45
389.25	1027.50
389.45	961.96
389.64	1020.47
389.84	1029.84
390.03	1097.71
390.22	1071.97
390.42	961.96
390.61	987.71
390.81	1118.78
391.00	1090.69
391.19	1013.45
391.39	1132.82
391.58	1022.81
391.78	1043.88
391.97	1034.52
392.16	1008.77
392.36	1060.26
392.55	1102.39
392.75	950.26
392.94	976.00
393.13	1163.25
393.33	973.66
393.52	1067.28
393.71	1102.39
393.91	1219.42
394.10	1165.59
394.29	1174.95
394.49	1193.67
394.68	1191.33
394.88	1233.46
395.07	1277.93
395.26	1184.31
395.46	1217.08
395.65	1313.04
395.84	1345.81
396.04	1291.98
396.23	1245.16
396.42	1205.38
396.62	1291.98
396.81	1341.13
397.00	1284.95
397.19	1376.24
397.39	1425.39
397.58	1420.71
397.77	1376.24
397.97	1411.34
398.16	1469.86
398.35	1502.62
398.55	1481.56
398.74	1453.47
398.93	1521.35
399.12	1523.69
399.32	1607.95
399.51	1516.67
399.70	1640.72
399.90	1586.88
400.09	1612.63
400.28	1734.34
400.47	1577.52
400.67	1710.93
400.86	1617.31
401.05	1685.19
401.24	1851.36
401.44	1820.94
401.63	1743.70
401.82	1739.02
402.01	1877.11
402.21	1774.13
402.40	1825.62
402.59	1867.75
402.78	1776.47
402.97	1884.13
403.17	1802.21
403.36	1879.45
403.55	1975.41
403.74	2001.16
403.93	1895.83
404.13	1907.54
404.32	1935.62
404.51	1837.32
404.70	1959.03
404.89	1893.49
405.09	2076.06
405.28	2071.37
405.47	2036.27
405.66	2087.76
405.85	2029.24
406.05	1980.09
406.24	2031.58
406.43	2054.99
406.62	2148.61
406.81	2076.06
407.00	2172.02
407.20	2169.68
407.39	2132.23
407.58	2090.10
407.77	2211.81
407.96	2265.64
408.15	2342.88
408.34	2324.15
408.54	2310.11
408.73	2267.98
408.92	2349.90
409.11	2523.10
409.30	2466.92
409.49	2349.90
409.68	2380.32
409.87	2305.43
410.07	2408.41
410.26	2506.71
410.45	2403.73
410.64	2464.58
410.83	2567.57
411.02	2609.70
411.21	2696.30
411.40	2626.08
411.59	2677.57
411.78	2839.07
411.98	2754.81
412.17	2750.13
412.36	2806.30
412.55	2822.69
412.74	2822.69
412.93	2899.92
413.12	2787.58
413.31	2986.52
413.50	2890.56
413.69	2871.84
413.88	3126.96
414.07	2988.86
414.26	3038.02
414.45	3056.74
414.64	3150.36
414.83	3173.77
415.02	3087.17
415.22	3087.17
415.41	3272.07
415.60	3332.92
415.79	3251.00
415.98	3208.87
416.17	3389.10
416.36	3358.67
416.55	3372.71
416.74	3321.22
416.93	3300.16
417.12	3487.40
417.31	3494.42
417.50	3616.13
417.69	3719.11
417.88	3583.36
418.07	3473.36
418.26	3517.83
418.45	3557.61
418.64	3709.75
418.83	3571.66
419.02	3648.90
419.21	3541.23
419.39	3693.37
419.58	3712.09
419.77	3651.24
419.96	3873.59
420.15	3730.81
420.34	3878.27
420.53	3712.09
420.72	3899.33
420.91	3868.91
421.10	3922.74
421.29	3960.19
421.48	3936.78
421.67	4114.66
421.86	3889.97
422.05	4014.02
422.24	3941.46
422.43	4018.70
422.61	4098.28
422.80	4084.23
422.99	3971.89
423.18	3950.82
423.37	4060.83
423.56	3992.95
423.75	4011.68
423.94	3985.93
424.13	3756.56
424.32	3967.21
424.50	4074.87
424.69	4131.05
424.88	4093.60
425.07	4128.70
425.26	3908.69
425.45	4004.66
425.64	3985.93
425.83	4032.74
426.01	4369.78
426.20	4198.92
426.39	4046.79
426.58	4100.62
426.77	4056.15
426.96	4124.02
427.15	4117.00
427.33	4308.93
427.52	4269.14
427.71	4358.08
427.90	4255.09
428.09	4500.85
428.28	4241.05
428.46	4252.75
428.65	4191.90
428.84	4353.40
429.03	4402.55
429.22	4243.39
429.40	4250.41
429.59	4067.85
429.78	4023.38
429.97	4098.28
430.16	4126.36
430.34	4208.28
430.53	4353.40
430.72	4269.14
430.91	4320.63
431.10	4449.36
431.28	4732.56
431.47	4704.48
431.66	5032.15
431.85	4746.61
432.03	4704.48
432.22	4760.65
432.41	4861.29
432.60	4751.29
432.79	4889.38
432.97	4765.33
433.16	4877.68
433.35	4699.80
433.54	4770.01
433.72	4917.47
433.91	4837.89
434.10	4849.59
434.28	4975.98
434.47	4894.06
434.66	5057.90
434.85	5034.49
435.03	5224.08
435.22	4926.83
435.41	5338.76
435.59	5151.52
435.78	5254.50
435.97	5280.25
436.16	5153.86
436.34	5107.05
436.53	5385.57
436.72	5334.08
436.90	5273.23
437.09	5408.98
437.28	5329.40
437.46	5455.79
437.65	5324.72
437.84	5348.12
438.02	5270.89
438.21	5359.83
438.40	5273.23
438.58	5441.75
438.77	5533.03
438.96	5715.59
439.14	5750.70
439.33	5645.37
439.52	5849.00
439.70	5802.19
439.89	5724.95
440.08	5940.28
440.26	6059.65
440.45	5973.05
440.63	6108.80
440.82	6181.35
441.01	6087.73
441.19	6073.69
441.38	6179.01
441.57	6464.56
441.75	6384.98
441.94	6417.75
442.12	6356.90
442.31	6579.25
442.50	6527.75
442.68	6572.22
442.87	6490.31
443.05	6532.44
443.24	6534.78
443.43	6670.53
443.61	6562.86
443.80	6794.58
443.98	6675.21
444.17	6401.37
444.35	6773.51
444.54	6881.18
444.73	6707.98
444.91	6715.00
445.10	6780.53
445.28	6649.46
445.47	6562.86
445.65	6705.63
445.84	6670.53
446.02	6729.04
446.21	6644.78
446.39	6862.45
446.58	6935.01
446.77	6839.05
446.95	6820.32
447.14	7068.42
447.32	6878.83
447.51	6913.94
447.69	6967.77
447.88	6991.18
448.06	6949.05
448.25	6883.52
448.43	7119.91
448.62	6747.76
448.80	7030.97
448.99	7035.65
449.17	6911.60
449.36	7140.97
449.54	7204.17
449.73	7403.11
449.91	7197.15
450.10	7595.04
450.28	7503.76
450.46	7550.57
450.65	7344.60
450.83	7503.76
451.02	7515.46
451.20	7538.87
451.39	7407.80
451.57	7410.14
451.76	7445.24
451.94	7344.60
452.13	7459.29
452.31	7297.79
452.49	7311.83
452.68	7520.14
452.86	7410.14
453.05	7379.71
453.23	7513.12
453.42	7716.75
453.60	7510.78
453.78	7901.65
453.97	7405.46
454.15	7658.23
454.34	7651.21
454.52	7953.14
454.70	7775.26
454.89	7770.58
455.07	7829.09
455.26	8084.21
455.44	7866.54
455.62	8044.42
455.81	8119.32
455.99	8124.00
456.17	8030.38
456.36	8191.88
456.54	8121.66
456.73	8372.10
456.91	8386.14
457.09	8313.58
457.28	8248.05
457.46	8304.22
457.64	8505.51
457.83	8332.31
458.01	8177.83
458.19	8615.51
458.38	8231.66
458.56	8599.13
458.74	8629.56
458.93	8358.05
459.11	8557.00
459.29	8484.44
459.48	8517.21
459.66	8418.91
459.84	8664.66
460.03	8678.71
460.21	8901.06
460.39	8823.82
460.57	8631.90
460.76	8868.29
460.94	8980.64
461.12	8999.36
461.31	8894.04
461.49	8952.55
461.67	9008.72
461.85	9163.20
462.04	9109.36
462.22	9371.50
462.40	9565.77
462.59	8957.23
462.77	9202.99
462.95	9277.88
463.13	9041.49
463.32	9210.01
463.50	9305.97
463.68	9338.74
463.86	9383.21
464.05	9446.40
464.23	9294.27
464.41	9224.05
464.59	9200.65
464.78	9483.85
464.96	9427.68
465.14	9373.85
465.32	9619.60
465.50	9643.01
465.69	9657.05
465.87	9481.51
466.05	9451.08
466.23	9465.13
466.41	9305.97
466.60	9621.94
466.78	9465.13
466.96	9542.36
467.14	9537.68
467.32	9755.35
467.51	9738.97
467.69	9633.64
467.87	9647.69
468.05	9944.94
468.23	9633.64
468.41	9671.09
468.60	9982.38
468.78	9813.87
468.96	9884.08
469.14	9994.09
469.32	10083.03
469.50	9682.80
469.69	10207.08
469.87	9958.98
470.05	10059.62
470.23	10087.71
470.41	10143.88
470.59	10076.01
470.77	10260.91
470.95	10300.70
471.14	10499.64
471.32	10469.22
471.50	10740.72
471.68	10628.37
471.86	10593.26
472.04	10773.49
472.22	10963.07
472.40	10593.26
472.58	10785.19
472.77	10974.77
472.95	10757.10
473.13	11068.39
473.31	10972.43
473.49	10836.68
473.67	10998.18
473.85	11068.39
474.03	11389.05
474.21	11206.48
474.39	11190.10
474.57	11335.21
474.75	11754.17
474.93	11573.95
475.12	11452.24
475.30	11562.25
475.48	11648.85
475.66	11597.35
475.84	11555.22
476.02	11875.88
476.20	11810.34
476.38	11695.66
476.56	12002.27
476.74	11992.90
476.92	12121.63
477.10	12313.56
477.28	12531.23
477.46	12409.52
477.64	12556.97
477.82	12617.83
478.00	12917.42
478.18	13069.55
478.36	12959.55
478.54	13118.70
478.72	13184.24
478.90	13516.59
479.08	13394.89
479.26	13462.76
479.44	13502.55
479.62	13891.08
479.80	13708.52
479.98	13799.80
480.16	14071.30
480.34	14064.28
480.52	14284.29
480.70	14118.11
480.88	14253.86
481.06	14359.19
481.24	14319.40
481.41	14649.41
481.59	14967.73
481.77	14967.73
481.95	14874.10
482.13	15012.20
482.31	15047.30
482.49	15452.22
482.67	15346.89
482.85	15426.47
483.03	15442.85
483.21	15859.47
483.39	15854.79
483.57	15737.76
483.74	15955.43
483.92	16208.21
484.10	16292.47
484.28	16575.67
484.46	16645.89
484.64	16753.55
484.82	16362.69
485.00	16814.41
485.18	16891.65
485.35	17139.74
485.53	16692.70
485.71	16697.38
485.89	16723.13
486.07	16908.03
486.25	16982.93
486.43	17071.87
486.61	17514.23
486.78	17577.42
486.96	18050.21
487.14	18125.11
487.32	18270.22
487.50	18581.51
487.68	18853.02
487.85	18743.01
488.03	19023.87
488.21	19241.54
488.39	19082.39
488.57	19192.39
488.75	19386.66
488.92	19543.47
489.10	20123.93
489.28	20053.71
489.46	20292.44
489.64	20086.48
489.81	20688.00
489.99	20893.96
490.17	20950.14
490.35	21228.66
490.53	20879.92
490.70	21041.42
490.88	21034.39
491.06	21308.24
491.24	21022.69
491.41	21727.19
491.59	21460.37
491.77	21394.84
491.95	21626.55
492.13	21823.16
492.30	22082.95
492.48	22082.95
492.66	22450.42
492.84	22419.99
493.01	22677.45
493.19	22579.15
493.37	22757.03
493.54	22838.95
493.72	23274.29
493.90	23192.37
494.08	23690.90
494.25	24070.07
494.43	24020.92
494.61	24318.17
494.79	24437.53
494.96	23857.08
495.14	23868.78
495.32	24173.05
495.49	24381.36
495.67	24872.87
495.85	24751.17
496.02	24584.99
496.20	25053.09
496.38	24996.92
496.55	25357.36
496.73	25825.47
496.91	25284.81
497.09	26026.76
497.26	25544.61
497.44	25921.43
497.62	26326.35
497.79	26408.26
497.97	26001.01
498.14	26176.55
498.32	26204.64
498.50	26176.55
498.67	26799.13
498.85	26899.78
499.03	27171.28
499.20	26822.54
499.38	26656.36
499.56	26902.12
499.73	27007.44
499.91	27138.51
500.08	27187.66
500.26	27007.44
500.44	27484.91
500.61	27433.42
500.79	27204.05
500.97	27606.62
501.14	28013.87
501.32	27697.90
501.49	28030.26
501.67	27831.31
501.84	28060.68
502.02	28009.19
502.20	28322.82
502.37	28615.39
502.55	28390.70
502.72	28699.65
502.90	28737.10
503.07	28685.61
503.25	28837.74
503.43	28641.14
503.60	29216.91
503.78	29015.62
503.95	29163.08
504.13	29420.53
504.30	29378.40
504.48	29333.93
504.65	29633.52
504.83	29905.02
505.01	29921.41
505.18	29900.34
505.36	30415.26
505.53	30253.76
505.71	30558.03
505.88	30000.99
506.06	30391.86
506.23	30522.93
506.41	30389.52
506.58	30632.93
506.76	30761.66
506.93	30733.57
507.11	31070.61
507.28	30803.79
507.46	30803.79
507.63	30801.45
507.81	30747.62
507.98	31248.49
508.16	31271.90
508.33	31175.94
508.50	31498.93
508.68	31866.39
508.85	31819.58
509.03	31885.12
509.20	32051.30
509.38	31943.63
509.55	31971.72
509.73	32055.98
509.90	31899.16
510.08	32135.56
510.25	32161.30
510.42	32772.18
510.60	32453.87
510.77	32929.00
510.95	32835.38
511.12	32673.88
511.30	33006.23
511.47	33535.20
511.64	33207.52
511.82	33530.51
511.99	32760.48
512.17	32947.72
512.34	33165.39
512.51	33085.81
512.69	33734.14
512.86	33511.79
513.04	33479.02
513.21	33722.44
513.38	33537.54
513.56	33876.91
513.73	33614.77
513.90	33841.81
514.08	33755.21
514.25	33895.64
514.43	33933.09
514.60	33670.95
514.77	33958.83
514.95	34342.68
515.12	34841.21
515.29	34668.02
515.47	34677.38
515.64	34923.13
515.81	35047.18
515.99	34361.40
516.16	34433.96
516.33	34422.26
516.51	34513.54
516.68	34309.91
516.85	34010.32
517.03	34635.25
517.20	34693.76
517.37	34616.52
517.54	35077.61
517.72	35325.71
517.89	34583.76
518.06	34649.29
518.24	35049.52
518.41	35351.45
518.58	35171.23
518.75	35318.68
518.93	35360.81
519.10	35732.96
519.27	35592.53
519.45	36004.46
519.62	36292.35
519.79	36285.33
519.96	36121.49
520.14	36217.45
520.31	36327.45
520.48	36128.51
520.65	36404.69
520.83	37034.30
521.00	36903.23
521.17	36795.56
521.34	36666.83
521.52	36985.15
521.69	36837.69
521.86	37139.62
522.03	37177.07
522.20	37340.91
522.38	37443.89
522.55	37628.79
522.72	37518.79
522.89	37401.76
523.07	37455.59
523.24	37570.28
523.41	37769.22
523.58	37696.67
523.75	38529.90
523.92	38450.32
524.10	38263.08
524.27	38249.03
524.44	38148.39
524.61	38190.52
524.78	38480.75
524.96	38562.67
525.13	38405.85
525.30	38726.50
525.47	38766.29
525.64	38763.95
525.81	38689.06
525.98	38710.12
526.16	38333.29
526.33	37820.72
526.50	38487.77
526.67	38050.09
526.84	38190.52
527.01	38148.39
527.18	38707.78
527.36	38831.83
527.53	39475.48
527.70	39349.09
527.87	39297.59
528.04	39562.08
528.21	39276.53
528.38	39651.02
528.55	39651.02
528.72	39997.41
528.89	40205.72
529.07	39786.77
529.24	39597.18
529.41	39828.90
529.58	39854.64
529.75	39381.85
529.92	40072.31
530.09	40060.61
530.26	40048.91
530.43	40137.85
530.60	39976.35
530.77	40142.53
530.94	40589.57
531.11	40399.99
531.28	40648.08
531.46	40673.83
531.63	40863.41
531.80	40774.47
531.97	40294.66
532.14	40467.86
532.31	40528.72
532.48	40390.62
532.65	40566.16
532.82	40669.15
532.99	40739.36
533.16	40666.81
533.33	40697.24
533.50	41139.60
533.67	40825.96
533.84	40720.64
534.01	40652.76
534.18	41256.62
534.35	41170.02
534.52	41441.53
534.69	41308.11
534.86	41291.73
535.03	41596.00
535.20	41846.44
535.37	41853.46
535.54	42033.68
535.71	41563.23
535.88	41619.41
536.05	41530.47
536.22	41661.54
536.38	41509.40
536.55	41275.35
536.72	41841.76
536.89	41539.83
537.06	41900.27
537.23	42059.43
537.40	42080.49
537.57	41860.48
537.74	42295.82
537.91	42366.04
538.08	41755.16
538.25	41820.69
538.42	42223.26
538.59	42433.91
538.75	42220.92
538.92	42003.25
539.09	41804.31
539.26	42181.13
539.43	42714.78
539.60	42113.26
539.77	41923.68
539.94	42562.64
540.11	42057.09
540.28	42469.02
540.44	42309.86
540.61	41883.89
540.78	41977.51
540.95	42213.90
541.12	42415.19
541.29	42616.47
541.46	43047.13
541.62	43192.25
541.79	42967.55
541.96	42572.00
542.13	42726.48
542.30	42546.26
542.47	42988.62
542.63	43063.52
542.80	42939.47
542.97	43430.98
543.14	43739.93
543.31	43344.38
543.48	43585.46
543.64	43597.16
543.81	43821.85
543.98	43938.88
544.15	43749.29
544.32	44208.04
544.48	43826.53
544.65	43807.81
544.82	43875.68
544.99	43814.83
545.16	43873.34
545.32	43667.37
545.49	44519.33
545.66	44362.51
545.83	44369.54
546.00	44353.15
546.16	43976.33
546.33	44275.91
546.50	43634.61
546.67	44201.02
546.83	43346.72
547.00	44271.23
547.17	44254.85
547.34	43920.15
547.50	44528.69
547.67	44402.30
547.84	44470.18
548.00	44406.98
548.17	45200.43
548.34	44626.99
548.51	44898.50
548.67	44425.71
548.84	44767.43
549.01	44425.71
549.18	44687.85
549.34	44648.06
549.51	44863.39
549.68	45078.72
549.84	44823.60
550.01	44954.67
550.18	44839.98
550.34	44713.59
550.51	44493.58
550.68	44886.79
550.84	44603.59
551.01	44882.11
551.18	45331.50
551.34	44685.51
551.51	45202.77
551.68	44949.99
551.84	45242.56
552.01	45078.72
552.18	45029.57
552.34	45132.55
552.51	45020.20
552.68	44966.37
552.84	45291.71
553.01	45275.32
553.18	45027.23
553.34	45382.99
553.51	45319.79
553.67	45645.13
553.84	45872.16
554.01	45411.07
554.17	45708.32
554.34	45815.99
554.51	45792.58
554.67	45940.04
554.84	45593.64
555.00	45715.34
555.17	45155.96
555.33	45434.48
555.50	45237.87
555.67	45525.76
555.83	45778.54
556.00	46033.66
556.16	46153.02
556.33	45354.90
556.50	45722.37
556.66	45762.15
556.83	45361.92
556.99	45766.84
557.16	46007.91
557.32	45951.74
557.49	46312.18
557.65	45663.85
557.82	45614.70
557.98	46005.57
558.15	45783.22
558.32	46319.20
558.48	45998.55
558.65	46021.95
558.81	45106.80
558.98	45439.16
559.14	45713.00
559.31	45778.54
559.47	45900.25
559.64	46026.63
559.80	45581.93
559.97	46209.20
560.13	46080.47
560.30	45881.52
560.46	46068.76
560.63	46281.75
560.79	46452.61
560.96	46358.99
561.12	46206.86
561.29	46370.69
561.45	46150.68
561.61	46218.56
561.78	46347.29
561.94	45984.51
562.11	45996.21
562.27	46295.80
562.44	46230.26
562.60	46700.71
562.77	46667.94
562.93	46375.37
563.10	46904.34
563.26	46110.89
563.42	46712.41
563.59	46169.41
563.75	46220.90
563.92	46466.66
564.08	46677.30
564.24	46731.14
564.41	46366.01
564.57	46539.21
564.74	46593.04
564.90	46602.41
565.07	46768.58
565.23	46770.93
565.39	46529.85
565.56	46529.85
565.72	46160.05
565.88	46358.99
566.05	46653.90
566.21	46300.48
566.38	46595.38
566.54	46466.66
566.70	46862.21
566.87	46972.21
567.03	46447.93
567.19	47311.59
567.36	46586.02
567.52	46555.60
567.68	46939.44
567.85	46497.08
568.01	46569.64
568.17	46602.41
568.34	46433.89
568.50	46906.68
568.66	46256.01
568.83	46595.38
568.99	46604.75
569.15	46864.55
569.32	46497.08
569.48	46377.72
569.64	46770.93
569.81	46932.42
569.97	46749.86
570.13	46389.42
570.30	46384.74
570.46	46450.27
570.62	46504.10
570.78	46452.61
570.95	46459.63
571.11	46670.28
571.27	46405.80
571.43	46756.88
571.60	47056.47
571.76	46810.71
571.92	46885.61
572.09	46909.02
572.25	46951.15
572.41	46426.87
572.57	46955.83
572.74	46941.78
572.90	46625.81
573.06	46801.35
573.22	47217.97
573.38	46714.75
573.55	46894.97
573.71	46937.10
573.87	47147.75
574.03	46766.24
574.20	46862.21
574.36	46820.08
574.52	47049.45
574.68	46724.11
574.84	46635.17
575.01	46712.41
575.17	46567.30
575.33	46525.17
575.49	46326.22
575.65	46983.91
575.82	47054.13
575.98	46398.78
576.14	47248.39
576.30	46766.24
576.46	46927.74
576.62	46534.53
576.79	46878.59
576.95	46628.15
577.11	46820.08
577.27	47217.97
577.43	46787.31
577.59	46855.18
577.75	46707.73
577.92	46473.68
578.08	46447.93
578.24	46401.12
578.40	46801.35
578.56	46784.97
578.72	46899.65
578.88	46909.02
579.04	47208.61
579.21	47030.72
579.37	46387.08
579.53	46679.64
579.69	46890.29
579.85	46766.24
580.01	47426.28
580.17	47327.97
580.33	47096.26
580.49	47112.64
580.65	47028.38
580.82	46862.21
580.98	47042.43
581.14	46773.27
581.30	47391.17
581.46	46953.49
581.62	46841.14
581.78	47065.83
581.94	47047.11
582.10	46897.31
582.26	47196.90
582.42	47100.94
582.58	47023.70
582.74	46806.03
582.90	47112.64
583.06	47079.88
583.22	47194.56
583.38	47133.71
583.54	47327.97
583.70	47129.03
583.86	47182.86
584.02	46864.55
584.18	46810.71
584.34	46944.12
584.50	46958.17
584.66	47079.88
584.82	46712.41
584.98	47388.83
585.14	46897.31
585.30	46625.81
585.46	46927.74
585.62	46799.01
585.78	46777.95
585.94	46855.18
586.10	46909.02
586.26	46890.29
586.42	47206.26
586.58	47452.02
586.74	47150.09
586.90	46775.61
587.06	47105.62
587.22	46761.56
587.38	46539.21
587.54	47023.70
587.70	46981.57
587.86	46852.84
588.02	46993.28
588.18	46813.05
588.34	46869.23
588.49	46735.82
588.65	46157.70
588.81	46349.63
588.97	46429.21
589.13	46401.12
589.29	46433.89
589.45	46618.79
589.61	46871.57
589.77	47084.56
589.93	46916.04
590.08	46834.12
590.24	47112.64
590.40	47023.70
590.56	47047.11
590.72	47159.45
590.88	47182.86
591.04	47288.18
591.20	47426.28
591.35	47447.34
591.51	47180.52
591.67	47061.15
591.83	46976.89
591.99	47306.91
592.15	47370.10
592.31	47126.69
592.46	46946.47
592.62	47311.59
592.78	47381.80
592.94	47313.93
593.10	46920.72
593.26	46981.57
593.41	47091.58
593.57	47075.19
593.73	47023.70
593.89	47122.01
594.05	46927.74
594.20	47023.70
594.36	46909.02
594.52	47049.45
594.68	46993.28
594.84	47047.11
594.99	47320.95
595.15	47098.60
595.31	47290.52
595.47	46939.44
595.62	47374.78
595.78	47318.61
595.94	47009.66
596.10	47283.50
596.25	47445.00
596.41	47051.79
596.57	47643.94
596.73	47639.26
596.88	46904.34
597.04	47175.84
597.20	47129.03
597.36	47232.01
597.51	47299.89
597.67	47292.86
597.83	47325.63
597.99	47461.38
598.14	47299.89
598.30	46766.24
598.46	47475.43
598.61	47173.50
598.77	46609.43
598.93	46974.55
599.09	46948.81
599.24	47807.78
599.40	47276.48
599.56	47374.78
599.71	46967.53
599.87	47313.93
600.03	46997.96
600.18	46815.40
600.34	47323.29
600.50	46728.80
600.65	46958.17
600.81	47445.00
600.97	47159.45
601.12	47381.80
601.28	47510.53
601.44	46834.12
601.59	46962.85
601.75	46635.17
601.91	47145.41
602.06	46913.70
602.22	47178.18
602.37	46880.93
602.53	47168.82
602.69	47112.64
602.84	46958.17
603.00	46588.36
603.16	46768.58
603.31	47058.81
603.47	47021.36
603.62	46850.50
603.78	47072.85
603.94	47129.03
604.09	47330.31
604.25	47353.72
604.40	47339.68
604.56	46983.91
604.71	47210.95
604.87	46927.74
605.03	47316.27
605.18	46838.80
605.34	47157.11
605.49	46239.62
605.65	47075.19
605.80	46939.44
605.96	47306.91
606.12	47234.35
606.27	47023.70
606.43	46576.66
606.58	46806.03
606.74	46841.14
606.89	46855.18
607.05	46813.05
607.20	47136.05
607.36	46791.99
607.51	47117.32
607.67	46850.50
607.82	46642.20
607.98	46665.60
608.13	46801.35
608.29	46515.81
608.44	46363.67
608.60	46342.61
608.75	46553.26
608.91	46679.64
609.06	46513.47
609.22	47042.43
609.37	46337.93
609.53	46838.80
609.68	46775.61
609.84	46234.94
609.99	46417.50
610.15	46073.45
610.30	46667.94
610.46	45902.59
610.61	46494.74
610.76	46581.34
610.92	46209.20
611.07	46419.84
611.23	46335.59
611.38	46557.94
611.54	46080.47
611.69	46115.58
611.84	46181.11
612.00	46007.91
612.15	45715.34
612.31	46632.83
612.46	46057.06
612.62	46305.16
612.77	46050.04
612.92	46349.63
613.08	46094.51
613.23	46543.89
613.39	46246.65
613.54	45673.21
613.69	45977.48
613.85	45801.94
614.00	45785.56
614.15	46476.02
614.31	45916.63
614.46	45925.99
614.62	46197.49
614.77	45748.11
614.92	46279.41
615.08	45570.23
615.23	45144.25
615.38	45563.21
615.54	45591.30
615.69	45825.35
615.84	45478.95
616.00	45329.16
616.15	45467.25
616.30	45579.59
616.46	45511.72
616.61	45310.43
616.76	45387.67
616.92	45155.96
617.07	45371.28
617.22	45170.00
617.37	45347.88
617.53	45705.98
617.68	45825.35
617.83	45832.37
617.99	45315.11
618.14	45317.45
618.29	45504.70
618.45	45008.50
618.60	45387.67
618.75	44788.49
618.90	45326.81
619.06	45090.42
619.21	45375.97
619.36	45605.34
619.51	45549.17
619.67	44987.44
619.82	44886.79
619.97	45797.26
620.12	44945.31
620.28	44910.20
620.43	45308.09
620.58	44715.93
620.73	44844.66
620.89	44680.83
621.04	44636.36
621.19	45109.14
621.34	44987.44
621.49	44992.12
621.65	44645.72
621.80	44706.57
621.95	44839.98
622.10	44708.91
622.25	44531.03
622.41	44559.12
622.56	44278.25
622.71	44751.04
622.86	44282.94
623.01	44528.69
623.16	44842.32
623.32	44516.99
623.47	44168.25
623.62	44568.48
623.77	44060.58
623.92	44133.14
624.07	44406.98
624.23	44332.09
624.38	43997.39
624.53	44133.14
624.68	44245.49
624.83	44334.43
624.98	44212.72
625.13	43658.01
625.29	44182.29
625.44	43856.96
625.59	43880.36
625.74	43653.33
625.89	43512.90
626.04	43606.52
626.19	43819.51
626.34	43761.00
626.49	44392.94
626.65	43775.04
626.80	43922.49
626.95	43889.73
627.10	43920.15
627.25	43344.38
627.40	43756.32
627.55	43365.45
627.70	42918.40
627.85	43112.67
628.00	43414.60
628.15	43115.01
628.30	43182.88
628.45	43489.49
628.60	43592.48
628.76	43358.42
628.91	43655.67
629.06	43103.31
629.21	43330.34
629.36	43292.89
629.51	42930.11
629.66	42770.95
629.81	42560.30
629.96	42934.79
630.11	42843.51
630.26	42918.40
630.41	43194.59
630.56	42892.66
630.71	42913.72
630.86	42696.05
631.01	42946.49
631.16	42574.34
631.31	42658.60
631.46	42476.04
631.61	42904.36
631.76	42906.70
631.91	42930.11
632.06	42897.34
632.21	42887.98
632.36	42824.78
632.51	42391.78
632.66	42742.86
632.81	42312.20
632.96	42408.17
633.10	42649.24
633.25	42927.77
633.40	42253.69
633.55	42139.00
633.70	42277.10
633.85	42326.25
634.00	42440.93
634.15	42492.43
634.30	42532.22
634.45	42492.43
634.60	42429.23
634.75	42555.62
634.90	42188.16
635.05	42426.89
635.19	41977.51
635.34	42637.54
635.49	42059.43
635.64	42103.90
635.79	42330.93
635.94	41586.64
636.09	42113.26
636.24	41724.73
636.39	41642.81
636.53	41720.05
636.68	41504.72
636.83	41879.21
636.98	41986.87
637.13	41748.14
637.28	41771.54
637.43	41691.96
637.57	42199.86
637.72	41797.29
637.87	41457.91
638.02	41422.80
638.17	41862.82
638.32	41343.22
638.46	41542.17
638.61	41811.33
638.76	41329.18
638.91	41881.55
639.06	41661.54
639.20	41502.38
639.35	41921.34
639.50	41429.82
639.65	41350.24
639.80	41860.48
639.94	41436.84
640.09	41387.69
640.24	41455.57
640.39	41045.97
640.54	41027.25
640.68	41097.47
640.83	41333.86
640.98	41064.70
641.13	41078.74
641.27	41614.72
641.42	41298.75
641.57	40627.02
641.72	40973.42
641.86	40950.01
642.01	41095.13
642.16	40832.99
642.31	40795.54
642.45	40737.02
642.60	40275.94
642.75	40533.40
642.90	40781.49
643.04	40683.19
643.19	40748.73
643.34	40954.69
643.48	40854.05
643.63	40793.20
643.78	40116.78
643.93	40060.61
644.07	40589.57
644.22	40945.33
644.37	40198.70
644.51	40231.47
644.66	40711.28
644.81	40989.80
644.95	40563.82
645.10	40540.42
645.25	40615.32
645.39	40509.99
645.54	40385.94
645.69	40086.36
645.83	40491.27
645.98	40074.65
646.13	40023.16
646.27	40156.57
646.42	40322.75
646.57	40100.40
646.71	40044.23
646.86	39931.88
647.00	40449.14
647.15	40418.71
647.30	39971.67
647.44	39761.02
647.59	40144.87
647.74	39906.13
647.88	39746.98
648.03	39683.78
648.17	40175.30
648.32	39906.13
648.47	39943.58
648.61	39552.71
648.76	39812.51
648.90	39985.71
649.05	39861.66
649.20	39152.48
649.34	39997.41
649.49	39449.73
649.63	39321.00
649.78	39203.97
649.92	39384.19
650.07	39999.76
650.21	39009.71
650.36	39587.82
650.51	39056.52
650.65	39929.54
650.80	39838.26
650.94	39374.83
651.09	39510.58
651.23	39115.03
651.38	39290.57
651.52	39313.98
651.67	38649.27
651.81	38749.91
651.96	39166.52
652.10	38951.20
652.25	39313.98
652.39	39159.50
652.54	39276.53
652.68	39065.88
652.83	39016.73
652.97	39016.73
653.12	39082.27
653.26	38930.13
653.41	39358.45
653.55	38869.28
653.70	39138.44
653.84	38845.87
653.99	38677.35
654.13	38204.56
654.27	38466.70
654.42	38471.39
654.56	38450.32
654.71	38356.70
654.85	38773.31
655.00	38665.65
655.14	38204.56
655.29	38096.90
655.43	38199.88
655.57	37890.93
655.72	37881.57
655.86	37900.29
656.01	37855.82
656.15	37378.36
656.30	37944.76
656.44	37752.84
656.58	37895.61
656.73	38120.31
656.87	37979.87
657.01	37853.48
657.16	37965.83
657.30	37912.00
657.45	37741.14
657.59	37787.95
657.73	38124.99
657.88	38148.39
658.02	37886.25
658.16	38293.50
658.31	37982.21
658.45	38054.77
658.60	37909.66
658.74	37649.86
658.88	38024.34
659.03	37432.19
659.17	37645.18
659.31	37635.81
659.46	37663.90
659.60	37502.40
659.74	37457.93
659.89	37174.73
660.03	37289.42
660.17	37347.93
660.32	37488.36
660.46	37495.38
660.60	37322.18
660.74	37324.52
660.89	37303.46
661.03	37111.53
661.17	36591.94
661.32	36847.05
661.46	36783.86
661.60	36701.94
661.74	37043.66
661.89	36821.31
662.03	37008.55
662.17	36184.68
662.31	36439.80
662.46	36821.31
662.60	36842.37
662.74	37127.92
662.88	36315.75
663.03	35934.24
663.17	36011.48
663.31	36318.09
663.45	36243.20
663.60	36086.38
663.74	36203.41
663.88	36161.28
664.02	36023.19
664.17	36114.47
664.31	35730.62
664.45	35686.15
664.59	35847.64
664.73	35772.75
664.88	36130.85
665.02	35346.77
665.16	35768.07
665.30	35737.64
665.44	35339.75
665.59	35253.15
665.73	35285.92
665.87	35409.96
666.01	35171.23
666.15	35072.93
666.29	35035.48
666.44	35218.04
666.58	35009.73
666.72	34850.58
666.86	34881.00
667.00	34967.60
667.14	34930.16
667.28	34682.06
667.43	34426.94
667.57	34677.38
667.71	34597.80
667.85	34705.46
667.99	34761.64
668.13	34319.28
668.27	34569.71
668.41	34368.43
668.56	34373.11
668.70	34721.85
668.84	34665.67
668.98	34132.03
669.12	34061.82
669.26	34115.65
669.40	33549.24
669.54	33762.23
669.68	34141.39
669.82	33614.77
669.96	33764.57
670.10	33823.08
670.25	33600.73
670.39	33509.45
670.53	33645.20
670.67	33254.33
670.81	33619.46
670.95	33612.43
671.09	33537.54
671.23	33270.72
671.37	33446.26
671.51	33015.60
671.65	33464.98
671.79	32554.51
671.93	33003.89
672.07	33205.18
672.21	33020.28
672.35	32872.82
672.49	32891.55
672.63	33064.75
672.77	32533.45
672.91	32882.19
673.05	32240.88
673.19	32519.40
673.33	32638.77
673.47	32411.74
673.61	32137.90
673.75	31943.63
673.89	31594.89
674.03	31604.25
674.17	32123.85
674.31	31915.54
674.45	31707.24
674.59	31463.82
674.73	31641.70
674.87	31618.30
675.01	31936.61
675.15	31538.72
675.29	31768.09
675.43	31587.87
675.56	31194.66
675.70	31175.94
675.84	31171.25
675.98	30300.58
676.12	31005.08
676.26	30958.27
676.40	30574.42
676.54	31016.78
676.68	30506.54
676.82	30504.20
676.96	30232.70
677.10	30586.12
677.23	30361.43
677.37	30225.68
677.51	30040.78
677.65	30043.12
677.79	29551.60
677.93	30017.37
678.07	29591.39
678.21	29315.21
678.34	29212.23
678.48	29266.06
678.62	28797.95
678.76	28833.06
678.90	28692.63
679.04	29352.66
679.18	29177.12
679.31	28699.65
679.45	28465.60
679.59	28360.27
679.73	28694.97
679.87	28360.27
680.00	28208.14
680.14	28189.41
680.28	28205.80
680.42	28367.29
680.56	28095.79
680.70	28161.33
680.83	28271.33
680.97	28229.20
681.11	27821.95
681.25	27695.56
681.39	27700.24
681.52	27772.80
681.66	27718.96
681.80	27307.03
681.94	27405.33
682.07	27386.61
682.21	26850.63
682.35	27009.78
682.49	26733.60
682.62	26913.82
682.76	26946.59
682.90	26522.95
683.04	26527.63
683.17	26551.04
683.31	26464.44
683.45	26471.46
683.59	26370.82
683.72	25781.00
683.86	26422.31
684.00	26410.60
684.13	25926.11
684.27	26022.08
684.41	25703.76
684.55	25223.95
684.68	25523.54
684.82	25530.56
684.96	25303.53
685.09	25598.44
685.23	24947.77
685.37	25090.54
685.50	25032.03
685.64	25163.10
685.78	24599.03
685.91	24907.98
686.05	24922.02
686.19	24271.36
686.32	24294.76
686.46	23840.70
686.60	23702.61
686.73	23892.19
686.87	23859.42
687.01	23601.96
687.14	23300.03
687.28	23269.61
687.42	23250.88
687.55	23119.81
687.69	23438.12
687.82	23241.52
687.96	23433.44
688.10	23297.69
688.23	23183.01
688.37	22904.48
688.50	22511.27
688.64	23185.35
688.78	23051.94
688.91	22618.94
689.05	22703.20
689.18	22410.63
689.32	22410.63
689.46	22162.53
689.59	22717.24
689.73	22361.48
689.86	22518.29
690.00	22085.30
690.13	22113.38
690.27	21771.66
690.41	22340.41
690.54	21661.66
690.68	21678.04
690.81	21495.48
690.95	21525.91
691.08	21511.86
691.22	21603.14
691.35	21467.39
691.49	21233.34
691.62	21469.73
691.76	21282.49
691.89	21247.38
692.03	20992.26
692.16	20627.14
692.30	20657.57
692.43	20671.61
692.57	20372.02
692.70	20592.03
692.84	20482.03
692.97	20308.83
693.11	20159.03
693.24	20240.95
693.38	19843.06
693.51	19932.00
693.65	20088.82
693.78	20262.02
693.92	19704.97
694.05	19836.04
694.19	19688.59
694.32	19700.29
694.45	19480.28
694.59	19044.94
694.72	19346.87
694.86	19208.78
694.99	19026.21
695.13	19051.96
695.26	18986.43
695.39	18829.61
695.53	18960.68
695.66	18991.11
695.80	18820.25
695.93	18817.91
696.07	18565.13
696.20	18792.16
696.33	18485.55
696.47	18382.57
696.60	18302.99
696.73	17989.36
696.87	18003.40
697.00	18403.63
697.14	18368.52
697.27	17708.49
697.40	17879.35
697.54	17867.65
697.67	17434.65
697.80	17731.90
697.94	17163.15
698.07	17373.80
698.21	17303.58
698.34	17425.29
698.47	17371.46
698.61	16858.88
698.74	16945.48
698.87	16893.99
699.01	16739.51
699.14	16575.67
699.27	16751.21
699.40	16751.21
699.54	16643.55
699.67	16456.31
699.80	16219.91
699.94	16194.17
700.07	16168.42
700.20	16152.04
700.34	16098.20
700.47	16046.71
700.60	16278.43
700.73	16264.38
700.87	15889.90
701.00	15946.07
701.13	15791.59
701.26	15786.91
701.40	15580.95
701.53	15756.49
701.66	15510.73
701.79	15426.47
701.93	15253.27
702.06	15311.78
702.19	15323.49
702.32	15009.86
702.46	15187.74
702.59	15068.37
702.72	15227.53
702.85	15063.69
702.99	14782.82
703.12	14590.90
703.25	14602.60
703.38	14853.04
703.51	14525.36
703.65	14581.54
703.78	14471.53
703.91	14396.64
704.04	14347.48
704.17	14225.78
704.31	14106.41
704.44	14216.41
704.57	14349.82
704.70	14019.81
704.83	13947.25
704.96	14174.28
705.10	14017.47
705.23	13921.51
>>>>>End Processed Spectral Data<<<<<
