SpectraSuite Data File
++++++++++++++++++++++++++++++++++++
Date: Fri Oct 25 11:33:31 EDT 2013
User: price-jones
Dark Spectrum Present: No
Reference Spectrum Present: No
Number of Sampled Component Spectra: 1
Spectrometers: USB2+H05261
Integration Time (usec): 100000 (USB2+H05261)
Spectra Averaged: 1 (USB2+H05261)
Boxcar Smoothing: 0 (USB2+H05261)
Correct for Electrical Dark: No (USB2+H05261)
Strobe/Lamp Enabled: No (USB2+H05261)
Correct for Detector Non-linearity: No (USB2+H05261)
Correct for Stray Light: No (USB2+H05261)
Number of Pixels in Processed Spectrum: 2048
>>>>>Begin Processed Spectral Data<<<<<
365.73	264.48
365.92	264.48
366.12	264.48
366.32	217.67
366.52	112.35
366.72	149.79
366.91	168.52
367.11	163.84
367.31	203.63
367.51	131.07
367.70	161.50
367.90	147.45
368.10	140.43
368.30	128.73
368.49	152.13
368.69	241.08
368.89	224.69
369.09	194.26
369.28	173.20
369.48	180.22
369.68	168.52
369.87	243.42
370.07	273.84
370.27	308.95
370.47	325.33
370.66	496.19
370.86	489.17
371.06	585.13
371.25	505.56
371.45	550.03
371.65	587.47
371.84	479.81
372.04	629.60
372.24	503.22
372.44	524.28
372.63	585.13
372.83	571.09
373.03	585.13
373.22	622.58
373.42	613.22
373.62	557.05
373.81	629.60
374.01	624.92
374.21	681.10
374.40	585.13
374.60	592.16
374.79	650.67
374.99	585.13
375.19	573.43
375.38	571.09
375.58	725.57
375.78	655.35
375.97	657.69
376.17	662.37
376.37	610.88
376.56	688.12
376.76	699.82
376.95	667.05
377.15	660.03
377.35	688.12
377.54	699.82
377.74	671.73
377.93	704.50
378.13	629.60
378.33	713.86
378.52	737.27
378.72	770.04
378.91	709.18
379.11	664.71
379.31	695.14
379.50	678.76
379.70	730.25
379.89	678.76
380.09	671.73
380.28	713.86
380.48	676.41
380.68	718.54
380.87	734.93
381.07	655.35
381.26	753.65
381.46	816.85
381.65	770.04
381.85	720.88
382.04	805.14
382.24	791.10
382.43	795.78
382.63	767.70
382.83	718.54
383.02	713.86
383.22	819.19
383.41	772.38
383.61	875.36
383.80	863.66
384.00	767.70
384.19	833.23
384.39	786.42
384.58	842.59
384.78	910.47
384.97	866.00
385.17	854.30
385.36	835.57
385.56	807.48
385.75	826.21
385.95	774.72
386.14	858.98
386.34	858.98
386.53	720.88
386.72	894.08
386.92	889.40
387.11	985.37
387.31	931.53
387.50	950.26
387.70	856.64
387.89	887.06
388.09	880.04
388.28	880.04
388.48	929.19
388.67	1006.43
388.86	933.87
389.06	1008.77
389.25	947.92
389.45	999.41
389.64	912.81
389.84	990.05
390.03	1034.52
390.22	933.87
390.42	966.64
390.61	973.66
390.81	919.83
391.00	985.37
391.19	976.00
391.39	1086.01
391.58	1027.50
391.78	964.30
391.97	978.34
392.16	1032.18
392.36	1046.22
392.55	1046.22
392.75	1029.84
392.94	1069.62
393.13	1055.58
393.33	1034.52
393.52	1008.77
393.71	1149.20
393.91	1036.86
394.10	1174.95
394.29	1111.75
394.49	1078.99
394.68	1132.82
394.88	1158.57
395.07	1256.87
395.26	1203.04
395.46	1191.33
395.65	1188.99
395.84	1221.76
396.04	1167.93
396.23	1177.29
396.42	1200.69
396.62	1203.04
396.81	1217.08
397.00	1193.67
397.19	1266.23
397.39	1181.97
397.58	1238.14
397.77	1219.42
397.97	1235.80
398.16	1263.89
398.35	1254.53
398.55	1282.61
398.74	1306.02
398.93	1427.73
399.12	1320.06
399.32	1315.38
399.51	1303.68
399.70	1273.25
399.90	1336.45
400.09	1413.68
400.28	1434.75
400.47	1334.11
400.67	1413.68
400.86	1423.05
401.05	1385.60
401.24	1427.73
401.44	1427.73
401.63	1476.88
401.82	1418.36
402.01	1409.00
402.21	1451.13
402.40	1425.39
402.59	1399.64
402.78	1530.71
402.97	1490.92
403.17	1558.80
403.36	1481.56
403.55	1617.31
403.74	1579.86
403.93	1563.48
404.13	1598.59
404.32	1643.06
404.51	1659.44
404.70	1575.18
404.89	1746.04
405.09	1741.36
405.28	1755.40
405.47	1629.01
405.66	1708.59
405.85	1680.50
406.05	1699.23
406.24	1771.79
406.43	1741.36
406.62	1827.96
406.81	1860.73
407.00	1769.44
407.20	1825.62
407.39	1832.64
407.58	1802.21
407.77	1853.70
407.96	1720.29
408.15	1884.13
408.34	1820.94
408.54	1975.41
408.73	1914.56
408.92	1956.69
409.11	1956.69
409.30	1984.77
409.49	2202.44
409.68	1987.11
409.87	2054.99
410.07	2090.10
410.26	2083.08
410.45	2172.02
410.64	2005.84
410.83	2232.87
411.02	2172.02
411.21	2258.62
411.40	2183.72
411.59	2239.89
411.78	2270.32
411.98	2289.04
412.17	2242.23
412.36	2200.10
412.55	2200.10
412.74	2401.39
412.93	2413.09
413.12	2328.83
413.31	2392.03
413.50	2427.14
413.69	2403.73
413.88	2490.33
414.07	2516.08
414.26	2499.69
414.45	2565.23
414.64	2422.45
414.83	2649.49
415.02	2551.18
415.22	2560.55
415.41	2684.59
415.60	2572.25
415.79	2682.25
415.98	2731.41
416.17	2768.85
416.36	2668.21
416.55	2810.98
416.74	2876.52
416.93	2785.24
417.12	2780.56
417.31	2920.99
417.50	2958.44
417.69	3063.76
417.88	3009.93
418.07	2949.08
418.26	2944.39
418.45	2942.05
418.64	3061.42
418.83	3066.10
419.02	3000.57
419.21	3098.87
419.39	3117.59
419.58	2963.12
419.77	3052.06
419.96	3152.70
420.15	3131.64
420.34	3068.44
420.53	3185.47
420.72	3281.43
420.91	3112.91
421.10	3243.98
421.29	3169.09
421.48	3335.26
421.67	3288.45
421.86	3361.01
422.05	3456.97
422.24	3325.90
422.43	3398.46
422.61	3431.23
422.80	3377.39
422.99	3487.40
423.18	3468.67
423.37	3513.14
423.56	3459.31
423.75	3393.78
423.94	3255.69
424.13	3297.81
424.32	3351.65
424.50	3389.10
424.69	3463.99
424.88	3304.84
425.07	3466.33
425.26	3375.05
425.45	3346.97
425.64	3501.44
425.83	3419.52
426.01	3489.74
426.20	3452.29
426.39	3492.08
426.58	3440.59
426.77	3520.17
426.96	3454.63
427.15	3581.02
427.33	3592.72
427.52	3536.55
427.71	3655.92
427.90	3627.83
428.09	3693.37
428.28	3768.26
428.46	3684.00
428.65	3695.71
428.84	3761.24
429.03	3772.94
429.22	3698.05
429.40	3873.59
429.59	3810.39
429.78	3810.39
429.97	3672.30
430.16	3831.46
430.34	3824.44
430.53	3744.86
430.72	3885.29
430.91	3899.33
431.10	3854.86
431.28	3967.21
431.47	4042.11
431.66	4088.92
431.85	3770.60
432.03	4021.04
432.22	4102.96
432.41	4147.43
432.60	4109.98
432.79	3985.93
432.97	4032.74
433.16	4051.47
433.35	4063.17
433.54	4149.77
433.72	4276.16
433.91	4159.13
434.10	4294.88
434.28	4191.90
434.47	4205.94
434.66	4339.35
434.85	4337.01
435.03	4376.80
435.22	4266.80
435.41	4425.95
435.59	4423.61
435.78	4334.67
435.97	4351.06
436.16	4486.81
436.34	4365.10
436.53	4402.55
436.72	4554.68
436.90	4386.16
437.09	4685.75
437.28	4456.38
437.46	4638.94
437.65	4641.28
437.84	4664.69
438.02	4531.28
438.21	4521.92
438.40	4587.45
438.58	4699.80
438.77	4795.76
438.96	4807.46
439.14	4627.24
439.33	4865.97
439.52	4903.42
439.70	4929.17
439.89	5067.26
440.08	5125.77
440.26	5083.64
440.45	4947.89
440.63	5210.03
440.82	5116.41
441.01	5135.14
441.19	5069.60
441.38	5359.83
441.57	5296.63
441.75	5270.89
441.94	5317.70
442.12	5275.57
442.31	5390.25
442.50	5614.95
442.68	5584.52
442.87	5345.78
443.05	5493.24
443.24	5518.98
443.43	5551.75
443.61	5497.92
443.80	5832.62
443.98	5315.36
444.17	5301.31
444.35	5617.29
444.54	5708.57
444.73	5729.63
444.91	5614.95
445.10	5738.99
445.28	5710.91
445.47	5785.80
445.65	5596.22
445.84	5741.33
446.02	5820.91
446.21	5865.38
446.39	5743.67
446.58	5860.70
446.77	5699.20
446.95	5577.50
447.14	5795.17
447.32	5757.72
447.51	5727.29
447.69	5797.51
447.88	5636.01
448.06	5827.93
448.25	5762.40
448.43	5792.83
448.62	5841.98
448.80	5816.23
448.99	5921.56
449.17	6017.52
449.36	5858.36
449.54	6015.18
449.73	5959.00
449.91	6071.35
450.10	6141.57
450.28	6146.25
450.46	6190.72
450.65	6080.71
450.83	6214.12
451.02	6101.78
451.20	6038.58
451.39	6200.08
451.57	6239.87
451.76	6253.91
451.94	6300.72
452.13	6338.17
452.31	6307.74
452.49	6274.98
452.68	6368.60
452.86	6319.45
453.05	6403.71
453.23	6373.28
453.42	6249.23
453.60	6396.68
453.78	6399.02
453.97	6282.00
454.15	6401.37
454.34	6595.63
454.52	6464.56
454.70	6677.55
454.89	6520.73
455.07	6733.72
455.26	6649.46
455.44	6825.00
455.62	6626.06
455.81	6740.74
455.99	6806.28
456.17	6913.94
456.36	6825.00
456.54	6927.99
456.73	6977.14
456.91	6967.77
457.09	6979.48
457.28	7180.76
457.46	6939.69
457.64	7096.50
457.83	7000.54
458.01	7033.31
458.19	7068.42
458.38	7246.30
458.56	7089.48
458.74	7208.85
458.93	7262.68
459.11	7232.26
459.29	7258.00
459.48	7178.42
459.66	7318.86
459.84	7508.44
460.03	7433.54
460.21	7438.22
460.39	7459.29
460.57	7258.00
460.76	7379.71
460.94	7412.48
461.12	7658.23
461.31	7555.25
461.49	7552.91
461.67	7431.20
461.85	7485.03
462.04	7478.01
462.22	7992.93
462.40	7850.16
462.59	7824.41
462.77	7681.64
462.95	7747.17
463.13	7761.22
463.32	7623.12
463.50	7913.35
463.68	7960.16
463.86	7927.39
464.05	7812.71
464.23	7770.58
464.41	8058.46
464.59	7805.69
464.78	8126.34
464.96	8231.66
465.14	7906.33
465.32	8163.79
465.50	8140.38
465.69	8278.47
465.87	8072.51
466.05	7899.31
466.23	8292.52
466.41	8196.56
466.60	8454.02
466.78	8184.85
466.96	8194.22
467.14	8219.96
467.32	8208.26
467.51	8315.92
467.69	8222.30
467.87	8510.19
468.05	8517.21
468.23	8325.29
468.41	8318.26
468.60	8463.38
468.78	8664.66
468.96	8486.78
469.14	8524.23
469.32	8524.23
469.50	8545.30
469.69	8725.52
469.87	8585.08
470.05	8798.07
470.23	8655.30
470.41	8812.12
470.59	8702.11
470.77	8823.82
470.95	8938.51
471.14	8950.21
471.32	8816.80
471.50	8919.78
471.68	9198.31
471.86	9174.90
472.04	9081.28
472.22	9256.82
472.40	9104.68
472.58	9095.32
472.77	9202.99
472.95	9453.42
473.13	9834.93
473.31	9472.15
473.49	9448.74
473.67	9338.74
473.85	9472.15
474.03	9902.81
474.21	9678.12
474.39	9907.49
474.57	9963.66
474.75	9863.02
474.93	9907.49
475.12	9872.38
475.30	10047.92
475.48	10029.20
475.66	10157.92
475.84	10113.45
476.02	10300.70
476.20	10333.47
476.38	10420.06
476.56	10801.57
476.74	10600.29
476.92	10656.46
477.10	10473.90
477.28	10649.44
477.46	10766.46
477.64	10902.22
477.82	11087.12
478.00	11204.14
478.18	11206.48
478.36	11098.82
478.54	11463.94
478.72	11265.00
478.90	11510.75
479.08	11353.94
479.26	11843.11
479.44	11599.70
479.62	11714.38
479.80	11990.56
479.98	11906.31
480.16	12142.70
480.34	12301.86
480.52	12229.30
480.70	12315.90
480.88	12245.68
481.06	12346.33
481.24	12147.38
481.41	12526.55
481.59	12795.71
481.77	13006.36
481.95	12748.90
482.13	13057.85
482.31	12973.59
482.49	13425.31
482.67	13308.29
482.85	13483.83
483.03	13802.14
483.21	13921.51
483.39	13745.97
483.57	13771.71
483.74	13881.72
483.92	13919.17
484.10	13774.05
484.28	14134.50
484.46	14530.05
484.64	14731.33
484.82	14342.80
485.00	14792.19
485.18	15164.33
485.35	15269.66
485.53	15140.93
485.71	15115.18
485.89	15267.31
486.07	15496.69
486.25	15386.68
486.43	15634.78
486.61	15740.10
486.78	15992.88
486.96	16051.39
487.14	16374.39
487.32	16325.24
487.50	16453.97
487.68	16425.88
487.85	16578.01
488.03	16915.05
488.21	16971.22
488.39	17013.35
488.57	17156.13
488.75	17069.53
488.92	17469.76
489.10	17624.23
489.28	17797.43
489.46	17977.65
489.64	17701.47
489.81	18183.62
489.99	18321.71
490.17	18361.50
490.35	18403.63
490.53	18431.72
490.70	18579.17
490.88	18581.51
491.06	18925.57
491.24	18967.70
491.41	19269.63
491.59	19431.13
491.77	19028.56
491.95	19248.57
492.13	19447.51
492.30	19599.65
492.48	19850.08
492.66	19765.82
492.84	19971.79
493.01	20374.36
493.19	20189.46
493.37	20334.57
493.54	20439.90
493.72	20812.04
493.90	20657.57
494.08	20861.19
494.25	20929.07
494.43	20952.48
494.61	21113.97
494.79	21078.86
494.96	21460.37
495.14	21341.00
495.32	21584.42
495.49	21764.64
495.67	21926.14
495.85	21867.63
496.02	22162.53
496.20	22274.88
496.38	22246.79
496.55	22558.08
496.73	22927.89
496.91	22728.94
497.09	22958.31
497.26	23435.78
497.44	22909.16
497.62	23030.87
497.79	23543.45
497.97	23403.02
498.14	23419.40
498.32	23957.72
498.50	23868.78
498.67	24315.83
498.85	23833.68
499.03	23826.65
499.20	24166.03
499.38	24498.39
499.56	24208.16
499.73	24819.04
499.91	24503.07
500.08	24786.27
500.26	24477.32
500.44	24657.54
500.61	25015.65
500.79	24929.05
500.97	25104.59
501.14	25350.34
501.32	25813.77
501.49	25228.63
501.67	25427.58
501.84	25469.71
502.02	25425.24
502.20	25745.89
502.37	25930.80
502.55	25603.12
502.72	26192.94
502.90	25694.40
503.07	25844.20
503.25	26155.49
503.43	26326.35
503.60	26396.56
503.78	26698.49
503.95	26829.56
504.13	26820.20
504.30	26895.10
504.48	26525.29
504.65	27105.74
504.83	27047.23
505.01	27054.25
505.18	27197.02
505.36	27426.40
505.53	27314.05
505.71	27199.37
505.88	27246.18
506.06	27501.29
506.23	27608.96
506.41	27723.65
506.58	27915.57
506.76	27756.41
506.93	28027.92
507.11	28048.98
507.28	27887.48
507.46	28364.95
507.63	28430.49
507.81	28744.12
507.98	28568.58
508.16	28350.91
508.33	28411.76
508.50	28577.94
508.68	28643.48
508.85	29034.35
509.03	28746.46
509.20	28826.04
509.38	29235.63
509.55	29221.59
509.73	29797.36
509.90	29369.04
510.08	29390.11
510.25	29343.30
510.42	29638.20
510.60	29914.39
510.77	29745.87
510.95	30794.43
511.12	30043.12
511.30	29792.68
511.47	30328.66
511.64	29907.37
511.82	30405.90
511.99	30459.73
512.17	30616.55
512.34	30316.96
512.51	30976.99
512.69	30986.35
512.86	30621.23
513.04	30923.16
513.21	30778.04
513.38	31248.49
513.56	31234.45
513.73	31529.36
513.90	31480.21
514.08	31096.36
514.25	31208.70
514.43	31470.84
514.60	31618.30
514.77	31681.49
514.95	31943.63
515.12	31613.62
515.29	31929.59
515.47	31950.65
515.64	32081.72
515.81	32119.17
515.99	32430.46
516.16	32477.27
516.33	32371.95
516.51	32451.53
516.68	32694.94
516.85	32451.53
517.03	32133.21
517.20	32545.15
517.37	32575.58
517.54	32833.04
517.72	32996.87
517.89	33067.09
518.06	33266.03
518.24	32893.89
518.41	33251.99
518.58	33125.60
518.75	32849.42
518.93	33813.72
519.10	33507.11
519.27	33233.27
519.45	33406.47
519.62	34183.52
519.79	34171.82
519.96	33624.14
520.14	33926.07
520.31	33907.34
520.48	34433.96
520.65	34232.68
520.83	34595.46
521.00	34859.94
521.17	34174.16
521.34	34534.60
521.52	34550.99
521.69	34321.62
521.86	34822.49
522.03	35150.17
522.20	34885.68
522.38	34974.63
522.55	34679.72
522.72	34902.07
522.89	35285.92
523.07	35316.34
523.24	35323.36
523.41	35742.32
523.58	35171.23
523.75	35770.41
523.92	35414.65
524.10	35594.87
524.27	35817.22
524.44	35784.45
524.61	36002.12
524.78	36016.16
524.96	36060.63
525.13	36367.24
525.30	36545.12
525.47	36439.80
525.64	35756.36
525.81	36353.20
525.98	36437.46
526.16	36332.14
526.33	36847.05
526.50	36804.92
526.67	36348.52
526.84	36545.12
527.01	36802.58
527.18	36966.42
527.36	36947.70
527.53	37060.04
527.70	37310.48
527.87	37654.54
528.04	37116.22
528.21	37090.47
528.38	37158.34
528.55	37053.02
528.72	37120.90
528.89	37249.63
529.07	37186.43
529.24	37560.92
529.41	37750.50
529.58	37537.51
529.75	37490.70
529.92	37883.91
530.09	37385.38
530.26	38024.34
530.43	37785.61
530.60	37315.16
530.77	37682.62
530.94	37956.47
531.11	37610.07
531.28	38078.18
531.46	38122.65
531.63	38513.52
531.80	37722.41
531.97	38469.04
532.14	38642.24
532.31	38375.42
532.48	38478.41
532.65	38541.60
532.82	38501.81
532.99	38541.60
533.16	38370.74
533.33	38799.06
533.50	39189.93
533.67	38684.37
533.84	38462.02
534.01	38721.82
534.18	38866.94
534.35	38951.20
534.52	39140.78
534.69	39826.56
534.86	39346.75
535.03	39112.69
535.20	39321.00
535.37	39566.76
535.54	39681.44
535.71	39487.18
535.88	39798.47
536.05	39377.17
536.22	40275.94
536.38	39929.54
536.55	40025.50
536.72	40023.16
536.89	39421.64
537.06	39826.56
537.23	40678.51
537.40	40254.87
537.57	40289.98
537.74	39531.65
537.91	40554.46
538.08	40229.13
538.25	39597.18
538.42	40282.96
538.59	40458.50
538.75	40016.14
538.92	40573.19
539.09	40381.26
539.26	40460.84
539.43	40608.29
539.60	40905.54
539.77	40526.38
539.94	40907.88
540.11	41184.07
540.28	40725.32
540.44	40629.36
540.61	40957.03
540.78	41155.98
540.95	40416.37
541.12	40928.95
541.29	40875.12
541.46	41132.57
541.62	41338.54
541.79	41469.61
541.96	41036.61
542.13	41390.03
542.30	41226.20
542.47	41434.50
542.63	41303.43
542.80	41811.33
542.97	41818.35
543.14	42075.81
543.31	41691.96
543.48	41930.70
543.64	42742.86
543.81	42305.18
543.98	42366.04
544.15	42316.89
544.32	42307.52
544.48	42609.45
544.65	42281.78
544.82	42419.87
544.99	42059.43
545.16	42595.41
545.32	42155.39
545.49	42904.36
545.66	42665.63
545.83	42885.64
546.00	43072.88
546.16	42529.87
546.33	42431.57
546.50	42724.14
546.67	42724.14
546.83	42546.26
547.00	42885.64
547.17	42712.44
547.34	42637.54
547.50	43075.22
547.67	42995.64
547.84	43351.40
548.00	43196.93
548.17	43351.40
548.34	43433.32
548.51	43550.35
548.67	43550.35
548.84	43718.87
549.01	43484.81
549.18	43627.59
549.34	43620.56
549.51	43360.76
549.68	43693.12
549.84	43510.56
550.01	43674.40
550.18	43475.45
550.34	43438.00
550.51	43821.85
550.68	43646.31
550.84	43159.48
551.01	44102.71
551.18	43590.14
551.34	43510.56
551.51	44119.10
551.68	44245.49
551.84	43693.12
552.01	43885.04
552.18	44018.46
552.34	43751.63
552.51	44294.64
552.68	43831.21
552.84	44313.36
553.01	44308.68
553.18	44512.31
553.34	44582.52
553.51	44280.60
553.67	44425.71
553.84	44076.97
554.01	44425.71
554.17	44535.71
554.34	44821.26
554.51	44652.74
554.67	44617.63
554.84	44652.74
555.00	44460.82
555.17	44311.02
555.33	44779.13
555.50	44516.99
555.67	44847.00
555.83	44905.52
556.00	44884.45
556.16	44814.24
556.33	44814.24
556.50	44973.39
556.66	45006.16
556.83	44650.40
556.99	45076.38
557.16	45462.57
557.32	45113.83
557.49	45247.24
557.65	44786.15
557.82	45050.63
557.98	45448.52
558.15	45123.19
558.32	45237.87
558.48	45153.62
558.65	44964.03
558.81	45301.07
558.98	45263.62
559.14	45287.03
559.31	44975.73
559.47	45256.60
559.64	45429.80
559.80	45794.92
559.97	45478.95
560.13	45455.54
560.30	45492.99
560.46	45867.48
560.63	45876.84
560.79	45476.61
560.96	45949.40
561.12	46185.79
561.29	46066.42
561.45	46160.05
561.61	46045.36
561.78	45705.98
561.94	45787.90
562.11	45708.32
562.27	45638.11
562.44	45841.73
562.60	45890.88
562.77	45881.52
562.93	45956.42
563.10	46312.18
563.26	45549.17
563.42	46637.51
563.59	46122.60
563.75	45790.24
563.92	45921.31
564.08	45858.12
564.24	46124.94
564.41	46405.80
564.57	46136.64
564.74	46078.13
564.90	46171.75
565.07	45872.16
565.23	46281.75
565.39	46628.15
565.56	46314.52
565.72	46461.97
565.88	46066.42
566.05	46120.26
566.21	46293.46
566.38	46270.05
566.54	46672.62
566.70	46443.25
566.87	46059.40
567.03	46326.22
567.19	46829.44
567.36	46614.11
567.52	46571.98
567.68	46960.51
567.85	46410.48
568.01	46574.32
568.17	46656.24
568.34	46880.93
568.50	46789.65
568.66	46148.34
568.83	46370.69
568.99	46410.48
569.15	46899.65
569.32	46667.94
569.48	46628.15
569.64	47056.47
569.81	46628.15
569.97	47168.82
570.13	46674.96
570.30	46546.23
570.46	46564.96
570.62	46562.62
570.78	46773.27
570.95	46689.01
571.11	46625.81
571.27	46377.72
571.43	47084.56
571.60	46735.82
571.76	46813.05
571.92	46618.79
572.09	46679.64
572.25	46969.87
572.41	46628.15
572.57	46742.84
572.74	47220.31
572.90	46990.94
573.06	46768.58
573.22	47002.64
573.38	47152.43
573.55	46869.23
573.71	47136.05
573.87	47082.22
574.03	47014.34
574.20	47210.95
574.36	46939.44
574.52	46782.63
574.68	46876.25
574.84	47342.02
575.01	47122.01
575.17	47014.34
575.33	47150.09
575.49	46880.93
575.65	47292.86
575.82	47398.19
575.98	46822.42
576.14	47339.68
576.30	47604.16
576.46	47505.85
576.62	46920.72
576.79	46937.10
576.95	47107.96
577.11	46822.42
577.27	47002.64
577.43	47377.12
577.59	47140.73
577.75	47098.60
577.92	46887.95
578.08	47510.53
578.24	47232.01
578.40	47264.78
578.56	47409.89
578.72	47409.89
578.88	47665.01
579.04	47538.62
579.21	47084.56
579.37	47313.93
579.53	47346.70
579.69	46986.25
579.85	47302.23
580.01	47171.16
580.17	47199.24
580.33	47489.47
580.49	47302.23
580.65	46918.38
580.82	47304.57
580.98	47395.85
581.14	47016.68
581.30	47143.07
581.46	46801.35
581.62	46944.12
581.78	47262.44
581.94	47337.33
582.10	47016.68
582.26	47482.45
582.42	47215.63
582.58	47297.55
582.74	47180.52
582.90	47325.63
583.06	47082.22
583.22	47019.02
583.38	47601.82
583.54	47334.99
583.70	47611.18
583.86	47510.53
584.02	47063.49
584.18	47145.41
584.34	47669.69
584.50	47437.98
584.66	47618.20
584.82	47718.84
584.98	47992.68
585.14	47814.80
585.30	47477.77
585.46	47730.54
585.62	47325.63
585.78	47292.86
585.94	47512.88
586.10	47332.65
586.26	47171.16
586.42	47407.55
586.58	47629.90
586.74	47475.43
586.90	47407.55
587.06	47012.00
587.22	47414.57
587.38	47248.39
587.54	47669.69
587.70	47952.90
587.86	47770.33
588.02	47505.85
588.18	47505.85
588.34	47508.19
588.49	47349.04
588.65	47042.43
588.81	47512.88
588.97	47517.56
589.13	47716.50
589.29	47608.84
589.45	47803.10
589.61	48098.01
589.77	47980.98
589.93	47627.56
590.08	48137.80
590.24	47739.91
590.40	48114.39
590.56	48243.12
590.72	47880.34
590.88	47723.52
591.04	47576.07
591.20	47770.33
591.35	48257.17
591.51	47969.28
591.67	48039.50
591.83	48100.35
591.99	47854.59
592.15	47849.91
592.31	47922.47
592.46	47786.72
592.62	48053.54
592.78	48465.47
592.94	48451.43
593.10	48107.37
593.26	48325.04
593.41	48280.57
593.57	47995.03
593.73	48137.80
593.89	48329.72
594.05	48446.75
594.20	48165.88
594.36	48566.12
594.52	48706.55
594.68	48280.57
594.84	48121.41
594.99	48519.31
595.15	48402.28
595.31	48486.54
595.47	48289.93
595.62	48208.01
595.78	47934.17
595.94	48257.17
596.10	48247.80
596.25	48446.75
596.41	48526.33
596.57	48140.14
596.73	48587.18
596.88	48119.07
597.04	48172.91
597.20	48334.40
597.36	47833.53
597.51	47992.68
597.67	47657.99
597.83	48037.16
597.99	48453.77
598.14	48081.63
598.30	48217.38
598.46	48348.45
598.61	48418.66
598.77	48376.53
598.93	48090.99
599.09	48669.10
599.24	48790.81
599.40	48467.81
599.56	48645.69
599.71	48582.50
599.87	48690.16
600.03	48222.06
600.18	48179.93
600.34	48580.16
600.50	48292.27
600.65	48144.82
600.81	48669.10
600.97	48397.60
601.12	48215.04
601.28	48531.01
601.44	48142.48
601.59	48491.22
601.75	48133.12
601.91	48818.89
602.06	48837.62
602.22	48397.60
602.37	47931.83
602.53	48727.61
602.69	48720.59
602.84	48566.12
603.00	48619.95
603.16	48140.14
603.31	48322.70
603.47	48584.84
603.62	48126.10
603.78	48523.99
603.94	48542.71
604.09	48570.80
604.25	48495.90
604.40	48299.30
604.56	48229.08
604.71	48781.45
604.87	48561.44
605.03	47934.17
605.18	48226.74
605.34	48584.84
605.49	48177.59
605.65	48626.97
605.80	47894.38
605.96	48371.85
606.12	47908.43
606.27	48383.55
606.43	48121.41
606.58	48193.97
606.74	48208.01
606.89	48027.79
607.05	48741.66
607.20	48444.41
607.36	48090.99
607.51	48215.04
607.67	48418.66
607.82	48151.84
607.98	47821.83
608.13	48128.44
608.29	47737.57
608.44	48329.72
608.60	47999.71
608.75	48406.96
608.91	48095.67
609.06	48322.70
609.22	48399.94
609.37	48217.38
609.53	48399.94
609.68	47868.64
609.84	48046.52
609.99	48327.38
610.15	48039.50
610.30	48165.88
610.46	48196.31
610.61	48105.03
610.76	48280.57
610.92	47978.64
611.07	47973.96
611.23	47952.90
611.38	48179.93
611.54	47667.35
611.69	48013.75
611.84	48041.84
612.00	48006.73
612.15	48025.45
612.31	48278.23
612.46	47578.41
612.62	47833.53
612.77	47917.79
612.92	47786.72
613.08	47690.76
613.23	47959.92
613.39	48044.18
613.54	47810.12
613.69	47950.56
613.85	47559.69
614.00	47653.31
614.15	47952.90
614.31	47400.53
614.46	47669.69
614.62	47627.56
614.77	47704.80
614.92	47934.17
615.08	47585.43
615.23	47950.56
615.38	47915.45
615.54	47737.57
615.69	47571.39
615.84	47718.84
616.00	48041.84
616.15	47629.90
616.30	47695.44
616.46	47573.73
616.61	47597.13
616.76	47379.46
616.92	47241.37
617.07	47648.63
617.22	47590.11
617.37	47136.05
617.53	47236.69
617.68	47346.70
617.83	47349.04
617.99	47107.96
618.14	47309.25
618.29	47351.38
618.45	47192.22
618.60	47129.03
618.75	47234.35
618.90	47026.04
619.06	47082.22
619.21	47550.32
619.36	47580.75
619.51	47255.42
619.67	47000.30
619.82	46827.10
619.97	47349.04
620.12	47154.77
620.28	46918.38
620.43	47391.17
620.58	46946.47
620.73	47124.35
620.89	47232.01
621.04	47346.70
621.19	47105.62
621.34	46607.09
621.49	47194.56
621.65	46674.96
621.80	46958.17
621.95	46834.12
622.10	46997.96
622.25	46834.12
622.41	46763.90
622.56	46670.28
622.71	47143.07
622.86	47079.88
623.01	46969.87
623.16	46761.56
623.32	46511.13
623.47	46733.48
623.62	46595.38
623.77	46681.98
623.92	46705.39
624.07	47033.07
624.23	46972.21
624.38	46571.98
624.53	46731.14
624.68	46440.91
624.83	46464.32
624.98	46988.60
625.13	46316.86
625.29	46443.25
625.44	46555.60
625.59	46410.48
625.74	46464.32
625.89	46127.28
626.04	46274.73
626.19	46206.86
626.34	46176.43
626.49	45834.71
626.65	45865.14
626.80	45897.91
626.95	45911.95
627.10	45881.52
627.25	46401.12
627.40	46263.03
627.55	46440.91
627.70	45928.33
627.85	46419.84
628.00	46075.79
628.15	46466.66
628.30	45771.52
628.45	45277.66
628.60	45481.29
628.76	45993.87
628.91	45963.44
629.06	45385.33
629.21	45736.41
629.36	45495.33
629.51	45687.26
629.66	46202.18
629.81	45453.20
629.96	45734.07
630.11	45937.69
630.26	45673.21
630.41	45979.82
630.56	45434.48
630.71	45132.55
630.86	45476.61
631.01	45162.98
631.16	45516.40
631.31	45394.69
631.46	45478.95
631.61	45511.72
631.76	45537.46
631.91	45530.44
632.06	45621.72
632.21	45858.12
632.36	45827.69
632.51	45198.09
632.66	45120.85
632.81	45329.16
632.96	45275.32
633.10	44989.78
633.25	45099.78
633.40	45415.76
633.55	45581.93
633.70	45230.85
633.85	44917.22
634.00	44978.07
634.15	44631.68
634.30	45022.54
634.45	44619.97
634.60	44706.57
634.75	45078.72
634.90	44725.30
635.05	45010.84
635.19	44893.82
635.34	45010.84
635.49	44797.85
635.64	44814.24
635.79	44818.92
635.94	44835.30
636.09	45085.74
636.24	44767.43
636.39	44847.00
636.53	44769.77
636.68	44313.36
636.83	44250.17
636.98	44144.84
637.13	44500.61
637.28	44353.15
637.43	44268.89
637.57	44156.55
637.72	44196.34
637.87	44552.10
638.02	44779.13
638.17	44172.93
638.32	43988.03
638.46	43955.26
638.61	43763.34
638.76	44425.71
638.91	44060.58
639.06	44371.88
639.20	43826.53
639.35	44142.50
639.50	43758.66
639.65	44229.10
639.80	44055.90
639.94	44360.17
640.09	44219.74
640.24	44130.80
640.39	43650.99
640.54	43695.46
640.68	43936.54
640.83	44484.22
640.98	43615.88
641.13	43388.85
641.27	43992.71
641.42	43777.38
641.57	43828.87
641.72	43526.94
641.86	43938.88
642.01	43648.65
642.16	43765.68
642.31	43550.35
642.45	43646.31
642.60	43054.15
642.75	43524.60
642.90	43749.29
643.04	43655.67
643.19	43093.94
643.34	43398.21
643.48	42979.26
643.63	43395.87
643.78	43557.37
643.93	43203.95
644.07	43955.26
644.22	43398.21
644.37	43014.37
644.51	43171.18
644.66	43409.92
644.81	43110.33
644.95	43239.06
645.10	42937.13
645.25	42733.50
645.39	42754.57
645.54	43260.12
645.69	42693.71
645.83	42712.44
645.98	42710.10
646.13	43271.82
646.27	42792.01
646.42	42440.93
646.57	43257.78
646.71	42955.85
646.86	43196.93
647.00	43107.99
647.15	43037.77
647.30	43084.58
647.44	42902.02
647.59	42801.38
647.74	42700.73
647.88	42740.52
648.03	43026.07
648.17	42916.06
648.32	42773.29
648.47	42616.47
648.61	42361.36
648.76	42829.46
648.90	42586.05
649.05	42728.82
649.20	42686.69
649.34	42595.41
649.49	42230.29
649.63	42735.84
649.78	42457.32
649.92	42630.52
650.07	42836.48
650.21	42815.42
650.36	42686.69
650.51	42316.89
650.65	42815.42
650.80	42747.54
650.94	42005.59
651.09	42323.91
651.23	41998.57
651.38	42089.85
651.52	41956.44
651.67	42295.82
651.81	42431.57
651.96	42122.62
652.10	41523.44
652.25	41844.10
652.39	42066.45
652.54	41776.22
652.68	42244.33
652.83	41792.61
652.97	41897.93
653.12	41872.18
653.26	42117.94
653.41	42150.71
653.55	42094.53
653.70	41911.97
653.84	41846.44
653.99	41846.44
654.13	41694.30
654.27	41797.29
654.42	41528.13
654.56	41879.21
654.71	41755.16
654.85	41584.30
655.00	42391.78
655.14	41713.03
655.29	41890.91
655.43	42073.47
655.57	41125.55
655.72	41570.25
655.86	40978.10
656.01	40814.26
656.15	41029.59
656.30	41102.15
656.44	41483.66
656.58	41727.07
656.73	41097.47
656.87	40942.99
657.01	40950.01
657.16	41347.90
657.30	41141.94
657.45	41148.96
657.59	40664.47
657.73	41069.38
657.88	41081.08
658.02	41207.47
658.16	41020.23
658.31	41261.30
658.45	40987.46
658.60	40556.80
658.74	41024.91
658.88	40917.25
659.03	40732.34
659.17	40306.37
659.31	40184.66
659.46	40325.09
659.60	40636.38
659.74	40236.15
659.89	39828.90
660.03	40074.65
660.17	40505.31
660.32	40210.40
660.46	39913.16
660.60	40114.44
660.74	40299.34
660.89	40313.39
661.03	39814.85
661.17	39648.68
661.32	39686.12
661.46	39903.79
661.60	39407.60
661.74	39882.73
661.89	40055.93
662.03	39786.77
662.17	40016.14
662.31	39440.37
662.46	39438.03
662.60	39225.04
662.74	39016.73
662.88	39290.57
663.03	38745.23
663.17	38948.85
663.31	38873.96
663.45	39510.58
663.60	39519.95
663.74	39014.39
663.88	39283.55
664.02	39086.95
664.17	39688.46
664.31	38974.60
664.45	38457.34
664.59	38576.71
664.73	38185.84
664.88	38897.36
665.02	38073.49
665.16	38717.14
665.30	38583.73
665.44	38288.82
665.59	38480.75
665.73	37743.48
665.87	37986.89
666.01	38309.89
666.15	38600.12
666.29	37865.19
666.44	38134.35
666.58	38003.28
666.72	37848.80
666.86	38066.47
667.00	37993.92
667.14	37771.57
667.28	37762.20
667.43	37544.53
667.57	37741.14
667.71	37825.40
667.85	37993.92
667.99	37539.85
668.13	37474.32
668.27	37134.94
668.41	37200.47
668.56	36617.68
668.70	37291.76
668.84	36954.72
668.98	37048.34
669.12	36879.82
669.26	37083.45
669.40	36898.55
669.54	36762.79
669.68	36903.23
669.82	36669.17
669.96	36306.39
670.10	36184.68
670.25	36301.71
670.39	35910.84
670.53	36418.74
670.67	36282.98
670.81	36875.14
670.95	36374.27
671.09	36079.36
671.23	35641.68
671.37	35756.36
671.51	35847.64
671.65	35606.57
671.79	35681.47
671.93	35414.65
672.07	36044.25
672.21	35667.42
672.35	35014.41
672.49	35700.19
672.63	35428.69
672.77	34677.38
672.91	35218.04
673.05	35051.86
673.19	34967.60
673.33	34925.47
673.47	34686.74
673.61	34656.31
673.75	34490.13
673.89	34204.59
674.03	34763.98
674.17	34192.89
674.31	34342.68
674.45	34005.64
674.59	34363.75
674.73	34398.85
674.87	33802.02
675.01	33867.55
675.15	33528.17
675.29	33544.56
675.43	33598.39
675.56	33521.15
675.70	33132.62
675.84	33699.03
675.98	32451.53
676.12	33502.43
676.26	33617.11
676.40	33184.12
676.54	32687.92
676.68	33010.92
676.82	32397.70
676.96	33071.77
677.10	32788.56
677.23	32708.99
677.37	32720.69
677.51	32444.51
677.65	31784.48
677.79	32418.76
677.93	32233.86
678.07	31868.73
678.21	32041.93
678.34	31651.06
678.48	32039.59
678.62	31805.54
678.76	31482.55
678.90	31569.15
679.04	31639.36
679.18	31199.34
679.31	31335.09
679.45	30843.58
679.59	30890.39
679.73	30944.22
679.87	30391.86
680.00	30476.12
680.14	30373.13
680.28	30370.79
680.42	30675.06
680.56	30314.62
680.70	29916.73
680.83	30017.37
680.97	30073.54
681.11	30057.16
681.25	29715.44
681.39	29804.38
681.52	29528.20
681.66	29338.62
681.80	29261.38
681.94	29242.65
682.07	29006.26
682.21	28891.57
682.35	28804.97
682.49	28900.94
682.62	28599.01
682.76	28701.99
682.90	28802.63
683.04	28437.51
683.17	28657.52
683.31	28313.46
683.45	27971.74
683.59	27871.10
683.72	27983.44
683.86	27756.41
684.00	28039.62
684.13	27969.40
684.27	27543.42
684.41	27311.71
684.55	27377.25
684.68	27433.42
684.82	27229.79
684.96	27051.91
685.09	26785.09
685.23	27250.86
685.37	27578.53
685.50	27168.94
685.64	26796.79
685.78	26710.19
685.91	26888.07
686.05	26349.75
686.19	25919.09
686.32	26003.35
686.46	25640.57
686.60	25776.32
686.73	25603.12
686.87	25757.60
687.01	25804.41
687.14	25682.70
687.28	25465.03
687.42	25546.95
687.55	25195.87
687.69	25193.53
687.82	24938.41
687.96	24697.33
688.10	25235.66
688.23	25186.50
688.37	25053.09
688.50	25074.16
688.64	24758.19
688.78	24416.47
688.91	24802.66
689.05	24477.32
689.18	24121.56
689.32	23632.39
689.46	23922.62
689.59	23627.71
689.73	23906.23
689.86	23885.17
690.00	23641.75
690.13	23695.58
690.27	23683.88
690.41	23583.24
690.54	23035.55
690.68	23314.08
690.81	23009.81
690.95	23171.30
691.08	22850.65
691.22	22845.97
691.35	22560.42
691.49	22661.07
691.62	22595.53
691.76	22597.87
691.89	22094.66
692.03	22146.15
692.16	21909.75
692.30	22342.75
692.43	21965.93
692.57	21593.78
692.70	21626.55
692.84	21708.47
692.97	21305.90
693.11	21610.17
693.24	20905.66
693.38	21469.73
693.51	20842.47
693.65	20896.30
693.78	21015.67
693.92	20453.94
694.05	20798.00
694.19	20615.44
694.32	20596.71
694.45	20779.28
694.59	20889.28
694.72	20727.78
694.86	20276.06
694.99	20374.36
695.13	20163.72
695.26	19866.47
695.39	19765.82
695.53	19831.36
695.66	19990.52
695.80	19566.88
695.93	19658.16
696.07	19417.08
696.20	19353.89
696.33	19103.45
696.47	19005.15
696.60	19103.45
696.73	19283.67
696.87	19187.71
697.00	19297.72
697.14	19147.92
697.27	18581.51
697.40	18649.39
697.54	18633.00
697.67	18530.02
697.80	18394.27
697.94	18387.25
698.07	18017.44
698.21	18202.35
698.34	18183.62
698.47	17820.84
698.61	17521.25
698.74	17621.89
698.87	17771.69
699.01	17575.08
699.14	17626.57
699.27	17612.53
699.40	17319.96
699.54	17179.53
699.67	17331.67
699.80	17357.41
699.94	17001.65
700.07	16901.01
700.20	16793.34
700.34	16716.11
700.47	16695.04
700.60	16875.26
700.73	16802.71
700.87	16737.17
701.00	16262.04
701.13	16383.75
701.26	16180.12
701.40	16119.27
701.53	16224.59
701.66	16149.70
701.79	16365.03
701.93	15983.52
702.06	15662.86
702.19	15667.55
702.32	15798.62
702.46	15878.19
702.59	15817.34
702.72	15569.24
702.85	15477.96
702.99	15346.89
703.12	15260.29
703.25	15133.90
703.38	15117.52
703.51	15332.85
703.65	14899.85
703.78	14703.25
703.91	14602.60
704.04	14626.01
704.17	14530.05
704.31	14794.53
704.44	14504.30
704.57	14588.56
704.70	14471.53
704.83	14174.28
704.96	14307.69
705.10	14106.41
705.23	14099.39
>>>>>End Processed Spectral Data<<<<<
