SpectraSuite Data File
++++++++++++++++++++++++++++++++++++
Date: Fri Oct 25 11:33:17 EDT 2013
User: price-jones
Dark Spectrum Present: No
Reference Spectrum Present: No
Number of Sampled Component Spectra: 1
Spectrometers: USB2+H05261
Integration Time (usec): 100000 (USB2+H05261)
Spectra Averaged: 1 (USB2+H05261)
Boxcar Smoothing: 0 (USB2+H05261)
Correct for Electrical Dark: No (USB2+H05261)
Strobe/Lamp Enabled: No (USB2+H05261)
Correct for Detector Non-linearity: No (USB2+H05261)
Correct for Stray Light: No (USB2+H05261)
Number of Pixels in Processed Spectrum: 2048
>>>>>Begin Processed Spectral Data<<<<<
365.73	238.73
365.92	238.73
366.12	238.73
366.32	248.10
366.52	126.39
366.72	173.20
366.91	203.63
367.11	229.37
367.31	236.39
367.51	168.52
367.70	135.75
367.90	102.98
368.10	182.56
368.30	189.58
368.49	177.88
368.69	224.69
368.89	210.65
369.09	201.29
369.28	257.46
369.48	217.67
369.68	191.92
369.87	271.50
370.07	257.46
370.27	266.82
370.47	360.44
370.66	550.03
370.86	521.94
371.06	561.73
371.25	510.24
371.45	505.56
371.65	428.32
371.84	519.60
372.04	559.39
372.24	554.71
372.44	540.66
372.63	664.71
372.83	566.41
373.03	601.52
373.22	575.77
373.42	587.47
373.62	575.77
373.81	587.47
374.01	648.33
374.21	624.92
374.40	634.29
374.60	674.07
374.79	653.01
374.99	695.14
375.19	720.88
375.38	662.37
375.58	603.86
375.78	660.03
375.97	678.76
376.17	730.25
376.37	709.18
376.56	631.94
376.76	699.82
376.95	629.60
377.15	748.97
377.35	683.44
377.54	667.05
377.74	688.12
377.93	727.91
378.13	702.16
378.33	690.46
378.52	706.84
378.72	671.73
378.91	695.14
379.11	624.92
379.31	613.22
379.50	739.61
379.70	748.97
379.89	732.59
380.09	676.41
380.28	758.33
380.48	748.97
380.68	793.44
380.87	765.36
381.07	723.23
381.26	730.25
381.46	727.91
381.65	793.44
381.85	732.59
382.04	793.44
382.24	795.78
382.43	821.53
382.63	737.27
382.83	763.01
383.02	805.14
383.22	795.78
383.41	793.44
383.61	753.65
383.80	777.06
384.00	830.89
384.19	805.14
384.39	844.93
384.58	866.00
384.78	833.23
384.97	826.21
385.17	828.55
385.36	868.34
385.56	908.13
385.75	798.12
385.95	884.72
386.14	863.66
386.34	842.59
386.53	877.70
386.72	802.80
386.92	844.93
387.11	992.39
387.31	926.85
387.50	884.72
387.70	887.06
387.89	884.72
388.09	894.08
388.28	863.66
388.48	837.91
388.67	926.85
388.86	943.24
389.06	891.74
389.25	919.83
389.45	903.45
389.64	980.68
389.84	1046.22
390.03	966.64
390.22	961.96
390.42	968.98
390.61	980.68
390.81	1022.81
391.00	1048.56
391.19	1015.79
391.39	1055.58
391.58	1029.84
391.78	1015.79
391.97	1046.22
392.16	994.73
392.36	1144.52
392.55	1055.58
392.75	1041.54
392.94	1125.80
393.13	1022.81
393.33	973.66
393.52	1064.94
393.71	1027.50
393.91	1137.50
394.10	1041.54
394.29	1137.50
394.49	1142.18
394.68	1102.39
394.88	1153.88
395.07	1193.67
395.26	1086.01
395.46	1196.01
395.65	1149.20
395.84	1196.01
396.04	1268.57
396.23	1252.19
396.42	1193.67
396.62	1207.72
396.81	1226.44
397.00	1273.25
397.19	1219.42
397.39	1181.97
397.58	1245.16
397.77	1268.57
397.97	1336.45
398.16	1205.38
398.35	1235.80
398.55	1296.66
398.74	1322.40
398.93	1341.13
399.12	1336.45
399.32	1214.74
399.51	1261.55
399.70	1371.55
399.90	1336.45
400.09	1308.36
400.28	1451.13
400.47	1348.15
400.67	1430.07
400.86	1423.05
401.05	1448.79
401.24	1486.24
401.44	1479.22
401.63	1446.45
401.82	1469.86
402.01	1385.60
402.21	1465.18
402.40	1502.62
402.59	1453.47
402.78	1540.07
402.97	1533.05
403.17	1570.50
403.36	1504.96
403.55	1540.07
403.74	1570.50
403.93	1565.82
404.13	1540.07
404.32	1612.63
404.51	1511.99
404.70	1633.69
404.89	1661.78
405.09	1736.68
405.28	1724.97
405.47	1675.82
405.66	1734.34
405.85	1654.76
406.05	1717.95
406.24	1781.15
406.43	1816.26
406.62	1732.00
406.81	1818.60
407.00	1790.51
407.20	1825.62
407.39	1884.13
407.58	1846.68
407.77	1856.04
407.96	1905.20
408.15	1952.01
408.34	1825.62
408.54	1900.52
408.73	1930.94
408.92	1959.03
409.11	1989.46
409.30	2080.74
409.49	2085.42
409.68	2019.88
409.87	2024.56
410.07	2097.12
410.26	2085.42
410.45	2043.29
410.64	2101.80
410.83	2097.12
411.02	2118.18
411.21	2169.68
411.40	2160.31
411.59	2127.55
411.78	2286.70
411.98	2246.91
412.17	2260.96
412.36	2319.47
412.55	2291.38
412.74	2249.25
412.93	2347.56
413.12	2335.85
413.31	2401.39
413.50	2354.58
413.69	2396.71
413.88	2518.42
414.07	2431.82
414.26	2651.83
414.45	2609.70
414.64	2572.25
414.83	2490.33
415.02	2593.31
415.22	2715.02
415.41	2661.19
415.60	2574.59
415.79	2743.11
415.98	2766.51
416.17	2738.43
416.36	2747.79
416.55	2698.64
416.74	2747.79
416.93	2803.96
417.12	2813.32
417.31	2813.32
417.50	2953.76
417.69	2850.77
417.88	2949.08
418.07	2890.56
418.26	3009.93
418.45	2958.44
418.64	3103.55
418.83	3028.65
419.02	3056.74
419.21	3152.70
419.39	3096.53
419.58	3155.04
419.77	3091.85
419.96	3180.79
420.15	3164.40
420.34	3225.26
420.53	3323.56
420.72	3155.04
420.91	3218.24
421.10	3082.49
421.29	3321.22
421.48	3234.62
421.67	3323.56
421.86	3344.63
422.05	3368.03
422.24	3344.63
422.43	3368.03
422.61	3372.71
422.80	3349.31
422.99	3473.36
423.18	3246.32
423.37	3569.32
423.56	3452.29
423.75	3513.14
423.94	3248.66
424.13	3304.84
424.32	3358.67
424.50	3424.20
424.69	3487.40
424.88	3454.63
425.07	3588.04
425.26	3527.19
425.45	3449.95
425.64	3370.37
425.83	3349.31
426.01	3618.47
426.20	3557.61
426.39	3456.97
426.58	3414.84
426.77	3433.57
426.96	3578.68
427.15	3506.12
427.33	3632.51
427.52	3562.30
427.71	3595.06
427.90	3707.41
428.09	3662.94
428.28	3665.28
428.46	3728.47
428.65	3775.28
428.84	3831.46
429.03	3850.18
429.22	3831.46
429.40	3784.65
429.59	3824.44
429.78	3735.50
429.97	3557.61
430.16	3932.10
430.34	3950.82
430.53	3915.72
430.72	4011.68
430.91	3941.46
431.10	3871.25
431.28	3889.97
431.47	3932.10
431.66	4046.79
431.85	4016.36
432.03	4051.47
432.22	4145.09
432.41	4182.54
432.60	4135.73
432.79	4124.02
432.97	4159.13
433.16	4269.14
433.35	4231.69
433.54	4189.56
433.72	4212.96
433.91	4170.83
434.10	4212.96
434.28	4159.13
434.47	4280.84
434.66	4269.14
434.85	4304.25
435.03	4489.15
435.22	4400.21
435.41	4554.68
435.59	4482.13
435.78	4337.01
435.97	4496.17
436.16	4484.47
436.34	4456.38
436.53	4589.79
436.72	4451.70
436.90	4575.75
437.09	4512.55
437.28	4425.95
437.46	4557.02
437.65	4620.22
437.84	4648.30
438.02	4573.41
438.21	4685.75
438.40	4650.64
438.58	4704.48
438.77	4800.44
438.96	4826.18
439.14	4952.57
439.33	4975.98
439.52	5046.20
439.70	5055.56
439.89	5114.07
440.08	5022.79
440.26	5093.01
440.45	4997.04
440.63	4983.00
440.82	5373.87
441.01	5160.88
441.19	5263.86
441.38	5303.65
441.57	5219.39
441.75	5465.15
441.94	5474.51
442.12	5324.72
442.31	5537.71
442.50	5432.38
442.68	5343.44
442.87	5511.96
443.05	5448.77
443.24	5701.54
443.43	5638.35
443.61	5694.52
443.80	5741.33
443.98	5327.06
444.17	5427.70
444.35	5572.82
444.54	5610.26
444.73	5682.82
444.91	5755.38
445.10	5628.99
445.28	5692.18
445.47	5673.46
445.65	5715.59
445.84	6017.52
446.02	5781.12
446.21	5680.48
446.39	5617.29
446.58	5858.36
446.77	5771.76
446.95	5537.71
447.14	5764.74
447.32	5748.36
447.51	5959.00
447.69	5713.25
447.88	5722.61
448.06	5867.72
448.25	5762.40
448.43	5877.09
448.62	5736.65
448.80	5968.37
448.99	5881.77
449.17	6066.67
449.36	5877.09
449.54	5935.60
449.73	5984.75
449.91	6040.92
450.10	6090.07
450.28	6160.29
450.46	6113.48
450.65	6054.97
450.83	6036.24
451.02	6083.05
451.20	6333.49
451.39	6293.70
451.57	6265.61
451.76	6324.13
451.94	6298.38
452.13	6384.98
452.31	6525.41
452.49	6277.32
452.68	6396.68
452.86	6282.00
453.05	6396.68
453.23	6377.96
453.42	6441.15
453.60	6415.41
453.78	6417.75
453.97	6338.17
454.15	6649.46
454.34	6539.46
454.52	6616.69
454.70	6651.80
454.89	6502.01
455.07	6602.65
455.26	6832.02
455.44	6813.30
455.62	6820.32
455.81	6668.19
455.99	6862.45
456.17	6782.87
456.36	6888.20
456.54	6752.45
456.73	6960.75
456.91	7157.36
457.09	7012.24
457.28	7030.97
457.46	6902.24
457.64	7054.37
457.83	7157.36
458.01	6974.80
458.19	7368.01
458.38	6998.20
458.56	7157.36
458.74	7314.17
458.93	7197.15
459.11	7452.27
459.29	7293.11
459.48	7330.56
459.66	7330.56
459.84	7438.22
460.03	7510.78
460.21	7295.45
460.39	7564.61
460.57	7391.41
460.76	7733.13
460.94	7651.21
461.12	7627.81
461.31	7552.91
461.49	7611.42
461.67	7433.54
461.85	7889.95
462.04	7524.82
462.22	8152.09
462.40	7815.05
462.59	7964.84
462.77	7815.05
462.95	7866.54
463.13	7903.99
463.32	7967.18
463.50	8112.30
463.68	8058.46
463.86	8119.32
464.05	7925.05
464.23	8056.12
464.41	8138.04
464.59	7885.26
464.78	8133.36
464.96	8236.35
465.14	8180.17
465.32	8168.47
465.50	8088.89
465.69	8205.92
465.87	8046.76
466.05	8348.69
466.23	8205.92
466.41	8292.52
466.60	8475.08
466.78	8313.58
466.96	8252.73
467.14	8262.09
467.32	8421.25
467.51	8439.97
467.69	8159.11
467.87	8468.06
468.05	8547.64
468.23	8554.66
468.41	8624.87
468.60	8425.93
468.78	8683.39
468.96	8561.68
469.14	8549.98
469.32	8716.16
469.50	8526.57
469.69	8613.17
469.87	8868.29
470.05	8636.58
470.23	9008.72
470.41	8887.01
470.59	8702.11
470.77	8973.61
470.95	9055.53
471.14	9125.75
471.32	8919.78
471.50	9322.35
471.68	9128.09
471.86	9195.96
472.04	9004.04
472.22	9308.31
472.40	9242.78
472.58	9336.40
472.77	9423.00
472.95	9556.41
473.13	9930.89
473.31	9427.68
473.49	9577.47
473.67	9497.89
473.85	9745.99
474.03	9860.68
474.21	9783.44
474.39	9968.34
474.57	9872.38
474.75	9767.06
474.93	10078.35
475.12	10052.60
475.30	10139.20
475.48	10195.37
475.66	10253.89
475.84	10363.89
476.02	10413.04
476.20	10319.42
476.38	10443.47
476.56	10806.25
476.74	10595.61
476.92	10520.71
477.10	10478.58
477.28	10855.40
477.46	10764.12
477.64	10965.41
477.82	10803.91
478.00	11243.93
478.18	11190.10
478.36	11276.70
478.54	11363.30
478.72	11417.13
478.90	11573.95
479.08	11723.74
479.26	11873.54
479.44	12023.33
479.62	11997.59
479.80	12060.78
479.98	12049.08
480.16	12369.73
480.34	12332.28
480.52	12273.77
480.70	12397.82
480.88	12304.20
481.06	12339.30
481.24	12482.08
481.41	12547.61
481.59	12774.64
481.77	12994.65
481.95	13064.87
482.13	13266.16
482.31	12943.16
482.49	13621.92
482.67	13310.63
482.85	13593.83
483.03	13675.75
483.21	13692.13
483.39	13951.93
483.57	13748.31
483.74	13921.51
483.92	14253.86
484.10	14403.66
484.28	14534.73
484.46	14586.22
484.64	14916.23
484.82	14696.22
485.00	14883.47
485.18	14918.57
485.35	15370.30
485.53	15147.95
485.71	15517.75
485.89	15508.39
486.07	15492.01
486.25	15803.30
486.43	15726.06
486.61	15861.81
486.78	16006.92
486.96	16091.18
487.14	16187.14
487.32	16442.26
487.50	16280.77
487.68	16580.36
487.85	16830.79
488.03	17135.06
488.21	17135.06
488.39	17029.74
488.57	17294.22
488.75	17195.92
488.92	17455.72
489.10	17528.27
489.28	17556.36
489.46	17757.64
489.64	17869.99
489.81	18216.39
489.99	18242.14
490.17	18565.13
490.35	18581.51
490.53	18637.69
490.70	18838.97
490.88	18714.92
491.06	19026.21
491.24	19150.26
491.41	19058.98
491.59	19531.77
491.77	19185.37
491.95	19543.47
492.13	19527.09
492.30	20084.14
492.48	19676.88
492.66	20074.77
492.84	20119.24
493.01	20362.66
493.19	20486.71
493.37	20587.35
493.54	20851.83
493.72	20926.73
493.90	20734.81
494.08	20961.84
494.25	21235.68
494.43	21104.61
494.61	21366.75
494.79	21671.02
494.96	21664.00
495.14	21474.42
495.32	22221.05
495.49	21811.45
495.67	22075.93
495.85	22199.98
496.02	22518.29
496.20	22607.23
496.38	22445.74
496.55	22656.39
496.73	23274.29
496.91	22892.78
497.09	22808.52
497.26	23091.73
497.44	23077.68
497.62	23108.11
497.79	23892.19
497.97	23470.89
498.14	23716.65
498.32	24039.64
498.50	23718.99
498.67	24002.19
498.85	24156.67
499.03	24182.42
499.20	24367.32
499.38	24987.56
499.56	24659.88
499.73	24671.59
499.91	24690.31
500.08	25029.69
500.26	24999.26
500.44	24964.15
500.61	24783.93
500.79	25069.48
500.97	24989.90
501.14	25556.31
501.32	25439.28
501.49	25605.46
501.67	25493.12
501.84	25886.32
502.02	25954.20
502.20	25975.27
502.37	26167.19
502.55	26204.64
502.72	26029.10
502.90	26106.34
503.07	26136.76
503.25	26511.25
503.43	26029.10
503.60	26878.71
503.78	26377.84
503.95	26345.07
504.13	26635.30
504.30	26801.47
504.48	26948.93
504.65	27007.44
504.83	27417.04
505.01	27517.68
505.18	27421.72
505.36	27934.29
505.53	27655.77
505.71	28086.43
505.88	27377.25
506.06	27536.40
506.23	27889.82
506.41	27751.73
506.58	28276.01
506.76	28233.88
506.93	28173.03
507.11	28285.37
507.28	28449.21
507.46	28343.89
507.63	28573.26
507.81	28779.23
507.98	28671.56
508.16	28863.49
508.33	29041.37
508.50	28903.28
508.68	29188.82
508.85	29216.91
509.03	28966.47
509.20	29291.80
509.38	29401.81
509.55	29577.35
509.73	29591.39
509.90	29670.97
510.08	29942.47
510.25	29951.84
510.42	30108.65
510.60	29855.87
510.77	30122.69
510.95	30277.17
511.12	30221.00
511.30	30068.86
511.47	30183.55
511.64	30792.09
511.82	31154.87
511.99	30712.51
512.17	30586.12
512.34	30305.26
512.51	31152.53
512.69	31175.94
512.86	31346.79
513.04	31573.83
513.21	31337.43
513.38	31409.99
513.56	31592.55
513.73	31211.04
513.90	31405.31
514.08	31489.57
514.25	32018.53
514.43	31772.77
514.60	31442.76
514.77	31749.37
514.95	32006.83
515.12	31983.42
515.29	31985.76
515.47	32503.02
515.64	32341.52
515.81	32521.74
515.99	32627.07
516.16	33092.83
516.33	32720.69
516.51	33024.96
516.68	32554.51
516.85	32671.54
517.03	33102.20
517.20	33146.67
517.37	33003.89
517.54	33193.48
517.72	33495.41
517.89	33390.08
518.06	33514.13
518.24	33312.84
518.41	33500.09
518.58	33942.45
518.75	33247.31
518.93	33844.15
519.10	33635.84
519.27	33699.03
519.45	33867.55
519.62	33834.78
519.79	34235.02
519.96	34096.92
520.14	34492.47
520.31	34239.70
520.48	34448.00
520.65	34148.42
520.83	34916.11
521.00	34965.26
521.17	34483.11
521.34	34738.23
521.52	34522.90
521.69	34698.44
521.86	34829.51
522.03	34916.11
522.20	35498.91
522.38	35241.45
522.55	35187.61
522.72	35356.13
522.89	35426.35
523.07	35842.96
523.24	35409.96
523.41	35849.99
523.58	35632.32
523.75	36266.60
523.92	36051.27
524.10	35981.06
524.27	36294.69
524.44	36051.27
524.61	36107.44
524.78	36025.53
524.96	36233.83
525.13	36374.27
525.30	36521.72
525.47	36446.82
525.64	36863.44
525.81	36814.29
525.98	36802.58
526.16	36598.96
526.33	36540.44
526.50	37319.84
526.67	36526.40
526.84	37003.87
527.01	37193.45
527.18	37001.53
527.36	37408.78
527.53	37228.56
527.70	37209.84
527.87	37523.47
528.04	37001.53
528.21	37689.65
528.38	37574.96
528.55	37776.25
528.72	37523.47
528.89	37359.63
529.07	37532.83
529.24	37900.29
529.41	37820.72
529.58	37481.34
529.75	37691.99
529.92	37727.10
530.09	38092.22
530.26	37883.91
530.43	38227.97
530.60	37825.40
530.77	38183.50
530.94	38307.55
531.11	38136.69
531.28	38363.72
531.46	37949.45
531.63	38443.30
531.80	38499.47
531.97	38466.70
532.14	38604.80
532.31	38380.10
532.48	38918.43
532.65	39548.03
532.82	39082.27
532.99	39407.60
533.16	39115.03
533.33	39110.35
533.50	39250.78
533.67	38897.36
533.84	39026.09
534.01	39119.71
534.18	39028.43
534.35	39688.46
534.52	39515.26
534.69	39878.05
534.86	39714.21
535.03	39679.10
535.20	39959.97
535.37	40062.95
535.54	39847.62
535.71	40016.14
535.88	39814.85
536.05	40020.82
536.22	39730.59
536.38	40360.20
536.55	39871.03
536.72	40154.23
536.89	39714.21
537.06	39847.62
537.23	40210.40
537.40	40376.58
537.57	40329.77
537.74	40098.06
537.91	40704.26
538.08	40624.68
538.25	40175.30
538.42	40493.61
538.59	40678.51
538.75	40732.34
538.92	40917.25
539.09	41399.40
539.26	41127.89
539.43	40744.05
539.60	40809.58
539.77	41045.97
539.94	41078.74
540.11	41298.75
540.28	40573.19
540.44	41427.48
540.61	41095.13
540.78	41273.01
540.95	41038.95
541.12	41406.42
541.29	41062.36
541.46	41329.18
541.62	41216.83
541.79	41626.43
541.96	41102.15
542.13	41654.51
542.30	41312.80
542.47	41677.92
542.63	42005.59
542.80	41991.55
542.97	42085.17
543.14	42300.50
543.31	42225.60
543.48	42167.09
543.64	42820.10
543.81	42562.64
543.98	42424.55
544.15	42417.53
544.32	42693.71
544.48	43089.26
544.65	42679.67
544.82	42672.65
544.99	42607.11
545.16	42689.03
545.32	42518.17
545.49	43129.05
545.66	43248.42
545.83	43028.41
546.00	42742.86
546.16	42965.21
546.33	43007.34
546.50	42883.30
546.67	43119.69
546.83	42639.88
547.00	42904.36
547.17	42705.41
547.34	43328.00
547.50	43384.17
547.67	43363.11
547.84	43459.07
548.00	43976.33
548.17	43791.42
548.34	43358.42
548.51	44016.11
548.67	43805.47
548.84	43840.57
549.01	43636.95
549.18	43952.92
549.34	43969.30
549.51	44055.90
549.68	44278.25
549.84	43737.59
550.01	44505.29
550.18	43782.06
550.34	44205.70
550.51	44149.53
550.68	44156.55
550.84	43711.84
551.01	44334.43
551.18	44058.24
551.34	44100.37
551.51	44182.29
551.68	43983.35
551.84	44266.55
552.01	44486.56
552.18	44643.38
552.34	44069.95
552.51	44332.09
552.68	44329.75
552.84	44215.06
553.01	44428.05
553.18	44481.88
553.34	44788.49
553.51	44486.56
553.67	45001.48
553.84	44989.78
554.01	45041.27
554.17	44715.93
554.34	44985.10
554.51	44790.83
554.67	45212.13
554.84	44856.37
555.00	44804.88
555.17	44751.04
555.33	45275.32
555.50	45102.12
555.67	44978.07
555.83	45179.36
556.00	45368.94
556.16	45521.08
556.33	45148.93
556.50	45359.58
556.66	45071.70
556.83	45270.64
556.99	45701.30
557.16	45244.90
557.32	45621.72
557.49	45745.77
557.65	45010.84
557.82	45406.39
557.98	45226.17
558.15	45771.52
558.32	45853.44
558.48	45368.94
558.65	45642.79
558.81	45827.69
558.98	45504.70
559.14	45710.66
559.31	45455.54
559.47	45624.06
559.64	45890.88
559.80	45717.68
559.97	46075.79
560.13	45916.63
560.30	45514.06
560.46	45921.31
560.63	46080.47
560.79	46075.79
560.96	46185.79
561.12	46153.02
561.29	46408.14
561.45	46492.40
561.61	46148.34
561.78	45933.01
561.94	45553.85
562.11	46281.75
562.27	46101.53
562.44	46099.19
562.60	46183.45
562.77	46642.20
562.93	45806.62
563.10	46391.76
563.26	46068.76
563.42	46389.42
563.59	46513.47
563.75	46429.21
563.92	46426.87
564.08	46284.09
564.24	46770.93
564.41	46562.62
564.57	45963.44
564.74	46864.55
564.90	46871.57
565.07	46637.51
565.23	46412.82
565.39	46670.28
565.56	46824.76
565.72	46160.05
565.88	46347.29
566.05	46363.67
566.21	46368.35
566.38	46410.48
566.54	46810.71
566.70	46909.02
566.87	46632.83
567.03	46129.62
567.19	46719.43
567.36	46660.92
567.52	46890.29
567.68	47491.81
567.85	46712.41
568.01	46969.87
568.17	46923.06
568.34	47096.26
568.50	46600.07
568.66	46927.74
568.83	46962.85
568.99	46724.11
569.15	47250.74
569.32	46871.57
569.48	46904.34
569.64	47133.71
569.81	47049.45
569.97	47510.53
570.13	47180.52
570.30	46859.87
570.46	47002.64
570.62	47381.80
570.78	46850.50
570.95	47351.38
571.11	46724.11
571.27	46454.95
571.43	46997.96
571.60	47302.23
571.76	47498.83
571.92	47112.64
572.09	46951.15
572.25	47489.47
572.41	47129.03
572.57	47187.54
572.74	47477.77
572.90	47182.86
573.06	47437.98
573.22	47199.24
573.38	47255.42
573.55	47220.31
573.71	47536.28
573.87	47117.32
574.03	47564.37
574.20	47536.28
574.36	47217.97
574.52	47515.22
574.68	47384.15
574.84	47775.02
575.01	47559.69
575.17	47718.84
575.33	47306.91
575.49	47412.23
575.65	47679.05
575.82	47496.49
575.98	47114.98
576.14	47199.24
576.30	47721.18
576.46	47292.86
576.62	47395.85
576.79	47653.31
576.95	46885.61
577.11	47339.68
577.27	47030.72
577.43	47236.69
577.59	47494.15
577.75	47339.68
577.92	46967.53
578.08	47576.07
578.24	47379.46
578.40	47791.40
578.56	47435.64
578.72	47597.13
578.88	47323.29
579.04	47753.95
579.21	47501.17
579.37	47847.57
579.53	47482.45
579.69	47714.16
579.85	47000.30
580.01	47796.08
580.17	47482.45
580.33	47526.92
580.49	47611.18
580.65	47580.75
580.82	47409.89
580.98	47594.79
581.14	47498.83
581.30	47540.96
581.46	47313.93
581.62	47206.26
581.78	47285.84
581.94	47875.66
582.10	47370.10
582.26	47555.00
582.42	47311.59
582.58	48013.75
582.74	48016.09
582.90	47800.76
583.06	47875.66
583.22	47421.59
583.38	47800.76
583.54	47880.34
583.70	47463.72
583.86	47859.27
584.02	47777.36
584.18	48020.77
584.34	47906.08
584.50	48306.32
584.66	47515.22
584.82	48006.73
584.98	48039.50
585.14	48151.84
585.30	47395.85
585.46	47807.78
585.62	47688.42
585.78	47899.06
585.94	47480.11
586.10	47672.03
586.26	47728.20
586.42	47688.42
586.58	47646.29
586.74	47807.78
586.90	47999.71
587.06	47941.19
587.22	47735.23
587.38	47629.90
587.54	47924.81
587.70	48179.93
587.86	47959.92
588.02	47540.96
588.18	47819.49
588.34	48158.86
588.49	48055.88
588.65	47704.80
588.81	48067.58
588.97	48388.24
589.13	47988.00
589.29	48140.14
589.45	48189.29
589.61	48411.64
589.77	47889.70
589.93	48053.54
590.08	48299.30
590.24	48154.18
590.40	48364.83
590.56	48521.65
590.72	48179.93
590.88	48217.38
591.04	48025.45
591.20	48051.20
591.35	48259.51
591.51	48720.59
591.67	48095.67
591.83	48526.33
591.99	48114.39
592.15	48163.54
592.31	48584.84
592.46	48437.39
592.62	48458.45
592.78	48519.31
592.94	48449.09
593.10	48549.73
593.26	48327.38
593.41	48811.87
593.57	48308.66
593.73	48816.55
593.89	48861.02
594.05	48746.34
594.20	48254.82
594.36	48994.43
594.52	48849.32
594.68	48535.69
594.84	48425.68
594.99	48442.07
595.15	48655.06
595.31	48694.85
595.47	48481.86
595.62	48442.07
595.78	48402.28
595.94	48509.94
596.10	48343.77
596.25	48776.76
596.41	48849.32
596.57	48318.02
596.73	48959.33
596.88	48172.91
597.04	48729.95
597.20	48561.44
597.36	48692.50
597.51	48678.46
597.67	48818.89
597.83	48863.36
597.99	48692.50
598.14	48800.17
598.30	48673.78
598.46	48360.15
598.61	48818.89
598.77	48882.09
598.93	48924.22
599.09	48519.31
599.24	49043.59
599.40	48741.66
599.56	48732.29
599.71	49088.06
599.87	48971.03
600.03	49010.82
600.18	48800.17
600.34	48697.19
600.50	48554.41
600.65	48751.02
600.81	49059.97
600.97	48722.93
601.12	48776.76
601.28	48832.94
601.44	48484.20
601.59	48790.81
601.75	48720.59
601.91	48952.30
602.06	48502.92
602.22	49249.55
602.37	48521.65
602.53	48631.65
602.69	48917.20
602.84	48495.90
603.00	48762.72
603.16	48720.59
603.31	48732.29
603.47	48704.21
603.62	48519.31
603.78	49064.65
603.94	48760.38
604.09	48598.88
604.25	48863.36
604.40	48577.82
604.56	48580.16
604.71	48877.41
604.87	48336.74
605.03	48411.64
605.18	48458.45
605.34	48924.22
605.49	48353.13
605.65	48690.16
605.80	48701.87
605.96	48788.47
606.12	48479.52
606.27	48643.35
606.43	48196.31
606.58	48844.64
606.74	48449.09
606.89	48533.35
607.05	48781.45
607.20	48790.81
607.36	48725.27
607.51	48474.84
607.67	48505.26
607.82	48320.36
607.98	48362.49
608.13	48561.44
608.29	48456.11
608.44	48556.75
608.60	48348.45
608.75	48470.15
608.91	48479.52
609.06	48275.89
609.22	48683.14
609.37	48516.96
609.53	48362.49
609.68	48570.80
609.84	48556.75
609.99	48594.20
610.15	48538.03
610.30	48231.42
610.46	48470.15
610.61	48458.45
610.76	48762.72
610.92	48224.40
611.07	48215.04
611.23	48252.48
611.38	48348.45
611.54	48495.90
611.69	48133.12
611.84	48631.65
612.00	48193.97
612.15	48065.24
612.31	47988.00
612.46	48011.41
612.62	47995.03
612.77	48151.84
612.92	48282.91
613.08	48165.88
613.23	48020.77
613.39	48025.45
613.54	48229.08
613.69	48193.97
613.85	47927.15
614.00	48311.00
614.15	48217.38
614.31	48222.06
614.46	48086.31
614.62	47955.24
614.77	48156.52
614.92	48088.65
615.08	47665.01
615.23	48039.50
615.38	48254.82
615.54	47920.13
615.69	48053.54
615.84	47772.67
616.00	48465.47
616.15	47913.11
616.30	48158.86
616.46	47915.45
616.61	47896.72
616.76	48046.52
616.92	47927.15
617.07	47613.52
617.22	47807.78
617.37	47433.30
617.53	47819.49
617.68	47831.19
617.83	47688.42
617.99	47817.14
618.14	47941.19
618.29	47475.43
618.45	47400.53
618.60	47496.49
618.75	47290.52
618.90	47704.80
619.06	47896.72
619.21	47290.52
619.36	47945.87
619.51	47267.12
619.67	47627.56
619.82	47105.62
619.97	48048.86
620.12	47337.33
620.28	47428.62
620.43	47519.90
620.58	47805.44
620.73	47847.57
620.89	47889.70
621.04	47728.20
621.19	47475.43
621.34	47545.64
621.49	47019.02
621.65	46693.69
621.80	47412.23
621.95	47356.06
622.10	47412.23
622.25	47253.08
622.41	47349.04
622.56	47143.07
622.71	46859.87
622.86	47248.39
623.01	47309.25
623.16	47449.68
623.32	46883.27
623.47	47281.16
623.62	47040.09
623.77	47047.11
623.92	46993.28
624.07	47241.37
624.23	47337.33
624.38	46960.51
624.53	46745.18
624.68	46597.73
624.83	47028.38
624.98	47089.24
625.13	46681.98
625.29	46944.12
625.44	46817.74
625.59	46894.97
625.74	46806.03
625.89	46382.40
626.04	46480.70
626.19	46597.73
626.34	46284.09
626.49	46880.93
626.65	46256.01
626.80	46209.20
626.95	46169.41
627.10	45991.53
627.25	46639.86
627.40	46660.92
627.55	46609.43
627.70	45954.08
627.85	46677.30
628.00	46546.23
628.15	46321.54
628.30	46057.06
628.45	45752.79
628.60	45394.69
628.76	46244.30
628.91	46094.51
629.06	45933.01
629.21	45670.87
629.36	45872.16
629.51	46031.32
629.66	46473.68
629.81	46169.41
629.96	45902.59
630.11	45757.47
630.26	45799.60
630.41	45787.90
630.56	45565.55
630.71	46122.60
630.86	45474.27
631.01	45748.11
631.16	45631.08
631.31	45577.25
631.46	45956.42
631.61	45848.75
631.76	45794.92
631.91	45710.66
632.06	45808.96
632.21	46155.36
632.36	45666.19
632.51	45406.39
632.66	45638.11
632.81	45528.10
632.96	45565.55
633.10	45460.23
633.25	45422.78
633.40	45818.33
633.55	45727.05
633.70	45385.33
633.85	45371.28
634.00	45067.02
634.15	45160.64
634.30	45413.41
634.45	45184.04
634.60	45361.92
634.75	45336.18
634.90	45319.79
635.05	45055.31
635.19	45378.31
635.34	45305.75
635.49	45242.56
635.64	45338.52
635.79	45539.80
635.94	45195.74
636.09	44980.42
636.24	44718.28
636.39	44957.01
636.53	44949.99
636.68	44643.38
636.83	44809.56
636.98	44760.40
637.13	44720.62
637.28	44561.46
637.43	45064.67
637.57	44814.24
637.72	44779.13
637.87	44921.90
638.02	44708.91
638.17	44299.32
638.32	44442.09
638.46	44273.57
638.61	44460.82
638.76	44535.71
638.91	44729.98
639.06	44336.77
639.20	44273.57
639.35	44194.00
639.50	44074.63
639.65	44835.30
639.80	44931.26
639.94	44435.07
640.09	44151.87
640.24	44435.07
640.39	44126.12
640.54	44083.99
640.68	44652.74
640.83	44488.90
640.98	44121.44
641.13	43962.28
641.27	44065.27
641.42	44479.54
641.57	44002.07
641.72	43847.60
641.86	43814.83
642.01	43763.34
642.16	44013.77
642.31	43765.68
642.45	44030.16
642.60	43304.59
642.75	43688.44
642.90	44072.29
643.04	43480.13
643.19	43655.67
643.34	43438.00
643.48	43449.70
643.63	43824.19
643.78	43882.70
643.93	44186.97
644.07	43573.75
644.22	43587.80
644.37	43540.99
644.51	43885.04
644.66	43562.05
644.81	43337.36
644.95	43360.76
645.10	43435.66
645.25	43702.48
645.39	43217.99
645.54	43648.65
645.69	43274.16
645.83	43143.09
645.98	43093.94
646.13	43225.01
646.27	43175.86
646.42	42906.70
646.57	43328.00
646.71	43051.81
646.86	43625.25
647.00	43105.65
647.15	43365.45
647.30	43625.25
647.44	42976.92
647.59	42813.08
647.74	42890.32
647.88	43466.09
648.03	43344.38
648.17	43309.27
648.32	43246.08
648.47	43430.98
648.61	42780.31
648.76	42913.72
648.90	42754.57
649.05	42635.20
649.20	42829.46
649.34	42969.90
649.49	42852.87
649.63	43246.08
649.78	43136.07
649.92	42873.93
650.07	43107.99
650.21	43058.84
650.36	43274.16
650.51	42909.04
650.65	42476.04
650.80	43119.69
650.94	42621.16
651.09	42677.33
651.23	42349.65
651.38	42092.19
651.52	42286.46
651.67	42106.24
651.81	42117.94
651.96	42604.77
652.10	42188.16
652.25	42340.29
652.39	42270.08
652.54	42115.60
652.68	42595.41
652.83	42366.04
652.97	42075.81
653.12	42246.67
653.26	42029.00
653.41	41762.18
653.55	41918.99
653.70	42419.87
653.84	42377.74
653.99	41996.23
654.13	42036.02
654.27	42419.87
654.42	42033.68
654.56	41940.06
654.71	42010.28
654.85	42237.31
655.00	42363.70
655.14	42038.36
655.29	41883.89
655.43	42344.97
655.57	41848.78
655.72	42185.82
655.86	41670.90
656.01	41769.20
656.15	41476.63
656.30	41642.81
656.44	41652.17
656.58	41823.03
656.73	41488.34
656.87	41275.35
657.01	41408.76
657.16	41986.87
657.30	41544.51
657.45	41319.82
657.59	41104.49
657.73	40914.90
657.88	41141.94
658.02	41312.80
658.16	41691.96
658.31	41003.85
658.45	41177.04
658.60	41127.89
658.74	41120.87
658.88	41216.83
659.03	41242.58
659.17	41256.62
659.31	40952.35
659.46	41031.93
659.60	41013.21
659.74	40687.87
659.89	40346.15
660.03	40198.70
660.17	40905.54
660.32	40849.37
660.46	40664.47
660.60	40187.00
660.74	40346.15
660.89	40460.84
661.03	40414.03
661.17	39892.09
661.32	40130.83
661.46	40257.21
661.60	40304.02
661.74	40027.84
661.89	40231.47
662.03	40297.00
662.17	39859.32
662.31	39950.60
662.46	39981.03
662.60	39543.35
662.74	39501.22
662.88	39157.16
663.03	38836.51
663.17	39653.36
663.31	38890.34
663.45	39461.43
663.60	39543.35
663.74	39473.13
663.88	39660.38
664.02	39388.88
664.17	39491.86
664.31	38644.59
664.45	38679.69
664.59	38927.79
664.73	39005.03
664.88	39091.63
665.02	39044.82
665.16	38862.26
665.30	38714.80
665.44	38892.68
665.59	38630.54
665.73	38529.90
665.87	38267.76
666.01	38452.66
666.15	38504.15
666.29	38455.00
666.44	38735.87
666.58	38220.95
666.72	38117.96
666.86	37940.08
667.00	38363.72
667.14	38148.39
667.28	38190.52
667.43	38040.73
667.57	38164.78
667.71	37965.83
667.85	38087.54
667.99	38103.92
668.13	37640.50
668.27	37013.23
668.41	37776.25
668.56	37181.75
668.70	37156.00
668.84	37399.42
668.98	36776.84
669.12	37127.92
669.26	36959.40
669.40	37106.85
669.54	37181.75
669.68	37022.59
669.82	37067.06
669.96	36437.46
670.10	36636.41
670.25	36868.12
670.39	36322.77
670.53	36699.60
670.67	36690.24
670.81	36879.82
670.95	36662.15
671.09	35828.92
671.23	36130.85
671.37	36367.24
671.51	36329.80
671.65	35817.22
671.79	35868.71
671.93	36165.96
672.07	36231.49
672.21	36165.96
672.35	35449.75
672.49	35442.73
672.63	35739.98
672.77	35344.43
672.91	35723.60
673.05	35807.86
673.19	34993.35
673.33	35108.04
673.47	35042.50
673.61	35189.95
673.75	34965.26
673.89	34679.72
674.03	34532.26
674.17	34719.51
674.31	34319.28
674.45	34183.52
674.59	34391.83
674.73	34452.69
674.87	34160.12
675.01	34375.45
675.15	33839.47
675.29	33989.26
675.43	33729.46
675.56	34113.31
675.70	33670.95
675.84	33521.15
675.98	32987.51
676.12	33504.77
676.26	33914.36
676.40	33249.65
676.54	33125.60
676.68	33193.48
676.82	32306.41
676.96	33083.47
677.10	33284.76
677.23	32966.45
677.37	32442.17
677.51	32701.96
677.65	32510.04
677.79	32704.31
677.93	32531.11
678.07	31955.33
678.21	32343.86
678.34	31838.31
678.48	31903.84
678.62	31784.48
678.76	31840.65
678.90	31681.49
679.04	31409.99
679.18	31489.57
679.31	31419.35
679.45	31564.46
679.59	30876.35
679.73	31304.67
679.87	30698.47
680.00	31133.81
680.14	31136.15
680.28	30682.08
680.42	30855.28
680.56	30548.67
680.70	30132.06
680.83	30000.99
680.97	30206.95
681.11	30057.16
681.25	30122.69
681.39	29956.52
681.52	29743.53
681.66	29488.41
681.80	29474.37
681.94	29425.22
682.07	29158.39
682.21	28774.55
682.35	28947.75
682.49	29317.55
682.62	28854.12
682.76	28996.90
682.90	28826.04
683.04	28978.17
683.17	28463.25
683.31	28346.23
683.45	28362.61
683.59	28180.05
683.72	27873.44
683.86	28222.18
684.00	27889.82
684.13	28095.79
684.27	27859.40
684.41	27562.15
684.55	27431.08
684.68	27201.71
684.82	27068.30
684.96	27175.96
685.09	27304.69
685.23	27513.00
685.37	27751.73
685.50	27278.94
685.64	26757.00
685.78	26937.23
685.91	26731.26
686.05	26232.72
686.19	26188.25
686.32	26401.24
686.46	25832.49
686.60	25982.29
686.73	26141.44
686.87	26237.41
687.01	26209.32
687.14	26017.40
687.28	25996.33
687.42	25638.23
687.55	25500.14
687.69	25319.92
687.82	24978.20
687.96	25373.75
688.10	25081.18
688.23	25118.63
688.37	25472.05
688.50	25238.00
688.64	24900.96
688.78	24847.13
688.91	24694.99
689.05	24744.14
689.18	23964.75
689.32	23845.38
689.46	23927.30
689.59	24159.01
689.73	24259.65
689.86	24100.50
690.00	24311.14
690.13	23985.81
690.27	23419.40
690.41	23646.43
690.54	23529.41
690.68	23688.56
690.81	23262.58
690.95	23449.83
691.08	23035.55
691.22	23133.86
691.35	22916.19
691.49	23012.15
691.62	22918.53
691.76	22572.13
691.89	22455.10
692.03	22078.27
692.16	22333.39
692.30	22167.21
692.43	22061.89
692.57	22377.86
692.70	21905.07
692.84	21869.97
692.97	21851.24
693.11	21692.08
693.24	21341.00
693.38	21509.52
693.51	21589.10
693.65	21226.32
693.78	21055.46
693.92	21041.42
694.05	20823.75
694.19	21167.80
694.32	20868.22
694.45	20931.41
694.59	21043.76
694.72	21123.33
694.86	20666.93
694.99	20306.49
695.13	20203.50
695.26	20154.35
695.39	20194.14
695.53	19990.52
695.66	19768.16
695.80	19573.90
695.93	19807.95
696.07	19721.35
696.20	19117.50
696.33	19353.89
696.47	19112.81
696.60	19227.50
696.73	19335.17
696.87	18925.57
697.00	19129.20
697.14	18841.31
697.27	18838.97
697.40	19037.92
697.54	18523.00
697.67	18401.29
697.80	18497.25
697.94	18389.59
698.07	18380.23
698.21	18230.43
698.34	18298.31
698.47	18101.70
698.61	17893.40
698.74	17736.58
698.87	17949.57
699.01	17748.28
699.14	17956.59
699.27	17888.71
699.40	17397.20
699.54	17352.73
699.67	17277.83
699.80	17518.91
699.94	17135.06
700.07	17469.76
700.20	17015.69
700.34	16617.80
700.47	16779.30
700.60	17167.83
700.73	16727.81
700.87	16809.73
701.00	16622.48
701.13	16517.16
701.26	16322.90
701.40	16360.34
701.53	16475.03
701.66	16191.83
701.79	16231.62
701.93	15817.34
702.06	15880.53
702.19	15733.08
702.32	15822.02
702.46	15676.91
702.59	16070.12
702.72	15833.72
702.85	15613.71
702.99	15494.35
703.12	15442.85
703.25	15204.12
703.38	15103.48
703.51	15438.17
703.65	15005.17
703.78	14876.44
703.91	14803.89
704.04	14506.64
704.17	14710.27
704.31	14883.47
704.44	14520.68
704.57	14602.60
704.70	14537.07
704.83	14429.40
704.96	14312.38
705.10	13881.72
705.23	14415.36
>>>>>End Processed Spectral Data<<<<<
