SpectraSuite Data File
++++++++++++++++++++++++++++++++++++
Date: Fri Oct 25 10:48:01 EDT 2013
User: price-jones
Dark Spectrum Present: No
Reference Spectrum Present: No
Number of Sampled Component Spectra: 1
Spectrometers: USB2+H05261
Integration Time (usec): 100000 (USB2+H05261)
Spectra Averaged: 1 (USB2+H05261)
Boxcar Smoothing: 0 (USB2+H05261)
Correct for Electrical Dark: No (USB2+H05261)
Strobe/Lamp Enabled: No (USB2+H05261)
Correct for Detector Non-linearity: No (USB2+H05261)
Correct for Stray Light: No (USB2+H05261)
Number of Pixels in Processed Spectrum: 2048
>>>>>Begin Processed Spectral Data<<<<<
365.73	135.75
365.92	135.75
366.12	135.75
366.32	0.00
366.52	42.13
366.72	60.85
366.91	35.11
367.11	65.54
367.31	35.11
367.51	7.02
367.70	28.09
367.90	67.88
368.10	23.41
368.30	60.85
368.49	32.77
368.69	138.09
368.89	70.22
369.09	46.81
369.28	53.83
369.48	0.00
369.68	124.05
369.87	49.15
370.07	39.79
370.27	147.45
370.47	149.79
370.66	322.99
370.86	320.65
371.06	430.66
371.25	409.59
371.45	351.08
371.65	447.04
371.84	493.85
372.04	423.64
372.24	517.26
372.44	355.76
372.63	512.58
372.83	484.49
373.03	498.53
373.22	507.90
373.42	533.64
373.62	596.84
373.81	566.41
374.01	498.53
374.21	543.00
374.40	496.19
374.60	477.47
374.79	519.60
374.99	545.34
375.19	559.39
375.38	573.43
375.58	627.26
375.78	650.67
375.97	524.28
376.17	592.16
376.37	484.49
376.56	545.34
376.76	552.37
376.95	578.11
377.15	695.14
377.35	596.84
377.54	627.26
377.74	521.94
377.93	589.82
378.13	669.39
378.33	622.58
378.52	650.67
378.72	575.77
378.91	622.58
379.11	566.41
379.31	571.09
379.50	512.58
379.70	629.60
379.89	603.86
380.09	657.69
380.28	650.67
380.48	613.22
380.68	613.22
380.87	676.41
381.07	610.88
381.26	709.18
381.46	683.44
381.65	667.05
381.85	725.57
382.04	660.03
382.24	655.35
382.43	737.27
382.63	624.92
382.83	751.31
383.02	767.70
383.22	692.80
383.41	702.16
383.61	751.31
383.80	781.74
384.00	760.67
384.19	767.70
384.39	812.17
384.58	741.95
384.78	711.52
384.97	713.86
385.17	688.12
385.36	683.44
385.56	758.33
385.75	748.97
385.95	711.52
386.14	739.61
386.34	716.20
386.53	695.14
386.72	683.44
386.92	861.32
387.11	779.40
387.31	791.10
387.50	767.70
387.70	854.30
387.89	861.32
388.09	753.65
388.28	821.53
388.48	763.01
388.67	812.17
388.86	840.25
389.06	903.45
389.25	800.46
389.45	833.23
389.64	875.36
389.84	976.00
390.03	891.74
390.22	940.90
390.42	896.43
390.61	990.05
390.81	877.70
391.00	882.38
391.19	1060.26
391.39	978.34
391.58	959.62
391.78	912.81
391.97	950.26
392.16	1004.09
392.36	997.07
392.55	912.81
392.75	938.55
392.94	999.41
393.13	971.32
393.33	854.30
393.52	1032.18
393.71	1041.54
393.91	950.26
394.10	1004.09
394.29	1043.88
394.49	1050.90
394.68	1121.12
394.88	1034.52
395.07	1062.60
395.26	1086.01
395.46	1062.60
395.65	1118.78
395.84	1228.78
396.04	1240.48
396.23	1057.92
396.42	1188.99
396.62	1071.97
396.81	1245.16
397.00	1111.75
397.19	1118.78
397.39	1210.06
397.58	1200.69
397.77	1256.87
397.97	1181.97
398.16	1210.06
398.35	1303.68
398.55	1270.91
398.74	1343.47
398.93	1416.02
399.12	1303.68
399.32	1357.51
399.51	1345.81
399.70	1329.42
399.90	1413.68
400.09	1371.55
400.28	1390.28
400.47	1394.96
400.67	1385.60
400.86	1526.03
401.05	1401.98
401.24	1418.36
401.44	1504.96
401.63	1434.75
401.82	1434.75
402.01	1465.18
402.21	1514.33
402.40	1385.60
402.59	1533.05
402.78	1551.78
402.97	1441.77
403.17	1521.35
403.36	1455.81
403.55	1563.48
403.74	1563.48
403.93	1610.29
404.13	1661.78
404.32	1612.63
404.51	1584.54
404.70	1654.76
404.89	1547.09
405.09	1668.80
405.28	1598.59
405.47	1650.08
405.66	1696.89
405.85	1661.78
406.05	1736.68
406.24	1701.57
406.43	1715.61
406.62	1790.51
406.81	1879.45
407.00	1788.17
407.20	1799.87
407.39	1902.86
407.58	1827.96
407.77	1790.51
407.96	1846.68
408.15	1893.49
408.34	1935.62
408.54	1909.88
408.73	2022.22
408.92	1996.48
409.11	1984.77
409.30	2045.63
409.49	2036.27
409.68	2019.88
409.87	1975.41
410.07	2090.10
410.26	2148.61
410.45	2069.03
410.64	2071.37
410.83	2106.48
411.02	2150.95
411.21	2293.72
411.40	2134.57
411.59	2228.19
411.78	2284.36
411.98	2260.96
412.17	2284.36
412.36	2293.72
412.55	2310.11
412.74	2377.98
412.93	2377.98
413.12	2392.03
413.31	2588.63
413.50	2511.39
413.69	2450.54
413.88	2530.12
414.07	2394.37
414.26	2382.67
414.45	2567.57
414.64	2586.29
414.83	2698.64
415.02	2733.75
415.22	2628.42
415.41	2747.79
415.60	2679.91
415.79	2733.75
415.98	2878.86
416.17	2806.30
416.36	2740.77
416.55	2848.43
416.74	2794.60
416.93	2944.39
417.12	2883.54
417.31	2928.01
417.50	2925.67
417.69	2965.46
417.88	3056.74
418.07	2988.86
418.26	3009.93
418.45	3021.63
418.64	3152.70
418.83	3234.62
419.02	3105.89
419.21	3119.93
419.39	3063.76
419.58	3103.55
419.77	3159.72
419.96	3258.03
420.15	3293.13
420.34	3262.71
420.53	3295.47
420.72	3311.86
420.91	3351.65
421.10	3241.64
421.29	3335.26
421.48	3187.81
421.67	3361.01
421.86	3344.63
422.05	3311.86
422.24	3339.94
422.43	3258.03
422.61	3442.93
422.80	3468.67
422.99	3309.52
423.18	3590.38
423.37	3517.83
423.56	3489.74
423.75	3574.00
423.94	3510.80
424.13	3295.47
424.32	3213.56
424.50	3550.59
424.69	3611.45
424.88	3508.46
425.07	3545.91
425.26	3529.53
425.45	3531.87
425.64	3424.20
425.83	3557.61
426.01	3445.27
426.20	3496.76
426.39	3501.44
426.58	3566.98
426.77	3400.80
426.96	3627.83
427.15	3709.75
427.33	3630.17
427.52	3564.64
427.71	3557.61
427.90	3660.60
428.09	3538.89
428.28	3735.50
428.46	3641.87
428.65	3707.41
428.84	3889.97
429.03	3864.22
429.22	3756.56
429.40	3747.20
429.59	3761.24
429.78	3552.93
429.97	3475.70
430.16	3763.58
430.34	3882.95
430.53	3721.45
430.72	3808.05
430.91	3882.95
431.10	3824.44
431.28	4042.11
431.47	3988.27
431.66	4016.36
431.85	4023.38
432.03	4102.96
432.22	4119.34
432.41	4198.92
432.60	4163.81
432.79	4126.36
432.97	4086.58
433.16	4255.09
433.35	4189.56
433.54	4147.43
433.72	4381.48
433.91	4140.41
434.10	4297.22
434.28	4248.07
434.47	4255.09
434.66	4337.01
434.85	4346.37
435.03	4482.13
435.22	4269.14
435.41	4582.77
435.59	4550.00
435.78	4369.78
435.97	4582.77
436.16	4587.45
436.34	4631.92
436.53	4477.44
436.72	4430.63
436.90	4414.25
437.09	4652.98
437.28	4561.70
437.46	4519.57
437.65	4470.42
437.84	4582.77
438.02	4713.84
438.21	4624.90
438.40	4594.47
438.58	4868.31
438.77	4744.27
438.96	4772.35
439.14	4865.97
439.33	4985.34
439.52	5036.83
439.70	5027.47
439.89	4971.30
440.08	5083.64
440.26	5027.47
440.45	5069.60
440.63	5331.74
440.82	5228.76
441.01	5254.50
441.19	5277.91
441.38	5357.49
441.57	5313.02
441.75	5425.36
441.94	5544.73
442.12	5427.70
442.31	5593.88
442.50	5621.97
442.68	5647.71
442.87	5406.64
443.05	5687.50
443.24	5526.00
443.43	5692.18
443.61	5769.42
443.80	5863.04
443.98	5371.53
444.17	5507.28
444.35	5767.08
444.54	5799.85
444.73	5694.52
444.91	5795.17
445.10	5806.87
445.28	5680.48
445.47	5785.80
445.65	5638.35
445.84	5837.30
446.02	5865.38
446.21	5860.70
446.39	5823.25
446.58	5907.51
446.77	5891.13
446.95	5891.13
447.14	5769.42
447.32	5867.72
447.51	5886.45
447.69	5703.89
447.88	6038.58
448.06	6059.65
448.25	6015.18
448.43	5900.49
448.62	5717.93
448.80	5790.49
448.99	6101.78
449.17	6174.33
449.36	6001.13
449.54	6054.97
449.73	6136.88
449.91	6211.78
450.10	6216.46
450.28	6256.25
450.46	6293.70
450.65	6085.39
450.83	6249.23
451.02	6214.12
451.20	6380.30
451.39	6473.92
451.57	6427.11
451.76	6312.42
451.94	6296.04
452.13	6438.81
452.31	6335.83
452.49	6263.27
452.68	6338.17
452.86	6303.06
453.05	6544.14
453.23	6513.71
453.42	6621.38
453.60	6553.50
453.78	6621.38
453.97	6457.54
454.15	6490.31
454.34	6335.83
454.52	6602.65
454.70	6576.91
454.89	6677.55
455.07	6691.59
455.26	6635.42
455.44	6892.88
455.62	6696.27
455.81	6707.98
455.99	6883.52
456.17	6986.50
456.36	6984.16
456.54	6972.46
456.73	7063.74
456.91	7241.62
457.09	7166.72
457.28	7265.02
457.46	7183.10
457.64	7332.90
457.83	7115.23
458.01	7171.40
458.19	7297.79
458.38	7126.93
458.56	7527.16
458.74	7197.15
458.93	7222.89
459.11	7262.68
459.29	7595.04
459.48	7559.93
459.66	7438.22
459.84	7470.99
460.03	7782.28
460.21	7571.63
460.39	7485.03
460.57	7639.51
460.76	7571.63
460.94	7719.09
461.12	7784.62
461.31	7698.02
461.49	7644.19
461.67	7590.36
461.85	7798.66
462.04	7681.64
462.22	8234.00
462.40	7728.45
462.59	7632.49
462.77	7918.03
462.95	8011.65
463.13	7995.27
463.32	8116.98
463.50	8013.99
463.68	8067.83
463.86	7997.61
464.05	7971.86
464.23	8013.99
464.41	8039.74
464.59	7822.07
464.78	8126.34
464.96	8105.28
465.14	7880.58
465.32	8196.56
465.50	8002.29
465.69	8226.98
465.87	8290.18
466.05	8388.48
466.23	8259.75
466.41	8336.99
466.60	8463.38
466.78	8306.56
466.96	8081.87
467.14	8351.03
467.32	8423.59
467.51	8411.89
467.69	8231.66
467.87	8388.48
468.05	8535.93
468.23	8315.92
468.41	8458.70
468.60	8468.06
468.78	8645.94
468.96	8648.28
469.14	8526.57
469.32	8629.56
469.50	8519.55
469.69	8638.92
469.87	8699.77
470.05	8674.03
470.23	8716.16
470.41	8774.67
470.59	8884.67
470.77	9034.47
470.95	8901.06
471.14	8964.25
471.32	8781.69
471.50	9156.18
471.68	9100.00
471.86	9259.16
472.04	9376.19
472.22	9383.21
472.40	8999.36
472.58	9188.94
472.77	9324.69
472.95	9554.07
473.13	9792.80
473.31	9317.67
473.49	9359.80
473.67	9392.57
473.85	9596.20
474.03	9685.14
474.21	9736.63
474.39	9811.53
474.57	9893.44
474.75	10040.90
474.93	9853.66
475.12	9909.83
475.30	10104.09
475.48	10129.84
475.66	10078.35
475.84	10251.55
476.02	10207.08
476.20	10399.00
476.38	10574.54
476.56	10569.86
476.74	10541.77
476.92	10544.11
477.10	10593.26
477.28	10679.86
477.46	10609.65
477.64	10920.94
477.82	10855.40
478.00	11201.80
478.18	11176.06
478.36	11274.36
478.54	11510.75
478.72	11407.77
478.90	11480.33
479.08	11611.40
479.26	11723.74
479.44	11698.00
479.62	11812.68
479.80	11728.42
479.98	11861.84
480.16	12243.34
480.34	12095.89
480.52	12187.17
480.70	12395.48
480.88	12306.54
481.06	12498.46
481.24	12517.18
481.41	12662.30
481.59	12631.87
481.77	12938.48
481.95	12987.63
482.13	13259.13
482.31	12938.48
482.49	13308.29
482.67	13301.26
482.85	13565.74
483.03	13540.00
483.21	13460.42
483.39	13839.59
483.57	13659.37
483.74	13980.02
483.92	13961.30
484.10	14120.45
484.28	14218.75
484.46	14459.83
484.64	14604.94
484.82	14436.42
485.00	14658.78
485.18	14712.61
485.35	14925.60
485.53	14724.31
485.71	14853.04
485.89	15243.91
486.07	15208.80
486.25	15089.43
486.43	15428.81
486.61	15599.67
486.78	15660.52
486.96	15854.79
487.14	16147.36
487.32	16063.10
487.50	16217.57
487.68	16505.46
487.85	16596.74
488.03	16568.65
488.21	16961.86
488.39	16975.91
488.57	17137.40
488.75	17446.35
488.92	17399.54
489.10	17263.79
489.28	17446.35
489.46	17715.51
489.64	17579.76
489.81	18302.99
489.99	18153.20
490.17	18160.22
490.35	18703.22
490.53	18630.66
490.70	18752.37
490.88	18780.46
491.06	19002.81
491.24	18649.39
491.41	18768.76
491.59	18691.52
491.77	19073.03
491.95	19454.53
492.13	19353.89
492.30	19639.44
492.48	19744.76
492.66	19765.82
492.84	19594.96
493.01	20154.35
493.19	19805.61
493.37	20163.72
493.54	20166.06
493.72	20416.49
493.90	20414.15
494.08	20629.48
494.25	21186.53
494.43	21277.81
494.61	21123.33
494.79	21223.98
494.96	21198.23
495.14	21366.75
495.32	21816.13
495.49	21703.79
495.67	21703.79
495.85	21593.78
496.02	22125.08
496.20	22174.24
496.38	22237.43
496.55	22267.86
496.73	22939.59
496.91	22197.64
497.09	22445.74
497.26	22607.23
497.44	22869.37
497.62	23033.21
497.79	23236.84
497.97	22752.35
498.14	23342.16
498.32	23379.61
498.50	23337.48
498.67	23597.28
498.85	23704.95
499.03	24187.10
499.20	23850.06
499.38	24194.12
499.56	24219.86
499.73	24128.58
499.91	24261.99
500.08	24503.07
500.26	24240.93
500.44	24561.58
500.61	24620.10
500.79	24629.46
500.97	24580.31
501.14	25476.73
501.32	24996.92
501.49	25039.05
501.67	24940.75
501.84	25177.14
502.02	25039.05
502.20	25387.79
502.37	25338.64
502.55	25268.42
502.72	25322.26
502.90	25619.50
503.07	25191.19
503.25	25818.45
503.43	25799.73
503.60	25855.90
503.78	25757.60
503.95	25993.99
504.13	26099.31
504.30	26668.06
504.48	25942.50
504.65	26211.66
504.83	26803.82
505.01	26581.46
505.18	27005.10
505.36	27098.72
505.53	27094.04
505.71	27115.11
505.88	27388.95
506.06	26749.98
506.23	27190.00
506.41	26937.23
506.58	27164.26
506.76	27337.46
506.93	27410.01
507.11	27597.26
507.28	27728.33
507.46	27597.26
507.63	27838.33
507.81	27667.47
507.98	27426.40
508.16	27744.71
508.33	28229.20
508.50	27992.81
508.68	28512.41
508.85	28542.83
509.03	28479.64
509.20	28402.40
509.38	28671.56
509.55	28634.11
509.73	29071.79
509.90	28837.74
510.08	29036.69
510.25	28996.90
510.42	29090.52
510.60	29289.46
510.77	29668.63
510.95	29331.59
511.12	28945.41
511.30	29483.73
511.47	29759.91
511.64	29818.42
511.82	29902.68
511.99	29816.08
512.17	30071.20
512.34	29991.62
512.51	30029.07
512.69	30000.99
512.86	30260.79
513.04	30848.26
513.21	30445.69
513.38	30141.42
513.56	30223.34
513.73	30373.13
513.90	30309.94
514.08	30707.83
514.25	31026.14
514.43	30934.86
514.60	30213.98
514.77	31140.83
514.95	31117.42
515.12	30948.90
515.29	31173.60
515.47	31498.93
515.64	31587.87
515.81	31194.66
515.99	31339.77
516.16	31150.19
516.33	30895.07
516.51	31735.32
516.68	31456.80
516.85	31292.96
517.03	31332.75
517.20	31363.18
517.37	31669.79
517.54	32051.30
517.72	32182.37
517.89	31690.85
518.06	31819.58
518.24	32112.15
518.41	31948.31
518.58	32280.67
518.75	32156.62
518.93	32690.26
519.10	32287.69
519.27	32308.76
519.45	32278.33
519.62	32629.41
519.79	32395.35
519.96	32727.71
520.14	32989.85
520.31	33156.03
520.48	33092.83
520.65	33111.56
520.83	32910.27
521.00	33214.54
521.17	33235.61
521.34	33668.61
521.52	33266.03
521.69	33584.35
521.86	33502.43
522.03	33787.97
522.20	33785.63
522.38	34092.24
522.55	33865.21
522.72	33979.90
522.89	33507.11
523.07	34167.14
523.24	33886.28
523.41	33820.74
523.58	33977.56
523.75	34506.52
523.92	34511.20
524.10	34565.03
524.27	34656.31
524.44	34927.81
524.61	34590.78
524.78	34747.59
524.96	34878.66
525.13	35105.70
525.30	34976.97
525.47	35171.23
525.64	35285.92
525.81	34962.92
525.98	35129.10
526.16	34745.25
526.33	34829.51
526.50	35393.58
526.67	34719.51
526.84	35260.17
527.01	35009.73
527.18	35243.79
527.36	35370.18
527.53	35543.38
527.70	35763.39
527.87	36013.82
528.04	35959.99
528.21	36020.84
528.38	35899.14
528.55	36112.13
528.72	36074.68
528.89	36355.54
529.07	36371.92
529.24	35917.86
529.41	36095.74
529.58	35985.74
529.75	36107.44
529.92	36563.85
530.09	36481.93
530.26	36762.79
530.43	36458.52
530.60	36690.24
530.77	36411.71
530.94	36732.37
531.11	36982.80
531.28	37235.58
531.46	36868.12
531.63	37340.91
531.80	36811.95
531.97	36907.91
532.14	37177.07
532.31	37282.39
532.48	37132.60
532.65	37254.31
532.82	37364.31
532.99	36861.10
533.16	37476.66
533.33	37738.80
533.50	37385.38
533.67	37596.03
533.84	37727.10
534.01	37481.34
534.18	37497.72
534.35	38101.58
534.52	37474.32
534.69	38010.30
534.86	37825.40
535.03	37677.94
535.20	38326.27
535.37	38356.70
535.54	38054.77
535.71	38092.22
535.88	38394.15
536.05	38150.73
536.22	38539.26
536.38	38419.89
536.55	38281.80
536.72	38288.82
536.89	38302.87
537.06	38157.75
537.23	38841.19
537.40	38239.67
537.57	38249.03
537.74	38560.33
537.91	38895.02
538.08	38501.81
538.25	38394.15
538.42	38529.90
538.59	38822.47
538.75	38361.38
538.92	38974.60
539.09	39040.14
539.26	38911.41
539.43	39309.30
539.60	38958.22
539.77	38789.70
539.94	39182.91
540.11	38902.04
540.28	39304.62
540.44	39206.31
540.61	39222.70
540.78	39077.58
540.95	38925.45
541.12	39152.48
541.29	39332.70
541.46	39306.96
541.62	39578.46
541.79	39756.34
541.96	39210.99
542.13	39213.34
542.30	39515.26
542.47	39587.82
542.63	39730.59
542.80	39515.26
542.97	40287.64
543.14	40334.45
543.31	40374.24
543.48	40355.52
543.64	40374.24
543.81	40086.36
543.98	40755.75
544.15	40549.78
544.32	40289.98
544.48	40748.73
544.65	40535.74
544.82	40725.32
544.99	40456.16
545.16	40390.62
545.32	40165.93
545.49	41125.55
545.66	40762.77
545.83	40882.14
546.00	40879.80
546.16	40711.28
546.33	40828.30
546.50	40524.04
546.67	40521.69
546.83	40514.67
547.00	40690.21
547.17	40854.05
547.34	40666.81
547.50	41078.74
547.67	41553.87
547.84	41352.58
548.00	41329.18
548.17	41366.63
548.34	41139.60
548.51	41579.62
548.67	41373.65
548.84	41588.98
549.01	41263.64
549.18	41242.58
549.34	41830.05
549.51	41893.25
549.68	41731.75
549.84	41654.51
550.01	41626.43
550.18	41322.16
550.34	41656.85
550.51	41816.01
550.68	41287.05
550.84	41317.48
551.01	41886.23
551.18	41879.21
551.34	41436.84
551.51	41453.23
551.68	42012.62
551.84	41907.29
552.01	42040.70
552.18	42089.85
552.34	41991.55
552.51	42143.69
552.68	41392.37
552.84	42321.57
553.01	42623.50
553.18	41897.93
553.34	42209.22
553.51	41839.42
553.67	42162.41
553.84	42445.62
554.01	42572.00
554.17	42616.47
554.34	42539.24
554.51	42817.76
554.67	42443.27
554.84	42251.35
555.00	42527.53
555.17	42075.81
555.33	42328.59
555.50	42492.43
555.67	42766.27
555.83	42939.47
556.00	43030.75
556.16	43206.29
556.33	42967.55
556.50	42852.87
556.66	43079.90
556.83	42883.30
556.99	43040.11
557.16	43012.02
557.32	42990.96
557.49	42651.58
557.65	42637.54
557.82	43019.05
557.98	43264.80
558.15	42810.74
558.32	43199.27
558.48	42930.11
558.65	42906.70
558.81	42803.72
558.98	43344.38
559.14	42667.97
559.31	42822.44
559.47	43295.23
559.64	43089.26
559.80	43449.70
559.97	43608.86
560.13	42990.96
560.30	43129.05
560.46	43189.91
560.63	43313.95
560.79	43363.11
560.96	43597.16
561.12	43416.94
561.29	42972.24
561.45	43131.39
561.61	43381.83
561.78	43416.94
561.94	43318.64
562.11	43423.96
562.27	43430.98
562.44	43098.62
562.60	43320.98
562.77	43800.79
562.93	43681.42
563.10	43180.54
563.26	43110.33
563.42	44011.43
563.59	43835.89
563.75	43515.24
563.92	43805.47
564.08	43578.43
564.24	43786.74
564.41	44032.50
564.57	43538.65
564.74	43578.43
564.90	43819.51
565.07	44055.90
565.23	43742.27
565.39	43636.95
565.56	43887.39
565.72	43803.13
565.88	43782.06
566.05	43873.34
566.21	44100.37
566.38	43643.97
566.54	43866.32
566.70	43777.38
566.87	44411.67
567.03	43959.94
567.19	44128.46
567.36	43988.03
567.52	44060.58
567.68	44060.58
567.85	43842.92
568.01	43728.23
568.17	43906.11
568.34	44208.04
568.50	43908.45
568.66	43910.79
568.83	44112.08
568.99	43768.02
569.15	43920.15
569.32	43983.35
569.48	43835.89
569.64	44098.03
569.81	44493.58
569.97	43779.72
570.13	44093.35
570.30	44215.06
570.46	43913.13
570.62	44011.43
570.78	43800.79
570.95	44079.31
571.11	44107.40
571.27	43941.22
571.43	44107.40
571.60	44032.50
571.76	43927.17
571.92	44165.91
572.09	44144.84
572.25	44353.15
572.41	44481.88
572.57	44102.71
572.74	44786.15
572.90	44060.58
573.06	44095.69
573.22	44404.64
573.38	44205.70
573.55	43480.13
573.71	44790.83
573.87	44294.64
574.03	44069.95
574.20	44348.47
574.36	43955.26
574.52	44673.81
574.68	44369.54
574.84	44538.05
575.01	44287.62
575.17	44484.22
575.33	44027.82
575.49	43817.17
575.65	44645.72
575.82	44367.20
575.98	44446.77
576.14	44399.96
576.30	44524.01
576.46	43772.70
576.62	44030.16
576.79	44135.48
576.95	43686.10
577.11	43945.90
577.27	44343.79
577.43	44664.44
577.59	44474.86
577.75	43878.02
577.92	44231.44
578.08	44416.35
578.24	43976.33
578.40	44458.48
578.56	43625.25
578.72	44690.19
578.88	44004.41
579.04	44390.60
579.21	43674.40
579.37	44217.40
579.53	44194.00
579.69	44320.38
579.85	44509.97
580.01	44790.83
580.17	44463.16
580.33	44577.84
580.49	44519.33
580.65	44638.70
580.82	44339.11
580.98	44306.34
581.14	44016.11
581.30	44495.92
581.46	44409.32
581.62	44460.82
581.78	44472.52
581.94	44919.56
582.10	44397.62
582.26	44479.54
582.42	44734.66
582.58	44767.43
582.74	44161.23
582.90	44296.98
583.06	44926.58
583.22	44416.35
583.38	44502.95
583.54	44858.71
583.70	44390.60
583.86	44325.07
584.02	44362.51
584.18	44547.42
584.34	44563.80
584.50	44484.22
584.66	44315.70
584.82	44390.60
584.98	44809.56
585.14	44729.98
585.30	44456.14
585.46	44397.62
585.62	44898.50
585.78	44755.72
585.94	44020.80
586.10	44280.60
586.26	44423.37
586.42	44514.65
586.58	44341.45
586.74	44847.00
586.90	44388.26
587.06	44357.83
587.22	44643.38
587.38	44549.76
587.54	44645.72
587.70	44767.43
587.86	44718.28
588.02	44325.07
588.18	44603.59
588.34	44720.62
588.49	44020.80
588.65	44217.40
588.81	44222.08
588.97	44556.78
589.13	44130.80
589.29	44376.56
589.45	44467.84
589.61	44898.50
589.77	44678.49
589.93	44254.85
590.08	44802.53
590.24	44980.42
590.40	44690.19
590.56	44643.38
590.72	45001.48
590.88	44601.25
591.04	44402.30
591.20	45024.89
591.35	45352.56
591.51	45347.88
591.67	44924.24
591.83	45305.75
591.99	44535.71
592.15	44619.97
592.31	44545.08
592.46	44671.46
592.62	44580.18
592.78	45436.82
592.94	45052.97
593.10	44994.46
593.26	45057.65
593.41	45272.98
593.57	44603.59
593.73	44839.98
593.89	44706.57
594.05	45296.39
594.20	45134.89
594.36	44795.51
594.52	45022.54
594.68	45134.89
594.84	45181.70
594.99	44807.22
595.15	44844.66
595.31	45762.15
595.47	45045.95
595.62	45170.00
595.78	44959.35
595.94	45219.15
596.10	44994.46
596.25	45298.73
596.41	45076.38
596.57	44959.35
596.73	45371.28
596.88	44879.77
597.04	44964.03
597.20	45216.81
597.36	45085.74
597.51	44971.05
597.67	45125.53
597.83	45106.80
597.99	45116.17
598.14	45013.18
598.30	44940.63
598.46	44947.65
598.61	44945.31
598.77	44748.70
598.93	44720.62
599.09	44811.90
599.24	45113.83
599.40	45031.91
599.56	44957.01
599.71	45202.77
599.87	45228.51
600.03	45038.93
600.18	44938.29
600.34	45118.51
600.50	45059.99
600.65	44968.71
600.81	45308.09
600.97	45368.94
601.12	45521.08
601.28	45013.18
601.44	45359.58
601.59	44706.57
601.75	44865.73
601.91	44804.88
602.06	45097.44
602.22	45247.24
602.37	44807.22
602.53	44751.04
602.69	45521.08
602.84	45333.84
603.00	45179.36
603.16	44964.03
603.31	44954.67
603.47	44584.86
603.62	44554.44
603.78	45141.91
603.94	44898.50
604.09	45017.86
604.25	45263.62
604.40	45085.74
604.56	44935.95
604.71	44884.45
604.87	44509.97
605.03	44725.30
605.18	44495.92
605.34	44755.72
605.49	44694.87
605.65	44954.67
605.80	44942.97
605.96	45172.34
606.12	44949.99
606.27	45064.67
606.43	45050.63
606.58	45139.57
606.74	44458.48
606.89	44823.60
607.05	44755.72
607.20	44844.66
607.36	45029.57
607.51	45177.02
607.67	44715.93
607.82	44259.53
607.98	45020.20
608.13	45001.48
608.29	44563.80
608.44	44409.32
608.60	44416.35
608.75	44357.83
608.91	44439.75
609.06	44376.56
609.22	44692.53
609.37	44858.71
609.53	44690.19
609.68	44509.97
609.84	44336.77
609.99	44467.84
610.15	44329.75
610.30	44531.03
610.46	43873.34
610.61	44395.28
610.76	44683.17
610.92	44116.76
611.07	44315.70
611.23	44395.28
611.38	44432.73
611.54	44666.78
611.69	44259.53
611.84	44086.33
612.00	44594.23
612.15	44229.10
612.31	44437.41
612.46	44311.02
612.62	44467.84
612.77	44411.67
612.92	44437.41
613.08	44083.99
613.23	43990.37
613.39	44051.22
613.54	43863.98
613.69	43892.07
613.85	44261.87
614.00	44414.01
614.15	44353.15
614.31	44245.49
614.46	44098.03
614.62	43634.61
614.77	43957.60
614.92	43711.84
615.08	43903.77
615.23	43650.99
615.38	43679.08
615.54	43643.97
615.69	43531.62
615.84	43978.67
616.00	44240.81
616.15	43887.39
616.30	43945.90
616.46	43402.89
616.61	43805.47
616.76	43761.00
616.92	43529.28
617.07	43859.30
617.22	43831.21
617.37	43414.60
617.53	43562.05
617.68	43969.30
617.83	43262.46
617.99	43761.00
618.14	43264.80
618.29	43463.75
618.45	43189.91
618.60	43650.99
618.75	43217.99
618.90	43402.89
619.06	43725.89
619.21	43276.51
619.36	43601.84
619.51	43138.41
619.67	43482.47
619.82	43122.03
619.97	43683.76
620.12	43063.52
620.28	43037.77
620.43	43105.65
620.58	43133.73
620.73	43056.50
620.89	43185.22
621.04	43054.15
621.19	43147.78
621.34	42941.81
621.49	42885.64
621.65	42981.60
621.80	43175.86
621.95	42902.02
622.10	43180.54
622.25	42464.34
622.41	43112.67
622.56	42703.07
622.71	43107.99
622.86	43173.52
623.01	42686.69
623.16	42838.83
623.32	42784.99
623.47	42817.76
623.62	42480.72
623.77	42845.85
623.92	42796.70
624.07	42672.65
624.23	42562.64
624.38	42513.49
624.53	42515.83
624.68	42658.60
624.83	43063.52
624.98	42775.63
625.13	42057.09
625.29	42660.94
625.44	42946.49
625.59	42162.41
625.74	41902.61
625.89	41876.86
626.04	42089.85
626.19	42391.78
626.34	42256.03
626.49	42064.11
626.65	42270.08
626.80	41998.57
626.95	42033.68
627.10	42197.52
627.25	41989.21
627.40	41780.90
627.55	41734.09
627.70	42052.41
627.85	41507.06
628.00	41860.48
628.15	41816.01
628.30	42124.96
628.45	41808.99
628.60	41497.70
628.76	41933.04
628.91	42115.60
629.06	41488.34
629.21	41315.14
629.36	41474.29
629.51	41713.03
629.66	41766.86
629.81	41467.27
629.96	41605.36
630.11	41357.27
630.26	41579.62
630.41	41614.72
630.56	41546.85
630.71	41916.65
630.86	41441.53
631.01	41221.52
631.16	41399.40
631.31	41226.20
631.46	41095.13
631.61	41282.37
631.76	40968.74
631.91	41488.34
632.06	41448.55
632.21	41436.84
632.36	41558.55
632.51	41408.76
632.66	41130.23
632.81	41015.55
632.96	40872.78
633.10	40865.75
633.25	40430.41
633.40	41083.42
633.55	40924.27
633.70	40811.92
633.85	40509.99
634.00	41371.31
634.15	40914.90
634.30	41013.21
634.45	40914.90
634.60	40484.25
634.75	40907.88
634.90	40818.94
635.05	40814.26
635.19	40540.42
635.34	41043.63
635.49	40648.08
635.64	40608.29
635.79	40025.50
635.94	40168.27
636.09	40463.18
636.24	40027.84
636.39	40339.13
636.53	40196.36
636.68	40259.55
636.83	40107.42
636.98	40926.61
637.13	40156.57
637.28	40411.69
637.43	40598.93
637.57	40561.48
637.72	40498.29
637.87	40395.31
638.02	40194.02
638.17	39934.22
638.32	40149.55
638.46	39859.32
638.61	40364.88
638.76	39997.41
638.91	40278.28
639.06	39856.98
639.20	40151.89
639.35	40179.98
639.50	40058.27
639.65	40320.41
639.80	40098.06
639.94	40243.17
640.09	40086.36
640.24	40037.20
640.39	39606.55
640.54	39751.66
640.68	39651.02
640.83	40034.86
640.98	40072.31
641.13	39445.05
641.27	39838.26
641.42	39407.60
641.57	39814.85
641.72	38944.17
641.86	39201.63
642.01	39239.08
642.16	39234.40
642.31	38986.30
642.45	39543.35
642.60	39377.17
642.75	39159.50
642.90	39452.07
643.04	39281.21
643.19	38986.30
643.34	39384.19
643.48	39227.38
643.63	38990.98
643.78	38939.49
643.93	39236.74
644.07	38930.13
644.22	39407.60
644.37	38782.68
644.51	38995.67
644.66	39243.76
644.81	39079.92
644.95	39218.02
645.10	39047.16
645.25	39503.56
645.39	39246.10
645.54	39084.61
645.69	38958.22
645.83	38817.78
645.98	39063.54
646.13	39297.59
646.27	39306.96
646.42	38756.93
646.57	38822.47
646.71	38913.75
646.86	39047.16
647.00	39014.39
647.15	39119.71
647.30	38682.03
647.44	38878.64
647.59	38953.54
647.74	38396.49
647.88	38284.14
648.03	38103.92
648.17	38405.85
648.32	38363.72
648.47	38036.05
648.61	38349.68
648.76	38567.35
648.90	38260.74
649.05	38583.73
649.20	38588.41
649.34	38569.69
649.49	38394.15
649.63	38174.14
649.78	38480.75
649.92	38232.65
650.07	37876.89
650.21	38174.14
650.36	38054.77
650.51	38148.39
650.65	38227.97
650.80	38724.16
650.94	38326.27
651.09	38010.30
651.23	37551.56
651.38	37563.26
651.52	37996.26
651.67	38026.68
651.81	38281.80
651.96	37853.48
652.10	38328.61
652.25	37715.39
652.39	37509.43
652.54	37324.52
652.68	38148.39
652.83	38141.37
652.97	37713.05
653.12	37715.39
653.26	38141.37
653.41	37551.56
653.55	37537.51
653.70	37392.40
653.84	37565.60
653.99	37589.00
654.13	37322.18
654.27	37457.93
654.42	37371.33
654.56	37495.38
654.71	37603.05
654.85	37827.74
655.00	37574.96
655.14	37244.94
655.29	36914.93
655.43	37509.43
655.57	37053.02
655.72	36790.88
655.86	37200.47
656.01	36863.44
656.15	37041.32
656.30	36872.80
656.44	37158.34
656.58	37301.12
656.73	36720.66
656.87	36912.59
657.01	36854.08
657.16	36865.78
657.30	36737.05
657.45	36423.42
657.59	36524.06
657.73	36472.57
657.88	36982.80
658.02	36868.12
658.16	36390.65
658.31	37043.66
658.45	36622.36
658.60	36664.49
658.74	36517.04
658.88	36704.28
659.03	36383.63
659.17	36355.54
659.31	36376.61
659.46	36336.82
659.60	36210.43
659.74	35948.29
659.89	35906.16
660.03	35810.20
660.17	36210.43
660.32	36187.02
660.46	36226.81
660.60	36402.35
660.74	36456.18
660.89	35885.09
661.03	35999.78
661.17	35857.01
661.32	35372.52
661.46	35683.81
661.60	35461.46
661.74	35480.18
661.89	35770.41
662.03	35784.45
662.17	35262.51
662.31	35901.48
662.46	35704.87
662.60	35171.23
662.74	35414.65
662.88	35445.07
663.03	35035.48
663.17	34913.77
663.31	35136.12
663.45	35026.12
663.60	35349.11
663.74	34955.90
663.88	34883.34
664.02	34866.96
664.17	35056.54
664.31	34733.55
664.45	34824.83
664.59	34604.82
664.73	34424.60
664.88	34473.75
665.02	34316.93
665.16	34466.73
665.30	34752.27
665.44	34536.94
665.59	34309.91
665.73	34377.79
665.87	34106.29
666.01	34326.30
666.15	34092.24
666.29	34089.90
666.44	34639.93
666.58	34031.39
666.72	33797.34
666.86	34141.39
667.00	34202.25
667.14	33734.14
667.28	33443.91
667.43	33532.86
667.57	33560.94
667.71	33331.57
667.85	33598.39
667.99	33675.63
668.13	33354.97
668.27	33280.08
668.41	33640.52
668.56	32774.52
668.70	33268.37
668.84	33102.20
668.98	33195.82
669.12	33109.22
669.26	33369.02
669.40	32699.62
669.54	32945.38
669.68	33174.75
669.82	32809.63
669.96	32385.99
670.10	32477.27
670.25	32882.19
670.39	32407.06
670.53	32493.66
670.67	32680.90
670.81	32842.40
670.95	32577.92
671.09	32566.21
671.23	32744.09
671.37	32577.92
671.51	32416.42
671.65	31810.22
671.79	31934.27
671.93	32219.81
672.07	31915.54
672.21	32357.91
672.35	31346.79
672.49	32229.18
672.63	32009.17
672.77	31840.65
672.91	32037.25
673.05	31672.13
673.19	31552.76
673.33	31700.22
673.47	31323.39
673.61	31281.26
673.75	31021.46
673.89	30913.80
674.03	30981.67
674.17	30810.81
674.31	30693.79
674.45	30838.90
674.59	30787.41
674.73	30663.36
674.87	30506.54
675.01	31077.63
675.15	30852.94
675.29	30539.31
675.43	30773.36
675.56	30756.98
675.70	30272.49
675.84	30099.29
675.98	29661.61
676.12	29996.31
676.26	29677.99
676.40	29736.51
676.54	29926.09
676.68	29560.97
676.82	29116.26
676.96	29387.77
677.10	28950.09
677.23	29750.55
677.37	29156.05
677.51	29525.86
677.65	29088.18
677.79	28489.00
677.93	28849.44
678.07	29109.24
678.21	28350.91
678.34	28505.38
678.48	28409.42
678.62	28622.41
678.76	28648.16
678.90	28245.58
679.04	28243.24
679.18	28364.95
679.31	28154.30
679.45	27777.48
679.59	27552.79
679.73	27431.08
679.87	27662.79
680.00	27463.85
680.14	27733.01
680.28	27461.51
680.42	27393.63
680.56	27248.52
680.70	27274.26
680.83	27234.47
680.97	26920.84
681.11	27012.12
681.25	26602.53
681.39	27021.48
681.52	26939.57
681.66	26974.67
681.80	26745.30
681.94	26527.63
682.07	26632.96
682.21	25853.56
682.35	26436.35
682.49	26389.54
682.62	26209.32
682.76	25820.79
682.90	26052.50
683.04	25706.10
683.17	25886.32
683.31	25635.89
683.45	25972.92
683.59	25408.86
683.72	25432.26
683.86	24922.02
684.00	25476.73
684.13	25357.36
684.27	25436.94
684.41	25364.39
684.55	24819.04
684.68	24704.35
684.82	24517.11
684.96	24734.78
685.09	24421.15
685.23	24779.25
685.37	24753.51
685.50	24287.74
685.64	24470.30
685.78	24084.11
685.91	24491.37
686.05	24013.90
686.19	24182.42
686.32	23983.47
686.46	23714.31
686.60	23578.56
686.73	23119.81
686.87	23227.48
687.01	22988.74
687.14	23063.64
687.28	23433.44
687.42	23051.94
687.55	22764.05
687.69	22717.24
687.82	22745.33
687.96	22534.68
688.10	22799.16
688.23	22586.17
688.37	22590.85
688.50	22239.77
688.64	22111.04
688.78	22281.90
688.91	21947.20
689.05	22029.12
689.18	22120.40
689.32	21738.90
689.46	21935.50
689.59	21429.94
689.73	21872.31
689.86	21385.47
690.00	21671.02
690.13	21556.33
690.27	21664.00
690.41	21912.10
690.54	21104.61
690.68	21064.82
690.81	21062.48
690.95	20816.72
691.08	20884.60
691.22	20996.95
691.35	20538.20
691.49	20903.32
691.62	20912.69
691.76	20835.45
691.89	20786.30
692.03	20458.62
692.16	20360.32
692.30	20271.38
692.43	19885.19
692.57	20175.42
692.70	20238.61
692.84	19903.92
692.97	19583.26
693.11	19529.43
693.24	19690.93
693.38	19995.20
693.51	19508.37
693.65	19520.07
693.78	19269.63
693.92	19814.98
694.05	19314.10
694.19	19243.88
694.32	19154.94
694.45	18967.70
694.59	19044.94
694.72	18625.98
694.86	18668.11
694.99	18633.00
695.13	18562.79
695.26	18370.86
695.39	18146.17
695.53	18391.93
695.66	18506.62
695.80	18207.03
695.93	18209.37
696.07	18071.28
696.20	18001.06
696.33	17956.59
696.47	17799.77
696.60	17975.31
696.73	17968.29
696.87	17673.39
697.00	17874.67
697.14	17572.74
697.27	17589.13
697.40	17502.53
697.54	17284.86
697.67	17270.81
697.80	17296.56
697.94	17200.60
698.07	17184.21
698.21	16840.15
698.34	16940.80
698.47	16791.00
698.61	16624.83
698.74	16772.28
698.87	16535.88
699.01	16559.29
699.14	16203.53
699.27	16334.60
699.40	16367.37
699.54	16095.86
699.67	15892.24
699.80	16091.18
699.94	16154.38
700.07	16114.59
700.20	15857.13
700.34	15644.14
700.47	15700.31
700.60	15847.77
700.73	16013.95
700.87	15641.80
701.00	15494.35
701.13	15283.70
701.26	15358.60
701.40	15541.16
701.53	15473.28
701.66	15332.85
701.79	14771.12
701.93	14956.02
702.06	14841.34
702.19	14714.95
702.32	14775.80
702.46	14944.32
702.59	14918.57
702.72	14455.15
702.85	14803.89
702.99	14789.85
703.12	14633.03
703.25	14534.73
703.38	14366.21
703.51	14349.82
703.65	14382.59
703.78	14274.93
703.91	14111.09
704.04	14132.15
704.17	14010.45
704.31	14008.11
704.44	13640.64
704.57	13596.17
704.70	13451.06
704.83	13647.66
704.96	13621.92
705.10	13497.87
705.23	13741.29
>>>>>End Processed Spectral Data<<<<<
