SpectraSuite Data File
++++++++++++++++++++++++++++++++++++
Date: Fri Oct 25 10:47:52 EDT 2013
User: price-jones
Dark Spectrum Present: No
Reference Spectrum Present: No
Number of Sampled Component Spectra: 1
Spectrometers: USB2+H05261
Integration Time (usec): 100000 (USB2+H05261)
Spectra Averaged: 1 (USB2+H05261)
Boxcar Smoothing: 0 (USB2+H05261)
Correct for Electrical Dark: No (USB2+H05261)
Strobe/Lamp Enabled: No (USB2+H05261)
Correct for Detector Non-linearity: No (USB2+H05261)
Correct for Stray Light: No (USB2+H05261)
Number of Pixels in Processed Spectrum: 2048
>>>>>Begin Processed Spectral Data<<<<<
365.73	140.43
365.92	140.43
366.12	140.43
366.32	39.79
366.52	100.64
366.72	53.83
366.91	0.00
367.11	67.88
367.31	39.79
367.51	60.85
367.70	60.85
367.90	98.30
368.10	86.60
368.30	16.38
368.49	0.00
368.69	53.83
368.89	51.49
369.09	63.19
369.28	98.30
369.48	42.13
369.68	95.96
369.87	138.09
370.07	100.64
370.27	159.16
370.47	135.75
370.66	416.62
370.86	437.68
371.06	442.36
371.25	470.45
371.45	440.02
371.65	444.70
371.84	440.02
372.04	414.27
372.24	449.38
372.44	449.38
372.63	519.60
372.83	526.62
373.03	482.15
373.22	477.47
373.42	550.03
373.62	454.06
373.81	547.69
374.01	517.26
374.21	552.37
374.40	580.45
374.60	493.85
374.79	559.39
374.99	587.47
375.19	561.73
375.38	568.75
375.58	526.62
375.78	601.52
375.97	599.18
376.17	573.43
376.37	610.88
376.56	517.26
376.76	547.69
376.95	533.64
377.15	592.16
377.35	608.54
377.54	568.75
377.74	660.03
377.93	505.56
378.13	617.90
378.33	674.07
378.52	638.97
378.72	734.93
378.91	634.29
379.11	683.44
379.31	582.79
379.50	669.39
379.70	641.31
379.89	671.73
380.09	653.01
380.28	573.43
380.48	674.07
380.68	608.54
380.87	552.37
381.07	622.58
381.26	753.65
381.46	657.69
381.65	653.01
381.85	627.26
382.04	676.41
382.24	695.14
382.43	641.31
382.63	671.73
382.83	697.48
383.02	713.86
383.22	695.14
383.41	664.71
383.61	681.10
383.80	704.50
384.00	774.72
384.19	760.67
384.39	767.70
384.58	657.69
384.78	709.18
384.97	819.19
385.17	758.33
385.36	741.95
385.56	741.95
385.75	805.14
385.95	737.27
386.14	835.57
386.34	760.67
386.53	833.23
386.72	734.93
386.92	828.55
387.11	856.64
387.31	882.38
387.50	793.44
387.70	793.44
387.89	830.89
388.09	847.27
388.28	781.74
388.48	882.38
388.67	826.21
388.86	849.61
389.06	936.21
389.25	863.66
389.45	826.21
389.64	945.58
389.84	938.55
390.03	933.87
390.22	971.32
390.42	894.08
390.61	943.24
390.81	931.53
391.00	947.92
391.19	959.62
391.39	971.32
391.58	858.98
391.78	971.32
391.97	936.21
392.16	973.66
392.36	910.47
392.55	964.30
392.75	968.98
392.94	938.55
393.13	976.00
393.33	1036.86
393.52	997.07
393.71	1015.79
393.91	1071.97
394.10	1067.28
394.29	1097.71
394.49	1146.86
394.68	1107.07
394.88	1142.18
395.07	1076.65
395.26	1086.01
395.46	1130.48
395.65	1184.31
395.84	1226.44
396.04	1167.93
396.23	1139.84
396.42	1139.84
396.62	1015.79
396.81	1104.73
397.00	1196.01
397.19	1104.73
397.39	1247.51
397.58	1299.00
397.77	1291.98
397.97	1231.12
398.16	1231.12
398.35	1313.04
398.55	1266.23
398.74	1291.98
398.93	1352.83
399.12	1343.47
399.32	1221.76
399.51	1303.68
399.70	1357.51
399.90	1341.13
400.09	1315.38
400.28	1502.62
400.47	1322.40
400.67	1493.26
400.86	1427.73
401.05	1242.82
401.24	1462.83
401.44	1444.11
401.63	1394.96
401.82	1451.13
402.01	1483.90
402.21	1535.39
402.40	1537.73
402.59	1568.16
402.78	1530.71
402.97	1533.05
403.17	1577.52
403.36	1598.59
403.55	1626.67
403.74	1685.19
403.93	1692.21
404.13	1638.38
404.32	1636.03
404.51	1720.29
404.70	1664.12
404.89	1643.06
405.09	1722.63
405.28	1678.16
405.47	1741.36
405.66	1727.32
405.85	1806.89
406.05	1755.40
406.24	1844.34
406.43	1741.36
406.62	1746.04
406.81	1830.30
407.00	1846.68
407.20	1781.15
407.39	1811.57
407.58	1928.60
407.77	1837.32
407.96	1823.28
408.15	1937.96
408.34	1991.80
408.54	2045.63
408.73	1956.69
408.92	2015.20
409.11	2057.33
409.30	2127.55
409.49	1994.14
409.68	2005.84
409.87	2125.21
410.07	2045.63
410.26	2172.02
410.45	2134.57
410.64	2190.74
410.83	2232.87
411.02	2214.15
411.21	2239.89
411.40	2256.28
411.59	2251.60
411.78	2232.87
411.98	2249.25
412.17	2406.07
412.36	2279.68
412.55	2413.09
412.74	2480.97
412.93	2429.48
413.12	2415.43
413.31	2553.52
413.50	2562.89
413.69	2464.58
413.88	2455.22
414.07	2623.74
414.26	2626.08
414.45	2663.53
414.64	2595.65
414.83	2703.32
415.02	2693.96
415.22	2778.22
415.41	2874.18
415.60	2691.62
415.79	2827.37
415.98	2923.33
416.17	2860.13
416.36	2902.26
416.55	2848.43
416.74	2928.01
416.93	2897.58
417.12	2953.76
417.31	2932.69
417.50	2897.58
417.69	3138.66
417.88	3176.11
418.07	3021.63
418.26	3089.51
418.45	3002.91
418.64	3241.64
418.83	3068.44
419.02	3192.49
419.21	3215.90
419.39	3052.06
419.58	3206.53
419.77	3150.36
419.96	3173.77
420.15	3288.45
420.34	3318.88
420.53	3339.94
420.72	3499.10
420.91	3363.35
421.10	3426.54
421.29	3503.78
421.48	3281.43
421.67	3520.17
421.86	3396.12
422.05	3412.50
422.24	3412.50
422.43	3520.17
422.61	3513.14
422.80	3478.04
422.99	3452.29
423.18	3510.80
423.37	3660.60
423.56	3662.94
423.75	3456.97
423.94	3461.65
424.13	3251.00
424.32	3482.72
424.50	3545.91
424.69	3545.91
424.88	3714.43
425.07	3531.87
425.26	3574.00
425.45	3534.21
425.64	3574.00
425.83	3473.36
426.01	3524.85
426.20	3595.06
426.39	3639.53
426.58	3548.25
426.77	3536.55
426.96	3637.19
427.15	3681.66
427.33	3754.22
427.52	3632.51
427.71	3796.35
427.90	3716.77
428.09	3808.05
428.28	3836.14
428.46	3808.05
428.65	3861.88
428.84	3831.46
429.03	3941.46
429.22	3859.54
429.40	3836.14
429.59	3904.01
429.78	3681.66
429.97	3686.34
430.16	3665.28
430.34	3740.18
430.53	3810.39
430.72	3934.44
430.91	3733.15
431.10	3871.25
431.28	4100.62
431.47	4217.65
431.66	4077.21
431.85	4002.32
432.03	4142.75
432.22	4175.52
432.41	4285.52
432.60	4339.35
432.79	4121.68
432.97	4264.46
433.16	4285.52
433.35	4212.96
433.54	4299.56
433.72	4348.72
433.91	4170.83
434.10	4374.46
434.28	4191.90
434.47	4250.41
434.66	4358.08
434.85	4334.67
435.03	4367.44
435.22	4390.84
435.41	4631.92
435.59	4514.89
435.78	4397.87
435.97	4636.60
436.16	4573.41
436.34	4578.09
436.53	4550.00
436.72	4727.88
436.90	4575.75
437.09	4758.31
437.28	4564.04
437.46	4641.28
437.65	4571.07
437.84	4770.01
438.02	4542.98
438.21	4704.48
438.40	4627.24
438.58	4844.91
438.77	4823.84
438.96	4891.72
439.14	4865.97
439.33	5097.69
439.52	5104.71
439.70	4957.25
439.89	5085.98
440.08	5043.85
440.26	5224.08
440.45	5135.14
440.63	5214.71
440.82	5203.01
441.01	5334.08
441.19	5394.93
441.38	5380.89
441.57	5397.28
441.75	5556.43
441.94	5579.84
442.12	5516.64
442.31	5678.14
442.50	5626.65
442.68	5554.09
442.87	5647.71
443.05	5713.25
443.24	5736.65
443.43	5678.14
443.61	5586.86
443.80	5930.92
443.98	5565.79
444.17	5502.60
444.35	5888.79
444.54	5834.96
444.73	5905.17
444.91	5708.57
445.10	5792.83
445.28	5792.83
445.47	5783.46
445.65	5706.23
445.84	5830.27
446.02	5839.64
446.21	5806.87
446.39	5865.38
446.58	5956.66
446.77	5856.02
446.95	5727.29
447.14	5919.21
447.32	6115.82
447.51	6057.31
447.69	5970.71
447.88	5987.09
448.06	5811.55
448.25	6108.80
448.43	6012.84
448.62	6069.01
448.80	6162.63
448.99	6101.78
449.17	6122.84
449.36	6073.69
449.54	6090.07
449.73	6314.77
449.91	6300.72
450.10	6361.58
450.28	6328.81
450.46	6352.21
450.65	6429.45
450.83	6490.31
451.02	6331.15
451.20	6448.18
451.39	6420.09
451.57	6319.45
451.76	6604.99
451.94	6345.19
452.13	6424.77
452.31	6607.33
452.49	6303.06
452.68	6544.14
452.86	6469.24
453.05	6572.22
453.23	6764.15
453.42	6513.71
453.60	6675.21
453.78	6635.42
453.97	6525.41
454.15	6609.67
454.34	6492.65
454.52	6815.64
454.70	6843.73
454.89	6771.17
455.07	6586.27
455.26	6951.39
455.44	6691.59
455.62	6860.11
455.81	6956.07
455.99	6967.77
456.17	7040.33
456.36	7045.01
456.54	7019.27
456.73	7162.04
456.91	7157.36
457.09	7417.16
457.28	7377.37
457.46	7162.04
457.64	7470.99
457.83	7258.00
458.01	7112.89
458.19	7442.90
458.38	7386.73
458.56	7368.01
458.74	7356.30
458.93	7419.50
459.11	7499.08
459.29	7513.12
459.48	7543.55
459.66	7314.17
459.84	7534.18
460.03	7681.64
460.21	7672.28
460.39	7705.04
460.57	7447.58
460.76	7744.83
460.94	7941.44
461.12	7779.94
461.31	7779.94
461.49	7873.56
461.67	7719.09
461.85	7985.91
462.04	7791.64
462.22	8372.10
462.40	7903.99
462.59	8086.55
462.77	7847.82
462.95	8009.31
463.13	8042.08
463.32	7915.69
463.50	8116.98
463.68	7950.80
463.86	8032.72
464.05	7950.80
464.23	8138.04
464.41	8226.98
464.59	8046.76
464.78	8166.13
464.96	8329.97
465.14	8315.92
465.32	8381.46
465.50	8339.33
465.69	8203.58
465.87	8217.62
466.05	8255.07
466.23	8311.24
466.41	8241.03
466.60	8557.00
466.78	8428.27
466.96	8503.17
467.14	8299.54
467.32	8404.86
467.51	8409.54
467.69	8147.40
467.87	8409.54
468.05	8727.86
468.23	8479.76
468.41	8524.23
468.60	8479.76
468.78	8727.86
468.96	8634.24
469.14	8624.87
469.32	8669.34
469.50	8769.99
469.69	8856.59
469.87	8779.35
470.05	8912.76
470.23	8889.35
470.41	8992.34
470.59	9125.75
470.77	9102.34
470.95	8973.61
471.14	9378.53
471.32	8854.25
471.50	9383.21
471.68	9364.48
471.86	9256.82
472.04	9341.08
472.22	9479.17
472.40	9205.33
472.58	9343.42
472.77	9486.19
472.95	9680.46
473.13	9795.14
473.31	9647.69
473.49	9572.79
473.67	9570.45
473.85	9738.97
474.03	10019.83
474.21	9928.55
474.39	9809.19
474.57	9991.75
474.75	10033.88
474.93	10045.58
475.12	9944.94
475.30	10300.70
475.48	10150.90
475.66	10335.81
475.84	10366.23
476.02	10354.53
476.20	10314.74
476.38	10583.90
476.56	10768.80
476.74	10714.97
476.92	10693.91
477.10	10700.93
477.28	11080.10
477.46	10810.93
477.64	10897.53
477.82	11098.82
478.00	11248.61
478.18	11225.21
478.36	11595.01
478.54	11391.39
478.72	11672.25
478.90	11707.36
479.08	11789.28
479.26	12035.03
479.44	12028.01
479.62	12161.42
479.80	12152.06
479.98	12135.68
480.16	12432.93
480.34	11985.88
480.52	12325.26
480.70	12662.30
480.88	12301.86
481.06	12278.45
481.24	12727.83
481.41	12973.59
481.59	12950.18
481.77	13245.09
481.95	13158.49
482.13	13099.98
482.31	13322.33
482.49	13394.89
482.67	13582.13
482.85	13441.70
483.03	13713.20
483.21	13893.42
483.39	13914.48
483.57	14005.77
483.74	14207.05
483.92	14384.93
484.10	14394.29
484.28	14553.45
484.46	14588.56
484.64	14977.09
484.82	14740.69
485.00	14885.81
485.18	15161.99
485.35	14984.11
485.53	14956.02
485.71	14988.79
485.89	15082.41
486.07	15431.15
486.25	15557.54
486.43	15477.96
486.61	15616.05
486.78	15758.83
486.96	16006.92
487.14	16238.64
487.32	16561.63
487.50	16458.65
487.68	16781.64
487.85	16919.73
488.03	16833.13
488.21	17310.60
488.39	16947.82
488.57	17352.73
488.75	17247.41
488.92	17441.67
489.10	17535.29
489.28	17881.69
489.46	17755.30
489.64	17575.08
489.81	18532.36
489.99	18349.80
490.17	18567.47
490.35	18415.34
490.53	18515.98
490.70	18773.44
490.88	18972.38
491.06	19192.39
491.24	18984.09
491.41	19094.09
491.59	19339.85
491.77	19281.33
491.95	19541.13
492.13	19697.95
492.30	19761.14
492.48	19807.95
492.66	19920.30
492.84	19999.88
493.01	20243.29
493.19	20283.08
493.37	20608.42
493.54	20404.79
493.72	20500.75
493.90	21010.99
494.08	20844.81
494.25	21078.86
494.43	21153.76
494.61	21364.41
494.79	21673.36
494.96	21186.53
495.14	21212.28
495.32	21738.90
495.49	21867.63
495.67	21851.24
495.85	22094.66
496.02	22181.26
496.20	22579.15
496.38	22363.82
496.55	22546.38
496.73	22995.76
496.91	22473.82
497.09	22686.81
497.26	22885.76
497.44	23037.89
497.62	23288.33
497.79	23220.45
497.97	23173.64
498.14	23290.67
498.32	23601.96
498.50	23625.37
498.67	23686.22
498.85	23590.26
499.03	24119.22
499.20	23929.64
499.38	24283.06
499.56	24070.07
499.73	24297.10
499.91	23997.51
500.08	24702.01
500.26	24390.72
500.44	24790.95
500.61	24716.06
500.79	24776.91
500.97	24734.78
501.14	25408.86
501.32	25453.33
501.49	25064.80
501.67	25193.53
501.84	25378.43
502.02	25476.73
502.20	25802.07
502.37	25628.87
502.55	25724.83
502.72	25689.72
502.90	25678.02
503.07	26071.23
503.25	26082.93
503.43	26082.93
503.60	26272.51
503.78	26012.71
503.95	26316.98
504.13	26106.34
504.30	26494.86
504.48	26316.98
504.65	26583.80
504.83	26977.01
505.01	27143.19
505.18	26677.43
505.36	27065.96
505.53	27040.21
505.71	27517.68
505.88	27686.20
506.06	26981.70
506.23	27344.48
506.41	27274.26
506.58	27880.46
506.76	27704.92
506.93	27955.36
507.11	27995.15
507.28	27686.20
507.46	27667.47
507.63	27976.42
507.81	27953.02
507.98	28002.17
508.16	28173.03
508.33	28287.71
508.50	28060.68
508.68	28570.92
508.85	28601.35
509.03	29099.88
509.20	28886.89
509.38	28905.62
509.55	29420.53
509.73	29226.27
509.90	29308.19
510.08	28793.27
510.25	29537.56
510.42	29305.85
510.60	29715.44
510.77	29551.60
510.95	29549.26
511.12	29507.13
511.30	30066.52
511.47	30015.03
511.64	29905.02
511.82	30183.55
511.99	30148.44
512.17	30050.14
512.34	30211.64
512.51	30511.22
512.69	30724.21
512.86	30682.08
513.04	30630.59
513.21	30244.40
513.38	30670.38
513.56	30663.36
513.73	30754.64
513.90	30874.01
514.08	30883.37
514.25	31615.96
514.43	31246.15
514.60	30766.34
514.77	31192.32
514.95	31145.51
515.12	31323.39
515.29	31365.52
515.47	31424.03
515.64	31274.24
515.81	31531.70
515.99	31990.44
516.16	31807.88
516.33	31562.12
516.51	32086.40
516.68	31152.53
516.85	31505.95
517.03	31700.22
517.20	31938.95
517.37	32081.72
517.54	32554.51
517.72	32503.02
517.89	32304.07
518.06	32451.53
518.24	32196.41
518.41	32329.82
518.58	32404.72
518.75	32552.17
518.93	33034.32
519.10	32528.77
519.27	32669.20
519.45	33064.75
519.62	33003.89
519.79	33291.78
519.96	32973.47
520.14	33647.54
520.31	32933.68
520.48	33434.55
520.65	33453.28
520.83	33795.00
521.00	33631.16
521.17	33628.82
521.34	33919.04
521.52	33820.74
521.69	33956.49
521.86	33860.53
522.03	33963.51
522.20	34239.70
522.38	34281.83
522.55	34323.96
522.72	34382.47
522.89	34185.86
523.07	34511.20
523.24	34546.31
523.41	34576.73
523.58	34377.79
523.75	34883.34
523.92	34529.92
524.10	34799.08
524.27	34930.16
524.44	34909.09
524.61	35030.80
524.78	35196.98
524.96	35005.05
525.13	35278.89
525.30	35742.32
525.47	35398.26
525.64	35587.85
525.81	35541.03
525.98	35599.55
526.16	35157.19
526.33	35571.46
526.50	35655.72
526.67	35058.88
526.84	35597.21
527.01	35550.40
527.18	36044.25
527.36	36025.53
527.53	36264.26
527.70	36465.55
527.87	36521.72
528.04	36105.10
528.21	36280.64
528.38	36290.01
528.55	36271.28
528.72	36369.58
528.89	36491.29
529.07	36177.66
529.24	36301.71
529.41	36334.48
529.58	36982.80
529.75	36453.84
529.92	36346.18
530.09	37193.45
530.26	36734.71
530.43	36774.50
530.60	36905.57
530.77	36835.35
530.94	37046.00
531.11	37174.73
531.28	37205.16
531.46	37390.06
531.63	37216.86
531.80	37172.39
531.97	37336.23
532.14	37317.50
532.31	37048.34
532.48	37628.79
532.65	37654.54
532.82	37228.56
532.99	37975.19
533.16	37830.08
533.33	37764.54
533.50	37926.04
533.67	38291.16
533.84	37532.83
534.01	37741.14
534.18	37926.04
534.35	37837.10
534.52	37790.29
534.69	37942.42
534.86	38157.75
535.03	38272.44
535.20	38260.74
535.37	38466.70
535.54	38721.82
535.71	38415.21
535.88	38164.78
536.05	38499.47
536.22	38656.29
536.38	38555.64
536.55	38494.79
536.72	38845.87
536.89	38637.56
537.06	38696.08
537.23	39056.52
537.40	38476.07
537.57	38869.28
537.74	39086.95
537.91	39246.10
538.08	39093.97
538.25	38555.64
538.42	38885.66
538.59	39037.80
538.75	38880.98
538.92	38986.30
539.09	39323.34
539.26	39325.68
539.43	39253.12
539.60	39597.18
539.77	39421.64
539.94	39529.31
540.11	38988.64
540.28	39510.58
540.44	39489.52
540.61	39936.56
540.78	39332.70
540.95	39435.69
541.12	39232.06
541.29	39398.24
541.46	39449.73
541.62	39585.48
541.79	39899.11
541.96	39426.32
542.13	39700.17
542.30	39793.79
542.47	39913.16
542.63	39599.52
542.80	40371.90
542.97	40397.65
543.14	40971.08
543.31	40694.89
543.48	40762.77
543.64	41172.36
543.81	40514.67
543.98	40505.31
544.15	40671.49
544.32	41024.91
544.48	41357.27
544.65	40851.71
544.82	40809.58
544.99	40638.72
545.16	40973.42
545.32	40865.75
545.49	40966.40
545.66	40706.60
545.83	41095.13
546.00	41495.36
546.16	41654.51
546.33	40765.11
546.50	40524.04
546.67	41097.47
546.83	40952.35
547.00	41390.03
547.17	41050.66
547.34	40868.09
547.50	41067.04
547.67	41509.40
547.84	41301.09
548.00	41581.96
548.17	41825.37
548.34	41233.22
548.51	42052.41
548.67	41708.35
548.84	41584.30
549.01	41600.68
549.18	41464.93
549.34	41621.75
549.51	42038.36
549.68	42085.17
549.84	41717.71
550.01	42047.72
550.18	41914.31
550.34	42071.13
550.51	41832.39
550.68	41961.12
550.84	41790.27
551.01	42232.63
551.18	42167.09
551.34	41759.84
551.51	42190.50
551.68	42499.45
551.84	41893.25
552.01	41979.85
552.18	42368.38
552.34	42026.66
552.51	42445.62
552.68	42452.64
552.84	42384.76
553.01	42684.35
553.18	42227.95
553.34	42595.41
553.51	42244.33
553.67	42602.43
553.84	42955.85
554.01	42096.88
554.17	42831.80
554.34	43185.22
554.51	42616.47
554.67	43096.28
554.84	42862.23
555.00	42871.59
555.17	42415.19
555.33	42941.81
555.50	42965.21
555.67	42721.80
555.83	42955.85
556.00	43255.44
556.16	43339.70
556.33	43124.37
556.50	43140.75
556.66	42899.68
556.83	43203.95
556.99	43164.16
557.16	43131.39
557.32	43192.25
557.49	43393.53
557.65	42883.30
557.82	43049.47
557.98	43215.65
558.15	43220.33
558.32	43683.76
558.48	43180.54
558.65	43070.54
558.81	43138.41
558.98	43407.58
559.14	43531.62
559.31	43304.59
559.47	43711.84
559.64	43833.55
559.80	43618.22
559.97	43606.52
560.13	42909.04
560.30	43475.45
560.46	42967.55
560.63	43388.85
560.79	43482.47
560.96	43952.92
561.12	43597.16
561.29	43674.40
561.45	43639.29
561.61	43498.86
561.78	43386.51
561.94	43365.45
562.11	43496.52
562.27	43559.71
562.44	43709.50
562.60	43878.02
562.77	44006.75
562.93	43863.98
563.10	43833.55
563.26	43894.41
563.42	43679.08
563.59	43807.81
563.75	43793.76
563.92	43995.05
564.08	43597.16
564.24	44172.93
564.41	43927.17
564.57	43929.51
564.74	43573.75
564.90	44034.84
565.07	44081.65
565.23	44072.29
565.39	43646.31
565.56	44285.28
565.72	44126.12
565.88	43899.09
566.05	43758.66
566.21	44079.31
566.38	43697.80
566.54	44289.96
566.70	43957.60
566.87	44210.38
567.03	44308.68
567.19	44334.43
567.36	44608.27
567.52	43615.88
567.68	44325.07
567.85	44395.28
568.01	43896.75
568.17	44100.37
568.34	43889.73
568.50	44285.28
568.66	44266.55
568.83	44568.48
568.99	44102.71
569.15	44046.54
569.32	44133.14
569.48	43913.13
569.64	44301.66
569.81	44524.01
569.97	44458.48
570.13	44563.80
570.30	44114.42
570.46	43854.62
570.62	44172.93
570.78	44179.95
570.95	44072.29
571.11	44692.53
571.27	44273.57
571.43	43938.88
571.60	44868.07
571.76	44203.36
571.92	44292.30
572.09	44385.92
572.25	44505.29
572.41	44395.28
572.57	44533.37
572.74	45422.78
572.90	44622.31
573.06	44500.61
573.22	44439.75
573.38	44189.31
573.55	44184.63
573.71	44645.72
573.87	44435.07
574.03	44027.82
574.20	44311.02
574.36	44547.42
574.52	44519.33
574.68	44753.38
574.84	44137.82
575.01	44563.80
575.17	44360.17
575.33	44341.45
575.49	44343.79
575.65	44921.90
575.82	45298.73
575.98	44566.14
576.14	44540.39
576.30	44715.93
576.46	44287.62
576.62	44343.79
576.79	44444.43
576.95	43910.79
577.11	44903.18
577.27	44584.86
577.43	44561.46
577.59	44531.03
577.75	44460.82
577.92	44062.93
578.08	43849.94
578.24	43969.30
578.40	44601.25
578.56	44498.26
578.72	44758.06
578.88	44538.05
579.04	45170.00
579.21	44341.45
579.37	44657.42
579.53	44531.03
579.69	44552.10
579.85	44327.41
580.01	44460.82
580.17	44514.65
580.33	44786.15
580.49	44584.86
580.65	44739.34
580.82	44891.48
580.98	44580.18
581.14	44304.00
581.30	44844.66
581.46	44858.71
581.62	44570.82
581.78	44444.43
581.94	44718.28
582.10	44697.21
582.26	45010.84
582.42	44739.34
582.58	44729.98
582.74	44533.37
582.90	44582.52
583.06	44804.88
583.22	44917.22
583.38	45048.29
583.54	44718.28
583.70	44257.19
583.86	44549.76
584.02	44252.51
584.18	44444.43
584.34	44755.72
584.50	44926.58
584.66	44638.70
584.82	44559.12
584.98	44994.46
585.14	44889.13
585.30	44608.27
585.46	44191.65
585.62	44158.89
585.78	44863.39
585.94	44458.48
586.10	44669.12
586.26	44502.95
586.42	44727.64
586.58	45015.52
586.74	44545.08
586.90	44650.40
587.06	44870.41
587.22	44732.32
587.38	44266.55
587.54	45340.86
587.70	45095.10
587.86	45146.59
588.02	44863.39
588.18	45097.44
588.34	44793.17
588.49	44741.68
588.65	44776.79
588.81	44362.51
588.97	44858.71
589.13	44500.61
589.29	44786.15
589.45	44928.92
589.61	44952.33
589.77	45193.40
589.93	44945.31
590.08	45008.50
590.24	45041.27
590.40	45361.92
590.56	45186.38
590.72	45188.72
590.88	44872.75
591.04	44636.36
591.20	45359.58
591.35	45457.88
591.51	45141.91
591.67	45069.36
591.83	45418.10
591.99	45111.49
592.15	44842.32
592.31	44811.90
592.46	44268.89
592.62	44858.71
592.78	44474.86
592.94	45216.81
593.10	44645.72
593.26	45064.67
593.41	45228.51
593.57	44884.45
593.73	45214.47
593.89	45059.99
594.05	44954.67
594.20	44729.98
594.36	44924.24
594.52	45116.17
594.68	44706.57
594.84	45015.52
594.99	45411.07
595.15	45399.37
595.31	45294.05
595.47	45008.50
595.62	45282.34
595.78	44598.91
595.94	45406.39
596.10	45415.76
596.25	44980.42
596.41	45226.17
596.57	45137.23
596.73	45244.90
596.88	44580.18
597.04	45401.71
597.20	45483.63
597.36	45331.50
597.51	45481.29
597.67	45352.56
597.83	45324.47
597.99	45343.20
598.14	45375.97
598.30	45071.70
598.46	45123.19
598.61	45322.13
598.77	45200.43
598.93	45099.78
599.09	45148.93
599.24	45935.35
599.40	44847.00
599.56	45523.42
599.71	45947.06
599.87	45628.74
600.03	45059.99
600.18	44914.88
600.34	45242.56
600.50	45755.13
600.65	45272.98
600.81	45661.51
600.97	45862.80
601.12	45162.98
601.28	45528.10
601.44	45289.37
601.59	45333.84
601.75	45265.96
601.91	45216.81
602.06	44914.88
602.22	45703.64
602.37	45268.30
602.53	45305.75
602.69	45696.62
602.84	45406.39
603.00	45134.89
603.16	45186.38
603.31	44664.44
603.47	44992.12
603.62	44928.92
603.78	45160.64
603.94	45090.42
604.09	45310.43
604.25	44882.11
604.40	45099.78
604.56	45263.62
604.71	44722.96
604.87	44898.50
605.03	45380.65
605.18	45118.51
605.34	45102.12
605.49	45095.10
605.65	45404.05
605.80	45036.59
605.96	45151.27
606.12	45268.30
606.27	45495.33
606.43	45244.90
606.58	44839.98
606.74	44978.07
606.89	45041.27
607.05	45057.65
607.20	45174.68
607.36	45099.78
607.51	45366.60
607.67	45017.86
607.82	45146.59
607.98	45027.23
608.13	44626.99
608.29	44722.96
608.44	44776.79
608.60	44701.89
608.75	44453.79
608.91	44741.68
609.06	44430.39
609.22	44802.53
609.37	44893.82
609.53	44886.79
609.68	44715.93
609.84	44921.90
609.99	45099.78
610.15	44428.05
610.30	44582.52
610.46	44774.45
610.61	44645.72
610.76	45029.57
610.92	45020.20
611.07	44776.79
611.23	44603.59
611.38	44659.76
611.54	44060.58
611.69	44641.04
611.84	44610.61
612.00	44030.16
612.15	44509.97
612.31	44631.68
612.46	44512.31
612.62	44465.50
612.77	44065.27
612.92	44732.32
613.08	44591.89
613.23	44491.24
613.39	44411.67
613.54	43903.77
613.69	43952.92
613.85	44453.79
614.00	44657.42
614.15	44577.84
614.31	44465.50
614.46	44449.11
614.62	44121.44
614.77	43838.23
614.92	44385.92
615.08	44119.10
615.23	44055.90
615.38	44018.46
615.54	44053.56
615.69	43945.90
615.84	43753.97
616.00	43969.30
616.15	43973.98
616.30	43978.67
616.46	43824.19
616.61	43976.33
616.76	43632.27
616.92	43821.85
617.07	43491.83
617.22	43894.41
617.37	43412.26
617.53	44114.42
617.68	44224.42
617.83	44161.23
617.99	43826.53
618.14	43782.06
618.29	43421.62
618.45	43178.20
618.60	43487.15
618.75	44275.91
618.90	43730.57
619.06	43882.70
619.21	43576.09
619.36	43480.13
619.51	43423.96
619.67	43580.78
619.82	43571.41
619.97	44177.61
620.12	43203.95
620.28	43103.31
620.43	43358.42
620.58	42990.96
620.73	43159.48
620.89	43351.40
621.04	43442.68
621.19	43627.59
621.34	43253.10
621.49	43138.41
621.65	42988.62
621.80	43613.54
621.95	43098.62
622.10	43215.65
622.25	43112.67
622.41	42965.21
622.56	42642.22
622.71	43323.32
622.86	42923.08
623.01	42754.57
623.16	43026.07
623.32	43047.13
623.47	43517.58
623.62	42923.08
623.77	42691.37
623.92	42862.23
624.07	42574.34
624.23	42780.31
624.38	42763.93
624.53	42616.47
624.68	42784.99
624.83	42873.93
624.98	42630.52
625.13	42548.60
625.29	42572.00
625.44	42852.87
625.59	42604.77
625.74	42291.14
625.89	42139.00
626.04	41926.02
626.19	42548.60
626.34	42241.99
626.49	41951.76
626.65	42384.76
626.80	42632.86
626.95	42265.39
627.10	41911.97
627.25	42052.41
627.40	41961.12
627.55	41958.78
627.70	41750.48
627.85	41518.76
628.00	42115.60
628.15	42146.03
628.30	41797.29
628.45	42330.93
628.60	41986.87
628.76	42417.53
628.91	42220.92
629.06	41926.02
629.21	42036.02
629.36	41729.41
629.51	41193.43
629.66	41715.37
629.81	41528.13
629.96	41383.01
630.11	41670.90
630.26	41986.87
630.41	41935.38
630.56	41436.84
630.71	41837.08
630.86	41757.50
631.01	41446.21
631.16	41383.01
631.31	40966.40
631.46	41401.74
631.61	41289.39
631.76	41200.45
631.91	41029.59
632.06	41579.62
632.21	41048.32
632.36	41624.09
632.51	41060.02
632.66	41486.00
632.81	41212.15
632.96	41495.36
633.10	41223.86
633.25	41205.13
633.40	41336.20
633.55	41350.24
633.70	41085.76
633.85	40818.94
634.00	41137.26
634.15	40847.03
634.30	40800.22
634.45	40905.54
634.60	41333.86
634.75	40694.89
634.90	41130.23
635.05	40989.80
635.19	40727.66
635.34	41123.21
635.49	40837.67
635.64	40722.98
635.79	40339.13
635.94	40233.81
636.09	40414.03
636.24	40753.41
636.39	40320.41
636.53	40315.73
636.68	40292.32
636.83	40591.91
636.98	40257.21
637.13	40044.23
637.28	40332.11
637.43	40978.10
637.57	40741.71
637.72	40608.29
637.87	40755.75
638.02	40657.45
638.17	40268.92
638.32	40179.98
638.46	39613.57
638.61	40086.36
638.76	39805.49
638.91	39824.22
639.06	40495.95
639.20	39936.56
639.35	40325.09
639.50	40158.91
639.65	40329.77
639.80	39864.00
639.94	40320.41
640.09	39887.41
640.24	39763.36
640.39	40226.79
640.54	40205.72
640.68	39313.98
640.83	39959.97
640.98	39962.31
641.13	40147.21
641.27	40091.04
641.42	39903.79
641.57	39711.87
641.72	39335.04
641.86	39711.87
642.01	39344.41
642.16	40039.54
642.31	39274.19
642.45	39377.17
642.60	39086.95
642.75	39735.27
642.90	39515.26
643.04	39541.01
643.19	39318.66
643.34	39665.06
643.48	39536.33
643.63	39592.50
643.78	39386.54
643.93	38787.36
644.07	39180.57
644.22	38904.38
644.37	38824.81
644.51	39098.65
644.66	39143.12
644.81	39086.95
644.95	39590.16
645.10	38960.56
645.25	39173.55
645.39	39194.61
645.54	39363.13
645.69	38958.22
645.83	38995.67
645.98	38810.76
646.13	39164.18
646.27	39077.58
646.42	38820.13
646.57	39175.89
646.71	38572.03
646.86	38925.45
647.00	38916.09
647.15	38810.76
647.30	38883.32
647.44	39122.05
647.59	38445.64
647.74	38934.81
647.88	38218.61
648.03	38506.49
648.17	38792.04
648.32	38415.21
648.47	38719.48
648.61	38497.13
648.76	38941.83
648.90	38880.98
649.05	38515.86
649.20	38756.93
649.34	38944.17
649.49	37958.81
649.63	38532.24
649.78	38440.96
649.92	38405.85
650.07	38728.84
650.21	38256.06
650.36	38555.64
650.51	38029.02
650.65	38862.26
650.80	38401.17
650.94	38232.65
651.09	38637.56
651.23	38567.35
651.38	37834.76
651.52	38073.49
651.67	37752.84
651.81	37902.64
651.96	37991.58
652.10	38305.21
652.25	38146.05
652.39	37764.54
652.54	37982.21
652.68	38087.54
652.83	38394.15
652.97	38157.75
653.12	37902.64
653.26	37790.29
653.41	37614.75
653.55	37549.21
653.70	37909.66
653.84	37851.14
653.99	37687.31
654.13	37872.21
654.27	38092.22
654.42	37514.11
654.56	37649.86
654.71	37663.90
654.85	37474.32
655.00	37427.51
655.14	37546.87
655.29	37083.45
655.43	37476.66
655.57	37188.77
655.72	37104.51
655.86	37219.20
656.01	37027.28
656.15	37092.81
656.30	36961.74
656.44	36980.46
656.58	37411.12
656.73	36907.91
656.87	36671.51
657.01	36643.43
657.16	36893.86
657.30	36460.87
657.45	36603.64
657.59	36662.15
657.73	37144.30
657.88	37235.58
658.02	36767.48
658.16	36683.22
658.31	36322.77
658.45	37230.90
658.60	36884.50
658.74	36655.13
658.88	36886.84
659.03	36360.22
659.17	36231.49
659.31	36854.08
659.46	36243.20
659.60	36561.51
659.74	36128.51
659.89	36067.66
660.03	36280.64
660.17	36397.67
660.32	36030.21
660.46	36620.02
660.60	36556.83
660.74	36210.43
660.89	36154.26
661.03	35583.16
661.17	35681.47
661.32	35852.33
661.46	35796.15
661.60	35302.30
661.74	35690.83
661.89	35824.24
662.03	35732.96
662.17	35620.61
662.31	35316.34
662.46	35917.86
662.60	35562.10
662.74	35367.84
662.88	35372.52
663.03	35583.16
663.17	35599.55
663.31	35229.74
663.45	35143.14
663.60	35096.33
663.74	34981.65
663.88	34759.30
664.02	35086.97
664.17	35159.53
664.31	34937.18
664.45	34969.94
664.59	34855.26
664.73	34937.18
664.88	35086.97
665.02	34642.27
665.16	34742.91
665.30	34794.40
665.44	34600.14
665.59	34291.19
665.73	34670.36
665.87	34464.39
666.01	34286.51
666.15	34211.61
666.29	34251.40
666.44	34625.89
666.58	34209.27
666.72	34581.42
666.86	34125.01
667.00	33635.84
667.14	34298.21
667.28	33668.61
667.43	34092.24
667.57	33614.77
667.71	33668.61
667.85	33729.46
667.99	33504.77
668.13	33434.55
668.27	33441.57
668.41	33837.12
668.56	33202.84
668.70	33523.49
668.84	33425.19
668.98	33092.83
669.12	33464.98
669.26	33291.78
669.40	32921.98
669.54	32769.84
669.68	33516.47
669.82	33123.26
669.96	32730.05
670.10	32765.16
670.25	32608.34
670.39	33003.89
670.53	32641.11
670.67	32708.99
670.81	32687.92
670.95	32559.19
671.09	32418.76
671.23	32535.79
671.37	32566.21
671.51	32304.07
671.65	32182.37
671.79	32128.53
671.93	32067.68
672.07	32016.19
672.21	31943.63
672.35	32077.04
672.49	31868.73
672.63	32163.64
672.77	32154.28
672.91	32016.19
673.05	31730.64
673.19	31274.24
673.33	31707.24
673.47	31386.58
673.61	31304.67
673.75	31255.51
673.89	31124.44
674.03	30913.80
674.17	31175.94
674.31	31009.76
674.45	30759.32
674.59	30862.30
674.73	31138.49
674.87	30789.75
675.01	30925.50
675.15	30927.84
675.29	30780.39
675.43	30815.49
675.56	30756.98
675.70	30483.14
675.84	30377.81
675.98	29558.63
676.12	30235.04
676.26	29937.79
676.40	29816.08
676.54	29769.27
676.68	30115.67
676.82	29422.87
676.96	29970.56
677.10	29244.99
677.23	29167.76
677.37	29518.84
677.51	29429.90
677.65	29069.45
677.79	28802.63
677.93	29287.12
678.07	28781.57
678.21	28781.57
678.34	28531.13
678.48	28608.37
678.62	28608.37
678.76	28664.54
678.90	28510.07
679.04	28552.20
679.18	28423.47
679.31	28135.58
679.45	28245.58
679.59	27665.13
679.73	28053.66
679.87	27845.35
680.00	27859.40
680.14	27473.21
680.28	27515.34
680.42	27484.91
680.56	27674.49
680.70	27665.13
680.83	27372.57
680.97	26822.54
681.11	26703.17
681.25	26757.00
681.39	27049.57
681.52	26991.06
681.66	26792.11
681.80	26597.85
681.94	26618.91
682.07	26366.13
682.21	26356.77
682.35	26611.89
682.49	26457.42
682.62	26375.50
682.76	26026.76
682.90	26188.25
683.04	25860.58
683.17	25979.95
683.31	26120.38
683.45	25720.15
683.59	25631.21
683.72	25610.14
683.86	25282.47
684.00	25504.82
684.13	25504.82
684.27	25553.97
684.41	25074.16
684.55	25034.37
684.68	24947.77
684.82	24863.51
684.96	24706.70
685.09	24943.09
685.23	24650.52
685.37	24474.98
685.50	24877.55
685.64	24474.98
685.78	24372.00
685.91	24308.80
686.05	24444.56
686.19	23803.25
686.32	23800.91
686.46	23501.32
686.60	23573.88
686.73	23541.11
686.87	23360.89
687.01	23253.22
687.14	23339.82
687.28	22944.27
687.42	22941.93
687.55	22876.40
687.69	23098.75
687.82	22855.33
687.96	22951.29
688.10	22476.16
688.23	22841.29
688.37	22111.04
688.50	22068.91
688.64	22270.20
688.78	22015.08
688.91	22068.91
689.05	22272.54
689.18	22078.27
689.32	21989.33
689.46	21764.64
689.59	21986.99
689.73	22174.24
689.86	21797.41
690.00	21661.66
690.13	22061.89
690.27	21411.22
690.41	21411.22
690.54	20978.22
690.68	21298.88
690.81	20936.09
690.95	20966.52
691.08	20959.50
691.22	20814.38
691.35	21102.27
691.49	21027.37
691.62	20957.16
691.76	20819.07
691.89	21022.69
692.03	20444.58
692.16	20397.77
692.30	20383.73
692.43	20332.23
692.57	20247.97
692.70	20365.00
692.84	20095.84
692.97	19913.28
693.11	19756.46
693.24	19716.67
693.38	19632.41
693.51	19580.92
693.65	19566.88
693.78	19910.94
693.92	19309.42
694.05	19192.39
694.19	19044.94
694.32	19365.59
694.45	19379.64
694.59	19005.15
694.72	18883.44
694.86	19089.41
694.99	18691.52
695.13	18773.44
695.26	18319.37
695.39	18452.78
695.53	18539.38
695.66	18719.60
695.80	18403.63
695.93	18562.79
696.07	18188.30
696.20	18195.32
696.33	18326.39
696.47	17862.97
696.60	18132.13
696.73	17813.82
696.87	17825.52
697.00	17855.95
697.14	17750.62
697.27	17486.14
697.40	17645.30
697.54	17436.99
697.67	17359.75
697.80	17247.41
697.94	17151.45
698.07	16947.82
698.21	17088.25
698.34	17235.70
698.47	16748.87
698.61	16744.19
698.74	16652.91
698.87	16152.04
699.01	16393.11
699.14	16348.64
699.27	16285.45
699.40	16173.10
699.54	15946.07
699.67	16067.78
699.80	16079.48
699.94	16114.59
700.07	16271.40
700.20	16156.72
700.34	15803.30
700.47	15819.68
700.60	15695.63
700.73	16027.99
700.87	15800.96
701.00	15431.15
701.13	15468.60
701.26	15756.49
701.40	15480.30
701.53	15384.34
701.66	15353.91
701.79	15143.27
701.93	14899.85
702.06	14827.29
702.19	15005.17
702.32	15051.99
702.46	15009.86
702.59	14925.60
702.72	14775.80
702.85	14733.67
702.99	14785.16
703.12	14836.66
703.25	14572.18
703.38	14293.65
703.51	14417.70
703.65	14462.17
703.78	14389.61
703.91	14321.74
704.04	13968.32
704.17	14104.07
704.31	13736.60
704.44	13586.81
704.57	13577.45
704.70	13788.10
704.83	13577.45
704.96	13818.52
705.10	13682.77
705.23	13554.04
>>>>>End Processed Spectral Data<<<<<
