SpectraSuite Data File
++++++++++++++++++++++++++++++++++++
Date: Fri Oct 25 10:48:28 EDT 2013
User: price-jones
Dark Spectrum Present: No
Reference Spectrum Present: No
Number of Sampled Component Spectra: 1
Spectrometers: USB2+H05261
Integration Time (usec): 100000 (USB2+H05261)
Spectra Averaged: 1 (USB2+H05261)
Boxcar Smoothing: 0 (USB2+H05261)
Correct for Electrical Dark: No (USB2+H05261)
Strobe/Lamp Enabled: No (USB2+H05261)
Correct for Detector Non-linearity: No (USB2+H05261)
Correct for Stray Light: No (USB2+H05261)
Number of Pixels in Processed Spectrum: 2048
>>>>>Begin Processed Spectral Data<<<<<
365.73	170.86
365.92	170.86
366.12	170.86
366.32	0.00
366.52	0.00
366.72	30.43
366.91	67.88
367.11	30.43
367.31	37.45
367.51	46.81
367.70	0.00
367.90	25.75
368.10	70.22
368.30	51.49
368.49	44.47
368.69	138.09
368.89	39.79
369.09	7.02
369.28	42.13
369.48	95.96
369.68	18.72
369.87	135.75
370.07	138.09
370.27	154.48
370.47	182.56
370.66	456.40
370.86	409.59
371.06	526.62
371.25	517.26
371.45	414.27
371.65	484.49
371.84	442.36
372.04	500.87
372.24	472.79
372.44	477.47
372.63	505.56
372.83	503.22
373.03	566.41
373.22	554.71
373.42	587.47
373.62	505.56
373.81	613.22
374.01	554.71
374.21	519.60
374.40	580.45
374.60	617.90
374.79	512.58
374.99	580.45
375.19	641.31
375.38	638.97
375.58	631.94
375.78	575.77
375.97	636.63
376.17	617.90
376.37	657.69
376.56	645.99
376.76	559.39
376.95	737.27
377.15	685.78
377.35	631.94
377.54	615.56
377.74	704.50
377.93	662.37
378.13	641.31
378.33	678.76
378.52	671.73
378.72	664.71
378.91	638.97
379.11	671.73
379.31	648.33
379.50	645.99
379.70	704.50
379.89	681.10
380.09	741.95
380.28	690.46
380.48	730.25
380.68	744.29
380.87	704.50
381.07	713.86
381.26	751.31
381.46	589.82
381.65	697.48
381.85	753.65
382.04	744.29
382.24	615.56
382.43	697.48
382.63	688.12
382.83	753.65
383.02	800.46
383.22	753.65
383.41	751.31
383.61	706.84
383.80	784.08
384.00	748.97
384.19	727.91
384.39	805.14
384.58	807.48
384.78	821.53
384.97	821.53
385.17	798.12
385.36	835.57
385.56	816.85
385.75	809.83
385.95	851.96
386.14	760.67
386.34	866.00
386.53	823.87
386.72	868.34
386.92	828.55
387.11	837.91
387.31	896.43
387.50	868.34
387.70	877.70
387.89	884.72
388.09	861.32
388.28	800.46
388.48	947.92
388.67	940.90
388.86	959.62
389.06	994.73
389.25	1001.75
389.45	1027.50
389.64	1039.20
389.84	1004.09
390.03	1004.09
390.22	992.39
390.42	1020.47
390.61	990.05
390.81	983.02
391.00	1036.86
391.19	1132.82
391.39	1057.92
391.58	1153.88
391.78	1083.67
391.97	1069.62
392.16	1046.22
392.36	1046.22
392.55	1062.60
392.75	980.68
392.94	987.71
393.13	1060.26
393.33	1013.45
393.52	1179.63
393.71	1083.67
393.91	1153.88
394.10	1032.18
394.29	1205.38
394.49	1158.57
394.68	1228.78
394.88	1196.01
395.07	1280.27
395.26	1235.80
395.46	1219.42
395.65	1212.40
395.84	1221.76
396.04	1270.91
396.23	1181.97
396.42	1231.12
396.62	1268.57
396.81	1221.76
397.00	1303.68
397.19	1315.38
397.39	1444.11
397.58	1526.03
397.77	1451.13
397.97	1380.92
398.16	1352.83
398.35	1441.77
398.55	1446.45
398.74	1526.03
398.93	1533.05
399.12	1486.24
399.32	1519.01
399.51	1483.90
399.70	1596.25
399.90	1572.84
400.09	1572.84
400.28	1540.07
400.47	1455.81
400.67	1661.78
400.86	1568.16
401.05	1638.38
401.24	1678.16
401.44	1703.91
401.63	1624.33
401.82	1682.85
402.01	1638.38
402.21	1788.17
402.40	1701.57
402.59	1739.02
402.78	1795.19
402.97	1750.72
403.17	1809.23
403.36	1760.08
403.55	1774.13
403.74	1930.94
403.93	1865.41
404.13	1919.24
404.32	1827.96
404.51	1830.30
404.70	1891.15
404.89	1905.20
405.09	2057.33
405.28	2001.16
405.47	1928.60
405.66	1900.52
405.85	1884.13
406.05	2057.33
406.24	1916.90
406.43	2043.29
406.62	2150.95
406.81	2136.91
407.00	2080.74
407.20	2038.61
407.39	2036.27
407.58	2104.14
407.77	2118.18
407.96	2155.63
408.15	2176.70
408.34	2167.34
408.54	2179.04
408.73	2293.72
408.92	2345.22
409.11	2368.62
409.30	2300.75
409.49	2251.60
409.68	2183.72
409.87	2179.04
410.07	2340.54
410.26	2401.39
410.45	2340.54
410.64	2427.14
410.83	2455.22
411.02	2410.75
411.21	2473.95
411.40	2462.24
411.59	2495.01
411.78	2558.21
411.98	2506.71
412.17	2597.99
412.36	2551.18
412.55	2677.57
412.74	2773.53
412.93	2710.34
413.12	2787.58
413.31	2853.11
413.50	2806.30
413.69	2822.69
413.88	2867.16
414.07	2815.66
414.26	2906.95
414.45	2890.56
414.64	3040.36
414.83	3089.51
415.02	3126.96
415.22	2925.67
415.41	3112.91
415.60	3012.27
415.79	3260.37
415.98	3286.11
416.17	3145.68
416.36	3157.38
416.55	3295.47
416.74	3269.73
416.93	3311.86
417.12	3260.37
417.31	3346.97
417.50	3337.60
417.69	3445.27
417.88	3344.63
418.07	3398.46
418.26	3363.35
418.45	3351.65
418.64	3620.81
418.83	3534.21
419.02	3494.42
419.21	3529.53
419.39	3606.77
419.58	3695.71
419.77	3522.51
419.96	3698.05
420.15	3592.72
420.34	3660.60
420.53	3705.07
420.72	3794.01
420.91	3712.09
421.10	3819.75
421.29	3859.54
421.48	3756.56
421.67	3779.97
421.86	3719.11
422.05	3812.73
422.24	3754.22
422.43	3798.69
422.61	3904.01
422.80	3836.14
422.99	3868.91
423.18	3911.04
423.37	3985.93
423.56	3927.42
423.75	3918.06
423.94	3882.95
424.13	3637.19
424.32	3749.54
424.50	3915.72
424.69	3918.06
424.88	3967.21
425.07	3880.61
425.26	3920.40
425.45	3892.31
425.64	3913.38
425.83	3976.57
426.01	4044.45
426.20	4037.42
426.39	3969.55
426.58	3941.46
426.77	3997.64
426.96	3978.91
427.15	3854.86
427.33	4098.28
427.52	4004.66
427.71	4060.83
427.90	4124.02
428.09	4053.81
428.28	4105.30
428.46	4079.55
428.65	4159.13
428.84	4318.29
429.03	4292.54
429.22	4046.79
429.40	4180.20
429.59	4205.94
429.78	4086.58
429.97	3709.75
430.16	4086.58
430.34	4163.81
430.53	4131.05
430.72	4299.56
430.91	4222.33
431.10	4234.03
431.28	4428.29
431.47	4580.43
431.66	4606.17
431.85	4648.30
432.03	4690.43
432.22	4578.09
432.41	4833.21
432.60	4688.09
432.79	4615.54
432.97	4725.54
433.16	4585.11
433.35	4547.66
433.54	4650.64
433.72	4723.20
433.91	4613.20
434.10	4706.82
434.28	4835.55
434.47	4837.89
434.66	5018.11
434.85	4863.63
435.03	4985.34
435.22	4854.27
435.41	5043.85
435.59	5116.41
435.78	5088.32
435.97	4980.66
436.16	5085.98
436.34	5125.77
436.53	5050.88
436.72	5146.84
436.90	5177.26
437.09	5212.37
437.28	5090.67
437.46	5275.57
437.65	5146.84
437.84	5219.39
438.02	5149.18
438.21	5226.42
438.40	5025.13
438.58	5394.93
438.77	5364.51
438.96	5397.28
439.14	5589.20
439.33	5518.98
439.52	5561.11
439.70	5551.75
439.89	5619.63
440.08	5633.67
440.26	5678.14
440.45	5706.23
440.63	5811.55
440.82	6026.88
441.01	5804.53
441.19	5961.34
441.38	5919.21
441.57	6143.91
441.75	6195.40
441.94	6193.06
442.12	6087.73
442.31	6225.82
442.50	6455.20
442.68	6310.08
442.87	6155.61
443.05	6382.64
443.24	6497.33
443.43	6349.87
443.61	6466.90
443.80	6593.29
443.98	6282.00
444.17	6146.25
444.35	6469.24
444.54	6527.75
444.73	6349.87
444.91	6417.75
445.10	6340.51
445.28	6478.60
445.47	6377.96
445.65	6239.87
445.84	6459.88
446.02	6579.25
446.21	6604.99
446.39	6307.74
446.58	6679.89
446.77	6679.89
446.95	6502.01
447.14	6712.66
447.32	6839.05
447.51	6705.63
447.69	6581.59
447.88	6579.25
448.06	6693.93
448.25	6761.81
448.43	6616.69
448.62	6630.74
448.80	6612.01
448.99	6630.74
449.17	6759.47
449.36	6764.15
449.54	6822.66
449.73	6803.94
449.91	6993.52
450.10	7124.59
450.28	7138.63
450.46	7206.51
450.65	7016.93
450.83	7061.40
451.02	6958.41
451.20	7222.89
451.39	7208.85
451.57	7136.29
451.76	7087.14
451.94	7183.10
452.13	7157.36
452.31	7148.00
452.49	7059.06
452.68	7098.84
452.86	7152.68
453.05	7145.66
453.23	7426.52
453.42	7300.13
453.60	7159.70
453.78	7283.75
453.97	7286.09
454.15	7534.18
454.34	7482.69
454.52	7508.44
454.70	7435.88
454.89	7412.48
455.07	7651.21
455.26	7564.61
455.44	7754.19
455.62	7630.15
455.81	7639.51
455.99	7756.54
456.17	7534.18
456.36	7822.07
456.54	7896.97
456.73	7941.44
456.91	7990.59
457.09	8124.00
457.28	8133.36
457.46	7840.79
457.64	7934.42
457.83	8060.80
458.01	7793.98
458.19	8255.07
458.38	8138.04
458.56	8269.11
458.74	8262.09
458.93	8205.92
459.11	8334.65
459.29	8138.04
459.48	8416.57
459.66	8280.82
459.84	8393.16
460.03	8613.17
460.21	8348.69
460.39	8425.93
460.57	8409.54
460.76	8695.09
460.94	8491.46
461.12	8416.57
461.31	8634.24
461.49	8594.45
461.67	8442.31
461.85	8704.45
462.04	8589.77
462.22	9277.88
462.40	9011.06
462.59	8805.10
462.77	8685.73
462.95	8966.59
463.13	8835.52
463.32	8842.54
463.50	8912.76
463.68	9078.94
463.86	9151.49
464.05	9100.00
464.23	8802.75
464.41	8975.95
464.59	8978.30
464.78	9179.58
464.96	8751.26
465.14	8980.64
465.32	9158.52
465.50	9018.08
465.69	9121.07
465.87	9011.06
466.05	9256.82
466.23	9163.20
466.41	9312.99
466.60	9385.55
466.78	9247.46
466.96	9268.52
467.14	9186.60
467.32	9050.85
467.51	9544.70
467.69	9242.78
467.87	9268.52
468.05	9500.23
468.23	9341.08
468.41	9322.35
468.60	9308.31
468.78	9577.47
468.96	9523.64
469.14	9537.68
469.32	9633.64
469.50	9441.72
469.69	9516.62
469.87	9586.83
470.05	9769.40
470.23	9930.89
470.41	9675.77
470.59	10012.81
470.77	9741.31
470.95	9841.95
471.14	10010.47
471.32	9792.80
471.50	10349.85
471.68	10319.42
471.86	10162.61
472.04	10380.28
472.22	10473.90
472.40	10148.56
472.58	10307.72
472.77	10338.15
472.95	10527.73
473.13	10850.72
473.31	10462.19
473.49	10501.98
473.67	10567.52
473.85	10773.49
474.03	10761.78
474.21	10768.80
474.39	11243.93
474.57	10960.73
474.75	10974.77
474.93	11164.36
475.12	11164.36
475.30	11229.89
475.48	11005.20
475.66	11082.44
475.84	11442.88
476.02	11286.06
476.20	11360.96
476.38	11363.30
476.56	11679.27
476.74	11660.55
476.92	11812.68
477.10	11768.21
477.28	12025.67
477.46	11962.48
477.64	12002.27
477.82	12320.58
478.00	12528.89
478.18	12243.34
478.36	12760.60
478.54	12505.48
478.72	12432.93
478.90	12847.20
479.08	12905.71
479.26	13027.42
479.44	13125.72
479.62	13057.85
479.80	13132.75
479.98	13446.38
480.16	13582.13
480.34	13195.94
480.52	13565.74
480.70	13647.66
480.88	13556.38
481.06	13832.57
481.24	13905.12
481.41	14054.92
481.59	14352.16
481.77	14375.57
481.95	14216.41
482.13	14761.76
482.31	14581.54
482.49	15049.64
482.67	14881.13
482.85	14728.99
483.03	15098.80
483.21	15190.08
483.39	15396.04
483.57	15442.85
483.74	15257.95
483.92	15873.51
484.10	15585.63
484.28	15520.09
484.46	16102.89
484.64	16423.54
484.82	16170.76
485.00	16285.45
485.18	16269.06
485.35	16482.05
485.53	16222.25
485.71	16208.21
485.89	16470.35
486.07	16496.10
486.25	16786.32
486.43	17036.76
486.61	17008.67
486.78	17212.30
486.96	17324.65
487.14	17593.81
487.32	17577.42
487.50	17881.69
487.68	18214.05
487.85	18239.79
488.03	18405.97
488.21	18576.83
488.39	18396.61
488.57	18707.90
488.75	18614.28
488.92	19250.91
489.10	19098.77
489.28	19499.00
489.46	19403.04
489.64	19618.37
489.81	20056.05
489.99	20311.17
490.17	20034.99
490.35	20074.77
490.53	19948.39
490.70	20594.37
490.88	20416.49
491.06	20491.39
491.24	20503.09
491.41	20840.13
491.59	20482.03
491.77	20725.44
491.95	21191.21
492.13	21329.30
492.30	21483.78
492.48	21472.07
492.66	21912.10
492.84	21778.68
493.01	21874.65
493.19	21965.93
493.37	22277.22
493.54	22029.12
493.72	22689.15
493.90	22504.25
494.08	22766.39
494.25	22974.70
494.43	23498.98
494.61	23187.69
494.79	23353.87
494.96	23417.06
495.14	23438.12
495.32	23667.50
495.49	23608.98
495.67	23936.66
495.85	23964.75
496.02	24133.26
496.20	24149.65
496.38	24367.32
496.55	24456.26
496.73	25081.18
496.91	24872.87
497.09	24491.37
497.26	24912.66
497.44	24868.19
497.62	24982.88
497.79	25214.59
497.97	25111.61
498.14	25226.29
498.32	25832.49
498.50	25736.53
498.67	26092.29
498.85	26118.04
499.03	26199.96
499.20	26225.70
499.38	26518.27
499.56	26410.60
499.73	26211.66
499.91	26314.64
500.08	26593.17
500.26	26522.95
500.44	26782.75
500.61	26345.07
500.79	26714.87
500.97	26625.93
501.14	27452.14
501.32	27098.72
501.49	26845.94
501.67	27140.85
501.84	27524.70
502.02	27023.83
502.20	27702.58
502.37	27920.25
502.55	28072.39
502.72	28137.92
502.90	28088.77
503.07	27953.02
503.25	28168.35
503.43	28032.60
503.60	28304.10
503.78	28364.95
503.95	28379.00
504.13	28669.22
504.30	28943.06
504.48	28201.11
504.65	28774.55
504.83	28758.16
505.01	29439.26
505.18	29032.00
505.36	29202.86
505.53	29818.42
505.71	29436.92
505.88	29610.12
506.06	29465.00
506.23	29902.68
506.41	29607.78
506.58	29596.07
506.76	29788.00
506.93	29968.22
507.11	29876.94
507.28	30279.51
507.46	29785.66
507.63	29926.09
507.81	30143.76
507.98	30125.04
508.16	30368.45
508.33	30691.44
508.50	30785.07
508.68	30998.06
508.85	31101.04
509.03	30874.01
509.20	30984.01
509.38	31435.74
509.55	31452.12
509.73	31232.11
509.90	31557.44
510.08	30976.99
510.25	31601.91
510.42	31281.26
510.60	32102.79
510.77	32194.07
510.95	32266.63
511.12	31988.10
511.30	32210.45
511.47	32404.72
511.64	32177.68
511.82	32655.15
511.99	32432.80
512.17	32439.82
512.34	32119.17
512.51	32287.69
512.69	32767.50
512.86	32439.82
513.04	33340.93
513.21	33130.28
513.38	32961.76
513.56	33240.29
513.73	32636.43
513.90	33174.75
514.08	32919.63
514.25	32989.85
514.43	33823.08
514.60	33170.07
514.77	33256.67
514.95	34078.20
515.12	33441.57
515.29	33776.27
515.47	33921.38
515.64	34022.03
515.81	33806.70
515.99	33930.75
516.16	34141.39
516.33	33502.43
516.51	34045.43
516.68	33401.79
516.85	33464.98
517.03	33919.04
517.20	34017.35
517.37	34403.53
517.54	34457.37
517.72	34305.23
517.89	34101.61
518.06	34012.66
518.24	34494.82
518.41	34319.28
518.58	34443.32
518.75	34511.20
518.93	35068.25
519.10	34881.00
519.27	35058.88
519.45	35330.39
519.62	35309.32
519.79	35058.88
519.96	35393.58
520.14	35545.72
520.31	35302.30
520.48	35597.21
520.65	35161.87
520.83	35889.77
521.00	36332.14
521.17	36280.64
521.34	36037.23
521.52	36383.63
521.69	36486.61
521.86	36268.94
522.03	36329.80
522.20	36697.26
522.38	36608.32
522.55	36416.40
522.72	36243.20
522.89	36402.35
523.07	36584.91
523.24	36701.94
523.41	36835.35
523.58	36854.08
523.75	37317.50
523.92	36830.67
524.10	37801.99
524.27	37771.57
524.44	37717.73
524.61	37572.62
524.78	37502.40
524.96	37612.41
525.13	37490.70
525.30	38073.49
525.47	38066.47
525.64	37647.52
525.81	38000.94
525.98	37586.66
526.16	37481.34
526.33	37038.98
526.50	37860.51
526.67	37621.77
526.84	38047.75
527.01	37701.35
527.18	37947.11
527.36	38150.73
527.53	38366.06
527.70	38600.12
527.87	38965.24
528.04	38323.93
528.21	38724.16
528.38	38602.46
528.55	38845.87
528.72	39157.16
528.89	39236.74
529.07	38899.70
529.24	39040.14
529.41	38998.01
529.58	38515.86
529.75	38724.16
529.92	38792.04
530.09	39459.09
530.26	39632.29
530.43	39213.34
530.60	38941.83
530.77	39672.08
530.94	39679.10
531.11	39456.75
531.28	39730.59
531.46	39297.59
531.63	39611.23
531.80	39791.45
531.97	39892.09
532.14	39550.37
532.31	39199.29
532.48	39370.15
532.65	40034.86
532.82	39639.31
532.99	40011.46
533.16	39332.70
533.33	39955.29
533.50	40360.20
533.67	40332.11
533.84	40273.60
534.01	40627.02
534.18	40231.47
534.35	40636.38
534.52	40299.34
534.69	40128.48
534.86	40517.01
535.03	40357.86
535.20	41074.06
535.37	40802.56
535.54	41167.68
535.71	40748.73
535.88	40821.28
536.05	40804.90
536.22	40582.55
536.38	40935.97
536.55	40800.22
536.72	40683.19
536.89	40772.13
537.06	40847.03
537.23	41422.80
537.40	40935.97
537.57	41460.25
537.74	40989.80
537.91	41621.75
538.08	41706.01
538.25	41177.04
538.42	41394.71
538.59	41865.16
538.75	41050.66
538.92	41581.96
539.09	41607.70
539.26	41493.02
539.43	41490.68
539.60	41701.32
539.77	41837.08
539.94	41713.03
540.11	41626.43
540.28	41565.57
540.44	41755.16
540.61	41373.65
540.78	41467.27
540.95	41682.60
541.12	41654.51
541.29	41986.87
541.46	42323.91
541.62	41867.50
541.79	42213.90
541.96	41918.99
542.13	41893.25
542.30	42340.29
542.47	42504.13
542.63	42071.13
542.80	42679.67
542.97	42497.11
543.14	43091.60
543.31	42787.33
543.48	43196.93
543.64	43468.43
543.81	43363.11
543.98	43047.13
544.15	43093.94
544.32	43299.91
544.48	43597.16
544.65	43356.08
544.82	43323.32
544.99	42883.30
545.16	42784.99
545.32	43143.09
545.49	43206.29
545.66	43943.56
545.83	43798.44
546.00	43580.78
546.16	43653.33
546.33	43576.09
546.50	43283.53
546.67	43529.28
546.83	43206.29
547.00	43395.87
547.17	43203.95
547.34	43292.89
547.50	43501.20
547.67	43929.51
547.84	43749.29
548.00	44144.84
548.17	44051.22
548.34	43665.03
548.51	44226.76
548.67	44573.16
548.84	44088.67
549.01	43856.96
549.18	43863.98
549.34	43861.64
549.51	44217.40
549.68	43899.09
549.84	44034.84
550.01	44357.83
550.18	44051.22
550.34	44198.68
550.51	44275.91
550.68	44456.14
550.84	43920.15
551.01	44315.70
551.18	44051.22
551.34	44100.37
551.51	44554.44
551.68	44676.15
551.84	44907.86
552.01	44175.27
552.18	44507.63
552.34	44346.13
552.51	44547.42
552.68	44765.09
552.84	44643.38
553.01	44526.35
553.18	44664.44
553.34	44568.48
553.51	44847.00
553.67	44570.82
553.84	45282.34
554.01	45055.31
554.17	45291.71
554.34	44900.84
554.51	45006.16
554.67	45186.38
554.84	44973.39
555.00	44802.53
555.17	44900.84
555.33	45612.36
555.50	45055.31
555.67	44954.67
555.83	44872.75
556.00	45155.96
556.16	45607.68
556.33	45500.01
556.50	45518.74
556.66	45350.22
556.83	44837.64
556.99	45766.84
557.16	44994.46
557.32	45471.93
557.49	45663.85
557.65	45111.49
557.82	45390.01
557.98	45471.93
558.15	45350.22
558.32	45345.54
558.48	45205.11
558.65	45893.22
558.81	45294.05
558.98	45600.66
559.14	45811.31
559.31	45429.80
559.47	45689.60
559.64	45727.05
559.80	45837.05
559.97	45907.27
560.13	45530.44
560.30	45612.36
560.46	45574.91
560.63	45869.82
560.79	45701.30
560.96	45834.71
561.12	45951.74
561.29	45818.33
561.45	45549.17
561.61	46033.66
561.78	45940.04
561.94	45326.81
562.11	45883.86
562.27	45815.99
562.44	45734.07
562.60	45844.07
562.77	45977.48
562.93	46000.89
563.10	46000.89
563.26	45603.00
563.42	46014.93
563.59	45832.37
563.75	46181.11
563.92	46108.55
564.08	46043.02
564.24	46073.45
564.41	45823.01
564.57	45813.65
564.74	46057.06
564.90	46241.96
565.07	46021.95
565.23	46188.13
565.39	45972.80
565.56	46127.28
565.72	46293.46
565.88	46248.99
566.05	45687.26
566.21	46103.87
566.38	46054.72
566.54	45734.07
566.70	46127.28
566.87	46576.66
567.03	46356.65
567.19	46401.12
567.36	46248.99
567.52	46061.74
567.68	46373.03
567.85	46309.84
568.01	45886.20
568.17	46117.92
568.34	46403.46
568.50	46122.60
568.66	46223.24
568.83	46401.12
568.99	45930.67
569.15	46218.56
569.32	46066.42
569.48	46059.40
569.64	46902.00
569.81	46330.90
569.97	46127.28
570.13	46248.99
570.30	45764.49
570.46	45680.24
570.62	45914.29
570.78	46040.68
570.95	45481.29
571.11	46593.04
571.27	46141.32
571.43	46525.17
571.60	46351.97
571.76	46223.24
571.92	46452.61
572.09	46237.28
572.25	46281.75
572.41	46314.52
572.57	46422.19
572.74	46820.08
572.90	46541.55
573.06	46857.52
573.22	46616.45
573.38	46670.28
573.55	46103.87
573.71	46876.25
573.87	46604.75
574.03	46649.22
574.20	46148.34
574.36	46349.63
574.52	46288.77
574.68	47037.75
574.84	46656.24
575.01	46326.22
575.17	46232.60
575.33	46305.16
575.49	46555.60
575.65	47019.02
575.82	46663.26
575.98	46988.60
576.14	47021.36
576.30	46469.00
576.46	46550.91
576.62	46642.20
576.79	45977.48
576.95	45741.09
577.11	46492.40
577.27	46504.10
577.43	46677.30
577.59	46162.39
577.75	46291.12
577.92	46366.01
578.08	45968.12
578.24	45848.75
578.40	46176.43
578.56	46309.84
578.72	46583.68
578.88	46625.81
579.04	46649.22
579.21	46342.61
579.37	46195.15
579.53	46801.35
579.69	46649.22
579.85	46742.84
580.01	46433.89
580.17	46731.14
580.33	46902.00
580.49	46754.54
580.65	46487.72
580.82	46667.94
580.98	46138.98
581.14	46450.27
581.30	46890.29
581.46	46548.57
581.62	46843.48
581.78	46684.33
581.94	47196.90
582.10	46649.22
582.26	46564.96
582.42	46422.19
582.58	46679.64
582.74	46356.65
582.90	46946.47
583.06	46506.44
583.22	46607.09
583.38	46667.94
583.54	46665.60
583.70	46361.33
583.86	46520.49
584.02	45963.44
584.18	46799.01
584.34	46689.01
584.50	46775.61
584.66	46447.93
584.82	46469.00
584.98	46740.50
585.14	46883.27
585.30	46244.30
585.46	46644.54
585.62	46583.68
585.78	46539.21
585.94	46349.63
586.10	46621.13
586.26	46686.67
586.42	46958.17
586.58	47072.85
586.74	46508.79
586.90	46438.57
587.06	46253.67
587.22	47082.22
587.38	46248.99
587.54	46944.12
587.70	46548.57
587.86	46756.88
588.02	46642.20
588.18	46684.33
588.34	46490.06
588.49	45975.14
588.65	46026.63
588.81	46253.67
588.97	46478.36
589.13	46459.63
589.29	46340.27
589.45	46131.96
589.61	46270.05
589.77	46263.03
589.93	46890.29
590.08	46967.53
590.24	46841.14
590.40	46824.76
590.56	46815.40
590.72	47021.36
590.88	46714.75
591.04	46602.41
591.20	46794.33
591.35	46857.52
591.51	47374.78
591.67	46550.91
591.83	46731.14
591.99	46773.27
592.15	46396.44
592.31	46738.16
592.46	46726.46
592.62	46918.38
592.78	46855.18
592.94	47061.15
593.10	46880.93
593.26	46997.96
593.41	46876.25
593.57	46564.96
593.73	46649.22
593.89	47021.36
594.05	46946.47
594.20	46377.72
594.36	47040.09
594.52	46574.32
594.68	46705.39
594.84	46597.73
594.99	47164.14
595.15	46700.71
595.31	47288.18
595.47	46904.34
595.62	47023.70
595.78	46960.51
595.94	47098.60
596.10	46981.57
596.25	46958.17
596.41	47086.90
596.57	46611.77
596.73	46976.89
596.88	46506.44
597.04	47023.70
597.20	47030.72
597.36	46703.05
597.51	47262.44
597.67	47166.48
597.83	46806.03
597.99	47377.12
598.14	47075.19
598.30	47196.90
598.46	47178.18
598.61	47044.77
598.77	46642.20
598.93	47093.92
599.09	46845.82
599.24	47168.82
599.40	46871.57
599.56	46997.96
599.71	47082.22
599.87	46927.74
600.03	46976.89
600.18	46756.88
600.34	46902.00
600.50	46848.16
600.65	46663.26
600.81	47199.24
600.97	47129.03
601.12	47152.43
601.28	47021.36
601.44	47168.82
601.59	46717.09
601.75	46836.46
601.91	46534.53
602.06	47306.91
602.22	47107.96
602.37	46681.98
602.53	46733.48
602.69	46965.19
602.84	47119.66
603.00	46894.97
603.16	46656.24
603.31	46581.34
603.47	46560.28
603.62	46513.47
603.78	47021.36
603.94	46784.97
604.09	47093.92
604.25	46749.86
604.40	46445.59
604.56	46696.03
604.71	46995.62
604.87	46878.59
605.03	46920.72
605.18	46794.33
605.34	47171.16
605.49	46424.53
605.65	46918.38
605.80	46766.24
605.96	46845.82
606.12	46902.00
606.27	46766.24
606.43	46204.52
606.58	47138.39
606.74	46726.46
606.89	46644.54
607.05	46820.08
607.20	46726.46
607.36	46848.16
607.51	46937.10
607.67	47028.38
607.82	47028.38
607.98	46377.72
608.13	46522.83
608.29	46632.83
608.44	46471.34
608.60	46117.92
608.75	46211.54
608.91	46223.24
609.06	46127.28
609.22	46326.22
609.37	46050.04
609.53	46265.37
609.68	46595.38
609.84	46160.05
609.99	46649.22
610.15	46703.05
610.30	46225.58
610.46	45937.69
610.61	46363.67
610.76	46237.28
610.92	46288.77
611.07	46248.99
611.23	46026.63
611.38	46391.76
611.54	45661.51
611.69	46064.08
611.84	45600.66
612.00	46113.23
612.15	46279.41
612.31	46033.66
612.46	46216.22
612.62	46265.37
612.77	45876.84
612.92	46429.21
613.08	46141.32
613.23	46206.86
613.39	45900.25
613.54	45406.39
613.69	45610.02
613.85	45624.06
614.00	46253.67
614.15	46043.02
614.31	45713.00
614.46	45626.40
614.62	46033.66
614.77	45411.07
614.92	45656.83
615.08	45455.54
615.23	46014.93
615.38	45675.55
615.54	45769.18
615.69	45647.47
615.84	44949.99
616.00	45628.74
616.15	45525.76
616.30	45282.34
616.46	45186.38
616.61	44772.11
616.76	45443.84
616.92	45364.26
617.07	45057.65
617.22	44971.05
617.37	44772.11
617.53	45624.06
617.68	45572.57
617.83	45336.18
617.99	45659.17
618.14	45565.55
618.29	45270.64
618.45	44996.80
618.60	44870.41
618.75	45315.11
618.90	45542.14
619.06	45027.23
619.21	45064.67
619.36	45170.00
619.51	45048.29
619.67	45270.64
619.82	45214.47
619.97	45382.99
620.12	44729.98
620.28	44811.90
620.43	44360.17
620.58	44964.03
620.73	45048.29
620.89	44992.12
621.04	44889.13
621.19	44680.83
621.34	44676.15
621.49	44402.30
621.65	44596.57
621.80	44781.47
621.95	44236.12
622.10	44802.53
622.25	44296.98
622.41	44474.86
622.56	44355.49
622.71	44596.57
622.86	44680.83
623.01	44858.71
623.16	45095.10
623.32	45001.48
623.47	45062.33
623.62	44931.26
623.77	44074.63
623.92	44308.68
624.07	44467.84
624.23	43995.05
624.38	43812.49
624.53	43887.39
624.68	44091.01
624.83	43885.04
624.98	44252.51
625.13	44081.65
625.29	44266.55
625.44	43941.22
625.59	44034.84
625.74	43856.96
625.89	43306.93
626.04	43650.99
626.19	44177.61
626.34	43894.41
626.49	43622.90
626.65	43679.08
626.80	44264.21
626.95	43438.00
627.10	43990.37
627.25	44016.11
627.40	43056.50
627.55	42934.79
627.70	42883.30
627.85	43129.05
628.00	43473.11
628.15	43777.38
628.30	43243.74
628.45	43103.31
628.60	43316.29
628.76	43400.55
628.91	43526.94
629.06	43384.17
629.21	43316.29
629.36	42637.54
629.51	42892.66
629.66	43384.17
629.81	43093.94
629.96	43278.85
630.11	43365.45
630.26	43393.53
630.41	43033.09
630.56	42953.51
630.71	43117.35
630.86	43145.44
631.01	42887.98
631.16	42773.29
631.31	42651.58
631.46	42429.23
631.61	42440.93
631.76	42878.61
631.91	42691.37
632.06	42813.08
632.21	43313.95
632.36	43519.92
632.51	42511.15
632.66	42586.05
632.81	42459.66
632.96	42321.57
633.10	42370.72
633.25	42431.57
633.40	42323.91
633.55	43009.68
633.70	42368.38
633.85	42148.37
634.00	42684.35
634.15	42092.19
634.30	42148.37
634.45	42295.82
634.60	42391.78
634.75	42377.74
634.90	42174.11
635.05	42146.03
635.19	42351.99
635.34	42768.61
635.49	42520.51
635.64	42595.41
635.79	41736.43
635.94	42050.06
636.09	42092.19
636.24	41757.50
636.39	41553.87
636.53	41722.39
636.68	41645.15
636.83	41600.68
636.98	42045.38
637.13	41794.95
637.28	42239.65
637.43	42092.19
637.57	41860.48
637.72	41649.83
637.87	41853.46
638.02	41881.55
638.17	41605.36
638.32	41471.95
638.46	41195.77
638.61	40905.54
638.76	41254.28
638.91	41659.20
639.06	41497.70
639.20	41303.43
639.35	41729.41
639.50	41752.82
639.65	41521.10
639.80	41326.84
639.94	41200.45
640.09	41202.79
640.24	41422.80
640.39	41146.62
640.54	41038.95
640.68	40863.41
640.83	41186.41
640.98	41352.58
641.13	41357.27
641.27	41450.89
641.42	40914.90
641.57	41097.47
641.72	40928.95
641.86	40645.74
642.01	40795.54
642.16	40456.16
642.31	40259.55
642.45	41006.19
642.60	40896.18
642.75	40575.53
642.90	40465.52
643.04	40507.65
643.19	41043.63
643.34	40399.99
643.48	40935.97
643.63	40381.26
643.78	40594.25
643.93	40219.77
644.07	40261.90
644.22	40594.25
644.37	40306.37
644.51	40484.25
644.66	40402.33
644.81	39959.97
644.95	40376.58
645.10	40601.27
645.25	40399.99
645.39	40645.74
645.54	40863.41
645.69	40339.13
645.83	40243.17
645.98	40053.59
646.13	40231.47
646.27	40371.90
646.42	40210.40
646.57	39889.75
646.71	39922.52
646.86	40006.78
647.00	40517.01
647.15	40191.68
647.30	40210.40
647.44	40217.43
647.59	39599.52
647.74	39838.26
647.88	39643.99
648.03	39777.40
648.17	39615.91
648.32	39246.10
648.47	39742.30
648.61	39700.17
648.76	39805.49
648.90	39676.76
649.05	39985.71
649.20	39468.45
649.34	40238.49
649.49	39386.54
649.63	39744.64
649.78	39690.80
649.92	39206.31
650.07	39765.70
650.21	39519.95
650.36	39517.60
650.51	39555.05
650.65	39620.59
650.80	40006.78
650.94	39864.00
651.09	39494.20
651.23	39360.79
651.38	39393.56
651.52	39157.16
651.67	39278.87
651.81	39367.81
651.96	39105.67
652.10	39236.74
652.25	39285.89
652.39	38670.33
652.54	39222.70
652.68	39414.62
652.83	39173.55
652.97	39391.22
653.12	39468.45
653.26	38651.61
653.41	39295.25
653.55	38794.38
653.70	39065.88
653.84	39372.49
653.99	38885.66
654.13	38941.83
654.27	38576.71
654.42	38880.98
654.56	38562.67
654.71	38492.45
654.85	38841.19
655.00	38801.40
655.14	38684.37
655.29	38497.13
655.43	38546.28
655.57	38012.64
655.72	37858.17
655.86	38029.02
656.01	37893.27
656.15	37731.78
656.30	37823.06
656.44	37928.38
656.58	37766.88
656.73	37876.89
656.87	37895.61
657.01	37694.33
657.16	37738.80
657.30	37809.01
657.45	37986.89
657.59	37694.33
657.73	38330.95
657.88	37787.95
658.02	37603.05
658.16	37958.81
658.31	37886.25
658.45	38183.50
658.60	37776.25
658.74	38066.47
658.88	38026.68
659.03	37689.65
659.17	37626.45
659.31	37813.70
659.46	37549.21
659.60	37284.73
659.74	37376.01
659.89	37104.51
660.03	37392.40
660.17	37633.47
660.32	37408.78
660.46	37811.35
660.60	37439.21
660.74	37841.78
660.89	37034.30
661.03	37130.26
661.17	37071.75
661.32	36723.01
661.46	36861.10
661.60	36844.71
661.74	36987.49
661.89	36982.80
662.03	36931.31
662.17	37137.28
662.31	36842.37
662.46	36856.42
662.60	36935.99
662.74	36598.96
662.88	36491.29
663.03	36353.20
663.17	36652.79
663.31	36292.35
663.45	36421.08
663.60	36453.84
663.74	36231.49
663.88	36147.23
664.02	35831.26
664.17	35974.03
664.31	35438.05
664.45	36086.38
664.59	35842.96
664.73	35957.65
664.88	36105.10
665.02	35739.98
665.16	35845.30
665.30	35915.52
665.44	35704.87
665.59	35342.09
665.73	35241.45
665.87	35704.87
666.01	35295.28
666.15	35288.26
666.29	35573.80
666.44	35236.77
666.58	35501.25
666.72	35522.31
666.86	35215.70
667.00	35449.75
667.14	34873.98
667.28	34609.50
667.43	34651.63
667.57	34740.57
667.71	34499.50
667.85	34881.00
667.99	34455.03
668.13	34630.57
668.27	34670.36
668.41	34668.02
668.56	34136.71
668.70	34649.29
668.84	34169.48
668.98	34455.03
669.12	34642.27
669.26	34188.21
669.40	34148.42
669.54	34197.57
669.68	34281.83
669.82	34157.78
669.96	33586.69
670.10	33364.34
670.25	33930.75
670.39	33603.07
670.53	33900.32
670.67	33544.56
670.81	33713.08
670.95	33443.91
671.09	33748.18
671.23	33710.74
671.37	33905.00
671.51	33296.46
671.65	33408.81
671.79	33017.94
671.93	33046.02
672.07	33399.44
672.21	33097.52
672.35	32783.88
672.49	32940.70
672.63	32994.53
672.77	32657.49
672.91	32996.87
673.05	32339.18
673.19	32748.78
673.33	32683.24
673.47	32275.99
673.61	32222.16
673.75	31971.72
673.89	31850.01
674.03	31775.11
674.17	31922.57
674.31	31927.25
674.45	31817.24
674.59	31543.40
674.73	31800.86
674.87	31889.80
675.01	31686.17
675.15	31892.14
675.29	31477.86
675.43	31742.35
675.56	31536.38
675.70	31763.41
675.84	30869.33
675.98	30199.93
676.12	31058.91
676.26	30635.27
676.40	30532.29
676.54	30969.97
676.68	30916.14
676.82	30569.74
676.96	30525.27
677.10	30555.69
677.23	30101.63
677.37	30529.95
677.51	30256.11
677.65	30087.59
677.79	29879.28
677.93	29982.26
678.07	29914.39
678.21	29947.15
678.34	29455.64
678.48	29577.35
678.62	29476.71
678.76	29291.80
678.90	28980.51
679.04	29474.37
679.18	29287.12
679.31	29008.60
679.45	28840.08
679.59	28439.85
679.73	28257.29
679.87	28910.30
680.00	28959.45
680.14	28624.75
680.28	28493.68
680.42	28037.28
680.56	28439.85
680.70	27894.50
680.83	27990.47
680.97	27833.65
681.11	28041.96
681.25	27412.35
681.39	27770.46
681.52	27466.19
681.66	27824.29
681.80	27407.67
681.94	27321.07
682.07	27281.28
682.21	27016.80
682.35	27267.24
682.49	27260.22
682.62	27136.17
682.76	27147.87
682.90	26492.52
683.04	26958.29
683.17	26799.13
683.31	26216.34
683.45	26707.85
683.59	26181.23
683.72	26171.87
683.86	26134.42
684.00	25773.98
684.13	26143.78
684.27	26225.70
684.41	25720.15
684.55	25757.60
684.68	25560.99
684.82	25436.94
684.96	25757.60
685.09	25635.89
685.23	25158.42
685.37	24987.56
685.50	25165.44
685.64	25294.17
685.78	24922.02
685.91	25055.43
686.05	25022.67
686.19	24741.80
686.32	24814.36
686.46	24486.68
686.60	23831.33
686.73	24126.24
686.87	23939.00
687.01	23618.35
687.14	23641.75
687.28	23604.30
687.42	23433.44
687.55	23421.74
687.69	23583.24
687.82	23321.10
687.96	23475.57
688.10	23349.18
688.23	23187.69
688.37	22686.81
688.50	22864.69
688.64	22974.70
688.78	22829.59
688.91	22593.19
689.05	22314.67
689.18	22415.31
689.32	22085.30
689.46	22513.61
689.59	22768.73
689.73	22356.80
689.86	22089.98
690.00	22235.09
690.13	22445.74
690.27	22129.77
690.41	22235.09
690.54	21771.66
690.68	21530.59
690.81	21659.32
690.95	21509.52
691.08	21535.27
691.22	21614.85
691.35	21397.18
691.49	21476.76
691.62	21481.44
691.76	21228.66
691.89	21270.79
692.03	21135.04
692.16	20915.03
692.30	21219.30
692.43	20938.43
692.57	20779.28
692.70	20783.96
692.84	20795.66
692.97	20610.76
693.11	20301.81
693.24	20252.66
693.38	20159.03
693.51	20329.89
693.65	20264.36
693.78	19917.96
693.92	19742.42
694.05	19653.48
694.19	19594.96
694.32	19847.74
694.45	19868.81
694.59	19339.85
694.72	19548.15
694.86	19042.60
694.99	19243.88
695.13	18970.04
695.26	18916.21
695.39	18630.66
695.53	19253.25
695.66	18897.49
695.80	19042.60
695.93	18658.75
696.07	18546.40
696.20	18562.79
696.33	18279.58
696.47	18331.08
696.60	18558.11
696.73	18190.64
696.87	18251.50
697.00	18178.94
697.14	18361.50
697.27	17895.74
697.40	18192.98
697.54	17884.03
697.67	17762.33
697.80	17605.51
697.94	17589.13
698.07	17806.80
698.21	17235.70
698.34	17331.67
698.47	17418.27
698.61	17083.57
698.74	16954.84
698.87	17160.81
699.01	16882.28
699.14	16929.09
699.27	17029.74
699.40	16751.21
699.54	16615.46
699.67	16318.22
699.80	16563.97
699.94	16315.87
700.07	16451.63
700.20	16196.51
700.34	16067.78
700.47	16517.16
700.60	16236.30
700.73	16212.89
700.87	16091.18
701.00	15995.22
701.13	15908.62
701.26	15978.84
701.40	15826.70
701.53	15545.84
701.66	15592.65
701.79	15625.42
701.93	15487.32
702.06	15126.88
702.19	15105.82
702.32	15145.61
702.46	15192.42
702.59	15267.31
702.72	15049.64
702.85	15133.90
702.99	15234.55
703.12	14787.50
703.25	15014.54
703.38	14841.34
703.51	14665.80
703.65	14731.33
703.78	14637.71
703.91	14361.53
704.04	14462.17
704.17	14448.13
704.31	14546.43
704.44	14047.90
704.57	13989.38
704.70	14122.79
704.83	14087.68
704.96	13909.80
705.10	14207.05
705.23	14122.79
>>>>>End Processed Spectral Data<<<<<
