SpectraSuite Data File
++++++++++++++++++++++++++++++++++++
Date: Fri Oct 25 10:43:20 EDT 2013
User: price-jones
Dark Spectrum Present: No
Reference Spectrum Present: No
Number of Sampled Component Spectra: 1
Spectrometers: USB2+H05261
Integration Time (usec): 100000 (USB2+H05261)
Spectra Averaged: 1 (USB2+H05261)
Boxcar Smoothing: 0 (USB2+H05261)
Correct for Electrical Dark: No (USB2+H05261)
Strobe/Lamp Enabled: No (USB2+H05261)
Correct for Detector Non-linearity: No (USB2+H05261)
Correct for Stray Light: No (USB2+H05261)
Number of Pixels in Processed Spectrum: 2048
>>>>>Begin Processed Spectral Data<<<<<
365.73	131.07
365.92	131.07
366.12	131.07
366.32	49.15
366.52	0.00
366.72	28.09
366.91	0.00
367.11	0.00
367.31	74.90
367.51	0.00
367.70	0.00
367.90	0.00
368.10	25.75
368.30	56.17
368.49	93.62
368.69	30.43
368.89	39.79
369.09	74.90
369.28	44.47
369.48	0.00
369.68	0.00
369.87	124.05
370.07	49.15
370.27	156.82
370.47	121.71
370.66	376.83
370.86	479.81
371.06	528.96
371.25	498.53
371.45	400.23
371.65	425.98
371.84	416.62
372.04	425.98
372.24	489.17
372.44	472.79
372.63	557.05
372.83	566.41
373.03	475.13
373.22	472.79
373.42	486.83
373.62	500.87
373.81	535.98
374.01	538.32
374.21	528.96
374.40	531.30
374.60	613.22
374.79	585.13
374.99	557.05
375.19	557.05
375.38	596.84
375.58	559.39
375.78	664.71
375.97	627.26
376.17	617.90
376.37	589.82
376.56	594.50
376.76	601.52
376.95	627.26
377.15	695.14
377.35	676.41
377.54	653.01
377.74	629.60
377.93	559.39
378.13	564.07
378.33	695.14
378.52	643.65
378.72	545.34
378.91	631.94
379.11	678.76
379.31	594.50
379.50	634.29
379.70	631.94
379.89	723.23
380.09	636.63
380.28	720.88
380.48	624.92
380.68	683.44
380.87	671.73
381.07	777.06
381.26	753.65
381.46	655.35
381.65	704.50
381.85	688.12
382.04	660.03
382.24	674.07
382.43	702.16
382.63	653.01
382.83	702.16
383.02	704.50
383.22	725.57
383.41	699.82
383.61	767.70
383.80	798.12
384.00	699.82
384.19	711.52
384.39	882.38
384.58	800.46
384.78	741.95
384.97	800.46
385.17	741.95
385.36	786.42
385.56	730.25
385.75	844.93
385.95	798.12
386.14	844.93
386.34	856.64
386.53	835.57
386.72	751.31
386.92	873.02
387.11	896.43
387.31	915.15
387.50	912.81
387.70	896.43
387.89	791.10
388.09	880.04
388.28	889.40
388.48	842.59
388.67	924.51
388.86	940.90
389.06	997.07
389.25	933.87
389.45	931.53
389.64	922.17
389.84	1062.60
390.03	1027.50
390.22	1001.75
390.42	978.34
390.61	1032.18
390.81	1032.18
391.00	1022.81
391.19	1057.92
391.39	1071.97
391.58	1048.56
391.78	1053.24
391.97	1067.28
392.16	1011.11
392.36	1076.65
392.55	1018.13
392.75	1011.11
392.94	994.73
393.13	1032.18
393.33	952.60
393.52	1046.22
393.71	976.00
393.91	1135.16
394.10	1020.47
394.29	1114.10
394.49	1158.57
394.68	1242.82
394.88	1212.40
395.07	1205.38
395.26	1170.27
395.46	1242.82
395.65	1284.95
395.84	1266.23
396.04	1139.84
396.23	1160.91
396.42	1149.20
396.62	1193.67
396.81	1224.10
397.00	1153.88
397.19	1289.64
397.39	1294.32
397.58	1343.47
397.77	1350.49
397.97	1469.86
398.16	1434.75
398.35	1533.05
398.55	1306.02
398.74	1504.96
398.93	1549.43
399.12	1437.09
399.32	1502.62
399.51	1570.50
399.70	1460.49
399.90	1596.25
400.09	1556.46
400.28	1650.08
400.47	1692.21
400.67	1577.52
400.86	1607.95
401.05	1624.33
401.24	1598.59
401.44	1647.74
401.63	1612.63
401.82	1713.27
402.01	1694.55
402.21	1771.79
402.40	1753.06
402.59	1755.40
402.78	1668.80
402.97	1813.92
403.17	1776.47
403.36	1865.41
403.55	1853.70
403.74	1877.11
403.93	1973.07
404.13	1837.32
404.32	1748.38
404.51	1891.15
404.70	1820.94
404.89	1949.67
405.09	2083.08
405.28	1872.43
405.47	1989.46
405.66	1977.75
405.85	1987.11
406.05	2005.84
406.24	1928.60
406.43	1982.43
406.62	2057.33
406.81	2045.63
407.00	2071.37
407.20	1980.09
407.39	2052.65
407.58	2118.18
407.77	2223.51
407.96	2179.04
408.15	2244.57
408.34	2179.04
408.54	2214.15
408.73	2232.87
408.92	2314.79
409.11	2345.22
409.30	2148.61
409.49	2221.17
409.68	2314.79
409.87	2183.72
410.07	2253.94
410.26	2368.62
410.45	2361.60
410.64	2462.24
410.83	2518.42
411.02	2471.61
411.21	2583.95
411.40	2579.27
411.59	2616.72
411.78	2562.89
411.98	2684.59
412.17	2607.36
412.36	2607.36
412.55	2693.96
412.74	2712.68
412.93	2665.87
413.12	2654.17
413.31	2836.73
413.50	2799.28
413.69	2827.37
413.88	2876.52
414.07	3005.25
414.26	2897.58
414.45	2918.65
414.64	2883.54
414.83	3089.51
415.02	2972.48
415.22	3033.33
415.41	3110.57
415.60	3054.40
415.79	3253.34
415.98	3211.22
416.17	3286.11
416.36	3295.47
416.55	3180.79
416.74	3265.05
416.93	3215.90
417.12	3157.38
417.31	3213.56
417.50	3342.28
417.69	3522.51
417.88	3396.12
418.07	3468.67
418.26	3452.29
418.45	3412.50
418.64	3555.27
418.83	3566.98
419.02	3499.10
419.21	3562.30
419.39	3590.38
419.58	3566.98
419.77	3487.40
419.96	3695.71
420.15	3613.79
420.34	3705.07
420.53	3742.52
420.72	3810.39
420.91	3777.62
421.10	3772.94
421.29	3962.53
421.48	3744.86
421.67	3932.10
421.86	3761.24
422.05	3641.87
422.24	3733.15
422.43	3920.40
422.61	3719.11
422.80	3953.16
422.99	3878.27
423.18	4004.66
423.37	4004.66
423.56	3801.03
423.75	3882.95
423.94	3992.95
424.13	3613.79
424.32	3770.60
424.50	4072.53
424.69	3983.59
424.88	3943.80
425.07	3904.01
425.26	3901.67
425.45	3866.56
425.64	4004.66
425.83	3887.63
426.01	4018.70
426.20	4081.89
426.39	4007.00
426.58	3950.82
426.77	3864.22
426.96	3925.08
427.15	4009.34
427.33	3983.59
427.52	4011.68
427.71	4067.85
427.90	4100.62
428.09	4180.20
428.28	4088.92
428.46	4067.85
428.65	4201.26
428.84	4250.41
429.03	4102.96
429.22	4273.82
429.40	4131.05
429.59	4168.49
429.78	3857.20
429.97	3815.07
430.16	3852.52
430.34	4142.75
430.53	4138.07
430.72	4014.02
430.91	4133.39
431.10	4390.84
431.28	4351.06
431.47	4636.60
431.66	4704.48
431.85	4507.87
432.03	4702.14
432.22	4652.98
432.41	4592.13
432.60	4734.90
432.79	4564.04
432.97	4762.99
433.16	4786.40
433.35	4650.64
433.54	4695.11
433.72	4624.90
433.91	4657.67
434.10	4772.35
434.28	4599.15
434.47	4863.63
434.66	4802.78
434.85	4971.30
435.03	4774.69
435.22	4873.00
435.41	5146.84
435.59	5078.96
435.78	4985.34
435.97	5203.01
436.16	5104.71
436.34	5252.16
436.53	5163.22
436.72	5179.61
436.90	4936.19
437.09	5268.55
437.28	5034.49
437.46	5188.97
437.65	5069.60
437.84	5032.15
438.02	5130.45
438.21	5359.83
438.40	5074.28
438.58	5380.89
438.77	5303.65
438.96	5387.91
439.14	5561.11
439.33	5612.60
439.52	5533.03
439.70	5797.51
439.89	5593.88
440.08	5746.02
440.26	5823.25
440.45	5675.80
440.63	5778.78
440.82	5956.66
441.01	5900.49
441.19	5947.30
441.38	5949.64
441.57	5930.92
441.75	6129.86
441.94	6244.55
442.12	6284.34
442.31	6277.32
442.50	6356.90
442.68	6342.85
442.87	6216.46
443.05	6298.38
443.24	6274.98
443.43	6417.75
443.61	6551.16
443.80	6459.88
443.98	6274.98
444.17	6202.42
444.35	6499.67
444.54	6663.51
444.73	6633.08
444.91	6523.07
445.10	6363.92
445.28	6455.20
445.47	6258.59
445.65	6445.84
445.84	6441.15
446.02	6384.98
446.21	6455.20
446.39	6581.59
446.58	6693.93
446.77	6614.35
446.95	6576.91
447.14	6675.21
447.32	6722.02
447.51	6607.33
447.69	6600.31
447.88	6736.06
448.06	6516.05
448.25	6597.97
448.43	6656.48
448.62	6729.04
448.80	6700.95
448.99	6848.41
449.17	6848.41
449.36	6780.53
449.54	6871.81
449.73	6913.94
449.91	7206.51
450.10	7218.21
450.28	7080.12
450.46	7082.46
450.65	7159.70
450.83	7150.34
451.02	7206.51
451.20	7283.75
451.39	7227.57
451.57	7246.30
451.76	7176.08
451.94	7218.21
452.13	7225.23
452.31	7136.29
452.49	6965.43
452.68	7077.78
452.86	7187.79
453.05	7302.47
453.23	7487.37
453.42	7183.10
453.60	7286.09
453.78	7384.39
453.97	7255.66
454.15	7267.36
454.34	7421.84
454.52	7461.63
454.70	7473.33
454.89	7529.50
455.07	7517.80
455.26	7524.82
455.44	7698.02
455.62	7808.03
455.81	7625.47
455.99	7882.92
456.17	7903.99
456.36	7609.08
456.54	7829.09
456.73	7873.56
456.91	8119.32
457.09	7988.25
457.28	8257.41
457.46	7943.78
457.64	8145.06
457.83	8086.55
458.01	7971.86
458.19	8386.14
458.38	8053.78
458.56	8187.19
458.74	8271.45
458.93	8100.59
459.11	8229.32
459.29	8311.24
459.48	8365.07
459.66	8234.00
459.84	8505.51
460.03	8521.89
460.21	8528.91
460.39	8479.76
460.57	8372.10
460.76	8507.85
460.94	8762.97
461.12	8652.96
461.31	8772.33
461.49	8669.34
461.67	8641.26
461.85	8638.92
462.04	8667.00
462.22	9165.54
462.40	8990.00
462.59	8903.40
462.77	8858.93
462.95	9020.42
463.13	8884.67
463.32	8741.90
463.50	8879.99
463.68	9163.20
463.86	8980.64
464.05	8793.39
464.23	8837.86
464.41	9088.30
464.59	8659.98
464.78	9156.18
464.96	9135.11
465.14	8947.87
465.32	9137.45
465.50	9174.90
465.69	9156.18
465.87	9289.59
466.05	9123.41
466.23	9100.00
466.41	9008.72
466.60	9385.55
466.78	9118.73
466.96	9296.61
467.14	9210.01
467.32	9259.16
467.51	9357.46
467.69	9202.99
467.87	9324.69
468.05	9610.24
468.23	9268.52
468.41	9275.54
468.60	9724.93
468.78	9619.60
468.96	9540.02
469.14	9617.26
469.32	9685.14
469.50	9317.67
469.69	9654.71
469.87	9736.63
470.05	9778.76
470.23	9792.80
470.41	9867.70
470.59	9788.12
470.77	9748.33
470.95	9764.72
471.14	10155.58
471.32	9820.89
471.50	10338.15
471.68	10324.10
471.86	10349.85
472.04	10406.02
472.22	10403.68
472.40	10335.81
472.58	10249.21
472.77	10490.28
472.95	10600.29
473.13	10808.59
473.31	10377.94
473.49	10630.71
473.67	10422.41
473.85	10672.84
474.03	10827.32
474.21	10885.83
474.39	10953.71
474.57	11035.63
474.75	11180.74
474.93	11227.55
475.12	11192.44
475.30	11159.67
475.48	11281.38
475.66	11304.79
475.84	11169.04
476.02	11330.53
476.20	11297.77
476.38	11580.97
476.56	11744.81
476.74	11786.94
476.92	11791.62
477.10	11974.18
477.28	12098.23
477.46	12060.78
477.64	12168.45
477.82	12402.50
478.00	12383.77
478.18	12339.30
478.36	12638.89
478.54	12659.96
478.72	12580.38
478.90	12812.09
479.08	12936.14
479.26	13165.51
479.44	13191.26
479.62	13231.05
479.80	13294.24
479.98	13451.06
480.16	13689.79
480.34	13434.68
480.52	13802.14
480.70	13666.39
480.88	13441.70
481.06	13879.38
481.24	13968.32
481.41	14071.30
481.59	14530.05
481.77	14307.69
481.95	14284.29
482.13	14478.55
482.31	14499.62
482.49	14792.19
482.67	14806.23
482.85	15040.28
483.03	15241.57
483.21	15218.16
483.39	15372.64
483.57	15286.04
483.74	15398.38
483.92	15545.84
484.10	15630.10
484.28	15793.94
484.46	16006.92
484.64	16353.32
484.82	16056.08
485.00	16458.65
485.18	16341.62
485.35	16489.07
485.53	15934.37
485.71	15995.22
485.89	16283.11
486.07	16290.13
486.25	16507.80
486.43	16561.63
486.61	16849.52
486.78	17282.52
486.96	17153.79
487.14	17610.19
487.32	17638.28
487.50	17877.01
487.68	18001.06
487.85	17844.24
488.03	18382.57
488.21	18483.21
488.39	18675.13
488.57	18792.16
488.75	18633.00
488.92	19257.93
489.10	19470.92
489.28	18911.53
489.46	19997.54
489.64	19653.48
489.81	19999.88
489.99	19744.76
490.17	20428.20
490.35	20133.29
490.53	20056.05
490.70	20360.32
490.88	20350.96
491.06	20446.92
491.24	20697.36
491.41	20592.03
491.59	20582.67
491.77	20563.95
491.95	20755.87
492.13	21289.51
492.30	21228.66
492.48	21771.66
492.66	21717.83
492.84	21537.61
493.01	21869.97
493.19	21902.73
493.37	22183.60
493.54	22064.23
493.72	22373.18
493.90	22808.52
494.08	22731.28
494.25	23316.42
494.43	22864.69
494.61	23648.77
494.79	23073.00
494.96	23557.49
495.14	23489.62
495.32	23517.70
495.49	23585.58
495.67	23915.59
495.85	23946.02
496.02	24046.66
496.20	24215.18
496.38	24203.48
496.55	24666.91
496.73	25254.38
496.91	24418.81
497.09	24601.37
497.26	25106.93
497.44	24683.29
497.62	25015.65
497.79	25017.99
497.97	24994.58
498.14	25209.91
498.32	25638.23
498.50	25607.80
498.67	26118.04
498.85	25919.09
499.03	25869.94
499.20	26295.92
499.38	26214.00
499.56	25975.27
499.73	26529.97
499.91	26574.44
500.08	26349.75
500.26	26176.55
500.44	26581.46
500.61	27047.23
500.79	26391.88
500.97	26998.08
501.14	27112.77
501.32	26902.12
501.49	26892.76
501.67	26979.36
501.84	27080.00
502.02	27082.34
502.20	27608.96
502.37	27718.96
502.55	27555.13
502.72	27695.56
502.90	27733.01
503.07	28074.73
503.25	27723.65
503.43	27662.79
503.60	28056.00
503.78	27859.40
503.95	27821.95
504.13	28020.89
504.30	28905.62
504.48	28652.84
504.65	28959.45
504.83	29092.86
505.01	28819.02
505.18	28634.11
505.36	29109.24
505.53	29153.71
505.71	29369.04
505.88	29504.79
506.06	29291.80
506.23	29577.35
506.41	29909.71
506.58	29312.87
506.76	29764.59
506.93	30047.80
507.11	29472.03
507.28	29977.58
507.46	29879.28
507.63	29731.83
507.81	30302.92
507.98	29909.71
508.16	30340.36
508.33	30279.51
508.50	30417.60
508.68	30724.21
508.85	31051.89
509.03	30848.26
509.20	30536.97
509.38	31040.18
509.55	31056.57
509.73	31239.13
509.90	31089.34
510.08	31433.39
510.25	30726.55
510.42	31424.03
510.60	31454.46
510.77	31754.05
510.95	31805.54
511.12	31543.40
511.30	31831.29
511.47	31910.86
511.64	32470.25
511.82	32371.95
511.99	31878.10
512.17	32336.84
512.34	32374.29
512.51	32355.57
512.69	32589.62
512.86	32776.86
513.04	33078.79
513.21	32669.20
513.38	32849.42
513.56	32694.94
513.73	32610.68
513.90	32924.32
514.08	32776.86
514.25	33095.18
514.43	32917.29
514.60	33010.92
514.77	33001.55
514.95	33266.03
515.12	33350.29
515.29	33434.55
515.47	34022.03
515.64	34089.90
515.81	33759.89
515.99	33617.11
516.16	33926.07
516.33	33354.97
516.51	33195.82
516.68	32858.78
516.85	33017.94
517.03	33088.15
517.20	34052.45
517.37	34136.71
517.54	34227.99
517.72	33813.72
517.89	34101.61
518.06	33881.60
518.24	34113.31
518.41	33825.42
518.58	34314.59
518.75	34543.97
518.93	34410.56
519.10	34595.46
519.27	34932.50
519.45	34761.64
519.62	34993.35
519.79	34878.66
519.96	35119.74
520.14	35246.13
520.31	35271.87
520.48	35363.15
520.65	35267.19
520.83	35660.40
521.00	35887.43
521.17	35707.21
521.34	35604.23
521.52	36257.24
521.69	36158.94
521.86	36013.82
522.03	36170.64
522.20	36411.71
522.38	36378.95
522.55	36517.04
522.72	36006.80
522.89	36077.02
523.07	36996.85
523.24	36315.75
523.41	36683.22
523.58	36268.94
523.75	37130.26
523.92	36407.03
524.10	37141.96
524.27	37043.66
524.44	37177.07
524.61	37195.79
524.78	37687.31
524.96	37113.87
525.13	37036.64
525.30	37179.41
525.47	37308.14
525.64	37490.70
525.81	37401.76
525.98	37462.61
526.16	37179.41
526.33	37083.45
526.50	37099.83
526.67	37008.55
526.84	36760.45
527.01	37589.00
527.18	37724.75
527.36	38029.02
527.53	37717.73
527.70	38394.15
527.87	37717.73
528.04	38087.54
528.21	38494.79
528.38	37818.38
528.55	38419.89
528.72	38213.93
528.89	38667.99
529.07	38602.46
529.24	38447.98
529.41	38349.68
529.58	38349.68
529.75	38675.01
529.92	39363.13
530.09	38960.56
530.26	38962.90
530.43	39140.78
530.60	38679.69
530.77	38939.49
530.94	39313.98
531.11	38759.27
531.28	39360.79
531.46	39332.70
531.63	39487.18
531.80	39175.89
531.97	38937.15
532.14	38885.66
532.31	39335.04
532.48	38831.83
532.65	39236.74
532.82	39491.86
532.99	39601.86
533.16	39442.71
533.33	39791.45
533.50	40030.18
533.67	39686.12
533.84	39807.83
534.01	39468.45
534.18	39789.11
534.35	40327.43
534.52	39936.56
534.69	40685.53
534.86	39999.76
535.03	40334.45
535.20	40528.72
535.37	40832.99
535.54	40994.48
535.71	40502.97
535.88	40680.85
536.05	40308.71
536.22	40505.31
536.38	40589.57
536.55	40245.51
536.72	40479.57
536.89	40615.32
537.06	40760.43
537.23	40666.81
537.40	40683.19
537.57	40718.30
537.74	40706.60
537.91	41151.30
538.08	40790.86
538.25	40861.07
538.42	40807.24
538.59	41221.52
538.75	40629.36
538.92	41188.75
539.09	41027.25
539.26	41294.07
539.43	41338.54
539.60	40910.22
539.77	40769.79
539.94	41368.97
540.11	41207.47
540.28	41600.68
540.44	41631.11
540.61	41504.72
540.78	41375.99
540.95	41118.53
541.12	41584.30
541.29	41282.37
541.46	41687.28
541.62	41717.71
541.79	41865.16
541.96	41336.20
542.13	41537.49
542.30	41404.08
542.47	41773.88
542.63	41167.68
542.80	41748.14
542.97	42089.85
543.14	42438.59
543.31	42157.73
543.48	42085.17
543.64	42899.68
543.81	42749.88
543.98	42347.31
544.15	42354.33
544.32	43023.73
544.48	42918.40
544.65	42878.61
544.82	42660.94
544.99	42300.50
545.16	42279.44
545.32	42246.67
545.49	43269.48
545.66	43084.58
545.83	43040.11
546.00	43173.52
546.16	42792.01
546.33	42850.53
546.50	42476.04
546.67	43051.81
546.83	42515.83
547.00	42806.06
547.17	42876.27
547.34	42995.64
547.50	42834.14
547.67	43510.56
547.84	43260.12
548.00	43407.58
548.17	43650.99
548.34	43559.71
548.51	43765.68
548.67	43447.36
548.84	43758.66
549.01	43349.06
549.18	43655.67
549.34	43412.26
549.51	43604.18
549.68	43526.94
549.84	43533.96
550.01	43892.07
550.18	43531.62
550.34	43737.59
550.51	43878.02
550.68	43868.66
550.84	43346.72
551.01	43723.55
551.18	43271.82
551.34	43648.65
551.51	43959.94
551.68	44027.82
551.84	43936.54
552.01	43636.95
552.18	43852.28
552.34	43913.13
552.51	43835.89
552.68	44414.01
552.84	44453.79
553.01	44280.60
553.18	44198.68
553.34	44278.25
553.51	44371.88
553.67	44367.20
553.84	44655.08
554.01	44493.58
554.17	44528.69
554.34	44444.43
554.51	44509.97
554.67	44116.76
554.84	44325.07
555.00	44404.64
555.17	44727.64
555.33	44381.24
555.50	44610.61
555.67	44519.33
555.83	44446.77
556.00	44814.24
556.16	44807.22
556.33	44657.42
556.50	44509.97
556.66	44584.86
556.83	44472.52
556.99	44327.41
557.16	44435.07
557.32	44664.44
557.49	45048.29
557.65	44641.04
557.82	45141.91
557.98	44708.91
558.15	44893.82
558.32	45076.38
558.48	44521.67
558.65	44964.03
558.81	44910.20
558.98	44715.93
559.14	44940.63
559.31	45226.17
559.47	44921.90
559.64	44737.00
559.80	45015.52
559.97	45067.02
560.13	45130.21
560.30	45247.24
560.46	45132.55
560.63	45158.30
560.79	45366.60
560.96	45270.64
561.12	44968.71
561.29	44687.85
561.45	45064.67
561.61	44945.31
561.78	45268.30
561.94	44624.65
562.11	44584.86
562.27	45242.56
562.44	45352.56
562.60	45523.42
562.77	45188.72
562.93	45378.31
563.10	45820.67
563.26	44758.06
563.42	45504.70
563.59	44933.60
563.75	45177.02
563.92	44949.99
564.08	45490.65
564.24	45759.81
564.41	45270.64
564.57	45724.71
564.74	45144.25
564.90	45022.54
565.07	45368.94
565.23	45450.86
565.39	45209.79
565.56	45382.99
565.72	45270.64
565.88	45380.65
566.05	45160.64
566.21	45338.52
566.38	45385.33
566.54	45399.37
566.70	45769.18
566.87	45502.35
567.03	45806.62
567.19	45481.29
567.36	45441.50
567.52	45663.85
567.68	45455.54
567.85	45638.11
568.01	45591.30
568.17	45600.66
568.34	45610.02
568.50	45680.24
568.66	45411.07
568.83	45642.79
568.99	45703.64
569.15	45427.46
569.32	45193.40
569.48	45680.24
569.64	45703.64
569.81	45951.74
569.97	45698.96
570.13	45600.66
570.30	45237.87
570.46	45303.41
570.62	44954.67
570.78	44870.41
570.95	45017.86
571.11	45752.79
571.27	45223.83
571.43	45514.06
571.60	45530.44
571.76	45708.32
571.92	45977.48
572.09	45720.02
572.25	46124.94
572.41	45801.94
572.57	45532.78
572.74	45823.01
572.90	45701.30
573.06	45979.82
573.22	45619.38
573.38	45869.82
573.55	45649.81
573.71	45701.30
573.87	45684.92
574.03	45551.51
574.20	45893.22
574.36	45743.43
574.52	45940.04
574.68	45874.50
574.84	45914.29
575.01	46012.59
575.17	45500.01
575.33	45553.85
575.49	45771.52
575.65	45848.75
575.82	45654.49
575.98	45509.38
576.14	45902.59
576.30	45708.32
576.46	46258.35
576.62	45612.36
576.79	46000.89
576.95	45322.13
577.11	45989.19
577.27	45570.23
577.43	45757.47
577.59	45617.04
577.75	45930.67
577.92	45649.81
578.08	45626.40
578.24	45354.90
578.40	45478.95
578.56	45523.42
578.72	45687.26
578.88	46281.75
579.04	45670.87
579.21	45404.05
579.37	45940.04
579.53	45605.34
579.69	45734.07
579.85	46010.25
580.01	45813.65
580.17	45715.34
580.33	45888.54
580.49	46085.15
580.65	45839.39
580.82	45787.90
580.98	45734.07
581.14	45462.57
581.30	45633.42
581.46	45741.09
581.62	46110.89
581.78	46019.61
581.94	46574.32
582.10	46192.81
582.26	45996.21
582.42	45731.73
582.58	45720.02
582.74	45684.92
582.90	46036.00
583.06	46197.49
583.22	45841.73
583.38	46520.49
583.54	46239.62
583.70	46103.87
583.86	45818.33
584.02	45624.06
584.18	46150.68
584.34	45961.10
584.50	45965.78
584.66	46052.38
584.82	45476.61
584.98	46366.01
585.14	45649.81
585.30	45591.30
585.46	45771.52
585.62	45595.98
585.78	45254.26
585.94	45928.33
586.10	45518.74
586.26	45638.11
586.42	45687.26
586.58	46171.75
586.74	45797.26
586.90	45682.58
587.06	45862.80
587.22	45909.61
587.38	46005.57
587.54	45935.35
587.70	45848.75
587.86	45923.65
588.02	45993.87
588.18	46068.76
588.34	45935.35
588.49	45366.60
588.65	45588.95
588.81	45612.36
588.97	45446.18
589.13	45170.00
589.29	45450.86
589.45	45766.84
589.61	45815.99
589.77	45617.04
589.93	46176.43
590.08	45848.75
590.24	46333.24
590.40	45925.99
590.56	46316.86
590.72	46321.54
590.88	45750.45
591.04	45731.73
591.20	46410.48
591.35	46127.28
591.51	46223.24
591.67	45792.58
591.83	45851.09
591.99	45610.02
592.15	45729.39
592.31	45750.45
592.46	46232.60
592.62	46024.29
592.78	46124.94
592.94	45918.97
593.10	46000.89
593.26	46277.07
593.41	46387.08
593.57	46057.06
593.73	45783.22
593.89	46160.05
594.05	46136.64
594.20	45834.71
594.36	46082.81
594.52	46153.02
594.68	46148.34
594.84	46225.58
594.99	46520.49
595.15	45827.69
595.31	46256.01
595.47	45963.44
595.62	46096.85
595.78	46167.07
595.94	45921.31
596.10	46412.82
596.25	46277.07
596.41	46057.06
596.57	45921.31
596.73	45853.44
596.88	46202.18
597.04	46028.98
597.20	46143.66
597.36	46351.97
597.51	46174.09
597.67	46241.96
597.83	46059.40
597.99	45998.55
598.14	45907.27
598.30	46007.91
598.46	46227.92
598.61	46256.01
598.77	45858.12
598.93	45907.27
599.09	46138.98
599.24	46260.69
599.40	46094.51
599.56	46113.23
599.71	45972.80
599.87	46419.84
600.03	46054.72
600.18	45846.41
600.34	46040.68
600.50	45916.63
600.65	45867.48
600.81	46117.92
600.97	46220.90
601.12	46286.43
601.28	46007.91
601.44	45624.06
601.59	46103.87
601.75	45872.16
601.91	46071.10
602.06	45652.15
602.22	46244.30
602.37	46483.04
602.53	46005.57
602.69	46038.34
602.84	45759.81
603.00	45872.16
603.16	45801.94
603.31	45841.73
603.47	46071.10
603.62	45361.92
603.78	45839.39
603.94	46185.79
604.09	46326.22
604.25	46115.58
604.40	46120.26
604.56	46014.93
604.71	45841.73
604.87	45546.82
605.03	45947.06
605.18	45858.12
605.34	46195.15
605.49	45619.38
605.65	45893.22
605.80	45682.58
605.96	46153.02
606.12	45918.97
606.27	46162.39
606.43	45579.59
606.58	45848.75
606.74	45748.11
606.89	45832.37
607.05	46054.72
607.20	45565.55
607.36	46019.61
607.51	45993.87
607.67	45986.85
607.82	45764.49
607.98	45591.30
608.13	45851.09
608.29	45425.12
608.44	45516.40
608.60	45165.32
608.75	45511.72
608.91	45619.38
609.06	45289.37
609.22	45518.74
609.37	45528.10
609.53	45670.87
609.68	45675.55
609.84	45556.19
609.99	45181.70
610.15	45270.64
610.30	45249.58
610.46	45191.06
610.61	45446.18
610.76	45497.67
610.92	45455.54
611.07	45558.53
611.23	45450.86
611.38	45296.39
611.54	45085.74
611.69	45343.20
611.84	44863.39
612.00	45427.46
612.15	45111.49
612.31	45221.49
612.46	45298.73
612.62	45181.70
612.77	44999.14
612.92	45069.36
613.08	44842.32
613.23	45015.52
613.39	44638.70
613.54	44678.49
613.69	44715.93
613.85	44690.19
614.00	44900.84
614.15	45001.48
614.31	44973.39
614.46	45148.93
614.62	44734.66
614.77	44982.76
614.92	44821.26
615.08	44566.14
615.23	45034.25
615.38	44659.76
615.54	44626.99
615.69	44561.46
615.84	44191.65
616.00	44910.20
616.15	44608.27
616.30	44650.40
616.46	44636.36
616.61	44189.31
616.76	44367.20
616.92	44144.84
617.07	44446.77
617.22	44362.51
617.37	44186.97
617.53	44800.19
617.68	44250.17
617.83	43845.26
617.99	44425.71
618.14	44299.32
618.29	44011.43
618.45	44060.58
618.60	44142.50
618.75	44135.48
618.90	43723.55
619.06	43966.96
619.21	44217.40
619.36	44304.00
619.51	43849.94
619.67	43634.61
619.82	44287.62
619.97	43938.88
620.12	43674.40
620.28	43632.27
620.43	43833.55
620.58	43859.30
620.73	43555.03
620.89	43599.50
621.04	44083.99
621.19	43938.88
621.34	44055.90
621.49	43550.35
621.65	43629.93
621.80	43849.94
621.95	43718.87
622.10	43433.32
622.25	43770.36
622.41	43775.04
622.56	43679.08
622.71	43597.16
622.86	43267.14
623.01	43526.94
623.16	43866.32
623.32	43372.47
623.47	43175.86
623.62	43194.59
623.77	43737.59
623.92	43283.53
624.07	42972.24
624.23	42916.06
624.38	43311.61
624.53	43136.07
624.68	43428.64
624.83	43150.12
624.98	43005.00
625.13	42976.92
625.29	43145.44
625.44	43117.35
625.59	42834.14
625.74	42618.81
625.89	42401.14
626.04	43023.73
626.19	42513.49
626.34	43065.86
626.49	42609.45
626.65	42497.11
626.80	42902.02
626.95	42646.90
627.10	42670.31
627.25	41970.49
627.40	42597.75
627.55	42291.14
627.70	42302.84
627.85	42401.14
628.00	42548.60
628.15	42876.27
628.30	42513.49
628.45	42508.81
628.60	42412.85
628.76	42527.53
628.91	42183.48
629.06	42150.71
629.21	42244.33
629.36	42284.12
629.51	42335.61
629.66	42110.92
629.81	41916.65
629.96	42148.37
630.11	41928.36
630.26	41975.17
630.41	41853.46
630.56	41874.52
630.71	42066.45
630.86	42347.31
631.01	41752.82
631.16	41832.39
631.31	41546.85
631.46	41858.14
631.61	41776.22
631.76	41757.50
631.91	41853.46
632.06	41902.61
632.21	41633.45
632.36	41280.03
632.51	41357.27
632.66	41787.92
632.81	41434.50
632.96	41883.89
633.10	41621.75
633.25	41642.81
633.40	41586.64
633.55	41511.74
633.70	41478.97
633.85	41532.81
634.00	41390.03
634.15	41790.27
634.30	41060.02
634.45	41322.16
634.60	41450.89
634.75	40861.07
634.90	40861.07
635.05	41155.98
635.19	41174.70
635.34	41813.67
635.49	41240.24
635.64	40931.29
635.79	41209.81
635.94	40786.18
636.09	40755.75
636.24	41240.24
636.39	40524.04
636.53	41057.68
636.68	40701.92
636.83	40758.09
636.98	40975.76
637.13	41071.72
637.28	41521.10
637.43	40666.81
637.57	40704.26
637.72	40940.65
637.87	41053.00
638.02	40942.99
638.17	40481.91
638.32	41177.04
638.46	40266.58
638.61	40470.20
638.76	40135.51
638.91	40414.03
639.06	40603.61
639.20	41109.17
639.35	40870.43
639.50	40444.46
639.65	40584.89
639.80	40526.38
639.94	40470.20
640.09	40772.13
640.24	40325.09
640.39	40407.01
640.54	40088.70
640.68	39754.00
640.83	40231.47
640.98	39838.26
641.13	39784.43
641.27	39910.82
641.42	40039.54
641.57	39826.56
641.72	40437.44
641.86	39887.41
642.01	39803.15
642.16	39948.26
642.31	39356.11
642.45	39866.34
642.60	39559.73
642.75	39908.47
642.90	40095.72
643.04	40318.07
643.19	39887.41
643.34	39945.92
643.48	39704.85
643.63	39482.50
643.78	39789.11
643.93	39442.71
644.07	39562.08
644.22	39398.24
644.37	39330.36
644.51	39517.60
644.66	39995.07
644.81	39768.04
644.95	39531.65
645.10	39220.36
645.25	39557.39
645.39	39599.52
645.54	38934.81
645.69	39489.52
645.83	39210.99
645.98	38888.00
646.13	38939.49
646.27	39147.80
646.42	38787.36
646.57	39473.13
646.71	38857.57
646.86	39700.17
647.00	38759.27
647.15	39234.40
647.30	38754.59
647.44	39262.49
647.59	38822.47
647.74	38848.21
647.88	38934.81
648.03	39077.58
648.17	38983.96
648.32	38794.38
648.47	38876.30
648.61	38520.54
648.76	39007.37
648.90	38785.02
649.05	38438.62
649.20	38541.60
649.34	39138.44
649.49	38387.13
649.63	38733.53
649.78	38735.87
649.92	38569.69
650.07	38480.75
650.21	38164.78
650.36	38609.48
650.51	38553.30
650.65	39023.75
650.80	39262.49
650.94	38431.60
651.09	38548.62
651.23	38345.00
651.38	37759.86
651.52	37890.93
651.67	37717.73
651.81	37832.42
651.96	37766.88
652.10	38305.21
652.25	38143.71
652.39	38319.25
652.54	38263.08
652.68	37968.17
652.83	38150.73
652.97	38574.37
653.12	38258.40
653.26	37626.45
653.41	37928.38
653.55	38253.72
653.70	37790.29
653.84	37998.60
653.99	37914.34
654.13	37975.19
654.27	37570.28
654.42	37879.23
654.56	37907.32
654.71	37579.64
654.85	37677.94
655.00	37801.99
655.14	37387.72
655.29	37237.92
655.43	37514.11
655.57	36755.77
655.72	37088.13
655.86	36893.86
656.01	37067.06
656.15	36477.25
656.30	37191.11
656.44	36933.65
656.58	37053.02
656.73	37432.19
656.87	36790.88
657.01	36844.71
657.16	37116.22
657.30	36825.99
657.45	37022.59
657.59	36802.58
657.73	37345.59
657.88	37062.38
658.02	36856.42
658.16	36835.35
658.31	37268.35
658.45	37017.91
658.60	36751.09
658.74	36907.91
658.88	36973.44
659.03	36374.27
659.17	36172.98
659.31	36678.54
659.46	36229.15
659.60	36327.45
659.74	36308.73
659.89	36271.28
660.03	36273.62
660.17	36594.28
660.32	36039.57
660.46	36086.38
660.60	36456.18
660.74	36058.29
660.89	36400.01
661.03	36229.15
661.17	35971.69
661.32	36037.23
661.46	36425.76
661.60	35665.08
661.74	35761.05
661.89	35770.41
662.03	35805.52
662.17	35503.59
662.31	35637.00
662.46	36205.75
662.60	36121.49
662.74	35751.68
662.88	35321.02
663.03	35618.27
663.17	35372.52
663.31	35056.54
663.45	35475.50
663.60	35138.46
663.74	35367.84
663.88	35372.52
664.02	34904.41
664.17	35386.56
664.31	35168.89
664.45	35232.08
664.59	35051.86
664.73	34838.87
664.88	35072.93
665.02	33858.19
665.16	34572.05
665.30	34422.26
665.44	34199.91
665.59	34450.35
665.73	34691.42
665.87	34785.04
666.01	34408.22
666.15	34387.15
666.29	34230.33
666.44	34169.48
666.58	34394.17
666.72	34417.58
666.86	34398.85
667.00	34132.03
667.14	33902.66
667.28	34242.04
667.43	34368.43
667.57	34057.14
667.71	33680.31
667.85	33890.96
667.99	33968.19
668.13	33982.24
668.27	33696.69
668.41	33841.81
668.56	33553.92
668.70	33628.82
668.84	33441.57
668.98	33287.10
669.12	33106.88
669.26	33226.24
669.40	33006.23
669.54	33048.36
669.68	32823.67
669.82	32725.37
669.96	32968.79
670.10	32854.10
670.25	33076.45
670.39	32933.68
670.53	32655.15
670.67	33132.62
670.81	32465.57
670.95	32589.62
671.09	32510.04
671.23	32435.14
671.37	32416.42
671.51	32414.08
671.65	32109.81
671.79	31924.91
671.93	31679.15
672.07	31763.41
672.21	31695.53
672.35	31674.47
672.49	31969.38
672.63	31768.09
672.77	31831.29
672.91	32100.45
673.05	31615.96
673.19	31571.49
673.33	31569.15
673.47	31548.08
673.61	31288.28
673.75	30946.56
673.89	31103.38
674.03	31302.32
674.17	31276.58
674.31	31255.51
674.45	30885.71
674.59	30979.33
674.73	31264.88
674.87	30934.86
675.01	30778.04
675.15	30747.62
675.29	30288.87
675.43	30298.23
675.56	30644.63
675.70	30462.07
675.84	30401.22
675.98	29460.32
676.12	29886.30
676.26	30574.42
676.40	30260.79
676.54	30036.09
676.68	29848.85
676.82	29439.26
676.96	30082.91
677.10	29507.13
677.23	29486.07
677.37	29369.04
677.51	29392.45
677.65	29603.10
677.79	28774.55
677.93	28662.20
678.07	28870.51
678.21	28388.36
678.34	28371.97
678.48	28158.99
678.62	28020.89
678.76	28362.61
678.90	27868.76
679.04	27857.06
679.18	28407.08
679.31	27899.19
679.45	27730.67
679.59	27887.48
679.73	27899.19
679.87	28002.17
680.00	27580.87
680.14	27946.00
680.28	27686.20
680.42	26874.03
680.56	27501.29
680.70	27431.08
680.83	27213.41
680.97	26995.74
681.11	27300.01
681.25	27103.40
681.39	26658.70
681.52	26925.52
681.66	26548.70
681.80	26483.16
681.94	26476.14
682.07	26319.32
682.21	26553.38
682.35	26398.90
682.49	25970.58
682.62	26298.26
682.76	26001.01
682.90	26043.14
683.04	26389.54
683.17	25429.92
683.31	25336.30
683.45	25502.48
683.59	25518.86
683.72	25450.99
683.86	25565.67
684.00	25029.69
684.13	24683.29
684.27	24641.16
684.41	24833.08
684.55	24748.82
684.68	24865.85
684.82	24489.03
684.96	24748.82
685.09	24835.42
685.23	24477.32
685.37	24716.06
685.50	24484.34
685.64	24292.42
685.78	24224.54
685.91	24364.98
686.05	24142.63
686.19	23487.28
686.32	23440.47
686.46	23253.22
686.60	23257.90
686.73	23168.96
686.87	22955.97
687.01	23175.98
687.14	23019.17
687.28	22745.33
687.42	22581.49
687.55	23012.15
687.69	23126.83
687.82	22913.84
687.96	22618.94
688.10	22485.53
688.23	22726.60
688.37	22309.99
688.50	22412.97
688.64	22237.43
688.78	22143.81
688.91	22029.12
689.05	21759.96
689.18	21729.53
689.32	21593.78
689.46	21942.52
689.59	21944.86
689.73	22089.98
689.86	21488.46
690.00	21549.31
690.13	21696.77
690.27	21268.45
690.41	21387.82
690.54	20903.32
690.68	21008.65
690.81	21022.69
690.95	20816.72
691.08	21057.80
691.22	21027.37
691.35	20854.17
691.49	20568.63
691.62	20814.38
691.76	20423.51
691.89	20290.10
692.03	20360.32
692.16	20517.14
692.30	20203.50
692.43	20470.33
692.57	19946.05
692.70	19878.17
692.84	19906.26
692.97	19700.29
693.11	19529.43
693.24	19452.19
693.38	19576.24
693.51	19356.23
693.65	19264.95
693.78	19442.83
693.92	19335.17
694.05	19295.38
694.19	19400.70
694.32	19023.87
694.45	19246.23
694.59	18824.93
694.72	18881.10
694.86	18829.61
694.99	18539.38
695.13	18775.78
695.26	18728.97
695.39	18607.26
695.53	18408.31
695.66	18492.57
695.80	18171.92
695.93	17994.04
696.07	17923.82
696.20	17923.82
696.33	18015.10
696.47	17841.90
696.60	17764.67
696.73	17738.92
696.87	17518.91
697.00	17642.96
697.14	17261.45
697.27	17350.39
697.40	17359.75
697.54	17268.47
697.67	17266.13
697.80	17109.32
697.94	16912.71
698.07	17069.53
698.21	16776.96
698.34	16629.51
698.47	16989.95
698.61	16430.56
698.74	16659.93
698.87	16681.00
699.01	16187.14
699.14	16421.20
699.27	16346.30
699.40	16311.19
699.54	16226.93
699.67	15882.88
699.80	15997.56
699.94	15903.94
700.07	15960.11
700.20	16133.31
700.34	15939.05
700.47	15676.91
700.60	15819.68
700.73	15559.88
700.87	15683.93
701.00	15454.56
701.13	15534.14
701.26	15150.29
701.40	15180.71
701.53	15042.62
701.66	14944.32
701.79	14927.94
701.93	14937.30
702.06	14960.70
702.19	14831.97
702.32	14707.93
702.46	14831.97
702.59	14836.66
702.72	14792.19
702.85	14471.53
702.99	14541.75
703.12	14251.52
703.25	14483.24
703.38	14305.35
703.51	14190.67
703.65	14370.89
703.78	13750.65
703.91	13846.61
704.04	13935.55
704.17	13947.25
704.31	13881.72
704.44	13717.88
704.57	13633.62
704.70	13867.67
704.83	13481.49
704.96	13497.87
705.10	13280.20
705.23	13444.04
>>>>>End Processed Spectral Data<<<<<
