SpectraSuite Data File
++++++++++++++++++++++++++++++++++++
Date: Fri Oct 25 10:47:43 EDT 2013
User: price-jones
Dark Spectrum Present: No
Reference Spectrum Present: No
Number of Sampled Component Spectra: 1
Spectrometers: USB2+H05261
Integration Time (usec): 100000 (USB2+H05261)
Spectra Averaged: 1 (USB2+H05261)
Boxcar Smoothing: 0 (USB2+H05261)
Correct for Electrical Dark: No (USB2+H05261)
Strobe/Lamp Enabled: No (USB2+H05261)
Correct for Detector Non-linearity: No (USB2+H05261)
Correct for Stray Light: No (USB2+H05261)
Number of Pixels in Processed Spectrum: 2048
>>>>>Begin Processed Spectral Data<<<<<
365.73	173.20
365.92	173.20
366.12	173.20
366.32	44.47
366.52	32.77
366.72	56.17
366.91	2.34
367.11	14.04
367.31	23.41
367.51	63.19
367.70	42.13
367.90	51.49
368.10	0.00
368.30	25.75
368.49	49.15
368.69	138.09
368.89	81.92
369.09	60.85
369.28	88.94
369.48	98.30
369.68	63.19
369.87	105.32
370.07	67.88
370.27	131.07
370.47	231.71
370.66	376.83
370.86	327.68
371.06	440.02
371.25	486.83
371.45	440.02
371.65	454.06
371.84	400.23
372.04	376.83
372.24	461.09
372.44	533.64
372.63	416.62
372.83	461.09
373.03	444.70
373.22	512.58
373.42	568.75
373.62	580.45
373.81	538.32
374.01	486.83
374.21	517.26
374.40	552.37
374.60	526.62
374.79	531.30
374.99	580.45
375.19	575.77
375.38	671.73
375.58	517.26
375.78	568.75
375.97	564.07
376.17	517.26
376.37	559.39
376.56	566.41
376.76	592.16
376.95	545.34
377.15	599.18
377.35	716.20
377.54	552.37
377.74	521.94
377.93	568.75
378.13	545.34
378.33	594.50
378.52	498.53
378.72	638.97
378.91	587.47
379.11	620.24
379.31	608.54
379.50	594.50
379.70	653.01
379.89	634.29
380.09	685.78
380.28	638.97
380.48	578.11
380.68	645.99
380.87	653.01
381.07	692.80
381.26	613.22
381.46	648.33
381.65	702.16
381.85	674.07
382.04	667.05
382.24	641.31
382.43	650.67
382.63	615.56
382.83	692.80
383.02	805.14
383.22	692.80
383.41	840.25
383.61	702.16
383.80	720.88
384.00	681.10
384.19	683.44
384.39	699.82
384.58	786.42
384.78	739.61
384.97	821.53
385.17	734.93
385.36	788.76
385.56	777.06
385.75	786.42
385.95	746.63
386.14	777.06
386.34	760.67
386.53	828.55
386.72	774.72
386.92	889.40
387.11	800.46
387.31	842.59
387.50	788.76
387.70	894.08
387.89	823.87
388.09	821.53
388.28	866.00
388.48	873.02
388.67	875.36
388.86	858.98
389.06	828.55
389.25	908.13
389.45	823.87
389.64	905.79
389.84	910.47
390.03	992.39
390.22	875.36
390.42	837.91
390.61	933.87
390.81	957.28
391.00	954.94
391.19	833.23
391.39	922.17
391.58	947.92
391.78	954.94
391.97	1013.45
392.16	912.81
392.36	968.98
392.55	896.43
392.75	889.40
392.94	924.51
393.13	957.28
393.33	936.21
393.52	1015.79
393.71	985.37
393.91	997.07
394.10	992.39
394.29	1104.73
394.49	1151.54
394.68	1034.52
394.88	1041.54
395.07	1046.22
395.26	1111.75
395.46	1060.26
395.65	1156.22
395.84	1116.44
396.04	1146.86
396.23	1118.78
396.42	1137.50
396.62	1048.56
396.81	1128.14
397.00	1109.41
397.19	1132.82
397.39	1107.07
397.58	1226.44
397.77	1163.25
397.97	1228.78
398.16	1245.16
398.35	1324.74
398.55	1193.67
398.74	1296.66
398.93	1376.24
399.12	1284.95
399.32	1404.32
399.51	1275.59
399.70	1404.32
399.90	1366.87
400.09	1390.28
400.28	1409.00
400.47	1231.12
400.67	1357.51
400.86	1425.39
401.05	1437.09
401.24	1472.20
401.44	1390.28
401.63	1432.41
401.82	1411.34
402.01	1380.92
402.21	1533.05
402.40	1554.12
402.59	1528.37
402.78	1486.24
402.97	1509.65
403.17	1528.37
403.36	1603.27
403.55	1706.25
403.74	1636.03
403.93	1540.07
404.13	1633.69
404.32	1579.86
404.51	1643.06
404.70	1600.93
404.89	1645.40
405.09	1621.99
405.28	1732.00
405.47	1685.19
405.66	1710.93
405.85	1678.16
406.05	1715.61
406.24	1757.74
406.43	1708.59
406.62	1900.52
406.81	1750.72
407.00	1785.83
407.20	1811.57
407.39	1823.28
407.58	1902.86
407.77	1846.68
407.96	1921.58
408.15	1919.24
408.34	2008.18
408.54	1942.64
408.73	2029.24
408.92	2101.80
409.11	2031.58
409.30	1970.73
409.49	2005.84
409.68	2005.84
409.87	1998.82
410.07	1940.30
410.26	2069.03
410.45	2062.01
410.64	2153.29
410.83	2104.14
411.02	2150.95
411.21	2251.60
411.40	2193.08
411.59	2265.64
411.78	2260.96
411.98	2230.53
412.17	2436.50
412.36	2340.54
412.55	2317.13
412.74	2420.11
412.93	2424.80
413.12	2284.36
413.31	2541.82
413.50	2555.86
413.69	2581.61
413.88	2670.55
414.07	2548.84
414.26	2612.04
414.45	2544.16
414.64	2555.86
414.83	2612.04
415.02	2558.21
415.22	2684.59
415.41	2761.83
415.60	2796.94
415.79	2722.04
415.98	2867.16
416.17	2764.17
416.36	2778.22
416.55	2951.42
416.74	2885.88
416.93	2818.00
417.12	2991.20
417.31	2960.78
417.50	2916.31
417.69	3073.12
417.88	2977.16
418.07	2972.48
418.26	3026.31
418.45	3084.83
418.64	2972.48
418.83	3211.22
419.02	3122.27
419.21	3201.85
419.39	3204.19
419.58	3215.90
419.77	3101.21
419.96	3318.88
420.15	3166.74
420.34	3330.58
420.53	3185.47
420.72	3297.81
420.91	3325.90
421.10	3384.41
421.29	3309.52
421.48	3358.67
421.67	3428.88
421.86	3375.05
422.05	3440.59
422.24	3346.97
422.43	3456.97
422.61	3435.91
422.80	3403.14
422.99	3473.36
423.18	3482.72
423.37	3578.68
423.56	3438.25
423.75	3475.70
423.94	3574.00
424.13	3403.14
424.32	3368.03
424.50	3569.32
424.69	3492.08
424.88	3611.45
425.07	3459.31
425.26	3475.70
425.45	3428.88
425.64	3545.91
425.83	3384.41
426.01	3616.13
426.20	3648.90
426.39	3520.17
426.58	3592.72
426.77	3515.48
426.96	3588.04
427.15	3637.19
427.33	3508.46
427.52	3660.60
427.71	3770.60
427.90	3611.45
428.09	3620.81
428.28	3644.21
428.46	3588.04
428.65	3789.33
428.84	3845.50
429.03	3875.93
429.22	3630.17
429.40	3819.75
429.59	3707.41
429.78	3662.94
429.97	3646.55
430.16	3684.00
430.34	3971.89
430.53	4046.79
430.72	3791.67
430.91	3786.99
431.10	3997.64
431.28	4004.66
431.47	4168.49
431.66	4100.62
431.85	3960.19
432.03	4018.70
432.22	4159.13
432.41	4077.21
432.60	4077.21
432.79	4229.35
432.97	4325.31
433.16	4301.90
433.35	4095.94
433.54	4257.43
433.72	4262.12
433.91	4189.56
434.10	4287.86
434.28	4191.90
434.47	4292.54
434.66	4339.35
434.85	4327.65
435.03	4531.28
435.22	4322.97
435.41	4629.58
435.59	4550.00
435.78	4573.41
435.97	4613.20
436.16	4423.61
436.34	4486.81
436.53	4571.07
436.72	4533.62
436.90	4475.10
437.09	4634.26
437.28	4444.68
437.46	4645.96
437.65	4526.60
437.84	4662.35
438.02	4592.13
438.21	4809.80
438.40	4627.24
438.58	4786.40
438.77	4849.59
438.96	4926.83
439.14	4830.87
439.33	4903.42
439.52	5050.88
439.70	5130.45
439.89	5128.11
440.08	5095.35
440.26	5170.24
440.45	5277.91
440.63	5217.05
440.82	5320.04
441.01	5369.19
441.19	5404.30
441.38	5427.70
441.57	5455.79
441.75	5324.72
441.94	5614.95
442.12	5516.64
442.31	5624.31
442.50	5565.79
442.68	5654.73
442.87	5603.24
443.05	5764.74
443.24	5720.27
443.43	5816.23
443.61	5671.12
443.80	5820.91
443.98	5668.78
444.17	5521.32
444.35	5654.73
444.54	5914.53
444.73	5991.77
444.91	5694.52
445.10	5804.53
445.28	5797.51
445.47	5661.76
445.65	5753.04
445.84	5888.79
446.02	5841.98
446.21	5774.10
446.39	5863.04
446.58	5858.36
446.77	5937.94
446.95	5673.46
447.14	5907.51
447.32	5970.71
447.51	5905.17
447.69	5909.85
447.88	5961.34
448.06	6045.60
448.25	5998.79
448.43	5982.41
448.62	6064.33
448.80	5886.45
448.99	6045.60
449.17	6246.89
449.36	6111.14
449.54	6218.80
449.73	6244.55
449.91	6204.76
450.10	6214.12
450.28	6469.24
450.46	6492.65
450.65	6286.68
450.83	6399.02
451.02	6289.02
451.20	6436.47
451.39	6506.69
451.57	6459.88
451.76	6361.58
451.94	6399.02
452.13	6534.78
452.31	6459.88
452.49	6445.84
452.68	6366.26
452.86	6471.58
453.05	6560.52
453.23	6544.14
453.42	6569.88
453.60	6637.76
453.78	6537.12
453.97	6595.63
454.15	6476.26
454.34	6703.29
454.52	6640.10
454.70	6628.40
454.89	6661.16
455.07	6796.92
455.26	6864.79
455.44	6663.51
455.62	6848.41
455.81	6869.47
455.99	7098.84
456.17	7096.50
456.36	7021.61
456.54	7265.02
456.73	6958.41
456.91	7192.47
457.09	7293.11
457.28	7360.98
457.46	7119.91
457.64	7307.15
457.83	7204.17
458.01	6998.20
458.19	7218.21
458.38	7250.98
458.56	7321.20
458.74	7213.53
458.93	7265.02
459.11	7335.24
459.29	7335.24
459.48	7386.73
459.66	7389.07
459.84	7503.76
460.03	7576.31
460.21	7578.65
460.39	7534.18
460.57	7452.27
460.76	7616.10
460.94	7822.07
461.12	7590.36
461.31	7765.90
461.49	7672.28
461.67	7691.00
461.85	7875.90
462.04	7754.19
462.22	8168.47
462.40	7936.76
462.59	7782.28
462.77	7985.91
462.95	7903.99
463.13	7812.71
463.32	7882.92
463.50	7971.86
463.68	8107.62
463.86	8135.70
464.05	7999.95
464.23	8013.99
464.41	8177.83
464.59	7981.23
464.78	8355.71
464.96	8063.15
465.14	8074.85
465.32	8404.86
465.50	8336.99
465.69	8327.63
465.87	8194.22
466.05	8276.13
466.23	8332.31
466.41	8255.07
466.60	8318.26
466.78	8374.44
466.96	8208.26
467.14	8255.07
467.32	8332.31
467.51	8521.89
467.69	8042.08
467.87	8468.06
468.05	8470.40
468.23	8444.65
468.41	8454.02
468.60	8540.61
468.78	8571.04
468.96	8388.48
469.14	8835.52
469.32	8739.56
469.50	8631.90
469.69	8952.55
469.87	8823.82
470.05	8720.84
470.23	8891.70
470.41	8821.48
470.59	8982.98
470.77	8889.35
470.95	8877.65
471.14	9207.67
471.32	9025.11
471.50	9200.65
471.68	9350.44
471.86	9102.34
472.04	9413.63
472.22	9544.70
472.40	9212.35
472.58	9359.80
472.77	9458.10
472.95	9320.01
473.13	9933.23
473.31	9420.66
473.49	9476.83
473.67	9324.69
473.85	9699.18
474.03	9696.84
474.21	9764.72
474.39	9989.41
474.57	9858.34
474.75	10019.83
474.93	10001.11
475.12	10279.63
475.30	10113.45
475.48	10104.09
475.66	10267.93
475.84	10136.86
476.02	10104.09
476.20	10249.21
476.38	10413.04
476.56	10757.10
476.74	10640.08
476.92	10494.96
477.10	10832.00
477.28	10876.47
477.46	10806.25
477.64	10995.84
477.82	11190.10
478.00	11274.36
478.18	11171.38
478.36	11119.89
478.54	11321.17
478.72	11534.16
478.90	11681.61
479.08	11637.14
479.26	11683.95
479.44	11754.17
479.62	11957.80
479.80	11798.64
479.98	12187.17
480.16	12297.17
480.34	12173.13
480.52	12688.04
480.70	12367.39
480.88	12255.04
481.06	12568.68
481.24	12615.49
481.41	12734.85
481.59	13137.43
481.77	12833.16
481.95	13149.13
482.13	13275.52
482.31	13132.75
482.49	13308.29
482.67	13518.93
482.85	13635.96
483.03	13832.57
483.21	13862.99
483.39	13867.67
483.57	13949.59
483.74	13888.74
483.92	14157.90
484.10	13996.40
484.28	14455.15
484.46	14413.02
484.64	14675.16
484.82	14508.98
485.00	14822.61
485.18	14864.74
485.35	15330.51
485.53	15002.83
485.71	14916.23
485.89	15365.62
486.07	15192.42
486.25	15063.69
486.43	15501.37
486.61	15442.85
486.78	15798.62
486.96	15967.13
487.14	16133.31
487.32	16311.19
487.50	16418.86
487.68	16416.52
487.85	16805.05
488.03	16875.26
488.21	17186.55
488.39	17198.26
488.57	17184.21
488.75	17022.72
488.92	17291.88
489.10	17649.98
489.28	17465.08
489.46	17804.46
489.64	17603.17
489.81	18155.54
489.99	18106.38
490.17	18263.20
490.35	18319.37
490.53	18380.23
490.70	18759.39
490.88	18450.44
491.06	19154.94
491.24	19089.41
491.41	18806.20
491.59	18965.36
491.77	19028.56
491.95	19208.78
492.13	19531.77
492.30	19798.59
492.48	19740.08
492.66	19786.89
492.84	19690.93
493.01	19772.85
493.19	19936.68
493.37	20360.32
493.54	20657.57
493.72	20664.59
493.90	20388.41
494.08	20994.61
494.25	20905.66
494.43	20940.77
494.61	21348.03
494.79	21294.19
494.96	21273.13
495.14	21287.17
495.32	21458.03
495.49	21909.75
495.67	21951.88
495.85	21958.91
496.02	21837.20
496.20	22106.36
496.38	22082.95
496.55	22473.82
496.73	22604.89
496.91	22368.50
497.09	22515.95
497.26	22682.13
497.44	22850.65
497.62	22827.24
497.79	23419.40
497.97	23037.89
498.14	23367.91
498.32	23618.35
498.50	23440.47
498.67	23772.82
498.85	23782.18
499.03	24046.66
499.20	24006.87
499.38	23960.06
499.56	24367.32
499.73	24336.89
499.91	24203.48
500.08	24549.88
500.26	24271.36
500.44	24467.96
500.61	24744.14
500.79	24350.93
500.97	24893.94
501.14	25195.87
501.32	25067.14
501.49	25160.76
501.67	25156.08
501.84	25270.76
502.02	25319.92
502.20	25408.86
502.37	25397.15
502.55	25539.93
502.72	25612.48
502.90	25593.76
503.07	25825.47
503.25	25841.85
503.43	25591.42
503.60	26115.70
503.78	26380.18
503.95	26258.47
504.13	26387.20
504.30	26452.73
504.48	26403.58
504.65	26536.99
504.83	26742.96
505.01	26927.86
505.18	26789.77
505.36	27077.66
505.53	26820.20
505.71	27222.77
505.88	26874.03
506.06	27063.61
506.23	27206.39
506.41	27021.48
506.58	27339.80
506.76	27412.35
506.93	27557.47
507.11	27615.98
507.28	27641.73
507.46	27381.93
507.63	27861.74
507.81	28013.87
507.98	27784.50
508.16	28114.52
508.33	28280.69
508.50	28191.75
508.68	28540.49
508.85	28517.09
509.03	28547.51
509.20	28505.38
509.38	29024.98
509.55	28631.77
509.73	28854.12
509.90	28922.00
510.08	28772.21
510.25	28931.36
510.42	28952.43
510.60	29507.13
510.77	29369.04
510.95	29766.93
511.12	29764.59
511.30	29645.23
511.47	29914.39
511.64	29806.72
511.82	30059.50
511.99	29682.67
512.17	30359.09
512.34	29811.40
512.51	30120.35
512.69	30452.71
512.86	30164.82
513.04	30417.60
513.21	30319.30
513.38	30583.78
513.56	30595.48
513.73	30485.48
513.90	30824.86
514.08	30607.19
514.25	30700.81
514.43	30822.51
514.60	30955.93
514.77	30808.47
514.95	30944.22
515.12	31166.57
515.29	31199.34
515.47	31311.69
515.64	31660.43
515.81	31388.92
515.99	31414.67
516.16	31295.30
516.33	31929.59
516.51	31325.73
516.68	31248.49
516.85	31276.58
517.03	31667.45
517.20	31683.83
517.37	31674.47
517.54	32322.80
517.72	31721.28
517.89	31964.70
518.06	32481.95
518.24	32039.59
518.41	32336.84
518.58	32180.03
518.75	32292.37
518.93	32547.49
519.10	32648.13
519.27	32395.35
519.45	32954.74
519.62	33067.09
519.79	32971.13
519.96	33008.58
520.14	33579.67
520.31	33207.52
520.48	33221.56
520.65	32943.04
520.83	33923.72
521.00	33214.54
521.17	33502.43
521.34	33837.12
521.52	33486.04
521.69	33668.61
521.86	33652.22
522.03	33535.20
522.20	33954.15
522.38	34485.45
522.55	34368.43
522.72	33905.00
522.89	34314.59
523.07	34181.18
523.24	34017.35
523.41	34366.09
523.58	34412.90
523.75	34335.66
523.92	34445.66
524.10	34913.77
524.27	34588.44
524.44	34717.17
524.61	34909.09
524.78	35147.82
524.96	34864.62
525.13	35026.12
525.30	35557.42
525.47	35608.91
525.64	35131.44
525.81	35365.49
525.98	35367.84
526.16	34960.58
526.33	35072.93
526.50	35103.35
526.67	35405.28
526.84	35260.17
527.01	35098.67
527.18	35662.74
527.36	35517.63
527.53	35758.70
527.70	36294.69
527.87	36060.63
528.04	35744.66
528.21	35763.39
528.38	36023.19
528.55	36318.09
528.72	36245.54
528.89	36222.13
529.07	36479.59
529.24	36219.79
529.41	36266.60
529.58	36252.56
529.75	36245.54
529.92	36638.75
530.09	36327.45
530.26	36823.65
530.43	36582.57
530.60	36715.98
530.77	36645.77
530.94	37031.96
531.11	36886.84
531.28	37015.57
531.46	37111.53
531.63	37476.66
531.80	37244.94
531.97	37013.23
532.14	37249.63
532.31	36753.43
532.48	37212.18
532.65	37570.28
532.82	37500.06
532.99	37551.56
533.16	36751.09
533.33	37397.08
533.50	37525.81
533.67	37413.46
533.84	37446.23
534.01	37373.67
534.18	37663.90
534.35	38349.68
534.52	37694.33
534.69	37755.18
534.86	37956.47
535.03	38342.66
535.20	37586.66
535.37	38457.34
535.54	38218.61
535.71	38293.50
535.88	38188.18
536.05	38543.94
536.22	38401.17
536.38	38459.68
536.55	38295.85
536.72	37984.55
536.89	37933.06
537.06	38476.07
537.23	38742.89
537.40	38520.54
537.57	38672.67
537.74	38986.30
537.91	38848.21
538.08	38546.28
538.25	38513.52
538.42	38686.71
538.59	38836.51
538.75	38902.04
538.92	39086.95
539.09	38747.57
539.26	39192.27
539.43	38981.62
539.60	39098.65
539.77	39225.04
539.94	39189.93
540.11	39426.32
540.28	39166.52
540.44	39124.40
540.61	39278.87
540.78	38983.96
540.95	39508.24
541.12	39133.76
541.29	39440.37
541.46	39168.87
541.62	39660.38
541.79	39859.32
541.96	39248.44
542.13	39484.84
542.30	39866.34
542.47	39966.99
542.63	39805.49
542.80	40163.59
542.97	40376.58
543.14	40371.90
543.31	40201.04
543.48	40360.20
543.64	40687.87
543.81	40636.38
543.98	40371.90
544.15	40765.11
544.32	40547.44
544.48	40964.06
544.65	40484.25
544.82	40849.37
544.99	40109.76
545.16	40612.98
545.32	40762.77
545.49	40942.99
545.66	40821.28
545.83	41240.24
546.00	40900.86
546.16	41017.89
546.33	40568.51
546.50	40580.21
546.67	41287.05
546.83	40318.07
547.00	41022.57
547.17	41008.53
547.34	40842.35
547.50	40818.94
547.67	41535.15
547.84	41504.72
548.00	40854.05
548.17	41830.05
548.34	41642.81
548.51	41862.82
548.67	41436.84
548.84	41670.90
549.01	41502.38
549.18	41565.57
549.34	41481.31
549.51	41560.89
549.68	41785.58
549.84	41659.20
550.01	42045.38
550.18	41254.28
550.34	41860.48
550.51	41984.53
550.68	41776.22
550.84	41270.67
551.01	41855.80
551.18	42085.17
551.34	41848.78
551.51	42014.96
551.68	42246.67
551.84	41986.87
552.01	41825.37
552.18	42527.53
552.34	42199.86
552.51	42272.42
552.68	42197.52
552.84	42396.46
553.01	42272.42
553.18	42749.88
553.34	42106.24
553.51	42192.84
553.67	42497.11
553.84	42579.03
554.01	42883.30
554.17	42518.17
554.34	42529.87
554.51	42728.82
554.67	42827.12
554.84	42674.99
555.00	42759.25
555.17	42768.61
555.33	42766.27
555.50	42469.02
555.67	42485.40
555.83	42686.69
556.00	42717.12
556.16	43449.70
556.33	42792.01
556.50	42602.43
556.66	43138.41
556.83	42686.69
556.99	42981.60
557.16	43384.17
557.32	42951.17
557.49	43058.84
557.65	42911.38
557.82	42827.12
557.98	42808.40
558.15	42913.72
558.32	43138.41
558.48	43129.05
558.65	43522.26
558.81	43201.61
558.98	43313.95
559.14	43019.05
559.31	43019.05
559.47	43484.81
559.64	43643.97
559.80	43716.53
559.97	43115.01
560.13	43068.20
560.30	43311.61
560.46	43372.47
560.63	43447.36
560.79	43138.41
560.96	43412.26
561.12	43639.29
561.29	43758.66
561.45	43667.37
561.61	43564.39
561.78	42962.87
561.94	43430.98
562.11	43290.55
562.27	43281.19
562.44	43290.55
562.60	43791.42
562.77	44074.63
562.93	43243.74
563.10	43749.29
563.26	43407.58
563.42	43744.61
563.59	43564.39
563.75	43903.77
563.92	43665.03
564.08	43803.13
564.24	43901.43
564.41	43796.10
564.57	43910.79
564.74	44023.14
564.90	43814.83
565.07	43824.19
565.23	43885.04
565.39	44060.58
565.56	43716.53
565.72	43721.21
565.88	43669.72
566.05	43936.54
566.21	43819.51
566.38	43658.01
566.54	43779.72
566.70	44037.18
566.87	44217.40
567.03	43746.95
567.19	44067.61
567.36	43650.99
567.52	44151.87
567.68	44346.13
567.85	44165.91
568.01	44610.61
568.17	43973.98
568.34	44217.40
568.50	44301.66
568.66	43920.15
568.83	44093.35
568.99	44186.97
569.15	44163.57
569.32	43793.76
569.48	43749.29
569.64	44083.99
569.81	44289.96
569.97	43969.30
570.13	44563.80
570.30	43962.28
570.46	43704.82
570.62	44282.94
570.78	44095.69
570.95	44130.80
571.11	44123.78
571.27	44184.63
571.43	44011.43
571.60	44428.05
571.76	44137.82
571.92	44163.57
572.09	44219.74
572.25	44299.32
572.41	44006.75
572.57	44584.86
572.74	44856.37
572.90	43997.39
573.06	44020.80
573.22	44524.01
573.38	44156.55
573.55	43906.11
573.71	44325.07
573.87	44037.18
574.03	43765.68
574.20	44320.38
574.36	43952.92
574.52	44432.73
574.68	44720.62
574.84	44156.55
575.01	44308.68
575.17	44105.06
575.33	43871.00
575.49	44240.81
575.65	44734.66
575.82	44722.96
575.98	44423.37
576.14	44748.70
576.30	43952.92
576.46	43739.93
576.62	44055.90
576.79	44226.76
576.95	44114.42
577.11	44383.58
577.27	44610.61
577.43	44863.39
577.59	44575.50
577.75	44605.93
577.92	44088.67
578.08	44374.22
578.24	44116.76
578.40	43962.28
578.56	44760.40
578.72	44264.21
578.88	44694.87
579.04	44348.47
579.21	44449.11
579.37	44247.83
579.53	44107.40
579.69	44304.00
579.85	44563.80
580.01	44334.43
580.17	44285.28
580.33	44935.95
580.49	44832.96
580.65	44425.71
580.82	44751.04
580.98	44505.29
581.14	44392.94
581.30	44671.46
581.46	44641.04
581.62	44500.61
581.78	44299.32
581.94	44964.03
582.10	44645.72
582.26	44463.16
582.42	44409.32
582.58	44708.91
582.74	44093.35
582.90	44612.95
583.06	44765.09
583.22	44395.28
583.38	44617.63
583.54	44790.83
583.70	44439.75
583.86	44516.99
584.02	44381.24
584.18	44439.75
584.34	44442.09
584.50	44762.75
584.66	44273.57
584.82	44619.97
584.98	44802.53
585.14	44875.09
585.30	44636.36
585.46	44119.10
585.62	44460.82
585.78	44170.59
585.94	44107.40
586.10	44236.12
586.26	44657.42
586.42	44664.44
586.58	44601.25
586.74	44924.24
586.90	44949.99
587.06	44502.95
587.22	44708.91
587.38	44252.51
587.54	44971.05
587.70	44832.96
587.86	44481.88
588.02	44582.52
588.18	44839.98
588.34	44519.33
588.49	44727.64
588.65	44854.03
588.81	44491.24
588.97	44432.73
589.13	44079.31
589.29	44240.81
589.45	44631.68
589.61	44449.11
589.77	44978.07
589.93	44870.41
590.08	45219.15
590.24	44928.92
590.40	45064.67
590.56	45045.95
590.72	44650.40
590.88	44875.09
591.04	44825.94
591.20	45298.73
591.35	44870.41
591.51	45366.60
591.67	45003.82
591.83	44744.02
591.99	44643.38
592.15	44554.44
592.31	45132.55
592.46	45020.20
592.62	44952.33
592.78	45006.16
592.94	45191.06
593.10	45174.68
593.26	45397.03
593.41	44800.19
593.57	44711.25
593.73	44854.03
593.89	44940.63
594.05	44938.29
594.20	45024.89
594.36	45371.28
594.52	44954.67
594.68	44971.05
594.84	44961.69
594.99	44725.30
595.15	44828.28
595.31	45010.84
595.47	44945.31
595.62	45146.59
595.78	45179.36
595.94	45052.97
596.10	45212.13
596.25	45521.08
596.41	44961.69
596.57	45134.89
596.73	45509.38
596.88	44755.72
597.04	44987.44
597.20	45319.79
597.36	44872.75
597.51	45558.53
597.67	45186.38
597.83	45233.19
597.99	45331.50
598.14	45059.99
598.30	45202.77
598.46	45038.93
598.61	45148.93
598.77	45212.13
598.93	45003.82
599.09	44626.99
599.24	45324.47
599.40	45193.40
599.56	45586.61
599.71	45153.62
599.87	45233.19
600.03	44921.90
600.18	45532.78
600.34	45064.67
600.50	45069.36
600.65	44896.16
600.81	45240.21
600.97	45258.94
601.12	45591.30
601.28	44996.80
601.44	44765.09
601.59	45006.16
601.75	44971.05
601.91	44992.12
602.06	44811.90
602.22	45347.88
602.37	44783.81
602.53	45027.23
602.69	45177.02
602.84	44975.73
603.00	45088.08
603.16	44935.95
603.31	44931.26
603.47	44725.30
603.62	44783.81
603.78	45382.99
603.94	44605.93
604.09	45191.06
604.25	45411.07
604.40	45195.74
604.56	45013.18
604.71	45242.56
604.87	44914.88
605.03	44751.04
605.18	45050.63
605.34	45186.38
605.49	44996.80
605.65	45132.55
605.80	44729.98
605.96	44973.39
606.12	45064.67
606.27	45373.63
606.43	44886.79
606.58	45092.76
606.74	44816.58
606.89	44968.71
607.05	44933.60
607.20	44982.76
607.36	44905.52
607.51	44975.73
607.67	45146.59
607.82	44947.65
607.98	44718.28
608.13	44727.64
608.29	44966.37
608.44	44601.25
608.60	44390.60
608.75	44414.01
608.91	44514.65
609.06	44512.31
609.22	44872.75
609.37	44322.72
609.53	44811.90
609.68	44556.78
609.84	45090.42
609.99	44219.74
610.15	44446.77
610.30	44257.19
610.46	43995.05
610.61	44516.99
610.76	44240.81
610.92	44243.15
611.07	44458.48
611.23	44673.81
611.38	44301.66
611.54	44306.34
611.69	44191.65
611.84	44432.73
612.00	44406.98
612.15	43948.24
612.31	44376.56
612.46	44196.34
612.62	44753.38
612.77	44430.39
612.92	44914.88
613.08	44212.72
613.23	44308.68
613.39	43887.39
613.54	43735.25
613.69	43959.94
613.85	44182.29
614.00	44191.65
614.15	44521.67
614.31	44282.94
614.46	44704.23
614.62	44137.82
614.77	43952.92
614.92	43744.61
615.08	43976.33
615.23	44123.78
615.38	43927.17
615.54	43814.83
615.69	43524.60
615.84	43498.86
616.00	44210.38
616.15	44009.09
616.30	43969.30
616.46	43473.11
616.61	43742.27
616.76	43976.33
616.92	43414.60
617.07	43323.32
617.22	43320.98
617.37	43414.60
617.53	43529.28
617.68	43622.90
617.83	43885.04
617.99	43660.35
618.14	43452.05
618.29	43349.06
618.45	43405.23
618.60	43400.55
618.75	44053.56
618.90	43246.08
619.06	43543.33
619.21	43756.32
619.36	43718.87
619.51	43508.22
619.67	42700.73
619.82	43189.91
619.97	43674.40
620.12	43456.73
620.28	42883.30
620.43	43168.84
620.58	43545.67
620.73	42841.17
620.89	42972.24
621.04	43297.57
621.19	43356.08
621.34	42607.11
621.49	42965.21
621.65	42724.14
621.80	43377.15
621.95	42728.82
622.10	43269.48
622.25	43014.37
622.41	42876.27
622.56	43021.39
622.71	43299.91
622.86	42738.18
623.01	42822.44
623.16	43143.09
623.32	42855.21
623.47	42909.04
623.62	43047.13
623.77	42710.10
623.92	42911.38
624.07	42246.67
624.23	42625.84
624.38	43005.00
624.53	42368.38
624.68	42520.51
624.83	42918.40
624.98	42993.30
625.13	42082.83
625.29	42040.70
625.44	42873.93
625.59	42623.50
625.74	42080.49
625.89	42438.59
626.04	42314.55
626.19	42534.56
626.34	42281.78
626.49	42284.12
626.65	42335.61
626.80	42162.41
626.95	42169.43
627.10	42110.92
627.25	41581.96
627.40	41544.51
627.55	42087.51
627.70	41532.81
627.85	41942.40
628.00	41647.49
628.15	42024.32
628.30	42110.92
628.45	41825.37
628.60	41486.00
628.76	42211.56
628.91	41820.69
629.06	42284.12
629.21	42054.75
629.36	41813.67
629.51	41387.69
629.66	41500.04
629.81	41422.80
629.96	41603.02
630.11	41741.11
630.26	41757.50
630.41	41610.04
630.56	41523.44
630.71	41696.64
630.86	41607.70
631.01	41216.83
631.16	41694.30
631.31	40917.25
631.46	41006.19
631.61	41556.21
631.76	41469.61
631.91	41289.39
632.06	41109.17
632.21	41993.89
632.36	41839.42
632.51	41373.65
632.66	41235.56
632.81	40720.64
632.96	41287.05
633.10	40655.11
633.25	40641.06
633.40	40865.75
633.55	41062.36
633.70	41345.56
633.85	40765.11
634.00	41074.06
634.15	41104.49
634.30	40678.51
634.45	40931.29
634.60	40889.16
634.75	41001.50
634.90	40795.54
635.05	40872.78
635.19	40561.48
635.34	40968.74
635.49	40788.52
635.64	40608.29
635.79	40650.42
635.94	40088.70
636.09	40837.67
636.24	40531.06
636.39	40065.29
636.53	40603.61
636.68	40271.26
636.83	40465.52
636.98	40470.20
637.13	40135.51
637.28	40559.14
637.43	40493.61
637.57	40500.63
637.72	40442.12
637.87	40357.86
638.02	40217.43
638.17	40013.80
638.32	39903.79
638.46	39812.51
638.61	39842.94
638.76	39948.26
638.91	40177.64
639.06	40215.08
639.20	40011.46
639.35	40362.54
639.50	39723.57
639.65	40374.24
639.80	40151.89
639.94	39814.85
640.09	39812.51
640.24	39981.03
640.39	40119.12
640.54	39562.08
640.68	39714.21
640.83	39761.02
640.98	39828.90
641.13	39840.60
641.27	39765.70
641.42	39765.70
641.57	39620.59
641.72	39665.06
641.86	39285.89
642.01	39569.10
642.16	39393.56
642.31	39108.01
642.45	39688.46
642.60	39103.33
642.75	39454.41
642.90	39384.19
643.04	39248.44
643.19	39386.54
643.34	39196.95
643.48	39136.10
643.63	39189.93
643.78	38990.98
643.93	39129.08
644.07	38649.27
644.22	39281.21
644.37	39234.40
644.51	38880.98
644.66	38602.46
644.81	39206.31
644.95	39321.00
645.10	39477.82
645.25	39143.12
645.39	38993.32
645.54	38983.96
645.69	38703.10
645.83	38995.67
645.98	38602.46
646.13	38749.91
646.27	39063.54
646.42	38651.61
646.57	38951.20
646.71	38630.54
646.86	38532.24
647.00	38843.53
647.15	38473.73
647.30	39058.86
647.44	38333.29
647.59	38785.02
647.74	38710.12
647.88	38239.67
648.03	38462.02
648.17	38572.03
648.32	38581.39
648.47	38693.74
648.61	38445.64
648.76	38850.55
648.90	38501.81
649.05	38628.20
649.20	38494.79
649.34	38660.97
649.49	38349.68
649.63	38274.78
649.78	38712.46
649.92	37940.08
650.07	38476.07
650.21	37930.72
650.36	38033.71
650.51	38237.33
650.65	38719.48
650.80	38466.70
650.94	38359.04
651.09	38298.19
651.23	38024.34
651.38	38183.50
651.52	38087.54
651.67	37972.85
651.81	37968.17
651.96	37572.62
652.10	37881.57
652.25	37975.19
652.39	37729.44
652.54	37787.95
652.68	38204.56
652.83	38043.07
652.97	37743.48
653.12	37792.63
653.26	37790.29
653.41	37787.95
653.55	37764.54
653.70	37336.23
653.84	37844.12
653.99	37572.62
654.13	37731.78
654.27	37696.67
654.42	37064.72
654.56	37689.65
654.71	37825.40
654.85	36964.08
655.00	37139.62
655.14	37418.14
655.29	37088.13
655.43	37134.94
655.57	36938.33
655.72	37038.98
655.86	36772.16
656.01	36893.86
656.15	36833.01
656.30	36835.35
656.44	36851.73
656.58	36947.70
656.73	36978.12
656.87	36704.28
657.01	36449.16
657.16	36814.29
657.30	36512.36
657.45	36243.20
657.59	36811.95
657.73	36535.76
657.88	36811.95
658.02	36666.83
658.16	36898.55
658.31	36751.09
658.45	36856.42
658.60	36968.76
658.74	36863.44
658.88	37010.89
659.03	36577.89
659.17	36163.62
659.31	36493.63
659.46	36238.51
659.60	36194.04
659.74	36402.35
659.89	35744.66
660.03	36453.84
660.17	36460.87
660.32	36346.18
660.46	36629.38
660.60	36018.50
660.74	36266.60
660.89	36002.12
661.03	35641.68
661.17	35978.72
661.32	35126.76
661.46	35634.66
661.60	35784.45
661.74	35550.40
661.89	35842.96
662.03	35508.27
662.17	35400.60
662.31	35522.31
662.46	35875.73
662.60	35576.14
662.74	35676.79
662.88	35255.49
663.03	35208.68
663.17	35260.17
663.31	35037.82
663.45	35047.18
663.60	35304.64
663.74	34881.00
663.88	35117.40
664.02	34614.18
664.17	34742.91
664.31	34682.06
664.45	34588.44
664.59	35161.87
664.73	34494.82
664.88	34595.46
665.02	34323.96
665.16	35042.50
665.30	34885.68
665.44	34574.39
665.59	34202.25
665.73	34309.91
665.87	33867.55
666.01	34045.43
666.15	34220.97
666.29	34174.16
666.44	34410.56
666.58	34314.59
666.72	33883.94
666.86	34534.60
667.00	34171.82
667.14	33818.40
667.28	34012.66
667.43	33675.63
667.57	34012.66
667.71	33755.21
667.85	33429.87
667.99	33930.75
668.13	33584.35
668.27	33701.37
668.41	33354.97
668.56	33352.63
668.70	33535.20
668.84	33181.77
668.98	33057.73
669.12	33134.96
669.26	33092.83
669.40	32952.40
669.54	33076.45
669.68	32882.19
669.82	33074.11
669.96	32627.07
670.10	32699.62
670.25	32797.93
670.39	32669.20
670.53	32442.17
670.67	32526.42
670.81	32552.17
670.95	32453.87
671.09	32765.16
671.23	32383.65
671.37	32624.73
671.51	32830.69
671.65	31805.54
671.79	32002.14
671.93	32275.99
672.07	32191.73
672.21	32624.73
672.35	31960.02
672.49	32304.07
672.63	31541.06
672.77	31901.50
672.91	31243.81
673.05	31655.75
673.19	31276.58
673.33	31290.62
673.47	31040.18
673.61	31098.70
673.75	31012.10
673.89	30808.47
674.03	30808.47
674.17	30986.35
674.31	31009.76
674.45	31110.40
674.59	31054.23
674.73	30885.71
674.87	30871.67
675.01	30962.95
675.15	31023.80
675.29	30979.33
675.43	30558.03
675.56	30202.27
675.70	30426.96
675.84	29982.26
675.98	29352.66
676.12	30333.34
676.26	30225.68
676.40	29890.98
676.54	29919.07
676.68	30160.14
676.82	29589.05
676.96	29682.67
677.10	29638.20
677.23	29081.16
677.37	29219.25
677.51	29476.71
677.65	29223.93
677.79	29006.26
677.93	28615.39
678.07	29010.94
678.21	28524.11
678.34	28566.24
678.48	28217.50
678.62	28613.05
678.76	28341.55
678.90	28416.44
679.04	28442.19
679.18	28074.73
679.31	27763.43
679.45	27735.35
679.59	27505.98
679.73	27693.22
679.87	27934.29
680.00	27999.83
680.14	27482.57
680.28	27541.08
680.42	27470.87
680.56	27402.99
680.70	27241.50
680.83	26986.38
680.97	27103.40
681.11	26705.51
681.25	26881.05
681.39	26637.64
681.52	26918.50
681.66	26654.02
681.80	26780.41
681.94	26562.74
682.07	26565.08
682.21	26206.98
682.35	26153.15
682.49	26190.59
682.62	26518.27
682.76	25743.55
682.90	25666.31
683.04	25778.66
683.17	26043.14
683.31	25720.15
683.45	25996.33
683.59	25649.93
683.72	25472.05
683.86	25022.67
684.00	25399.49
684.13	25521.20
684.27	25221.61
684.41	24889.26
684.55	24994.58
684.68	24907.98
684.82	24814.36
684.96	24610.73
685.09	24634.14
685.23	24489.03
685.37	24568.60
685.50	24453.92
685.64	24702.01
685.78	24561.58
685.91	24198.80
686.05	24196.46
686.19	23772.82
686.32	24037.30
686.46	23482.59
686.60	23669.84
686.73	23786.86
686.87	23342.16
687.01	23250.88
687.14	22955.97
687.28	23019.17
687.42	23040.23
687.55	22693.83
687.69	23157.26
687.82	22707.88
687.96	22843.63
688.10	23051.94
688.23	22710.22
688.37	22593.19
688.50	21977.63
688.64	22405.95
688.78	22228.07
688.91	21755.28
689.05	22265.52
689.18	21741.24
689.32	21570.38
689.46	21750.60
689.59	22167.21
689.73	21853.58
689.86	21809.11
690.00	21778.68
690.13	21792.73
690.27	21455.69
690.41	21497.82
690.54	21039.08
690.68	21123.33
690.81	20828.43
690.95	20835.45
691.08	21205.25
691.22	20760.55
691.35	20854.17
691.49	21092.91
691.62	20952.48
691.76	21207.59
691.89	20603.74
692.03	20566.29
692.16	20400.11
692.30	20067.75
692.43	20547.56
692.57	20086.48
692.70	20123.93
692.84	20009.24
692.97	19843.06
693.11	19634.75
693.24	19765.82
693.38	19733.06
693.51	19716.67
693.65	19344.53
693.78	19824.34
693.92	19393.68
694.05	19484.96
694.19	19260.27
694.32	18829.61
694.45	19005.15
694.59	18958.34
694.72	18789.82
694.86	18862.38
694.99	18956.00
695.13	18345.12
695.26	18375.55
695.39	18200.01
695.53	18541.72
695.66	18143.83
695.80	18246.82
695.93	18349.80
696.07	18010.42
696.20	18331.08
696.33	18073.62
696.47	17956.59
696.60	17891.06
696.73	18136.81
696.87	17855.95
697.00	17874.67
697.14	17689.77
697.27	17561.04
697.40	17535.29
697.54	17191.23
697.67	17200.60
697.80	17404.22
697.94	17460.40
698.07	17076.55
698.21	17191.23
698.34	17085.91
698.47	17303.58
698.61	16830.79
698.74	16519.50
698.87	16460.99
699.01	16348.64
699.14	16383.75
699.27	16353.32
699.40	16381.41
699.54	15995.22
699.67	15967.13
699.80	15988.20
699.94	15901.60
700.07	16016.29
700.20	15756.49
700.34	15793.94
700.47	15662.86
700.60	15927.35
700.73	15590.31
700.87	15789.25
701.00	15424.13
701.13	15459.24
701.26	15421.79
701.40	15407.75
701.53	15435.83
701.66	15353.91
701.79	14967.73
701.93	14939.64
702.06	15105.82
702.19	14874.10
702.32	14998.15
702.46	14967.73
702.59	14913.89
702.72	14415.36
702.85	14766.44
702.99	14743.03
703.12	14923.26
703.25	14588.56
703.38	14366.21
703.51	14394.29
703.65	14476.21
703.78	14272.59
703.91	14361.53
704.04	14190.67
704.17	14001.08
704.31	13895.76
704.44	13486.17
704.57	13680.43
704.70	13631.28
704.83	13434.68
704.96	13479.15
705.10	13619.58
705.23	13750.65
>>>>>End Processed Spectral Data<<<<<
