SpectraSuite Data File
++++++++++++++++++++++++++++++++++++
Date: Fri Oct 25 10:47:45 EDT 2013
User: price-jones
Dark Spectrum Present: No
Reference Spectrum Present: No
Number of Sampled Component Spectra: 1
Spectrometers: USB2+H05261
Integration Time (usec): 100000 (USB2+H05261)
Spectra Averaged: 1 (USB2+H05261)
Boxcar Smoothing: 0 (USB2+H05261)
Correct for Electrical Dark: No (USB2+H05261)
Strobe/Lamp Enabled: No (USB2+H05261)
Correct for Detector Non-linearity: No (USB2+H05261)
Correct for Stray Light: No (USB2+H05261)
Number of Pixels in Processed Spectrum: 2048
>>>>>Begin Processed Spectral Data<<<<<
365.73	135.75
365.92	135.75
366.12	135.75
366.32	51.49
366.52	35.11
366.72	86.60
366.91	93.62
367.11	28.09
367.31	65.54
367.51	0.00
367.70	53.83
367.90	65.54
368.10	16.38
368.30	63.19
368.49	102.98
368.69	21.06
368.89	79.58
369.09	49.15
369.28	51.49
369.48	42.13
369.68	77.24
369.87	51.49
370.07	131.07
370.27	173.20
370.47	222.35
370.66	400.23
370.86	388.53
371.06	451.72
371.25	489.17
371.45	533.64
371.65	435.34
371.84	470.45
372.04	479.81
372.24	507.90
372.44	470.45
372.63	458.74
372.83	416.62
373.03	524.28
373.22	437.68
373.42	512.58
373.62	545.34
373.81	535.98
374.01	596.84
374.21	531.30
374.40	538.32
374.60	550.03
374.79	517.26
374.99	601.52
375.19	554.71
375.38	510.24
375.58	552.37
375.78	582.79
375.97	533.64
376.17	622.58
376.37	554.71
376.56	608.54
376.76	596.84
376.95	573.43
377.15	629.60
377.35	622.58
377.54	580.45
377.74	564.07
377.93	606.20
378.13	610.88
378.33	638.97
378.52	645.99
378.72	645.99
378.91	624.92
379.11	589.82
379.31	636.63
379.50	664.71
379.70	564.07
379.89	620.24
380.09	674.07
380.28	650.67
380.48	631.94
380.68	601.52
380.87	596.84
381.07	636.63
381.26	685.78
381.46	660.03
381.65	704.50
381.85	645.99
382.04	739.61
382.24	732.59
382.43	683.44
382.63	603.86
382.83	732.59
383.02	751.31
383.22	755.99
383.41	706.84
383.61	704.50
383.80	751.31
384.00	685.78
384.19	713.86
384.39	809.83
384.58	751.31
384.78	753.65
384.97	706.84
385.17	755.99
385.36	763.01
385.56	737.27
385.75	746.63
385.95	788.76
386.14	791.10
386.34	842.59
386.53	819.19
386.72	833.23
386.92	861.32
387.11	809.83
387.31	847.27
387.50	770.04
387.70	826.21
387.89	870.68
388.09	812.17
388.28	809.83
388.48	828.55
388.67	940.90
388.86	835.57
389.06	875.36
389.25	896.43
389.45	931.53
389.64	908.13
389.84	959.62
390.03	940.90
390.22	945.58
390.42	840.25
390.61	985.37
390.81	844.93
391.00	966.64
391.19	978.34
391.39	950.26
391.58	933.87
391.78	1018.13
391.97	964.30
392.16	908.13
392.36	1027.50
392.55	1029.84
392.75	938.55
392.94	1029.84
393.13	1022.81
393.33	952.60
393.52	999.41
393.71	940.90
393.91	1029.84
394.10	1029.84
394.29	1057.92
394.49	1034.52
394.68	1097.71
394.88	1090.69
395.07	1055.58
395.26	1151.54
395.46	1146.86
395.65	1128.14
395.84	1163.25
396.04	1181.97
396.23	1144.52
396.42	1130.48
396.62	1111.75
396.81	1172.61
397.00	1191.33
397.19	1151.54
397.39	1181.97
397.58	1191.33
397.77	1287.29
397.97	1128.14
398.16	1256.87
398.35	1320.06
398.55	1247.51
398.74	1343.47
398.93	1313.04
399.12	1441.77
399.32	1294.32
399.51	1399.64
399.70	1301.34
399.90	1437.09
400.09	1310.70
400.28	1420.71
400.47	1437.09
400.67	1493.26
400.86	1589.22
401.05	1437.09
401.24	1406.66
401.44	1359.85
401.63	1514.33
401.82	1401.98
402.01	1504.96
402.21	1549.43
402.40	1455.81
402.59	1547.09
402.78	1579.86
402.97	1439.43
403.17	1605.61
403.36	1549.43
403.55	1629.01
403.74	1673.48
403.93	1703.91
404.13	1722.63
404.32	1727.32
404.51	1715.61
404.70	1591.56
404.89	1650.08
405.09	1785.83
405.28	1708.59
405.47	1699.23
405.66	1785.83
405.85	1797.53
406.05	1743.70
406.24	1753.06
406.43	1839.66
406.62	1893.49
406.81	1933.28
407.00	1823.28
407.20	1720.29
407.39	1898.17
407.58	1809.23
407.77	1874.77
407.96	1928.60
408.15	2019.88
408.34	1944.99
408.54	1952.01
408.73	1980.09
408.92	1982.43
409.11	2101.80
409.30	2001.16
409.49	1961.37
409.68	1961.37
409.87	2040.95
410.07	2092.44
410.26	2127.55
410.45	2118.18
410.64	1996.48
410.83	2204.78
411.02	2272.66
411.21	2272.66
411.40	2387.35
411.59	2352.24
411.78	2312.45
411.98	2209.47
412.17	2300.75
412.36	2307.77
412.55	2387.35
412.74	2448.20
412.93	2349.90
413.12	2356.92
413.31	2532.46
413.50	2452.88
413.69	2452.88
413.88	2562.89
414.07	2647.15
414.26	2600.34
414.45	2640.12
414.64	2640.12
414.83	2663.53
415.02	2649.49
415.22	2715.02
415.41	2773.53
415.60	2787.58
415.79	2829.71
415.98	2771.19
416.17	2949.08
416.36	2906.95
416.55	2883.54
416.74	2902.26
416.93	2825.03
417.12	2925.67
417.31	2958.44
417.50	2963.12
417.69	3096.53
417.88	3040.36
418.07	2848.43
418.26	3056.74
418.45	3012.27
418.64	3145.68
418.83	3136.32
419.02	3178.45
419.21	3138.66
419.39	3236.96
419.58	3246.32
419.77	3150.36
419.96	3229.94
420.15	3318.88
420.34	3377.39
420.53	3428.88
420.72	3318.88
420.91	3346.97
421.10	3361.01
421.29	3396.12
421.48	3337.60
421.67	3377.39
421.86	3431.23
422.05	3382.07
422.24	3508.46
422.43	3332.92
422.61	3475.70
422.80	3520.17
422.99	3555.27
423.18	3611.45
423.37	3447.61
423.56	3478.04
423.75	3353.99
423.94	3543.57
424.13	3342.28
424.32	3372.71
424.50	3499.10
424.69	3695.71
424.88	3545.91
425.07	3473.36
425.26	3543.57
425.45	3536.55
425.64	3559.95
425.83	3459.31
426.01	3730.81
426.20	3583.36
426.39	3520.17
426.58	3524.85
426.77	3543.57
426.96	3751.88
427.15	3447.61
427.33	3688.68
427.52	3684.00
427.71	3702.73
427.90	3775.28
428.09	3639.53
428.28	3758.90
428.46	3765.92
428.65	3866.56
428.84	3777.62
429.03	3927.42
429.22	3782.31
429.40	3777.62
429.59	3950.82
429.78	3613.79
429.97	3585.70
430.16	3700.39
430.34	3878.27
430.53	3882.95
430.72	3901.67
430.91	3896.99
431.10	3847.84
431.28	4070.19
431.47	4063.17
431.66	4161.47
431.85	4109.98
432.03	4140.41
432.22	4124.02
432.41	3978.91
432.60	4084.23
432.79	4222.33
432.97	4217.65
433.16	4344.03
433.35	4072.53
433.54	4219.99
433.72	4255.09
433.91	4184.88
434.10	4318.29
434.28	4175.52
434.47	4322.97
434.66	4449.36
434.85	4379.14
435.03	4381.48
435.22	4390.84
435.41	4601.49
435.59	4482.13
435.78	4660.01
435.97	4610.86
436.16	4559.36
436.34	4592.13
436.53	4540.64
436.72	4627.24
436.90	4552.34
437.09	4744.27
437.28	4648.30
437.46	4662.35
437.65	4622.56
437.84	4657.67
438.02	4643.62
438.21	4777.03
438.40	4617.88
438.58	4781.71
438.77	4908.10
438.96	4809.80
439.14	4975.98
439.33	4990.02
439.52	5076.62
439.70	5170.24
439.89	4952.57
440.08	5036.83
440.26	5137.48
440.45	5203.01
440.63	5083.64
440.82	5324.72
441.01	5181.95
441.19	5247.48
441.38	5444.09
441.57	5497.92
441.75	5706.23
441.94	5404.30
442.12	5507.28
442.31	5811.55
442.50	5645.37
442.68	5509.62
442.87	5610.26
443.05	5661.76
443.24	5769.42
443.43	5628.99
443.61	5844.32
443.80	5891.13
443.98	5783.46
444.17	5518.98
444.35	5706.23
444.54	6071.35
444.73	5867.72
444.91	5806.87
445.10	5806.87
445.28	5879.43
445.47	5781.12
445.65	5753.04
445.84	5884.11
446.02	5900.49
446.21	5975.39
446.39	6029.22
446.58	5806.87
446.77	5870.06
446.95	5795.17
447.14	6066.67
447.32	6092.41
447.51	6003.47
447.69	5874.74
447.88	6022.20
448.06	5954.32
448.25	6092.41
448.43	6047.94
448.62	5921.56
448.80	5975.39
448.99	6090.07
449.17	6160.29
449.36	6115.82
449.54	6069.01
449.73	6450.52
449.91	6452.86
450.10	6459.88
450.28	6434.13
450.46	6277.32
450.65	6431.79
450.83	6373.28
451.02	6438.81
451.20	6487.96
451.39	6487.96
451.57	6530.09
451.76	6253.91
451.94	6483.28
452.13	6635.42
452.31	6394.34
452.49	6441.15
452.68	6403.71
452.86	6640.10
453.05	6502.01
453.23	6539.46
453.42	6445.84
453.60	6619.04
453.78	6604.99
453.97	6469.24
454.15	6621.38
454.34	6771.17
454.52	6731.38
454.70	6899.90
454.89	6738.40
455.07	6993.52
455.26	6752.45
455.44	7019.27
455.62	6930.33
455.81	6867.13
455.99	6935.01
456.17	6927.99
456.36	7009.90
456.54	7002.88
456.73	7314.17
456.91	7283.75
457.09	7073.10
457.28	7485.03
457.46	7232.26
457.64	7442.90
457.83	7232.26
458.01	7101.19
458.19	7459.29
458.38	7185.44
458.56	7311.83
458.74	7421.84
458.93	7218.21
459.11	7452.27
459.29	7398.43
459.48	7360.98
459.66	7368.01
459.84	7463.97
460.03	7632.49
460.21	7529.50
460.39	7410.14
460.57	7492.05
460.76	7595.04
460.94	7679.30
461.12	7623.12
461.31	7829.09
461.49	7723.77
461.67	7716.75
461.85	7995.27
462.04	7789.30
462.22	8329.97
462.40	8021.02
462.59	7906.33
462.77	7894.63
462.95	8016.33
463.13	7969.52
463.32	7817.39
463.50	8121.66
463.68	8077.19
463.86	8039.74
464.05	7978.89
464.23	8023.36
464.41	8121.66
464.59	8004.63
464.78	8086.55
464.96	8285.50
465.14	8138.04
465.32	8346.35
465.50	8262.09
465.69	8402.52
465.87	8336.99
466.05	8411.89
466.23	8407.20
466.41	8292.52
466.60	8493.80
466.78	8159.11
466.96	8341.67
467.14	8400.18
467.32	8376.78
467.51	8519.55
467.69	8266.77
467.87	8573.38
468.05	8589.77
468.23	8566.36
468.41	8571.04
468.60	8346.35
468.78	8571.04
468.96	8552.32
469.14	8638.92
469.32	8720.84
469.50	8779.35
469.69	8826.16
469.87	8823.82
470.05	8898.72
470.23	8922.12
470.41	8997.02
470.59	9036.81
470.77	8992.34
470.95	9020.42
471.14	9198.31
471.32	9046.17
471.50	9210.01
471.68	9191.28
471.86	9212.35
472.04	9310.65
472.22	9621.94
472.40	9263.84
472.58	9530.66
472.77	9362.14
472.95	9614.92
473.13	9977.70
473.31	9558.75
473.49	9509.60
473.67	9547.05
473.85	9509.60
474.03	9961.32
474.21	9750.67
474.39	9942.60
474.57	10026.86
474.75	10181.33
474.93	9987.07
475.12	10235.16
475.30	10204.74
475.48	10202.40
475.66	10073.67
475.84	10141.54
476.02	10347.51
476.20	10501.98
476.38	10389.64
476.56	10916.26
476.74	10721.99
476.92	10691.57
477.10	10537.09
477.28	10827.32
477.46	10920.94
477.64	10998.18
477.82	11185.42
478.00	11407.77
478.18	11197.12
478.36	11274.36
478.54	11377.34
478.72	11496.71
478.90	11761.19
479.08	11735.45
479.26	11749.49
479.44	11887.58
479.62	12105.25
479.80	12084.19
479.98	12091.21
480.16	12542.93
480.34	12404.84
480.52	12482.08
480.70	12580.38
480.88	12252.70
481.06	12468.03
481.24	12531.23
481.41	12879.97
481.59	13041.46
481.77	13165.51
481.95	13259.13
482.13	13111.68
482.31	13179.56
482.49	13518.93
482.67	13504.89
482.85	13415.95
483.03	13844.27
483.21	13834.91
483.39	13764.69
483.57	13991.72
483.74	14111.09
483.92	14239.82
484.10	14230.46
484.28	14623.67
484.46	14593.24
484.64	14998.15
484.82	14693.88
485.00	14768.78
485.18	14885.81
485.35	15047.30
485.53	14792.19
485.71	15143.27
485.89	15264.97
486.07	15309.44
486.25	15288.38
486.43	15517.75
486.61	15569.24
486.78	15878.19
486.96	16056.08
487.14	16039.69
487.32	16451.63
487.50	16603.76
487.68	16521.84
487.85	16709.08
488.03	16767.60
488.21	17106.98
488.39	16812.07
488.57	17266.13
488.75	17296.56
488.92	17598.49
489.10	17638.28
489.28	17486.14
489.46	17949.57
489.64	17928.50
489.81	18064.25
489.99	18391.93
490.17	18583.85
490.35	18586.19
490.53	18462.15
490.70	18745.35
490.88	19077.71
491.06	18848.33
491.24	19005.15
491.41	18750.03
491.59	19337.51
491.77	18995.79
491.95	19332.82
492.13	19686.25
492.30	19719.01
492.48	19765.82
492.66	20034.99
492.84	19915.62
493.01	20306.49
493.19	20156.69
493.37	20615.44
493.54	20762.89
493.72	20950.14
493.90	20992.26
494.08	20875.24
494.25	20971.20
494.43	21249.72
494.61	21130.36
494.79	21319.94
494.96	21422.92
495.14	21465.05
495.32	21837.20
495.49	21778.68
495.67	21834.86
495.85	21919.12
496.02	22373.18
496.20	22417.65
496.38	22436.38
496.55	22551.06
496.73	23014.49
496.91	22703.20
497.09	22972.36
497.26	22773.41
497.44	22815.54
497.62	23026.19
497.79	23183.01
497.97	23346.84
498.14	23285.99
498.32	23372.59
498.50	23590.26
498.67	23789.20
498.85	23948.36
499.03	24114.54
499.20	24271.36
499.38	23913.25
499.56	24381.36
499.73	24673.93
499.91	24467.96
500.08	24458.60
500.26	24662.22
500.44	24552.22
500.61	24863.51
500.79	24683.29
500.97	25076.50
501.14	25352.68
501.32	25446.30
501.49	25153.74
501.67	25329.28
501.84	25242.68
502.02	25551.63
502.20	25483.75
502.37	25628.87
502.55	25268.42
502.72	25865.26
502.90	25647.59
503.07	25818.45
503.25	26005.69
503.43	25703.76
503.60	26230.38
503.78	26106.34
503.95	25923.77
504.13	26466.78
504.30	26377.84
504.48	26139.10
504.65	26642.32
504.83	26923.18
505.01	27229.79
505.18	26679.77
505.36	27094.04
505.53	27271.92
505.71	27208.73
505.88	27110.43
506.06	27421.72
506.23	27393.63
506.41	27297.67
506.58	27365.54
506.76	27599.60
506.93	27763.43
507.11	27852.38
507.28	27948.34
507.46	27725.99
507.63	27854.72
507.81	27833.65
507.98	28034.94
508.16	28264.31
508.33	28458.57
508.50	28481.98
508.68	28477.30
508.85	29186.48
509.03	28694.97
509.20	29226.27
509.38	29109.24
509.55	29003.92
509.73	29244.99
509.90	29067.11
510.08	28657.52
510.25	28980.51
510.42	29312.87
510.60	29600.76
510.77	29633.52
510.95	29457.98
511.12	29455.64
511.30	29797.36
511.47	30394.20
511.64	30192.91
511.82	30228.02
511.99	29902.68
512.17	30202.27
512.34	30036.09
512.51	30160.14
512.69	30384.83
512.86	30298.23
513.04	30717.19
513.21	30541.65
513.38	30478.46
513.56	30710.17
513.73	30487.82
513.90	30822.51
514.08	30822.51
514.25	31012.10
514.43	31140.83
514.60	30888.05
514.77	31241.47
514.95	31660.43
515.12	31307.01
515.29	31550.42
515.47	31658.09
515.64	31592.55
515.81	31669.79
515.99	31356.16
516.16	31665.11
516.33	31578.51
516.51	32079.38
516.68	31433.39
516.85	31566.81
517.03	31515.31
517.20	31988.10
517.37	32126.19
517.54	32044.27
517.72	32327.48
517.89	31676.81
518.06	31906.18
518.24	32004.49
518.41	32327.48
518.58	32390.67
518.75	32615.37
518.93	32865.80
519.10	32526.42
519.27	32837.72
519.45	32790.91
519.62	32903.25
519.79	32840.06
519.96	32816.65
520.14	33287.10
520.31	33193.48
520.48	33500.09
520.65	33628.82
520.83	33975.22
521.00	33813.72
521.17	33401.79
521.34	33582.01
521.52	33600.73
521.69	34209.27
521.86	34237.36
522.03	34110.97
522.20	33663.93
522.38	33972.88
522.55	34529.92
522.72	34206.93
522.89	34132.03
523.07	34548.65
523.24	34499.50
523.41	34298.21
523.58	34370.77
523.75	34560.35
523.92	34756.96
524.10	34497.16
524.27	35159.53
524.44	35283.58
524.61	35166.55
524.78	35101.01
524.96	35316.34
525.13	35157.19
525.30	35328.05
525.47	36032.55
525.64	35175.91
525.81	35372.52
525.98	35342.09
526.16	35321.02
526.33	35386.56
526.50	35739.98
526.67	35360.81
526.84	35236.77
527.01	35325.71
527.18	35805.52
527.36	35917.86
527.53	36273.62
527.70	36034.89
527.87	36378.95
528.04	35934.24
528.21	36353.20
528.38	36229.15
528.55	36327.45
528.72	36191.70
528.89	36610.66
529.07	36315.75
529.24	36161.28
529.41	36605.98
529.58	36285.33
529.75	36268.94
529.92	37022.59
530.09	36297.03
530.26	37170.05
530.43	36910.25
530.60	36655.13
530.77	36856.42
530.94	37280.05
531.11	37027.28
531.28	37064.72
531.46	37504.74
531.63	37046.00
531.80	37422.83
531.97	37174.73
532.14	37223.88
532.31	36858.76
532.48	37897.95
532.65	37504.74
532.82	37483.68
532.99	37780.93
533.16	37277.71
533.33	37331.54
533.50	37823.06
533.67	37773.91
533.84	37270.69
534.01	38057.11
534.18	37811.35
534.35	38246.69
534.52	37755.18
534.69	38225.63
534.86	37752.84
535.03	37944.76
535.20	38085.20
535.37	38553.30
535.54	38649.27
535.71	38628.20
535.88	38080.52
536.05	38253.72
536.22	38529.90
536.38	38527.56
536.55	38724.16
536.72	38429.26
536.89	38689.06
537.06	38667.99
537.23	38981.62
537.40	38597.77
537.57	38562.67
537.74	38953.54
537.91	38944.17
538.08	38565.01
538.25	38745.23
538.42	39138.44
538.59	38902.04
538.75	38831.83
538.92	39257.81
539.09	39196.95
539.26	39548.03
539.43	39220.36
539.60	39587.82
539.77	39405.26
539.94	39215.68
540.11	39440.37
540.28	39435.69
540.44	39686.12
540.61	39271.85
540.78	39597.18
540.95	39505.90
541.12	39447.39
541.29	39440.37
541.46	39440.37
541.62	39723.57
541.79	40130.83
541.96	39763.36
542.13	39194.61
542.30	39887.41
542.47	39784.43
542.63	39761.02
542.80	40187.00
542.97	40442.12
543.14	40795.54
543.31	40343.81
543.48	40294.66
543.64	40854.05
543.81	40854.05
543.98	40655.11
544.15	40730.00
544.32	40928.95
544.48	40954.69
544.65	40788.52
544.82	40884.48
544.99	40264.24
545.16	40346.15
545.32	40643.40
545.49	41081.08
545.66	41392.37
545.83	41053.00
546.00	41141.94
546.16	40987.46
546.33	40893.84
546.50	40788.52
546.67	40989.80
546.83	40741.71
547.00	41017.89
547.17	41106.83
547.34	40980.44
547.50	41251.94
547.67	41659.20
547.84	41413.44
548.00	41867.50
548.17	41757.50
548.34	41303.43
548.51	41940.06
548.67	41895.59
548.84	41968.15
549.01	41598.34
549.18	41591.32
549.34	41890.91
549.51	41848.78
549.68	41668.56
549.84	42124.96
550.01	42080.49
550.18	41628.77
550.34	41706.01
550.51	41914.31
550.68	42024.32
550.84	41752.82
551.01	41839.42
551.18	42124.96
551.34	41993.89
551.51	41977.51
551.68	41841.76
551.84	42321.57
552.01	41755.16
552.18	42426.89
552.34	41951.76
552.51	42462.00
552.68	42335.61
552.84	42216.24
553.01	42412.85
553.18	42611.79
553.34	42560.30
553.51	42499.45
553.67	42494.77
553.84	43143.09
554.01	42983.94
554.17	42824.78
554.34	42684.35
554.51	42911.38
554.67	43079.90
554.84	42724.14
555.00	42721.80
555.17	42508.81
555.33	42958.19
555.50	43014.37
555.67	42763.93
555.83	42623.50
556.00	42880.95
556.16	43227.35
556.33	43105.65
556.50	42628.18
556.66	43241.40
556.83	43033.09
556.99	43426.30
557.16	42885.64
557.32	42836.48
557.49	43063.52
557.65	42555.62
557.82	43276.51
557.98	43407.58
558.15	43082.24
558.32	43257.78
558.48	43147.78
558.65	43210.97
558.81	43416.94
558.98	43414.60
559.14	43463.75
559.31	43065.86
559.47	43533.96
559.64	43227.35
559.80	43653.33
559.97	43618.22
560.13	43569.07
560.30	43157.14
560.46	43536.30
560.63	43278.85
560.79	43620.56
560.96	44030.16
561.12	43686.10
561.29	43540.99
561.45	44091.01
561.61	43648.65
561.78	43990.37
561.94	43543.33
562.11	43819.51
562.27	43496.52
562.44	43545.67
562.60	43824.19
562.77	43643.97
562.93	43798.44
563.10	43966.96
563.26	43536.30
563.42	43983.35
563.59	44186.97
563.75	43505.88
563.92	43548.01
564.08	43505.88
564.24	44348.47
564.41	44114.42
564.57	43894.41
564.74	44030.16
564.90	43866.32
565.07	43988.03
565.23	43601.84
565.39	44299.32
565.56	44175.27
565.72	43557.37
565.88	44100.37
566.05	44123.78
566.21	44294.64
566.38	44004.41
566.54	44275.91
566.70	44229.10
566.87	44472.52
567.03	44322.72
567.19	44397.62
567.36	44254.85
567.52	44030.16
567.68	44538.05
567.85	44247.83
568.01	44222.08
568.17	44168.25
568.34	44217.40
568.50	44016.11
568.66	44516.99
568.83	44186.97
568.99	43885.04
569.15	44385.92
569.32	44060.58
569.48	43838.23
569.64	44509.97
569.81	44076.97
569.97	44165.91
570.13	44119.10
570.30	44011.43
570.46	44467.84
570.62	44130.80
570.78	44374.22
570.95	44233.78
571.11	44507.63
571.27	44329.75
571.43	44240.81
571.60	44259.53
571.76	44189.31
571.92	44186.97
572.09	44086.33
572.25	44821.26
572.41	44332.09
572.57	44800.19
572.74	44830.62
572.90	44486.56
573.06	44636.36
573.22	44374.22
573.38	44306.34
573.55	44315.70
573.71	44416.35
573.87	44435.07
574.03	44088.67
574.20	44355.49
574.36	44444.43
574.52	44350.81
574.68	44711.25
574.84	44229.10
575.01	44938.29
575.17	44648.06
575.33	44156.55
575.49	44275.91
575.65	44886.79
575.82	44870.41
575.98	44470.18
576.14	44818.92
576.30	44760.40
576.46	44652.74
576.62	44425.71
576.79	44755.72
576.95	44369.54
577.11	44524.01
577.27	44495.92
577.43	44905.52
577.59	43959.94
577.75	44425.71
577.92	44608.27
578.08	44524.01
578.24	44165.91
578.40	44402.30
578.56	44737.00
578.72	44296.98
578.88	44662.10
579.04	44751.04
579.21	44542.74
579.37	44311.02
579.53	44215.06
579.69	44673.81
579.85	44596.57
580.01	44795.51
580.17	44418.69
580.33	44828.28
580.49	44900.84
580.65	44524.01
580.82	44959.35
580.98	44727.64
581.14	44584.86
581.30	44921.90
581.46	44430.39
581.62	44713.59
581.78	45076.38
581.94	45104.46
582.10	44591.89
582.26	44776.79
582.42	44524.01
582.58	44952.33
582.74	44339.11
582.90	44608.27
583.06	45308.09
583.22	45010.84
583.38	44828.28
583.54	44666.78
583.70	44500.61
583.86	44554.44
584.02	44364.85
584.18	44666.78
584.34	45057.65
584.50	44643.38
584.66	44727.64
584.82	44559.12
584.98	44858.71
585.14	44753.38
585.30	44392.94
585.46	44566.14
585.62	44690.19
585.78	44666.78
585.94	44362.51
586.10	44528.69
586.26	44547.42
586.42	44900.84
586.58	44844.66
586.74	45057.65
586.90	44463.16
587.06	44467.84
587.22	44898.50
587.38	44666.78
587.54	45195.74
587.70	45109.14
587.86	45373.63
588.02	44584.86
588.18	45158.30
588.34	44708.91
588.49	44421.03
588.65	44456.14
588.81	44416.35
588.97	44615.29
589.13	44753.38
589.29	44538.05
589.45	44294.64
589.61	44968.71
589.77	44938.29
589.93	44720.62
590.08	45179.36
590.24	44968.71
590.40	44952.33
590.56	44769.77
590.72	44744.02
590.88	44257.19
591.04	44863.39
591.20	45378.31
591.35	45134.89
591.51	44879.77
591.67	45048.29
591.83	45282.34
591.99	44596.57
592.15	45010.84
592.31	45036.59
592.46	45074.04
592.62	45209.79
592.78	44921.90
592.94	44903.18
593.10	44598.91
593.26	45378.31
593.41	45008.50
593.57	44802.53
593.73	44898.50
593.89	45127.87
594.05	44947.65
594.20	44879.77
594.36	45191.06
594.52	45102.12
594.68	45092.76
594.84	45041.27
594.99	45373.63
595.15	44898.50
595.31	45427.46
595.47	45275.32
595.62	44971.05
595.78	45366.60
595.94	45418.10
596.10	45436.82
596.25	45455.54
596.41	45371.28
596.57	44928.92
596.73	45247.24
596.88	44900.84
597.04	45198.09
597.20	45429.80
597.36	44994.46
597.51	45354.90
597.67	45207.45
597.83	45469.59
597.99	45698.96
598.14	45734.07
598.30	45113.83
598.46	45139.57
598.61	45469.59
598.77	45031.91
598.93	45184.04
599.09	45111.49
599.24	45624.06
599.40	45453.20
599.56	45392.35
599.71	45595.98
599.87	45598.32
600.03	45177.02
600.18	45467.25
600.34	45518.74
600.50	45127.87
600.65	45244.90
600.81	45544.48
600.97	45488.31
601.12	45659.17
601.28	45558.53
601.44	45443.84
601.59	45406.39
601.75	45462.57
601.91	44933.60
602.06	44947.65
602.22	45385.33
602.37	44985.10
602.53	45116.17
602.69	45270.64
602.84	45125.53
603.00	45387.67
603.16	44762.75
603.31	44809.56
603.47	44900.84
603.62	44830.62
603.78	45104.46
603.94	45029.57
604.09	45340.86
604.25	45471.93
604.40	44861.05
604.56	45382.99
604.71	44973.39
604.87	45104.46
605.03	45141.91
605.18	45088.08
605.34	45193.40
605.49	44563.80
605.65	45015.52
605.80	44790.83
605.96	45385.33
606.12	45074.04
606.27	45216.81
606.43	45205.11
606.58	45359.58
606.74	44994.46
606.89	45029.57
607.05	44933.60
607.20	44996.80
607.36	45050.63
607.51	45226.17
607.67	44992.12
607.82	44949.99
607.98	44818.92
608.13	44800.19
608.29	44879.77
608.44	44636.36
608.60	44306.34
608.75	44547.42
608.91	44823.60
609.06	44706.57
609.22	44952.33
609.37	44287.62
609.53	44271.23
609.68	44676.15
609.84	44868.07
609.99	44353.15
610.15	44619.97
610.30	44692.53
610.46	44818.92
610.61	44547.42
610.76	44502.95
610.92	44638.70
611.07	44313.36
611.23	44318.04
611.38	44762.75
611.54	44655.08
611.69	44449.11
611.84	44208.04
612.00	44856.37
612.15	44299.32
612.31	44299.32
612.46	44369.54
612.62	44835.30
612.77	44435.07
612.92	44254.85
613.08	43906.11
613.23	44304.00
613.39	44233.78
613.54	44119.10
613.69	44589.55
613.85	44313.36
614.00	44559.12
614.15	44158.89
614.31	44423.37
614.46	44835.30
614.62	44240.81
614.77	44016.11
614.92	43887.39
615.08	44268.89
615.23	44116.76
615.38	43826.53
615.54	43913.13
615.69	43777.38
615.84	43803.13
616.00	44177.61
616.15	43819.51
616.30	43957.60
616.46	43608.86
616.61	44081.65
616.76	43871.00
616.92	43386.51
617.07	43632.27
617.22	43416.94
617.37	43620.56
617.53	43817.17
617.68	43831.21
617.83	43964.62
617.99	43707.16
618.14	43709.50
618.29	44034.84
618.45	43784.40
618.60	43737.59
618.75	43639.29
618.90	43950.58
619.06	43878.02
619.21	43384.17
619.36	43711.84
619.51	43540.99
619.67	43426.30
619.82	43615.88
619.97	43856.96
620.12	43185.22
620.28	42916.06
620.43	43035.43
620.58	43522.26
620.73	43068.20
620.89	42845.85
621.04	43367.79
621.19	43023.73
621.34	43136.07
621.49	43119.69
621.65	43253.10
621.80	43201.61
621.95	42775.63
622.10	42979.26
622.25	42859.89
622.41	42590.73
622.56	42689.03
622.71	43288.21
622.86	43075.22
623.01	43051.81
623.16	43540.99
623.32	43065.86
623.47	42735.84
623.62	43239.06
623.77	42834.14
623.92	42784.99
624.07	42178.79
624.23	42646.90
624.38	42796.70
624.53	42693.71
624.68	42564.98
624.83	42593.07
624.98	42895.00
625.13	42490.09
625.29	42562.64
625.44	42574.34
625.59	42319.23
625.74	42375.40
625.89	42239.65
626.04	41806.65
626.19	42707.76
626.34	42822.44
626.49	42220.92
626.65	42246.67
626.80	42794.36
626.95	42174.11
627.10	42223.26
627.25	41918.99
627.40	42085.17
627.55	41738.77
627.70	41626.43
627.85	42073.47
628.00	42160.07
628.15	42288.80
628.30	41961.12
628.45	41890.91
628.60	42040.70
628.76	42363.70
628.91	42071.13
629.06	41816.01
629.21	41668.56
629.36	41551.53
629.51	41703.67
629.66	41291.73
629.81	41539.83
629.96	41682.60
630.11	41926.02
630.26	41806.65
630.41	42005.59
630.56	41425.14
630.71	41944.74
630.86	41584.30
631.01	41155.98
631.16	41404.08
631.31	41326.84
631.46	41329.18
631.61	41464.93
631.76	41418.12
631.91	41661.54
632.06	41294.07
632.21	41577.28
632.36	41017.89
632.51	41237.90
632.66	41399.40
632.81	41228.54
632.96	41186.41
633.10	40975.76
633.25	40704.26
633.40	40870.43
633.55	41603.02
633.70	40985.12
633.85	41284.71
634.00	40964.06
634.15	40832.99
634.30	40982.78
634.45	40996.82
634.60	41373.65
634.75	40992.14
634.90	40907.88
635.05	41188.75
635.19	40879.80
635.34	41015.55
635.49	40980.44
635.64	40652.76
635.79	40758.09
635.94	40268.92
636.09	40978.10
636.24	40460.84
636.39	40074.65
636.53	40383.60
636.68	40809.58
636.83	40161.25
636.98	40748.73
637.13	40306.37
637.28	40231.47
637.43	40669.15
637.57	40477.22
637.72	40634.04
637.87	40603.61
638.02	40390.62
638.17	40517.01
638.32	40116.78
638.46	40299.34
638.61	40041.88
638.76	39569.10
638.91	40437.44
639.06	40315.73
639.20	40069.97
639.35	40444.46
639.50	40055.93
639.65	40421.05
639.80	40051.25
639.94	40076.99
640.09	40109.76
640.24	39779.74
640.39	39606.55
640.54	39873.37
640.68	39894.43
640.83	39573.78
640.98	39725.91
641.13	39477.82
641.27	39636.97
641.42	39639.31
641.57	39735.27
641.72	39629.95
641.86	39456.75
642.01	39318.66
642.16	39278.87
642.31	38639.90
642.45	39225.04
642.60	39526.97
642.75	39208.65
642.90	39480.16
643.04	39033.11
643.19	39306.96
643.34	39618.25
643.48	39688.46
643.63	38986.30
643.78	38981.62
643.93	39218.02
644.07	39040.14
644.22	39325.68
644.37	39028.43
644.51	39512.92
644.66	38960.56
644.81	39145.46
644.95	39005.03
645.10	39089.29
645.25	39615.91
645.39	39248.44
645.54	39295.25
645.69	39386.54
645.83	38665.65
645.98	38986.30
646.13	38724.16
646.27	38925.45
646.42	38705.44
646.57	38621.18
646.71	38560.33
646.86	38934.81
647.00	39108.01
647.15	38834.17
647.30	39290.57
647.44	38536.92
647.59	38845.87
647.74	38639.90
647.88	38515.86
648.03	38480.75
648.17	38328.61
648.32	38649.27
648.47	38749.91
648.61	38583.73
648.76	38298.19
648.90	38562.67
649.05	38953.54
649.20	38270.10
649.34	38773.31
649.49	38518.20
649.63	38576.71
649.78	38405.85
649.92	38459.68
650.07	38646.93
650.21	38157.75
650.36	38455.00
650.51	38174.14
650.65	38183.50
650.80	38742.89
650.94	38623.52
651.09	38244.35
651.23	38700.76
651.38	38059.45
651.52	37977.53
651.67	37860.51
651.81	37933.06
651.96	38314.57
652.10	38218.61
652.25	37502.40
652.39	37720.07
652.54	38082.86
652.68	37818.38
652.83	38024.34
652.97	37879.23
653.12	38263.08
653.26	37244.94
653.41	38178.82
653.55	37809.01
653.70	37378.36
653.84	37699.01
653.99	37544.53
654.13	37621.77
654.27	37301.12
654.42	37689.65
654.56	37759.86
654.71	37659.22
654.85	37792.63
655.00	37584.32
655.14	36999.19
655.29	36938.33
655.43	37109.19
655.57	36828.33
655.72	37036.64
655.86	37090.47
656.01	37015.57
656.15	36690.24
656.30	36919.61
656.44	36987.49
656.58	36910.25
656.73	36432.78
656.87	36774.50
657.01	36638.75
657.16	37153.66
657.30	36905.57
657.45	36493.63
657.59	36664.49
657.73	36676.19
657.88	37146.64
658.02	36655.13
658.16	36708.96
658.31	36725.35
658.45	36926.63
658.60	36669.17
658.74	36786.20
658.88	36982.80
659.03	36634.06
659.17	36170.64
659.31	36734.71
659.46	36154.26
659.60	36620.02
659.74	36282.98
659.89	36219.79
660.03	36421.08
660.17	36144.89
660.32	36301.71
660.46	36252.56
660.60	36467.89
660.74	36500.65
660.89	35934.24
661.03	35810.20
661.17	35735.30
661.32	35730.62
661.46	35304.64
661.60	35569.12
661.74	35693.17
661.89	36107.44
662.03	35571.46
662.17	35892.12
662.31	35276.55
662.46	35744.66
662.60	35419.33
662.74	35604.23
662.88	35892.12
663.03	35538.69
663.17	35377.20
663.31	35512.95
663.45	35466.14
663.60	35440.39
663.74	34742.91
663.88	34941.86
664.02	34660.99
664.17	34925.47
664.31	34195.23
664.45	34850.58
664.59	35236.77
664.73	34686.74
664.88	34752.27
665.02	34473.75
665.16	34326.30
665.30	34415.24
665.44	34300.55
665.59	34625.89
665.73	34113.31
665.87	34113.31
666.01	34199.91
666.15	34132.03
666.29	34185.86
666.44	34197.57
666.58	34602.48
666.72	34197.57
666.86	33909.68
667.00	34366.09
667.14	34272.46
667.28	33525.83
667.43	34253.74
667.57	33495.41
667.71	33296.46
667.85	33895.64
667.99	33610.09
668.13	33684.99
668.27	33635.84
668.41	33998.62
668.56	33219.22
668.70	33432.21
668.84	33397.10
668.98	33001.55
669.12	33284.76
669.26	32978.15
669.40	33020.28
669.54	32877.51
669.68	33277.74
669.82	32954.74
669.96	32999.21
670.10	32973.47
670.25	32889.21
670.39	32493.66
670.53	32573.24
670.67	32362.59
670.81	32542.81
670.95	32900.91
671.09	32428.12
671.23	32678.56
671.37	32783.88
671.51	32727.71
671.65	32659.84
671.79	31866.39
671.93	31985.76
672.07	31924.91
672.21	32123.85
672.35	31854.69
672.49	31700.22
672.63	32053.64
672.77	31674.47
672.91	32006.83
673.05	31545.74
673.19	31697.88
673.33	31613.62
673.47	31555.10
673.61	31119.76
673.75	31253.17
673.89	30934.86
674.03	31112.74
674.17	30911.46
674.31	30909.11
674.45	30794.43
674.59	30747.62
674.73	31304.67
674.87	30937.20
675.01	30773.36
675.15	30731.23
675.29	30658.68
675.43	30600.16
675.56	30522.93
675.70	30305.26
675.84	30316.96
675.98	29795.02
676.12	30225.68
676.26	30347.39
676.40	29610.12
676.54	29776.30
676.68	29893.32
676.82	29577.35
676.96	29874.60
677.10	29149.03
677.23	29673.31
677.37	29432.24
677.51	29394.79
677.65	29242.65
677.79	28727.74
677.93	29305.85
678.07	28828.38
678.21	28727.74
678.34	28788.59
678.48	28374.31
678.62	28503.04
678.76	28355.59
678.90	28119.20
679.04	28339.21
679.18	28521.77
679.31	27817.27
679.45	27735.35
679.59	27718.96
679.73	27681.52
679.87	27440.44
680.00	28046.64
680.14	27681.52
680.28	27711.94
680.42	27543.42
680.56	27424.06
680.70	27304.69
680.83	27096.38
680.97	27063.61
681.11	27075.32
681.25	27019.14
681.39	26883.39
681.52	26679.77
681.66	26817.86
681.80	26789.77
681.94	26476.14
682.07	26642.32
682.21	26270.17
682.35	26169.53
682.49	26256.13
682.62	26483.16
682.76	25993.99
682.90	25799.73
683.04	26324.01
683.17	26122.72
683.31	25624.18
683.45	25975.27
683.59	25624.18
683.72	25666.31
683.86	24954.79
684.00	25207.57
684.13	25584.40
684.27	25413.54
684.41	25348.00
684.55	25013.31
684.68	24973.52
684.82	25287.15
684.96	24922.02
685.09	24765.21
685.23	24767.55
685.37	24531.15
685.50	24570.94
685.64	24713.72
685.78	24203.48
685.91	24362.64
686.05	24297.10
686.19	23711.97
686.32	23955.38
686.46	23658.14
686.60	23520.04
686.73	23608.98
686.87	23339.82
687.01	23489.62
687.14	23417.06
687.28	23110.45
687.42	23396.00
687.55	22867.03
687.69	22897.46
687.82	22927.89
687.96	22483.19
688.10	22700.86
688.23	22593.19
688.37	22455.10
688.50	22267.86
688.64	22391.91
688.78	22317.01
688.91	22230.41
689.05	22225.73
689.18	22073.59
689.32	21752.94
689.46	21839.54
689.59	22214.02
689.73	22001.04
689.86	21324.62
690.00	21497.82
690.13	21958.91
690.27	21268.45
690.41	21245.04
690.54	21432.29
690.68	21254.40
690.81	21074.18
690.95	21177.17
691.08	21095.25
691.22	20999.29
691.35	21111.63
691.49	21294.19
691.62	21046.10
691.76	21064.82
691.89	20676.29
692.03	20514.80
692.16	20273.72
692.30	20245.63
692.43	20411.81
692.57	20339.26
692.70	20032.65
692.84	20357.98
692.97	19978.81
693.11	19889.87
693.24	19686.25
693.38	19433.47
693.51	19349.21
693.65	19398.36
693.78	19559.86
693.92	19417.08
694.05	19580.92
694.19	19098.77
694.32	19262.61
694.45	19332.82
694.59	18979.40
694.72	18892.80
694.86	18927.91
694.99	18590.88
695.13	18291.29
695.26	18546.40
695.39	18349.80
695.53	18310.01
695.66	18167.24
695.80	18249.16
695.93	17996.38
696.07	18068.94
696.20	18279.58
696.33	18181.28
696.47	17865.31
696.60	17877.01
696.73	17682.75
696.87	17638.28
697.00	17542.32
697.14	17951.91
697.27	17401.88
697.40	17252.09
697.54	17338.69
697.67	17146.76
697.80	17261.45
697.94	17165.49
698.07	17090.59
698.21	17067.19
698.34	17123.36
698.47	16826.11
698.61	16554.61
698.74	16585.04
698.87	16828.45
699.01	16482.05
699.14	16407.16
699.27	16203.53
699.40	16290.13
699.54	16114.59
699.67	16072.46
699.80	16231.62
699.94	15999.90
700.07	15777.55
700.20	15903.94
700.34	15903.94
700.47	15866.49
700.60	15819.68
700.73	15805.64
700.87	15623.08
701.00	15740.10
701.13	15742.44
701.26	15379.66
701.40	15297.74
701.53	15190.08
701.66	15527.11
701.79	15262.63
701.93	15049.64
702.06	14778.14
702.19	14562.81
702.32	15082.41
702.46	14754.74
702.59	14839.00
702.72	14803.89
702.85	14750.06
702.99	14696.22
703.12	14782.82
703.25	14796.87
703.38	14310.04
703.51	14380.25
703.65	14382.59
703.78	14129.81
703.91	14197.69
704.04	14054.92
704.17	13898.10
704.31	13750.65
704.44	13722.56
704.57	13678.09
704.70	13584.47
704.83	13678.09
704.96	13923.85
705.10	13930.87
705.23	13687.45
>>>>>End Processed Spectral Data<<<<<
