SpectraSuite Data File
++++++++++++++++++++++++++++++++++++
Date: Fri Oct 25 10:47:26 EDT 2013
User: price-jones
Dark Spectrum Present: No
Reference Spectrum Present: No
Number of Sampled Component Spectra: 1
Spectrometers: USB2+H05261
Integration Time (usec): 100000 (USB2+H05261)
Spectra Averaged: 1 (USB2+H05261)
Boxcar Smoothing: 0 (USB2+H05261)
Correct for Electrical Dark: No (USB2+H05261)
Strobe/Lamp Enabled: No (USB2+H05261)
Correct for Detector Non-linearity: No (USB2+H05261)
Correct for Stray Light: No (USB2+H05261)
Number of Pixels in Processed Spectrum: 2048
>>>>>Begin Processed Spectral Data<<<<<
365.73	224.69
365.92	224.69
366.12	224.69
366.32	32.77
366.52	56.17
366.72	28.09
366.91	77.24
367.11	60.85
367.31	44.47
367.51	30.43
367.70	46.81
367.90	84.26
368.10	25.75
368.30	49.15
368.49	100.64
368.69	51.49
368.89	49.15
369.09	114.69
369.28	65.54
369.48	119.37
369.68	100.64
369.87	131.07
370.07	79.58
370.27	56.17
370.47	128.73
370.66	376.83
370.86	390.87
371.06	461.09
371.25	435.34
371.45	440.02
371.65	458.74
371.84	390.87
372.04	390.87
372.24	437.68
372.44	491.51
372.63	559.39
372.83	510.24
373.03	486.83
373.22	519.60
373.42	564.07
373.62	496.19
373.81	547.69
374.01	512.58
374.21	550.03
374.40	519.60
374.60	594.50
374.79	561.73
374.99	491.51
375.19	547.69
375.38	566.41
375.58	545.34
375.78	564.07
375.97	578.11
376.17	606.20
376.37	575.77
376.56	613.22
376.76	554.71
376.95	620.24
377.15	594.50
377.35	610.88
377.54	585.13
377.74	564.07
377.93	608.54
378.13	575.77
378.33	664.71
378.52	624.92
378.72	678.76
378.91	603.86
379.11	671.73
379.31	599.18
379.50	601.52
379.70	655.35
379.89	657.69
380.09	650.67
380.28	662.37
380.48	709.18
380.68	622.58
380.87	657.69
381.07	624.92
381.26	727.91
381.46	631.94
381.65	725.57
381.85	641.31
382.04	627.26
382.24	657.69
382.43	676.41
382.63	671.73
382.83	709.18
383.02	760.67
383.22	674.07
383.41	774.72
383.61	755.99
383.80	772.38
384.00	809.83
384.19	697.48
384.39	683.44
384.58	793.44
384.78	772.38
384.97	765.36
385.17	737.27
385.36	826.21
385.56	653.01
385.75	660.03
385.95	840.25
386.14	786.42
386.34	657.69
386.53	713.86
386.72	737.27
386.92	727.91
387.11	812.17
387.31	847.27
387.50	847.27
387.70	826.21
387.89	777.06
388.09	816.85
388.28	777.06
388.48	854.30
388.67	840.25
388.86	898.77
389.06	847.27
389.25	844.93
389.45	812.17
389.64	922.17
389.84	910.47
390.03	875.36
390.22	917.49
390.42	947.92
390.61	952.60
390.81	847.27
391.00	966.64
391.19	1046.22
391.39	943.24
391.58	1004.09
391.78	938.55
391.97	1018.13
392.16	919.83
392.36	978.34
392.55	985.37
392.75	1053.24
392.94	947.92
393.13	973.66
393.33	924.51
393.52	980.68
393.71	1013.45
393.91	1034.52
394.10	1074.31
394.29	1034.52
394.49	1011.11
394.68	1069.62
394.88	1128.14
395.07	1151.54
395.26	1146.86
395.46	1095.37
395.65	1081.33
395.84	1067.28
396.04	1144.52
396.23	1128.14
396.42	1160.91
396.62	1149.20
396.81	1149.20
397.00	1076.65
397.19	1200.69
397.39	1259.21
397.58	1252.19
397.77	1238.14
397.97	1254.53
398.16	1296.66
398.35	1303.68
398.55	1252.19
398.74	1287.29
398.93	1301.34
399.12	1299.00
399.32	1359.85
399.51	1345.81
399.70	1401.98
399.90	1331.76
400.09	1453.47
400.28	1458.15
400.47	1329.42
400.67	1406.66
400.86	1511.99
401.05	1416.02
401.24	1474.54
401.44	1406.66
401.63	1451.13
401.82	1423.05
402.01	1465.18
402.21	1596.25
402.40	1547.09
402.59	1474.54
402.78	1497.94
402.97	1486.24
403.17	1657.10
403.36	1542.41
403.55	1516.67
403.74	1652.42
403.93	1739.02
404.13	1633.69
404.32	1605.61
404.51	1664.12
404.70	1673.48
404.89	1776.47
405.09	1717.95
405.28	1743.70
405.47	1673.48
405.66	1659.44
405.85	1720.29
406.05	1736.68
406.24	1783.49
406.43	1767.10
406.62	1856.04
406.81	1863.07
407.00	1748.38
407.20	1762.42
407.39	1914.56
407.58	1914.56
407.77	1818.60
407.96	1846.68
408.15	1844.34
408.34	1891.15
408.54	1952.01
408.73	2019.88
408.92	1998.82
409.11	1921.58
409.30	2080.74
409.49	1947.33
409.68	1989.46
409.87	2024.56
410.07	2036.27
410.26	2029.24
410.45	2066.69
410.64	2143.93
410.83	2188.40
411.02	2237.55
411.21	2186.06
411.40	2298.41
411.59	2363.94
411.78	2375.64
411.98	2314.79
412.17	2333.51
412.36	2387.35
412.55	2289.04
412.74	2401.39
412.93	2448.20
413.12	2441.18
413.31	2565.23
413.50	2525.44
413.69	2511.39
413.88	2555.86
414.07	2487.99
414.26	2663.53
414.45	2686.94
414.64	2698.64
414.83	2738.43
415.02	2665.87
415.22	2752.47
415.41	2733.75
415.60	2794.60
415.79	2752.47
415.98	2759.49
416.17	2888.22
416.36	2991.20
416.55	2825.03
416.74	2820.35
416.93	2787.58
417.12	2956.10
417.31	2916.31
417.50	2850.77
417.69	3173.77
417.88	3049.72
418.07	3012.27
418.26	3054.40
418.45	3141.00
418.64	3105.89
418.83	3251.00
419.02	3007.59
419.21	3173.77
419.39	3173.77
419.58	3131.64
419.77	3068.44
419.96	3169.09
420.15	3229.94
420.34	3328.24
420.53	3318.88
420.72	3449.95
420.91	3311.86
421.10	3499.10
421.29	3501.44
421.48	3386.76
421.67	3363.35
421.86	3517.83
422.05	3267.39
422.24	3375.05
422.43	3456.97
422.61	3489.74
422.80	3496.76
422.99	3571.66
423.18	3440.59
423.37	3562.30
423.56	3487.40
423.75	3449.95
423.94	3463.99
424.13	3246.32
424.32	3396.12
424.50	3576.34
424.69	3618.47
424.88	3583.36
425.07	3442.93
425.26	3410.16
425.45	3534.21
425.64	3691.02
425.83	3569.32
426.01	3552.93
426.20	3634.85
426.39	3655.92
426.58	3578.68
426.77	3599.74
426.96	3578.68
427.15	3555.27
427.33	3653.58
427.52	3576.34
427.71	3754.22
427.90	3672.30
428.09	3709.75
428.28	3896.99
428.46	3737.84
428.65	3843.16
428.84	3824.44
429.03	3934.44
429.22	3723.79
429.40	3779.97
429.59	3796.35
429.78	3590.38
429.97	3676.98
430.16	3550.59
430.34	3803.37
430.53	3946.14
430.72	3941.46
430.91	3927.42
431.10	3915.72
431.28	3904.01
431.47	4142.75
431.66	4102.96
431.85	4065.51
432.03	4086.58
432.22	4135.73
432.41	4109.98
432.60	4100.62
432.79	4217.65
432.97	4234.03
433.16	4269.14
433.35	4227.01
433.54	4180.20
433.72	4294.88
433.91	4234.03
434.10	4339.35
434.28	4280.84
434.47	4493.83
434.66	4470.42
434.85	4440.00
435.03	4418.93
435.22	4367.44
435.41	4557.02
435.59	4510.21
435.78	4514.89
435.97	4510.21
436.16	4531.28
436.34	4547.66
436.53	4491.49
436.72	4601.49
436.90	4531.28
437.09	4620.22
437.28	4479.79
437.46	4601.49
437.65	4660.01
437.84	4788.74
438.02	4671.71
438.21	4657.67
438.40	4678.73
438.58	4821.50
438.77	4910.44
438.96	4835.55
439.14	4826.18
439.33	4973.64
439.52	4997.04
439.70	5153.86
439.89	5116.41
440.08	5008.75
440.26	5104.71
440.45	5118.75
440.63	5273.23
440.82	5200.67
441.01	5390.25
441.19	5495.58
441.38	5509.62
441.57	5364.51
441.75	5537.71
441.94	5631.33
442.12	5671.12
442.31	5575.16
442.50	5659.42
442.68	5743.67
442.87	5708.57
443.05	5596.22
443.24	5788.14
443.43	5769.42
443.61	5783.46
443.80	5891.13
443.98	5743.67
444.17	5483.88
444.35	5776.44
444.54	5921.56
444.73	5806.87
444.91	5715.59
445.10	5872.40
445.28	5863.04
445.47	5722.61
445.65	5673.46
445.84	5860.70
446.02	5949.64
446.21	5935.60
446.39	5799.85
446.58	5930.92
446.77	5795.17
446.95	5769.42
447.14	5856.02
447.32	5898.15
447.51	5916.87
447.69	5891.13
447.88	5738.99
448.06	5898.15
448.25	6059.65
448.43	6106.46
448.62	6078.37
448.80	6099.44
448.99	6090.07
449.17	6155.61
449.36	6146.25
449.54	6218.80
449.73	6317.11
449.91	6338.17
450.10	6317.11
450.28	6359.24
450.46	6490.31
450.65	6427.11
450.83	6368.60
451.02	6380.30
451.20	6457.54
451.39	6436.47
451.57	6492.65
451.76	6209.44
451.94	6429.45
452.13	6574.56
452.31	6490.31
452.49	6207.10
452.68	6558.18
452.86	6422.43
453.05	6586.27
453.23	6715.00
453.42	6586.27
453.60	6600.31
453.78	6609.67
453.97	6600.31
454.15	6647.12
454.34	6635.42
454.52	6703.29
454.70	6679.89
454.89	6782.87
455.07	6834.36
455.26	6864.79
455.44	6993.52
455.62	6918.62
455.81	6988.84
455.99	6850.75
456.17	6986.50
456.36	7021.61
456.54	7101.19
456.73	7143.32
456.91	7283.75
457.09	7157.36
457.28	7358.64
457.46	7236.94
457.64	7274.38
457.83	7283.75
458.01	7096.50
458.19	7286.09
458.38	7248.64
458.56	7311.83
458.74	7335.24
458.93	7253.32
459.11	7508.44
459.29	7426.52
459.48	7529.50
459.66	7332.90
459.84	7550.57
460.03	7573.97
460.21	7585.68
460.39	7637.17
460.57	7597.38
460.76	7627.81
460.94	7639.51
461.12	7782.28
461.31	7728.45
461.49	7700.36
461.67	7761.22
461.85	8009.31
462.04	7679.30
462.22	8318.26
462.40	7976.55
462.59	7901.65
462.77	7861.86
462.95	7971.86
463.13	7861.86
463.32	7941.44
463.50	7932.08
463.68	7981.23
463.86	8187.19
464.05	8023.36
464.23	8100.59
464.41	8070.17
464.59	8079.53
464.78	8386.14
464.96	8145.06
465.14	7985.91
465.32	8292.52
465.50	8252.73
465.69	8472.74
465.87	8379.12
466.05	8177.83
466.23	8346.35
466.41	8355.71
466.60	8428.27
466.78	8217.62
466.96	8191.88
467.14	8402.52
467.32	8486.78
467.51	8683.39
467.69	8355.71
467.87	8369.76
468.05	8697.43
468.23	8589.77
468.41	8379.12
468.60	8465.72
468.78	8667.00
468.96	8683.39
469.14	8755.94
469.32	8650.62
469.50	8699.77
469.69	8769.99
469.87	8938.51
470.05	8755.94
470.23	8952.55
470.41	8919.78
470.59	8978.30
470.77	8760.63
470.95	9060.21
471.14	9170.22
471.32	8889.35
471.50	9334.06
471.68	9174.90
471.86	9205.33
472.04	9387.89
472.22	9579.81
472.40	9095.32
472.58	9312.99
472.77	9390.23
472.95	9617.26
473.13	9685.14
473.31	9748.33
473.49	9558.75
473.67	9530.66
473.85	9865.36
474.03	9753.01
474.21	9916.85
474.39	10258.57
474.57	9919.19
474.75	10150.90
474.93	10031.54
475.12	10239.84
475.30	10101.75
475.48	9937.91
475.66	10202.40
475.84	10171.97
476.02	10174.31
476.20	10195.37
476.38	10289.00
476.56	10649.44
476.74	10518.37
476.92	10740.72
477.10	10628.37
477.28	10984.13
477.46	10787.53
477.64	11101.16
477.82	11030.94
478.00	11269.68
478.18	11220.53
478.36	11648.85
478.54	11501.39
478.72	11634.80
478.90	11772.89
479.08	11894.60
479.26	11892.26
479.44	11969.50
479.62	11960.14
479.80	11962.48
479.98	12009.29
480.16	12329.94
480.34	12252.70
480.52	12154.40
480.70	12369.73
480.88	12348.67
481.06	12409.52
481.24	12587.40
481.41	12774.64
481.59	12938.48
481.77	12849.54
481.95	13132.75
482.13	13231.05
482.31	13282.54
482.49	13671.07
482.67	13270.84
482.85	13792.78
483.03	13427.65
483.21	13685.11
483.39	14024.49
483.57	13755.33
483.74	14026.83
483.92	14223.44
484.10	14040.87
484.28	14169.60
484.46	14778.14
484.64	15035.60
484.82	14483.24
485.00	14684.52
485.18	15129.22
485.35	15197.10
485.53	14696.22
485.71	15019.22
485.89	15384.34
486.07	15000.49
486.25	15613.71
486.43	15424.13
486.61	15784.57
486.78	15756.49
486.96	16086.50
487.14	15981.18
487.32	16147.36
487.50	16292.47
487.68	16414.18
487.85	16699.72
488.03	16730.15
488.21	17053.14
488.39	16514.82
488.57	17434.65
488.75	17238.05
488.92	17301.24
489.10	17415.93
489.28	17631.26
489.46	18064.25
489.64	18019.78
489.81	18178.94
489.99	18471.51
490.17	18129.79
490.35	18600.24
490.53	18579.17
490.70	18885.78
490.88	18857.70
491.06	19014.51
491.24	19136.22
491.41	18946.64
491.59	18902.17
491.77	19281.33
491.95	19154.94
492.13	19796.25
492.30	19810.29
492.48	19800.93
492.66	19934.34
492.84	20182.44
493.01	20046.69
493.19	20144.99
493.37	20184.78
493.54	20568.63
493.72	20475.01
493.90	20519.48
494.08	20908.01
494.25	21221.64
494.43	21228.66
494.61	21539.95
494.79	21188.87
494.96	21376.11
495.14	21603.14
495.32	21785.71
495.49	21612.51
495.67	21884.01
495.85	21963.59
496.02	22202.32
496.20	22207.00
496.38	22356.80
496.55	22359.14
496.73	22874.06
496.91	22780.43
497.09	22848.31
497.26	23150.24
497.44	22951.29
497.62	22965.34
497.79	23426.42
497.97	22871.72
498.14	23346.84
498.32	23737.71
498.50	23845.38
498.67	23693.24
498.85	24077.09
499.03	24093.47
499.20	24074.75
499.38	24269.01
499.56	24313.48
499.73	24166.03
499.91	24383.70
500.08	24568.60
500.26	24428.17
500.44	24638.82
500.61	24606.05
500.79	24577.97
500.97	24758.19
501.14	24835.42
501.32	25406.52
501.49	25221.61
501.67	25167.78
501.84	25427.58
502.02	25092.88
502.20	25663.97
502.37	25820.79
502.55	25418.22
502.72	25783.34
502.90	25888.67
503.07	25514.18
503.25	25930.80
503.43	26340.39
503.60	25937.82
503.78	26312.30
503.95	26178.89
504.13	26328.69
504.30	26478.48
504.48	26747.64
504.65	26731.26
504.83	26637.64
505.01	27075.32
505.18	26852.97
505.36	27239.15
505.53	26822.54
505.71	27112.77
505.88	27482.57
506.06	27241.50
506.23	27236.81
506.41	27297.67
506.58	27440.44
506.76	27445.12
506.93	28032.60
507.11	27669.81
507.28	27702.58
507.46	27599.60
507.63	27957.70
507.81	27960.04
507.98	27831.31
508.16	28070.04
508.33	28549.85
508.50	28198.77
508.68	28657.52
508.85	28856.46
509.03	28566.24
509.20	28856.46
509.38	28711.35
509.55	29179.46
509.73	29001.58
509.90	29024.98
510.08	29139.67
510.25	28973.49
510.42	29734.17
510.60	29670.97
510.77	29462.66
510.95	29591.39
511.12	29453.30
511.30	29645.23
511.47	29778.64
511.64	29958.86
511.82	29827.79
511.99	30031.41
512.17	30064.18
512.34	29811.40
512.51	30513.56
512.69	30225.68
512.86	30040.78
513.04	30511.22
513.21	30113.33
513.38	30799.11
513.56	30590.80
513.73	30438.67
513.90	30738.26
514.08	30438.67
514.25	31295.30
514.43	30962.95
514.60	30558.03
514.77	30904.43
514.95	30960.61
515.12	31180.62
515.29	31337.43
515.47	31508.29
515.64	31784.48
515.81	31505.95
515.99	31697.88
516.16	31477.86
516.33	31424.03
516.51	32107.47
516.68	31435.74
516.85	31552.76
517.03	31924.91
517.20	31665.11
517.37	31484.89
517.54	32528.77
517.72	31978.74
517.89	31866.39
518.06	32027.89
518.24	32191.73
518.41	32072.36
518.58	32395.35
518.75	32512.38
518.93	32961.76
519.10	32933.68
519.27	32748.78
519.45	33020.28
519.62	32973.47
519.79	33031.98
519.96	32875.16
520.14	33172.41
520.31	33081.13
520.48	33251.99
520.65	33434.55
520.83	33525.83
521.00	33745.84
521.17	33390.08
521.34	33956.49
521.52	33699.03
521.69	33673.29
521.86	33944.79
522.03	33944.79
522.20	33853.51
522.38	34328.64
522.55	34579.07
522.72	34033.73
522.89	34321.62
523.07	34171.82
523.24	34160.12
523.41	34429.28
523.58	34279.49
523.75	34485.45
523.92	34761.64
524.10	34930.16
524.27	34529.92
524.44	35161.87
524.61	34801.43
524.78	35194.64
524.96	35145.48
525.13	35042.50
525.30	35196.98
525.47	35557.42
525.64	35229.74
525.81	35468.48
525.98	35199.32
526.16	35126.76
526.33	35777.43
526.50	35936.59
526.67	35379.54
526.84	35878.07
527.01	35311.66
527.18	35941.27
527.36	35805.52
527.53	35948.29
527.70	35999.78
527.87	35842.96
528.04	35824.24
528.21	36004.46
528.38	36013.82
528.55	36208.09
528.72	36030.21
528.89	36755.77
529.07	36346.18
529.24	35887.43
529.41	36278.30
529.58	36217.45
529.75	36617.68
529.92	36692.58
530.09	36596.62
530.26	36582.57
530.43	36921.95
530.60	36414.05
530.77	36751.09
530.94	36950.04
531.11	37008.55
531.28	36891.52
531.46	37415.80
531.63	37060.04
531.80	37479.00
531.97	37174.73
532.14	37172.39
532.31	37542.19
532.48	37305.80
532.65	37778.59
532.82	37270.69
532.99	37523.47
533.16	37280.05
533.33	37455.59
533.50	37823.06
533.67	37408.78
533.84	37675.60
534.01	37975.19
534.18	37764.54
534.35	38431.60
534.52	37909.66
534.69	38064.13
534.86	38267.76
535.03	37801.99
535.20	38356.70
535.37	38508.83
535.54	38450.32
535.71	38330.95
535.88	38197.54
536.05	38218.61
536.22	38574.37
536.38	38291.16
536.55	38129.67
536.72	38684.37
536.89	38513.52
537.06	38387.13
537.23	38801.40
537.40	38785.02
537.57	38492.45
537.74	39173.55
537.91	38754.59
538.08	38876.30
538.25	39288.23
538.42	39023.75
538.59	39243.76
538.75	39007.37
538.92	39019.07
539.09	39459.09
539.26	39435.69
539.43	39157.16
539.60	39145.46
539.77	39203.97
539.94	39253.12
540.11	39100.99
540.28	39281.21
540.44	39079.92
540.61	39283.55
540.78	39515.26
540.95	39313.98
541.12	39178.23
541.29	40091.04
541.46	39754.00
541.62	39592.50
541.79	39988.05
541.96	39276.53
542.13	39784.43
542.30	39901.45
542.47	40023.16
542.63	39864.00
542.80	40006.78
542.97	40371.90
543.14	40699.58
543.31	40858.73
543.48	40608.29
543.64	41277.69
543.81	40711.28
543.98	40608.29
544.15	40648.08
544.32	40804.90
544.48	40947.67
544.65	40692.55
544.82	40884.48
544.99	40694.89
545.16	40671.49
545.32	40786.18
545.49	40978.10
545.66	41207.47
545.83	40809.58
546.00	41331.52
546.16	41207.47
546.33	41165.34
546.50	40612.98
546.67	40629.36
546.83	40872.78
547.00	41530.47
547.17	41024.91
547.34	40706.60
547.50	41214.49
547.67	41275.35
547.84	41280.03
548.00	41436.84
548.17	41373.65
548.34	41127.89
548.51	41694.30
548.67	41975.17
548.84	41411.10
549.01	41535.15
549.18	41188.75
549.34	41596.00
549.51	41373.65
549.68	42120.28
549.84	41687.28
550.01	42096.88
550.18	41914.31
550.34	41722.39
550.51	41792.61
550.68	41361.95
550.84	41724.73
551.01	41993.89
551.18	41689.62
551.34	42342.63
551.51	42490.09
551.68	42038.36
551.84	42251.35
552.01	42113.26
552.18	42597.75
552.34	41787.92
552.51	42728.82
552.68	42263.05
552.84	42120.28
553.01	42618.81
553.18	42611.79
553.34	42534.56
553.51	41937.72
553.67	42534.56
553.84	42878.61
554.01	42679.67
554.17	42988.62
554.34	42555.62
554.51	42520.51
554.67	42859.89
554.84	42689.03
555.00	42555.62
555.17	42321.57
555.33	42857.55
555.50	42574.34
555.67	43129.05
555.83	42902.02
556.00	42494.77
556.16	43386.51
556.33	43456.73
556.50	42974.58
556.66	43253.10
556.83	42864.57
556.99	43217.99
557.16	43009.68
557.32	43311.61
557.49	43632.27
557.65	42534.56
557.82	42848.19
557.98	42997.98
558.15	43005.00
558.32	43124.37
558.48	43075.22
558.65	43199.27
558.81	43351.40
558.98	43501.20
559.14	43110.33
559.31	43297.57
559.47	43351.40
559.64	43590.14
559.80	43543.33
559.97	43239.06
560.13	43543.33
560.30	43267.14
560.46	43672.06
560.63	43592.48
560.79	43821.85
560.96	43929.51
561.12	43732.91
561.29	43536.30
561.45	43805.47
561.61	43564.39
561.78	43515.24
561.94	43634.61
562.11	43885.04
562.27	43763.34
562.44	43625.25
562.60	43653.33
562.77	44044.20
562.93	43597.16
563.10	44079.31
563.26	43756.32
563.42	43665.03
563.59	43688.44
563.75	43821.85
563.92	43711.84
564.08	44100.37
564.24	44135.48
564.41	43618.22
564.57	43863.98
564.74	43798.44
564.90	44081.65
565.07	43887.39
565.23	43952.92
565.39	43796.10
565.56	44107.40
565.72	43669.72
565.88	44247.83
566.05	43826.53
566.21	43941.22
566.38	43796.10
566.54	43981.01
566.70	43910.79
566.87	44133.14
567.03	43653.33
567.19	44189.31
567.36	44252.51
567.52	44210.38
567.68	44186.97
567.85	43913.13
568.01	44119.10
568.17	43770.36
568.34	44076.97
568.50	43945.90
568.66	43929.51
568.83	44226.76
568.99	43702.48
569.15	44399.96
569.32	44098.03
569.48	43871.00
569.64	44673.81
569.81	44371.88
569.97	43906.11
570.13	44210.38
570.30	43929.51
570.46	43978.67
570.62	43779.72
570.78	44161.23
570.95	44184.63
571.11	44505.29
571.27	44453.79
571.43	44594.23
571.60	44575.50
571.76	44343.79
571.92	43934.20
572.09	44257.19
572.25	44194.00
572.41	43842.92
572.57	44315.70
572.74	44493.58
572.90	44467.84
573.06	44313.36
573.22	44488.90
573.38	44556.78
573.55	44140.16
573.71	44320.38
573.87	44357.83
574.03	44203.36
574.20	44390.60
574.36	44123.78
574.52	44608.27
574.68	44041.86
574.84	44783.81
575.01	44306.34
575.17	44046.54
575.33	44362.51
575.49	44804.88
575.65	44664.44
575.82	45003.82
575.98	44502.95
576.14	44989.78
576.30	44758.06
576.46	44261.87
576.62	44383.58
576.79	44648.06
576.95	43812.49
577.11	44512.31
577.27	44495.92
577.43	44477.20
577.59	44790.83
577.75	44458.48
577.92	44002.07
578.08	44854.03
578.24	44336.77
578.40	44596.57
578.56	44729.98
578.72	44587.21
578.88	44877.43
579.04	44811.90
579.21	44760.40
579.37	44842.32
579.53	44264.21
579.69	44392.94
579.85	44163.57
580.01	44755.72
580.17	44673.81
580.33	45247.24
580.49	44554.44
580.65	44800.19
580.82	45326.81
580.98	44294.64
581.14	44388.26
581.30	45111.49
581.46	44786.15
581.62	44781.47
581.78	44774.45
581.94	44919.56
582.10	44444.43
582.26	44758.06
582.42	44823.60
582.58	44935.95
582.74	44414.01
582.90	44273.57
583.06	44999.14
583.22	44664.44
583.38	44985.10
583.54	44734.66
583.70	44580.18
583.86	44507.63
584.02	44395.28
584.18	44589.55
584.34	44814.24
584.50	44575.50
584.66	44645.72
584.82	44563.80
584.98	44816.58
585.14	44729.98
585.30	44648.06
585.46	44568.48
585.62	44474.86
585.78	44540.39
585.94	43934.20
586.10	44348.47
586.26	44355.49
586.42	44685.51
586.58	44949.99
586.74	44872.75
586.90	44626.99
587.06	44280.60
587.22	44879.77
587.38	44540.39
587.54	45010.84
587.70	45134.89
587.86	44926.58
588.02	44774.45
588.18	44996.80
588.34	44580.18
588.49	44608.27
588.65	44179.95
588.81	44114.42
588.97	44231.44
589.13	44332.09
589.29	44278.25
589.45	44910.20
589.61	44945.31
589.77	44868.07
589.93	44559.12
590.08	45022.54
590.24	44854.03
590.40	45141.91
590.56	45017.86
590.72	45048.29
590.88	44760.40
591.04	45160.64
591.20	45251.92
591.35	45057.65
591.51	45462.57
591.67	45193.40
591.83	44928.92
591.99	44839.98
592.15	44722.96
592.31	44804.88
592.46	44914.88
592.62	44905.52
592.78	45095.10
592.94	45223.83
593.10	44699.55
593.26	45144.25
593.41	44933.60
593.57	45308.09
593.73	44914.88
593.89	44928.92
594.05	44732.32
594.20	44924.24
594.36	45340.86
594.52	45036.59
594.68	44847.00
594.84	44954.67
594.99	45261.28
595.15	44968.71
595.31	45401.71
595.47	44989.78
595.62	45191.06
595.78	44842.32
595.94	45193.40
596.10	45041.27
596.25	45003.82
596.41	45375.97
596.57	45146.59
596.73	44945.31
596.88	44935.95
597.04	45160.64
597.20	45310.43
597.36	44912.54
597.51	45275.32
597.67	45247.24
597.83	45031.91
597.99	45448.52
598.14	45359.58
598.30	44898.50
598.46	44914.88
598.61	45013.18
598.77	45017.86
598.93	45228.51
599.09	45237.87
599.24	45500.01
599.40	45382.99
599.56	44872.75
599.71	45258.94
599.87	45471.93
600.03	45041.27
600.18	44987.44
600.34	45436.82
600.50	45317.45
600.65	45134.89
600.81	45319.79
600.97	45177.02
601.12	46007.91
601.28	45153.62
601.44	44851.69
601.59	44938.29
601.75	44928.92
601.91	45092.76
602.06	45015.52
602.22	45408.73
602.37	44879.77
602.53	45177.02
602.69	45628.74
602.84	44910.20
603.00	45254.26
603.16	44856.37
603.31	44982.76
603.47	45502.35
603.62	44842.32
603.78	45064.67
603.94	45160.64
604.09	45193.40
604.25	45244.90
604.40	44931.26
604.56	45364.26
604.71	45385.33
604.87	45024.89
605.03	44844.66
605.18	44851.69
605.34	44816.58
605.49	44531.03
605.65	45354.90
605.80	44933.60
605.96	45144.25
606.12	45219.15
606.27	45715.34
606.43	44914.88
606.58	45116.17
606.74	44973.39
606.89	44891.48
607.05	45277.66
607.20	44856.37
607.36	45036.59
607.51	45212.13
607.67	45418.10
607.82	44917.22
607.98	44839.98
608.13	44669.12
608.29	44601.25
608.44	44636.36
608.60	44086.33
608.75	44512.31
608.91	44451.45
609.06	44645.72
609.22	45162.98
609.37	44507.63
609.53	44275.91
609.68	44823.60
609.84	44540.39
609.99	44989.78
610.15	44708.91
610.30	44531.03
610.46	44552.10
610.61	44617.63
610.76	44839.98
610.92	44727.64
611.07	44493.58
611.23	44299.32
611.38	44296.98
611.54	44552.10
611.69	44442.09
611.84	44318.04
612.00	44322.72
612.15	44201.02
612.31	44397.62
612.46	44271.23
612.62	44570.82
612.77	44105.06
612.92	44563.80
613.08	44348.47
613.23	44439.75
613.39	44357.83
613.54	44102.71
613.69	44060.58
613.85	44198.68
614.00	44486.56
614.15	44669.12
614.31	44509.97
614.46	44446.77
614.62	44194.00
614.77	44020.80
614.92	44060.58
615.08	44170.59
615.23	44254.85
615.38	44086.33
615.54	43391.19
615.69	43945.90
615.84	43838.23
616.00	44112.08
616.15	44177.61
616.30	44041.86
616.46	43892.07
616.61	43667.37
616.76	43814.83
616.92	43526.94
617.07	43606.52
617.22	43941.22
617.37	43545.67
617.53	43641.63
617.68	44236.12
617.83	44051.22
617.99	43873.34
618.14	43569.07
618.29	43643.97
618.45	43447.36
618.60	43470.77
618.75	43622.90
618.90	43686.10
619.06	43416.94
619.21	43529.28
619.36	43447.36
619.51	43433.32
619.67	43236.72
619.82	43569.07
619.97	43716.53
620.12	43246.08
620.28	43208.63
620.43	42766.27
620.58	43313.95
620.73	43082.24
620.89	43000.32
621.04	43264.80
621.19	43040.11
621.34	42911.38
621.49	43014.37
621.65	43215.65
621.80	43023.73
621.95	42979.26
622.10	42997.98
622.25	42579.03
622.41	43260.12
622.56	42974.58
622.71	43260.12
622.86	42993.30
623.01	43559.71
623.16	43283.53
623.32	42920.74
623.47	42864.57
623.62	43049.47
623.77	42604.77
623.92	42770.95
624.07	42188.16
624.23	42600.09
624.38	42969.90
624.53	42883.30
624.68	42504.13
624.83	42483.06
624.98	42363.70
625.13	42405.83
625.29	42726.48
625.44	42672.65
625.59	42532.22
625.74	41823.03
625.89	41865.16
626.04	42218.58
626.19	42139.00
626.34	42244.33
626.49	42693.71
626.65	42356.67
626.80	42131.98
626.95	41991.55
627.10	42000.91
627.25	42321.57
627.40	42064.11
627.55	41476.63
627.70	42120.28
627.85	41659.20
628.00	41865.16
628.15	42522.85
628.30	41944.74
628.45	42485.40
628.60	42036.02
628.76	42089.85
628.91	41759.84
629.06	41851.12
629.21	41509.40
629.36	41701.32
629.51	41741.11
629.66	41916.65
629.81	41862.82
629.96	41581.96
630.11	41689.62
630.26	41560.89
630.41	41654.51
630.56	41455.57
630.71	41668.56
630.86	41478.97
631.01	41411.10
631.16	41584.30
631.31	41684.94
631.46	41155.98
631.61	41024.91
631.76	41471.95
631.91	41558.55
632.06	41083.42
632.21	41464.93
632.36	41619.41
632.51	41198.11
632.66	41263.64
632.81	41111.51
632.96	41429.82
633.10	40896.18
633.25	41184.07
633.40	41104.49
633.55	41237.90
633.70	41242.58
633.85	41130.23
634.00	41060.02
634.15	40828.30
634.30	40463.18
634.45	40753.41
634.60	40685.53
634.75	41024.91
634.90	40952.35
635.05	41041.29
635.19	40535.74
635.34	41198.11
635.49	40725.32
635.64	40650.42
635.79	40442.12
635.94	40758.09
636.09	40474.88
636.24	40334.45
636.39	40439.78
636.53	40252.53
636.68	40329.77
636.83	40418.71
636.98	40919.59
637.13	40275.94
637.28	40428.07
637.43	40786.18
637.57	40720.64
637.72	40107.42
637.87	40257.21
638.02	40212.74
638.17	40360.20
638.32	40074.65
638.46	39927.20
638.61	40112.10
638.76	39880.39
638.91	40287.64
639.06	40240.83
639.20	39983.37
639.35	40329.77
639.50	40067.63
639.65	39981.03
639.80	40470.20
639.94	39812.51
640.09	40018.48
640.24	39604.20
640.39	39936.56
640.54	39697.83
640.68	39681.44
640.83	39732.93
640.98	39674.42
641.13	39690.80
641.27	39751.66
641.42	39419.30
641.57	39978.69
641.72	39658.04
641.86	39318.66
642.01	39590.16
642.16	39908.47
642.31	38850.55
642.45	39323.34
642.60	39313.98
642.75	39318.66
642.90	39730.59
643.04	39267.17
643.19	39309.30
643.34	39454.41
643.48	39440.37
643.63	39400.58
643.78	39330.36
643.93	39435.69
644.07	38644.59
644.22	39400.58
644.37	38902.04
644.51	38885.66
644.66	39363.13
644.81	39302.28
644.95	39646.33
645.10	39187.59
645.25	39363.13
645.39	39365.47
645.54	39356.11
645.69	38918.43
645.83	38763.95
645.98	38806.08
646.13	39089.29
646.27	39145.46
646.42	38693.74
646.57	39000.35
646.71	38614.16
646.86	38747.57
647.00	38789.70
647.15	38939.49
647.30	38873.96
647.44	38808.42
647.59	38565.01
647.74	38969.92
647.88	38396.49
648.03	38675.01
648.17	38995.67
648.32	38162.43
648.47	38464.36
648.61	38611.82
648.76	38904.38
648.90	38576.71
649.05	38658.63
649.20	38714.80
649.34	38864.60
649.49	38314.57
649.63	38014.98
649.78	38731.18
649.92	38195.20
650.07	38829.49
650.21	38085.20
650.36	38330.95
650.51	38071.15
650.65	38653.95
650.80	38609.48
650.94	38349.68
651.09	38368.40
651.23	38415.21
651.38	38192.86
651.52	38246.69
651.67	38089.88
651.81	37738.80
651.96	38157.75
652.10	37858.17
652.25	37584.32
652.39	37481.34
652.54	37628.79
652.68	37890.93
652.83	37933.06
652.97	37951.79
653.12	38211.59
653.26	37764.54
653.41	38127.33
653.55	37787.95
653.70	37635.81
653.84	37979.87
653.99	37811.35
654.13	37528.15
654.27	37366.65
654.42	37776.25
654.56	37251.97
654.71	37837.10
654.85	37713.05
655.00	37205.16
655.14	37095.15
655.29	37326.86
655.43	37654.54
655.57	37209.84
655.72	36844.71
655.86	36971.10
656.01	37191.11
656.15	36849.39
656.30	36971.10
656.44	37090.47
656.58	37233.24
656.73	37097.49
656.87	36652.79
657.01	36950.04
657.16	36978.12
657.30	36549.81
657.45	36477.25
657.59	36788.54
657.73	36669.17
657.88	36797.90
658.02	36896.20
658.16	36528.74
658.31	36816.63
658.45	37024.93
658.60	36737.05
658.74	36903.23
658.88	36643.43
659.03	36779.18
659.17	36615.34
659.31	36397.67
659.46	36175.32
659.60	36566.19
659.74	36423.42
659.89	36018.50
660.03	35906.16
660.17	36479.59
660.32	36273.62
660.46	36392.99
660.60	36357.88
660.74	36432.78
660.89	36180.00
661.03	36184.68
661.17	35817.22
661.32	35498.91
661.46	35491.88
661.60	35101.01
661.74	35693.17
661.89	35784.45
662.03	35658.06
662.17	35697.85
662.31	35786.79
662.46	36126.17
662.60	35358.47
662.74	35730.62
662.88	35557.42
663.03	35447.41
663.17	35421.67
663.31	35196.98
663.45	34969.94
663.60	35159.53
663.74	35161.87
663.88	34983.99
664.02	34703.12
664.17	34920.79
664.31	34700.78
664.45	34649.29
664.59	35129.10
664.73	34792.06
664.88	34902.07
665.02	34478.43
665.16	34511.20
665.30	34660.99
665.44	34651.63
665.59	33776.27
665.73	34054.79
665.87	33986.92
666.01	34017.35
666.15	34089.90
666.29	33764.57
666.44	34653.97
666.58	33916.70
666.72	33965.85
666.86	34249.06
667.00	34541.63
667.14	34019.69
667.28	33759.89
667.43	33654.56
667.57	33940.11
667.71	33317.53
667.85	33551.58
667.99	33654.56
668.13	33354.97
668.27	33390.08
668.41	33642.86
668.56	33319.87
668.70	33380.72
668.84	33392.42
668.98	33443.91
669.12	33598.39
669.26	33050.70
669.40	33165.39
669.54	33069.43
669.68	33085.81
669.82	32959.42
669.96	32905.59
670.10	32685.58
670.25	32748.78
670.39	32889.21
670.53	32889.21
670.67	32797.93
670.81	32730.05
670.95	32840.06
671.09	32493.66
671.23	32580.26
671.37	32589.62
671.51	32477.27
671.65	32409.40
671.79	31880.44
671.93	32367.27
672.07	31835.97
672.21	32182.37
672.35	31725.96
672.49	31868.73
672.63	31721.28
672.77	31819.58
672.91	31723.62
673.05	31440.42
673.19	31309.35
673.33	31531.70
673.47	31381.90
673.61	30895.07
673.75	30665.70
673.89	30998.06
674.03	31227.43
674.17	30845.92
674.31	31028.48
674.45	31075.29
674.59	30813.15
674.73	31283.60
674.87	30857.62
675.01	30773.36
675.15	30869.33
675.29	30981.67
675.43	30834.22
675.56	30630.59
675.70	30670.38
675.84	30178.87
675.98	29406.49
676.12	29577.35
676.26	30125.04
676.40	29991.62
676.54	29724.80
676.68	30127.38
676.82	29450.96
676.96	29745.87
677.10	29081.16
677.23	29441.60
677.37	29621.82
677.51	29345.64
677.65	29099.88
677.79	28872.85
677.93	28842.42
678.07	29319.89
678.21	28477.30
678.34	28856.46
678.48	28676.24
678.62	28603.69
678.76	28500.70
678.90	28510.07
679.04	28290.06
679.18	28290.06
679.31	28297.08
679.45	28067.70
679.59	27845.35
679.73	27784.50
679.87	27840.67
680.00	27845.35
680.14	27552.79
680.28	27889.82
680.42	27344.48
680.56	27538.74
680.70	27786.84
680.83	27180.64
680.97	26930.20
681.11	26757.00
681.25	26796.79
681.39	26871.69
681.52	26845.94
681.66	27117.45
681.80	26974.67
681.94	26668.06
682.07	26335.71
682.21	26455.08
682.35	26632.96
682.49	26464.44
682.62	26068.89
682.76	25797.38
682.90	25820.79
683.04	26015.05
683.17	26246.77
683.31	25982.29
683.45	26235.06
683.59	25834.83
683.72	25252.04
683.86	25010.96
684.00	25277.79
684.13	25469.71
684.27	25642.91
684.41	25216.93
684.55	25015.65
684.68	24847.13
684.82	24442.21
684.96	24865.85
685.09	24613.07
685.23	24863.51
685.37	24416.47
685.50	24561.58
685.64	24449.24
685.78	24224.54
685.91	24093.47
686.05	23697.92
686.19	23723.67
686.32	24030.28
686.46	23707.29
686.60	23452.17
686.73	23906.23
686.87	23445.15
687.01	23321.10
687.14	23000.44
687.28	23012.15
687.42	22892.78
687.55	22862.35
687.69	23063.64
687.82	22817.88
687.96	23035.55
688.10	22663.41
688.23	22686.81
688.37	22654.05
688.50	22293.60
688.64	22302.96
688.78	22335.73
688.91	22291.26
689.05	22541.70
689.18	22387.22
689.32	21530.59
689.46	21799.75
689.59	22366.16
689.73	22012.74
689.86	21460.37
690.00	21617.19
690.13	21610.17
690.27	21549.31
690.41	21673.36
690.54	21296.53
690.68	21413.56
690.81	21146.74
690.95	20741.83
691.08	20910.35
691.22	20893.96
691.35	21015.67
691.49	20994.61
691.62	20877.58
691.76	21064.82
691.89	20835.45
692.03	20563.95
692.16	20336.91
692.30	20215.21
692.43	20400.11
692.57	20191.80
692.70	19896.89
692.84	19913.28
692.97	19880.51
693.11	19793.91
693.24	19679.22
693.38	19625.39
693.51	19770.51
693.65	19321.12
693.78	19501.34
693.92	19456.87
694.05	19281.33
694.19	19101.11
694.32	19176.01
694.45	19082.39
694.59	18960.68
694.72	19016.85
694.86	18525.34
694.99	18616.62
695.13	18787.48
695.26	18265.54
695.39	17989.36
695.53	18548.75
695.66	18593.22
695.80	18331.08
695.93	18630.66
696.07	18122.77
696.20	18487.89
696.33	18211.71
696.47	18115.75
696.60	17942.55
696.73	17872.33
696.87	17722.54
697.00	17949.57
697.14	17816.16
697.27	17516.57
697.40	17446.35
697.54	17273.15
697.67	17200.60
697.80	17254.43
697.94	17305.92
698.07	17383.16
698.21	16971.22
698.34	17071.87
698.47	17046.12
698.61	16638.87
698.74	16587.38
698.87	16915.05
699.01	16477.37
699.14	16388.43
699.27	16336.94
699.40	16283.11
699.54	16030.33
699.67	16046.71
699.80	16175.44
699.94	16025.65
700.07	16044.37
700.20	15953.09
700.34	15985.86
700.47	15976.50
700.60	15796.28
700.73	15920.32
700.87	15793.94
701.00	15592.65
701.13	15681.59
701.26	15627.76
701.40	15435.83
701.53	15110.50
701.66	15133.90
701.79	14927.94
701.93	14930.28
702.06	14618.99
702.19	14850.70
702.32	14572.18
702.46	14551.11
702.59	14871.76
702.72	14583.88
702.85	14855.38
702.99	14736.01
703.12	14604.94
703.25	14572.18
703.38	14445.79
703.51	14338.12
703.65	14305.35
703.78	14061.94
703.91	14101.73
704.04	14078.32
704.17	14204.71
704.31	14012.79
704.44	13497.87
704.57	13554.04
704.70	13408.93
704.83	13460.42
704.96	13757.67
705.10	13582.13
705.23	13783.41
>>>>>End Processed Spectral Data<<<<<
