SpectraSuite Data File
++++++++++++++++++++++++++++++++++++
Date: Fri Oct 25 11:34:30 EDT 2013
User: price-jones
Dark Spectrum Present: No
Reference Spectrum Present: No
Number of Sampled Component Spectra: 1
Spectrometers: USB2+H05261
Integration Time (usec): 100000 (USB2+H05261)
Spectra Averaged: 1 (USB2+H05261)
Boxcar Smoothing: 0 (USB2+H05261)
Correct for Electrical Dark: No (USB2+H05261)
Strobe/Lamp Enabled: No (USB2+H05261)
Correct for Detector Non-linearity: No (USB2+H05261)
Correct for Stray Light: No (USB2+H05261)
Number of Pixels in Processed Spectrum: 2048
>>>>>Begin Processed Spectral Data<<<<<
365.73	210.65
365.92	210.65
366.12	210.65
366.32	212.99
366.52	184.90
366.72	173.20
366.91	196.60
367.11	180.22
367.31	177.88
367.51	191.92
367.70	142.77
367.90	159.16
368.10	135.75
368.30	201.29
368.49	177.88
368.69	231.71
368.89	212.99
369.09	205.97
369.28	194.26
369.48	224.69
369.68	290.23
369.87	236.39
370.07	276.18
370.27	285.55
370.47	308.95
370.66	489.17
370.86	596.84
371.06	547.69
371.25	510.24
371.45	585.13
371.65	510.24
371.84	566.41
372.04	528.96
372.24	568.75
372.44	606.20
372.63	578.11
372.83	545.34
373.03	582.79
373.22	585.13
373.42	655.35
373.62	699.82
373.81	592.16
374.01	711.52
374.21	543.00
374.40	627.26
374.60	643.65
374.79	550.03
374.99	638.97
375.19	681.10
375.38	667.05
375.58	643.65
375.78	653.01
375.97	634.29
376.17	760.67
376.37	678.76
376.56	634.29
376.76	720.88
376.95	627.26
377.15	653.01
377.35	688.12
377.54	695.14
377.74	669.39
377.93	664.71
378.13	676.41
378.33	720.88
378.52	711.52
378.72	739.61
378.91	706.84
379.11	702.16
379.31	737.27
379.50	692.80
379.70	807.48
379.89	697.48
380.09	711.52
380.28	758.33
380.48	702.16
380.68	657.69
380.87	741.95
381.07	791.10
381.26	777.06
381.46	737.27
381.65	734.93
381.85	716.20
382.04	758.33
382.24	664.71
382.43	739.61
382.63	678.76
382.83	746.63
383.02	744.29
383.22	784.08
383.41	786.42
383.61	786.42
383.80	880.04
384.00	814.51
384.19	833.23
384.39	889.40
384.58	793.44
384.78	760.67
384.97	828.55
385.17	854.30
385.36	725.57
385.56	891.74
385.75	763.01
385.95	741.95
386.14	837.91
386.34	812.17
386.53	851.96
386.72	866.00
386.92	919.83
387.11	880.04
387.31	891.74
387.50	915.15
387.70	870.68
387.89	947.92
388.09	880.04
388.28	863.66
388.48	837.91
388.67	905.79
388.86	936.21
389.06	896.43
389.25	987.71
389.45	976.00
389.64	884.72
389.84	954.94
390.03	950.26
390.22	933.87
390.42	870.68
390.61	912.81
390.81	847.27
391.00	877.70
391.19	1013.45
391.39	917.49
391.58	983.02
391.78	1053.24
391.97	1041.54
392.16	966.64
392.36	1025.15
392.55	1139.84
392.75	983.02
392.94	1050.90
393.13	1053.24
393.33	1018.13
393.52	1029.84
393.71	999.41
393.91	1090.69
394.10	1004.09
394.29	1060.26
394.49	1034.52
394.68	1060.26
394.88	1177.29
395.07	1081.33
395.26	1139.84
395.46	1139.84
395.65	1137.50
395.84	1146.86
396.04	1242.82
396.23	1221.76
396.42	1172.61
396.62	1207.72
396.81	1139.84
397.00	1196.01
397.19	1123.46
397.39	1188.99
397.58	1165.59
397.77	1198.35
397.97	1261.55
398.16	1238.14
398.35	1238.14
398.55	1219.42
398.74	1196.01
398.93	1296.66
399.12	1263.89
399.32	1231.12
399.51	1277.93
399.70	1317.72
399.90	1336.45
400.09	1324.74
400.28	1376.24
400.47	1306.02
400.67	1355.17
400.86	1373.89
401.05	1317.72
401.24	1315.38
401.44	1453.47
401.63	1479.22
401.82	1397.30
402.01	1280.27
402.21	1404.32
402.40	1439.43
402.59	1392.62
402.78	1439.43
402.97	1472.20
403.17	1441.77
403.36	1561.14
403.55	1554.12
403.74	1570.50
403.93	1631.35
404.13	1551.78
404.32	1582.20
404.51	1619.65
404.70	1687.53
404.89	1568.16
405.09	1696.89
405.28	1603.27
405.47	1577.52
405.66	1617.31
405.85	1558.80
406.05	1614.97
406.24	1666.46
406.43	1661.78
406.62	1692.21
406.81	1767.10
407.00	1720.29
407.20	1717.95
407.39	1687.53
407.58	1825.62
407.77	1849.02
407.96	1966.05
408.15	1846.68
408.34	1820.94
408.54	1928.60
408.73	1795.19
408.92	1797.53
409.11	1926.26
409.30	1842.00
409.49	1912.22
409.68	1937.96
409.87	1837.32
410.07	1893.49
410.26	2015.20
410.45	2012.86
410.64	2008.18
410.83	2036.27
411.02	2005.84
411.21	2174.36
411.40	2092.44
411.59	2127.55
411.78	2071.37
411.98	2169.68
412.17	2167.34
412.36	2162.66
412.55	2277.34
412.74	2195.42
412.93	2253.94
413.12	2291.38
413.31	2342.88
413.50	2328.83
413.69	2333.51
413.88	2483.31
414.07	2349.90
414.26	2410.75
414.45	2450.54
414.64	2368.62
414.83	2403.73
415.02	2434.16
415.22	2583.95
415.41	2635.44
415.60	2448.20
415.79	2647.15
415.98	2670.55
416.17	2572.25
416.36	2483.31
416.55	2621.40
416.74	2698.64
416.93	2696.30
417.12	2764.17
417.31	2677.57
417.50	2738.43
417.69	2773.53
417.88	2857.79
418.07	2822.69
418.26	2874.18
418.45	2857.79
418.64	3021.63
418.83	2995.89
419.02	2953.76
419.21	2991.20
419.39	3084.83
419.58	3077.80
419.77	2815.66
419.96	3180.79
420.15	2960.78
420.34	3047.38
420.53	3089.51
420.72	3166.74
420.91	3187.81
421.10	3173.77
421.29	3185.47
421.48	3066.10
421.67	3199.51
421.86	3126.96
422.05	3239.30
422.24	3150.36
422.43	3164.40
422.61	3126.96
422.80	3328.24
422.99	3206.53
423.18	3330.58
423.37	3417.18
423.56	3328.24
423.75	3208.87
423.94	3316.54
424.13	3110.57
424.32	3255.69
424.50	3370.37
424.69	3452.29
424.88	3314.20
425.07	3276.75
425.26	3260.37
425.45	3293.13
425.64	3255.69
425.83	3417.18
426.01	3410.16
426.20	3232.28
426.39	3365.69
426.58	3438.25
426.77	3318.88
426.96	3433.57
427.15	3276.75
427.33	3405.48
427.52	3482.72
427.71	3419.52
427.90	3468.67
428.09	3431.23
428.28	3419.52
428.46	3672.30
428.65	3543.57
428.84	3604.42
429.03	3723.79
429.22	3517.83
429.40	3574.00
429.59	3632.51
429.78	3576.34
429.97	3527.19
430.16	3550.59
430.34	3730.81
430.53	3590.38
430.72	3644.21
430.91	3726.13
431.10	3744.86
431.28	3758.90
431.47	3730.81
431.66	3875.93
431.85	3817.41
432.03	3794.01
432.22	3927.42
432.41	3784.65
432.60	3885.29
432.79	3978.91
432.97	3826.78
433.16	4067.85
433.35	3939.12
433.54	4039.76
433.72	4138.07
433.91	4070.19
434.10	4142.75
434.28	4067.85
434.47	4203.60
434.66	4177.86
434.85	4189.56
435.03	4318.29
435.22	4063.17
435.41	4329.99
435.59	4234.03
435.78	4234.03
435.97	4243.39
436.16	4372.12
436.34	4320.63
436.53	4432.97
436.72	4374.46
436.90	4222.33
437.09	4241.05
437.28	4318.29
437.46	4376.80
437.65	4390.84
437.84	4421.27
438.02	4442.34
438.21	4524.26
438.40	4437.66
438.58	4601.49
438.77	4491.49
438.96	4538.30
439.14	4697.46
439.33	4688.09
439.52	4720.86
439.70	4844.91
439.89	4910.44
440.08	4709.16
440.26	4795.76
440.45	4788.74
440.63	4788.74
440.82	4943.21
441.01	4884.70
441.19	4882.36
441.38	4938.53
441.57	5076.62
441.75	5074.28
441.94	5174.92
442.12	5261.52
442.31	5355.15
442.50	5263.86
442.68	5174.92
442.87	5163.22
443.05	5238.12
443.24	5444.09
443.43	5320.04
443.61	5355.15
443.80	5528.35
443.98	5331.74
444.17	5245.14
444.35	5210.03
444.54	5317.70
444.73	5334.08
444.91	5357.49
445.10	5460.47
445.28	5474.51
445.47	5373.87
445.65	5509.62
445.84	5507.28
446.02	5495.58
446.21	5568.13
446.39	5504.94
446.58	5514.30
446.77	5584.52
446.95	5413.66
447.14	5455.79
447.32	5654.73
447.51	5619.63
447.69	5565.79
447.88	5582.18
448.06	5460.47
448.25	5593.88
448.43	5607.92
448.62	5617.29
448.80	5572.82
448.99	5486.22
449.17	5680.48
449.36	5738.99
449.54	5734.31
449.73	5785.80
449.91	5774.10
450.10	5715.59
450.28	5856.02
450.46	5996.45
450.65	5874.74
450.83	5912.19
451.02	5916.87
451.20	6083.05
451.39	5886.45
451.57	5844.32
451.76	5872.40
451.94	5884.11
452.13	6040.92
452.31	5902.83
452.49	5935.60
452.68	6008.16
452.86	6061.99
453.05	6080.71
453.23	6101.78
453.42	6054.97
453.60	6162.63
453.78	6193.06
453.97	6265.61
454.15	6113.48
454.34	6169.65
454.52	6424.77
454.70	6190.72
454.89	6291.36
455.07	6492.65
455.26	6434.13
455.44	6441.15
455.62	6429.45
455.81	6438.81
455.99	6197.74
456.17	6462.22
456.36	6427.11
456.54	6654.14
456.73	6689.25
456.91	6504.35
457.09	6607.33
457.28	6764.15
457.46	6527.75
457.64	6626.06
457.83	6731.38
458.01	6703.29
458.19	6693.93
458.38	6946.71
458.56	6986.50
458.74	6970.12
458.93	6953.73
459.11	6923.30
459.29	6920.96
459.48	7021.61
459.66	7117.57
459.84	7021.61
460.03	7124.59
460.21	6951.39
460.39	7155.02
460.57	7016.93
460.76	7180.76
460.94	7279.07
461.12	7311.83
461.31	7206.51
461.49	7103.53
461.67	7014.59
461.85	7449.93
462.04	7211.19
462.22	7772.92
462.40	7459.29
462.59	7398.43
462.77	7473.33
462.95	7487.37
463.13	7566.95
463.32	7499.08
463.50	7396.09
463.68	7581.00
463.86	7798.66
464.05	7410.14
464.23	7480.35
464.41	7576.31
464.59	7503.76
464.78	7810.37
464.96	7742.49
465.14	7676.96
465.32	7882.92
465.50	7847.82
465.69	7665.25
465.87	7789.30
466.05	7681.64
466.23	7700.36
466.41	7702.70
466.60	7964.84
466.78	7861.86
466.96	7817.39
467.14	7878.24
467.32	7899.31
467.51	7918.03
467.69	7681.64
467.87	8107.62
468.05	8079.53
468.23	7939.10
468.41	8180.17
468.60	8109.96
468.78	7894.63
468.96	7971.86
469.14	8004.63
469.32	8290.18
469.50	8081.87
469.69	8442.31
469.87	8468.06
470.05	8355.71
470.23	8428.27
470.41	8365.07
470.59	8535.93
470.77	8465.72
470.95	8667.00
471.14	8545.30
471.32	8479.76
471.50	8737.22
471.68	8688.07
471.86	8601.47
472.04	8732.54
472.22	8985.32
472.40	8922.12
472.58	8800.41
472.77	9006.38
472.95	8978.30
473.13	9202.99
473.31	8915.10
473.49	8943.19
473.67	9025.11
473.85	9076.60
474.03	9415.98
474.21	9404.27
474.39	9298.95
474.57	9240.44
474.75	9345.76
474.93	9397.25
475.12	9554.07
475.30	9797.48
475.48	9696.84
475.66	9748.33
475.84	9523.64
476.02	9825.57
476.20	9727.27
476.38	9970.68
476.56	10260.91
476.74	10017.49
476.92	10101.75
477.10	10092.39
477.28	10022.17
477.46	10134.52
477.64	10312.40
477.82	10532.41
478.00	10775.83
478.18	10569.86
478.36	10796.89
478.54	10815.62
478.72	10848.38
478.90	11122.23
479.08	10909.24
479.26	10949.03
479.44	11250.96
479.62	11318.83
479.80	11124.57
479.98	11543.52
480.16	11550.54
480.34	11309.47
480.52	11742.47
480.70	11679.27
480.88	11690.98
481.06	11749.49
481.24	11934.39
481.41	12032.69
481.59	12081.85
481.77	12203.55
481.95	12395.48
482.13	12564.00
482.31	12524.21
482.49	12879.97
482.67	12734.85
482.85	12886.99
483.03	12849.54
483.21	12908.05
483.39	13041.46
483.57	13233.39
483.74	13308.29
483.92	13266.16
484.10	13233.39
484.28	13673.41
484.46	13839.59
484.64	13975.34
484.82	14031.51
485.00	13954.27
485.18	13968.32
485.35	14279.61
485.53	14427.06
485.71	14534.73
485.89	14710.27
486.07	14506.64
486.25	14860.06
486.43	14668.14
486.61	15056.67
486.78	14951.34
486.96	15105.82
487.14	15405.41
487.32	15365.62
487.50	15339.87
487.68	15779.89
487.85	16063.10
488.03	15929.69
488.21	15971.82
488.39	16294.81
488.57	16180.12
488.75	16318.22
488.92	16500.78
489.10	16917.39
489.28	16793.34
489.46	16992.29
489.64	16961.86
489.81	16833.13
489.99	17301.24
490.17	17111.66
490.35	17741.26
490.53	17664.02
490.70	17717.86
490.88	17500.19
491.06	18284.26
491.24	17921.48
491.41	18190.64
491.59	18090.00
491.77	18211.71
491.95	18218.73
492.13	18909.19
492.30	18754.71
492.48	18890.46
492.66	18904.51
492.84	19005.15
493.01	19211.12
493.19	19295.38
493.37	19204.10
493.54	19260.27
493.72	19501.34
493.90	19716.67
494.08	20023.28
494.25	19711.99
494.43	19833.70
494.61	19805.61
494.79	20159.03
494.96	20313.51
495.14	20629.48
495.32	20631.82
495.49	20720.76
495.67	20622.46
495.85	20992.26
496.02	21029.71
496.20	21277.81
496.38	21156.10
496.55	21490.80
496.73	21539.95
496.91	21888.69
497.09	22132.11
497.26	21923.80
497.44	22008.06
497.62	22274.88
497.79	22359.14
497.97	22373.18
498.14	22595.53
498.32	22988.74
498.50	22618.94
498.67	22864.69
498.85	22771.07
499.03	23073.00
499.20	23042.57
499.38	22878.74
499.56	23065.98
499.73	23351.52
499.91	23765.80
500.08	23358.55
500.26	23534.09
500.44	23644.09
500.61	23637.07
500.79	23620.69
500.97	24081.77
501.14	24297.10
501.32	24341.57
501.49	24526.47
501.67	24058.37
501.84	24215.18
502.02	24456.26
502.20	24577.97
502.37	24809.68
502.55	24751.17
502.72	24788.61
502.90	24973.52
503.07	24540.52
503.25	25008.62
503.43	24760.53
503.60	25029.69
503.78	25296.51
503.95	25156.08
504.13	25179.48
504.30	25500.14
504.48	25411.20
504.65	25549.29
504.83	25722.49
505.01	25923.77
505.18	25883.98
505.36	25935.48
505.53	26195.28
505.71	26111.02
505.88	26218.68
506.06	25577.37
506.23	26354.43
506.41	25949.52
506.58	26244.43
506.76	26754.66
506.93	26834.24
507.11	26726.58
507.28	26948.93
507.46	26946.59
507.63	27091.70
507.81	27314.05
507.98	26991.06
508.16	27110.43
508.33	27466.19
508.50	27335.12
508.68	27534.06
508.85	27852.38
509.03	27566.83
509.20	27730.67
509.38	27784.50
509.55	27868.76
509.73	27878.12
509.90	28004.51
510.08	27943.66
510.25	27835.99
510.42	28304.10
510.60	28570.92
510.77	28430.49
510.95	28542.83
511.12	28371.97
511.30	28355.59
511.47	28627.09
511.64	28620.07
511.82	29469.69
511.99	28837.74
512.17	29104.56
512.34	28767.52
512.51	29198.18
512.69	29479.05
512.86	29689.70
513.04	29516.50
513.21	29486.07
513.38	29741.19
513.56	29965.88
513.73	29577.35
513.90	29764.59
514.08	29958.86
514.25	30101.63
514.43	29982.26
514.60	30115.67
514.77	29855.87
514.95	30541.65
515.12	30127.38
515.29	30256.11
515.47	30857.62
515.64	30630.59
515.81	30520.59
515.99	30309.94
516.16	30726.55
516.33	30588.46
516.51	31026.14
516.68	30927.84
516.85	30806.13
517.03	30822.51
517.20	31358.50
517.37	31381.90
517.54	31508.29
517.72	31211.04
517.89	31445.10
518.06	31491.91
518.24	31402.97
518.41	31461.48
518.58	31608.93
518.75	31384.24
518.93	31880.44
519.10	32371.95
519.27	32032.57
519.45	31838.31
519.62	32236.20
519.79	32566.21
519.96	32053.64
520.14	32051.30
520.31	32306.41
520.48	32364.93
520.65	32886.87
520.83	32870.48
521.00	32622.39
521.17	32500.68
521.34	33036.66
521.52	32914.95
521.69	32428.12
521.86	32816.65
522.03	33167.73
522.20	33118.58
522.38	33453.28
522.55	33509.45
522.72	33481.36
522.89	33642.86
523.07	33537.54
523.24	33331.57
523.41	33502.43
523.58	33682.65
523.75	33619.46
523.92	33649.88
524.10	33755.21
524.27	34181.18
524.44	34033.73
524.61	33809.04
524.78	33968.19
524.96	34120.33
525.13	34256.08
525.30	34387.15
525.47	34754.61
525.64	33888.62
525.81	34768.66
525.98	34380.13
526.16	34522.90
526.33	34792.06
526.50	35091.65
526.67	34878.66
526.84	35136.12
527.01	34871.64
527.18	34944.20
527.36	35227.40
527.53	35037.82
527.70	35775.09
527.87	35126.76
528.04	35915.52
528.21	35351.45
528.38	35374.86
528.55	35711.89
528.72	35770.41
528.89	35931.90
529.07	35571.46
529.24	35267.19
529.41	35515.29
529.58	35880.41
529.75	35803.17
529.92	35950.63
530.09	35604.23
530.26	35702.53
530.43	36311.07
530.60	35969.35
530.77	36123.83
530.94	36039.57
531.11	36116.81
531.28	36404.69
531.46	36402.35
531.63	36458.52
531.80	36238.51
531.97	36659.81
532.14	36175.32
532.31	36397.67
532.48	36634.06
532.65	36982.80
532.82	36465.55
532.99	36924.29
533.16	36622.36
533.33	37120.90
533.50	37387.72
533.67	36818.97
533.84	36851.73
534.01	36910.25
534.18	37109.19
534.35	37434.53
534.52	37315.16
534.69	37628.79
534.86	37605.39
535.03	37713.05
535.20	37446.23
535.37	37886.25
535.54	37624.11
535.71	37525.81
535.88	37579.64
536.05	37771.57
536.22	37743.48
536.38	37731.78
536.55	37446.23
536.72	37801.99
536.89	38012.64
537.06	38075.84
537.23	38260.74
537.40	38087.54
537.57	37970.51
537.74	37816.04
537.91	38370.74
538.08	38225.63
538.25	37926.04
538.42	37773.91
538.59	38447.98
538.75	38019.66
538.92	38607.14
539.09	38581.39
539.26	39093.97
539.43	38607.14
539.60	38934.81
539.77	38607.14
539.94	39267.17
540.11	38637.56
540.28	39007.37
540.44	38799.06
540.61	38747.57
540.78	38939.49
540.95	39145.46
541.12	38902.04
541.29	39194.61
541.46	39152.48
541.62	39147.80
541.79	39416.96
541.96	39051.84
542.13	39304.62
542.30	39075.24
542.47	39746.98
542.63	39461.43
542.80	39948.26
542.97	39854.64
543.14	40076.99
543.31	39714.21
543.48	39702.51
543.64	40196.36
543.81	40261.90
543.98	40299.34
544.15	39646.33
544.32	40245.51
544.48	40762.77
544.65	40392.97
544.82	40612.98
544.99	40620.00
545.16	40289.98
545.32	40041.88
545.49	40715.96
545.66	40620.00
545.83	40517.01
546.00	40856.39
546.16	40355.52
546.33	40402.33
546.50	40545.10
546.67	41132.57
546.83	40275.94
547.00	40722.98
547.17	40364.88
547.34	40404.67
547.50	40942.99
547.67	41310.46
547.84	41163.00
548.00	41160.66
548.17	41654.51
548.34	41354.93
548.51	41326.84
548.67	41439.18
548.84	40964.06
549.01	41439.18
549.18	41184.07
549.34	41617.07
549.51	41486.00
549.68	41617.07
549.84	42026.66
550.01	41776.22
550.18	41607.70
550.34	41537.49
550.51	41713.03
550.68	41797.29
550.84	41596.00
551.01	42286.46
551.18	41731.75
551.34	41673.24
551.51	41942.40
551.68	41993.89
551.84	41471.95
552.01	42038.36
552.18	41881.55
552.34	41942.40
552.51	42014.96
552.68	41918.99
552.84	42108.58
553.01	42375.40
553.18	42295.82
553.34	42043.04
553.51	42160.07
553.67	42185.82
553.84	42239.65
554.01	42513.49
554.17	42586.05
554.34	42677.33
554.51	42792.01
554.67	42932.45
554.84	42724.14
555.00	42696.05
555.17	42270.08
555.33	42616.47
555.50	42497.11
555.67	42246.67
555.83	42628.18
556.00	42684.35
556.16	43391.19
556.33	42817.76
556.50	42684.35
556.66	42955.85
556.83	42731.16
556.99	43320.98
557.16	43246.08
557.32	42909.04
557.49	43180.54
557.65	42997.98
557.82	42953.51
557.98	42958.19
558.15	42960.53
558.32	43232.04
558.48	43147.78
558.65	42782.65
558.81	43164.16
558.98	42913.72
559.14	43594.82
559.31	43229.69
559.47	43339.70
559.64	43578.43
559.80	43079.90
559.97	43250.76
560.13	43044.79
560.30	43430.98
560.46	43718.87
560.63	43580.78
560.79	43585.46
560.96	43966.96
561.12	43608.86
561.29	43941.22
561.45	43393.53
561.61	43737.59
561.78	43800.79
561.94	43777.38
562.11	43562.05
562.27	43746.95
562.44	43632.27
562.60	43498.86
562.77	43803.13
562.93	43899.09
563.10	43945.90
563.26	44037.18
563.42	44332.09
563.59	44289.96
563.75	43658.01
563.92	44196.34
564.08	43931.86
564.24	44402.30
564.41	44095.69
564.57	44186.97
564.74	44287.62
564.90	43662.69
565.07	44156.55
565.23	44011.43
565.39	44048.88
565.56	44446.77
565.72	44229.10
565.88	44032.50
566.05	44226.76
566.21	44112.08
566.38	44224.42
566.54	44381.24
566.70	44306.34
566.87	44313.36
567.03	44142.50
567.19	44737.00
567.36	44128.46
567.52	44238.47
567.68	44563.80
567.85	44617.63
568.01	44767.43
568.17	44194.00
568.34	44488.90
568.50	44839.98
568.66	44397.62
568.83	44570.82
568.99	44360.17
569.15	44074.63
569.32	44390.60
569.48	44701.89
569.64	44713.59
569.81	44456.14
569.97	44776.79
570.13	44952.33
570.30	43985.69
570.46	44634.02
570.62	44605.93
570.78	44594.23
570.95	44563.80
571.11	44935.95
571.27	44598.91
571.43	44907.86
571.60	44524.01
571.76	44414.01
571.92	45076.38
572.09	44617.63
572.25	44390.60
572.41	44421.03
572.57	44685.51
572.74	45027.23
572.90	44980.42
573.06	44842.32
573.22	44835.30
573.38	45249.58
573.55	45006.16
573.71	45478.95
573.87	44957.01
574.03	44905.52
574.20	45024.89
574.36	44952.33
574.52	44802.53
574.68	44779.13
574.84	45092.76
575.01	45350.22
575.17	45193.40
575.33	45280.00
575.49	44769.77
575.65	45528.10
575.82	44949.99
575.98	45017.86
576.14	45109.14
576.30	45331.50
576.46	45144.25
576.62	45160.64
576.79	44973.39
576.95	44804.88
577.11	44587.21
577.27	44793.17
577.43	44985.10
577.59	45048.29
577.75	44935.95
577.92	45036.59
578.08	45298.73
578.24	45120.85
578.40	45010.84
578.56	45249.58
578.72	45240.21
578.88	45036.59
579.04	45207.45
579.21	44907.86
579.37	44751.04
579.53	44982.76
579.69	45336.18
579.85	44982.76
580.01	45319.79
580.17	45062.33
580.33	45312.77
580.49	44980.42
580.65	45209.79
580.82	45106.80
580.98	45221.49
581.14	45244.90
581.30	45277.66
581.46	45148.93
581.62	44882.11
581.78	45331.50
581.94	44961.69
582.10	45448.52
582.26	45586.61
582.42	44964.03
582.58	44926.58
582.74	45778.54
582.90	45221.49
583.06	45090.42
583.22	44722.96
583.38	45521.08
583.54	45535.12
583.70	45198.09
583.86	45523.42
584.02	45469.59
584.18	45745.77
584.34	45659.17
584.50	45478.95
584.66	45612.36
584.82	45385.33
584.98	45542.14
585.14	45059.99
585.30	45127.87
585.46	45378.31
585.62	44900.84
585.78	45329.16
585.94	45095.10
586.10	45579.59
586.26	45532.78
586.42	45289.37
586.58	45677.90
586.74	45174.68
586.90	45172.34
587.06	45434.48
587.22	45464.91
587.38	45471.93
587.54	45492.99
587.70	45972.80
587.86	45390.01
588.02	45291.71
588.18	45642.79
588.34	45483.63
588.49	45167.66
588.65	45462.57
588.81	45687.26
588.97	45570.23
589.13	45387.67
589.29	45230.85
589.45	45914.29
589.61	46005.57
589.77	46092.17
589.93	45904.93
590.08	45759.81
590.24	46354.31
590.40	46419.84
590.56	45511.72
590.72	46176.43
590.88	45532.78
591.04	45326.81
591.20	46122.60
591.35	45762.15
591.51	46213.88
591.67	46382.40
591.83	46564.96
591.99	46096.85
592.15	45708.32
592.31	45741.09
592.46	46054.72
592.62	45659.17
592.78	46136.64
592.94	46197.49
593.10	46192.81
593.26	46356.65
593.41	46057.06
593.57	46321.54
593.73	46113.23
593.89	45986.85
594.05	46398.78
594.20	45841.73
594.36	46653.90
594.52	46260.69
594.68	46178.77
594.84	45787.90
594.99	46258.35
595.15	45769.18
595.31	46195.15
595.47	46387.08
595.62	46244.30
595.78	45848.75
595.94	46157.70
596.10	46050.04
596.25	46300.48
596.41	46197.49
596.57	45558.53
596.73	46321.54
596.88	46113.23
597.04	46010.25
597.20	46265.37
597.36	46403.46
597.51	46143.66
597.67	45968.12
597.83	46045.36
597.99	46188.13
598.14	45823.01
598.30	45666.19
598.46	46050.04
598.61	46450.27
598.77	45989.19
598.93	45748.11
599.09	45989.19
599.24	46829.44
599.40	46066.42
599.56	46532.19
599.71	46522.83
599.87	46560.28
600.03	46279.41
600.18	46476.02
600.34	46164.73
600.50	46120.26
600.65	46358.99
600.81	46483.04
600.97	46326.22
601.12	46447.93
601.28	46689.01
601.44	46593.04
601.59	46265.37
601.75	46007.91
601.91	46426.87
602.06	46422.19
602.22	46457.29
602.37	46401.12
602.53	46124.94
602.69	46511.13
602.84	46127.28
603.00	45532.78
603.16	46398.78
603.31	46543.89
603.47	46396.44
603.62	46607.09
603.78	46656.24
603.94	46153.02
604.09	46354.31
604.25	45806.62
604.40	46162.39
604.56	46337.93
604.71	46588.36
604.87	46480.70
605.03	46288.77
605.18	46162.39
605.34	46597.73
605.49	46082.81
605.65	45958.76
605.80	46363.67
605.96	46239.62
606.12	45897.91
606.27	46209.20
606.43	46258.35
606.58	45963.44
606.74	45851.09
606.89	46082.81
607.05	46548.57
607.20	46270.05
607.36	46450.27
607.51	45876.84
607.67	46129.62
607.82	46010.25
607.98	45935.35
608.13	45904.93
608.29	46110.89
608.44	46150.68
608.60	46321.54
608.75	45972.80
608.91	45837.05
609.06	45287.03
609.22	46007.91
609.37	45689.60
609.53	46274.73
609.68	46391.76
609.84	45696.62
609.99	46239.62
610.15	45991.53
610.30	46057.06
610.46	45427.46
610.61	45738.75
610.76	46389.42
610.92	45317.45
611.07	45991.53
611.23	45846.41
611.38	45626.40
611.54	46206.86
611.69	46129.62
611.84	45853.44
612.00	45633.42
612.15	45766.84
612.31	45687.26
612.46	45544.48
612.62	45792.58
612.77	45558.53
612.92	45614.70
613.08	45745.77
613.23	45542.14
613.39	45785.56
613.54	45853.44
613.69	46277.07
613.85	45523.42
614.00	45680.24
614.15	45502.35
614.31	45226.17
614.46	45710.66
614.62	45727.05
614.77	45345.54
614.92	45734.07
615.08	45670.87
615.23	45492.99
615.38	45872.16
615.54	45551.51
615.69	45312.77
615.84	45464.91
616.00	45450.86
616.15	45605.34
616.30	45516.40
616.46	45298.73
616.61	45366.60
616.76	45755.13
616.92	45013.18
617.07	45593.64
617.22	45153.62
617.37	45064.67
617.53	45439.16
617.68	44828.28
617.83	45078.72
617.99	45537.46
618.14	45558.53
618.29	45118.51
618.45	45071.70
618.60	45081.06
618.75	44542.74
618.90	44949.99
619.06	44875.09
619.21	45099.78
619.36	45518.74
619.51	44910.20
619.67	44648.06
619.82	45052.97
619.97	44971.05
620.12	44835.30
620.28	44828.28
620.43	45048.29
620.58	45193.40
620.73	45062.33
620.89	45034.25
621.04	44917.22
621.19	44816.58
621.34	44685.51
621.49	44367.20
621.65	45312.77
621.80	44648.06
621.95	45474.27
622.10	45052.97
622.25	44706.57
622.41	44868.07
622.56	44910.20
622.71	45052.97
622.86	44526.35
623.01	44732.32
623.16	44275.91
623.32	44467.84
623.47	44697.21
623.62	44652.74
623.77	44861.05
623.92	44793.17
624.07	44882.11
624.23	44898.50
624.38	44772.11
624.53	44528.69
624.68	44109.74
624.83	44105.06
624.98	44505.29
625.13	43920.15
625.29	44091.01
625.44	44694.87
625.59	44477.20
625.74	44343.79
625.89	44154.21
626.04	44151.87
626.19	44004.41
626.34	43976.33
626.49	43526.94
626.65	43255.44
626.80	43721.21
626.95	43768.02
627.10	43725.89
627.25	43824.19
627.40	43763.34
627.55	44039.52
627.70	43826.53
627.85	43934.20
628.00	43894.41
628.15	43950.58
628.30	43267.14
628.45	43159.48
628.60	43374.81
628.76	43735.25
628.91	43515.24
629.06	43405.23
629.21	43784.40
629.36	43328.00
629.51	43636.95
629.66	43803.13
629.81	43316.29
629.96	43636.95
630.11	43182.88
630.26	43627.59
630.41	43920.15
630.56	42927.77
630.71	43335.02
630.86	43316.29
631.01	43236.72
631.16	42740.52
631.31	43082.24
631.46	42763.93
631.61	43037.77
631.76	43093.94
631.91	42651.58
632.06	43409.92
632.21	43012.02
632.36	42939.47
632.51	42705.41
632.66	43126.71
632.81	43007.34
632.96	43168.84
633.10	42813.08
633.25	42859.89
633.40	42845.85
633.55	43288.21
633.70	43328.00
633.85	42614.13
634.00	42651.58
634.15	42871.59
634.30	42564.98
634.45	42375.40
634.60	43068.20
634.75	43040.11
634.90	42637.54
635.05	42829.46
635.19	42630.52
635.34	42590.73
635.49	42960.53
635.64	42806.06
635.79	42831.80
635.94	42838.83
636.09	43000.32
636.24	42639.88
636.39	42520.51
636.53	42572.00
636.68	42197.52
636.83	42103.90
636.98	41909.63
637.13	42012.62
637.28	41708.35
637.43	41858.14
637.57	42597.75
637.72	42274.76
637.87	42246.67
638.02	41949.42
638.17	41876.86
638.32	42569.66
638.46	41862.82
638.61	42153.05
638.76	41830.05
638.91	41486.00
639.06	41483.66
639.20	41537.49
639.35	41818.35
639.50	41507.06
639.65	41834.74
639.80	41703.67
639.94	42157.73
640.09	41970.49
640.24	41996.23
640.39	41280.03
640.54	41757.50
640.68	41820.69
640.83	42089.85
640.98	41338.54
641.13	41521.10
641.27	41790.27
641.42	41741.11
641.57	41546.85
641.72	42036.02
641.86	41668.56
642.01	41322.16
642.16	41399.40
642.31	41034.27
642.45	41476.63
642.60	41212.15
642.75	40961.72
642.90	41572.60
643.04	41291.73
643.19	41483.66
643.34	40622.34
643.48	40966.40
643.63	41251.94
643.78	41055.34
643.93	41677.92
644.07	41371.31
644.22	41060.02
644.37	41312.80
644.51	40952.35
644.66	41219.17
644.81	40795.54
644.95	40989.80
645.10	40758.09
645.25	40835.33
645.39	40549.78
645.54	40931.29
645.69	40687.87
645.83	40608.29
645.98	40470.20
646.13	40732.34
646.27	40741.71
646.42	40659.79
646.57	40858.73
646.71	41268.33
646.86	40910.22
647.00	40559.14
647.15	40697.24
647.30	40474.88
647.44	40914.90
647.59	40559.14
647.74	40453.82
647.88	40327.43
648.03	40715.96
648.17	41020.23
648.32	40652.76
648.47	40610.64
648.61	39976.35
648.76	40453.82
648.90	40437.44
649.05	40425.73
649.20	40357.86
649.34	40446.80
649.49	40149.55
649.63	40446.80
649.78	40472.54
649.92	40212.74
650.07	40816.60
650.21	40135.51
650.36	40608.29
650.51	40247.85
650.65	40737.02
650.80	40512.33
650.94	40144.87
651.09	39962.31
651.23	39754.00
651.38	40467.86
651.52	39882.73
651.67	40058.27
651.81	40032.52
651.96	39761.02
652.10	39627.61
652.25	39419.30
652.39	39510.58
652.54	40037.20
652.68	39845.28
652.83	39524.63
652.97	39894.43
653.12	39709.53
653.26	39484.84
653.41	39491.86
653.55	40016.14
653.70	40154.23
653.84	39866.34
653.99	39746.98
654.13	39489.52
654.27	39519.95
654.42	39283.55
654.56	39543.35
654.71	39531.65
654.85	39779.74
655.00	39714.21
655.14	39606.55
655.29	39562.08
655.43	39777.40
655.57	39051.84
655.72	39150.14
655.86	38923.11
656.01	38848.21
656.15	39611.23
656.30	39016.73
656.44	39463.77
656.58	39023.75
656.73	39260.15
656.87	38895.02
657.01	39098.65
657.16	39061.20
657.30	39276.53
657.45	38902.04
657.59	38934.81
657.73	38930.13
657.88	38792.04
658.02	38871.62
658.16	39091.63
658.31	39248.44
658.45	38930.13
658.60	38773.31
658.74	38440.96
658.88	39068.22
659.03	38630.54
659.17	38543.94
659.31	38319.25
659.46	38520.54
659.60	38698.42
659.74	38576.71
659.89	38197.54
660.03	38073.49
660.17	38548.62
660.32	38223.29
660.46	38146.05
660.60	37823.06
660.74	38621.18
660.89	38211.59
661.03	37368.99
661.17	37294.10
661.32	37390.06
661.46	37984.55
661.60	37776.25
661.74	37638.15
661.89	37860.51
662.03	37490.70
662.17	37677.94
662.31	37773.91
662.46	37350.27
662.60	37251.97
662.74	36751.09
662.88	36676.19
663.03	37340.91
663.17	36868.12
663.31	36886.84
663.45	36858.76
663.60	37422.83
663.74	36243.20
663.88	37205.16
664.02	36708.96
664.17	36863.44
664.31	36613.00
664.45	36725.35
664.59	36708.96
664.73	36580.23
664.88	36788.54
665.02	36341.50
665.16	36407.03
665.30	36793.22
665.44	36425.76
665.59	36360.22
665.73	35941.27
665.87	35967.01
666.01	36580.23
666.15	36250.22
666.29	35943.61
666.44	36343.84
666.58	35695.51
666.72	35812.54
666.86	35775.09
667.00	35737.64
667.14	35491.88
667.28	35950.63
667.43	35793.81
667.57	35938.93
667.71	35421.67
667.85	35931.90
667.99	35597.21
668.13	35665.08
668.27	35372.52
668.41	35639.34
668.56	35117.40
668.70	35075.27
668.84	34822.49
668.98	34855.26
669.12	35534.01
669.26	34948.88
669.40	34909.09
669.54	34810.79
669.68	34810.79
669.82	34588.44
669.96	34593.12
670.10	34089.90
670.25	34532.26
670.39	34492.47
670.53	34433.96
670.67	34382.47
670.81	34534.60
670.95	34246.72
671.09	34160.12
671.23	34085.22
671.37	33834.78
671.51	33895.64
671.65	34059.48
671.79	33907.34
671.93	33949.47
672.07	33776.27
672.21	33455.62
672.35	33883.94
672.49	33855.85
672.63	33586.69
672.77	33111.56
672.91	33434.55
673.05	32907.93
673.19	33165.39
673.33	32910.27
673.47	32573.24
673.61	32638.77
673.75	32318.12
673.89	32884.53
674.03	32456.21
674.17	32407.06
674.31	32463.23
674.45	32559.19
674.59	32205.77
674.73	32545.15
674.87	32182.37
675.01	32180.03
675.15	31655.75
675.29	31480.21
675.43	31894.48
675.56	31786.82
675.70	31615.96
675.84	31606.59
675.98	30799.11
676.12	31466.16
676.26	31278.92
676.40	31007.42
676.54	31117.42
676.68	30890.39
676.82	30712.51
676.96	31166.57
677.10	30923.16
677.23	30787.41
677.37	30665.70
677.51	30321.64
677.65	30700.81
677.79	30586.12
677.93	30562.72
678.07	30251.42
678.21	29954.18
678.34	29909.71
678.48	29813.74
678.62	30075.88
678.76	29743.53
678.90	29603.10
679.04	29661.61
679.18	29656.93
679.31	29556.28
679.45	29390.11
679.59	29102.22
679.73	29118.60
679.87	28896.25
680.00	28865.83
680.14	28568.58
680.28	28868.17
680.42	28863.49
680.56	28739.44
680.70	28369.63
680.83	28458.57
680.97	28250.27
681.11	28290.06
681.25	27878.12
681.39	27946.00
681.52	28397.72
681.66	27828.97
681.80	27318.73
681.94	27201.71
682.07	27414.69
682.21	27513.00
682.35	27323.41
682.49	26962.97
682.62	26972.33
682.76	27262.56
682.90	27187.66
683.04	27257.88
683.17	26918.50
683.31	26618.91
683.45	26806.16
683.59	26143.78
683.72	26382.52
683.86	26328.69
684.00	26373.16
684.13	26120.38
684.27	26001.01
684.41	26225.70
684.55	26047.82
684.68	25876.96
684.82	25621.84
684.96	25790.36
685.09	25441.62
685.23	25654.61
685.37	25830.15
685.50	25493.12
685.64	25525.88
685.78	25315.23
685.91	24779.25
686.05	24987.56
686.19	24224.54
686.32	24269.01
686.46	24332.21
686.60	24205.82
686.73	24680.95
686.87	24034.96
687.01	24624.78
687.14	24254.97
687.28	23887.51
687.42	23943.68
687.55	23899.21
687.69	23978.79
687.82	23704.95
687.96	23339.82
688.10	23854.74
688.23	23747.08
688.37	23454.51
688.50	23742.39
688.64	23463.87
688.78	23110.45
688.91	22654.05
689.05	23096.41
689.18	22754.69
689.32	22370.84
689.46	22391.91
689.59	22471.48
689.73	22757.03
689.86	22588.51
690.00	22518.29
690.13	22637.66
690.27	22307.65
690.41	22338.07
690.54	21909.75
690.68	21893.37
690.81	21766.98
690.95	21647.61
691.08	21378.45
691.22	21413.56
691.35	21357.39
691.49	21675.70
691.62	21198.23
691.76	20868.22
691.89	21099.93
692.03	20577.99
692.16	20657.57
692.30	20507.77
692.43	20594.37
692.57	20168.40
692.70	20734.81
692.84	20184.78
692.97	20428.20
693.11	20322.87
693.24	19871.15
693.38	19838.38
693.51	19625.39
693.65	19983.49
693.78	19917.96
693.92	19880.51
694.05	19782.21
694.19	19611.35
694.32	19461.55
694.45	19491.98
694.59	19695.61
694.72	19770.51
694.86	19257.93
694.99	19124.52
695.13	18703.22
695.26	18871.74
695.39	18700.88
695.53	18633.00
695.66	18885.78
695.80	18611.94
695.93	18813.23
696.07	18389.59
696.20	18167.24
696.33	18078.30
696.47	18015.10
696.60	17907.44
696.73	18253.84
696.87	17891.06
697.00	18146.17
697.14	17734.24
697.27	17612.53
697.40	17706.15
697.54	17422.95
697.67	17568.06
697.80	17605.51
697.94	17355.07
698.07	17238.05
698.21	17598.49
698.34	17018.04
698.47	16877.60
698.61	16734.83
698.74	16776.96
698.87	16713.77
699.01	16219.91
699.14	16273.74
699.27	16451.63
699.40	16238.64
699.54	16257.36
699.67	16355.66
699.80	16215.23
699.94	16018.63
700.07	16135.65
700.20	16027.99
700.34	15779.89
700.47	15843.09
700.60	16049.05
700.73	15908.62
700.87	15716.70
701.00	15311.78
701.13	15377.32
701.26	15180.71
701.40	15314.13
701.53	15187.74
701.66	15204.12
701.79	15033.26
701.93	15185.40
702.06	14424.72
702.19	14684.52
702.32	14668.14
702.46	14693.88
702.59	14750.06
702.72	14899.85
702.85	14740.69
702.99	14689.20
703.12	14506.64
703.25	14464.51
703.38	14143.86
703.51	14295.99
703.65	14108.75
703.78	13804.48
703.91	13909.80
704.04	13708.52
704.17	13607.87
704.31	13813.84
704.44	13516.59
704.57	13802.14
704.70	13598.51
704.83	13191.26
704.96	13422.97
705.10	13575.11
705.23	13319.99
>>>>>End Processed Spectral Data<<<<<
