SpectraSuite Data File
++++++++++++++++++++++++++++++++++++
Date: Fri Oct 25 10:47:12 EDT 2013
User: price-jones
Dark Spectrum Present: No
Reference Spectrum Present: No
Number of Sampled Component Spectra: 1
Spectrometers: USB2+H05261
Integration Time (usec): 100000 (USB2+H05261)
Spectra Averaged: 1 (USB2+H05261)
Boxcar Smoothing: 0 (USB2+H05261)
Correct for Electrical Dark: No (USB2+H05261)
Strobe/Lamp Enabled: No (USB2+H05261)
Correct for Detector Non-linearity: No (USB2+H05261)
Correct for Stray Light: No (USB2+H05261)
Number of Pixels in Processed Spectrum: 2048
>>>>>Begin Processed Spectral Data<<<<<
365.73	175.54
365.92	175.54
366.12	175.54
366.32	72.56
366.52	49.15
366.72	70.22
366.91	63.19
367.11	11.70
367.31	28.09
367.51	53.83
367.70	65.54
367.90	58.51
368.10	44.47
368.30	0.00
368.49	63.19
368.69	91.28
368.89	105.32
369.09	9.36
369.28	60.85
369.48	63.19
369.68	32.77
369.87	102.98
370.07	117.03
370.27	98.30
370.47	205.97
370.66	334.70
370.86	454.06
371.06	418.96
371.25	514.92
371.45	470.45
371.65	454.06
371.84	470.45
372.04	411.93
372.24	456.40
372.44	411.93
372.63	484.49
372.83	472.79
373.03	470.45
373.22	528.96
373.42	545.34
373.62	566.41
373.81	449.38
374.01	547.69
374.21	552.37
374.40	493.85
374.60	493.85
374.79	582.79
374.99	564.07
375.19	533.64
375.38	514.92
375.58	528.96
375.78	599.18
375.97	568.75
376.17	650.67
376.37	603.86
376.56	566.41
376.76	578.11
376.95	594.50
377.15	559.39
377.35	578.11
377.54	599.18
377.74	615.56
377.93	624.92
378.13	671.73
378.33	674.07
378.52	568.75
378.72	669.39
378.91	538.32
379.11	582.79
379.31	533.64
379.50	552.37
379.70	648.33
379.89	638.97
380.09	613.22
380.28	638.97
380.48	702.16
380.68	690.46
380.87	688.12
381.07	648.33
381.26	641.31
381.46	564.07
381.65	674.07
381.85	601.52
382.04	709.18
382.24	812.17
382.43	688.12
382.63	671.73
382.83	657.69
383.02	730.25
383.22	758.33
383.41	774.72
383.61	723.23
383.80	699.82
384.00	727.91
384.19	798.12
384.39	739.61
384.58	781.74
384.78	711.52
384.97	664.71
385.17	760.67
385.36	760.67
385.56	737.27
385.75	807.48
385.95	744.29
386.14	833.23
386.34	730.25
386.53	765.36
386.72	734.93
386.92	915.15
387.11	833.23
387.31	814.51
387.50	844.93
387.70	758.33
387.89	784.08
388.09	880.04
388.28	826.21
388.48	802.80
388.67	936.21
388.86	868.34
389.06	837.91
389.25	905.79
389.45	926.85
389.64	891.74
389.84	943.24
390.03	938.55
390.22	889.40
390.42	866.00
390.61	966.64
390.81	833.23
391.00	912.81
391.19	1006.43
391.39	915.15
391.58	1032.18
391.78	912.81
391.97	861.32
392.16	837.91
392.36	936.21
392.55	1041.54
392.75	987.71
392.94	954.94
393.13	976.00
393.33	926.85
393.52	1006.43
393.71	933.87
393.91	896.43
394.10	1039.20
394.29	1067.28
394.49	1034.52
394.68	1109.41
394.88	1090.69
395.07	1160.91
395.26	1165.59
395.46	1046.22
395.65	1188.99
395.84	1142.18
396.04	1151.54
396.23	1156.22
396.42	1151.54
396.62	1102.39
396.81	1128.14
397.00	1172.61
397.19	1097.71
397.39	1252.19
397.58	1224.10
397.77	1097.71
397.97	1198.35
398.16	1205.38
398.35	1203.04
398.55	1221.76
398.74	1247.51
398.93	1315.38
399.12	1249.85
399.32	1324.74
399.51	1324.74
399.70	1334.11
399.90	1385.60
400.09	1275.59
400.28	1350.49
400.47	1289.64
400.67	1364.53
400.86	1460.49
401.05	1387.94
401.24	1378.58
401.44	1469.86
401.63	1369.21
401.82	1591.56
402.01	1404.32
402.21	1474.54
402.40	1376.24
402.59	1423.05
402.78	1446.45
402.97	1483.90
403.17	1554.12
403.36	1481.56
403.55	1570.50
403.74	1579.86
403.93	1577.52
404.13	1584.54
404.32	1657.10
404.51	1713.27
404.70	1586.88
404.89	1577.52
405.09	1717.95
405.28	1769.44
405.47	1678.16
405.66	1755.40
405.85	1736.68
406.05	1748.38
406.24	1769.44
406.43	1778.81
406.62	1785.83
406.81	1797.53
407.00	1722.63
407.20	1720.29
407.39	1736.68
407.58	1898.17
407.77	1806.89
407.96	1844.34
408.15	1811.57
408.34	1858.39
408.54	1907.54
408.73	1900.52
408.92	2010.52
409.11	1984.77
409.30	1952.01
409.49	1954.35
409.68	1952.01
409.87	2029.24
410.07	1989.46
410.26	2008.18
410.45	2162.66
410.64	2106.48
410.83	2157.97
411.02	2106.48
411.21	2225.85
411.40	2160.31
411.59	2085.42
411.78	2139.25
411.98	2235.21
412.17	2225.85
412.36	2244.57
412.55	2275.00
412.74	2359.26
412.93	2347.56
413.12	2324.15
413.31	2427.14
413.50	2431.82
413.69	2483.31
413.88	2576.93
414.07	2502.03
414.26	2562.89
414.45	2523.10
414.64	2614.38
414.83	2647.15
415.02	2715.02
415.22	2635.44
415.41	2675.23
415.60	2691.62
415.79	2609.70
415.98	2670.55
416.17	2750.13
416.36	2677.57
416.55	2736.09
416.74	2855.45
416.93	2818.00
417.12	2712.68
417.31	2855.45
417.50	2911.63
417.69	2998.23
417.88	2984.18
418.07	3026.31
418.26	2923.33
418.45	3007.59
418.64	3136.32
418.83	3077.80
419.02	2946.73
419.21	3087.17
419.39	3073.12
419.58	3190.15
419.77	3068.44
419.96	3166.74
420.15	3215.90
420.34	3152.70
420.53	3115.25
420.72	3473.36
420.91	3279.09
421.10	3330.58
421.29	3346.97
421.48	3274.41
421.67	3412.50
421.86	3258.03
422.05	3417.18
422.24	3342.28
422.43	3234.62
422.61	3211.22
422.80	3375.05
422.99	3499.10
423.18	3449.95
423.37	3368.03
423.56	3485.06
423.75	3349.31
423.94	3323.56
424.13	3136.32
424.32	3251.00
424.50	3524.85
424.69	3613.79
424.88	3492.08
425.07	3344.63
425.26	3403.14
425.45	3330.58
425.64	3398.46
425.83	3379.73
426.01	3562.30
426.20	3489.74
426.39	3576.34
426.58	3421.86
426.77	3407.82
426.96	3527.19
427.15	3471.01
427.33	3595.06
427.52	3501.44
427.71	3662.94
427.90	3592.72
428.09	3543.57
428.28	3684.00
428.46	3782.31
428.65	3719.11
428.84	3728.47
429.03	3871.25
429.22	3632.51
429.40	3801.03
429.59	3765.92
429.78	3604.42
429.97	3625.49
430.16	3740.18
430.34	3765.92
430.53	3812.73
430.72	3726.13
430.91	3784.65
431.10	3815.07
431.28	3988.27
431.47	4035.08
431.66	4138.07
431.85	3894.65
432.03	3861.88
432.22	4234.03
432.41	4166.15
432.60	4152.11
432.79	4208.28
432.97	3999.98
433.16	4046.79
433.35	4236.37
433.54	4109.98
433.72	4147.43
433.91	4156.79
434.10	4374.46
434.28	4266.80
434.47	4191.90
434.66	4187.22
434.85	4479.79
435.03	4482.13
435.22	4348.72
435.41	4587.45
435.59	4416.59
435.78	4454.04
435.97	4535.96
436.16	4372.12
436.34	4468.08
436.53	4500.85
436.72	4695.11
436.90	4435.32
437.09	4578.09
437.28	4201.26
437.46	4535.96
437.65	4709.16
437.84	4627.24
438.02	4451.70
438.21	4662.35
438.40	4514.89
438.58	4788.74
438.77	4681.07
438.96	4678.73
439.14	4936.19
439.33	4854.27
439.52	4954.91
439.70	5032.15
439.89	4865.97
440.08	5022.79
440.26	4854.27
440.45	4985.34
440.63	5123.43
440.82	5247.48
441.01	5228.76
441.19	5226.42
441.38	5270.89
441.57	5387.91
441.75	5268.55
441.94	5526.00
442.12	5378.55
442.31	5614.95
442.50	5434.72
442.68	5392.59
442.87	5434.72
443.05	5521.32
443.24	5626.65
443.43	5530.69
443.61	5666.44
443.80	5877.09
443.98	5518.98
444.17	5392.59
444.35	5685.16
444.54	5717.93
444.73	5731.97
444.91	5774.10
445.10	5671.12
445.28	5788.14
445.47	5549.41
445.65	5565.79
445.84	5678.14
446.02	5905.17
446.21	5671.12
446.39	5535.37
446.58	5741.33
446.77	5884.11
446.95	5928.58
447.14	6029.22
447.32	5856.02
447.51	5813.89
447.69	5823.25
447.88	5959.00
448.06	5816.23
448.25	5912.19
448.43	5860.70
448.62	5905.17
448.80	5886.45
448.99	6003.47
449.17	6024.54
449.36	6019.86
449.54	6122.84
449.73	5959.00
449.91	6106.46
450.10	6274.98
450.28	6120.50
450.46	6230.51
450.65	6267.95
450.83	6321.79
451.02	6228.17
451.20	6282.00
451.39	6244.55
451.57	6202.42
451.76	6155.61
451.94	6345.19
452.13	6392.00
452.31	6282.00
452.49	6352.21
452.68	6363.92
452.86	6209.44
453.05	6366.26
453.23	6466.90
453.42	6480.94
453.60	6389.66
453.78	6534.78
453.97	6462.22
454.15	6576.91
454.34	6361.58
454.52	6595.63
454.70	6586.27
454.89	6579.25
455.07	6621.38
455.26	6750.10
455.44	6843.73
455.62	6773.51
455.81	6684.57
455.99	6775.85
456.17	6848.41
456.36	6834.36
456.54	6855.43
456.73	6909.26
456.91	7075.44
457.09	7159.70
457.28	7145.66
457.46	7110.55
457.64	7080.12
457.83	7014.59
458.01	7152.68
458.19	7197.15
458.38	7019.27
458.56	7222.89
458.74	7339.92
458.93	7307.15
459.11	7279.07
459.29	7190.13
459.48	7288.43
459.66	7243.96
459.84	7426.52
460.03	7524.82
460.21	7548.23
460.39	7503.76
460.57	7375.03
460.76	7559.93
460.94	7534.18
461.12	7496.74
461.31	7623.12
461.49	7445.24
461.67	7489.71
461.85	7637.17
462.04	7669.94
462.22	8222.30
462.40	7786.96
462.59	7847.82
462.77	7777.60
462.95	7831.43
463.13	7583.34
463.32	7889.95
463.50	7974.21
463.68	8006.97
463.86	7974.21
464.05	7749.51
464.23	7861.86
464.41	7992.93
464.59	7756.54
464.78	8114.64
464.96	8023.36
465.14	7976.55
465.32	8100.59
465.50	8280.82
465.69	8374.44
465.87	8121.66
466.05	8163.79
466.23	8184.85
466.41	8046.76
466.60	8477.42
466.78	7999.95
466.96	8173.15
467.14	8369.76
467.32	8238.69
467.51	8613.17
467.69	8418.91
467.87	8320.60
468.05	8306.56
468.23	8283.16
468.41	8381.46
468.60	8411.89
468.78	8561.68
468.96	8596.79
469.14	8535.93
469.32	8648.28
469.50	8308.90
469.69	8620.19
469.87	8620.19
470.05	8854.25
470.23	8861.27
470.41	8865.95
470.59	8861.27
470.77	8718.50
470.95	8844.88
471.14	9041.49
471.32	8760.63
471.50	8973.61
471.68	9174.90
471.86	9205.33
472.04	9165.54
472.22	9472.15
472.40	9111.71
472.58	9259.16
472.77	9210.01
472.95	9423.00
473.13	9514.28
473.31	9394.91
473.49	9235.75
473.67	9362.14
473.85	9441.72
474.03	9544.70
474.21	9846.63
474.39	9785.78
474.57	9727.27
474.75	9535.34
474.93	9841.95
475.12	10003.45
475.30	10040.90
475.48	10040.90
475.66	9839.61
475.84	10061.96
476.02	10270.27
476.20	10200.05
476.38	10516.03
476.56	10644.76
476.74	10555.82
476.92	10607.31
477.10	10422.41
477.28	10677.52
477.46	10729.02
477.64	10780.51
477.82	10991.16
478.00	11159.67
478.18	11056.69
478.36	11049.67
478.54	11169.04
478.72	11412.45
478.90	11314.15
479.08	11555.22
479.26	11702.68
479.44	11800.98
479.62	11822.05
479.80	12030.35
479.98	11995.25
480.16	12084.19
480.34	12184.83
480.52	12219.94
480.70	12079.50
480.88	12283.13
481.06	12058.44
481.24	12334.62
481.41	12636.55
481.59	12666.98
481.77	12788.69
481.95	12657.62
482.13	13303.60
482.31	12716.13
482.49	12964.23
482.67	13151.47
482.85	13209.98
483.03	13518.93
483.21	13738.94
483.39	13858.31
483.57	13886.40
483.74	13951.93
483.92	13958.96
484.10	13853.63
484.28	14176.62
484.46	14244.50
484.64	14616.65
484.82	14204.71
485.00	14471.53
485.18	14824.95
485.35	15089.43
485.53	14670.48
485.71	14813.25
485.89	15314.13
486.07	15026.24
486.25	15253.27
486.43	15419.45
486.61	15262.63
486.78	15892.24
486.96	15555.20
487.14	16023.31
487.32	15812.66
487.50	16191.83
487.68	16517.16
487.85	16409.50
488.03	16542.91
488.21	16505.46
488.39	16919.73
488.57	16685.68
488.75	17092.93
488.92	17284.86
489.10	17289.54
489.28	17554.02
489.46	17439.33
489.64	17432.31
489.81	17994.04
489.99	18228.09
490.17	18333.42
490.35	18246.82
490.53	17994.04
490.70	18448.10
490.88	18134.47
491.06	18981.74
491.24	18775.78
491.41	18658.75
491.59	19140.90
491.77	18857.70
491.95	19241.54
492.13	19161.97
492.30	19611.35
492.48	19400.70
492.66	19641.78
492.84	19346.87
493.01	19754.12
493.19	19491.98
493.37	20231.59
493.54	20301.81
493.72	20147.33
493.90	20526.50
494.08	20666.93
494.25	20734.81
494.43	20919.71
494.61	21198.23
494.79	21247.38
494.96	21053.12
495.14	20975.88
495.32	21453.35
495.49	21263.77
495.67	21544.63
495.85	21696.77
496.02	21788.05
496.20	22003.38
496.38	21909.75
496.55	22167.21
496.73	22754.69
496.91	22328.71
497.09	22506.59
497.26	22740.64
497.44	22581.49
497.62	22721.92
497.79	22918.53
497.97	22803.84
498.14	23005.13
498.32	23756.44
498.50	23145.56
498.67	23517.70
498.85	23300.03
499.03	23730.69
499.20	23309.40
499.38	23758.78
499.56	23847.72
499.73	23971.77
499.91	24425.83
500.08	24254.97
500.26	23974.11
500.44	24372.00
500.61	24620.10
500.79	24013.90
500.97	24547.54
501.14	24732.44
501.32	24793.29
501.49	24596.69
501.67	24910.32
501.84	25118.63
502.02	25132.67
502.20	25034.37
502.37	25462.69
502.55	25301.19
502.72	25268.42
502.90	25422.90
503.07	25369.07
503.25	25905.05
503.43	25596.10
503.60	26036.12
503.78	25802.07
503.95	25474.39
504.13	25947.18
504.30	26228.04
504.48	26064.21
504.65	26340.39
504.83	26485.50
505.01	26801.47
505.18	26499.55
505.36	26888.07
505.53	26569.76
505.71	26775.73
505.88	26948.93
506.06	26583.80
506.23	26993.40
506.41	26714.87
506.58	26927.86
506.76	27630.02
506.93	27744.71
507.11	27407.67
507.28	27360.86
507.46	27367.88
507.63	27637.05
507.81	27658.11
507.98	27559.81
508.16	27770.46
508.33	28058.34
508.50	28121.54
508.68	27810.25
508.85	28421.13
509.03	28147.28
509.20	28357.93
509.38	28503.04
509.55	28842.42
509.73	28648.16
509.90	28460.91
510.08	28535.81
510.25	28650.50
510.42	28891.57
510.60	28842.42
510.77	28938.38
510.95	29095.20
511.12	29521.18
511.30	29083.50
511.47	29539.90
511.64	29699.06
511.82	29518.84
511.99	29701.40
512.17	29689.70
512.34	29465.00
512.51	29654.59
512.69	29993.97
512.86	30181.21
513.04	30651.66
513.21	30249.08
513.38	30239.72
513.56	30548.67
513.73	30164.82
513.90	30225.68
514.08	30232.70
514.25	30483.14
514.43	30265.47
514.60	30499.52
514.77	30616.55
514.95	31016.78
515.12	30529.95
515.29	31091.68
515.47	31377.22
515.64	31449.78
515.81	30930.18
515.99	30885.71
516.16	31239.13
516.33	31363.18
516.51	31625.32
516.68	31271.90
516.85	31026.14
517.03	31449.78
517.20	31269.56
517.37	31765.75
517.54	31908.52
517.72	31974.06
517.89	31957.67
518.06	31592.55
518.24	31765.75
518.41	32203.43
518.58	31971.72
518.75	32264.28
518.93	32292.37
519.10	32491.32
519.27	32474.93
519.45	32098.11
519.62	32514.72
519.79	32638.77
519.96	32975.81
520.14	33141.99
520.31	32718.35
520.48	33607.75
520.65	33259.01
520.83	33261.35
521.00	33221.56
521.17	32851.76
521.34	32907.93
521.52	33179.43
521.69	33336.25
521.86	33331.57
522.03	33273.06
522.20	33769.25
522.38	33883.94
522.55	34026.71
522.72	33755.21
522.89	33839.47
523.07	34029.05
523.24	34078.20
523.41	34190.55
523.58	33832.44
523.75	34288.85
523.92	34614.18
524.10	34377.79
524.27	34384.81
524.44	34288.85
524.61	34625.89
524.78	34569.71
524.96	34625.89
525.13	34803.77
525.30	35098.67
525.47	34820.15
525.64	34553.33
525.81	34923.13
525.98	35084.63
526.16	34773.34
526.33	34976.97
526.50	35494.22
526.67	34911.43
526.84	35241.45
527.01	34969.94
527.18	35491.88
527.36	35213.36
527.53	35470.82
527.70	36027.87
527.87	35814.88
528.04	35541.03
528.21	35913.18
528.38	35388.90
528.55	36034.89
528.72	35711.89
528.89	36428.10
529.07	36140.21
529.24	35763.39
529.41	36215.11
529.58	35908.50
529.75	35826.58
529.92	36378.95
530.09	36053.61
530.26	36591.94
530.43	36484.27
530.60	36306.39
530.77	36589.59
530.94	36830.67
531.11	36416.40
531.28	36713.64
531.46	36708.96
531.63	37165.37
531.80	36957.06
531.97	36811.95
532.14	36980.46
532.31	36495.97
532.48	36758.11
532.65	37469.64
532.82	37167.71
532.99	37188.77
533.16	36823.65
533.33	37090.47
533.50	37448.57
533.67	37511.77
533.84	36856.42
534.01	37579.64
534.18	37357.29
534.35	37893.27
534.52	37373.67
534.69	37268.35
534.86	37413.46
535.03	37640.50
535.20	37525.81
535.37	38349.68
535.54	38600.12
535.71	38052.43
535.88	37914.34
536.05	38096.90
536.22	37897.95
536.38	37799.65
536.55	38389.47
536.72	38536.92
536.89	38735.87
537.06	38272.44
537.23	38256.06
537.40	38682.03
537.57	38433.94
537.74	38272.44
537.91	38588.41
538.08	38321.59
538.25	38316.91
538.42	38492.45
538.59	38778.00
538.75	38557.99
538.92	38586.07
539.09	38675.01
539.26	38658.63
539.43	38806.08
539.60	38981.62
539.77	39035.45
539.94	38925.45
540.11	38761.61
540.28	39225.04
540.44	38869.28
540.61	39260.15
540.78	38906.73
540.95	39173.55
541.12	38895.02
541.29	38983.96
541.46	39051.84
541.62	39445.05
541.79	39641.65
541.96	39154.82
542.13	38972.26
542.30	39407.60
542.47	39227.38
542.63	39585.48
542.80	39594.84
542.97	40084.01
543.14	40161.25
543.31	40336.79
543.48	40196.36
543.64	40343.81
543.81	40203.38
543.98	40212.74
544.15	39948.26
544.32	40261.90
544.48	40437.44
544.65	40306.37
544.82	40500.63
544.99	40189.34
545.16	40259.55
545.32	40254.87
545.49	40957.03
545.66	40502.97
545.83	40467.86
546.00	40814.26
546.16	40762.77
546.33	40566.16
546.50	40165.93
546.67	40479.57
546.83	40278.28
547.00	40765.11
547.17	40669.15
547.34	40994.48
547.50	40811.92
547.67	40952.35
547.84	40875.12
548.00	41378.33
548.17	41296.41
548.34	41411.10
548.51	41205.13
548.67	41476.63
548.84	41586.64
549.01	40926.61
549.18	41209.81
549.34	41048.32
549.51	41708.35
549.68	41324.50
549.84	41392.37
550.01	41462.59
550.18	41411.10
550.34	41298.75
550.51	41312.80
550.68	41425.14
550.84	41123.21
551.01	41551.53
551.18	41633.45
551.34	41373.65
551.51	41553.87
551.68	41801.97
551.84	41743.45
552.01	41745.80
552.18	41949.42
552.34	42078.15
552.51	42220.92
552.68	42167.09
552.84	41869.84
553.01	42279.44
553.18	41890.91
553.34	42026.66
553.51	42340.29
553.67	41572.60
553.84	42787.33
554.01	42085.17
554.17	42281.78
554.34	42593.07
554.51	42436.25
554.67	42621.16
554.84	42344.97
555.00	42129.64
555.17	42429.23
555.33	42745.20
555.50	42649.24
555.67	42674.99
555.83	42113.26
556.00	42993.30
556.16	42485.40
556.33	42370.72
556.50	42347.31
556.66	42670.31
556.83	42548.60
556.99	42377.74
557.16	42719.46
557.32	42747.54
557.49	43093.94
557.65	42476.04
557.82	42237.31
557.98	42403.49
558.15	42679.67
558.32	42923.08
558.48	42834.14
558.65	43091.60
558.81	42817.76
558.98	42663.28
559.14	43185.22
559.31	42878.61
559.47	43168.84
559.64	43356.08
559.80	43501.20
559.97	43248.42
560.13	42862.23
560.30	43157.14
560.46	42962.87
560.63	42803.72
560.79	43021.39
560.96	43519.92
561.12	43466.09
561.29	43019.05
561.45	43395.87
561.61	43138.41
561.78	43381.83
561.94	43178.20
562.11	43311.61
562.27	42939.47
562.44	42925.42
562.60	43573.75
562.77	43306.93
562.93	43388.85
563.10	43070.54
563.26	43140.75
563.42	43440.34
563.59	43370.13
563.75	43494.18
563.92	43777.38
564.08	43452.05
564.24	43627.59
564.41	43798.44
564.57	43468.43
564.74	43346.72
564.90	43536.30
565.07	43608.86
565.23	43239.06
565.39	43391.19
565.56	43803.13
565.72	43650.99
565.88	43777.38
566.05	43529.28
566.21	43538.65
566.38	43643.97
566.54	43725.89
566.70	43449.70
566.87	44098.03
567.03	43782.06
567.19	44119.10
567.36	44013.77
567.52	43990.37
567.68	43899.09
567.85	43896.75
568.01	43620.56
568.17	43674.40
568.34	44027.82
568.50	44069.95
568.66	43959.94
568.83	44107.40
568.99	44142.50
569.15	43714.19
569.32	44039.52
569.48	43594.82
569.64	44112.08
569.81	43915.47
569.97	44212.72
570.13	44388.26
570.30	43739.93
570.46	43922.49
570.62	43545.67
570.78	43962.28
570.95	43690.78
571.11	44189.31
571.27	44186.97
571.43	44032.50
571.60	44224.42
571.76	43835.89
571.92	43744.61
572.09	44109.74
572.25	43751.63
572.41	43878.02
572.57	43749.29
572.74	44474.86
572.90	43969.30
573.06	44126.12
573.22	44060.58
573.38	44140.16
573.55	44060.58
573.71	43988.03
573.87	44282.94
574.03	43856.96
574.20	43753.97
574.36	43812.49
574.52	44154.21
574.68	44002.07
574.84	44378.90
575.01	44369.54
575.17	44322.72
575.33	43524.60
575.49	44278.25
575.65	43948.24
575.82	44432.73
575.98	44566.14
576.14	44418.69
576.30	44390.60
576.46	44205.70
576.62	44079.31
576.79	44217.40
576.95	43955.26
577.11	43688.44
577.27	44142.50
577.43	44507.63
577.59	44011.43
577.75	43758.66
577.92	44311.02
578.08	44172.93
578.24	43964.62
578.40	43985.69
578.56	44259.53
578.72	44023.14
578.88	44774.45
579.04	44161.23
579.21	44229.10
579.37	44098.03
579.53	44133.14
579.69	43840.57
579.85	44275.91
580.01	44257.19
580.17	44299.32
580.33	44282.94
580.49	44421.03
580.65	44301.66
580.82	44729.98
580.98	44402.30
581.14	44367.20
581.30	44617.63
581.46	44009.09
581.62	44404.64
581.78	44388.26
581.94	44839.98
582.10	44954.67
582.26	44634.02
582.42	44495.92
582.58	44175.27
582.74	43955.26
582.90	44264.21
583.06	44596.57
583.22	44514.65
583.38	44540.39
583.54	44266.55
583.70	44479.54
583.86	44261.87
584.02	43931.86
584.18	44947.65
584.34	44353.15
584.50	44353.15
584.66	44198.68
584.82	44341.45
584.98	44542.74
585.14	44247.83
585.30	44332.09
585.46	44376.56
585.62	44158.89
585.78	44404.64
585.94	43702.48
586.10	44416.35
586.26	44229.10
586.42	44025.48
586.58	44622.31
586.74	44715.93
586.90	44479.54
587.06	44168.25
587.22	44760.40
587.38	44144.84
587.54	44818.92
587.70	44428.05
587.86	44992.12
588.02	44634.02
588.18	44823.60
588.34	44135.48
588.49	43789.08
588.65	44215.06
588.81	44306.34
588.97	44697.21
589.13	44456.14
589.29	44760.40
589.45	44385.92
589.61	44456.14
589.77	44624.65
589.93	44587.21
590.08	44769.77
590.24	44741.68
590.40	44605.93
590.56	44790.83
590.72	44570.82
590.88	44250.17
591.04	44502.95
591.20	45013.18
591.35	44870.41
591.51	44659.76
591.67	44392.94
591.83	44573.16
591.99	44243.15
592.15	44664.44
592.31	44737.00
592.46	44477.20
592.62	44444.43
592.78	45020.20
592.94	44919.56
593.10	44828.28
593.26	44790.83
593.41	44559.12
593.57	44870.41
593.73	44893.82
593.89	44818.92
594.05	44727.64
594.20	44741.68
594.36	44952.33
594.52	44872.75
594.68	45294.05
594.84	44622.31
594.99	45015.52
595.15	44596.57
595.31	45067.02
595.47	44851.69
595.62	44680.83
595.78	44957.01
595.94	45031.91
596.10	45193.40
596.25	44809.56
596.41	44725.30
596.57	44673.81
596.73	44741.68
596.88	44533.37
597.04	44603.59
597.20	44641.04
597.36	44603.59
597.51	45038.93
597.67	44989.78
597.83	45172.34
597.99	45254.26
598.14	44856.37
598.30	45013.18
598.46	44418.69
598.61	44671.46
598.77	44800.19
598.93	45153.62
599.09	44109.74
599.24	45174.68
599.40	44708.91
599.56	45174.68
599.71	44882.11
599.87	45429.80
600.03	44985.10
600.18	44795.51
600.34	44952.33
600.50	44961.69
600.65	44332.09
600.81	45235.53
600.97	45223.83
601.12	45570.23
601.28	44980.42
601.44	45038.93
601.59	44837.64
601.75	44886.79
601.91	44825.94
602.06	44858.71
602.22	44673.81
602.37	44959.35
602.53	44865.73
602.69	45216.81
602.84	44882.11
603.00	44617.63
603.16	45235.53
603.31	44626.99
603.47	44882.11
603.62	44636.36
603.78	44907.86
603.94	44985.10
604.09	44760.40
604.25	44711.25
604.40	44687.85
604.56	44636.36
604.71	45209.79
604.87	44825.94
605.03	44678.49
605.18	44561.46
605.34	44818.92
605.49	44289.96
605.65	44935.95
605.80	44680.83
605.96	45198.09
606.12	44875.09
606.27	44945.31
606.43	44383.58
606.58	45050.63
606.74	44521.67
606.89	44385.92
607.05	44849.35
607.20	44935.95
607.36	44842.32
607.51	44725.30
607.67	44296.98
607.82	44982.76
607.98	44818.92
608.13	44528.69
608.29	44399.96
608.44	44793.17
608.60	44584.86
608.75	44287.62
608.91	43927.17
609.06	44289.96
609.22	44814.24
609.37	44423.37
609.53	44458.48
609.68	44514.65
609.84	44292.30
609.99	44811.90
610.15	44238.47
610.30	44364.85
610.46	44023.14
610.61	44144.84
610.76	44107.40
610.92	44292.30
611.07	44708.91
611.23	44467.84
611.38	44245.49
611.54	44360.17
611.69	43929.51
611.84	44236.12
612.00	44318.04
612.15	43849.94
612.31	43915.47
612.46	43859.30
612.62	44329.75
612.77	44091.01
612.92	44275.91
613.08	44083.99
613.23	44086.33
613.39	43910.79
613.54	43723.55
613.69	43634.61
613.85	44236.12
614.00	44098.03
614.15	44369.54
614.31	43920.15
614.46	44254.85
614.62	44175.27
614.77	44091.01
614.92	43971.64
615.08	43739.93
615.23	43856.96
615.38	43730.57
615.54	43562.05
615.69	43501.20
615.84	43966.96
616.00	43863.98
616.15	43845.26
616.30	43611.20
616.46	43459.07
616.61	43438.00
616.76	43117.35
616.92	43285.87
617.07	43475.45
617.22	43447.36
617.37	43498.86
617.53	43742.27
617.68	43842.92
617.83	43732.91
617.99	43779.72
618.14	43650.99
618.29	43676.74
618.45	43288.21
618.60	42930.11
618.75	43435.66
618.90	43194.59
619.06	43728.23
619.21	43421.62
619.36	43466.09
619.51	43388.85
619.67	43192.25
619.82	43571.41
619.97	43281.19
620.12	42951.17
620.28	42436.25
620.43	43051.81
620.58	43030.75
620.73	42703.07
620.89	42918.40
621.04	43002.66
621.19	43201.61
621.34	42981.60
621.49	42892.66
621.65	42780.31
621.80	42852.87
621.95	42635.20
622.10	42700.73
622.25	42555.62
622.41	42866.91
622.56	42286.46
622.71	42934.79
622.86	42962.87
623.01	42674.99
623.16	42649.24
623.32	42202.20
623.47	42948.83
623.62	42742.86
623.77	42101.56
623.92	42632.86
624.07	42794.36
624.23	42319.23
624.38	42417.53
624.53	42637.54
624.68	42295.82
624.83	42230.29
624.98	42387.10
625.13	42288.80
625.29	42101.56
625.44	42038.36
625.59	41984.53
625.74	42375.40
625.89	41794.95
626.04	42038.36
626.19	42148.37
626.34	42078.15
626.49	41949.42
626.65	42164.75
626.80	42281.78
626.95	41895.59
627.10	41806.65
627.25	41759.84
627.40	41965.81
627.55	41823.03
627.70	41261.30
627.85	41502.38
628.00	41537.49
628.15	41881.55
628.30	42052.41
628.45	42167.09
628.60	42024.32
628.76	41853.46
628.91	41745.80
629.06	41825.37
629.21	41720.05
629.36	41287.05
629.51	41371.31
629.66	41434.50
629.81	41123.21
629.96	41605.36
630.11	41731.75
630.26	41556.21
630.41	41031.93
630.56	40900.86
630.71	41607.70
630.86	41511.74
631.01	41102.15
631.16	41701.32
631.31	41373.65
631.46	40790.86
631.61	41048.32
631.76	41413.44
631.91	41237.90
632.06	41350.24
632.21	41003.85
632.36	41294.07
632.51	41453.23
632.66	41109.17
632.81	40657.45
632.96	40978.10
633.10	41099.81
633.25	40748.73
633.40	40924.27
633.55	41242.58
633.70	40800.22
633.85	40306.37
634.00	40966.40
634.15	40617.66
634.30	40095.72
634.45	40713.62
634.60	40594.25
634.75	40556.80
634.90	40425.73
635.05	40493.61
635.19	40507.65
635.34	40926.61
635.49	40807.24
635.64	40041.88
635.79	40126.14
635.94	40297.00
636.09	40378.92
636.24	40062.95
636.39	40299.34
636.53	40128.48
636.68	39700.17
636.83	39910.82
636.98	40755.75
637.13	40011.46
637.28	40189.34
637.43	40350.84
637.57	40769.79
637.72	40133.17
637.87	40369.56
638.02	40271.26
638.17	40177.64
638.32	39969.33
638.46	39629.95
638.61	39878.05
638.76	39852.30
638.91	39924.86
639.06	39775.06
639.20	39845.28
639.35	40128.48
639.50	39927.20
639.65	39648.68
639.80	40027.84
639.94	39931.88
640.09	39894.43
640.24	39501.22
640.39	39276.53
640.54	39274.19
640.68	40011.46
640.83	39428.66
640.98	39592.50
641.13	39805.49
641.27	39786.77
641.42	39508.24
641.57	39606.55
641.72	39711.87
641.86	39304.62
642.01	38909.07
642.16	39353.77
642.31	39253.12
642.45	39339.72
642.60	39196.95
642.75	39000.35
642.90	39585.48
643.04	38965.24
643.19	39203.97
643.34	39407.60
643.48	39037.80
643.63	38850.55
643.78	39082.27
643.93	38962.90
644.07	38560.33
644.22	38880.98
644.37	38581.39
644.51	38508.83
644.66	38932.47
644.81	38693.74
644.95	39299.94
645.10	38946.51
645.25	39152.48
645.39	39049.50
645.54	38967.58
645.69	39040.14
645.83	38656.29
645.98	38546.28
646.13	39023.75
646.27	38925.45
646.42	38618.84
646.57	38834.17
646.71	39007.37
646.86	38759.27
647.00	39014.39
647.15	38628.20
647.30	38710.12
647.44	38232.65
647.59	39021.41
647.74	38190.52
647.88	38197.54
648.03	38368.40
648.17	38120.31
648.32	38487.77
648.47	38157.75
648.61	38000.94
648.76	38244.35
648.90	38345.00
649.05	38148.39
649.20	38679.69
649.34	38284.14
649.49	37834.76
649.63	38239.67
649.78	38293.50
649.92	38323.93
650.07	38499.47
650.21	37937.74
650.36	38185.84
650.51	38134.35
650.65	38443.30
650.80	38506.49
650.94	38656.29
651.09	37975.19
651.23	37773.91
651.38	37972.85
651.52	37776.25
651.67	37649.86
651.81	37825.40
651.96	37406.44
652.10	37553.90
652.25	37720.07
652.39	37919.02
652.54	37766.88
652.68	37528.15
652.83	37659.22
652.97	37935.40
653.12	37883.91
653.26	37490.70
653.41	37682.62
653.55	37284.73
653.70	37268.35
653.84	37684.97
653.99	37780.93
654.13	37799.65
654.27	37598.37
654.42	37759.86
654.56	37476.66
654.71	37464.96
654.85	36919.61
655.00	37593.68
655.14	37132.60
655.29	36868.12
655.43	36966.42
655.57	36842.37
655.72	36861.10
655.86	36704.28
656.01	37064.72
656.15	36744.07
656.30	36762.79
656.44	36861.10
656.58	37076.43
656.73	36879.82
656.87	36708.96
657.01	36926.63
657.16	36692.58
657.30	36694.92
657.45	36669.17
657.59	36584.91
657.73	36250.22
657.88	36744.07
658.02	36327.45
658.16	36533.42
658.31	36643.43
658.45	36514.70
658.60	36376.61
658.74	36673.85
658.88	36638.75
659.03	36383.63
659.17	36184.68
659.31	36194.04
659.46	36184.68
659.60	35950.63
659.74	36177.66
659.89	35819.56
660.03	35962.33
660.17	36594.28
660.32	36018.50
660.46	36617.68
660.60	36149.57
660.74	35793.81
660.89	36027.87
661.03	35665.08
661.17	36203.41
661.32	35276.55
661.46	35531.67
661.60	35391.24
661.74	35356.13
661.89	35852.33
662.03	35772.75
662.17	35250.81
662.31	35311.66
662.46	35384.22
662.60	35166.55
662.74	35236.77
662.88	35206.34
663.03	35489.54
663.17	34869.30
663.31	35026.12
663.45	35082.29
663.60	35454.44
663.74	34958.24
663.88	34756.96
664.02	35089.31
664.17	35079.95
664.31	34871.64
664.45	34373.11
664.59	34859.94
664.73	34761.64
664.88	34623.54
665.02	34700.78
665.16	34232.68
665.30	34644.61
665.44	33951.81
665.59	33944.79
665.73	34415.24
665.87	33982.24
666.01	33865.21
666.15	34075.86
666.29	33806.70
666.44	34602.48
666.58	34045.43
666.72	34038.41
666.86	33928.41
667.00	34103.95
667.14	33720.10
667.28	33883.94
667.43	33530.51
667.57	33633.50
667.71	33579.67
667.85	33603.07
667.99	33516.47
668.13	33495.41
668.27	33074.11
668.41	33174.75
668.56	33242.63
668.70	33055.39
668.84	33109.22
668.98	32964.10
669.12	33380.72
669.26	33347.95
669.40	32898.57
669.54	32491.32
669.68	32882.19
669.82	33106.88
669.96	32608.34
670.10	32554.51
670.25	32432.80
670.39	32732.39
670.53	32465.57
670.67	32275.99
670.81	32526.42
670.95	32496.00
671.09	32477.27
671.23	32519.40
671.37	32428.12
671.51	31864.05
671.65	32243.22
671.79	32126.19
671.93	32039.59
672.07	32458.55
672.21	32215.13
672.35	31599.57
672.49	32023.21
672.63	31630.00
672.77	31716.60
672.91	31819.58
673.05	31143.17
673.19	31140.83
673.33	31307.01
673.47	30792.09
673.61	31126.78
673.75	30810.81
673.89	31269.56
674.03	30731.23
674.17	31056.57
674.31	30773.36
674.45	30902.09
674.59	30721.87
674.73	31023.80
674.87	31030.82
675.01	30731.23
675.15	30731.23
675.29	30759.32
675.43	30338.02
675.56	30820.17
675.70	30548.67
675.84	30197.59
675.98	29085.84
676.12	30015.03
676.26	29467.34
676.40	29680.33
676.54	29724.80
676.68	29488.41
676.82	29188.82
676.96	29249.67
677.10	28751.14
677.23	29039.03
677.37	29418.19
677.51	29120.95
677.65	29270.74
677.79	28606.03
677.93	28826.04
678.07	28863.49
678.21	28720.71
678.34	28636.45
678.48	28739.44
678.62	28112.17
678.76	28334.53
678.90	28135.58
679.04	28355.59
679.18	28542.83
679.31	28032.60
679.45	27908.55
679.59	27765.78
679.73	27857.06
679.87	27630.02
680.00	27709.60
680.14	27681.52
680.28	27314.05
680.42	27459.16
680.56	27475.55
680.70	27005.10
680.83	27030.85
680.97	27065.96
681.11	26663.38
681.25	26721.90
681.39	26796.79
681.52	26792.11
681.66	26654.02
681.80	26487.84
681.94	26429.33
682.07	26232.72
682.21	26410.60
682.35	25888.67
682.49	26478.48
682.62	26150.81
682.76	25914.41
682.90	25921.43
683.04	25654.61
683.17	25717.81
683.31	25736.53
683.45	25544.61
683.59	25458.01
683.72	25532.90
683.86	25165.44
684.00	25092.88
684.13	25088.20
684.27	25268.42
684.41	25287.15
684.55	25118.63
684.68	24599.03
684.82	24814.36
684.96	24624.78
685.09	24793.29
685.23	24144.97
685.37	24177.73
685.50	24037.30
685.64	24437.53
685.78	24257.31
685.91	24070.07
686.05	24339.23
686.19	23616.01
686.32	24180.07
686.46	23861.76
686.60	23440.47
686.73	23407.70
686.87	23557.49
687.01	23138.54
687.14	23126.83
687.28	23246.20
687.42	23213.43
687.55	23278.97
687.69	22810.86
687.82	22731.28
687.96	22993.42
688.10	22656.39
688.23	22693.83
688.37	22445.74
688.50	21813.79
688.64	22377.86
688.78	22101.68
688.91	21954.22
689.05	22417.65
689.18	22183.60
689.32	21514.20
689.46	21940.18
689.59	22040.82
689.73	22108.70
689.86	21734.21
690.00	21600.80
690.13	21731.87
690.27	21558.67
690.41	21076.52
690.54	21273.13
690.68	20919.71
690.81	21193.55
690.95	20858.85
691.08	20603.74
691.22	20732.47
691.35	20814.38
691.49	20978.22
691.62	20900.98
691.76	20835.45
691.89	20514.80
692.03	20332.23
692.16	20545.22
692.30	20142.65
692.43	20203.50
692.57	19814.98
692.70	20329.89
692.84	19885.19
692.97	19857.10
693.11	19461.55
693.24	19733.06
693.38	19491.98
693.51	19225.16
693.65	19456.87
693.78	19293.04
693.92	19449.85
694.05	19391.34
694.19	19227.50
694.32	19140.90
694.45	19061.32
694.59	18878.76
694.72	18656.41
694.86	18857.70
694.99	18857.70
695.13	18735.99
695.26	18565.13
695.39	18338.10
695.53	18326.39
695.66	18253.84
695.80	18349.80
695.93	18141.49
696.07	17907.44
696.20	18122.77
696.33	18101.70
696.47	17923.82
696.60	17905.10
696.73	17916.80
696.87	17790.41
697.00	17441.67
697.14	17605.51
697.27	17612.53
697.40	17710.83
697.54	17507.21
697.67	17329.33
697.80	17376.14
697.94	17020.38
698.07	16952.50
698.21	16933.78
698.34	17137.40
698.47	16692.70
698.61	16657.59
698.74	16594.40
698.87	16446.94
699.01	16189.49
699.14	16006.92
699.27	16517.16
699.40	16219.91
699.54	16114.59
699.67	15953.09
699.80	16226.93
699.94	15934.37
700.07	16135.65
700.20	15529.45
700.34	15611.37
700.47	15508.39
700.60	15894.58
700.73	15946.07
700.87	15838.41
701.00	15393.70
701.13	15396.04
701.26	15297.74
701.40	15213.48
701.53	15204.12
701.66	15051.99
701.79	15199.44
701.93	14937.30
702.06	14857.72
702.19	15145.61
702.32	14888.15
702.46	14927.94
702.59	14614.30
702.72	14696.22
702.85	14548.77
702.99	14998.15
703.12	14787.50
703.25	14626.01
703.38	14284.29
703.51	14097.05
703.65	14087.68
703.78	14181.31
703.91	14012.79
704.04	13907.46
704.17	13994.06
704.31	13802.14
704.44	13554.04
704.57	13532.98
704.70	13530.64
704.83	13507.23
704.96	13502.55
705.10	13528.30
705.23	13792.78
>>>>>End Processed Spectral Data<<<<<
