SpectraSuite Data File
++++++++++++++++++++++++++++++++++++
Date: Fri Oct 25 10:44:45 EDT 2013
User: price-jones
Dark Spectrum Present: No
Reference Spectrum Present: No
Number of Sampled Component Spectra: 1
Spectrometers: USB2+H05261
Integration Time (usec): 100000 (USB2+H05261)
Spectra Averaged: 1 (USB2+H05261)
Boxcar Smoothing: 0 (USB2+H05261)
Correct for Electrical Dark: No (USB2+H05261)
Strobe/Lamp Enabled: No (USB2+H05261)
Correct for Detector Non-linearity: No (USB2+H05261)
Correct for Stray Light: No (USB2+H05261)
Number of Pixels in Processed Spectrum: 2048
>>>>>Begin Processed Spectral Data<<<<<
365.73	166.18
365.92	166.18
366.12	166.18
366.32	58.51
366.52	39.79
366.72	93.62
366.91	51.49
367.11	7.02
367.31	0.00
367.51	23.41
367.70	51.49
367.90	53.83
368.10	30.43
368.30	18.72
368.49	9.36
368.69	98.30
368.89	11.70
369.09	0.00
369.28	28.09
369.48	14.04
369.68	93.62
369.87	105.32
370.07	126.39
370.27	175.54
370.47	191.92
370.66	332.36
370.86	355.76
371.06	477.47
371.25	454.06
371.45	456.40
371.65	449.38
371.84	435.34
372.04	517.26
372.24	428.32
372.44	449.38
372.63	503.22
372.83	512.58
373.03	458.74
373.22	461.09
373.42	482.15
373.62	538.32
373.81	489.17
374.01	535.98
374.21	510.24
374.40	622.58
374.60	545.34
374.79	524.28
374.99	550.03
375.19	554.71
375.38	594.50
375.58	606.20
375.78	601.52
375.97	596.84
376.17	617.90
376.37	613.22
376.56	566.41
376.76	655.35
376.95	561.73
377.15	638.97
377.35	629.60
377.54	559.39
377.74	575.77
377.93	521.94
378.13	575.77
378.33	631.94
378.52	596.84
378.72	585.13
378.91	610.88
379.11	617.90
379.31	645.99
379.50	660.03
379.70	596.84
379.89	662.37
380.09	674.07
380.28	571.09
380.48	669.39
380.68	671.73
380.87	737.27
381.07	643.65
381.26	699.82
381.46	704.50
381.65	657.69
381.85	650.67
382.04	669.39
382.24	667.05
382.43	634.29
382.63	688.12
382.83	702.16
383.02	648.33
383.22	741.95
383.41	678.76
383.61	723.23
383.80	669.39
384.00	718.54
384.19	734.93
384.39	758.33
384.58	753.65
384.78	800.46
384.97	828.55
385.17	692.80
385.36	690.46
385.56	737.27
385.75	725.57
385.95	833.23
386.14	727.91
386.34	755.99
386.53	812.17
386.72	709.18
386.92	706.84
387.11	812.17
387.31	821.53
387.50	755.99
387.70	779.40
387.89	856.64
388.09	814.51
388.28	849.61
388.48	805.14
388.67	786.42
388.86	826.21
389.06	954.94
389.25	966.64
389.45	887.06
389.64	826.21
389.84	912.81
390.03	950.26
390.22	847.27
390.42	1015.79
390.61	929.19
390.81	870.68
391.00	898.77
391.19	943.24
391.39	1008.77
391.58	992.39
391.78	931.53
391.97	985.37
392.16	877.70
392.36	1043.88
392.55	966.64
392.75	983.02
392.94	976.00
393.13	849.61
393.33	933.87
393.52	1001.75
393.71	954.94
393.91	964.30
394.10	987.71
394.29	1029.84
394.49	1069.62
394.68	1057.92
394.88	1121.12
395.07	1158.57
395.26	1153.88
395.46	1083.67
395.65	1097.71
395.84	1139.84
396.04	1158.57
396.23	1109.41
396.42	1088.35
396.62	1111.75
396.81	1146.86
397.00	1137.50
397.19	1217.08
397.39	1200.69
397.58	1247.51
397.77	1228.78
397.97	1277.93
398.16	1282.61
398.35	1380.92
398.55	1348.15
398.74	1306.02
398.93	1390.28
399.12	1277.93
399.32	1308.36
399.51	1359.85
399.70	1345.81
399.90	1404.32
400.09	1465.18
400.28	1537.73
400.47	1434.75
400.67	1504.96
400.86	1434.75
401.05	1469.86
401.24	1434.75
401.44	1486.24
401.63	1577.52
401.82	1589.22
402.01	1511.99
402.21	1558.80
402.40	1481.56
402.59	1598.59
402.78	1582.20
402.97	1561.14
403.17	1605.61
403.36	1610.29
403.55	1579.86
403.74	1685.19
403.93	1584.54
404.13	1685.19
404.32	1659.44
404.51	1640.72
404.70	1673.48
404.89	1755.40
405.09	1736.68
405.28	1736.68
405.47	1717.95
405.66	1760.08
405.85	1724.97
406.05	1823.28
406.24	1863.07
406.43	1891.15
406.62	1809.23
406.81	1935.62
407.00	1816.26
407.20	1785.83
407.39	1837.32
407.58	1926.26
407.77	1909.88
407.96	1907.54
408.15	1919.24
408.34	1963.71
408.54	1984.77
408.73	2054.99
408.92	2052.65
409.11	2092.44
409.30	2066.69
409.49	2033.93
409.68	2050.31
409.87	2090.10
410.07	2172.02
410.26	2069.03
410.45	2157.97
410.64	2127.55
410.83	2209.47
411.02	2176.70
411.21	2237.55
411.40	2310.11
411.59	2298.41
411.78	2296.07
411.98	2340.54
412.17	2452.88
412.36	2331.17
412.55	2387.35
412.74	2445.86
412.93	2541.82
413.12	2487.99
413.31	2544.16
413.50	2583.95
413.69	2459.90
413.88	2633.10
414.07	2546.50
414.26	2663.53
414.45	2705.66
414.64	2654.17
414.83	2918.65
415.02	2745.45
415.22	2853.11
415.41	2864.82
415.60	2785.24
415.79	2925.67
415.98	2871.84
416.17	2904.60
416.36	2846.09
416.55	2949.08
416.74	2909.29
416.93	3026.31
417.12	2878.86
417.31	3049.72
417.50	3012.27
417.69	3110.57
417.88	3040.36
418.07	3131.64
418.26	3009.93
418.45	3187.81
418.64	3349.31
418.83	3169.09
419.02	3096.53
419.21	3091.85
419.39	3267.39
419.58	3253.34
419.77	3115.25
419.96	3279.09
420.15	3307.18
420.34	3288.45
420.53	3400.80
420.72	3382.07
420.91	3417.18
421.10	3433.57
421.29	3311.86
421.48	3487.40
421.67	3562.30
421.86	3382.07
422.05	3318.88
422.24	3421.86
422.43	3356.33
422.61	3454.63
422.80	3653.58
422.99	3651.24
423.18	3562.30
423.37	3592.72
423.56	3651.24
423.75	3513.14
423.94	3492.08
424.13	3370.37
424.32	3487.40
424.50	3639.53
424.69	3630.17
424.88	3632.51
425.07	3531.87
425.26	3585.70
425.45	3588.04
425.64	3637.19
425.83	3637.19
426.01	3616.13
426.20	3590.38
426.39	3709.75
426.58	3620.81
426.77	3723.79
426.96	3747.20
427.15	3695.71
427.33	3784.65
427.52	3604.42
427.71	3714.43
427.90	3669.96
428.09	3723.79
428.28	3857.20
428.46	3840.82
428.65	3784.65
428.84	3775.28
429.03	3918.06
429.22	3676.98
429.40	3913.38
429.59	3688.68
429.78	3517.83
429.97	3609.11
430.16	3840.82
430.34	3871.25
430.53	3871.25
430.72	3939.12
430.91	3845.50
431.10	4070.19
431.28	4149.77
431.47	4383.82
431.66	4297.22
431.85	3992.95
432.03	4259.78
432.22	4395.53
432.41	4163.81
432.60	4236.37
432.79	4299.56
432.97	4374.46
433.16	4369.78
433.35	4189.56
433.54	4320.63
433.72	4318.29
433.91	4173.18
434.10	4393.19
434.28	4329.99
434.47	4447.02
434.66	4341.69
434.85	4566.39
435.03	4414.25
435.22	4524.26
435.41	4664.69
435.59	4531.28
435.78	4641.28
435.97	4592.13
436.16	4634.26
436.34	4688.09
436.53	4758.31
436.72	4744.27
436.90	4662.35
437.09	4837.89
437.28	4697.46
437.46	4706.82
437.65	4755.97
437.84	4751.29
438.02	4631.92
438.21	4929.17
438.40	4720.86
438.58	5029.81
438.77	4940.87
438.96	4980.66
439.14	5083.64
439.33	5076.62
439.52	5284.93
439.70	5076.62
439.89	5296.63
440.08	5259.18
440.26	5296.63
440.45	5217.05
440.63	5348.12
440.82	5418.34
441.01	5413.66
441.19	5455.79
441.38	5596.22
441.57	5465.15
441.75	5713.25
441.94	5792.83
442.12	5785.80
442.31	5865.38
442.50	5795.17
442.68	5832.62
442.87	5767.08
443.05	5795.17
443.24	6012.84
443.43	5858.36
443.61	5806.87
443.80	6080.71
443.98	5746.02
444.17	5657.07
444.35	5863.04
444.54	6108.80
444.73	5935.60
444.91	5769.42
445.10	5966.03
445.28	5951.98
445.47	5809.21
445.65	5827.93
445.84	5860.70
446.02	6010.50
446.21	6015.18
446.39	5963.68
446.58	6050.28
446.77	6155.61
446.95	5891.13
447.14	6054.97
447.32	5996.45
447.51	6050.28
447.69	6047.94
447.88	6090.07
448.06	6024.54
448.25	6029.22
448.43	6211.78
448.62	5928.58
448.80	6115.82
448.99	6141.57
449.17	6352.21
449.36	6134.54
449.54	6394.34
449.73	6516.05
449.91	6216.46
450.10	6546.48
450.28	6621.38
450.46	6565.20
450.65	6597.97
450.83	6621.38
451.02	6363.92
451.20	6572.22
451.39	6420.09
451.57	6579.25
451.76	6586.27
451.94	6672.87
452.13	6567.54
452.31	6516.05
452.49	6527.75
452.68	6642.44
452.86	6595.63
453.05	6874.15
453.23	6604.99
453.42	6633.08
453.60	6722.02
453.78	6799.26
453.97	6829.68
454.15	6839.05
454.34	6754.79
454.52	6874.15
454.70	6916.28
454.89	6881.18
455.07	6869.47
455.26	6930.33
455.44	7009.90
455.62	7091.82
455.81	7115.23
455.99	7105.87
456.17	7159.70
456.36	7246.30
456.54	7288.43
456.73	7103.53
456.91	7461.63
457.09	7529.50
457.28	7576.31
457.46	7269.70
457.64	7559.93
457.83	7178.42
458.01	7293.11
458.19	7438.22
458.38	7246.30
458.56	7536.52
458.74	7494.40
458.93	7473.33
459.11	7695.68
459.29	7606.74
459.48	7756.54
459.66	7555.25
459.84	7775.26
460.03	7737.81
460.21	7616.10
460.39	7709.72
460.57	7754.19
460.76	7700.36
460.94	7815.05
461.12	7840.79
461.31	7901.65
461.49	7978.89
461.67	7922.71
461.85	8217.62
462.04	8030.38
462.22	8142.72
462.40	8217.62
462.59	7967.18
462.77	8086.55
462.95	7875.90
463.13	8222.30
463.32	8121.66
463.50	8093.57
463.68	8121.66
463.86	8306.56
464.05	8009.31
464.23	8224.64
464.41	8322.94
464.59	8131.02
464.78	8498.49
464.96	8400.18
465.14	8430.61
465.32	8432.95
465.50	8339.33
465.69	8559.34
465.87	8325.29
466.05	8479.76
466.23	8320.60
466.41	8360.39
466.60	8578.06
466.78	8592.11
466.96	8559.34
467.14	8535.93
467.32	8636.58
467.51	8636.58
467.69	8402.52
467.87	8676.37
468.05	8760.63
468.23	8648.28
468.41	8664.66
468.60	8800.41
468.78	8865.95
468.96	8727.86
469.14	8926.80
469.32	8994.68
469.50	8723.18
469.69	9025.11
469.87	9097.66
470.05	8952.55
470.23	9160.86
470.41	9036.81
470.59	9104.68
470.77	8990.00
470.95	9261.50
471.14	9280.22
471.32	9327.03
471.50	9362.14
471.68	9336.40
471.86	9483.85
472.04	9525.98
472.22	9696.84
472.40	9249.80
472.58	9408.95
472.77	9614.92
472.95	9523.64
473.13	10029.20
473.31	9685.14
473.49	9675.77
473.67	9631.30
473.85	9914.51
474.03	9799.82
474.21	9888.76
474.39	10333.47
474.57	10125.16
474.75	10310.06
474.93	10387.30
475.12	10277.29
475.30	10244.52
475.48	10377.94
475.66	10551.14
475.84	10537.09
476.02	10619.01
476.20	10565.18
476.38	10686.89
476.56	10927.96
476.74	10761.78
476.92	10817.96
477.10	10836.68
477.28	11302.45
477.46	11133.93
477.64	11070.73
477.82	11246.27
478.00	11756.51
478.18	11414.79
478.36	11517.78
478.54	11857.15
478.72	11700.34
478.90	11782.26
479.08	11918.01
479.26	11812.68
479.44	12159.08
479.62	12086.53
479.80	12030.35
479.98	12271.43
480.16	12739.54
480.34	12336.96
480.52	12826.14
480.70	12507.82
480.88	12566.34
481.06	12725.49
481.24	12730.17
481.41	13266.16
481.59	13193.60
481.77	13179.56
481.95	13352.76
482.13	13296.58
482.31	13270.84
482.49	13603.19
482.67	13554.04
482.85	13724.90
483.03	13724.90
483.21	14169.60
483.39	14204.71
483.57	14190.67
483.74	14134.50
483.92	14466.85
484.10	14354.51
484.28	14773.46
484.46	14925.60
484.64	15229.87
484.82	14745.38
485.00	14974.75
485.18	15147.95
485.35	15318.81
485.53	15204.12
485.71	14843.68
485.89	15260.29
486.07	15012.20
486.25	15412.43
486.43	15683.93
486.61	15990.54
486.78	15950.75
486.96	16152.04
487.14	16505.46
487.32	16755.90
487.50	16556.95
487.68	16769.94
487.85	17149.11
488.03	17334.01
488.21	17301.24
488.39	17125.70
488.57	17312.94
488.75	17565.72
488.92	17699.13
489.10	17715.51
489.28	18005.74
489.46	18155.54
489.64	18153.20
489.81	18455.12
489.99	18471.51
490.17	18714.92
490.35	18871.74
490.53	18703.22
490.70	18728.97
490.88	18801.52
491.06	19297.72
491.24	19112.81
491.41	19365.59
491.59	19524.75
491.77	19543.47
491.95	19763.48
492.13	19428.79
492.30	19927.32
492.48	20191.80
492.66	20091.16
492.84	19843.06
493.01	20676.29
493.19	20329.89
493.37	20247.97
493.54	20697.36
493.72	21018.01
493.90	21069.50
494.08	21064.82
494.25	21406.54
494.43	21350.37
494.61	21696.77
494.79	21797.41
494.96	21563.36
495.14	21865.28
495.32	22005.72
495.49	22207.00
495.67	22064.23
495.85	22326.37
496.02	22675.11
496.20	22883.42
496.38	22740.64
496.55	22960.66
496.73	23044.91
496.91	23014.49
497.09	23002.78
497.26	23325.78
497.44	23096.41
497.62	23330.46
497.79	23852.40
497.97	23379.61
498.14	23639.41
498.32	23583.24
498.50	23887.51
498.67	24009.22
498.85	24238.59
499.03	24226.89
499.20	24107.52
499.38	24601.37
499.56	24606.05
499.73	24858.83
499.91	24903.30
500.08	24732.44
500.26	24521.79
500.44	25092.88
500.61	24746.48
500.79	24540.52
500.97	25359.70
501.14	25425.24
501.32	25551.63
501.49	25448.64
501.67	25312.89
501.84	25790.36
502.02	25626.53
502.20	25773.98
502.37	26026.76
502.55	26096.97
502.72	25912.07
502.90	26160.17
503.07	26265.49
503.25	26354.43
503.43	26307.62
503.60	26312.30
503.78	26015.05
503.95	26508.91
504.13	26754.66
504.30	26822.54
504.48	26693.81
504.65	26822.54
504.83	27026.17
505.01	27112.77
505.18	27370.22
505.36	27852.38
505.53	27491.93
505.71	27803.22
505.88	27583.21
506.06	27140.85
506.23	27721.30
506.41	27487.25
506.58	27819.61
506.76	27814.93
506.93	27950.68
507.11	28163.67
507.28	28102.81
507.46	28116.86
507.63	28158.99
507.81	28383.68
507.98	28250.27
508.16	28168.35
508.33	28364.95
508.50	28535.81
508.68	28575.60
508.85	28912.64
509.03	28748.80
509.20	28982.85
509.38	29242.65
509.55	28804.97
509.73	29193.50
509.90	29759.91
510.08	29476.71
510.25	29329.25
510.42	29687.36
510.60	29661.61
510.77	29598.41
510.95	29858.21
511.12	29984.60
511.30	30012.69
511.47	30326.32
511.64	30326.32
511.82	30569.74
511.99	30494.84
512.17	30087.59
512.34	30543.99
512.51	30691.44
512.69	30604.84
512.86	30487.82
513.04	31037.84
513.21	30635.27
513.38	31159.55
513.56	31044.87
513.73	30778.04
513.90	30909.11
514.08	30473.78
514.25	31103.38
514.43	30906.77
514.60	30974.65
514.77	31412.33
514.95	31824.26
515.12	31615.96
515.29	31562.12
515.47	31454.46
515.64	31782.13
515.81	31498.93
515.99	31934.27
516.16	31988.10
516.33	31929.59
516.51	32027.89
516.68	31697.88
516.85	31845.33
517.03	32205.77
517.20	32107.47
517.37	32020.87
517.54	32587.28
517.72	32437.48
517.89	32437.48
518.06	32643.45
518.24	32603.66
518.41	32304.07
518.58	32594.30
518.75	32580.26
518.93	33137.30
519.10	33067.09
519.27	32882.19
519.45	33041.34
519.62	33266.03
519.79	33289.44
519.96	33298.80
520.14	33542.22
520.31	33474.34
520.48	33338.59
520.65	33617.11
520.83	33544.56
521.00	34000.96
521.17	33961.17
521.34	34089.90
521.52	33970.54
521.69	34476.09
521.86	34354.38
522.03	33926.07
522.20	33883.94
522.38	34534.60
522.55	34345.02
522.72	34092.24
522.89	34340.34
523.07	34745.25
523.24	34866.96
523.41	34508.86
523.58	35012.07
523.75	35012.07
523.92	35023.78
524.10	35409.96
524.27	35054.20
524.44	35316.34
524.61	35732.96
524.78	35068.25
524.96	35725.94
525.13	35409.96
525.30	35798.49
525.47	35660.40
525.64	35494.22
525.81	35505.93
525.98	35629.98
526.16	35290.60
526.33	35756.36
526.50	35634.66
526.67	35447.41
526.84	35632.32
527.01	35723.60
527.18	35952.97
527.36	36030.21
527.53	36467.89
527.70	36301.71
527.87	35833.60
528.04	36079.36
528.21	36463.21
528.38	36589.59
528.55	37003.87
528.72	36250.22
528.89	36715.98
529.07	36299.37
529.24	36680.88
529.41	36500.65
529.58	36905.57
529.75	37029.62
529.92	36987.49
530.09	36762.79
530.26	37099.83
530.43	37261.33
530.60	36620.02
530.77	37109.19
530.94	37167.71
531.11	37230.90
531.28	37287.07
531.46	37015.57
531.63	37797.31
531.80	37357.29
531.97	37586.66
532.14	37666.24
532.31	37123.24
532.48	37823.06
532.65	37507.08
532.82	37755.18
532.99	37474.32
533.16	37474.32
533.33	38110.94
533.50	37904.98
533.67	38265.42
533.84	37825.40
534.01	38139.03
534.18	38483.09
534.35	38508.83
534.52	38040.73
534.69	37989.24
534.86	38319.25
535.03	38134.35
535.20	38548.62
535.37	38656.29
535.54	38824.81
535.71	38223.29
535.88	38976.94
536.05	38380.10
536.22	38574.37
536.38	38684.37
536.55	38597.77
536.72	38955.88
536.89	38672.67
537.06	38740.55
537.23	38976.94
537.40	38684.37
537.57	39021.41
537.74	38995.67
537.91	39407.60
538.08	39229.72
538.25	38829.49
538.42	39154.82
538.59	39704.85
538.75	38979.28
538.92	39058.86
539.09	39515.26
539.26	39508.24
539.43	39377.17
539.60	38990.98
539.77	39321.00
539.94	39564.42
540.11	39641.65
540.28	39562.08
540.44	39779.74
540.61	39068.22
540.78	39646.33
540.95	39683.78
541.12	39739.96
541.29	39807.83
541.46	39477.82
541.62	39730.59
541.79	40224.45
541.96	39571.44
542.13	39981.03
542.30	40009.12
542.47	40184.66
542.63	39882.73
542.80	40432.75
542.97	40322.75
543.14	40629.36
543.31	40151.89
543.48	40737.02
543.64	41153.64
543.81	40786.18
543.98	40610.64
544.15	40952.35
544.32	40987.46
544.48	41340.88
544.65	41177.04
544.82	40938.31
544.99	40767.45
545.16	40945.33
545.32	40957.03
545.49	41741.11
545.66	41551.53
545.83	41521.10
546.00	41516.42
546.16	41277.69
546.33	41488.34
546.50	40992.14
546.67	41298.75
546.83	40952.35
547.00	41319.82
547.17	41057.68
547.34	41605.36
547.50	41422.80
547.67	41434.50
547.84	41883.89
548.00	41401.74
548.17	42024.32
548.34	41326.84
548.51	41731.75
548.67	42066.45
548.84	41780.90
549.01	41570.25
549.18	41928.36
549.34	41923.68
549.51	42195.18
549.68	42136.66
549.84	42220.92
550.01	42227.95
550.18	41949.42
550.34	42284.12
550.51	42099.22
550.68	42295.82
550.84	41792.61
551.01	42146.03
551.18	41865.16
551.34	42450.30
551.51	42293.48
551.68	42452.64
551.84	41897.93
552.01	42286.46
552.18	42546.26
552.34	42288.80
552.51	42600.09
552.68	42157.73
552.84	42869.25
553.01	42539.24
553.18	42745.20
553.34	42806.06
553.51	42225.60
553.67	42394.12
553.84	42934.79
554.01	42518.17
554.17	42958.19
554.34	42759.25
554.51	43084.58
554.67	43100.97
554.84	42843.51
555.00	43021.39
555.17	43103.31
555.33	42677.33
555.50	42763.93
555.67	43320.98
555.83	43122.03
556.00	42946.49
556.16	43576.09
556.33	42979.26
556.50	43129.05
556.66	42988.62
556.83	42450.30
556.99	43253.10
557.16	43618.22
557.32	43278.85
557.49	43342.04
557.65	43388.85
557.82	43236.72
557.98	43349.06
558.15	43049.47
558.32	43421.62
558.48	43508.22
558.65	43173.52
558.81	43166.50
558.98	43196.93
559.14	43115.01
559.31	43370.13
559.47	43674.40
559.64	43889.73
559.80	43454.39
559.97	43606.52
560.13	43608.86
560.30	43192.25
560.46	43402.89
560.63	43756.32
560.79	44025.48
560.96	43934.20
561.12	43592.48
561.29	43112.67
561.45	43833.55
561.61	43491.83
561.78	43686.10
561.94	43292.89
562.11	43744.61
562.27	43447.36
562.44	43997.39
562.60	43971.64
562.77	43948.24
562.93	43718.87
563.10	43840.57
563.26	43615.88
563.42	43639.29
563.59	43901.43
563.75	43793.76
563.92	44032.50
564.08	44208.04
564.24	44275.91
564.41	44488.90
564.57	44002.07
564.74	43899.09
564.90	44034.84
565.07	43885.04
565.23	43786.74
565.39	44161.23
565.56	44439.75
565.72	43679.08
565.88	43718.87
566.05	44081.65
566.21	43943.56
566.38	43730.57
566.54	44009.09
566.70	44425.71
566.87	44404.64
567.03	44442.09
567.19	44325.07
567.36	43821.85
567.52	44292.30
567.68	44254.85
567.85	44296.98
568.01	44748.70
568.17	43690.78
568.34	44645.72
568.50	44055.90
568.66	44142.50
568.83	44231.44
568.99	43999.73
569.15	44301.66
569.32	43690.78
569.48	44002.07
569.64	44329.75
569.81	44208.04
569.97	44247.83
570.13	44385.92
570.30	44053.56
570.46	44240.81
570.62	44093.35
570.78	43964.62
570.95	43915.47
571.11	44589.55
571.27	44142.50
571.43	43983.35
571.60	44053.56
571.76	43941.22
571.92	44404.64
572.09	44610.61
572.25	44334.43
572.41	44444.43
572.57	44350.81
572.74	44577.84
572.90	44559.12
573.06	44456.14
573.22	44531.03
573.38	44088.67
573.55	44245.49
573.71	44947.65
573.87	44505.29
574.03	44088.67
574.20	44236.12
574.36	44683.17
574.52	44528.69
574.68	44395.28
574.84	44554.44
575.01	44463.16
575.17	44598.91
575.33	43903.77
575.49	44369.54
575.65	44664.44
575.82	44259.53
575.98	44114.42
576.14	44863.39
576.30	44626.99
576.46	44390.60
576.62	44226.76
576.79	44100.37
576.95	44133.14
577.11	44329.75
577.27	44479.54
577.43	44442.09
577.59	44624.65
577.75	44399.96
577.92	44231.44
578.08	44114.42
578.24	44589.55
578.40	44477.20
578.56	45003.82
578.72	44622.31
578.88	44971.05
579.04	44835.30
579.21	44133.14
579.37	44865.73
579.53	44638.70
579.69	44538.05
579.85	44250.17
580.01	44378.90
580.17	44760.40
580.33	44762.75
580.49	44898.50
580.65	44980.42
580.82	44912.54
580.98	44617.63
581.14	44655.08
581.30	44772.11
581.46	44788.49
581.62	44783.81
581.78	44617.63
581.94	44933.60
582.10	44275.91
582.26	44713.59
582.42	44872.75
582.58	44411.67
582.74	44385.92
582.90	45158.30
583.06	44905.52
583.22	44603.59
583.38	44921.90
583.54	44804.88
583.70	44856.37
583.86	44355.49
584.02	44601.25
584.18	44921.90
584.34	44390.60
584.50	44713.59
584.66	44552.10
584.82	44191.65
584.98	44753.38
585.14	44804.88
585.30	44718.28
585.46	44753.38
585.62	44678.49
585.78	44877.43
585.94	44374.22
586.10	44495.92
586.26	44362.51
586.42	44814.24
586.58	44910.20
586.74	44257.19
586.90	44842.32
587.06	44549.76
587.22	44437.41
587.38	44507.63
587.54	44612.95
587.70	44875.09
587.86	44643.38
588.02	44488.90
588.18	44811.90
588.34	44882.11
588.49	44456.14
588.65	44456.14
588.81	44439.75
588.97	44786.15
589.13	44683.17
589.29	44362.51
589.45	44699.55
589.61	44870.41
589.77	44975.73
589.93	44900.84
590.08	44725.30
590.24	44683.17
590.40	44811.90
590.56	45155.96
590.72	45298.73
590.88	45015.52
591.04	44903.18
591.20	45195.74
591.35	45167.66
591.51	45186.38
591.67	44996.80
591.83	45137.23
591.99	44832.96
592.15	45151.27
592.31	44758.06
592.46	44577.84
592.62	44645.72
592.78	44933.60
592.94	45111.49
593.10	44994.46
593.26	44811.90
593.41	44664.44
593.57	44856.37
593.73	45123.19
593.89	44987.44
594.05	44905.52
594.20	45022.54
594.36	44744.02
594.52	44957.01
594.68	44676.15
594.84	44868.07
594.99	45240.21
595.15	44608.27
595.31	44875.09
595.47	45120.85
595.62	45317.45
595.78	44964.03
595.94	45467.25
596.10	45495.33
596.25	45312.77
596.41	45081.06
596.57	44879.77
596.73	45600.66
596.88	44697.21
597.04	45216.81
597.20	45298.73
597.36	44982.76
597.51	44898.50
597.67	45195.74
597.83	45029.57
597.99	45687.26
598.14	45174.68
598.30	44891.48
598.46	44889.13
598.61	45113.83
598.77	44807.22
598.93	45085.74
599.09	44935.95
599.24	45563.21
599.40	45291.71
599.56	45256.60
599.71	45001.48
599.87	45453.20
600.03	45020.20
600.18	45605.34
600.34	45134.89
600.50	45308.09
600.65	44636.36
600.81	45394.69
600.97	45223.83
601.12	45268.30
601.28	45361.92
601.44	44734.66
601.59	44697.21
601.75	44966.37
601.91	44669.12
602.06	44727.64
602.22	45305.75
602.37	44807.22
602.53	44832.96
602.69	45415.76
602.84	44975.73
603.00	45027.23
603.16	45139.57
603.31	44954.67
603.47	45010.84
603.62	44982.76
603.78	44753.38
603.94	44720.62
604.09	45411.07
604.25	45518.74
604.40	44996.80
604.56	45301.07
604.71	45404.05
604.87	44879.77
605.03	45223.83
605.18	44774.45
605.34	44856.37
605.49	44685.51
605.65	44790.83
605.80	44982.76
605.96	45074.04
606.12	44669.12
606.27	45181.70
606.43	44978.07
606.58	45249.58
606.74	44556.78
606.89	44996.80
607.05	45132.55
607.20	44863.39
607.36	45052.97
607.51	44907.86
607.67	45006.16
607.82	44502.95
607.98	44495.92
608.13	44835.30
608.29	44587.21
608.44	44706.57
608.60	44526.35
608.75	44568.48
608.91	44378.90
609.06	44652.74
609.22	44832.96
609.37	44472.52
609.53	44837.64
609.68	44975.73
609.84	44568.48
609.99	44641.04
610.15	44886.79
610.30	44619.97
610.46	44374.22
610.61	44683.17
610.76	44577.84
610.92	44570.82
611.07	44872.75
611.23	44285.28
611.38	44514.65
611.54	44013.77
611.69	44631.68
611.84	44091.01
612.00	44299.32
612.15	44182.29
612.31	44751.04
612.46	44191.65
612.62	44320.38
612.77	44327.41
612.92	44425.71
613.08	44205.70
613.23	44095.69
613.39	44091.01
613.54	44315.70
613.69	44250.17
613.85	44194.00
614.00	43976.33
614.15	44252.51
614.31	44430.39
614.46	44423.37
614.62	44198.68
614.77	43430.98
614.92	44369.54
615.08	44268.89
615.23	43779.72
615.38	44212.72
615.54	43700.14
615.69	43665.03
615.84	43620.56
616.00	43917.81
616.15	43423.96
616.30	44027.82
616.46	43810.15
616.61	43566.73
616.76	43686.10
616.92	43531.62
617.07	43393.53
617.22	43185.22
617.37	43363.11
617.53	43466.09
617.68	43501.20
617.83	44051.22
617.99	44128.46
618.14	43454.39
618.29	43646.31
618.45	43033.09
618.60	42827.12
618.75	43482.47
618.90	43576.09
619.06	43379.49
619.21	43143.09
619.36	43416.94
619.51	43498.86
619.67	43711.84
619.82	43592.48
619.97	43147.78
620.12	43449.70
620.28	43154.80
620.43	43103.31
620.58	43229.69
620.73	42911.38
620.89	42810.74
621.04	43353.74
621.19	43236.72
621.34	42951.17
621.49	42993.30
621.65	42672.65
621.80	42696.05
621.95	43002.66
622.10	42717.12
622.25	43143.09
622.41	42490.09
622.56	42642.22
622.71	43379.49
622.86	43124.37
623.01	42597.75
623.16	42663.28
623.32	42499.45
623.47	42806.06
623.62	42674.99
623.77	42522.85
623.92	42801.38
624.07	42586.05
624.23	42321.57
624.38	42447.96
624.53	42593.07
624.68	42560.30
624.83	42459.66
624.98	42328.59
625.13	41935.38
625.29	42314.55
625.44	42347.31
625.59	41846.44
625.74	41722.39
625.89	41787.92
626.04	42071.13
626.19	42101.56
626.34	42096.88
626.49	42419.87
626.65	42630.52
626.80	42312.20
626.95	42185.82
627.10	42101.56
627.25	42291.14
627.40	41933.04
627.55	41776.22
627.70	41605.36
627.85	41476.63
628.00	41757.50
628.15	42045.38
628.30	41504.72
628.45	41942.40
628.60	41645.15
628.76	41869.84
628.91	42017.30
629.06	41858.14
629.21	41586.64
629.36	41701.32
629.51	41209.81
629.66	41450.89
629.81	41495.36
629.96	41640.47
630.11	41324.50
630.26	41270.67
630.41	41872.18
630.56	41261.30
630.71	41116.19
630.86	40629.36
631.01	41057.68
631.16	41502.38
631.31	40884.48
631.46	41043.63
631.61	41153.64
631.76	41071.72
631.91	41200.45
632.06	41338.54
632.21	41464.93
632.36	41193.43
632.51	41216.83
632.66	41057.68
632.81	40697.24
632.96	40985.12
633.10	40774.47
633.25	41174.70
633.40	41104.49
633.55	41053.00
633.70	40704.26
633.85	40699.58
634.00	40893.84
634.15	40928.95
634.30	40772.13
634.45	40947.67
634.60	40732.34
634.75	41055.34
634.90	40367.22
635.05	40203.38
635.19	40430.41
635.34	40566.16
635.49	40594.25
635.64	40278.28
635.79	40357.86
635.94	40018.48
636.09	40107.42
636.24	39931.88
636.39	40058.27
636.53	40402.33
636.68	39922.52
636.83	40196.36
636.98	40439.78
637.13	39922.52
637.28	40203.38
637.43	40364.88
637.57	40783.83
637.72	40407.01
637.87	40116.78
638.02	40261.90
638.17	40215.08
638.32	39974.01
638.46	40006.78
638.61	40051.25
638.76	40114.44
638.91	40006.78
639.06	39744.64
639.20	39475.48
639.35	40144.87
639.50	40020.82
639.65	40144.87
639.80	40004.44
639.94	39840.60
640.09	39807.83
640.24	39683.78
640.39	38930.13
640.54	39456.75
640.68	39653.36
640.83	39739.96
640.98	39503.56
641.13	39351.43
641.27	39578.46
641.42	39159.50
641.57	39697.83
641.72	39669.74
641.86	39529.31
642.01	39044.82
642.16	39154.82
642.31	38625.86
642.45	39585.48
642.60	38780.34
642.75	38939.49
642.90	39105.67
643.04	39468.45
643.19	39189.93
643.34	39487.18
643.48	39152.48
643.63	39026.09
643.78	39187.59
643.93	38581.39
644.07	38677.35
644.22	38923.11
644.37	38850.55
644.51	39220.36
644.66	39096.31
644.81	39337.38
644.95	39304.62
645.10	39136.10
645.25	39164.18
645.39	38801.40
645.54	39517.60
645.69	38384.79
645.83	38621.18
645.98	38712.46
646.13	38986.30
646.27	39140.78
646.42	38511.17
646.57	38745.23
646.71	38815.44
646.86	39056.52
647.00	38731.18
647.15	39042.48
647.30	38787.36
647.44	38756.93
647.59	38588.41
647.74	38506.49
647.88	38993.32
648.03	38782.68
648.17	38506.49
648.32	38569.69
648.47	38389.47
648.61	38422.23
648.76	38176.48
648.90	38218.61
649.05	37982.21
649.20	38265.42
649.34	38396.49
649.49	38052.43
649.63	38108.60
649.78	38391.81
649.92	37785.61
650.07	38567.35
650.21	37476.66
650.36	38068.81
650.51	38167.12
650.65	38209.25
650.80	38284.14
650.94	38354.36
651.09	38036.05
651.23	37965.83
651.38	37794.97
651.52	37991.58
651.67	37567.94
651.81	37610.07
651.96	37785.61
652.10	38040.73
652.25	37926.04
652.39	37680.28
652.54	37682.62
652.68	38101.58
652.83	38059.45
652.97	37879.23
653.12	37951.79
653.26	37258.99
653.41	37680.28
653.55	37331.54
653.70	37095.15
653.84	37308.14
653.99	37469.64
654.13	37301.12
654.27	37453.25
654.42	36861.10
654.56	37427.51
654.71	37275.37
654.85	37308.14
655.00	37652.20
655.14	36912.59
655.29	36837.69
655.43	36966.42
655.57	36868.12
655.72	36889.18
655.86	36631.72
656.01	36613.00
656.15	36634.06
656.30	36835.35
656.44	36835.35
656.58	36301.71
656.73	36514.70
656.87	36751.09
657.01	36816.63
657.16	36765.14
657.30	36657.47
657.45	36568.53
657.59	36556.83
657.73	35892.12
657.88	37092.81
658.02	36790.88
658.16	36907.91
658.31	37148.98
658.45	36507.68
658.60	36701.94
658.74	36833.01
658.88	36329.80
659.03	36353.20
659.17	36084.04
659.31	36154.26
659.46	36348.52
659.60	36369.58
659.74	36435.12
659.89	36589.59
660.03	36077.02
660.17	36467.89
660.32	35756.36
660.46	35866.37
660.60	36170.64
660.74	36128.51
660.89	36332.14
661.03	35412.31
661.17	35234.42
661.32	35765.73
661.46	35922.54
661.60	35625.29
661.74	35604.23
661.89	35442.73
662.03	35503.59
662.17	35033.14
662.31	35379.54
662.46	35349.11
662.60	35754.02
662.74	34993.35
662.88	35349.11
663.03	34611.84
663.17	34576.73
663.31	34836.53
663.45	34967.60
663.60	34932.50
663.74	34745.25
663.88	35171.23
664.02	35105.70
664.17	34639.93
664.31	34635.25
664.45	34377.79
664.59	34305.23
664.73	34621.20
664.88	34820.15
665.02	34431.62
665.16	34368.43
665.30	34934.84
665.44	34473.75
665.59	34007.98
665.73	34005.64
665.87	34335.66
666.01	33853.51
666.15	34162.46
666.29	34225.65
666.44	34162.46
666.58	33668.61
666.72	34003.30
666.86	33668.61
667.00	33699.03
667.14	33965.85
667.28	33504.77
667.43	33329.23
667.57	33940.11
667.71	33479.02
667.85	33446.26
667.99	33347.95
668.13	33666.27
668.27	33673.29
668.41	33621.80
668.56	33247.31
668.70	33340.93
668.84	33446.26
668.98	32711.33
669.12	33111.56
669.26	33064.75
669.40	32601.32
669.54	32254.92
669.68	32657.49
669.82	32662.18
669.96	32650.47
670.10	32378.97
670.25	32189.39
670.39	32739.41
670.53	32505.36
670.67	32371.95
670.81	32655.15
670.95	32463.23
671.09	32081.72
671.23	32219.81
671.37	32278.33
671.51	31978.74
671.65	31571.49
671.79	31686.17
671.93	31747.03
672.07	31901.50
672.21	32067.68
672.35	31637.02
672.49	31929.59
672.63	31938.95
672.77	31105.72
672.91	31271.90
673.05	31562.12
673.19	31082.31
673.33	30749.96
673.47	31218.07
673.61	30906.77
673.75	30885.71
673.89	31101.04
674.03	30740.60
674.17	30827.20
674.31	31133.81
674.45	30813.15
674.59	30728.89
674.73	30916.14
674.87	30602.50
675.01	30380.15
675.15	30485.48
675.29	30604.84
675.43	30391.86
675.56	30541.65
675.70	30429.30
675.84	30045.46
675.98	29160.73
676.12	29823.11
676.26	29687.36
676.40	29780.98
676.54	29977.58
676.68	30033.75
676.82	29493.09
676.96	29677.99
677.10	29797.36
677.23	29116.26
677.37	29113.92
677.51	29153.71
677.65	29078.82
677.79	28371.97
677.93	28617.73
678.07	28519.43
678.21	28505.38
678.34	28905.62
678.48	28350.91
678.62	28060.68
678.76	28072.39
678.90	27803.22
679.04	27906.21
679.18	27529.38
679.31	27676.83
679.45	27571.51
679.59	27484.91
679.73	27412.35
679.87	27648.75
680.00	27545.76
680.14	27094.04
680.28	27222.77
680.42	27559.81
680.56	27346.82
680.70	27267.24
680.83	27080.00
680.97	27143.19
681.11	26822.54
681.25	26511.25
681.39	26518.27
681.52	26494.86
681.66	26529.97
681.80	26590.83
681.94	26492.52
682.07	26396.56
682.21	26408.26
682.35	26122.72
682.49	26544.02
682.62	26328.69
682.76	25661.63
682.90	25898.03
683.04	25942.50
683.17	25642.91
683.31	25411.20
683.45	25626.53
683.59	25525.88
683.72	25252.04
683.86	25277.79
684.00	24739.46
684.13	25202.89
684.27	25181.82
684.41	24823.72
684.55	24886.92
684.68	24535.84
684.82	24334.55
684.96	24657.54
685.09	24659.88
685.23	24395.40
685.37	24472.64
685.50	24077.09
685.64	24025.60
685.78	24023.26
685.91	23894.53
686.05	24006.87
686.19	23538.77
686.32	23583.24
686.46	23278.97
686.60	23229.82
686.73	23419.40
686.87	22918.53
687.01	23063.64
687.14	22820.22
687.28	22977.04
687.42	22738.30
687.55	22607.23
687.69	22878.74
687.82	22469.14
687.96	22883.42
688.10	22782.77
688.23	22434.03
688.37	22340.41
688.50	22558.08
688.64	22471.48
688.78	22160.19
688.91	22036.14
689.05	22101.68
689.18	22019.76
689.32	21675.70
689.46	21923.80
689.59	21678.04
689.73	21862.94
689.86	21771.66
690.00	21308.24
690.13	21696.77
690.27	21458.03
690.41	21062.48
690.54	20999.29
690.68	21158.44
690.81	20872.90
690.95	20996.95
691.08	20732.47
691.22	20833.11
691.35	20503.09
691.49	20702.04
691.62	20819.07
691.76	20659.91
691.89	20601.40
692.03	20411.81
692.16	20243.29
692.30	20030.30
692.43	20259.68
692.57	19873.49
692.70	19829.02
692.84	20095.84
692.97	19852.42
693.11	19506.02
693.24	19435.81
693.38	19400.70
693.51	18986.43
693.65	19433.47
693.78	19374.95
693.92	19419.42
694.05	19220.48
694.19	19068.34
694.32	18941.96
694.45	18855.36
694.59	18562.79
694.72	18689.18
694.86	18757.05
694.99	18771.10
695.13	18560.45
695.26	18436.40
695.39	18288.95
695.53	18349.80
695.66	18452.78
695.80	18410.65
695.93	18204.69
696.07	17956.59
696.20	18134.47
696.33	18068.94
696.47	17841.90
696.60	17813.82
696.73	17518.91
696.87	17324.65
697.00	17579.76
697.14	17490.82
697.27	17415.93
697.40	17268.47
697.54	16996.97
697.67	17099.95
697.80	17069.53
697.94	16837.81
698.07	16805.05
698.21	16776.96
698.34	16442.26
698.47	16503.12
698.61	16369.71
698.74	16374.39
698.87	16400.13
699.01	16105.23
699.14	16119.27
699.27	16084.16
699.40	16119.27
699.54	16039.69
699.67	15812.66
699.80	15742.44
699.94	15859.47
700.07	15915.64
700.20	15882.88
700.34	15683.93
700.47	15793.94
700.60	16013.95
700.73	16079.48
700.87	15651.16
701.00	15346.89
701.13	15538.82
701.26	15360.94
701.40	15227.53
701.53	15412.43
701.66	14988.79
701.79	14876.44
701.93	14923.26
702.06	14951.34
702.19	14839.00
702.32	14831.97
702.46	14600.26
702.59	14703.25
702.72	14595.58
702.85	14483.24
702.99	14438.76
703.12	14340.46
703.25	14183.65
703.38	14382.59
703.51	14064.28
703.65	14031.51
703.78	14075.98
703.91	13923.85
704.04	13792.78
704.17	13968.32
704.31	13790.44
704.44	13703.84
704.57	13839.59
704.70	13687.45
704.83	13378.50
704.96	13579.79
705.10	13266.16
705.23	13500.21
>>>>>End Processed Spectral Data<<<<<
