SpectraSuite Data File
++++++++++++++++++++++++++++++++++++
Date: Fri Oct 25 10:43:39 EDT 2013
User: price-jones
Dark Spectrum Present: No
Reference Spectrum Present: No
Number of Sampled Component Spectra: 1
Spectrometers: USB2+H05261
Integration Time (usec): 100000 (USB2+H05261)
Spectra Averaged: 1 (USB2+H05261)
Boxcar Smoothing: 0 (USB2+H05261)
Correct for Electrical Dark: No (USB2+H05261)
Strobe/Lamp Enabled: No (USB2+H05261)
Correct for Detector Non-linearity: No (USB2+H05261)
Correct for Stray Light: No (USB2+H05261)
Number of Pixels in Processed Spectrum: 2048
>>>>>Begin Processed Spectral Data<<<<<
365.73	112.35
365.92	112.35
366.12	112.35
366.32	72.56
366.52	23.41
366.72	2.34
366.91	7.02
367.11	74.90
367.31	0.00
367.51	0.00
367.70	77.24
367.90	42.13
368.10	25.75
368.30	14.04
368.49	11.70
368.69	32.77
368.89	4.68
369.09	7.02
369.28	91.28
369.48	93.62
369.68	70.22
369.87	63.19
370.07	119.37
370.27	135.75
370.47	161.50
370.66	294.91
370.86	428.32
371.06	468.11
371.25	465.77
371.45	458.74
371.65	397.89
371.84	425.98
372.04	379.17
372.24	484.49
372.44	379.17
372.63	554.71
372.83	475.13
373.03	507.90
373.22	437.68
373.42	463.43
373.62	489.17
373.81	538.32
374.01	538.32
374.21	566.41
374.40	589.82
374.60	510.24
374.79	575.77
374.99	561.73
375.19	524.28
375.38	594.50
375.58	540.66
375.78	636.63
375.97	573.43
376.17	582.79
376.37	688.12
376.56	667.05
376.76	664.71
376.95	587.47
377.15	580.45
377.35	681.10
377.54	650.67
377.74	667.05
377.93	648.33
378.13	641.31
378.33	706.84
378.52	685.78
378.72	671.73
378.91	678.76
379.11	601.52
379.31	699.82
379.50	667.05
379.70	718.54
379.89	699.82
380.09	713.86
380.28	566.41
380.48	755.99
380.68	662.37
380.87	645.99
381.07	683.44
381.26	760.67
381.46	709.18
381.65	683.44
381.85	638.97
382.04	744.29
382.24	730.25
382.43	704.50
382.63	638.97
382.83	746.63
383.02	821.53
383.22	795.78
383.41	711.52
383.61	716.20
383.80	856.64
384.00	791.10
384.19	847.27
384.39	777.06
384.58	795.78
384.78	870.68
384.97	807.48
385.17	807.48
385.36	861.32
385.56	842.59
385.75	765.36
385.95	793.44
386.14	828.55
386.34	809.83
386.53	844.93
386.72	755.99
386.92	833.23
387.11	903.45
387.31	858.98
387.50	880.04
387.70	901.11
387.89	819.19
388.09	863.66
388.28	861.32
388.48	840.25
388.67	940.90
388.86	882.38
389.06	987.71
389.25	952.60
389.45	903.45
389.64	1013.45
389.84	947.92
390.03	1074.31
390.22	978.34
390.42	976.00
390.61	1032.18
390.81	976.00
391.00	1064.94
391.19	1025.15
391.39	1086.01
391.58	994.73
391.78	1057.92
391.97	1118.78
392.16	994.73
392.36	1071.97
392.55	1004.09
392.75	1027.50
392.94	1029.84
393.13	952.60
393.33	1006.43
393.52	1043.88
393.71	1025.15
393.91	1088.35
394.10	1071.97
394.29	1116.44
394.49	1118.78
394.68	1193.67
394.88	1235.80
395.07	1291.98
395.26	1238.14
395.46	1277.93
395.65	1334.11
395.84	1135.16
396.04	1310.70
396.23	1205.38
396.42	1193.67
396.62	1205.38
396.81	1184.31
397.00	1203.04
397.19	1235.80
397.39	1334.11
397.58	1432.41
397.77	1355.17
397.97	1598.59
398.16	1401.98
398.35	1526.03
398.55	1437.09
398.74	1495.60
398.93	1516.67
399.12	1521.35
399.32	1446.45
399.51	1572.84
399.70	1643.06
399.90	1540.07
400.09	1544.75
400.28	1624.33
400.47	1657.10
400.67	1645.40
400.86	1661.78
401.05	1607.95
401.24	1736.68
401.44	1717.95
401.63	1713.27
401.82	1699.23
402.01	1680.50
402.21	1743.70
402.40	1825.62
402.59	1720.29
402.78	1748.38
402.97	1837.32
403.17	1865.41
403.36	1809.23
403.55	1902.86
403.74	1877.11
403.93	1867.75
404.13	1893.49
404.32	1886.47
404.51	1813.92
404.70	1968.39
404.89	1959.03
405.09	1968.39
405.28	1968.39
405.47	1923.92
405.66	2022.22
405.85	2010.52
406.05	1926.26
406.24	2087.76
406.43	2024.56
406.62	2113.50
406.81	2197.76
407.00	2010.52
407.20	2097.12
407.39	2150.95
407.58	2150.95
407.77	2211.81
407.96	2246.91
408.15	2356.92
408.34	2305.43
408.54	2356.92
408.73	2431.82
408.92	2333.51
409.11	2312.45
409.30	2265.64
409.49	2296.07
409.68	2298.41
409.87	2319.47
410.07	2377.98
410.26	2256.28
410.45	2396.71
410.64	2495.01
410.83	2483.31
411.02	2628.42
411.21	2595.65
411.40	2623.74
411.59	2693.96
411.78	2588.63
411.98	2668.21
412.17	2654.17
412.36	2684.59
412.55	2724.38
412.74	2740.77
412.93	2754.81
413.12	2759.49
413.31	2935.03
413.50	2825.03
413.69	2923.33
413.88	3012.27
414.07	3012.27
414.26	2911.63
414.45	2998.23
414.64	3021.63
414.83	3061.42
415.02	3021.63
415.22	3016.95
415.41	2995.89
415.60	3211.22
415.79	3164.40
415.98	3300.16
416.17	3391.44
416.36	3351.65
416.55	3300.16
416.74	3389.10
416.93	3251.00
417.12	3229.94
417.31	3363.35
417.50	3389.10
417.69	3651.24
417.88	3550.59
418.07	3590.38
418.26	3449.95
418.45	3506.12
418.64	3770.60
418.83	3583.36
419.02	3611.45
419.21	3576.34
419.39	3749.54
419.58	3660.60
419.77	3534.21
419.96	3716.77
420.15	3826.78
420.34	3836.14
420.53	3779.97
420.72	3880.61
420.91	3763.58
421.10	3829.12
421.29	3960.19
421.48	3754.22
421.67	3894.65
421.86	3946.14
422.05	3847.84
422.24	3789.33
422.43	3964.87
422.61	3824.44
422.80	3906.35
422.99	3882.95
423.18	4030.40
423.37	3962.53
423.56	4014.02
423.75	3960.19
423.94	3901.67
424.13	3756.56
424.32	3852.52
424.50	4011.68
424.69	4018.70
424.88	4074.87
425.07	4014.02
425.26	3864.22
425.45	3939.12
425.64	4088.92
425.83	4142.75
426.01	4077.21
426.20	3971.89
426.39	4077.21
426.58	3946.14
426.77	4035.08
426.96	4084.23
427.15	4119.34
427.33	4077.21
427.52	4177.86
427.71	4269.14
427.90	4105.30
428.09	4152.11
428.28	4227.01
428.46	4133.39
428.65	4194.24
428.84	4255.09
429.03	4395.53
429.22	4072.53
429.40	4121.68
429.59	4154.45
429.78	3929.76
429.97	3824.44
430.16	4079.55
430.34	3985.93
430.53	4133.39
430.72	4142.75
430.91	4234.03
431.10	4447.02
431.28	4526.60
431.47	4683.41
431.66	4678.73
431.85	4547.66
432.03	4610.86
432.22	4657.67
432.41	4732.56
432.60	4734.90
432.79	4798.10
432.97	4807.46
433.16	4835.55
433.35	4657.67
433.54	4596.81
433.72	4807.46
433.91	4791.08
434.10	4950.23
434.28	5011.09
434.47	4954.91
434.66	5036.83
434.85	5022.79
435.03	5036.83
435.22	5069.60
435.41	5158.54
435.59	5114.07
435.78	5238.12
435.97	5284.93
436.16	5156.20
436.34	5008.75
436.53	5142.16
436.72	5357.49
436.90	5048.54
437.09	5233.44
437.28	5242.80
437.46	5144.50
437.65	5338.76
437.84	5153.86
438.02	5259.18
438.21	5317.70
438.40	5018.11
438.58	5521.32
438.77	5460.47
438.96	5488.56
439.14	5577.50
439.33	5666.44
439.52	5654.73
439.70	5717.93
439.89	5804.53
440.08	5715.59
440.26	5790.49
440.45	5570.48
440.63	5916.87
440.82	5991.77
441.01	5956.66
441.19	6017.52
441.38	6005.81
441.57	6317.11
441.75	6291.36
441.94	6462.22
442.12	6361.58
442.31	6319.45
442.50	6373.28
442.68	6242.21
442.87	6399.02
443.05	6338.17
443.24	6347.53
443.43	6502.01
443.61	6518.39
443.80	6609.67
443.98	6293.70
444.17	6221.14
444.35	6712.66
444.54	6499.67
444.73	6600.31
444.91	6429.45
445.10	6487.96
445.28	6445.84
445.47	6459.88
445.65	6588.61
445.84	6574.56
446.02	6705.63
446.21	6546.48
446.39	6658.82
446.58	6579.25
446.77	6602.65
446.95	6539.46
447.14	6855.43
447.32	7000.54
447.51	6768.83
447.69	6956.07
447.88	6768.83
448.06	6691.59
448.25	6813.30
448.43	6864.79
448.62	6792.23
448.80	7009.90
448.99	6984.16
449.17	6897.56
449.36	6801.60
449.54	6965.43
449.73	7206.51
449.91	7197.15
450.10	7119.91
450.28	7283.75
450.46	7330.56
450.65	7283.75
450.83	7293.11
451.02	7082.46
451.20	7407.80
451.39	7431.20
451.57	7321.20
451.76	7239.28
451.94	7372.69
452.13	7456.95
452.31	7190.13
452.49	7215.87
452.68	7300.13
452.86	7236.94
453.05	7276.73
453.23	7356.30
453.42	7405.46
453.60	7468.65
453.78	7424.18
453.97	7473.33
454.15	7375.03
454.34	7456.95
454.52	7676.96
454.70	7599.72
454.89	7616.10
455.07	7536.52
455.26	7768.24
455.44	7698.02
455.62	7686.32
455.81	7660.57
455.99	7875.90
456.17	7925.05
456.36	8046.76
456.54	8056.12
456.73	8077.19
456.91	8252.73
457.09	8313.58
457.28	8315.92
457.46	8016.33
457.64	8234.00
457.83	8121.66
458.01	7967.18
458.19	8290.18
458.38	8112.30
458.56	8315.92
458.74	8468.06
458.93	8290.18
459.11	8423.59
459.29	8425.93
459.48	8329.97
459.66	8456.36
459.84	8470.40
460.03	8571.04
460.21	8809.78
460.39	8571.04
460.57	8456.36
460.76	8744.24
460.94	8727.86
461.12	8748.92
461.31	8875.31
461.49	8659.98
461.67	8664.66
461.85	8912.76
462.04	8954.89
462.22	9500.23
462.40	9205.33
462.59	8875.31
462.77	8910.42
462.95	8863.61
463.13	9057.87
463.32	8997.02
463.50	9151.49
463.68	8940.85
463.86	9165.54
464.05	9114.05
464.23	8926.80
464.41	9149.15
464.59	8952.55
464.78	9392.57
464.96	9266.18
465.14	9125.75
465.32	9179.58
465.50	9294.27
465.69	9479.17
465.87	9406.61
466.05	9198.31
466.23	8938.51
466.41	9345.76
466.60	9467.47
466.78	9116.39
466.96	9462.79
467.14	9364.48
467.32	9444.06
467.51	9699.18
467.69	9362.14
467.87	9722.59
468.05	9659.39
468.23	9327.03
468.41	9551.73
468.60	9619.60
468.78	9745.99
468.96	9591.52
469.14	9650.03
469.32	9902.81
469.50	9895.78
469.69	9830.25
469.87	9968.34
470.05	9944.94
470.23	9778.76
470.41	10022.17
470.59	9884.08
470.77	9989.41
470.95	10277.29
471.14	10033.88
471.32	10017.49
471.50	10340.49
471.68	10249.21
471.86	10225.80
472.04	10537.09
472.22	10539.43
472.40	10431.77
472.58	10286.65
472.77	10738.38
472.95	10705.61
473.13	10691.57
473.31	10675.18
473.49	10651.78
473.67	10848.38
473.85	10930.30
474.03	11105.84
474.21	11044.99
474.39	10946.69
474.57	11269.68
474.75	11101.16
474.93	11372.66
475.12	11108.18
475.30	11492.03
475.48	11342.24
475.66	11405.43
475.84	11183.08
476.02	11637.14
476.20	11407.77
476.38	11789.28
476.56	12311.22
476.74	11859.49
476.92	11808.00
477.10	11936.73
477.28	12119.29
477.46	12205.89
477.64	12294.83
477.82	12477.40
478.00	12556.97
478.18	12903.37
478.36	12805.07
478.54	12592.08
478.72	12877.63
478.90	13027.42
479.08	13198.28
479.26	13341.05
479.44	13392.55
479.62	13270.84
479.80	13446.38
479.98	13715.54
480.16	13874.70
480.34	13638.30
480.52	13731.92
480.70	13940.23
480.88	13755.33
481.06	13935.55
481.24	14085.34
481.41	14394.29
481.59	14523.02
481.77	14441.11
481.95	14728.99
482.13	14633.03
482.31	14766.44
482.49	14916.23
482.67	15066.03
482.85	15213.48
483.03	15239.23
483.21	15208.80
483.39	15468.60
483.57	15372.64
483.74	15382.00
483.92	15641.80
484.10	15346.89
484.28	16109.91
484.46	16423.54
484.64	16540.57
484.82	16173.10
485.00	16313.53
485.18	16760.58
485.35	16484.39
485.53	16329.92
485.71	16355.66
485.89	16479.71
486.07	16580.36
486.25	16908.03
486.43	16947.82
486.61	17055.48
486.78	17329.33
486.96	17729.56
487.14	17575.08
487.32	17996.38
487.50	18087.66
487.68	18167.24
487.85	18427.04
488.03	18490.23
488.21	18691.52
488.39	18288.95
488.57	18670.45
488.75	18693.86
488.92	19154.94
489.10	19391.34
489.28	19215.80
489.46	19807.95
489.64	19676.88
489.81	20390.75
489.99	20269.04
490.17	20283.08
490.35	20807.36
490.53	20154.35
490.70	20613.10
490.88	20549.90
491.06	20648.21
491.24	21048.44
491.41	20617.78
491.59	20889.28
491.77	21006.31
491.95	21605.49
492.13	21528.25
492.30	21624.21
492.48	21528.25
492.66	21865.28
492.84	21933.16
493.01	22312.33
493.19	22363.82
493.37	22368.50
493.54	22525.32
493.72	22876.40
493.90	22813.20
494.08	23014.49
494.25	23316.42
494.43	23461.53
494.61	23524.72
494.79	23796.23
494.96	23772.82
495.14	23669.84
495.32	24130.92
495.49	23702.61
495.67	24072.41
495.85	24563.92
496.02	24266.67
496.20	24573.28
496.38	24620.10
496.55	24893.94
496.73	25511.84
496.91	24816.70
497.09	25338.64
497.26	25116.29
497.44	25186.50
497.62	25544.61
497.79	25935.48
497.97	25546.95
498.14	25652.27
498.32	25905.05
498.50	25837.17
498.67	26185.91
498.85	26373.16
499.03	26719.56
499.20	26436.35
499.38	26628.27
499.56	26522.95
499.73	26504.23
499.91	26553.38
500.08	27194.68
500.26	26710.19
500.44	27037.87
500.61	26771.05
500.79	26892.76
500.97	27220.43
501.14	27068.30
501.32	27225.11
501.49	27185.32
501.67	27407.67
501.84	27402.99
502.02	27667.47
502.20	27857.06
502.37	27768.12
502.55	27655.77
502.72	28510.07
502.90	28137.92
503.07	27967.06
503.25	28196.43
503.43	28299.42
503.60	28474.96
503.78	28456.23
503.95	28004.51
504.13	28500.70
504.30	29160.73
504.48	28613.05
504.65	29315.21
504.83	29163.08
505.01	29303.51
505.18	29600.76
505.36	29731.83
505.53	29670.97
505.71	29839.49
505.88	30031.41
506.06	29535.22
506.23	29689.70
506.41	29827.79
506.58	30087.59
506.76	30424.62
506.93	30335.68
507.11	30441.01
507.28	30265.47
507.46	29883.96
507.63	30092.27
507.81	30632.93
507.98	30178.87
508.16	30307.60
508.33	30951.24
508.50	30899.75
508.68	30909.11
508.85	31405.31
509.03	31079.97
509.20	30958.27
509.38	31744.69
509.55	31690.85
509.73	31606.59
509.90	31770.43
510.08	31405.31
510.25	31459.14
510.42	31938.95
510.60	32023.21
510.77	31866.39
510.95	31882.78
511.12	32355.57
511.30	32102.79
511.47	32526.42
511.64	32659.84
511.82	32781.54
511.99	32699.62
512.17	32254.92
512.34	32390.67
512.51	33013.26
512.69	32907.93
512.86	33001.55
513.04	33170.07
513.21	32919.63
513.38	32854.10
513.56	32814.31
513.73	33134.96
513.90	33310.50
514.08	33369.02
514.25	33443.91
514.43	33362.00
514.60	33771.59
514.77	33497.75
514.95	33638.18
515.12	33170.07
515.29	33804.36
515.47	34534.60
515.64	34328.64
515.81	33745.84
515.99	34043.09
516.16	34082.88
516.33	33523.49
516.51	34382.47
516.68	33663.93
516.85	33509.45
517.03	33741.16
517.20	33998.62
517.37	34539.29
517.54	34628.23
517.72	34260.76
517.89	34162.46
518.06	34492.47
518.24	34508.86
518.41	34300.55
518.58	34824.83
518.75	34581.42
518.93	35264.85
519.10	34951.22
519.27	35592.53
519.45	35292.94
519.62	35428.69
519.79	35491.88
519.96	35491.88
520.14	35449.75
520.31	35115.06
520.48	35512.95
520.65	35433.37
520.83	35915.52
521.00	36105.10
521.17	36449.16
521.34	36208.09
521.52	36224.47
521.69	36400.01
521.86	36657.47
522.03	36687.90
522.20	36210.43
522.38	36783.86
522.55	36570.87
522.72	36634.06
522.89	36655.13
523.07	37078.77
523.24	36783.86
523.41	37287.07
523.58	37170.05
523.75	37752.84
523.92	37184.09
524.10	37289.42
524.27	37818.38
524.44	37682.62
524.61	37464.96
524.78	37399.42
524.96	37933.06
525.13	37593.68
525.30	37851.14
525.47	38239.67
525.64	38073.49
525.81	37720.07
525.98	37724.75
526.16	37890.93
526.33	37614.75
526.50	37797.31
526.67	37574.96
526.84	37383.04
527.01	37780.93
527.18	38148.39
527.36	38197.54
527.53	38412.87
527.70	38520.54
527.87	38682.03
528.04	38471.39
528.21	39023.75
528.38	38579.05
528.55	39267.17
528.72	39079.92
528.89	39370.15
529.07	38953.54
529.24	39000.35
529.41	39119.71
529.58	38876.30
529.75	38710.12
529.92	39318.66
530.09	39274.19
530.26	39316.32
530.43	39978.69
530.60	39194.61
530.77	39749.32
530.94	39988.05
531.11	39342.06
531.28	39971.67
531.46	39997.41
531.63	39735.27
531.80	39381.85
531.97	39524.63
532.14	40048.91
532.31	39416.96
532.48	39754.00
532.65	40053.59
532.82	39728.25
532.99	39739.96
533.16	40287.64
533.33	40287.64
533.50	40460.84
533.67	39690.80
533.84	39847.62
534.01	40486.59
534.18	40034.86
534.35	40524.04
534.52	40772.13
534.69	40355.52
534.86	41083.42
535.03	40889.16
535.20	40889.16
535.37	41111.51
535.54	41163.00
535.71	41163.00
535.88	41188.75
536.05	40591.91
536.22	41509.40
536.38	41525.78
536.55	40999.16
536.72	40568.51
536.89	40605.95
537.06	40446.80
537.23	41221.52
537.40	41511.74
537.57	41383.01
537.74	40964.06
537.91	41467.27
538.08	41453.23
538.25	41221.52
538.42	41155.98
538.59	41626.43
538.75	41303.43
538.92	41579.62
539.09	41581.96
539.26	41432.16
539.43	41514.08
539.60	41654.51
539.77	41315.14
539.94	41745.80
540.11	41581.96
540.28	41628.77
540.44	41476.63
540.61	41556.21
540.78	42031.34
540.95	41975.17
541.12	41888.57
541.29	41844.10
541.46	41928.36
541.62	42490.09
541.79	42403.49
541.96	41610.04
542.13	42012.62
542.30	42466.68
542.47	41762.18
542.63	42176.45
542.80	42319.23
542.97	42726.48
543.14	42623.50
543.31	42536.90
543.48	42469.02
543.64	42866.91
543.81	43096.28
543.98	43063.52
544.15	43079.90
544.32	43164.16
544.48	43847.60
544.65	43171.18
544.82	43257.78
544.99	42693.71
545.16	43145.44
545.32	42986.28
545.49	43320.98
545.66	43351.40
545.83	43548.01
546.00	43672.06
546.16	43007.34
546.33	43154.80
546.50	42962.87
546.67	43503.54
546.83	43089.26
547.00	43349.06
547.17	43372.47
547.34	43583.12
547.50	43482.47
547.67	43681.42
547.84	43669.72
548.00	44046.54
548.17	43892.07
548.34	44306.34
548.51	44151.87
548.67	44542.74
548.84	44128.46
549.01	44004.41
549.18	44502.95
549.34	43756.32
549.51	44020.80
549.68	44296.98
549.84	43929.51
550.01	44531.03
550.18	44484.22
550.34	44261.87
550.51	43803.13
550.68	44046.54
550.84	43786.74
551.01	44163.57
551.18	44238.47
551.34	43945.90
551.51	44161.23
551.68	44505.29
551.84	44514.65
552.01	44093.35
552.18	44467.84
552.34	44069.95
552.51	44456.14
552.68	44238.47
552.84	44336.77
553.01	44477.20
553.18	44266.55
553.34	44348.47
553.51	44137.82
553.67	44921.90
553.84	45008.50
554.01	45251.92
554.17	45380.65
554.34	45401.71
554.51	44992.12
554.67	44755.72
554.84	44516.99
555.00	44608.27
555.17	44360.17
555.33	45223.83
555.50	45148.93
555.67	45263.62
555.83	44744.02
556.00	44765.09
556.16	45221.49
556.33	44870.41
556.50	44847.00
556.66	45233.19
556.83	44828.28
556.99	45322.13
557.16	45287.03
557.32	45441.50
557.49	45235.53
557.65	44912.54
557.82	45247.24
557.98	45198.09
558.15	44978.07
558.32	45413.41
558.48	44795.51
558.65	45010.84
558.81	44545.08
558.98	45097.44
559.14	45160.64
559.31	44971.05
559.47	45584.27
559.64	45713.00
559.80	45141.91
559.97	45139.57
560.13	45415.76
560.30	45287.03
560.46	45427.46
560.63	45455.54
560.79	45874.50
560.96	45921.31
561.12	45841.73
561.29	45347.88
561.45	45556.19
561.61	45652.15
561.78	45731.73
561.94	45661.51
562.11	45186.38
562.27	45235.53
562.44	45483.63
562.60	45949.40
562.77	45886.20
562.93	45322.13
563.10	45907.27
563.26	45595.98
563.42	45673.21
563.59	46031.32
563.75	45532.78
563.92	45567.89
564.08	45703.64
564.24	45860.46
564.41	45888.54
564.57	45656.83
564.74	45663.85
564.90	45874.50
565.07	45645.13
565.23	45844.07
565.39	45511.72
565.56	45715.34
565.72	45088.08
565.88	45839.39
566.05	45425.12
566.21	45729.39
566.38	45778.54
566.54	45895.56
566.70	45930.67
566.87	46007.91
567.03	46024.29
567.19	46735.82
567.36	46103.87
567.52	45773.86
567.68	46234.94
567.85	45610.02
568.01	46061.74
568.17	45752.79
568.34	46199.83
568.50	46335.59
568.66	45921.31
568.83	46122.60
568.99	45937.69
569.15	46223.24
569.32	46225.58
569.48	45825.35
569.64	45949.40
569.81	46206.86
569.97	46220.90
570.13	46401.12
570.30	45511.72
570.46	45773.86
570.62	45340.86
570.78	45572.57
570.95	46106.21
571.11	46253.67
571.27	46162.39
571.43	45511.72
571.60	46239.62
571.76	45750.45
571.92	46213.88
572.09	45787.90
572.25	46356.65
572.41	46309.84
572.57	46504.10
572.74	46637.51
572.90	46370.69
573.06	46579.00
573.22	46078.13
573.38	46511.13
573.55	45640.45
573.71	45897.91
573.87	46225.58
574.03	46096.85
574.20	46408.14
574.36	46071.10
574.52	46234.94
574.68	46183.45
574.84	46113.23
575.01	46148.34
575.17	46314.52
575.33	46188.13
575.49	46216.22
575.65	46155.36
575.82	46195.15
575.98	45764.49
576.14	46253.67
576.30	46408.14
576.46	46387.08
576.62	46071.10
576.79	45635.77
576.95	46157.70
577.11	46302.82
577.27	46342.61
577.43	46131.96
577.59	45820.67
577.75	45883.86
577.92	45652.15
578.08	46050.04
578.24	45968.12
578.40	46183.45
578.56	46323.88
578.72	46277.07
578.88	46525.17
579.04	46377.72
579.21	46150.68
579.37	45986.85
579.53	46492.40
579.69	46038.34
579.85	46326.22
580.01	46354.31
580.17	46328.56
580.33	46408.14
580.49	46263.03
580.65	46265.37
580.82	46094.51
580.98	46351.97
581.14	46099.19
581.30	46639.86
581.46	46412.82
581.62	46515.81
581.78	46054.72
581.94	45989.19
582.10	46564.96
582.26	46368.35
582.42	46202.18
582.58	46426.87
582.74	46478.36
582.90	46312.18
583.06	46050.04
583.22	46270.05
583.38	46506.44
583.54	46330.90
583.70	46426.87
583.86	46162.39
584.02	45855.78
584.18	46335.59
584.34	46375.37
584.50	46075.79
584.66	46075.79
584.82	46162.39
584.98	46473.68
585.14	46691.35
585.30	45975.14
585.46	46298.14
585.62	46389.42
585.78	46384.74
585.94	45940.04
586.10	46363.67
586.26	45897.91
586.42	46272.39
586.58	46153.02
586.74	46543.89
586.90	46335.59
587.06	46302.82
587.22	46616.45
587.38	46349.63
587.54	46499.42
587.70	46251.33
587.86	46181.11
588.02	46157.70
588.18	46410.48
588.34	46213.88
588.49	45628.74
588.65	45460.23
588.81	45502.35
588.97	45947.06
589.13	45752.79
589.29	46028.98
589.45	46134.30
589.61	46146.00
589.77	46564.96
589.93	46562.62
590.08	46497.08
590.24	46855.18
590.40	46969.87
590.56	46419.84
590.72	46696.03
590.88	46527.51
591.04	46312.18
591.20	47182.86
591.35	46499.42
591.51	46457.29
591.67	46679.64
591.83	46279.41
591.99	45792.58
592.15	46047.70
592.31	46700.71
592.46	46656.24
592.62	45977.48
592.78	46696.03
592.94	46429.21
593.10	46642.20
593.26	46689.01
593.41	46656.24
593.57	46424.53
593.73	46480.70
593.89	46012.59
594.05	46499.42
594.20	46553.26
594.36	46553.26
594.52	46436.23
594.68	46660.92
594.84	46178.77
594.99	46501.76
595.15	46581.34
595.31	46267.71
595.47	46698.37
595.62	46520.49
595.78	46476.02
595.94	46354.31
596.10	46293.46
596.25	46445.59
596.41	46281.75
596.57	46534.53
596.73	46595.38
596.88	46045.36
597.04	46459.63
597.20	46443.25
597.36	45958.76
597.51	46485.38
597.67	46270.05
597.83	46747.52
597.99	46990.94
598.14	46314.52
598.30	46401.12
598.46	46351.97
598.61	46663.26
598.77	46108.55
598.93	46469.00
599.09	46478.36
599.24	47056.47
599.40	46796.67
599.56	46494.74
599.71	46787.31
599.87	46923.06
600.03	46316.86
600.18	46796.67
600.34	46127.28
600.50	46356.65
600.65	46103.87
600.81	46600.07
600.97	46508.79
601.12	46588.36
601.28	46195.15
601.44	45853.44
601.59	46398.78
601.75	46319.20
601.91	46239.62
602.06	46115.58
602.22	46492.40
602.37	46183.45
602.53	46337.93
602.69	46550.91
602.84	46520.49
603.00	46263.03
603.16	46480.70
603.31	46380.06
603.47	46461.97
603.62	46410.48
603.78	46541.55
603.94	46728.80
604.09	46534.53
604.25	46412.82
604.40	46487.72
604.56	46307.50
604.71	46607.09
604.87	46574.32
605.03	46375.37
605.18	46405.80
605.34	46169.41
605.49	45806.62
605.65	46562.62
605.80	46429.21
605.96	46188.13
606.12	46382.40
606.27	46562.62
606.43	46206.86
606.58	46506.44
606.74	46279.41
606.89	46204.52
607.05	46092.17
607.20	45844.07
607.36	46307.50
607.51	46593.04
607.67	46050.04
607.82	46248.99
607.98	45808.96
608.13	45865.14
608.29	46099.19
608.44	45991.53
608.60	46059.40
608.75	46129.62
608.91	45951.74
609.06	45909.61
609.22	46150.68
609.37	45766.84
609.53	46052.38
609.68	46101.53
609.84	46377.72
609.99	45965.78
610.15	45434.48
610.30	45628.74
610.46	45649.81
610.61	45741.09
610.76	46192.81
610.92	45521.08
611.07	46122.60
611.23	45691.94
611.38	45975.14
611.54	45862.80
611.69	45504.70
611.84	45617.04
612.00	45525.76
612.15	45530.44
612.31	46045.36
612.46	45991.53
612.62	45535.12
612.77	45607.68
612.92	45750.45
613.08	45441.50
613.23	45439.16
613.39	45200.43
613.54	44755.72
613.69	45610.02
613.85	45553.85
614.00	45144.25
614.15	45275.32
614.31	45427.46
614.46	45415.76
614.62	45769.18
614.77	45329.16
614.92	45195.74
615.08	45471.93
615.23	45043.61
615.38	44907.86
615.54	44596.57
615.69	44992.12
615.84	45097.44
616.00	45291.71
616.15	44896.16
616.30	44776.79
616.46	44631.68
616.61	44500.61
616.76	44751.04
616.92	44161.23
617.07	44821.26
617.22	45015.52
617.37	44741.68
617.53	44952.33
617.68	45151.27
617.83	45268.30
617.99	44809.56
618.14	44891.48
618.29	44596.57
618.45	44451.45
618.60	44610.61
618.75	44566.14
618.90	44435.07
619.06	44533.37
619.21	44357.83
619.36	44781.47
619.51	44357.83
619.67	44100.37
619.82	44332.09
619.97	44687.85
620.12	44179.95
620.28	43793.76
620.43	44524.01
620.58	44334.43
620.73	44435.07
620.89	44350.81
621.04	44659.76
621.19	44360.17
621.34	44608.27
621.49	44027.82
621.65	44397.62
621.80	44334.43
621.95	44414.01
622.10	44170.59
622.25	44137.82
622.41	44086.33
622.56	43681.42
622.71	44369.54
622.86	44245.49
623.01	44444.43
623.16	43985.69
623.32	43875.68
623.47	43938.88
623.62	44020.80
623.77	43908.45
623.92	43880.36
624.07	43381.83
624.23	43278.85
624.38	43503.54
624.53	43629.93
624.68	43746.95
624.83	43892.07
624.98	43491.83
625.13	43210.97
625.29	43559.71
625.44	43274.16
625.59	43105.65
625.74	42962.87
625.89	42862.23
626.04	43140.75
626.19	42831.80
626.34	43325.66
626.49	43487.15
626.65	43356.08
626.80	43342.04
626.95	43402.89
627.10	42988.62
627.25	42806.06
627.40	42710.10
627.55	42525.19
627.70	42506.47
627.85	42492.43
628.00	42651.58
628.15	42993.30
628.30	42714.78
628.45	43147.78
628.60	42511.15
628.76	42766.27
628.91	42670.31
629.06	42487.74
629.21	42813.08
629.36	42171.77
629.51	42728.82
629.66	42333.27
629.81	42679.67
629.96	42686.69
630.11	42618.81
630.26	42850.53
630.41	42382.42
630.56	42438.59
630.71	42497.11
630.86	42576.69
631.01	42167.09
631.16	42241.99
631.31	42099.22
631.46	41706.01
631.61	42157.73
631.76	42176.45
631.91	42822.44
632.06	42714.78
632.21	42506.47
632.36	42611.79
632.51	42106.24
632.66	41907.29
632.81	41216.83
632.96	41902.61
633.10	41909.63
633.25	41745.80
633.40	41986.87
633.55	41886.23
633.70	41729.41
633.85	41413.44
634.00	42174.11
634.15	42075.81
634.30	41949.42
634.45	41682.60
634.60	41436.84
634.75	41631.11
634.90	41420.46
635.05	41549.19
635.19	41207.47
635.34	41471.95
635.49	41439.18
635.64	41663.88
635.79	41371.31
635.94	41504.72
636.09	41373.65
636.24	41022.57
636.39	40975.76
636.53	41457.91
636.68	41415.78
636.83	40947.67
636.98	41404.08
637.13	41230.88
637.28	41322.16
637.43	41504.72
637.57	41071.72
637.72	40938.31
637.87	41383.01
638.02	41420.46
638.17	40966.40
638.32	41062.36
638.46	40849.37
638.61	40849.37
638.76	40872.78
638.91	41022.57
639.06	41240.24
639.20	41083.42
639.35	41345.56
639.50	41057.68
639.65	40341.47
639.80	40760.43
639.94	40694.89
640.09	40685.53
640.24	40704.26
640.39	40744.05
640.54	40662.13
640.68	40790.86
640.83	40821.28
640.98	40744.05
641.13	40442.12
641.27	40549.78
641.42	40194.02
641.57	40509.99
641.72	40774.47
641.86	40399.99
642.01	40100.40
642.16	40093.38
642.31	39824.22
642.45	40643.40
642.60	39793.79
642.75	40540.42
642.90	40247.85
643.04	40336.79
643.19	40084.01
643.34	40278.28
643.48	39985.71
643.63	40135.51
643.78	39810.17
643.93	40327.43
644.07	39957.63
644.22	40030.18
644.37	39864.00
644.51	39812.51
644.66	39592.50
644.81	40179.98
644.95	39936.56
645.10	40011.46
645.25	40133.17
645.39	39473.13
645.54	40098.06
645.69	39882.73
645.83	39737.62
645.98	39590.16
646.13	39658.04
646.27	39800.81
646.42	38998.01
646.57	39346.75
646.71	39419.30
646.86	39365.47
647.00	39531.65
647.15	40004.44
647.30	39215.68
647.44	39019.07
647.59	39475.48
647.74	39005.03
647.88	38801.40
648.03	39185.25
648.17	39292.91
648.32	38995.67
648.47	39075.24
648.61	39248.44
648.76	39477.82
648.90	39164.18
649.05	39000.35
649.20	39115.03
649.34	39187.59
649.49	38462.02
649.63	39180.57
649.78	39344.41
649.92	39257.81
650.07	39276.53
650.21	38955.88
650.36	38983.96
650.51	38642.24
650.65	39299.94
650.80	39695.49
650.94	39536.33
651.09	39075.24
651.23	38827.15
651.38	38667.99
651.52	38433.94
651.67	38225.63
651.81	38646.93
651.96	38153.07
652.10	38747.57
652.25	38515.86
652.39	38675.01
652.54	38717.14
652.68	38897.36
652.83	38763.95
652.97	38291.16
653.12	38607.14
653.26	37904.98
653.41	38253.72
653.55	38204.56
653.70	38129.67
653.84	38141.37
653.99	38307.55
654.13	37591.34
654.27	38160.09
654.42	38117.96
654.56	38038.39
654.71	38300.53
654.85	37965.83
655.00	38433.94
655.14	38052.43
655.29	37638.15
655.43	37537.51
655.57	37333.89
655.72	37305.80
655.86	37448.57
656.01	37486.02
656.15	37310.48
656.30	37291.76
656.44	37172.39
656.58	37708.37
656.73	37699.01
656.87	37504.74
657.01	36961.74
657.16	37270.69
657.30	36842.37
657.45	37390.06
657.59	37195.79
657.73	37156.00
657.88	37439.21
658.02	37614.75
658.16	37830.08
658.31	37495.38
658.45	37610.07
658.60	37263.67
658.74	37326.86
658.88	37373.67
659.03	37118.56
659.17	36849.39
659.31	37034.30
659.46	36844.71
659.60	37137.28
659.74	36882.16
659.89	36643.43
660.03	36470.23
660.17	36718.32
660.32	36605.98
660.46	36966.42
660.60	36666.83
660.74	36243.20
660.89	36575.55
661.03	36676.19
661.17	36734.71
661.32	36582.57
661.46	36362.56
661.60	36058.29
661.74	36187.02
661.89	36563.85
662.03	36081.70
662.17	36240.86
662.31	36275.96
662.46	36334.48
662.60	36484.27
662.74	36107.44
662.88	36002.12
663.03	35768.07
663.17	35903.82
663.31	35466.14
663.45	36086.38
663.60	35702.53
663.74	35634.66
663.88	35314.00
664.02	35112.72
664.17	35679.13
664.31	35328.05
664.45	35098.67
664.59	34925.47
664.73	35426.35
664.88	35314.00
665.02	34684.40
665.16	34923.13
665.30	35288.26
665.44	35098.67
665.59	34656.31
665.73	34707.80
665.87	34735.89
666.01	34543.97
666.15	34834.19
666.29	34679.72
666.44	34899.73
666.58	34850.58
666.72	34637.59
666.86	34417.58
667.00	34756.96
667.14	34316.93
667.28	34487.79
667.43	34445.66
667.57	34623.54
667.71	34424.60
667.85	34246.72
667.99	34305.23
668.13	34632.91
668.27	34223.31
668.41	34408.22
668.56	34384.81
668.70	33984.58
668.84	33628.82
668.98	33675.63
669.12	33413.49
669.26	33600.73
669.40	33439.23
669.54	33493.07
669.68	33502.43
669.82	33509.45
669.96	33088.15
670.10	33577.33
670.25	33092.83
670.39	33493.07
670.53	32903.25
670.67	33048.36
670.81	32795.59
670.95	33102.20
671.09	32968.79
671.23	32826.01
671.37	33039.00
671.51	32591.96
671.65	32774.52
671.79	32140.24
671.93	32622.39
672.07	32416.42
672.21	32477.27
672.35	32273.65
672.49	32308.76
672.63	32594.30
672.77	32393.01
672.91	31885.12
673.05	31798.52
673.19	31943.63
673.33	31962.36
673.47	31770.43
673.61	31538.72
673.75	31494.25
673.89	31342.11
674.03	31515.31
674.17	31686.17
674.31	31704.90
674.45	31384.24
674.59	31646.38
674.73	31110.40
674.87	31552.76
675.01	30764.00
675.15	31030.82
675.29	30913.80
675.43	30981.67
675.56	30597.82
675.70	30703.15
675.84	30831.88
675.98	29879.28
676.12	30419.94
676.26	30546.33
676.40	30314.62
676.54	30377.81
676.68	30466.75
676.82	29427.56
676.96	29809.06
677.10	30132.06
677.23	30022.05
677.37	29865.24
677.51	29472.03
677.65	29633.52
677.79	28987.53
677.93	29502.45
678.07	28952.43
678.21	28926.68
678.34	28863.49
678.48	28907.96
678.62	28802.63
678.76	28753.48
678.90	28690.29
679.04	28617.73
679.18	28498.36
679.31	28201.11
679.45	28194.09
679.59	27796.20
679.73	28514.75
679.87	28072.39
680.00	28006.85
680.14	28027.92
680.28	27583.21
680.42	27494.27
680.56	27211.07
680.70	27309.37
680.83	27740.03
680.97	27386.61
681.11	27316.39
681.25	27505.98
681.39	27283.62
681.52	27461.51
681.66	27133.83
681.80	27080.00
681.94	26785.09
682.07	26560.40
682.21	26478.48
682.35	26644.66
682.49	26855.31
682.62	26359.11
682.76	26204.64
682.90	26274.85
683.04	26314.64
683.17	25916.75
683.31	26005.69
683.45	26211.66
683.59	25743.55
683.72	25830.15
683.86	25436.94
684.00	25579.71
684.13	25537.59
684.27	25366.73
684.41	24980.54
684.55	24968.84
684.68	25350.34
684.82	24896.28
684.96	25008.62
685.09	24769.89
685.23	24482.00
685.37	24748.82
685.50	24774.57
685.64	24645.84
685.78	24549.88
685.91	24137.94
686.05	24198.80
686.19	24023.26
686.32	23800.91
686.46	23620.69
686.60	23281.31
686.73	23325.78
686.87	23232.16
687.01	23288.33
687.14	22757.03
687.28	22796.82
687.42	22932.57
687.55	22979.38
687.69	23248.54
687.82	22965.34
687.96	23133.86
688.10	22614.26
688.23	22539.36
688.37	22717.24
688.50	22785.12
688.64	22696.17
688.78	22501.91
688.91	21818.47
689.05	22221.05
689.18	22054.87
689.32	21664.00
689.46	22185.94
689.59	22356.80
689.73	22487.87
689.86	21926.14
690.00	21614.85
690.13	21549.31
690.27	21362.07
690.41	21247.38
690.54	21198.23
690.68	21238.02
690.81	21369.09
690.95	20957.16
691.08	21186.53
691.22	21076.52
691.35	21231.00
691.49	21268.45
691.62	20587.35
691.76	20856.51
691.89	20765.23
692.03	20510.11
692.16	20428.20
692.30	20346.28
692.43	20283.08
692.57	20196.48
692.70	19992.86
692.84	19733.06
692.97	19775.19
693.11	19623.05
693.24	19917.96
693.38	19592.62
693.51	19601.99
693.65	19770.51
693.78	19571.56
693.92	19396.02
694.05	19360.91
694.19	19330.48
694.32	19363.25
694.45	19119.84
694.59	19342.19
694.72	18773.44
694.86	18923.23
694.99	19089.41
695.13	18815.57
695.26	18665.77
695.39	18621.30
695.53	18845.99
695.66	18625.98
695.80	18848.33
695.93	18415.34
696.07	18223.41
696.20	18237.45
696.33	18164.90
696.47	18008.08
696.60	17989.36
696.73	17928.50
696.87	17907.44
697.00	17881.69
697.14	17722.54
697.27	17446.35
697.40	17486.14
697.54	17764.67
697.67	17436.99
697.80	17198.26
697.94	16835.47
698.07	16989.95
698.21	17153.79
698.34	16989.95
698.47	16943.14
698.61	16776.96
698.74	16744.19
698.87	16912.71
699.01	16468.01
699.14	16776.96
699.27	16383.75
699.40	16713.77
699.54	16257.36
699.67	15992.88
699.80	15955.43
699.94	16035.01
700.07	16063.10
700.20	16044.37
700.34	15735.42
700.47	15749.46
700.60	15826.70
700.73	15864.15
700.87	15714.36
701.00	15548.18
701.13	15880.53
701.26	15543.50
701.40	15424.13
701.53	15459.24
701.66	15365.62
701.79	15117.52
701.93	14803.89
702.06	15157.31
702.19	14750.06
702.32	15119.86
702.46	14778.14
702.59	14689.20
702.72	14607.28
702.85	14834.32
702.99	14850.70
703.12	14679.84
703.25	14288.97
703.38	14235.14
703.51	14464.51
703.65	14403.66
703.78	13980.02
703.91	13926.19
704.04	14003.43
704.17	13916.83
704.31	14029.17
704.44	13834.91
704.57	13884.06
704.70	13778.73
704.83	13666.39
704.96	14038.53
705.10	13666.39
705.23	13799.80
>>>>>End Processed Spectral Data<<<<<
