SpectraSuite Data File
++++++++++++++++++++++++++++++++++++
Date: Fri Oct 25 10:44:50 EDT 2013
User: price-jones
Dark Spectrum Present: No
Reference Spectrum Present: No
Number of Sampled Component Spectra: 1
Spectrometers: USB2+H05261
Integration Time (usec): 100000 (USB2+H05261)
Spectra Averaged: 1 (USB2+H05261)
Boxcar Smoothing: 0 (USB2+H05261)
Correct for Electrical Dark: No (USB2+H05261)
Strobe/Lamp Enabled: No (USB2+H05261)
Correct for Detector Non-linearity: No (USB2+H05261)
Correct for Stray Light: No (USB2+H05261)
Number of Pixels in Processed Spectrum: 2048
>>>>>Begin Processed Spectral Data<<<<<
365.73	156.82
365.92	156.82
366.12	156.82
366.32	67.88
366.52	124.05
366.72	51.49
366.91	32.77
367.11	0.00
367.31	79.58
367.51	46.81
367.70	14.04
367.90	11.70
368.10	51.49
368.30	35.11
368.49	25.75
368.69	37.45
368.89	70.22
369.09	0.00
369.28	86.60
369.48	56.17
369.68	114.69
369.87	77.24
370.07	114.69
370.27	140.43
370.47	191.92
370.66	292.57
370.86	400.23
371.06	463.43
371.25	447.04
371.45	400.23
371.65	458.74
371.84	451.72
372.04	489.17
372.24	425.98
372.44	456.40
372.63	519.60
372.83	500.87
373.03	440.02
373.22	440.02
373.42	486.83
373.62	463.43
373.81	524.28
374.01	535.98
374.21	557.05
374.40	580.45
374.60	610.88
374.79	608.54
374.99	538.32
375.19	585.13
375.38	510.24
375.58	624.92
375.78	554.71
375.97	564.07
376.17	582.79
376.37	568.75
376.56	603.86
376.76	594.50
376.95	596.84
377.15	664.71
377.35	629.60
377.54	617.90
377.74	571.09
377.93	552.37
378.13	587.47
378.33	636.63
378.52	620.24
378.72	606.20
378.91	641.31
379.11	610.88
379.31	589.82
379.50	582.79
379.70	657.69
379.89	608.54
380.09	688.12
380.28	662.37
380.48	622.58
380.68	676.41
380.87	608.54
381.07	699.82
381.26	676.41
381.46	638.97
381.65	674.07
381.85	608.54
382.04	587.47
382.24	575.77
382.43	681.10
382.63	629.60
382.83	739.61
383.02	727.91
383.22	706.84
383.41	730.25
383.61	718.54
383.80	823.87
384.00	688.12
384.19	662.37
384.39	685.78
384.58	718.54
384.78	709.18
384.97	758.33
385.17	763.01
385.36	767.70
385.56	711.52
385.75	741.95
385.95	809.83
386.14	791.10
386.34	793.44
386.53	819.19
386.72	866.00
386.92	905.79
387.11	805.14
387.31	830.89
387.50	798.12
387.70	791.10
387.89	858.98
388.09	718.54
388.28	774.72
388.48	863.66
388.67	873.02
388.86	889.40
389.06	898.77
389.25	910.47
389.45	821.53
389.64	880.04
389.84	983.02
390.03	945.58
390.22	971.32
390.42	858.98
390.61	882.38
390.81	887.06
391.00	868.34
391.19	1018.13
391.39	980.68
391.58	924.51
391.78	901.11
391.97	1086.01
392.16	856.64
392.36	1013.45
392.55	917.49
392.75	1001.75
392.94	976.00
393.13	889.40
393.33	1004.09
393.52	971.32
393.71	1011.11
393.91	992.39
394.10	997.07
394.29	978.34
394.49	1011.11
394.68	1107.07
394.88	1069.62
395.07	1177.29
395.26	1193.67
395.46	1095.37
395.65	1238.14
395.84	1104.73
396.04	1174.95
396.23	1116.44
396.42	1027.50
396.62	1057.92
396.81	1142.18
397.00	1165.59
397.19	1193.67
397.39	1214.74
397.58	1289.64
397.77	1277.93
397.97	1249.85
398.16	1301.34
398.35	1331.76
398.55	1324.74
398.74	1409.00
398.93	1392.62
399.12	1380.92
399.32	1380.92
399.51	1444.11
399.70	1345.81
399.90	1322.40
400.09	1373.89
400.28	1418.36
400.47	1458.15
400.67	1500.28
400.86	1434.75
401.05	1462.83
401.24	1434.75
401.44	1568.16
401.63	1537.73
401.82	1490.92
402.01	1481.56
402.21	1497.94
402.40	1535.39
402.59	1474.54
402.78	1511.99
402.97	1514.33
403.17	1549.43
403.36	1600.93
403.55	1678.16
403.74	1692.21
403.93	1633.69
404.13	1671.14
404.32	1661.78
404.51	1710.93
404.70	1708.59
404.89	1657.10
405.09	1832.64
405.28	1678.16
405.47	1724.97
405.66	1818.60
405.85	1832.64
406.05	1778.81
406.24	1879.45
406.43	1856.04
406.62	1813.92
406.81	1961.37
407.00	1806.89
407.20	1827.96
407.39	1769.44
407.58	1905.20
407.77	1923.92
407.96	2005.84
408.15	1877.11
408.34	1937.96
408.54	1987.11
408.73	1959.03
408.92	2008.18
409.11	2038.61
409.30	1968.39
409.49	2022.22
409.68	1947.33
409.87	2054.99
410.07	2036.27
410.26	2057.33
410.45	2108.82
410.64	2132.23
410.83	2216.49
411.02	2179.04
411.21	2389.69
411.40	2258.62
411.59	2347.56
411.78	2289.04
411.98	2246.91
412.17	2340.54
412.36	2399.05
412.55	2410.75
412.74	2516.08
412.93	2448.20
413.12	2377.98
413.31	2562.89
413.50	2523.10
413.69	2539.48
413.88	2612.04
414.07	2581.61
414.26	2583.95
414.45	2530.12
414.64	2541.82
414.83	2656.51
415.02	2719.70
415.22	2806.30
415.41	2822.69
415.60	2850.77
415.79	2794.60
415.98	2740.77
416.17	2827.37
416.36	2801.62
416.55	2867.16
416.74	2871.84
416.93	3014.61
417.12	2939.71
417.31	2986.52
417.50	2946.73
417.69	3089.51
417.88	3091.85
418.07	3094.19
418.26	3194.83
418.45	3112.91
418.64	3190.15
418.83	3112.91
419.02	3180.79
419.21	3274.41
419.39	3370.37
419.58	3091.85
419.77	3269.73
419.96	3297.81
420.15	3328.24
420.34	3323.56
420.53	3337.60
420.72	3330.58
420.91	3267.39
421.10	3459.31
421.29	3351.65
421.48	3496.76
421.67	3396.12
421.86	3351.65
422.05	3428.88
422.24	3440.59
422.43	3421.86
422.61	3407.82
422.80	3559.95
422.99	3559.95
423.18	3564.64
423.37	3623.15
423.56	3592.72
423.75	3449.95
423.94	3485.06
424.13	3272.07
424.32	3351.65
424.50	3733.15
424.69	3583.36
424.88	3641.87
425.07	3543.57
425.26	3597.40
425.45	3473.36
425.64	3545.91
425.83	3499.10
426.01	3644.21
426.20	3571.66
426.39	3702.73
426.58	3564.64
426.77	3644.21
426.96	3702.73
427.15	3676.98
427.33	3672.30
427.52	3730.81
427.71	3770.60
427.90	3747.20
428.09	3840.82
428.28	3803.37
428.46	3796.35
428.65	3847.84
428.84	3840.82
429.03	3941.46
429.22	3784.65
429.40	3861.88
429.59	3798.69
429.78	3545.91
429.97	3616.13
430.16	3672.30
430.34	3852.52
430.53	3906.35
430.72	3817.41
430.91	3892.31
431.10	4004.66
431.28	4177.86
431.47	4018.70
431.66	4280.84
431.85	4156.79
432.03	4194.24
432.22	4063.17
432.41	4365.10
432.60	4245.73
432.79	4294.88
432.97	4348.72
433.16	4205.94
433.35	4112.32
433.54	4217.65
433.72	4236.37
433.91	4294.88
434.10	4306.59
434.28	4276.16
434.47	4421.27
434.66	4559.36
434.85	4493.83
435.03	4521.92
435.22	4557.02
435.41	4655.33
435.59	4589.79
435.78	4571.07
435.97	4564.04
436.16	4660.01
436.34	4606.17
436.53	4695.11
436.72	4814.48
436.90	4540.64
437.09	4709.16
437.28	4538.30
437.46	4624.90
437.65	4650.64
437.84	4594.47
438.02	4784.06
438.21	4823.84
438.40	4706.82
438.58	4863.63
438.77	4924.49
438.96	4882.36
439.14	4987.68
439.33	5116.41
439.52	4947.89
439.70	5001.72
439.89	5186.63
440.08	5210.03
440.26	5064.92
440.45	5149.18
440.63	5289.61
440.82	5359.83
441.01	5303.65
441.19	5472.17
441.38	5502.60
441.57	5371.53
441.75	5593.88
441.94	5778.78
442.12	5781.12
442.31	5612.60
442.50	5603.24
442.68	5738.99
442.87	5738.99
443.05	5825.59
443.24	5783.46
443.43	5809.21
443.61	5591.54
443.80	6057.31
443.98	5680.48
444.17	5703.89
444.35	5907.51
444.54	6059.65
444.73	5856.02
444.91	5870.06
445.10	5760.06
445.28	5790.49
445.47	5657.07
445.65	5980.07
445.84	5877.09
446.02	6099.44
446.21	5926.24
446.39	5813.89
446.58	6005.81
446.77	6115.82
446.95	5935.60
447.14	5961.34
447.32	6134.54
447.51	6181.35
447.69	5881.77
447.88	6085.39
448.06	6097.10
448.25	6040.92
448.43	6190.72
448.62	6230.51
448.80	6085.39
448.99	6083.05
449.17	6296.04
449.36	6164.97
449.54	6237.53
449.73	6314.77
449.91	6380.30
450.10	6377.96
450.28	6382.64
450.46	6555.84
450.65	6530.09
450.83	6469.24
451.02	6396.68
451.20	6616.69
451.39	6560.52
451.57	6506.69
451.76	6546.48
451.94	6707.98
452.13	6384.98
452.31	6558.18
452.49	6525.41
452.68	6558.18
452.86	6579.25
453.05	6520.73
453.23	6773.51
453.42	6630.74
453.60	6644.78
453.78	6778.19
453.97	6612.01
454.15	6703.29
454.34	6684.57
454.52	6867.13
454.70	6918.62
454.89	6733.72
455.07	6883.52
455.26	6846.07
455.44	6942.03
455.62	6857.77
455.81	6974.80
455.99	6949.05
456.17	7009.90
456.36	7162.04
456.54	7243.96
456.73	7140.97
456.91	7543.55
457.09	7360.98
457.28	7417.16
457.46	7255.66
457.64	7297.79
457.83	7211.19
458.01	7183.10
458.19	7480.35
458.38	7346.94
458.56	7506.10
458.74	7550.57
458.93	7517.80
459.11	7389.07
459.29	7634.83
459.48	7527.16
459.66	7658.23
459.84	7456.95
460.03	7763.56
460.21	7639.51
460.39	7726.11
460.57	7700.36
460.76	7803.35
460.94	7796.32
461.12	7903.99
461.31	7918.03
461.49	7885.26
461.67	7819.73
461.85	7859.52
462.04	7894.63
462.22	8013.99
462.40	8091.23
462.59	8037.40
462.77	8208.26
462.95	8046.76
463.13	8124.00
463.32	8060.80
463.50	8208.26
463.68	8009.31
463.86	8159.11
464.05	8046.76
464.23	8032.72
464.41	8278.47
464.59	7983.57
464.78	8540.61
464.96	8163.79
465.14	8124.00
465.32	8400.18
465.50	8418.91
465.69	8395.50
465.87	8468.06
466.05	8187.19
466.23	8280.82
466.41	8149.75
466.60	8566.36
466.78	8418.91
466.96	8435.29
467.14	8477.42
467.32	8451.67
467.51	8568.70
467.69	8432.95
467.87	8498.49
468.05	8889.35
468.23	8514.87
468.41	8688.07
468.60	8655.30
468.78	8791.05
468.96	8685.73
469.14	8746.58
469.32	8788.71
469.50	8861.27
469.69	8954.89
469.87	9041.49
470.05	8823.82
470.23	8854.25
470.41	9109.36
470.59	9207.67
470.77	9050.85
470.95	8940.85
471.14	9118.73
471.32	8982.98
471.50	9296.61
471.68	9266.18
471.86	9252.14
472.04	9533.00
472.22	9699.18
472.40	9329.38
472.58	9507.26
472.77	9682.80
472.95	9516.62
473.13	9916.85
473.31	9523.64
473.49	9626.62
473.67	9633.64
473.85	9715.56
474.03	10099.41
474.21	10024.51
474.39	10146.22
474.57	10012.81
474.75	10300.70
474.93	10455.17
475.12	10099.41
475.30	10326.44
475.48	10134.52
475.66	10256.23
475.84	10326.44
476.02	10324.10
476.20	10361.55
476.38	10600.29
476.56	10937.32
476.74	10874.13
476.92	10696.25
477.10	10644.76
477.28	11171.38
477.46	11000.52
477.64	11241.59
477.82	11382.03
478.00	11370.32
478.18	11295.43
478.36	11431.18
478.54	11793.96
478.72	11761.19
478.90	11850.13
479.08	11999.93
479.26	11793.96
479.44	12053.76
479.62	12074.82
479.80	12203.55
479.98	12369.73
480.16	12311.22
480.34	12425.90
480.52	12430.59
480.70	12622.51
480.88	12336.96
481.06	12671.66
481.24	12613.15
481.41	12922.10
481.59	13036.78
481.77	13125.72
481.95	13188.92
482.13	13387.86
482.31	13490.85
482.49	13596.17
482.67	13444.04
482.85	13937.89
483.03	13825.54
483.21	13977.68
483.39	14083.00
483.57	14010.45
483.74	14176.62
483.92	14614.30
484.10	14218.75
484.28	14621.33
484.46	14593.24
484.64	15133.90
484.82	14581.54
485.00	15192.42
485.18	14874.10
485.35	15143.27
485.53	15054.33
485.71	15208.80
485.89	15529.45
486.07	15295.40
486.25	15501.37
486.43	15358.60
486.61	15934.37
486.78	16058.42
486.96	15971.82
487.14	16615.46
487.32	16266.72
487.50	16615.46
487.68	16355.66
487.85	16872.92
488.03	17123.36
488.21	17319.96
488.39	17177.19
488.57	17282.52
488.75	17474.44
488.92	17909.78
489.10	17802.11
489.28	17954.25
489.46	17951.91
489.64	17891.06
489.81	18478.53
489.99	18298.31
490.17	18508.96
490.35	18745.35
490.53	18707.90
490.70	18909.19
490.88	18850.67
491.06	18885.78
491.24	19000.47
491.41	19283.67
491.59	18970.04
491.77	19115.16
491.95	19594.96
492.13	19227.50
492.30	19826.68
492.48	19798.59
492.66	20044.35
492.84	20114.56
493.01	20418.83
493.19	20620.12
493.37	20388.41
493.54	20755.87
493.72	21027.37
493.90	20938.43
494.08	21064.82
494.25	21404.20
494.43	21341.00
494.61	21483.78
494.79	21694.43
494.96	21649.96
495.14	21816.13
495.32	22008.06
495.49	21694.43
495.67	22490.21
495.85	22487.87
496.02	22384.88
496.20	22632.98
496.38	22764.05
496.55	22848.31
496.73	23122.15
496.91	23145.56
497.09	22874.06
497.26	23150.24
497.44	22960.66
497.62	23318.76
497.79	23342.16
497.97	23253.22
498.14	23529.41
498.32	23946.02
498.50	23814.95
498.67	24313.48
498.85	24025.60
499.03	24166.03
499.20	24355.61
499.38	24245.61
499.56	24547.54
499.73	24350.93
499.91	24584.99
500.08	24896.28
500.26	24542.86
500.44	24533.50
500.61	24489.03
500.79	25043.73
500.97	24959.47
501.14	25298.85
501.32	25153.74
501.49	25338.64
501.67	25207.57
501.84	25640.57
502.02	25401.83
502.20	25806.75
502.37	25642.91
502.55	25851.22
502.72	26082.93
502.90	26134.42
503.07	25846.54
503.25	26237.41
503.43	26312.30
503.60	26157.83
503.78	26108.68
503.95	25724.83
504.13	26815.52
504.30	26504.23
504.48	26920.84
504.65	27185.32
504.83	27211.07
505.01	27110.43
505.18	27346.82
505.36	27501.29
505.53	27061.27
505.71	27578.53
505.88	27660.45
506.06	27325.75
506.23	27576.19
506.41	27672.15
506.58	27857.06
506.76	27695.56
506.93	27676.83
507.11	27880.46
507.28	27990.47
507.46	28587.30
507.63	28135.58
507.81	28503.04
507.98	28187.07
508.16	28451.55
508.33	28278.35
508.50	28697.31
508.68	28685.61
508.85	29366.70
509.03	29177.12
509.20	29120.95
509.38	29383.09
509.55	29287.12
509.73	29399.47
509.90	29385.43
510.08	29057.75
510.25	29350.32
510.42	29490.75
510.60	29610.12
510.77	29785.66
510.95	29860.55
511.12	29373.72
511.30	29968.22
511.47	30218.66
511.64	30199.93
511.82	30319.30
511.99	30277.17
512.17	30314.62
512.34	30328.66
512.51	30366.11
512.69	30738.26
512.86	30639.95
513.04	30895.07
513.21	30766.34
513.38	30515.90
513.56	30611.87
513.73	30834.22
513.90	31044.87
514.08	30766.34
514.25	31047.21
514.43	31087.00
514.60	31166.57
514.77	30930.18
514.95	31491.91
515.12	31419.35
515.29	31395.95
515.47	32086.40
515.64	32006.83
515.81	31517.65
515.99	31590.21
516.16	31742.35
516.33	31679.15
516.51	31819.58
516.68	31693.19
516.85	31517.65
517.03	32299.39
517.20	31983.42
517.37	32039.59
517.54	32247.90
517.72	32222.16
517.89	32208.11
518.06	32208.11
518.24	32081.72
518.41	32290.03
518.58	32423.44
518.75	32222.16
518.93	33235.61
519.10	32877.51
519.27	33127.94
519.45	32950.06
519.62	33294.12
519.79	32966.45
519.96	33106.88
520.14	33539.88
520.31	33404.13
520.48	33401.79
520.65	33418.17
520.83	33720.10
521.00	33827.76
521.17	33509.45
521.34	34103.95
521.52	34029.05
521.69	33659.24
521.86	34473.75
522.03	34298.21
522.20	33874.57
522.38	34202.25
522.55	34265.44
522.72	34391.83
522.89	34487.79
523.07	34550.99
523.24	34295.87
523.41	34700.78
523.58	34478.43
523.75	35138.46
523.92	34817.81
524.10	35370.18
524.27	35005.05
524.44	35065.91
524.61	35152.51
524.78	34930.16
524.96	35166.55
525.13	35278.89
525.30	35606.57
525.47	35381.88
525.64	35456.78
525.81	35442.73
525.98	35599.55
526.16	35339.75
526.33	35786.79
526.50	35747.00
526.67	35056.54
526.84	35875.73
527.01	35461.46
527.18	35871.05
527.36	36208.09
527.53	35962.33
527.70	36378.95
527.87	36198.73
528.04	36409.37
528.21	36383.63
528.38	36528.74
528.55	36334.48
528.72	36154.26
528.89	37092.81
529.07	36189.36
529.24	36652.79
529.41	36774.50
529.58	36517.04
529.75	36786.20
529.92	36495.97
530.09	36774.50
530.26	37153.66
530.43	36755.77
530.60	37038.98
530.77	36629.38
530.94	37535.17
531.11	36854.08
531.28	37371.33
531.46	37635.81
531.63	37420.48
531.80	36914.93
531.97	37263.67
532.14	37315.16
532.31	37640.50
532.48	37383.04
532.65	37476.66
532.82	37544.53
532.99	37785.61
533.16	37610.07
533.33	37628.79
533.50	37694.33
533.67	37872.21
533.84	37806.67
534.01	38139.03
534.18	38040.73
534.35	37972.85
534.52	38199.88
534.69	38553.30
534.86	38494.79
535.03	38260.74
535.20	38211.59
535.37	38333.29
535.54	38969.92
535.71	38410.53
535.88	38513.52
536.05	38660.97
536.22	38646.93
536.38	38220.95
536.55	38855.23
536.72	38492.45
536.89	38557.99
537.06	39084.61
537.23	39145.46
537.40	38792.04
537.57	38972.26
537.74	38721.82
537.91	39365.47
538.08	38880.98
538.25	38871.62
538.42	39164.18
538.59	38981.62
538.75	38546.28
538.92	39040.14
539.09	39166.52
539.26	39330.36
539.43	39215.68
539.60	39445.05
539.77	39356.11
539.94	39346.75
540.11	39105.67
540.28	39454.41
540.44	39091.63
540.61	39744.64
540.78	39648.68
540.95	39562.08
541.12	39786.77
541.29	40105.08
541.46	39840.60
541.62	39723.57
541.79	39826.56
541.96	39622.93
542.13	39498.88
542.30	39819.53
542.47	39929.54
542.63	40327.43
542.80	40123.80
542.97	40556.80
543.14	40669.15
543.31	40472.54
543.48	40233.81
543.64	41050.66
543.81	41507.06
543.98	40772.13
544.15	40514.67
544.32	40793.20
544.48	41226.20
544.65	40643.40
544.82	40512.33
544.99	40830.65
545.16	41118.53
545.32	40924.27
545.49	41219.17
545.66	41432.16
545.83	41399.40
546.00	41139.60
546.16	41144.28
546.33	40648.08
546.50	41050.66
546.67	41408.76
546.83	41181.73
547.00	41167.68
547.17	41216.83
547.34	41628.77
547.50	41165.34
547.67	41865.16
547.84	41638.13
548.00	41654.51
548.17	42021.98
548.34	41750.48
548.51	41914.31
548.67	41991.55
548.84	42244.33
549.01	41848.78
549.18	41979.85
549.34	42014.96
549.51	42087.51
549.68	41874.52
549.84	41881.55
550.01	42169.43
550.18	41916.65
550.34	41958.78
550.51	41851.12
550.68	41937.72
550.84	41764.52
551.01	42089.85
551.18	42167.09
551.34	42230.29
551.51	42120.28
551.68	42501.79
551.84	42703.07
552.01	42394.12
552.18	42314.55
552.34	42265.39
552.51	42632.86
552.68	42466.68
552.84	42756.91
553.01	42728.82
553.18	42347.31
553.34	42724.14
553.51	42206.88
553.67	42096.88
553.84	42349.65
554.01	42962.87
554.17	42651.58
554.34	42796.70
554.51	43007.34
554.67	43026.07
554.84	42630.52
555.00	42506.47
555.17	42600.09
555.33	43143.09
555.50	42958.19
555.67	42958.19
555.83	43072.88
556.00	42939.47
556.16	43082.24
556.33	43133.73
556.50	43047.13
556.66	43175.86
556.83	42529.87
556.99	43395.87
557.16	43241.40
557.32	43143.09
557.49	43421.62
557.65	42948.83
557.82	43257.78
557.98	43302.25
558.15	43316.29
558.32	43323.32
558.48	43145.44
558.65	43316.29
558.81	43480.13
558.98	43150.12
559.14	43524.60
559.31	42937.13
559.47	43215.65
559.64	43718.87
559.80	43758.66
559.97	43882.70
560.13	43234.38
560.30	43152.46
560.46	43777.38
560.63	43531.62
560.79	43779.72
560.96	43924.83
561.12	43515.24
561.29	43463.75
561.45	43676.74
561.61	43510.56
561.78	43810.15
561.94	43758.66
562.11	43599.50
562.27	43461.41
562.44	43831.21
562.60	43971.64
562.77	43753.97
562.93	43849.94
563.10	43854.62
563.26	43356.08
563.42	44079.31
563.59	43845.26
563.75	43779.72
563.92	43655.67
564.08	43903.77
564.24	43983.35
564.41	44236.12
564.57	43814.83
564.74	43686.10
564.90	43889.73
565.07	44261.87
565.23	43990.37
565.39	44027.82
565.56	44165.91
565.72	43878.02
565.88	44158.89
566.05	44048.88
566.21	43634.61
566.38	43966.96
566.54	43927.17
566.70	43948.24
566.87	44538.05
567.03	44371.88
567.19	44762.75
567.36	44360.17
567.52	43859.30
567.68	44367.20
567.85	43658.01
568.01	44196.34
568.17	44105.06
568.34	44519.33
568.50	44023.14
568.66	44098.03
568.83	43908.45
568.99	44044.20
569.15	43725.89
569.32	43971.64
569.48	44362.51
569.64	44664.44
569.81	44275.91
569.97	44524.01
570.13	44135.48
570.30	43770.36
570.46	44037.18
570.62	43807.81
570.78	43583.12
570.95	43999.73
571.11	44385.92
571.27	44222.08
571.43	44095.69
571.60	44011.43
571.76	44336.77
571.92	44423.37
572.09	44257.19
572.25	44404.64
572.41	44327.41
572.57	44194.00
572.74	44582.52
572.90	44423.37
573.06	44683.17
573.22	44154.21
573.38	44098.03
573.55	44264.21
573.71	44360.17
573.87	44353.15
574.03	44217.40
574.20	44442.09
574.36	44514.65
574.52	44406.98
574.68	44498.26
574.84	44552.10
575.01	44346.13
575.17	44350.81
575.33	44128.46
575.49	44533.37
575.65	44573.16
575.82	44701.89
575.98	44369.54
576.14	44488.90
576.30	44416.35
576.46	44540.39
576.62	44638.70
576.79	44507.63
576.95	43962.28
577.11	44582.52
577.27	44222.08
577.43	44624.65
577.59	44486.56
577.75	44678.49
577.92	43959.94
578.08	44423.37
578.24	44299.32
578.40	44584.86
578.56	44477.20
578.72	44163.57
578.88	44802.53
579.04	44835.30
579.21	44989.78
579.37	44657.42
579.53	44741.68
579.69	44025.48
579.85	44325.07
580.01	44306.34
580.17	44603.59
580.33	44514.65
580.49	44914.88
580.65	44989.78
580.82	44526.35
580.98	44147.18
581.14	44540.39
581.30	44872.75
581.46	45008.50
581.62	44411.67
581.78	44755.72
581.94	44758.06
582.10	44552.10
582.26	44720.62
582.42	44409.32
582.58	44591.89
582.74	44676.15
582.90	45162.98
583.06	44727.64
583.22	44554.44
583.38	44931.26
583.54	44694.87
583.70	44512.31
583.86	44994.46
584.02	44289.96
584.18	44802.53
584.34	44477.20
584.50	44769.77
584.66	44760.40
584.82	44432.73
584.98	44718.28
585.14	44655.08
585.30	44542.74
585.46	44861.05
585.62	44247.83
585.78	45008.50
585.94	44767.43
586.10	44549.76
586.26	44495.92
586.42	44776.79
586.58	45010.84
586.74	44790.83
586.90	44390.60
587.06	44406.98
587.22	44807.22
587.38	44463.16
587.54	44648.06
587.70	44877.43
587.86	45141.91
588.02	45256.60
588.18	44912.54
588.34	44722.96
588.49	44322.72
588.65	44128.46
588.81	44353.15
588.97	44301.66
589.13	44587.21
589.29	44463.16
589.45	44634.02
589.61	44935.95
589.77	44952.33
589.93	44973.39
590.08	45064.67
590.24	44847.00
590.40	45181.70
590.56	45535.12
590.72	44828.28
590.88	44978.07
591.04	44807.22
591.20	45193.40
591.35	45347.88
591.51	45059.99
591.67	45132.55
591.83	44854.03
591.99	44938.29
592.15	45181.70
592.31	45113.83
592.46	44839.98
592.62	45092.76
592.78	45104.46
592.94	45336.18
593.10	44903.18
593.26	44861.05
593.41	44849.35
593.57	45055.31
593.73	44832.96
593.89	44762.75
594.05	45090.42
594.20	44790.83
594.36	45439.16
594.52	44872.75
594.68	45031.91
594.84	44842.32
594.99	45064.67
595.15	45516.40
595.31	44999.14
595.47	45015.52
595.62	45106.80
595.78	45078.72
595.94	45422.78
596.10	44945.31
596.25	44952.33
596.41	45081.06
596.57	45195.74
596.73	45291.71
596.88	44926.58
597.04	45001.48
597.20	45137.23
597.36	44769.77
597.51	45024.89
597.67	45462.57
597.83	45235.53
597.99	45001.48
598.14	45102.12
598.30	45364.26
598.46	45268.30
598.61	44811.90
598.77	45069.36
598.93	44968.71
599.09	44814.24
599.24	45806.62
599.40	45184.04
599.56	45443.84
599.71	45221.49
599.87	45467.25
600.03	44947.65
600.18	45333.84
600.34	45123.19
600.50	45029.57
600.65	45324.47
600.81	45415.76
600.97	45481.29
601.12	45188.72
601.28	44610.61
601.44	45015.52
601.59	45174.68
601.75	44779.13
601.91	45085.74
602.06	45235.53
602.22	45055.31
602.37	44648.06
602.53	45048.29
602.69	45223.83
602.84	44809.56
603.00	45179.36
603.16	45254.26
603.31	44776.79
603.47	44905.52
603.62	44924.24
603.78	45177.02
603.94	45029.57
604.09	45240.21
604.25	44893.82
604.40	45235.53
604.56	45036.59
604.71	45310.43
604.87	44737.00
605.03	44804.88
605.18	45055.31
605.34	44973.39
605.49	44779.13
605.65	44835.30
605.80	44964.03
605.96	45198.09
606.12	44910.20
606.27	45387.67
606.43	44947.65
606.58	45401.71
606.74	44870.41
606.89	45050.63
607.05	44968.71
607.20	45083.40
607.36	44851.69
607.51	44987.44
607.67	45258.94
607.82	45193.40
607.98	44343.79
608.13	44926.58
608.29	44699.55
608.44	44516.99
608.60	44343.79
608.75	44353.15
608.91	44900.84
609.06	44414.01
609.22	44992.12
609.37	44374.22
609.53	44680.83
609.68	44355.49
609.84	44376.56
609.99	44954.67
610.15	44776.79
610.30	44744.02
610.46	43952.92
610.61	44411.67
610.76	44582.52
610.92	44547.42
611.07	44788.49
611.23	44524.01
611.38	44444.43
611.54	44449.11
611.69	44491.24
611.84	44458.48
612.00	44100.37
612.15	44266.55
612.31	44341.45
612.46	44004.41
612.62	44287.62
612.77	44692.53
612.92	44872.75
613.08	44292.30
613.23	44409.32
613.39	44023.14
613.54	44013.77
613.69	44088.67
613.85	44114.42
614.00	44334.43
614.15	44360.17
614.31	43950.58
614.46	44563.80
614.62	44325.07
614.77	44376.56
614.92	44107.40
615.08	43646.31
615.23	43412.26
615.38	43938.88
615.54	43587.80
615.69	43576.09
615.84	43854.62
616.00	43765.68
616.15	44123.78
616.30	44091.01
616.46	43440.34
616.61	43515.24
616.76	43650.99
616.92	43288.21
617.07	43435.66
617.22	43288.21
617.37	43407.58
617.53	43728.23
617.68	43833.55
617.83	43412.26
617.99	44091.01
618.14	43597.16
618.29	43838.23
618.45	43072.88
618.60	43288.21
618.75	43653.33
618.90	43379.49
619.06	43676.74
619.21	44006.75
619.36	43889.73
619.51	43526.94
619.67	43232.04
619.82	43639.29
619.97	43679.08
620.12	43402.89
620.28	42536.90
620.43	43147.78
620.58	42885.64
620.73	43217.99
620.89	43068.20
621.04	43016.71
621.19	43281.19
621.34	43227.35
621.49	42653.92
621.65	43178.20
621.80	43091.60
621.95	43271.82
622.10	42880.95
622.25	42932.45
622.41	42810.74
622.56	42635.20
622.71	43021.39
622.86	42740.52
623.01	42993.30
623.16	42787.33
623.32	42864.57
623.47	42904.36
623.62	42932.45
623.77	42621.16
623.92	42719.46
624.07	42653.92
624.23	42642.22
624.38	42546.26
624.53	42581.37
624.68	42183.48
624.83	42382.42
624.98	42209.22
625.13	42616.47
625.29	42684.35
625.44	42150.71
625.59	41888.57
625.74	41837.08
625.89	42073.47
626.04	41986.87
626.19	42452.64
626.34	42206.88
626.49	42415.19
626.65	42326.25
626.80	42272.42
626.95	42391.78
627.10	42284.12
627.25	42059.43
627.40	41724.73
627.55	41375.99
627.70	41631.11
627.85	41656.85
628.00	41448.55
628.15	41429.82
628.30	41507.06
628.45	41790.27
628.60	41455.57
628.76	41684.94
628.91	41703.67
629.06	41469.61
629.21	41666.22
629.36	41516.42
629.51	41481.31
629.66	41757.50
629.81	41268.33
629.96	41249.60
630.11	41486.00
630.26	41773.88
630.41	41462.59
630.56	41373.65
630.71	41696.64
630.86	41766.86
631.01	41045.97
631.16	41617.07
631.31	40687.87
631.46	41163.00
631.61	41336.20
631.76	41127.89
631.91	41146.62
632.06	41099.81
632.21	41808.99
632.36	41432.16
632.51	40935.97
632.66	41109.17
632.81	40495.95
632.96	40697.24
633.10	40678.51
633.25	41195.77
633.40	41001.50
633.55	41317.48
633.70	41024.91
633.85	40615.32
634.00	40814.26
634.15	40847.03
634.30	40910.22
634.45	40671.49
634.60	41069.38
634.75	40868.09
634.90	40760.43
635.05	40584.89
635.19	40456.16
635.34	40971.08
635.49	40168.27
635.64	40591.91
635.79	40711.28
635.94	40643.40
636.09	40769.79
636.24	40549.78
636.39	40460.84
636.53	40128.48
636.68	40219.77
636.83	40297.00
636.98	40226.79
637.13	39735.27
637.28	40107.42
637.43	40615.32
637.57	40552.12
637.72	40517.01
637.87	39969.33
638.02	40278.28
638.17	40212.74
638.32	40037.20
638.46	39950.60
638.61	39800.81
638.76	40016.14
638.91	40107.42
639.06	40144.87
639.20	40081.67
639.35	40210.40
639.50	40002.10
639.65	40343.81
639.80	40439.78
639.94	39601.86
640.09	39728.25
640.24	39669.74
640.39	39061.20
640.54	40189.34
640.68	39426.32
640.83	39412.28
640.98	39580.80
641.13	39391.22
641.27	39828.90
641.42	39688.46
641.57	39391.22
641.72	39257.81
641.86	39005.03
642.01	39096.31
642.16	39236.74
642.31	39047.16
642.45	39496.54
642.60	39110.35
642.75	39398.24
642.90	39117.37
643.04	39473.13
643.19	38930.13
643.34	39473.13
643.48	39042.48
643.63	38759.27
643.78	38962.90
643.93	38569.69
644.07	39002.69
644.22	38904.38
644.37	38782.68
644.51	39009.71
644.66	38906.73
644.81	39007.37
644.95	39115.03
645.10	39147.80
645.25	39454.41
645.39	39243.76
645.54	39236.74
645.69	39091.63
645.83	38738.21
645.98	38787.36
646.13	39131.42
646.27	38525.22
646.42	38841.19
646.57	38618.84
646.71	38703.10
646.86	38841.19
647.00	38815.44
647.15	38602.46
647.30	38398.83
647.44	38675.01
647.59	38572.03
647.74	38424.57
647.88	38618.84
648.03	38803.74
648.17	38857.57
648.32	38302.87
648.47	38382.45
648.61	38347.34
648.76	38656.29
648.90	38298.19
649.05	38370.74
649.20	38417.55
649.34	38370.74
649.49	38326.27
649.63	38014.98
649.78	37722.41
649.92	38209.25
650.07	38263.08
650.21	37677.94
650.36	37862.85
650.51	38026.68
650.65	38576.71
650.80	38150.73
650.94	38183.50
651.09	38190.52
651.23	37825.40
651.38	37855.82
651.52	37940.08
651.67	38054.77
651.81	37879.23
651.96	37237.92
652.10	37200.47
652.25	37762.20
652.39	37813.70
652.54	37663.90
652.68	37689.65
652.83	37865.19
652.97	37851.14
653.12	37628.79
653.26	37287.07
653.41	37425.17
653.55	37366.65
653.70	37209.84
653.84	37593.68
653.99	37544.53
654.13	37331.54
654.27	37420.48
654.42	37043.66
654.56	37195.79
654.71	37488.36
654.85	37177.07
655.00	37500.06
655.14	37076.43
655.29	36882.16
655.43	36865.78
655.57	37111.53
655.72	36685.56
655.86	36613.00
656.01	36547.47
656.15	36584.91
656.30	36503.00
656.44	36821.31
656.58	36313.41
656.73	37125.58
656.87	36615.34
657.01	37008.55
657.16	37064.72
657.30	36823.65
657.45	36271.28
657.59	36643.43
657.73	36505.34
657.88	36940.68
658.02	37188.77
658.16	36701.94
658.31	36762.79
658.45	36823.65
658.60	36322.77
658.74	36383.63
658.88	36732.37
659.03	36142.55
659.17	36201.07
659.31	36187.02
659.46	36182.34
659.60	36168.30
659.74	36381.29
659.89	36463.21
660.03	36364.90
660.17	36397.67
660.32	36062.97
660.46	36023.19
660.60	35585.50
660.74	36070.00
660.89	36542.78
661.03	35807.86
661.17	35269.53
661.32	35182.93
661.46	35318.68
661.60	35204.00
661.74	35594.87
661.89	35674.45
662.03	35655.72
662.17	35693.17
662.31	35077.61
662.46	35730.62
662.60	35775.09
662.74	35332.73
662.88	34876.32
663.03	34932.50
663.17	35091.65
663.31	35295.28
663.45	35262.51
663.60	35225.06
663.74	35070.59
663.88	34918.45
664.02	34787.38
664.17	35061.22
664.31	34445.66
664.45	34850.58
664.59	34672.70
664.73	34487.79
664.88	34513.54
665.02	34375.45
665.16	34417.58
665.30	34569.71
665.44	33935.43
665.59	34356.72
665.73	34204.59
665.87	34249.06
666.01	34630.57
666.15	33890.96
666.29	33998.62
666.44	34274.80
666.58	33965.85
666.72	33926.07
666.86	34321.62
667.00	34211.61
667.14	33472.00
667.28	33553.92
667.43	33748.18
667.57	33350.29
667.71	33415.83
667.85	33425.19
667.99	33472.00
668.13	33174.75
668.27	33420.51
668.41	33872.23
668.56	33207.52
668.70	33130.28
668.84	33553.92
668.98	33001.55
669.12	32690.26
669.26	32790.91
669.40	32936.02
669.54	32746.44
669.68	32929.00
669.82	32701.96
669.96	32636.43
670.10	32891.55
670.25	32676.22
670.39	32875.16
670.53	32435.14
670.67	31992.78
670.81	32847.08
670.95	32610.68
671.09	32521.74
671.23	32430.46
671.37	32023.21
671.51	32079.38
671.65	31983.42
671.79	31983.42
671.93	31608.93
672.07	32018.53
672.21	32168.32
672.35	31583.19
672.49	32051.30
672.63	31648.72
672.77	31452.12
672.91	31716.60
673.05	31679.15
673.19	31452.12
673.33	31136.15
673.47	30906.77
673.61	31204.02
673.75	30953.58
673.89	30717.19
674.03	30656.34
674.17	30932.52
674.31	30658.68
674.45	30740.60
674.59	30717.19
674.73	30778.04
674.87	30574.42
675.01	30368.45
675.15	30419.94
675.29	30799.11
675.43	30668.04
675.56	30352.07
675.70	30558.03
675.84	30136.74
675.98	29113.92
676.12	30022.05
676.26	29968.22
676.40	29408.83
676.54	29949.50
676.68	30134.40
676.82	28856.46
676.96	29666.29
677.10	29329.25
677.23	29539.90
677.37	29240.31
677.51	29039.03
677.65	28835.40
677.79	28687.95
677.93	28580.28
678.07	28849.44
678.21	28645.82
678.34	28631.77
678.48	28556.88
678.62	28060.68
678.76	28030.26
678.90	27896.85
679.04	27854.72
679.18	28086.43
679.31	27714.28
679.45	27779.82
679.59	27075.32
679.73	27908.55
679.87	27676.83
680.00	27173.62
680.14	27152.55
680.28	27367.88
680.42	27234.47
680.56	27754.07
680.70	27201.71
680.83	27475.55
680.97	27161.92
681.11	27379.59
681.25	26656.36
681.39	26843.60
681.52	27002.76
681.66	26609.55
681.80	26661.04
681.94	26565.08
682.07	26616.57
682.21	26361.45
682.35	26038.46
682.49	26298.26
682.62	26005.69
682.76	25720.15
682.90	26066.55
683.04	25825.47
683.17	25371.41
683.31	25614.82
683.45	25748.23
683.59	25518.86
683.72	25092.88
683.86	25383.11
684.00	25259.06
684.13	25160.76
684.27	25027.35
684.41	24493.71
684.55	24861.17
684.68	24435.19
684.82	24397.74
684.96	24496.05
685.09	24489.03
685.23	24053.69
685.37	24166.03
685.50	24386.04
685.64	24095.82
685.78	24034.96
685.91	24128.58
686.05	23913.25
686.19	23517.70
686.32	23660.48
686.46	23309.40
686.60	23129.17
686.73	23433.44
686.87	23541.11
687.01	22869.37
687.14	23026.19
687.28	22981.72
687.42	23157.26
687.55	22827.24
687.69	23094.07
687.82	22810.86
687.96	22717.24
688.10	22714.90
688.23	22515.95
688.37	22237.43
688.50	22059.55
688.64	22026.78
688.78	22511.27
688.91	22391.91
689.05	22174.24
689.18	22092.32
689.32	21701.45
689.46	21984.65
689.59	21771.66
689.73	21930.82
689.86	21844.22
690.00	21429.94
690.13	21483.78
690.27	21308.24
690.41	21001.63
690.54	20798.00
690.68	20861.19
690.81	21142.06
690.95	20739.49
691.08	20753.53
691.22	20996.95
691.35	21149.08
691.49	20989.92
691.62	20826.09
691.76	20414.15
691.89	20542.88
692.03	20332.23
692.16	20219.89
692.30	19939.02
692.43	19880.51
692.57	20018.60
692.70	19899.23
692.84	19721.35
692.97	19690.93
693.11	19697.95
693.24	19550.49
693.38	19597.31
693.51	19580.92
693.65	19295.38
693.78	19218.14
693.92	19538.79
694.05	19119.84
694.19	19286.01
694.32	18824.93
694.45	19044.94
694.59	18799.18
694.72	18738.33
694.86	18504.28
694.99	18686.84
695.13	18609.60
695.26	18501.93
695.39	18361.50
695.53	18417.68
695.66	18501.93
695.80	18616.62
695.93	18361.50
696.07	18001.06
696.20	18223.41
696.33	17853.61
696.47	17940.21
696.60	17879.35
696.73	17502.53
696.87	17682.75
697.00	17568.06
697.14	17280.18
697.27	17589.13
697.40	17511.89
697.54	16947.82
697.67	17172.51
697.80	16915.05
697.94	16776.96
698.07	17036.76
698.21	16655.25
698.34	16821.43
698.47	16727.81
698.61	16313.53
698.74	16287.79
698.87	16283.11
699.01	16276.09
699.14	15929.69
699.27	16418.86
699.40	16222.25
699.54	16114.59
699.67	16060.76
699.80	16137.99
699.94	16011.60
700.07	16140.33
700.20	15812.66
700.34	15590.31
700.47	15726.06
700.60	16023.31
700.73	16056.08
700.87	15564.56
701.00	15660.52
701.13	15494.35
701.26	15239.23
701.40	15300.08
701.53	14839.00
701.66	15293.06
701.79	14890.49
701.93	14736.01
702.06	14911.55
702.19	14822.61
702.32	14555.79
702.46	14684.52
702.59	14684.52
702.72	14810.91
702.85	14647.07
702.99	14740.69
703.12	14356.85
703.25	14279.61
703.38	14202.37
703.51	14347.48
703.65	14073.64
703.78	14036.19
703.91	14001.08
704.04	14160.24
704.17	14036.19
704.31	13640.64
704.44	13879.38
704.57	14026.83
704.70	13612.56
704.83	13745.97
704.96	13537.66
705.10	13387.86
705.23	13752.99
>>>>>End Processed Spectral Data<<<<<
