SpectraSuite Data File
++++++++++++++++++++++++++++++++++++
Date: Fri Oct 25 10:44:24 EDT 2013
User: price-jones
Dark Spectrum Present: No
Reference Spectrum Present: No
Number of Sampled Component Spectra: 1
Spectrometers: USB2+H05261
Integration Time (usec): 100000 (USB2+H05261)
Spectra Averaged: 1 (USB2+H05261)
Boxcar Smoothing: 0 (USB2+H05261)
Correct for Electrical Dark: No (USB2+H05261)
Strobe/Lamp Enabled: No (USB2+H05261)
Correct for Detector Non-linearity: No (USB2+H05261)
Correct for Stray Light: No (USB2+H05261)
Number of Pixels in Processed Spectrum: 2048
>>>>>Begin Processed Spectral Data<<<<<
365.73	198.95
365.92	198.95
366.12	198.95
366.32	117.03
366.52	9.36
366.72	51.49
366.91	42.13
367.11	37.45
367.31	53.83
367.51	58.51
367.70	46.81
367.90	81.92
368.10	0.00
368.30	18.72
368.49	84.26
368.69	14.04
368.89	49.15
369.09	30.43
369.28	102.98
369.48	65.54
369.68	39.79
369.87	72.56
370.07	65.54
370.27	110.01
370.47	238.73
370.66	369.80
370.86	449.38
371.06	519.60
371.25	545.34
371.45	451.72
371.65	449.38
371.84	486.83
372.04	430.66
372.24	543.00
372.44	559.39
372.63	482.15
372.83	517.26
373.03	517.26
373.22	528.96
373.42	585.13
373.62	564.07
373.81	606.20
374.01	554.71
374.21	573.43
374.40	631.94
374.60	601.52
374.79	585.13
374.99	585.13
375.19	676.41
375.38	582.79
375.58	678.76
375.78	631.94
375.97	566.41
376.17	737.27
376.37	655.35
376.56	557.05
376.76	608.54
376.95	599.18
377.15	648.33
377.35	596.84
377.54	585.13
377.74	685.78
377.93	702.16
378.13	648.33
378.33	667.05
378.52	603.86
378.72	688.12
378.91	671.73
379.11	655.35
379.31	660.03
379.50	683.44
379.70	720.88
379.89	718.54
380.09	732.59
380.28	730.25
380.48	760.67
380.68	671.73
380.87	704.50
381.07	763.01
381.26	770.04
381.46	737.27
381.65	699.82
381.85	746.63
382.04	690.46
382.24	798.12
382.43	704.50
382.63	727.91
382.83	774.72
383.02	779.40
383.22	746.63
383.41	641.31
383.61	770.04
383.80	753.65
384.00	779.40
384.19	870.68
384.39	802.80
384.58	760.67
384.78	802.80
384.97	781.74
385.17	894.08
385.36	819.19
385.56	746.63
385.75	835.57
385.95	777.06
386.14	875.36
386.34	856.64
386.53	844.93
386.72	847.27
386.92	835.57
387.11	898.77
387.31	903.45
387.50	861.32
387.70	898.77
387.89	940.90
388.09	851.96
388.28	849.61
388.48	943.24
388.67	1022.81
388.86	1015.79
389.06	954.94
389.25	983.02
389.45	1004.09
389.64	1090.69
389.84	1034.52
390.03	978.34
390.22	1057.92
390.42	1004.09
390.61	1015.79
390.81	1083.67
391.00	1118.78
391.19	1116.44
391.39	1027.50
391.58	1071.97
391.78	1095.37
391.97	947.92
392.16	1071.97
392.36	1043.88
392.55	1029.84
392.75	1004.09
392.94	1022.81
393.13	1128.14
393.33	1020.47
393.52	1032.18
393.71	1137.50
393.91	1043.88
394.10	1130.48
394.29	1118.78
394.49	1165.59
394.68	1160.91
394.88	1252.19
395.07	1322.40
395.26	1261.55
395.46	1275.59
395.65	1284.95
395.84	1268.57
396.04	1247.51
396.23	1158.57
396.42	1240.48
396.62	1198.35
396.81	1291.98
397.00	1294.32
397.19	1348.15
397.39	1348.15
397.58	1373.89
397.77	1362.19
397.97	1399.64
398.16	1446.45
398.35	1650.08
398.55	1535.39
398.74	1605.61
398.93	1549.43
399.12	1577.52
399.32	1519.01
399.51	1600.93
399.70	1652.42
399.90	1654.76
400.09	1612.63
400.28	1636.03
400.47	1570.50
400.67	1746.04
400.86	1734.34
401.05	1643.06
401.24	1760.08
401.44	1668.80
401.63	1865.41
401.82	1748.38
402.01	1790.51
402.21	1816.26
402.40	1809.23
402.59	1813.92
402.78	1820.94
402.97	1813.92
403.17	1905.20
403.36	1872.43
403.55	1935.62
403.74	1949.67
403.93	1973.07
404.13	1949.67
404.32	1877.11
404.51	1940.30
404.70	1940.30
404.89	2040.95
405.09	2129.89
405.28	2090.10
405.47	2078.40
405.66	2183.72
405.85	2101.80
406.05	1989.46
406.24	2047.97
406.43	2090.10
406.62	2141.59
406.81	2139.25
407.00	2139.25
407.20	2120.53
407.39	2101.80
407.58	2169.68
407.77	2349.90
407.96	2253.94
408.15	2263.30
408.34	2321.81
408.54	2272.66
408.73	2354.58
408.92	2272.66
409.11	2387.35
409.30	2427.14
409.49	2389.69
409.68	2256.28
409.87	2314.79
410.07	2420.11
410.26	2370.96
410.45	2436.50
410.64	2518.42
410.83	2579.27
411.02	2605.02
411.21	2719.70
411.40	2722.04
411.59	2719.70
411.78	2752.47
411.98	2668.21
412.17	2675.23
412.36	2703.32
412.55	2899.92
412.74	2780.56
412.93	2946.73
413.12	2794.60
413.31	2918.65
413.50	2949.08
413.69	2972.48
413.88	3117.59
414.07	2939.71
414.26	2935.03
414.45	3049.72
414.64	3103.55
414.83	3124.62
415.02	3162.06
415.22	3234.62
415.41	3183.13
415.60	3199.51
415.79	3293.13
415.98	3400.80
416.17	3428.88
416.36	3248.66
416.55	3379.73
416.74	3431.23
416.93	3325.90
417.12	3566.98
417.31	3412.50
417.50	3466.33
417.69	3485.06
417.88	3606.77
418.07	3440.59
418.26	3428.88
418.45	3520.17
418.64	3658.26
418.83	3604.42
419.02	3623.15
419.21	3726.13
419.39	3730.81
419.58	3545.91
419.77	3712.09
419.96	3709.75
420.15	3857.20
420.34	3747.20
420.53	3882.95
420.72	3812.73
420.91	3894.65
421.10	3880.61
421.29	4023.38
421.48	3904.01
421.67	4088.92
421.86	4046.79
422.05	3967.21
422.24	3798.69
422.43	3878.27
422.61	3925.08
422.80	4023.38
422.99	4016.36
423.18	4138.07
423.37	4058.49
423.56	4056.15
423.75	4149.77
423.94	3852.52
424.13	3918.06
424.32	3866.56
424.50	4175.52
424.69	4084.23
424.88	4046.79
425.07	4030.40
425.26	4035.08
425.45	4058.49
425.64	4187.22
425.83	4014.02
426.01	4203.60
426.20	4119.34
426.39	4121.68
426.58	4053.81
426.77	4100.62
426.96	4053.81
427.15	4100.62
427.33	4112.32
427.52	4255.09
427.71	4292.54
427.90	4362.76
428.09	4231.69
428.28	4306.59
428.46	4348.72
428.65	4369.78
428.84	4409.57
429.03	4344.03
429.22	4166.15
429.40	4353.40
429.59	4231.69
429.78	3978.91
429.97	4028.06
430.16	4100.62
430.34	4201.26
430.53	4294.88
430.72	4255.09
430.91	4475.10
431.10	4507.87
431.28	4730.22
431.47	4835.55
431.66	4753.63
431.85	4730.22
432.03	4730.22
432.22	4734.90
432.41	4833.21
432.60	4849.59
432.79	4877.68
432.97	4961.94
433.16	4919.81
433.35	4896.40
433.54	4844.91
433.72	4821.50
433.91	4805.12
434.10	4933.85
434.28	4840.23
434.47	4975.98
434.66	5121.09
434.85	4940.87
435.03	5088.32
435.22	5137.48
435.41	5088.32
435.59	5139.82
435.78	5303.65
435.97	5296.63
436.16	5256.84
436.34	5364.51
436.53	5305.99
436.72	5408.98
436.90	5408.98
437.09	5444.09
437.28	5191.31
437.46	5149.18
437.65	5289.61
437.84	5420.68
438.02	5369.19
438.21	5390.25
438.40	5446.43
438.58	5448.77
438.77	5549.41
438.96	5472.17
439.14	5724.95
439.33	5797.51
439.52	5701.54
439.70	5776.44
439.89	5813.89
440.08	5811.55
440.26	5949.64
440.45	5928.58
440.63	6017.52
440.82	6108.80
441.01	6094.76
441.19	6141.57
441.38	6099.44
441.57	6331.15
441.75	6305.40
441.94	6548.82
442.12	6560.52
442.31	6555.84
442.50	6471.58
442.68	6415.41
442.87	6359.24
443.05	6466.90
443.24	6626.06
443.43	6651.80
443.61	6476.26
443.80	6946.71
443.98	6581.59
444.17	6356.90
444.35	6834.36
444.54	6768.83
444.73	6651.80
444.91	6775.85
445.10	6722.02
445.28	6548.82
445.47	6745.42
445.65	6595.63
445.84	6703.29
446.02	6792.23
446.21	6885.86
446.39	6796.92
446.58	6785.21
446.77	6799.26
446.95	6649.46
447.14	6942.03
447.32	6916.28
447.51	6787.55
447.69	6836.70
447.88	6979.48
448.06	6986.50
448.25	7049.69
448.43	7185.44
448.62	6740.74
448.80	6946.71
448.99	7035.65
449.17	7082.46
449.36	7075.44
449.54	7250.98
449.73	7283.75
449.91	7117.57
450.10	7218.21
450.28	7400.77
450.46	7508.44
450.65	7349.28
450.83	7414.82
451.02	7492.05
451.20	7691.00
451.39	7510.78
451.57	7456.95
451.76	7417.16
451.94	7606.74
452.13	7489.71
452.31	7344.60
452.49	7377.37
452.68	7552.91
452.86	7541.21
453.05	7581.00
453.23	7679.30
453.42	7529.50
453.60	7510.78
453.78	7719.09
453.97	7714.41
454.15	7590.36
454.34	7653.55
454.52	7756.54
454.70	7775.26
454.89	7737.81
455.07	7847.82
455.26	7861.86
455.44	7967.18
455.62	8063.15
455.81	7873.56
455.99	8039.74
456.17	8004.63
456.36	8042.08
456.54	8100.59
456.73	8273.79
456.91	8454.02
457.09	8329.97
457.28	8531.25
457.46	8184.85
457.64	8484.44
457.83	8388.48
458.01	8276.13
458.19	8634.24
458.38	8601.47
458.56	8596.79
458.74	8369.76
458.93	8512.53
459.11	8461.04
459.29	8739.56
459.48	8784.03
459.66	8575.72
459.84	8615.51
460.03	8786.37
460.21	8734.88
460.39	8826.16
460.57	8837.86
460.76	8739.56
460.94	8987.66
461.12	8947.87
461.31	8786.37
461.49	9001.70
461.67	8889.35
461.85	9139.79
462.04	9029.79
462.22	9205.33
462.40	9280.22
462.59	9207.67
462.77	9261.50
462.95	9287.25
463.13	9238.09
463.32	9128.09
463.50	9303.63
463.68	9233.41
463.86	9062.55
464.05	9280.22
464.23	9397.25
464.41	9380.87
464.59	9011.06
464.78	9612.58
464.96	9467.47
465.14	9331.72
465.32	9341.08
465.50	9514.28
465.69	9406.61
465.87	9568.11
466.05	9554.07
466.23	9441.72
466.41	9713.22
466.60	9870.04
466.78	9533.00
466.96	9432.36
467.14	9628.96
467.32	9734.29
467.51	9628.96
467.69	9448.74
467.87	9668.75
468.05	9715.56
468.23	9743.65
468.41	9685.14
468.60	9951.96
468.78	9778.76
468.96	9767.06
469.14	9991.75
469.32	9982.38
469.50	9715.56
469.69	9982.38
469.87	9788.12
470.05	10127.50
470.23	9975.36
470.41	10054.94
470.59	10012.81
470.77	10031.54
470.95	10090.05
471.14	10490.28
471.32	10286.65
471.50	10438.79
471.68	10579.22
471.86	10602.63
472.04	10775.83
472.22	10883.49
472.40	10394.32
472.58	10499.64
472.77	10817.96
472.95	10712.63
473.13	11147.97
473.31	11009.88
473.49	10724.33
473.67	10909.24
473.85	11005.20
474.03	11290.74
474.21	11412.45
474.39	11424.15
474.57	11384.37
474.75	11222.87
474.93	11681.61
475.12	11531.82
475.30	11630.12
475.48	11800.98
475.66	11424.15
475.84	11477.99
476.02	11859.49
476.20	11686.29
476.38	11899.28
476.56	12276.11
476.74	12365.05
476.92	12470.37
477.10	12107.59
477.28	12383.77
477.46	12500.80
477.64	12793.37
477.82	12741.88
478.00	12856.56
478.18	12596.76
478.36	12816.77
478.54	12870.61
478.72	12894.01
478.90	13322.33
479.08	13474.46
479.26	13394.89
479.44	13432.33
479.62	13532.98
479.80	13694.47
479.98	13767.03
480.16	14052.58
480.34	13865.33
480.52	14001.08
480.70	14141.52
480.88	13944.91
481.06	14270.25
481.24	14677.50
481.41	14747.72
481.59	14834.32
481.77	14752.40
481.95	14792.19
482.13	14995.81
482.31	14956.02
482.49	15370.30
482.67	15208.80
482.85	15611.37
483.03	15639.46
483.21	15398.38
483.39	15943.73
483.57	15896.92
483.74	15740.10
483.92	15917.98
484.10	16030.33
484.28	16168.42
484.46	16617.80
484.64	16926.75
484.82	16521.84
485.00	16615.46
485.18	16968.88
485.35	16805.05
485.53	16578.01
485.71	16601.42
485.89	16884.62
486.07	16821.43
486.25	17013.35
486.43	17303.58
486.61	17460.40
486.78	17638.28
486.96	17806.80
487.14	18057.23
487.32	17994.04
487.50	18422.36
487.68	18787.48
487.85	18857.70
488.03	18874.08
488.21	19112.81
488.39	19082.39
488.57	19178.35
488.75	19239.20
488.92	19461.55
489.10	19920.30
489.28	19873.49
489.46	20152.01
489.64	20362.66
489.81	20589.69
489.99	20613.10
490.17	20547.56
490.35	21039.08
490.53	20877.58
490.70	21097.59
490.88	21064.82
491.06	21245.04
491.24	21223.98
491.41	21596.12
491.59	21247.38
491.77	21233.34
491.95	21467.39
492.13	21940.18
492.30	22380.20
492.48	22611.92
492.66	22565.10
492.84	22183.60
493.01	22904.48
493.19	22696.17
493.37	22902.14
493.54	22850.65
493.72	23293.01
493.90	23140.88
494.08	23728.35
494.25	23899.21
494.43	23679.20
494.61	24095.82
494.79	24070.07
494.96	24395.40
495.14	23948.36
495.32	24610.73
495.49	24266.67
495.67	24346.25
495.85	24800.32
496.02	24903.30
496.20	24903.30
496.38	25200.55
496.55	25455.67
496.73	25371.41
496.91	25507.16
497.09	25879.30
497.26	25893.35
497.44	25809.09
497.62	25799.73
497.79	26026.76
497.97	25893.35
498.14	25799.73
498.32	26064.21
498.50	26162.51
498.67	26621.25
498.85	26525.29
499.03	27131.49
499.20	26888.07
499.38	26948.93
499.56	27080.00
499.73	26967.65
499.91	27330.44
500.08	26962.97
500.26	26960.63
500.44	27295.33
500.61	27501.29
500.79	27442.78
500.97	27445.12
501.14	27688.54
501.32	27632.36
501.49	27737.69
501.67	27515.34
501.84	28114.52
502.02	28327.50
502.20	28376.66
502.37	28645.82
502.55	28257.29
502.72	28982.85
502.90	28807.31
503.07	28627.09
503.25	28929.02
503.43	28912.64
503.60	28510.07
503.78	28826.04
503.95	28903.28
504.13	29509.47
504.30	29462.66
504.48	29591.39
504.65	29404.15
504.83	29834.81
505.01	30068.86
505.18	29876.94
505.36	30169.51
505.53	30232.70
505.71	30431.65
505.88	30335.68
506.06	29832.47
506.23	30501.86
506.41	30445.69
506.58	30625.91
506.76	30642.29
506.93	30771.02
507.11	30719.53
507.28	30724.21
507.46	30785.07
507.63	30799.11
507.81	31007.42
507.98	30991.03
508.16	31236.79
508.33	31140.83
508.50	31330.41
508.68	31576.17
508.85	31763.41
509.03	31782.13
509.20	31791.50
509.38	32009.17
509.55	31840.65
509.73	32158.96
509.90	31955.33
510.08	32041.93
510.25	32313.44
510.42	32273.65
510.60	32268.97
510.77	32844.74
510.95	32807.29
511.12	32900.91
511.30	32615.37
511.47	32961.76
511.64	33378.38
511.82	33071.77
511.99	33177.09
512.17	33214.54
512.34	32620.05
512.51	33696.69
512.69	33291.78
512.86	33692.01
513.04	33565.62
513.21	33727.12
513.38	33584.35
513.56	33640.52
513.73	33617.11
513.90	33715.42
514.08	33406.47
514.25	34185.86
514.43	34312.25
514.60	34218.63
514.77	33818.40
514.95	34714.83
515.12	34646.95
515.29	34670.36
515.47	34876.32
515.64	34831.85
515.81	34560.35
515.99	34696.10
516.16	34298.21
516.33	34174.16
516.51	34707.80
516.68	34125.01
516.85	33989.26
517.03	34333.32
517.20	34705.46
517.37	35512.95
517.54	35374.86
517.72	35161.87
517.89	34672.70
518.06	34885.68
518.24	34850.58
518.41	35068.25
518.58	35239.11
518.75	35290.60
518.93	35859.35
519.10	35744.66
519.27	35386.56
519.45	36020.84
519.62	36456.18
519.79	36435.12
519.96	36208.09
520.14	36306.39
520.31	36147.23
520.48	36126.17
520.65	36542.78
520.83	36177.66
521.00	37022.59
521.17	36877.48
521.34	36245.54
521.52	36851.73
521.69	37008.55
521.86	37418.14
522.03	37483.68
522.20	37216.86
522.38	37001.53
522.55	37317.50
522.72	37008.55
522.89	37151.32
523.07	37834.76
523.24	37134.94
523.41	37736.46
523.58	37750.50
523.75	37956.47
523.92	37909.66
524.10	37780.93
524.27	38045.41
524.44	38143.71
524.61	38260.74
524.78	38443.30
524.96	38522.88
525.13	38359.04
525.30	38625.86
525.47	38724.16
525.64	38284.14
525.81	38817.78
525.98	38234.99
526.16	38223.29
526.33	38307.55
526.50	38153.07
526.67	37773.91
526.84	38375.42
527.01	38216.27
527.18	38754.59
527.36	39091.63
527.53	39264.83
527.70	39433.35
527.87	39058.86
528.04	39414.62
528.21	39676.76
528.38	39246.10
528.55	39730.59
528.72	39793.79
528.89	39920.18
529.07	39571.44
529.24	39924.86
529.41	39463.77
529.58	39744.64
529.75	39873.37
529.92	39908.47
530.09	39519.95
530.26	39606.55
530.43	39761.02
530.60	40020.82
530.77	40095.72
530.94	40699.58
531.11	40343.81
531.28	40416.37
531.46	40725.32
531.63	40601.27
531.80	40428.07
531.97	40502.97
532.14	40474.88
532.31	40189.34
532.48	40172.96
532.65	40383.60
532.82	40488.93
532.99	40465.52
533.16	40402.33
533.33	41153.64
533.50	40994.48
533.67	41258.96
533.84	40858.73
534.01	40793.20
534.18	41401.74
534.35	41450.89
534.52	40879.80
534.69	41429.82
534.86	41373.65
535.03	41060.02
535.20	41717.71
535.37	41586.64
535.54	42197.52
535.71	41607.70
535.88	41734.09
536.05	41134.92
536.22	41617.07
536.38	41464.93
536.55	41495.36
536.72	41357.27
536.89	41483.66
537.06	41680.26
537.23	42050.06
537.40	42120.28
537.57	41698.98
537.74	42061.77
537.91	42092.19
538.08	42436.25
538.25	41642.81
538.42	42153.05
538.59	42155.39
538.75	41897.93
538.92	41954.10
539.09	42270.08
539.26	42471.36
539.43	42335.61
539.60	42241.99
539.77	41858.14
539.94	42078.15
540.11	42209.22
540.28	42337.95
540.44	42190.50
540.61	42117.94
540.78	42204.54
540.95	42347.31
541.12	42712.44
541.29	42927.77
541.46	42710.10
541.62	42632.86
541.79	42588.39
541.96	42679.67
542.13	42604.77
542.30	42808.40
542.47	42827.12
542.63	42887.98
542.80	43037.77
542.97	43529.28
543.14	43648.65
543.31	43573.75
543.48	43749.29
543.64	44102.71
543.81	44116.76
543.98	43597.16
544.15	43934.20
544.32	43550.35
544.48	44598.91
544.65	43854.62
544.82	43695.46
544.99	43421.62
545.16	43805.47
545.32	43737.59
545.49	44371.88
545.66	44280.60
545.83	44552.10
546.00	44034.84
546.16	44025.48
546.33	44098.03
546.50	44140.16
546.67	44322.72
546.83	43931.86
547.00	43583.12
547.17	44224.42
547.34	44044.20
547.50	44421.03
547.67	44177.61
547.84	44589.55
548.00	44540.39
548.17	44399.96
548.34	44596.57
548.51	44896.16
548.67	44437.41
548.84	44875.09
549.01	44362.51
549.18	44615.29
549.34	44605.93
549.51	45137.23
549.68	44636.36
549.84	44641.04
550.01	44947.65
550.18	44828.28
550.34	44978.07
550.51	44935.95
550.68	44905.52
550.84	44868.07
551.01	44811.90
551.18	44755.72
551.34	45198.09
551.51	44797.85
551.68	45155.96
551.84	45254.26
552.01	45067.02
552.18	44875.09
552.34	45078.72
552.51	45181.70
552.68	45134.89
552.84	45418.10
553.01	45366.60
553.18	45064.67
553.34	45017.86
553.51	45272.98
553.67	45095.10
553.84	45446.18
554.01	45862.80
554.17	45698.96
554.34	45439.16
554.51	45572.57
554.67	45858.12
554.84	45516.40
555.00	45488.31
555.17	45539.80
555.33	45673.21
555.50	45172.34
555.67	45244.90
555.83	45462.57
556.00	45769.18
556.16	46085.15
556.33	45462.57
556.50	44938.29
556.66	45696.62
556.83	45635.77
556.99	46007.91
557.16	45804.28
557.32	46012.59
557.49	46150.68
557.65	45780.88
557.82	46120.26
557.98	45624.06
558.15	45848.75
558.32	45738.75
558.48	45780.88
558.65	45497.67
558.81	45610.02
558.98	45670.87
559.14	45792.58
559.31	45326.81
559.47	46129.62
559.64	46061.74
559.80	46073.45
559.97	46237.28
560.13	45518.74
560.30	45628.74
560.46	46038.34
560.63	46019.61
560.79	46234.94
560.96	46864.55
561.12	46272.39
561.29	46307.50
561.45	45993.87
561.61	46101.53
561.78	46040.68
561.94	45907.27
562.11	46080.47
562.27	46183.45
562.44	46635.17
562.60	46700.71
562.77	46274.73
562.93	46398.78
563.10	46642.20
563.26	46136.64
563.42	46075.79
563.59	45996.21
563.75	46511.13
563.92	46562.62
564.08	46445.59
564.24	46677.30
564.41	46539.21
564.57	46653.90
564.74	45916.63
564.90	46354.31
565.07	46459.63
565.23	46335.59
565.39	46241.96
565.56	46227.92
565.72	46281.75
565.88	46213.88
566.05	46265.37
566.21	46401.12
566.38	46518.15
566.54	46726.46
566.70	46293.46
566.87	46869.23
567.03	46607.09
567.19	47133.71
567.36	46824.76
567.52	46450.27
567.68	46642.20
567.85	46630.49
568.01	46705.39
568.17	46593.04
568.34	46623.47
568.50	46789.65
568.66	46483.04
568.83	46354.31
568.99	46157.70
569.15	46380.06
569.32	46515.81
569.48	46220.90
569.64	46850.50
569.81	46527.51
569.97	46258.35
570.13	46731.14
570.30	46204.52
570.46	46501.76
570.62	46040.68
570.78	46731.14
570.95	46782.63
571.11	46429.21
571.27	46461.97
571.43	46469.00
571.60	46508.79
571.76	46417.50
571.92	46389.42
572.09	46597.73
572.25	46941.78
572.41	46670.28
572.57	47044.77
572.74	46829.44
572.90	46644.54
573.06	46731.14
573.22	46691.35
573.38	46686.67
573.55	46576.66
573.71	46691.35
573.87	46815.40
574.03	46581.34
574.20	46738.16
574.36	46939.44
574.52	46902.00
574.68	46721.77
574.84	46586.02
575.01	46616.45
575.17	46703.05
575.33	46660.92
575.49	46927.74
575.65	46735.82
575.82	46663.26
575.98	46649.22
576.14	47288.18
576.30	46841.14
576.46	46719.43
576.62	46576.66
576.79	46988.60
576.95	46185.79
577.11	46707.73
577.27	46974.55
577.43	47007.32
577.59	46469.00
577.75	46595.38
577.92	46340.27
578.08	46866.89
578.24	46581.34
578.40	46681.98
578.56	46759.22
578.72	46827.10
578.88	46958.17
579.04	47304.57
579.21	46457.29
579.37	46876.25
579.53	46899.65
579.69	46445.59
579.85	46550.91
580.01	47124.35
580.17	46480.70
580.33	47098.60
580.49	46728.80
580.65	46880.93
580.82	47091.58
580.98	46803.69
581.14	46564.96
581.30	47365.42
581.46	47192.22
581.62	46997.96
581.78	46658.58
581.94	47248.39
582.10	46946.47
582.26	47189.88
582.42	46817.74
582.58	46997.96
582.74	47084.56
582.90	47477.77
583.06	47033.07
583.22	47342.02
583.38	47206.26
583.54	47526.92
583.70	46948.81
583.86	47100.94
584.02	47033.07
584.18	46955.83
584.34	46618.79
584.50	46600.07
584.66	46948.81
584.82	46740.50
584.98	47407.55
585.14	47072.85
585.30	46869.23
585.46	46801.35
585.62	46749.86
585.78	47175.84
585.94	46279.41
586.10	47042.43
586.26	47016.68
586.42	47012.00
586.58	46941.78
586.74	47147.75
586.90	46934.76
587.06	46871.57
587.22	47243.71
587.38	46855.18
587.54	46859.87
587.70	47136.05
587.86	46941.78
588.02	46845.82
588.18	47217.97
588.34	47171.16
588.49	46436.23
588.65	46061.74
588.81	46197.49
588.97	46960.51
589.13	46040.68
589.29	46211.54
589.45	46405.80
589.61	47093.92
589.77	47381.80
589.93	47091.58
590.08	47100.94
590.24	47145.41
590.40	47009.66
590.56	47400.53
590.72	47203.92
590.88	46756.88
591.04	47297.55
591.20	47650.97
591.35	47023.70
591.51	47192.22
591.67	47119.66
591.83	47136.05
591.99	46646.88
592.15	47201.58
592.31	46930.08
592.46	46829.44
592.62	47007.32
592.78	47334.99
592.94	47400.53
593.10	46885.61
593.26	46822.42
593.41	47072.85
593.57	46972.21
593.73	46852.84
593.89	46918.38
594.05	46834.12
594.20	47199.24
594.36	47358.40
594.52	46993.28
594.68	46728.80
594.84	46932.42
594.99	47215.63
595.15	46869.23
595.31	47079.88
595.47	46726.46
595.62	47061.15
595.78	46660.92
595.94	47271.80
596.10	47192.22
596.25	47693.10
596.41	47381.80
596.57	47702.46
596.73	47171.16
596.88	46834.12
597.04	47384.15
597.20	47105.62
597.36	47098.60
597.51	47381.80
597.67	47611.18
597.83	47473.09
597.99	47037.75
598.14	46976.89
598.30	47318.61
598.46	46883.27
598.61	47180.52
598.77	46834.12
598.93	46328.56
599.09	46803.69
599.24	47470.75
599.40	47250.74
599.56	47299.89
599.71	47498.83
599.87	47107.96
600.03	46806.03
600.18	47157.11
600.34	47327.97
600.50	47124.35
600.65	47138.39
600.81	47220.31
600.97	47086.90
601.12	47409.89
601.28	47330.31
601.44	47061.15
601.59	47077.54
601.75	47180.52
601.91	46733.48
602.06	47014.34
602.22	46920.72
602.37	47140.73
602.53	46707.73
602.69	47232.01
602.84	47065.83
603.00	46644.54
603.16	47004.98
603.31	46955.83
603.47	47639.26
603.62	46838.80
603.78	47007.32
603.94	47281.16
604.09	47320.95
604.25	47351.38
604.40	47194.56
604.56	46993.28
604.71	47047.11
604.87	46782.63
605.03	46852.84
605.18	46726.46
605.34	46862.21
605.49	46906.68
605.65	47114.98
605.80	46464.32
605.96	47012.00
606.12	46953.49
606.27	47241.37
606.43	47016.68
606.58	46913.70
606.74	46735.82
606.89	46672.62
607.05	47021.36
607.20	46930.08
607.36	47007.32
607.51	46815.40
607.67	47260.10
607.82	46274.73
607.98	46635.17
608.13	46419.84
608.29	46862.21
608.44	46726.46
608.60	46415.16
608.75	46113.23
608.91	46686.67
609.06	46380.06
609.22	46667.94
609.37	46576.66
609.53	46735.82
609.68	46600.07
609.84	46380.06
609.99	46529.85
610.15	46478.36
610.30	46593.04
610.46	46192.81
610.61	46302.82
610.76	46557.94
610.92	46408.14
611.07	46422.19
611.23	46036.00
611.38	46190.47
611.54	46024.29
611.69	46293.46
611.84	46429.21
612.00	46089.83
612.15	46113.23
612.31	45783.22
612.46	46054.72
612.62	45968.12
612.77	46356.65
612.92	46450.27
613.08	46321.54
613.23	45998.55
613.39	46256.01
613.54	45787.90
613.69	45923.65
613.85	46066.42
614.00	45647.47
614.15	46040.68
614.31	46134.30
614.46	46174.09
614.62	45961.10
614.77	45640.45
614.92	46078.13
615.08	46120.26
615.23	45689.60
615.38	46012.59
615.54	45411.07
615.69	45642.79
615.84	45062.33
616.00	45769.18
616.15	45265.96
616.30	45834.71
616.46	45514.06
616.61	45401.71
616.76	45418.10
616.92	45282.34
617.07	45043.61
617.22	45535.12
617.37	45427.46
617.53	45343.20
617.68	45324.47
617.83	45879.18
617.99	45698.96
618.14	45635.77
618.29	45322.13
618.45	45588.95
618.60	45158.30
618.75	45139.57
618.90	45106.80
619.06	45045.95
619.21	45258.94
619.36	45207.45
619.51	44975.73
619.67	44926.58
619.82	45488.31
619.97	45713.00
620.12	45031.91
620.28	44821.26
620.43	45258.94
620.58	45022.54
620.73	44886.79
620.89	44886.79
621.04	45172.34
621.19	44842.32
621.34	44952.33
621.49	44697.21
621.65	44161.23
621.80	44610.61
621.95	44240.81
622.10	44830.62
622.25	44570.82
622.41	44322.72
622.56	44680.83
622.71	44825.94
622.86	44802.53
623.01	44573.16
623.16	44020.80
623.32	44465.50
623.47	44531.03
623.62	44484.22
623.77	44659.76
623.92	44409.32
624.07	44554.44
624.23	44179.95
624.38	44306.34
624.53	44385.92
624.68	43761.00
624.83	44140.16
624.98	44198.68
625.13	43550.35
625.29	43756.32
625.44	43978.67
625.59	44308.68
625.74	44041.86
625.89	43349.06
626.04	43421.62
626.19	43873.34
626.34	43847.60
626.49	43784.40
626.65	43971.64
626.80	44067.61
626.95	43927.17
627.10	43372.47
627.25	43952.92
627.40	43349.06
627.55	43159.48
627.70	43484.81
627.85	42948.83
628.00	43330.34
628.15	43283.53
628.30	42913.72
628.45	43695.46
628.60	43622.90
628.76	43267.14
628.91	43278.85
629.06	43643.97
629.21	42969.90
629.36	42808.40
629.51	43056.50
629.66	42948.83
629.81	42749.88
629.96	43194.59
630.11	42852.87
630.26	43297.57
630.41	43665.03
630.56	43220.33
630.71	43107.99
630.86	42820.10
631.01	42492.43
631.16	42602.43
631.31	42682.01
631.46	42820.10
631.61	42527.53
631.76	43117.35
631.91	42667.97
632.06	43028.41
632.21	43185.22
632.36	43019.05
632.51	42401.14
632.66	42440.93
632.81	42029.00
632.96	42490.09
633.10	42784.99
633.25	42218.58
633.40	42550.94
633.55	42658.60
633.70	42096.88
633.85	42321.57
634.00	42373.06
634.15	42078.15
634.30	42167.09
634.45	42422.21
634.60	42106.24
634.75	42281.78
634.90	42192.84
635.05	42164.75
635.19	42007.94
635.34	42202.20
635.49	42190.50
635.64	42073.47
635.79	41975.17
635.94	42169.43
636.09	41757.50
636.24	41823.03
636.39	41888.57
636.53	41853.46
636.68	42066.45
636.83	41673.24
636.98	42007.94
637.13	41581.96
637.28	41340.88
637.43	41865.16
637.57	42110.92
637.72	41834.74
637.87	41427.48
638.02	41710.69
638.17	41968.15
638.32	41626.43
638.46	41549.19
638.61	41825.37
638.76	41666.22
638.91	41893.25
639.06	41659.20
639.20	41710.69
639.35	42192.84
639.50	41778.56
639.65	41521.10
639.80	41521.10
639.94	41104.49
640.09	41205.13
640.24	40830.65
640.39	40966.40
640.54	40992.14
640.68	41102.15
640.83	40655.11
640.98	41067.04
641.13	40847.03
641.27	41436.84
641.42	40877.46
641.57	40945.33
641.72	41172.36
641.86	40730.00
642.01	40407.01
642.16	40605.95
642.31	40456.16
642.45	41223.86
642.60	40512.33
642.75	40636.38
642.90	40804.90
643.04	40877.46
643.19	40685.53
643.34	40528.72
643.48	40259.55
643.63	40608.29
643.78	40275.94
643.93	40627.02
644.07	40187.00
644.22	40353.18
644.37	39990.39
644.51	40168.27
644.66	40421.05
644.81	40577.87
644.95	40177.64
645.10	40718.30
645.25	40428.07
645.39	40203.38
645.54	40339.13
645.69	40201.04
645.83	40280.62
645.98	40098.06
646.13	40203.38
646.27	40474.88
646.42	40257.21
646.57	40212.74
646.71	40151.89
646.86	40311.05
647.00	40622.34
647.15	39739.96
647.30	40079.33
647.44	39742.30
647.59	40259.55
647.74	39765.70
647.88	39604.20
648.03	40126.14
648.17	40292.32
648.32	39793.79
648.47	39966.99
648.61	39105.67
648.76	39709.53
648.90	39803.15
649.05	39688.46
649.20	39653.36
649.34	39494.20
649.49	39196.95
649.63	39339.72
649.78	39583.14
649.92	39309.30
650.07	39505.90
650.21	38988.64
650.36	39571.44
650.51	39585.48
650.65	39943.58
650.80	39985.71
650.94	39328.02
651.09	39683.78
651.23	39398.24
651.38	39463.77
651.52	38995.67
651.67	39255.46
651.81	38911.41
651.96	38850.55
652.10	38572.03
652.25	38770.97
652.39	39229.72
652.54	39140.78
652.68	39449.73
652.83	39086.95
652.97	39178.23
653.12	38700.76
653.26	39012.05
653.41	38864.60
653.55	38370.74
653.70	38778.00
653.84	39079.92
653.99	39098.65
654.13	38398.83
654.27	38644.59
654.42	38543.94
654.56	38513.52
654.71	38607.14
654.85	39126.74
655.00	38529.90
655.14	38607.14
655.29	37673.26
655.43	37757.52
655.57	38232.65
655.72	37818.38
655.86	37471.98
656.01	37668.58
656.15	37944.76
656.30	37633.47
656.44	38471.39
656.58	37984.55
656.73	37970.51
656.87	37586.66
657.01	37972.85
657.16	38192.86
657.30	37598.37
657.45	37942.42
657.59	37710.71
657.73	37787.95
657.88	38298.19
658.02	38249.03
658.16	38220.95
658.31	38047.75
658.45	37904.98
658.60	38237.33
658.74	37659.22
658.88	37858.17
659.03	37537.51
659.17	37406.44
659.31	37315.16
659.46	37411.12
659.60	37581.98
659.74	37214.52
659.89	37141.96
660.03	36999.19
660.17	37420.48
660.32	37427.51
660.46	37338.57
660.60	37106.85
660.74	37053.02
660.89	37443.89
661.03	36713.64
661.17	36762.79
661.32	36760.45
661.46	36559.17
661.60	36762.79
661.74	36444.48
661.89	36992.17
662.03	36783.86
662.17	36208.09
662.31	36657.47
662.46	36636.41
662.60	36627.04
662.74	36861.10
662.88	36437.46
663.03	35786.79
663.17	36275.96
663.31	36278.30
663.45	35995.10
663.60	36105.10
663.74	36357.88
663.88	35796.15
664.02	35917.86
664.17	36067.66
664.31	35749.34
664.45	35779.77
664.59	36198.73
664.73	35882.75
664.88	35688.49
665.02	35531.67
665.16	35655.72
665.30	35667.42
665.44	35793.81
665.59	35587.85
665.73	35431.03
665.87	35117.40
666.01	35395.92
666.15	35297.62
666.29	35124.42
666.44	35147.82
666.58	35112.72
666.72	35166.55
666.86	35260.17
667.00	34925.47
667.14	34911.43
667.28	34754.61
667.43	34567.37
667.57	34888.03
667.71	34462.05
667.85	34878.66
667.99	34457.37
668.13	34642.27
668.27	34604.82
668.41	34810.79
668.56	34204.59
668.70	34515.88
668.84	34527.58
668.98	33991.60
669.12	33591.37
669.26	34003.30
669.40	33858.19
669.54	33977.56
669.68	33832.44
669.82	33706.05
669.96	33235.61
670.10	33474.34
670.25	34129.69
670.39	33631.16
670.53	33661.58
670.67	33132.62
670.81	33926.07
670.95	32987.51
671.09	32865.80
671.23	33502.43
671.37	33397.10
671.51	33364.34
671.65	33198.16
671.79	32760.48
671.93	32704.31
672.07	33436.89
672.21	33062.41
672.35	33006.23
672.49	32893.89
672.63	32929.00
672.77	32556.85
672.91	32776.86
673.05	32594.30
673.19	32369.61
673.33	32322.80
673.47	32261.94
673.61	32191.73
673.75	31901.50
673.89	31707.24
674.03	31662.77
674.17	31957.67
674.31	31903.84
674.45	31393.61
674.59	31779.79
674.73	31915.54
674.87	32081.72
675.01	31899.16
675.15	31655.75
675.29	31459.14
675.43	31531.70
675.56	31166.57
675.70	31143.17
675.84	30698.47
675.98	30059.50
676.12	31281.26
676.26	31019.12
676.40	30623.57
676.54	31049.55
676.68	30838.90
676.82	30101.63
676.96	30635.27
677.10	30134.40
677.23	30429.30
677.37	30073.54
677.51	30043.12
677.65	29680.33
677.79	29563.31
677.93	29752.89
678.07	29457.98
678.21	29436.92
678.34	29425.22
678.48	29373.72
678.62	28994.56
678.76	28732.42
678.90	28774.55
679.04	28655.18
679.18	29085.84
679.31	28830.72
679.45	28975.83
679.59	28332.18
679.73	28664.54
679.87	28418.78
680.00	28268.99
680.14	28168.35
680.28	28187.07
680.42	28261.97
680.56	28283.03
680.70	27798.54
680.83	28088.77
680.97	27754.07
681.11	27585.55
681.25	27592.58
681.39	27807.90
681.52	27714.28
681.66	27358.52
681.80	27152.55
681.94	27316.39
682.07	27236.81
682.21	27136.17
682.35	26785.09
682.49	27122.13
682.62	27206.39
682.76	26644.66
682.90	26981.70
683.04	26656.36
683.17	26272.51
683.31	26169.53
683.45	26089.95
683.59	26169.53
683.72	26010.37
683.86	25923.77
684.00	25755.26
684.13	26003.35
684.27	25778.66
684.41	25493.12
684.55	25605.46
684.68	25558.65
684.82	25523.54
684.96	25528.22
685.09	25329.28
685.23	25149.06
685.37	25022.67
685.50	24933.73
685.64	24959.47
685.78	25027.35
685.91	24629.46
686.05	24790.95
686.19	24367.32
686.32	24283.06
686.46	23927.30
686.60	23616.01
686.73	23681.54
686.87	23906.23
687.01	23730.69
687.14	23475.57
687.28	23400.68
687.42	23681.54
687.55	23225.14
687.69	23253.22
687.82	23330.46
687.96	23283.65
688.10	23236.84
688.23	22728.94
688.37	22600.21
688.50	22869.37
688.64	23124.49
688.78	22986.40
688.91	22792.14
689.05	22705.54
689.18	22455.10
689.32	22614.26
689.46	22291.26
689.59	22579.15
689.73	22345.09
689.86	22185.94
690.00	21919.12
690.13	21970.61
690.27	22031.46
690.41	22012.74
690.54	21778.68
690.68	21425.26
690.81	21441.65
690.95	21174.83
691.08	21575.06
691.22	21521.23
691.35	21284.83
691.49	21345.69
691.62	21326.96
691.76	21076.52
691.89	20772.25
692.03	20971.20
692.16	20795.66
692.30	20500.75
692.43	20655.23
692.57	20339.26
692.70	20570.97
692.84	20596.71
692.97	20217.55
693.11	20119.24
693.24	20217.55
693.38	20348.62
693.51	19885.19
693.65	19868.81
693.78	19997.54
693.92	19868.81
694.05	19714.33
694.19	19599.65
694.32	19707.31
694.45	19417.08
694.59	19398.36
694.72	19374.95
694.86	19243.88
694.99	19171.33
695.13	19103.45
695.26	18984.09
695.39	18960.68
695.53	18670.45
695.66	18918.55
695.80	18752.37
695.93	18656.41
696.07	18654.07
696.20	18476.19
696.33	18630.66
696.47	18405.97
696.60	18155.54
696.73	18202.35
696.87	18375.55
697.00	18012.76
697.14	18164.90
697.27	17991.70
697.40	18113.41
697.54	17940.21
697.67	17628.92
697.80	17579.76
697.94	17411.25
698.07	17352.73
698.21	17181.87
698.34	17207.62
698.47	17114.00
698.61	17125.70
698.74	16643.55
698.87	16814.41
699.01	16737.17
699.14	16292.47
699.27	16561.63
699.40	16608.44
699.54	16688.02
699.67	16425.88
699.80	16578.01
699.94	16306.51
700.07	16395.45
700.20	16365.03
700.34	16233.96
700.47	16212.89
700.60	16070.12
700.73	16334.60
700.87	16067.78
701.00	15660.52
701.13	15779.89
701.26	15751.81
701.40	15576.27
701.53	15765.85
701.66	15421.79
701.79	15356.25
701.93	15466.26
702.06	15541.16
702.19	15105.82
702.32	15096.46
702.46	14675.16
702.59	15033.26
702.72	15040.28
702.85	14998.15
702.99	15000.49
703.12	14963.04
703.25	14672.82
703.38	14541.75
703.51	14558.13
703.65	14459.83
703.78	14347.48
703.91	14487.92
704.04	14319.40
704.17	14427.06
704.31	14237.48
704.44	14118.11
704.57	14195.35
704.70	13902.78
704.83	13860.65
704.96	13823.20
705.10	13954.27
705.23	13790.44
>>>>>End Processed Spectral Data<<<<<
