SpectraSuite Data File
++++++++++++++++++++++++++++++++++++
Date: Fri Oct 25 10:44:17 EDT 2013
User: price-jones
Dark Spectrum Present: No
Reference Spectrum Present: No
Number of Sampled Component Spectra: 1
Spectrometers: USB2+H05261
Integration Time (usec): 100000 (USB2+H05261)
Spectra Averaged: 1 (USB2+H05261)
Boxcar Smoothing: 0 (USB2+H05261)
Correct for Electrical Dark: No (USB2+H05261)
Strobe/Lamp Enabled: No (USB2+H05261)
Correct for Detector Non-linearity: No (USB2+H05261)
Correct for Stray Light: No (USB2+H05261)
Number of Pixels in Processed Spectrum: 2048
>>>>>Begin Processed Spectral Data<<<<<
365.73	163.84
365.92	163.84
366.12	163.84
366.32	65.54
366.52	23.41
366.72	44.47
366.91	0.00
367.11	58.51
367.31	30.43
367.51	16.38
367.70	16.38
367.90	44.47
368.10	67.88
368.30	0.00
368.49	0.00
368.69	86.60
368.89	25.75
369.09	11.70
369.28	42.13
369.48	42.13
369.68	60.85
369.87	140.43
370.07	126.39
370.27	180.22
370.47	163.84
370.66	407.25
370.86	433.00
371.06	482.15
371.25	482.15
371.45	369.80
371.65	435.34
371.84	507.90
372.04	475.13
372.24	447.04
372.44	470.45
372.63	533.64
372.83	491.51
373.03	547.69
373.22	521.94
373.42	489.17
373.62	596.84
373.81	587.47
374.01	552.37
374.21	617.90
374.40	550.03
374.60	608.54
374.79	533.64
374.99	629.60
375.19	594.50
375.38	622.58
375.58	664.71
375.78	585.13
375.97	648.33
376.17	678.76
376.37	578.11
376.56	543.00
376.76	641.31
376.95	547.69
377.15	641.31
377.35	657.69
377.54	727.91
377.74	606.20
377.93	627.26
378.13	599.18
378.33	620.24
378.52	685.78
378.72	669.39
378.91	678.76
379.11	557.05
379.31	638.97
379.50	601.52
379.70	683.44
379.89	702.16
380.09	678.76
380.28	667.05
380.48	676.41
380.68	751.31
380.87	774.72
381.07	653.01
381.26	711.52
381.46	674.07
381.65	746.63
381.85	706.84
382.04	685.78
382.24	784.08
382.43	617.90
382.63	767.70
382.83	748.97
383.02	734.93
383.22	706.84
383.41	767.70
383.61	727.91
383.80	837.91
384.00	751.31
384.19	823.87
384.39	809.83
384.58	835.57
384.78	802.80
384.97	819.19
385.17	741.95
385.36	748.97
385.56	840.25
385.75	732.59
385.95	819.19
386.14	835.57
386.34	798.12
386.53	851.96
386.72	861.32
386.92	830.89
387.11	887.06
387.31	933.87
387.50	882.38
387.70	889.40
387.89	940.90
388.09	802.80
388.28	917.49
388.48	931.53
388.67	873.02
388.86	954.94
389.06	1011.11
389.25	987.71
389.45	943.24
389.64	961.96
389.84	945.58
390.03	1029.84
390.22	1022.81
390.42	1001.75
390.61	1057.92
390.81	954.94
391.00	1128.14
391.19	1109.41
391.39	1025.15
391.58	1064.94
391.78	1008.77
391.97	1081.33
392.16	1074.31
392.36	1118.78
392.55	1008.77
392.75	959.62
392.94	1004.09
393.13	929.19
393.33	1048.56
393.52	1067.28
393.71	1116.44
393.91	1057.92
394.10	1095.37
394.29	1013.45
394.49	1137.50
394.68	1217.08
394.88	1240.48
395.07	1289.64
395.26	1301.34
395.46	1289.64
395.65	1254.53
395.84	1266.23
396.04	1291.98
396.23	1203.04
396.42	1233.46
396.62	1151.54
396.81	1177.29
397.00	1226.44
397.19	1231.12
397.39	1284.95
397.58	1383.26
397.77	1338.79
397.97	1380.92
398.16	1369.21
398.35	1401.98
398.55	1390.28
398.74	1483.90
398.93	1481.56
399.12	1462.83
399.32	1425.39
399.51	1476.88
399.70	1626.67
399.90	1544.75
400.09	1603.27
400.28	1614.97
400.47	1671.14
400.67	1617.31
400.86	1636.03
401.05	1631.35
401.24	1645.40
401.44	1708.59
401.63	1640.72
401.82	1799.87
402.01	1720.29
402.21	1659.44
402.40	1713.27
402.59	1743.70
402.78	1694.55
402.97	1687.53
403.17	1774.13
403.36	1757.74
403.55	1816.26
403.74	1914.56
403.93	1863.07
404.13	1888.81
404.32	1834.98
404.51	1844.34
404.70	1909.88
404.89	1872.43
405.09	1961.37
405.28	1954.35
405.47	2031.58
405.66	1994.14
405.85	1963.71
406.05	1879.45
406.24	2085.42
406.43	1966.05
406.62	2073.71
406.81	2155.63
407.00	2122.87
407.20	2064.35
407.39	2059.67
407.58	2181.38
407.77	2183.72
407.96	2160.31
408.15	2223.51
408.34	2148.61
408.54	2312.45
408.73	2300.75
408.92	2289.04
409.11	2310.11
409.30	2272.66
409.49	2209.47
409.68	2303.09
409.87	2272.66
410.07	2427.14
410.26	2417.77
410.45	2464.58
410.64	2436.50
410.83	2539.48
411.02	2523.10
411.21	2544.16
411.40	2525.44
411.59	2616.72
411.78	2670.55
411.98	2642.46
412.17	2686.94
412.36	2651.83
412.55	2750.13
412.74	2689.28
412.93	2860.13
413.12	2665.87
413.31	2970.14
413.50	2820.35
413.69	2792.26
413.88	2883.54
414.07	2942.05
414.26	2951.42
414.45	3115.25
414.64	3000.57
414.83	3117.59
415.02	3047.38
415.22	3122.27
415.41	3124.62
415.60	3215.90
415.79	3201.85
415.98	3255.69
416.17	3192.49
416.36	3276.75
416.55	3124.62
416.74	3363.35
416.93	3330.58
417.12	3339.94
417.31	3353.99
417.50	3269.73
417.69	3534.21
417.88	3442.93
418.07	3384.41
418.26	3382.07
418.45	3538.89
418.64	3534.21
418.83	3508.46
419.02	3564.64
419.21	3653.58
419.39	3566.98
419.58	3375.05
419.77	3459.31
419.96	3658.26
420.15	3735.50
420.34	3665.28
420.53	3836.14
420.72	3740.18
420.91	3822.09
421.10	3733.15
421.29	3782.31
421.48	3784.65
421.67	3861.88
421.86	3786.99
422.05	3840.82
422.24	3772.94
422.43	3744.86
422.61	3852.52
422.80	3852.52
422.99	3859.54
423.18	3981.25
423.37	4044.45
423.56	3831.46
423.75	4032.74
423.94	3920.40
424.13	3772.94
424.32	3625.49
424.50	3824.44
424.69	3964.87
424.88	4074.87
425.07	3892.31
425.26	4035.08
425.45	3873.59
425.64	4042.11
425.83	3955.51
426.01	4100.62
426.20	4035.08
426.39	3892.31
426.58	4016.36
426.77	3969.55
426.96	3985.93
427.15	3971.89
427.33	4140.41
427.52	4081.89
427.71	4187.22
427.90	4114.66
428.09	4161.47
428.28	4117.00
428.46	4210.62
428.65	4119.34
428.84	4339.35
429.03	4348.72
429.22	4159.13
429.40	4229.35
429.59	4147.43
429.78	3974.23
429.97	3913.38
430.16	3978.91
430.34	4121.68
430.53	4222.33
430.72	4234.03
430.91	4346.37
431.10	4306.59
431.28	4514.89
431.47	4528.94
431.66	4617.88
431.85	4554.68
432.03	4589.79
432.22	4643.62
432.41	4704.48
432.60	4877.68
432.79	4779.37
432.97	4751.29
433.16	4774.69
433.35	4631.92
433.54	4755.97
433.72	4688.09
433.91	4585.11
434.10	4695.11
434.28	4760.65
434.47	4957.25
434.66	4828.53
434.85	5123.43
435.03	4889.38
435.22	4966.62
435.41	5074.28
435.59	5249.82
435.78	5195.99
435.97	5212.37
436.16	5069.60
436.34	5144.50
436.53	5116.41
436.72	5320.04
436.90	5057.90
437.09	5015.77
437.28	5247.48
437.46	5144.50
437.65	5200.67
437.84	5233.44
438.02	5266.21
438.21	5259.18
438.40	5280.25
438.58	5423.02
438.77	5497.92
438.96	5467.49
439.14	5474.51
439.33	5680.48
439.52	5762.40
439.70	5701.54
439.89	5755.38
440.08	5671.12
440.26	5659.42
440.45	5813.89
440.63	5820.91
440.82	5860.70
441.01	5888.79
441.19	5947.30
441.38	6134.54
441.57	6092.41
441.75	6384.98
441.94	6197.74
442.12	6186.04
442.31	6349.87
442.50	6317.11
442.68	6359.24
442.87	6284.34
443.05	6392.00
443.24	6392.00
443.43	6516.05
443.61	6525.41
443.80	6457.54
443.98	6251.57
444.17	6321.79
444.35	6413.07
444.54	6630.74
444.73	6354.55
444.91	6686.91
445.10	6494.99
445.28	6497.33
445.47	6677.55
445.65	6558.18
445.84	6553.50
446.02	6677.55
446.21	6513.71
446.39	6546.48
446.58	6562.86
446.77	6569.88
446.95	6637.76
447.14	6612.01
447.32	6810.96
447.51	6715.00
447.69	6679.89
447.88	6637.76
448.06	6551.16
448.25	6785.21
448.43	6911.60
448.62	6707.98
448.80	6785.21
448.99	6750.10
449.17	6874.15
449.36	6864.79
449.54	6993.52
449.73	7068.42
449.91	7119.91
450.10	7302.47
450.28	7222.89
450.46	7332.90
450.65	7227.57
450.83	7185.44
451.02	7283.75
451.20	7274.38
451.39	7227.57
451.57	7220.55
451.76	7157.36
451.94	7241.62
452.13	7353.96
452.31	7297.79
452.49	7171.40
452.68	7253.32
452.86	7300.13
453.05	7192.47
453.23	7339.92
453.42	7178.42
453.60	7328.22
453.78	7456.95
453.97	7288.43
454.15	7480.35
454.34	7417.16
454.52	7576.31
454.70	7517.80
454.89	7564.61
455.07	7618.44
455.26	7644.19
455.44	7683.98
455.62	7786.96
455.81	7815.05
455.99	7782.28
456.17	7871.22
456.36	7747.17
456.54	7770.58
456.73	7939.10
456.91	8182.51
457.09	8056.12
457.28	8292.52
457.46	8091.23
457.64	8205.92
457.83	8063.15
458.01	7901.65
458.19	8365.07
458.38	7957.82
458.56	8262.09
458.74	8236.35
458.93	8313.58
459.11	8346.35
459.29	8194.22
459.48	8397.84
459.66	8374.44
459.84	8533.59
460.03	8561.68
460.21	8545.30
460.39	8741.90
460.57	8659.98
460.76	8706.79
460.94	8718.50
461.12	8669.34
461.31	8610.83
461.49	8552.32
461.67	8723.18
461.85	8961.91
462.04	8702.11
462.22	8854.25
462.40	9092.98
462.59	8910.42
462.77	8837.86
462.95	8901.06
463.13	8936.17
463.32	8849.57
463.50	8884.67
463.68	9004.04
463.86	9125.75
464.05	8837.86
464.23	9057.87
464.41	9006.38
464.59	8912.76
464.78	9345.76
464.96	9266.18
465.14	9074.26
465.32	9270.86
465.50	9411.29
465.69	9518.96
465.87	9277.88
466.05	9238.09
466.23	9165.54
466.41	9294.27
466.60	9500.23
466.78	9195.96
466.96	9359.80
467.14	9104.68
467.32	9500.23
467.51	9451.08
467.69	9179.58
467.87	9521.30
468.05	9696.84
468.23	9460.45
468.41	9525.98
468.60	9343.42
468.78	9530.66
468.96	9413.63
469.14	9834.93
469.32	9809.19
469.50	9453.42
469.69	9886.42
469.87	9781.10
470.05	9598.54
470.23	9785.78
470.41	9713.22
470.59	9865.36
470.77	9937.91
470.95	10045.58
471.14	10160.27
471.32	9933.23
471.50	10403.68
471.68	10363.89
471.86	10349.85
472.04	10303.04
472.22	10696.25
472.40	10207.08
472.58	10338.15
472.77	10523.05
472.95	10747.74
473.13	10942.00
473.31	10712.63
473.49	10499.64
473.67	10520.71
473.85	10567.52
474.03	11138.61
474.21	11138.61
474.39	11059.03
474.57	11119.89
474.75	11171.38
474.93	11389.05
475.12	11194.78
475.30	11321.17
475.48	11332.87
475.66	11477.99
475.84	11517.78
476.02	11431.18
476.20	11407.77
476.38	11700.34
476.56	11974.18
476.74	11726.08
476.92	11735.45
477.10	11613.74
477.28	12063.12
477.46	12095.89
477.64	12252.70
477.82	12491.44
478.00	12512.50
478.18	12348.67
478.36	12564.00
478.54	12627.19
478.72	12793.37
478.90	13078.91
479.08	12996.99
479.26	13198.28
479.44	12870.61
479.62	13249.77
479.80	13104.66
479.98	13310.63
480.16	13785.76
480.34	13596.17
480.52	13858.31
480.70	13912.14
480.88	13701.50
481.06	13734.26
481.24	14146.20
481.41	14029.17
481.59	14359.19
481.77	14401.32
481.95	14490.26
482.13	14455.15
482.31	14534.73
482.49	14932.62
482.67	14857.72
482.85	15152.63
483.03	15169.01
483.21	15353.91
483.39	15499.03
483.57	15452.22
483.74	15712.02
483.92	15648.82
484.10	15831.38
484.28	15868.83
484.46	15995.22
484.64	16266.72
484.82	16098.20
485.00	16123.95
485.18	16390.77
485.35	16624.83
485.53	16322.90
485.71	16341.62
485.89	16444.60
486.07	16407.16
486.25	16781.64
486.43	16739.51
486.61	17179.53
486.78	17341.03
486.96	17528.27
487.14	17694.45
487.32	17659.34
487.50	18167.24
487.68	18218.73
487.85	18293.63
488.03	18506.62
488.21	18457.46
488.39	18838.97
488.57	18991.11
488.75	18836.63
488.92	18895.14
489.10	19613.69
489.28	19557.52
489.46	19693.27
489.64	19711.99
489.81	19913.28
489.99	20322.87
490.17	20184.78
490.35	20285.42
490.53	20587.35
490.70	20692.68
490.88	20538.20
491.06	20919.71
491.24	20688.00
491.41	20807.36
491.59	20964.18
491.77	20807.36
491.95	21472.07
492.13	21303.56
492.30	21610.17
492.48	22082.95
492.66	21713.15
492.84	21975.29
493.01	22024.44
493.19	22026.78
493.37	21991.67
493.54	22663.41
493.72	22745.33
493.90	22511.27
494.08	23267.27
494.25	23295.35
494.43	23314.08
494.61	23393.65
494.79	23592.60
494.96	23573.88
495.14	23220.45
495.32	24018.58
495.49	23672.18
495.67	23915.59
495.85	24374.34
496.02	24496.05
496.20	24655.20
496.38	24357.96
496.55	24587.33
496.73	25170.12
496.91	24849.47
497.09	24945.43
497.26	25209.91
497.44	25055.43
497.62	24926.71
497.79	25427.58
497.97	25266.08
498.14	25535.24
498.32	25872.28
498.50	25654.61
498.67	25937.82
498.85	25638.23
499.03	26286.56
499.20	26199.96
499.38	26534.65
499.56	26536.99
499.73	26747.64
499.91	26806.16
500.08	26726.58
500.26	26300.60
500.44	27192.34
500.61	26735.94
500.79	26977.01
500.97	27124.47
501.14	27087.02
501.32	27288.31
501.49	27285.97
501.67	27236.81
501.84	27831.31
502.02	27534.06
502.20	27803.22
502.37	27742.37
502.55	27637.05
502.72	27910.89
502.90	28276.01
503.07	28070.04
503.25	28369.63
503.43	28173.03
503.60	28568.58
503.78	28133.24
503.95	28219.84
504.13	28514.75
504.30	28666.88
504.48	28634.11
504.65	28811.99
504.83	28910.30
505.01	28875.19
505.18	29298.83
505.36	29624.16
505.53	29567.99
505.71	29668.63
505.88	29397.13
506.06	29394.79
506.23	29769.27
506.41	29860.55
506.58	29776.30
506.76	30115.67
506.93	29872.26
507.11	29860.55
507.28	29862.90
507.46	30370.79
507.63	30260.79
507.81	30490.16
507.98	30333.34
508.16	30298.23
508.33	31007.42
508.50	30892.73
508.68	31250.83
508.85	31299.98
509.03	31255.51
509.20	31278.92
509.38	31328.07
509.55	31234.45
509.73	31269.56
509.90	31468.50
510.08	31576.17
510.25	31297.64
510.42	31594.89
510.60	31899.16
510.77	32191.73
510.95	32142.58
511.12	31630.00
511.30	32315.78
511.47	32402.38
511.64	32404.72
511.82	32573.24
511.99	32219.81
512.17	32318.12
512.34	32561.53
512.51	32875.16
512.69	32606.00
512.86	32774.52
513.04	33261.35
513.21	32994.53
513.38	33015.60
513.56	33310.50
513.73	33261.35
513.90	32896.23
514.08	33118.58
514.25	33663.93
514.43	33123.26
514.60	33357.32
514.77	33427.53
514.95	33785.63
515.12	33411.15
515.29	33462.64
515.47	33684.99
515.64	33996.28
515.81	33680.31
515.99	33748.18
516.16	33975.22
516.33	33799.68
516.51	33729.46
516.68	33689.67
516.85	33420.51
517.03	33647.54
517.20	34033.73
517.37	33888.62
517.54	34487.79
517.72	34724.19
517.89	34242.04
518.06	34153.10
518.24	34342.68
518.41	34660.99
518.58	34361.40
518.75	34586.10
518.93	34703.12
519.10	35129.10
519.27	35124.42
519.45	35108.04
519.62	35037.82
519.79	35311.66
519.96	35847.64
520.14	35758.70
520.31	35522.31
520.48	35487.20
520.65	35590.19
520.83	36161.28
521.00	35625.29
521.17	36086.38
521.34	36245.54
521.52	36037.23
521.69	36591.94
521.86	36697.26
522.03	36552.15
522.20	36074.68
522.38	36203.41
522.55	37074.09
522.72	36755.77
522.89	36367.24
523.07	36694.92
523.24	37055.36
523.41	37137.28
523.58	36842.37
523.75	37130.26
523.92	37378.36
524.10	37425.17
524.27	37397.08
524.44	37572.62
524.61	37177.07
524.78	37862.85
524.96	37528.15
525.13	37284.73
525.30	38108.60
525.47	37869.87
525.64	37558.58
525.81	37722.41
525.98	37436.87
526.16	37612.41
526.33	37277.71
526.50	37605.39
526.67	37563.26
526.84	37691.99
527.01	37481.34
527.18	37794.97
527.36	37993.92
527.53	38143.71
527.70	39152.48
527.87	38539.26
528.04	38473.73
528.21	38473.73
528.38	38391.81
528.55	38972.26
528.72	38646.93
528.89	39423.98
529.07	38810.76
529.24	38752.25
529.41	38866.94
529.58	38632.88
529.75	39166.52
529.92	39056.52
530.09	39522.29
530.26	39557.39
530.43	39325.68
530.60	39208.65
530.77	39299.94
530.94	39157.16
531.11	39604.20
531.28	39452.07
531.46	39927.20
531.63	39597.18
531.80	39842.94
531.97	39288.23
532.14	39180.57
532.31	39428.66
532.48	40072.31
532.65	39470.79
532.82	39723.57
532.99	40076.99
533.16	39447.39
533.33	39669.74
533.50	40353.18
533.67	39737.62
533.84	39749.32
534.01	40231.47
534.18	40397.65
534.35	40479.57
534.52	40627.02
534.69	40678.51
534.86	40577.87
535.03	40634.04
535.20	40989.80
535.37	41071.72
535.54	40966.40
535.71	40891.50
535.88	40629.36
536.05	40835.33
536.22	40931.29
536.38	41045.97
536.55	40807.24
536.72	41116.19
536.89	40594.25
537.06	40509.99
537.23	41500.04
537.40	40809.58
537.57	41308.11
537.74	41326.84
537.91	41640.47
538.08	41226.20
538.25	41448.55
538.42	41598.34
538.59	41624.09
538.75	40996.82
538.92	41493.02
539.09	41633.45
539.26	41455.57
539.43	41287.05
539.60	41418.12
539.77	41537.49
539.94	41827.71
540.11	41268.33
540.28	41563.23
540.44	41813.67
540.61	41886.23
540.78	41738.77
540.95	41766.86
541.12	41722.39
541.29	41799.63
541.46	42131.98
541.62	41841.76
541.79	42260.71
541.96	41361.95
542.13	42389.44
542.30	41727.07
542.47	42499.45
542.63	42160.07
542.80	42344.97
542.97	42621.16
543.14	42923.08
543.31	42398.80
543.48	42445.62
543.64	43164.16
543.81	42939.47
543.98	43180.54
544.15	42700.73
544.32	43292.89
544.48	42960.53
544.65	42906.70
544.82	43232.04
544.99	42787.33
545.16	43480.13
545.32	42981.60
545.49	43342.04
545.66	43222.67
545.83	43618.22
546.00	43548.01
546.16	43498.86
546.33	43173.52
546.50	42958.19
546.67	43365.45
546.83	43110.33
547.00	43555.03
547.17	43477.79
547.34	43288.21
547.50	43871.00
547.67	43786.74
547.84	43503.54
548.00	43835.89
548.17	44098.03
548.34	43896.75
548.51	44074.63
548.67	44397.62
548.84	44278.25
549.01	43639.29
549.18	43643.97
549.34	44165.91
549.51	44102.71
549.68	44112.08
549.84	44208.04
550.01	44308.68
550.18	44037.18
550.34	44006.75
550.51	43964.62
550.68	44250.17
550.84	43800.79
551.01	44016.11
551.18	44182.29
551.34	44390.60
551.51	44170.59
551.68	44495.92
551.84	44608.27
552.01	44364.85
552.18	44676.15
552.34	44250.17
552.51	44383.58
552.68	44280.60
552.84	44715.93
553.01	44802.53
553.18	44495.92
553.34	44589.55
553.51	44722.96
553.67	44629.34
553.84	44683.17
554.01	44968.71
554.17	45181.70
554.34	45020.20
554.51	45069.36
554.67	45015.52
554.84	45200.43
555.00	44720.62
555.17	45088.08
555.33	44744.02
555.50	44582.52
555.67	45132.55
555.83	44999.14
556.00	45038.93
556.16	45380.65
556.33	45017.86
556.50	45064.67
556.66	45067.02
556.83	44734.66
556.99	45441.50
557.16	45261.28
557.32	45256.60
557.49	45720.02
557.65	45106.80
557.82	45109.14
557.98	45462.57
558.15	45392.35
558.32	45649.81
558.48	45373.63
558.65	45481.29
558.81	45048.29
558.98	44865.73
559.14	45418.10
559.31	45216.81
559.47	45720.02
559.64	45467.25
559.80	45556.19
559.97	45450.86
560.13	45429.80
560.30	45382.99
560.46	45694.28
560.63	45488.31
560.79	45937.69
560.96	45546.82
561.12	45617.04
561.29	45537.46
561.45	45741.09
561.61	45614.70
561.78	45413.41
561.94	45338.52
562.11	45638.11
562.27	45469.59
562.44	45682.58
562.60	45986.85
562.77	45909.61
562.93	45680.24
563.10	45759.81
563.26	45595.98
563.42	45949.40
563.59	45614.70
563.75	45247.24
563.92	45944.72
564.08	45614.70
564.24	45858.12
564.41	46024.29
564.57	46150.68
564.74	45937.69
564.90	46019.61
565.07	45670.87
565.23	45607.68
565.39	45736.41
565.56	45778.54
565.72	45872.16
565.88	45968.12
566.05	45883.86
566.21	46033.66
566.38	46021.95
566.54	46295.80
566.70	45907.27
566.87	46103.87
567.03	46040.68
567.19	46244.30
567.36	46040.68
567.52	45663.85
567.68	46024.29
567.85	45918.97
568.01	46181.11
568.17	45947.06
568.34	45888.54
568.50	46003.23
568.66	45937.69
568.83	45848.75
568.99	45888.54
569.15	45907.27
569.32	46057.06
569.48	45727.05
569.64	45769.18
569.81	46061.74
569.97	46045.36
570.13	46129.62
570.30	45813.65
570.46	45832.37
570.62	46033.66
570.78	46438.57
570.95	45989.19
571.11	46059.40
571.27	45701.30
571.43	45888.54
571.60	46295.80
571.76	46525.17
571.92	46487.72
572.09	46068.76
572.25	45897.91
572.41	46019.61
572.57	46459.63
572.74	46511.13
572.90	45986.85
573.06	46422.19
573.22	46136.64
573.38	46548.57
573.55	46387.08
573.71	46267.71
573.87	46326.22
574.03	46419.84
574.20	46258.35
574.36	45935.35
574.52	46110.89
574.68	46265.37
574.84	46185.79
575.01	46038.34
575.17	46162.39
575.33	46440.91
575.49	46092.17
575.65	46223.24
575.82	46382.40
575.98	46036.00
576.14	46571.98
576.30	46323.88
576.46	46555.60
576.62	46295.80
576.79	46199.83
576.95	46286.43
577.11	46469.00
577.27	45998.55
577.43	46422.19
577.59	45947.06
577.75	46424.53
577.92	45647.47
578.08	45759.81
578.24	46422.19
578.40	45745.77
578.56	46267.71
578.72	46164.73
578.88	46117.92
579.04	46440.91
579.21	46000.89
579.37	46000.89
579.53	46260.69
579.69	45837.05
579.85	46363.67
580.01	46354.31
580.17	46101.53
580.33	46569.64
580.49	46326.22
580.65	46429.21
580.82	46518.15
580.98	46274.73
581.14	46543.89
581.30	46504.10
581.46	46375.37
581.62	46469.00
581.78	46213.88
581.94	46459.63
582.10	46466.66
582.26	46405.80
582.42	46686.67
582.58	46286.43
582.74	46134.30
582.90	46213.88
583.06	46705.39
583.22	46248.99
583.38	46623.47
583.54	46618.79
583.70	46550.91
583.86	46061.74
584.02	46003.23
584.18	46677.30
584.34	46281.75
584.50	46604.75
584.66	46246.65
584.82	45909.61
584.98	46534.53
585.14	46354.31
585.30	46749.86
585.46	46326.22
585.62	45989.19
585.78	46321.54
585.94	45989.19
586.10	46337.93
586.26	45794.92
586.42	46649.22
586.58	46469.00
586.74	46597.73
586.90	45998.55
587.06	46227.92
587.22	46518.15
587.38	45851.09
587.54	46426.87
587.70	46314.52
587.86	46522.83
588.02	46927.74
588.18	46417.50
588.34	46146.00
588.49	45750.45
588.65	45471.93
588.81	46302.82
588.97	46209.20
589.13	45542.14
589.29	46036.00
589.45	46216.22
589.61	46176.43
589.77	46543.89
589.93	46059.40
590.08	46478.36
590.24	46387.08
590.40	46447.93
590.56	46646.88
590.72	46768.58
590.88	46443.25
591.04	46356.65
591.20	46700.71
591.35	46637.51
591.51	46913.70
591.67	46932.42
591.83	46782.63
591.99	46529.85
592.15	46312.18
592.31	46461.97
592.46	46670.28
592.62	46827.10
592.78	47044.77
592.94	46848.16
593.10	46176.43
593.26	46553.26
593.41	46248.99
593.57	46784.97
593.73	46532.19
593.89	46539.21
594.05	46649.22
594.20	47026.04
594.36	46773.27
594.52	46454.95
594.68	46623.47
594.84	46178.77
594.99	46770.93
595.15	46162.39
595.31	46845.82
595.47	46878.59
595.62	46354.31
595.78	46852.84
595.94	46850.50
596.10	46691.35
596.25	47058.81
596.41	46859.87
596.57	46476.02
596.73	46735.82
596.88	46403.46
597.04	46574.32
597.20	46745.18
597.36	46616.45
597.51	46284.09
597.67	46721.77
597.83	46944.12
597.99	46696.03
598.14	46721.77
598.30	46459.63
598.46	46672.62
598.61	46312.18
598.77	46635.17
598.93	46131.96
599.09	46752.20
599.24	47026.04
599.40	46801.35
599.56	46904.34
599.71	46440.91
599.87	46543.89
600.03	46506.44
600.18	46815.40
600.34	46672.62
600.50	46824.76
600.65	46677.30
600.81	46958.17
600.97	46780.29
601.12	47035.41
601.28	46609.43
601.44	46724.11
601.59	46384.74
601.75	45900.25
601.91	46681.98
602.06	46433.89
602.22	46405.80
602.37	46742.84
602.53	46899.65
602.69	46703.05
602.84	46443.25
603.00	46579.00
603.16	46347.29
603.31	46777.95
603.47	46209.20
603.62	46085.15
603.78	46979.23
603.94	46347.29
604.09	46876.25
604.25	46878.59
604.40	46394.10
604.56	46316.86
604.71	46567.30
604.87	46511.13
605.03	46574.32
605.18	46330.90
605.34	46295.80
605.49	46344.95
605.65	46293.46
605.80	46541.55
605.96	46586.02
606.12	46618.79
606.27	46471.34
606.43	46143.66
606.58	46550.91
606.74	46581.34
606.89	46344.95
607.05	46211.54
607.20	46192.81
607.36	46492.40
607.51	46408.14
607.67	46216.22
607.82	45914.29
607.98	46220.90
608.13	46052.38
608.29	46089.83
608.44	46253.67
608.60	45839.39
608.75	46068.76
608.91	46316.86
609.06	46003.23
609.22	46281.75
609.37	45743.43
609.53	46340.27
609.68	46057.06
609.84	45827.69
609.99	45867.48
610.15	45731.73
610.30	46087.49
610.46	45656.83
610.61	45918.97
610.76	45612.36
610.92	45752.79
611.07	46127.28
611.23	46106.21
611.38	46120.26
611.54	45832.37
611.69	45647.47
611.84	45511.72
612.00	46019.61
612.15	45453.20
612.31	46164.73
612.46	45528.10
612.62	45925.99
612.77	45500.01
612.92	46085.15
613.08	45773.86
613.23	45607.68
613.39	45713.00
613.54	45256.60
613.69	45586.61
613.85	45415.76
614.00	45687.26
614.15	46024.29
614.31	45572.57
614.46	45989.19
614.62	45684.92
614.77	45598.32
614.92	45511.72
615.08	45350.22
615.23	45221.49
615.38	45081.06
615.54	45020.20
615.69	45263.62
615.84	45375.97
616.00	45001.48
616.15	45280.00
616.30	45572.57
616.46	44746.36
616.61	44814.24
616.76	44905.52
616.92	44580.18
617.07	44367.20
617.22	44844.66
617.37	44582.52
617.53	45027.23
617.68	45303.41
617.83	45200.43
617.99	45090.42
618.14	44823.60
618.29	45113.83
618.45	44758.06
618.60	44594.23
618.75	44598.91
618.90	44669.12
619.06	44893.82
619.21	44729.98
619.36	45212.13
619.51	44872.75
619.67	44933.60
619.82	45134.89
619.97	44374.22
620.12	44285.28
620.28	44105.06
620.43	44741.68
620.58	44423.37
620.73	44371.88
620.89	44643.38
621.04	44807.22
621.19	44231.44
621.34	44294.64
621.49	44538.05
621.65	44388.26
621.80	44519.33
621.95	43924.83
622.10	44360.17
622.25	44037.18
622.41	43908.45
622.56	44102.71
622.71	44215.06
622.86	43721.21
623.01	44243.15
623.16	44128.46
623.32	43924.83
623.47	43997.39
623.62	44147.18
623.77	43777.38
623.92	44025.48
624.07	43709.50
624.23	43915.47
624.38	43143.09
624.53	43564.39
624.68	43889.73
624.83	43653.33
624.98	43875.68
625.13	43489.49
625.29	43765.68
625.44	43215.65
625.59	43232.04
625.74	42976.92
625.89	43115.01
626.04	43215.65
626.19	43559.71
626.34	43583.12
626.49	43641.63
626.65	43594.82
626.80	43812.49
626.95	43124.37
627.10	43262.46
627.25	42852.87
627.40	43112.67
627.55	42794.36
627.70	42700.73
627.85	42607.11
628.00	42534.56
628.15	42862.23
628.30	42801.38
628.45	43440.34
628.60	42761.59
628.76	42831.80
628.91	42979.26
629.06	42728.82
629.21	42457.32
629.36	42382.42
629.51	42609.45
629.66	42431.57
629.81	42616.47
629.96	42415.19
630.11	42588.39
630.26	43241.40
630.41	43154.80
630.56	42562.64
630.71	42843.51
630.86	42721.80
631.01	42185.82
631.16	42284.12
631.31	42408.17
631.46	42209.22
631.61	42234.97
631.76	42602.43
631.91	42501.79
632.06	42611.79
632.21	42024.32
632.36	42534.56
632.51	41968.15
632.66	41855.80
632.81	41984.53
632.96	41787.92
633.10	41937.72
633.25	42040.70
633.40	42092.19
633.55	42644.56
633.70	41825.37
633.85	41989.21
634.00	42199.86
634.15	42057.09
634.30	42309.86
634.45	42167.09
634.60	41947.08
634.75	41736.43
634.90	42068.79
635.05	41488.34
635.19	41521.10
635.34	41888.57
635.49	41577.28
635.64	41415.78
635.79	41294.07
635.94	41394.71
636.09	41839.42
636.24	41581.96
636.39	41591.32
636.53	41146.62
636.68	41481.31
636.83	41586.64
636.98	41661.54
637.13	41083.42
637.28	41420.46
637.43	41298.75
637.57	41581.96
637.72	41361.95
637.87	41060.02
638.02	41584.30
638.17	41617.07
638.32	41343.22
638.46	41394.71
638.61	41207.47
638.76	41390.03
638.91	41172.36
639.06	40835.33
639.20	41296.41
639.35	41478.97
639.50	41008.53
639.65	41130.23
639.80	40994.48
639.94	41429.82
640.09	40868.09
640.24	40903.20
640.39	40868.09
640.54	40477.22
640.68	40737.02
640.83	40428.07
640.98	40521.69
641.13	40851.71
641.27	40861.07
641.42	40446.80
641.57	40329.77
641.72	40605.95
641.86	40928.95
642.01	40194.02
642.16	40376.58
642.31	40032.52
642.45	40727.66
642.60	40446.80
642.75	40493.61
642.90	40257.21
643.04	40367.22
643.19	40376.58
643.34	40638.72
643.48	40081.67
643.63	40540.42
643.78	40151.89
643.93	40098.06
644.07	40020.82
644.22	40081.67
644.37	39737.62
644.51	40067.63
644.66	40048.91
644.81	40538.08
644.95	40397.65
645.10	40116.78
645.25	40292.32
645.39	39922.52
645.54	40041.88
645.69	40027.84
645.83	39693.15
645.98	39583.14
646.13	39828.90
646.27	40189.34
646.42	39739.96
646.57	39601.86
646.71	39714.21
646.86	39978.69
647.00	40233.81
647.15	39669.74
647.30	39716.55
647.44	39262.49
647.59	39903.79
647.74	39555.05
647.88	39784.43
648.03	39641.65
648.17	39545.69
648.32	39131.42
648.47	39414.62
648.61	38721.82
648.76	39775.06
648.90	39309.30
649.05	39435.69
649.20	39257.81
649.34	39072.90
649.49	38979.28
649.63	39105.67
649.78	38876.30
649.92	39299.94
650.07	39171.21
650.21	38735.87
650.36	39145.46
650.51	39030.77
650.65	39716.55
650.80	39576.12
650.94	39491.86
651.09	39168.87
651.23	39112.69
651.38	38815.44
651.52	38342.66
651.67	38789.70
651.81	38794.38
651.96	38682.03
652.10	38726.50
652.25	38841.19
652.39	38770.97
652.54	38656.29
652.68	38850.55
652.83	38572.03
652.97	38745.23
653.12	38667.99
653.26	38686.71
653.41	38621.18
653.55	38316.91
653.70	38382.45
653.84	38740.55
653.99	38197.54
654.13	38342.66
654.27	38384.79
654.42	38007.96
654.56	37488.36
654.71	38150.73
654.85	38312.23
655.00	38286.48
655.14	37890.93
655.29	38181.16
655.43	37897.95
655.57	38043.07
655.72	37488.36
655.86	37198.13
656.01	37280.05
656.15	37532.83
656.30	37586.66
656.44	37734.12
656.58	37378.36
656.73	37469.64
656.87	36926.63
657.01	37385.38
657.16	37762.20
657.30	37413.46
657.45	37024.93
657.59	37787.95
657.73	37652.20
657.88	37830.08
658.02	37799.65
658.16	37689.65
658.31	37823.06
658.45	37352.61
658.60	37338.57
658.74	37516.45
658.88	37486.02
659.03	36900.89
659.17	37385.38
659.31	36708.96
659.46	37200.47
659.60	37219.20
659.74	37635.81
659.89	37156.00
660.03	37062.38
660.17	36549.81
660.32	36758.11
660.46	37064.72
660.60	36744.07
660.74	36961.74
660.89	36744.07
661.03	36776.84
661.17	36697.26
661.32	36320.43
661.46	36444.48
661.60	36849.39
661.74	36112.13
661.89	36353.20
662.03	36580.23
662.17	36477.25
662.31	36470.23
662.46	36219.79
662.60	36474.91
662.74	36119.15
662.88	36020.84
663.03	35943.61
663.17	35908.50
663.31	35875.73
663.45	35910.84
663.60	35618.27
663.74	36215.11
663.88	35983.40
664.02	35534.01
664.17	35824.24
664.31	35267.19
664.45	35367.84
664.59	35859.35
664.73	35435.71
664.88	35491.88
665.02	35143.14
665.16	35431.03
665.30	35344.43
665.44	34881.00
665.59	34967.60
665.73	34962.92
665.87	35213.36
666.01	35243.79
666.15	35021.44
666.29	34888.03
666.44	35271.87
666.58	34492.47
666.72	34675.04
666.86	34771.00
667.00	34630.57
667.14	34398.85
667.28	34422.26
667.43	34553.33
667.57	34522.90
667.71	34562.69
667.85	34183.52
667.99	34155.44
668.13	33961.17
668.27	34284.17
668.41	34319.28
668.56	33902.66
668.70	34209.27
668.84	34085.22
668.98	33600.73
669.12	33247.31
669.26	33830.10
669.40	33287.10
669.54	33919.04
669.68	33649.88
669.82	33713.08
669.96	32954.74
670.10	33670.95
670.25	33277.74
670.39	33439.23
670.53	33193.48
670.67	33282.42
670.81	33486.04
670.95	33074.11
671.09	32985.17
671.23	33130.28
671.37	32687.92
671.51	32943.04
671.65	32252.58
671.79	32486.64
671.93	32404.72
672.07	32610.68
672.21	32814.31
672.35	32329.82
672.49	32348.54
672.63	32828.35
672.77	32294.71
672.91	32290.03
673.05	32039.59
673.19	32290.03
673.33	31838.31
673.47	31761.07
673.61	32013.85
673.75	31618.30
673.89	31496.59
674.03	31414.67
674.17	31463.82
674.31	31805.54
674.45	31377.22
674.59	31398.29
674.73	31517.65
674.87	31452.12
675.01	31154.87
675.15	31440.42
675.29	31131.47
675.43	30902.09
675.56	31014.44
675.70	30827.20
675.84	30937.20
675.98	30279.51
676.12	30579.10
676.26	30417.60
676.40	30309.94
676.54	30377.81
676.68	30866.98
676.82	29642.88
676.96	30209.29
677.10	30419.94
677.23	29881.62
677.37	29589.05
677.51	30031.41
677.65	29818.42
677.79	29127.97
677.93	29788.00
678.07	29326.91
678.21	28776.89
678.34	29032.00
678.48	29001.58
678.62	29174.78
678.76	28734.76
678.90	28554.54
679.04	28320.48
679.18	28769.86
679.31	28388.36
679.45	28517.09
679.59	28086.43
679.73	28704.33
679.87	28158.99
680.00	28039.62
680.14	28154.30
680.28	28187.07
680.42	28025.57
680.56	28208.14
680.70	27955.36
680.83	28004.51
680.97	27606.62
681.11	27763.43
681.25	27000.42
681.39	27157.24
681.52	27442.78
681.66	27082.34
681.80	27194.68
681.94	27084.68
682.07	27138.51
682.21	27030.85
682.35	26787.43
682.49	26850.63
682.62	26965.31
682.76	26740.62
682.90	26485.50
683.04	26389.54
683.17	26155.49
683.31	25872.28
683.45	26164.85
683.59	25872.28
683.72	25593.76
683.86	25764.62
684.00	25649.93
684.13	25652.27
684.27	25706.10
684.41	25015.65
684.55	25486.09
684.68	25364.39
684.82	25181.82
684.96	25280.13
685.09	25029.69
685.23	24992.24
685.37	25015.65
685.50	25261.40
685.64	24847.13
685.78	24400.08
685.91	24556.90
686.05	24451.58
686.19	24364.98
686.32	23716.65
686.46	23803.25
686.60	23613.66
686.73	23503.66
686.87	23583.24
687.01	23487.28
687.14	23459.19
687.28	23260.24
687.42	22918.53
687.55	23147.90
687.69	23351.52
687.82	23475.57
687.96	23208.75
688.10	23110.45
688.23	23091.73
688.37	22548.72
688.50	22541.70
688.64	22721.92
688.78	22518.29
688.91	22366.16
689.05	22820.22
689.18	22267.86
689.32	22279.56
689.46	22204.66
689.59	22370.84
689.73	22281.90
689.86	22410.63
690.00	22071.25
690.13	21884.01
690.27	21825.50
690.41	21933.16
690.54	21455.69
690.68	21252.06
690.81	21188.87
690.95	21362.07
691.08	21240.36
691.22	21345.69
691.35	21195.89
691.49	21495.48
691.62	21308.24
691.76	20828.43
691.89	20746.51
692.03	20940.77
692.16	20561.61
692.30	20315.85
692.43	20636.50
692.57	20219.89
692.70	20112.22
692.84	20301.81
692.97	20135.63
693.11	20039.67
693.24	20091.16
693.38	19695.61
693.51	19637.09
693.65	20180.10
693.78	19826.68
693.92	19807.95
694.05	19758.80
694.19	19594.96
694.32	19225.16
694.45	19276.65
694.59	19112.81
694.72	19400.70
694.86	18944.30
694.99	18974.72
695.13	19103.45
695.26	18625.98
695.39	18644.71
695.53	18904.51
695.66	19101.11
695.80	18810.89
695.93	18448.10
696.07	18672.79
696.20	18310.01
696.33	18160.22
696.47	18080.64
696.60	18143.83
696.73	18036.17
696.87	17905.10
697.00	17776.37
697.14	17930.84
697.27	17935.53
697.40	17699.13
697.54	17577.42
697.67	17394.86
697.80	17310.60
697.94	17451.03
698.07	17085.91
698.21	17160.81
698.34	17275.49
698.47	16886.97
698.61	16865.90
698.74	16868.24
698.87	16627.17
699.01	16446.94
699.14	16393.11
699.27	16262.04
699.40	16341.62
699.54	16414.18
699.67	16266.72
699.80	16219.91
699.94	16023.31
700.07	16182.46
700.20	16039.69
700.34	16161.40
700.47	15934.37
700.60	16112.25
700.73	16194.17
700.87	16222.25
701.00	15941.39
701.13	15637.12
701.26	15609.03
701.40	15522.43
701.53	15693.29
701.66	15592.65
701.79	15410.09
701.93	15173.69
702.06	15110.50
702.19	15166.67
702.32	14956.02
702.46	14810.91
702.59	15110.50
702.72	15035.60
702.85	14822.61
702.99	14796.87
703.12	14569.83
703.25	14583.88
703.38	14303.01
703.51	14370.89
703.65	14406.00
703.78	14295.99
703.91	14209.39
704.04	14398.98
704.17	14197.69
704.31	14169.60
704.44	14078.32
704.57	14047.90
704.70	13715.54
704.83	13785.76
704.96	13757.67
705.10	13612.56
705.23	13811.50
>>>>>End Processed Spectral Data<<<<<
