SpectraSuite Data File
++++++++++++++++++++++++++++++++++++
Date: Fri Oct 25 11:33:32 EDT 2013
User: price-jones
Dark Spectrum Present: No
Reference Spectrum Present: No
Number of Sampled Component Spectra: 1
Spectrometers: USB2+H05261
Integration Time (usec): 100000 (USB2+H05261)
Spectra Averaged: 1 (USB2+H05261)
Boxcar Smoothing: 0 (USB2+H05261)
Correct for Electrical Dark: No (USB2+H05261)
Strobe/Lamp Enabled: No (USB2+H05261)
Correct for Detector Non-linearity: No (USB2+H05261)
Correct for Stray Light: No (USB2+H05261)
Number of Pixels in Processed Spectrum: 2048
>>>>>Begin Processed Spectral Data<<<<<
365.73	280.86
365.92	280.86
366.12	280.86
366.32	194.26
366.52	145.11
366.72	212.99
366.91	191.92
367.11	224.69
367.31	189.58
367.51	161.50
367.70	222.35
367.90	166.18
368.10	138.09
368.30	135.75
368.49	107.66
368.69	177.88
368.89	159.16
369.09	191.92
369.28	163.84
369.48	194.26
369.68	191.92
369.87	271.50
370.07	180.22
370.27	327.68
370.47	273.84
370.66	484.49
370.86	512.58
371.06	568.75
371.25	587.47
371.45	528.96
371.65	568.75
371.84	589.82
372.04	571.09
372.24	615.56
372.44	594.50
372.63	554.71
372.83	603.86
373.03	622.58
373.22	585.13
373.42	578.11
373.62	624.92
373.81	514.92
374.01	610.88
374.21	589.82
374.40	699.82
374.60	676.41
374.79	580.45
374.99	636.63
375.19	655.35
375.38	676.41
375.58	683.44
375.78	732.59
375.97	627.26
376.17	669.39
376.37	711.52
376.56	713.86
376.76	660.03
376.95	702.16
377.15	744.29
377.35	685.78
377.54	653.01
377.74	627.26
377.93	702.16
378.13	688.12
378.33	720.88
378.52	746.63
378.72	657.69
378.91	746.63
379.11	706.84
379.31	788.76
379.50	713.86
379.70	763.01
379.89	702.16
380.09	718.54
380.28	807.48
380.48	690.46
380.68	732.59
380.87	765.36
381.07	676.41
381.26	758.33
381.46	779.40
381.65	788.76
381.85	730.25
382.04	777.06
382.24	814.51
382.43	793.44
382.63	755.99
382.83	819.19
383.02	807.48
383.22	767.70
383.41	856.64
383.61	840.25
383.80	758.33
384.00	791.10
384.19	819.19
384.39	784.08
384.58	784.08
384.78	844.93
384.97	828.55
385.17	746.63
385.36	713.86
385.56	826.21
385.75	840.25
385.95	779.40
386.14	926.85
386.34	809.83
386.53	791.10
386.72	894.08
386.92	875.36
387.11	903.45
387.31	884.72
387.50	922.17
387.70	880.04
387.89	882.38
388.09	877.70
388.28	896.43
388.48	889.40
388.67	891.74
388.86	889.40
389.06	954.94
389.25	973.66
389.45	957.28
389.64	917.49
389.84	964.30
390.03	940.90
390.22	1018.13
390.42	957.28
390.61	1048.56
390.81	938.55
391.00	1022.81
391.19	971.32
391.39	966.64
391.58	994.73
391.78	997.07
391.97	985.37
392.16	1004.09
392.36	905.79
392.55	1039.20
392.75	1097.71
392.94	976.00
393.13	1100.05
393.33	1018.13
393.52	1111.75
393.71	1128.14
393.91	1078.99
394.10	1163.25
394.29	1104.73
394.49	1128.14
394.68	1144.52
394.88	1170.27
395.07	1116.44
395.26	1118.78
395.46	1137.50
395.65	1221.76
395.84	1137.50
396.04	1284.95
396.23	1196.01
396.42	1102.39
396.62	1125.80
396.81	1212.40
397.00	1254.53
397.19	1226.44
397.39	1205.38
397.58	1261.55
397.77	1235.80
397.97	1247.51
398.16	1247.51
398.35	1259.21
398.55	1313.04
398.74	1313.04
398.93	1334.11
399.12	1308.36
399.32	1299.00
399.51	1301.34
399.70	1331.76
399.90	1320.06
400.09	1289.64
400.28	1406.66
400.47	1362.19
400.67	1394.96
400.86	1409.00
401.05	1397.30
401.24	1313.04
401.44	1451.13
401.63	1472.20
401.82	1460.49
402.01	1441.77
402.21	1465.18
402.40	1460.49
402.59	1453.47
402.78	1490.92
402.97	1511.99
403.17	1600.93
403.36	1596.25
403.55	1657.10
403.74	1474.54
403.93	1563.48
404.13	1636.03
404.32	1565.82
404.51	1680.50
404.70	1593.90
404.89	1481.56
405.09	1717.95
405.28	1722.63
405.47	1685.19
405.66	1734.34
405.85	1788.17
406.05	1685.19
406.24	1666.46
406.43	1692.21
406.62	1785.83
406.81	1774.13
407.00	1717.95
407.20	1811.57
407.39	1856.04
407.58	1774.13
407.77	1891.15
407.96	1863.07
408.15	1809.23
408.34	1858.39
408.54	2001.16
408.73	1926.26
408.92	1933.28
409.11	1923.92
409.30	1959.03
409.49	2026.90
409.68	2094.78
409.87	2165.00
410.07	2050.31
410.26	2165.00
410.45	2106.48
410.64	2083.08
410.83	2101.80
411.02	2106.48
411.21	2218.83
411.40	2218.83
411.59	2228.19
411.78	2284.36
411.98	2169.68
412.17	2286.70
412.36	2303.09
412.55	2328.83
412.74	2324.15
412.93	2387.35
413.12	2202.44
413.31	2436.50
413.50	2399.05
413.69	2345.22
413.88	2466.92
414.07	2445.86
414.26	2523.10
414.45	2595.65
414.64	2476.29
414.83	2626.08
415.02	2583.95
415.22	2743.11
415.41	2738.43
415.60	2665.87
415.79	2750.13
415.98	2672.89
416.17	2740.77
416.36	2740.77
416.55	2825.03
416.74	2867.16
416.93	2806.30
417.12	2745.45
417.31	3012.27
417.50	2785.24
417.69	2988.86
417.88	2967.80
418.07	2970.14
418.26	2916.31
418.45	2899.92
418.64	3204.19
418.83	2991.20
419.02	3045.04
419.21	3073.12
419.39	3136.32
419.58	3084.83
419.77	3056.74
419.96	3122.27
420.15	3150.36
420.34	3281.43
420.53	3176.11
420.72	3227.60
420.91	3225.26
421.10	3171.43
421.29	3267.39
421.48	3267.39
421.67	3227.60
421.86	3426.54
422.05	3281.43
422.24	3316.54
422.43	3384.41
422.61	3506.12
422.80	3407.82
422.99	3405.48
423.18	3344.63
423.37	3492.08
423.56	3400.80
423.75	3447.61
423.94	3309.52
424.13	3103.55
424.32	3314.20
424.50	3435.91
424.69	3468.67
424.88	3475.70
425.07	3431.23
425.26	3246.32
425.45	3391.44
425.64	3368.03
425.83	3482.72
426.01	3384.41
426.20	3517.83
426.39	3520.17
426.58	3365.69
426.77	3611.45
426.96	3545.91
427.15	3522.51
427.33	3501.44
427.52	3552.93
427.71	3676.98
427.90	3576.34
428.09	3494.42
428.28	3620.81
428.46	3693.37
428.65	3719.11
428.84	3754.22
429.03	3655.92
429.22	3726.13
429.40	3843.16
429.59	3812.73
429.78	3576.34
429.97	3733.15
430.16	3660.60
430.34	3976.57
430.53	4046.79
430.72	3847.84
430.91	3976.57
431.10	3941.46
431.28	3873.59
431.47	3997.64
431.66	4039.76
431.85	3896.99
432.03	4234.03
432.22	4081.89
432.41	4184.88
432.60	4053.81
432.79	4035.08
432.97	4051.47
433.16	4241.05
433.35	4028.06
433.54	4131.05
433.72	4212.96
433.91	4032.74
434.10	4042.11
434.28	4177.86
434.47	4241.05
434.66	4308.93
434.85	4381.48
435.03	4269.14
435.22	4224.67
435.41	4645.96
435.59	4390.84
435.78	4217.65
435.97	4400.21
436.16	4386.16
436.34	4414.25
436.53	4407.23
436.72	4561.70
436.90	4479.79
437.09	4484.47
437.28	4524.26
437.46	4629.58
437.65	4451.70
437.84	4531.28
438.02	4671.71
438.21	4638.94
438.40	4531.28
438.58	4868.31
438.77	4835.55
438.96	4770.01
439.14	4772.35
439.33	4910.44
439.52	4968.96
439.70	4842.57
439.89	4908.10
440.08	5153.86
440.26	4943.21
440.45	5149.18
440.63	5032.15
440.82	5060.24
441.01	5004.07
441.19	5102.37
441.38	5263.86
441.57	5327.06
441.75	5301.31
441.94	5416.00
442.12	5296.63
442.31	5453.45
442.50	5518.98
442.68	5427.70
442.87	5427.70
443.05	5458.13
443.24	5584.52
443.43	5610.26
443.61	5612.60
443.80	5771.76
443.98	5547.07
444.17	5350.46
444.35	5617.29
444.54	5748.36
444.73	5734.31
444.91	5706.23
445.10	5713.25
445.28	5603.24
445.47	5554.09
445.65	5713.25
445.84	5652.39
446.02	5633.67
446.21	5750.70
446.39	5750.70
446.58	5846.66
446.77	5806.87
446.95	5600.90
447.14	5781.12
447.32	5767.08
447.51	5727.29
447.69	5699.20
447.88	5717.93
448.06	5731.97
448.25	5930.92
448.43	5736.65
448.62	5797.51
448.80	5877.09
448.99	5839.64
449.17	5879.43
449.36	5888.79
449.54	6022.20
449.73	5949.64
449.91	6047.94
450.10	6036.24
450.28	5959.00
450.46	6136.88
450.65	6232.85
450.83	6150.93
451.02	6139.23
451.20	6389.66
451.39	6076.03
451.57	6069.01
451.76	6167.31
451.94	6204.76
452.13	6317.11
452.31	6347.53
452.49	6310.08
452.68	6305.40
452.86	6452.86
453.05	6380.30
453.23	6541.80
453.42	6487.96
453.60	6312.42
453.78	6492.65
453.97	6263.27
454.15	6541.80
454.34	6331.15
454.52	6349.87
454.70	6424.77
454.89	6513.71
455.07	6553.50
455.26	6539.46
455.44	6715.00
455.62	6658.82
455.81	6649.46
455.99	6715.00
456.17	6857.77
456.36	6787.55
456.54	6771.17
456.73	6960.75
456.91	7026.29
457.09	6785.21
457.28	6972.46
457.46	6965.43
457.64	6991.18
457.83	6977.14
458.01	7040.33
458.19	7293.11
458.38	7119.91
458.56	7283.75
458.74	7145.66
458.93	7255.66
459.11	7126.93
459.29	7332.90
459.48	7428.86
459.66	7206.51
459.84	7377.37
460.03	7529.50
460.21	7349.28
460.39	7478.01
460.57	7438.22
460.76	7604.40
460.94	7353.96
461.12	7522.48
461.31	7719.09
461.49	7660.57
461.67	7489.71
461.85	7581.00
462.04	7456.95
462.22	8088.89
462.40	7705.04
462.59	7749.51
462.77	7693.34
462.95	7894.63
463.13	7747.17
463.32	7819.73
463.50	7840.79
463.68	7850.16
463.86	7878.24
464.05	7936.76
464.23	7906.33
464.41	7906.33
464.59	8025.70
464.78	8053.78
464.96	7918.03
465.14	7878.24
465.32	8063.15
465.50	8184.85
465.69	8182.51
465.87	8079.53
466.05	8072.51
466.23	8119.32
466.41	8210.60
466.60	8236.35
466.78	8231.66
466.96	8152.09
467.14	8105.28
467.32	8514.87
467.51	8336.99
467.69	8121.66
467.87	8334.65
468.05	8404.86
468.23	8285.50
468.41	8339.33
468.60	8362.73
468.78	8592.11
468.96	8589.77
469.14	8709.13
469.32	8779.35
469.50	8367.42
469.69	8849.57
469.87	8610.83
470.05	8657.64
470.23	8924.46
470.41	8678.71
470.59	8933.82
470.77	8725.52
470.95	8830.84
471.14	9039.15
471.32	8828.50
471.50	9067.24
471.68	9071.92
471.86	9149.15
472.04	9083.62
472.22	9331.72
472.40	9020.42
472.58	9219.37
472.77	9280.22
472.95	9268.52
473.13	9844.29
473.31	9411.29
473.49	9338.74
473.67	9390.23
473.85	9633.64
474.03	9774.08
474.21	9867.70
474.39	9717.90
474.57	9785.78
474.75	10003.45
474.93	10087.71
475.12	9916.85
475.30	10066.64
475.48	10031.54
475.66	10038.56
475.84	10157.92
476.02	10202.40
476.20	10312.40
476.38	10506.66
476.56	10712.63
476.74	10597.95
476.92	10644.76
477.10	10532.41
477.28	10555.82
477.46	10628.37
477.64	10822.64
477.82	10785.19
478.00	11243.93
478.18	11131.59
478.36	11386.71
478.54	11339.90
478.72	11503.73
478.90	11536.50
479.08	11770.55
479.26	11721.40
479.44	11580.97
479.62	11847.79
479.80	11800.98
479.98	11906.31
480.16	12437.61
480.34	12372.07
480.52	12322.92
480.70	12233.98
480.88	12243.34
481.06	12442.29
481.24	12613.15
481.41	12538.25
481.59	12798.05
481.77	12779.32
481.95	12854.22
482.13	12964.23
482.31	12842.52
482.49	13207.64
482.67	13336.37
482.85	13369.14
483.03	13621.92
483.21	13692.13
483.39	13701.50
483.57	13589.15
483.74	13877.04
483.92	14340.46
484.10	14068.96
484.28	14422.38
484.46	14359.19
484.64	14693.88
484.82	14270.25
485.00	14572.18
485.18	14963.04
485.35	15199.44
485.53	15133.90
485.71	14920.92
485.89	15569.24
486.07	15267.31
486.25	15389.02
486.43	15655.84
486.61	15632.44
486.78	15943.73
486.96	15955.43
487.14	16063.10
487.32	16166.08
487.50	16475.03
487.68	16259.70
487.85	16294.81
488.03	16795.68
488.21	16959.52
488.39	16898.67
488.57	17123.36
488.75	17394.86
488.92	17518.91
489.10	17298.90
489.28	17664.02
489.46	17996.38
489.64	17792.75
489.81	18043.19
489.99	18328.74
490.17	17942.55
490.35	18682.16
490.53	18506.62
490.70	18583.85
490.88	18640.03
491.06	19073.03
491.24	19028.56
491.41	19197.07
491.59	19435.81
491.77	19222.82
491.95	19344.53
492.13	19424.11
492.30	19868.81
492.48	19901.58
492.66	20009.24
492.84	19871.15
493.01	20435.22
493.19	20130.95
493.37	20332.23
493.54	20402.45
493.72	20793.32
493.90	20774.60
494.08	20886.94
494.25	21294.19
494.43	20737.15
494.61	21322.28
494.79	21387.82
494.96	21467.39
495.14	21333.98
495.32	21902.73
495.49	21855.92
495.67	21860.60
495.85	21881.67
496.02	22171.89
496.20	22326.37
496.38	22403.61
496.55	22382.54
496.73	23002.78
496.91	22836.61
497.09	22735.96
497.26	22789.80
497.44	23110.45
497.62	23051.94
497.79	23623.03
497.97	23178.33
498.14	23484.94
498.32	23880.49
498.50	23590.26
498.67	24091.13
498.85	23967.09
499.03	24372.00
499.20	24367.32
499.38	24114.54
499.56	24264.33
499.73	24474.98
499.91	24648.18
500.08	24985.22
500.26	24744.14
500.44	24865.85
500.61	24613.07
500.79	24840.11
500.97	25212.25
501.14	25563.33
501.32	25385.45
501.49	25387.79
501.67	25542.27
501.84	25589.08
502.02	25289.49
502.20	25804.41
502.37	25963.56
502.55	25900.37
502.72	25949.52
502.90	25738.87
503.07	25961.22
503.25	26499.55
503.43	26167.19
503.60	26625.93
503.78	26546.36
503.95	26111.02
504.13	26677.43
504.30	26771.05
504.48	26841.26
504.65	26988.72
504.83	27206.39
505.01	27115.11
505.18	27089.36
505.36	27379.59
505.53	27246.18
505.71	26867.01
505.88	27786.84
506.06	27304.69
506.23	27573.85
506.41	27763.43
506.58	27852.38
506.76	27648.75
506.93	27831.31
507.11	27943.66
507.28	28329.84
507.46	28219.84
507.63	28259.63
507.81	28393.04
507.98	28493.68
508.16	28112.17
508.33	28601.35
508.50	28701.99
508.68	28683.27
508.85	29385.43
509.03	29048.39
509.20	29174.78
509.38	29558.63
509.55	29270.74
509.73	29116.26
509.90	30115.67
510.08	29626.50
510.25	29371.38
510.42	29745.87
510.60	29708.42
510.77	29874.60
510.95	29951.84
511.12	30148.44
511.30	29963.54
511.47	30136.74
511.64	29940.13
511.82	30724.21
511.99	30422.28
512.17	30415.26
512.34	30356.75
512.51	30906.77
512.69	30733.57
512.86	31058.91
513.04	31021.46
513.21	30988.69
513.38	31157.21
513.56	31112.74
513.73	31094.02
513.90	31175.94
514.08	31157.21
514.25	31466.16
514.43	31498.93
514.60	31358.50
514.77	31292.96
514.95	31789.16
515.12	31936.61
515.29	31648.72
515.47	32652.81
515.64	32378.97
515.81	31707.24
515.99	32151.94
516.16	32505.36
516.33	32292.37
516.51	32346.20
516.68	32245.56
516.85	32655.15
517.03	32746.44
517.20	32734.73
517.37	32966.45
517.54	32762.82
517.72	32982.83
517.89	32636.43
518.06	33102.20
518.24	33125.60
518.41	33137.30
518.58	33394.76
518.75	33294.12
518.93	33703.71
519.10	33237.95
519.27	33567.96
519.45	33656.90
519.62	33825.42
519.79	33935.43
519.96	33549.24
520.14	33724.78
520.31	33909.68
520.48	34183.52
520.65	33818.40
520.83	34405.88
521.00	34408.22
521.17	34354.38
521.34	34464.39
521.52	34504.18
521.69	34532.26
521.86	34717.17
522.03	34742.91
522.20	34749.93
522.38	35051.86
522.55	35061.22
522.72	34799.08
522.89	35187.61
523.07	35335.07
523.24	35557.42
523.41	35311.66
523.58	35044.84
523.75	35646.36
523.92	35255.49
524.10	35452.09
524.27	35681.47
524.44	35782.11
524.61	35608.91
524.78	35739.98
524.96	36285.33
525.13	35805.52
525.30	36191.70
525.47	36472.57
525.64	35824.24
525.81	36760.45
525.98	36219.79
526.16	36477.25
526.33	36453.84
526.50	36580.23
526.67	36397.67
526.84	36596.62
527.01	36503.00
527.18	36669.17
527.36	37228.56
527.53	36760.45
527.70	37759.86
527.87	37411.12
528.04	37331.54
528.21	37612.41
528.38	37015.57
528.55	37537.51
528.72	37350.27
528.89	37397.08
529.07	37034.30
529.24	37053.02
529.41	37633.47
529.58	37600.71
529.75	37673.26
529.92	37560.92
530.09	37923.70
530.26	37827.74
530.43	37699.01
530.60	37656.88
530.77	37673.26
530.94	38302.87
531.11	37804.33
531.28	37937.74
531.46	38366.06
531.63	38277.12
531.80	37951.79
531.97	38171.80
532.14	38581.39
532.31	38553.30
532.48	38951.20
532.65	38897.36
532.82	38831.83
532.99	38405.85
533.16	38878.64
533.33	38796.72
533.50	38726.50
533.67	39295.25
533.84	38328.61
534.01	39388.88
534.18	38878.64
534.35	39159.50
534.52	39248.44
534.69	39578.46
534.86	39529.31
535.03	39262.49
535.20	39377.17
535.37	39414.62
535.54	40116.78
535.71	38913.75
535.88	39569.10
536.05	39524.63
536.22	39660.38
536.38	39943.58
536.55	39452.07
536.72	39831.24
536.89	39901.45
537.06	39660.38
537.23	40397.65
537.40	40226.79
537.57	40091.04
537.74	39922.52
537.91	40168.27
538.08	40243.17
538.25	39454.41
538.42	40348.50
538.59	40685.53
538.75	40437.44
538.92	41092.79
539.09	40870.43
539.26	40177.64
539.43	40821.28
539.60	40580.21
539.77	40669.15
539.94	40961.72
540.11	40840.01
540.28	40933.63
540.44	40968.74
540.61	40811.92
540.78	40772.13
540.95	40837.67
541.12	40442.12
541.29	41048.32
541.46	40933.63
541.62	40973.42
541.79	41514.08
541.96	40804.90
542.13	41158.32
542.30	41191.09
542.47	41303.43
542.63	41743.45
542.80	41928.36
542.97	41949.42
543.14	41476.63
543.31	41736.43
543.48	41984.53
543.64	42316.89
543.81	42185.82
543.98	42136.66
544.15	42160.07
544.32	42183.48
544.48	42375.40
544.65	41989.21
544.82	42499.45
544.99	42047.72
545.16	41998.57
545.32	42691.37
545.49	43131.39
545.66	42426.89
545.83	42955.85
546.00	42672.65
546.16	42347.31
546.33	42211.56
546.50	42525.19
546.67	42689.03
546.83	42632.86
547.00	42817.76
547.17	42562.64
547.34	42799.04
547.50	42941.81
547.67	43138.41
547.84	43133.73
548.00	43332.68
548.17	43665.03
548.34	43253.10
548.51	43627.59
548.67	43468.43
548.84	43199.27
549.01	43222.67
549.18	43122.03
549.34	43728.23
549.51	43480.13
549.68	43487.15
549.84	43667.37
550.01	43721.21
550.18	43709.50
550.34	43812.49
550.51	43934.20
550.68	43943.56
550.84	43388.85
551.01	44100.37
551.18	43789.08
551.34	43512.90
551.51	43775.04
551.68	43805.47
551.84	43522.26
552.01	43634.61
552.18	44278.25
552.34	44119.10
552.51	43522.26
552.68	43847.60
552.84	43620.56
553.01	44177.61
553.18	43978.67
553.34	44144.84
553.51	44163.57
553.67	44189.31
553.84	44243.15
554.01	44215.06
554.17	44360.17
554.34	44603.59
554.51	44596.57
554.67	44659.76
554.84	44381.24
555.00	45050.63
555.17	44786.15
555.33	44856.37
555.50	44575.50
555.67	44973.39
555.83	44444.43
556.00	44783.81
556.16	45158.30
556.33	45488.31
556.50	45216.81
556.66	44814.24
556.83	44835.30
556.99	44849.35
557.16	45265.96
557.32	44863.39
557.49	45755.13
557.65	44964.03
557.82	45198.09
557.98	45287.03
558.15	45106.80
558.32	45127.87
558.48	45303.41
558.65	45095.10
558.81	45336.18
558.98	44842.32
559.14	45481.29
559.31	45282.34
559.47	45425.12
559.64	45766.84
559.80	45731.73
559.97	45654.49
560.13	45612.36
560.30	45577.25
560.46	45886.20
560.63	46073.45
560.79	45703.64
560.96	46171.75
561.12	45736.41
561.29	46101.53
561.45	46014.93
561.61	45373.63
561.78	45633.42
561.94	45455.54
562.11	46225.58
562.27	46003.23
562.44	45689.60
562.60	45921.31
562.77	45696.62
562.93	45647.47
563.10	46209.20
563.26	45944.72
563.42	46335.59
563.59	46251.33
563.75	46279.41
563.92	46113.23
564.08	45752.79
564.24	46452.61
564.41	46225.58
564.57	46433.89
564.74	46248.99
564.90	45916.63
565.07	45890.88
565.23	46089.83
565.39	46167.07
565.56	46164.73
565.72	46366.01
565.88	45872.16
566.05	46157.70
566.21	46284.09
566.38	46330.90
566.54	46487.72
566.70	46522.83
566.87	46127.28
567.03	46298.14
567.19	46845.82
567.36	46377.72
567.52	46799.01
567.68	46607.09
567.85	46513.47
568.01	46590.70
568.17	46260.69
568.34	46452.61
568.50	46672.62
568.66	46277.07
568.83	46319.20
568.99	46108.55
569.15	46749.86
569.32	46431.55
569.48	46988.60
569.64	46904.34
569.81	46710.07
569.97	46738.16
570.13	46920.72
570.30	46328.56
570.46	46834.12
570.62	46761.56
570.78	46784.97
570.95	46623.47
571.11	47168.82
571.27	46883.27
571.43	46993.28
571.60	46979.23
571.76	46717.09
571.92	46412.82
572.09	46628.15
572.25	46880.93
572.41	46588.36
572.57	46946.47
572.74	47646.29
572.90	47063.49
573.06	47007.32
573.22	47140.73
573.38	47054.13
573.55	47028.38
573.71	47175.84
573.87	47014.34
574.03	46780.29
574.20	47327.97
574.36	47054.13
574.52	46969.87
574.68	47222.65
574.84	47199.24
575.01	47253.08
575.17	47334.99
575.33	46897.31
575.49	46937.10
575.65	47302.23
575.82	46878.59
575.98	46995.62
576.14	47199.24
576.30	47161.79
576.46	47320.95
576.62	46813.05
576.79	47491.81
576.95	46405.80
577.11	46909.02
577.27	47028.38
577.43	47264.78
577.59	47037.75
577.75	46869.23
577.92	46693.69
578.08	47030.72
578.24	46941.78
578.40	47487.13
578.56	47168.82
578.72	47295.21
578.88	47742.25
579.04	47100.94
579.21	47248.39
579.37	47250.74
579.53	47320.95
579.69	47196.90
579.85	47241.37
580.01	47435.64
580.17	47377.12
580.33	47683.73
580.49	47318.61
580.65	47229.67
580.82	47578.41
580.98	46810.71
581.14	47196.90
581.30	47686.07
581.46	47110.30
581.62	47243.71
581.78	47007.32
581.94	47482.45
582.10	47320.95
582.26	47606.50
582.42	47470.75
582.58	47068.17
582.74	47730.54
582.90	47152.43
583.06	47704.80
583.22	47129.03
583.38	47384.15
583.54	47594.79
583.70	47569.05
583.86	47063.49
584.02	47040.09
584.18	47899.06
584.34	47377.12
584.50	47894.38
584.66	47398.19
584.82	47313.93
584.98	47613.52
585.14	47452.02
585.30	47407.55
585.46	47096.26
585.62	47468.40
585.78	47632.24
585.94	47367.76
586.10	47405.21
586.26	46920.72
586.42	47440.32
586.58	47756.29
586.74	47346.70
586.90	47817.14
587.06	47402.87
587.22	47388.83
587.38	47157.11
587.54	47629.90
587.70	47725.86
587.86	47800.76
588.02	47454.36
588.18	47604.16
588.34	47571.39
588.49	47889.70
588.65	47777.36
588.81	47435.64
588.97	47643.94
589.13	47576.07
589.29	47557.35
589.45	47749.27
589.61	47587.77
589.77	48088.65
589.93	47484.79
590.08	47913.11
590.24	47639.26
590.40	48271.21
590.56	47945.87
590.72	48198.65
590.88	47688.42
591.04	47601.82
591.20	48484.20
591.35	48254.82
591.51	48296.95
591.67	47775.02
591.83	48327.38
591.99	47845.23
592.15	47690.76
592.31	47875.66
592.46	47599.47
592.62	47976.30
592.78	48151.84
592.94	47952.90
593.10	47973.96
593.26	48690.16
593.41	48219.72
593.57	48156.52
593.73	48350.79
593.89	48594.20
594.05	48505.26
594.20	48158.86
594.36	48633.99
594.52	48531.01
594.68	48280.57
594.84	47838.21
594.99	48341.42
595.15	48182.27
595.31	48301.64
595.47	48212.70
595.62	47819.49
595.78	47812.46
595.94	48191.63
596.10	48179.93
596.25	48053.54
596.41	48027.79
596.57	48126.10
596.73	48523.99
596.88	48254.82
597.04	47920.13
597.20	48112.05
597.36	47929.49
597.51	48313.34
597.67	48507.60
597.83	48341.42
597.99	48252.48
598.14	47962.26
598.30	47786.72
598.46	48135.46
598.61	48711.23
598.77	48177.59
598.93	48477.18
599.09	48542.71
599.24	48751.02
599.40	48423.34
599.56	48488.88
599.71	48854.00
599.87	48734.63
600.03	48933.58
600.18	48343.77
600.34	48339.08
600.50	48460.79
600.65	48250.14
600.81	48484.20
600.97	48535.69
601.12	48842.30
601.28	48105.03
601.44	48273.55
601.59	48587.18
601.75	48535.69
601.91	48655.06
602.06	48095.67
602.22	48594.20
602.37	48624.63
602.53	48266.53
602.69	48535.69
602.84	48130.78
603.00	48479.52
603.16	48226.74
603.31	48671.44
603.47	48208.01
603.62	48662.08
603.78	48559.09
603.94	48591.86
604.09	48376.53
604.25	48357.81
604.40	48332.06
604.56	48568.46
604.71	48615.27
604.87	48580.16
605.03	48226.74
605.18	48526.33
605.34	48421.00
605.49	48151.84
605.65	48465.47
605.80	48339.08
605.96	48009.07
606.12	48425.68
606.27	48254.82
606.43	48184.61
606.58	48083.97
606.74	48133.12
606.89	48240.78
607.05	48610.59
607.20	48306.32
607.36	48123.75
607.51	47667.35
607.67	48191.63
607.82	48025.45
607.98	48215.04
608.13	47805.44
608.29	48233.76
608.44	48481.86
608.60	47735.23
608.75	48322.70
608.91	47903.74
609.06	47934.17
609.22	48456.11
609.37	47931.83
609.53	48467.81
609.68	48540.37
609.84	48313.34
609.99	48039.50
610.15	48114.39
610.30	48423.34
610.46	48018.43
610.61	48219.72
610.76	48538.03
610.92	47882.68
611.07	47693.10
611.23	47828.85
611.38	47980.98
611.54	48004.39
611.69	48027.79
611.84	47732.89
612.00	47992.68
612.15	47866.30
612.31	48090.99
612.46	47480.11
612.62	47690.76
612.77	48177.59
612.92	48053.54
613.08	47861.61
613.23	48009.07
613.39	47948.21
613.54	47590.11
613.69	47943.53
613.85	47952.90
614.00	47576.07
614.15	47943.53
614.31	47615.86
614.46	47913.11
614.62	47386.49
614.77	47599.47
614.92	48016.09
615.08	47529.26
615.23	48002.05
615.38	47746.93
615.54	47185.20
615.69	48165.88
615.84	47690.76
616.00	47622.88
616.15	47395.85
616.30	47585.43
616.46	47636.92
616.61	47449.68
616.76	47344.36
616.92	47302.23
617.07	47583.09
617.22	47650.97
617.37	46983.91
617.53	47433.30
617.68	47194.56
617.83	47309.25
617.99	47847.57
618.14	47210.95
618.29	47091.58
618.45	47297.55
618.60	47140.73
618.75	46927.74
618.90	47119.66
619.06	47313.93
619.21	47208.61
619.36	47515.22
619.51	47154.77
619.67	46571.98
619.82	46815.40
619.97	47454.36
620.12	47089.24
620.28	46749.86
620.43	47143.07
620.58	47019.02
620.73	46880.93
620.89	47278.82
621.04	46909.02
621.19	47257.76
621.34	46787.31
621.49	46829.44
621.65	46417.50
621.80	47360.74
621.95	46876.25
622.10	47332.65
622.25	46990.94
622.41	46710.07
622.56	46890.29
622.71	46930.08
622.86	46728.80
623.01	47103.28
623.16	46632.83
623.32	46630.49
623.47	46803.69
623.62	46869.23
623.77	46719.43
623.92	46787.31
624.07	46550.91
624.23	46450.27
624.38	46583.68
624.53	46197.49
624.68	46305.16
624.83	46440.91
624.98	46909.02
625.13	46003.23
625.29	46450.27
625.44	46258.35
625.59	46183.45
625.74	45942.38
625.89	46124.94
626.04	46141.32
626.19	45715.34
626.34	45759.81
626.49	46286.43
626.65	45865.14
626.80	46036.00
626.95	45799.60
627.10	45897.91
627.25	46543.89
627.40	46279.41
627.55	46232.60
627.70	45731.73
627.85	46176.43
628.00	46066.42
628.15	45986.85
628.30	45600.66
628.45	45497.67
628.60	45684.92
628.76	45689.60
628.91	45514.06
629.06	45659.17
629.21	45333.84
629.36	45141.91
629.51	45490.65
629.66	46057.06
629.81	45607.68
629.96	45888.54
630.11	45303.41
630.26	45460.23
630.41	45567.89
630.56	45406.39
630.71	45818.33
630.86	45539.80
631.01	45198.09
631.16	45443.84
631.31	45272.98
631.46	45127.87
631.61	45944.72
631.76	45394.69
631.91	45565.55
632.06	45958.76
632.21	45930.67
632.36	45483.63
632.51	45191.06
632.66	45125.53
632.81	45488.31
632.96	45029.57
633.10	44875.09
633.25	45090.42
633.40	44905.52
633.55	45244.90
633.70	45261.28
633.85	44474.86
634.00	44729.98
634.15	45153.62
634.30	44957.01
634.45	44692.53
634.60	44753.38
634.75	45125.53
634.90	45045.95
635.05	45280.00
635.19	45209.79
635.34	45155.96
635.49	44626.99
635.64	44910.20
635.79	45088.08
635.94	44818.92
636.09	44905.52
636.24	44456.14
636.39	44538.05
636.53	44713.59
636.68	44666.78
636.83	44004.41
636.98	44388.26
637.13	44463.16
637.28	44105.06
637.43	44601.25
637.57	44126.12
637.72	44172.93
637.87	44404.64
638.02	44486.56
638.17	44109.74
638.32	44212.72
638.46	43913.13
638.61	44060.58
638.76	43875.68
638.91	44027.82
639.06	44662.10
639.20	43737.59
639.35	43641.63
639.50	43983.35
639.65	44222.08
639.80	44107.40
639.94	44594.23
640.09	44051.22
640.24	44322.72
640.39	43866.32
640.54	43730.57
640.68	43894.41
640.83	43915.47
640.98	43995.05
641.13	43522.26
641.27	43882.70
641.42	43922.49
641.57	43789.08
641.72	44182.29
641.86	43690.78
642.01	43702.48
642.16	43863.98
642.31	43285.87
642.45	43320.98
642.60	43618.22
642.75	43650.99
642.90	43934.20
643.04	43725.89
643.19	43246.08
643.34	43381.83
643.48	43229.69
643.63	43217.99
643.78	43466.09
643.93	43236.72
644.07	43098.62
644.22	43786.74
644.37	43103.31
644.51	43543.33
644.66	43613.54
644.81	43487.15
644.95	43529.28
645.10	43590.14
645.25	42740.52
645.39	42887.98
645.54	42857.55
645.69	43009.68
645.83	42902.02
645.98	42583.71
646.13	42703.07
646.27	42754.57
646.42	42342.63
646.57	42834.14
646.71	42946.49
646.86	43042.45
647.00	42532.22
647.15	42859.89
647.30	42614.13
647.44	42745.20
647.59	42813.08
647.74	42508.81
647.88	42733.50
648.03	43040.11
648.17	42852.87
648.32	42986.28
648.47	43405.23
648.61	42021.98
648.76	42759.25
648.90	42403.49
649.05	42344.97
649.20	42679.67
649.34	42462.00
649.49	42768.61
649.63	42862.23
649.78	42604.77
649.92	42344.97
650.07	42780.31
650.21	42576.69
650.36	42717.12
650.51	42541.58
650.65	42609.45
650.80	42806.06
650.94	42433.91
651.09	42171.77
651.23	41701.32
651.38	41937.72
651.52	41654.51
651.67	41944.74
651.81	42213.90
651.96	41951.76
652.10	41741.11
652.25	41525.78
652.39	41544.51
652.54	41984.53
652.68	42227.95
652.83	41954.10
652.97	41982.19
653.12	41565.57
653.26	41694.30
653.41	41471.95
653.55	41757.50
653.70	42199.86
653.84	42089.85
653.99	41794.95
654.13	41773.88
654.27	41741.11
654.42	41783.24
654.56	41598.34
654.71	41759.84
654.85	41914.31
655.00	41738.77
655.14	41682.60
655.29	42019.64
655.43	41661.54
655.57	41801.97
655.72	41205.13
655.86	41127.89
656.01	41132.57
656.15	41258.96
656.30	40765.11
656.44	40985.12
656.58	41205.13
656.73	41221.52
656.87	41024.91
657.01	41280.03
657.16	41420.46
657.30	41333.86
657.45	41240.24
657.59	40978.10
657.73	40566.16
657.88	41001.50
658.02	41230.88
658.16	41230.88
658.31	40959.38
658.45	41205.13
658.60	40739.36
658.74	40694.89
658.88	40870.43
659.03	40638.72
659.17	40465.52
659.31	40280.62
659.46	40711.28
659.60	40587.23
659.74	40884.48
659.89	40060.61
660.03	40027.84
660.17	40341.47
660.32	40589.57
660.46	40521.69
660.60	39931.88
660.74	39817.19
660.89	39889.75
661.03	39817.19
661.17	39786.77
661.32	39688.46
661.46	39824.22
661.60	39405.26
661.74	39873.37
661.89	39643.99
662.03	39175.89
662.17	39496.54
662.31	39332.70
662.46	39456.75
662.60	39910.82
662.74	39173.55
662.88	39042.48
663.03	39257.81
663.17	39122.05
663.31	39122.05
663.45	39433.35
663.60	39494.20
663.74	39250.78
663.88	38756.93
664.02	39215.68
664.17	39035.45
664.31	38955.88
664.45	38410.53
664.59	38817.78
664.73	38534.58
664.88	39229.72
665.02	38213.93
665.16	38511.17
665.30	38667.99
665.44	38747.57
665.59	38143.71
665.73	37825.40
665.87	37933.06
666.01	38403.51
666.15	38003.28
666.29	38108.60
666.44	37804.33
666.58	37904.98
666.72	37867.53
666.86	37809.01
667.00	37811.35
667.14	37401.76
667.28	37699.01
667.43	37560.92
667.57	37710.71
667.71	37724.75
667.85	37621.77
667.99	37696.67
668.13	37319.84
668.27	37038.98
668.41	36907.91
668.56	36762.79
668.70	36884.50
668.84	36954.72
668.98	36746.41
669.12	36900.89
669.26	36865.78
669.40	36856.42
669.54	36835.35
669.68	36467.89
669.82	36645.77
669.96	36563.85
670.10	36353.20
670.25	36156.60
670.39	36126.17
670.53	36718.32
670.67	36517.04
670.81	36641.09
670.95	36451.50
671.09	36121.49
671.23	35761.05
671.37	35739.98
671.51	35800.83
671.65	36175.32
671.79	35480.18
671.93	35751.68
672.07	35672.10
672.21	35915.52
672.35	35211.02
672.49	35358.47
672.63	35655.72
672.77	35335.07
672.91	35126.76
673.05	35180.59
673.19	34244.38
673.33	34951.22
673.47	34988.67
673.61	34756.96
673.75	34581.42
673.89	34426.94
674.03	34455.03
674.17	34515.88
674.31	33865.21
674.45	34136.71
674.59	34309.91
674.73	34469.07
674.87	33811.38
675.01	33722.44
675.15	33757.55
675.29	33434.55
675.43	33603.07
675.56	33968.19
675.70	33661.58
675.84	33523.49
675.98	32266.63
676.12	33469.66
676.26	33528.17
676.40	33160.71
676.54	32985.17
676.68	32987.51
676.82	32364.93
676.96	32783.88
677.10	32975.81
677.23	32781.54
677.37	32575.58
677.51	32498.34
677.65	32383.65
677.79	32240.88
677.93	31992.78
678.07	32072.36
678.21	31424.03
678.34	31552.76
678.48	31622.98
678.62	31557.44
678.76	31288.28
678.90	31187.64
679.04	30930.18
679.18	31676.81
679.31	31400.63
679.45	30670.38
679.59	30904.43
679.73	30866.98
679.87	30272.49
680.00	30478.46
680.14	30852.94
680.28	30590.80
680.42	30352.07
680.56	29989.28
680.70	30113.33
680.83	29635.86
680.97	29993.97
681.11	30302.92
681.25	29331.59
681.39	29551.60
681.52	29687.36
681.66	29528.20
681.80	28437.51
681.94	29083.50
682.07	28849.44
682.21	28973.49
682.35	28851.78
682.49	28809.65
682.62	28779.23
682.76	28971.15
682.90	28521.77
683.04	28568.58
683.17	28512.41
683.31	28379.00
683.45	28198.77
683.59	28044.30
683.72	27974.08
683.86	28002.17
684.00	27814.93
684.13	27854.72
684.27	27498.95
684.41	27723.65
684.55	27278.94
684.68	27292.99
684.82	27154.90
684.96	26927.86
685.09	27105.74
685.23	27136.17
685.37	27524.70
685.50	27435.76
685.64	26859.99
685.78	26565.08
685.91	26590.83
686.05	26391.88
686.19	25982.29
686.32	26075.91
686.46	26022.08
686.60	25352.68
686.73	25713.13
686.87	26061.87
687.01	26019.74
687.14	25795.04
687.28	25652.27
687.42	25340.98
687.55	25268.42
687.69	25245.02
687.82	25102.25
687.96	25130.33
688.10	24797.98
688.23	24346.25
688.37	25003.94
688.50	24978.20
688.64	24702.01
688.78	24381.36
688.91	24545.20
689.05	24383.70
689.18	24299.44
689.32	23723.67
689.46	23711.97
689.59	24121.56
689.73	24177.73
689.86	24379.02
690.00	23831.33
690.13	23672.18
690.27	23426.42
690.41	23494.30
690.54	23367.91
690.68	23108.11
690.81	23098.75
690.95	23192.37
691.08	22691.49
691.22	22441.06
691.35	22892.78
691.49	22808.52
691.62	22405.95
691.76	22185.94
691.89	22188.28
692.03	22108.70
692.16	21937.84
692.30	21928.48
692.43	21827.84
692.57	21867.63
692.70	22164.87
692.84	21799.75
692.97	21654.64
693.11	21516.54
693.24	21207.59
693.38	21434.63
693.51	21172.49
693.65	21027.37
693.78	20996.95
693.92	20709.06
694.05	20851.83
694.19	20676.29
694.32	20718.42
694.45	21118.65
694.59	20739.49
694.72	20528.84
694.86	20610.76
694.99	20257.34
695.13	19953.07
695.26	19754.12
695.39	19520.07
695.53	20025.62
695.66	19917.96
695.80	19550.49
695.93	19538.79
696.07	19213.46
696.20	19304.74
696.33	19115.16
696.47	19042.60
696.60	19168.99
696.73	19276.65
696.87	19110.47
697.00	19286.01
697.14	18848.33
697.27	18457.46
697.40	18623.64
697.54	18586.19
697.67	18405.97
697.80	18679.82
697.94	18251.50
698.07	18164.90
698.21	18071.28
698.34	17980.00
698.47	17947.23
698.61	17678.07
698.74	17703.81
698.87	17649.98
699.01	17530.61
699.14	17909.78
699.27	17664.02
699.40	17357.41
699.54	17118.68
699.67	17303.58
699.80	17228.68
699.94	16809.73
700.07	17277.83
700.20	17036.76
700.34	16854.20
700.47	16908.03
700.60	17132.72
700.73	16578.01
700.87	16681.00
701.00	16240.98
701.13	16442.26
701.26	16390.77
701.40	16042.03
701.53	16154.38
701.66	16009.26
701.79	15946.07
701.93	15864.15
702.06	15449.88
702.19	15580.95
702.32	15709.68
702.46	15742.44
702.59	15815.00
702.72	15716.70
702.85	15484.98
702.99	15358.60
703.12	15199.44
703.25	14967.73
703.38	15194.76
703.51	15110.50
703.65	14600.26
703.78	14518.34
703.91	14602.60
704.04	14759.42
704.17	14609.62
704.31	14450.47
704.44	14441.11
704.57	14637.71
704.70	14508.98
704.83	14073.64
704.96	14286.63
705.10	14181.31
705.23	14087.68
>>>>>End Processed Spectral Data<<<<<
