SpectraSuite Data File
++++++++++++++++++++++++++++++++++++
Date: Fri Oct 25 11:33:34 EDT 2013
User: price-jones
Dark Spectrum Present: No
Reference Spectrum Present: No
Number of Sampled Component Spectra: 1
Spectrometers: USB2+H05261
Integration Time (usec): 100000 (USB2+H05261)
Spectra Averaged: 1 (USB2+H05261)
Boxcar Smoothing: 0 (USB2+H05261)
Correct for Electrical Dark: No (USB2+H05261)
Strobe/Lamp Enabled: No (USB2+H05261)
Correct for Detector Non-linearity: No (USB2+H05261)
Correct for Stray Light: No (USB2+H05261)
Number of Pixels in Processed Spectrum: 2048
>>>>>Begin Processed Spectral Data<<<<<
365.73	259.80
365.92	259.80
366.12	259.80
366.32	257.46
366.52	194.26
366.72	182.56
366.91	262.14
367.11	198.95
367.31	135.75
367.51	187.24
367.70	201.29
367.90	135.75
368.10	163.84
368.30	166.18
368.49	168.52
368.69	170.86
368.89	203.63
369.09	245.76
369.28	191.92
369.48	259.80
369.68	278.52
369.87	203.63
370.07	212.99
370.27	248.10
370.47	313.63
370.66	510.24
370.86	543.00
371.06	559.39
371.25	528.96
371.45	545.34
371.65	599.18
371.84	571.09
372.04	601.52
372.24	603.86
372.44	543.00
372.63	547.69
372.83	573.43
373.03	606.20
373.22	664.71
373.42	620.24
373.62	678.76
373.81	613.22
374.01	681.10
374.21	704.50
374.40	667.05
374.60	624.92
374.79	650.67
374.99	653.01
375.19	678.76
375.38	671.73
375.58	657.69
375.78	641.31
375.97	725.57
376.17	727.91
376.37	662.37
376.56	718.54
376.76	697.48
376.95	709.18
377.15	690.46
377.35	704.50
377.54	765.36
377.74	734.93
377.93	692.80
378.13	676.41
378.33	674.07
378.52	697.48
378.72	798.12
378.91	702.16
379.11	662.37
379.31	713.86
379.50	688.12
379.70	746.63
379.89	730.25
380.09	683.44
380.28	711.52
380.48	678.76
380.68	739.61
380.87	791.10
381.07	751.31
381.26	807.48
381.46	826.21
381.65	763.01
381.85	788.76
382.04	791.10
382.24	765.36
382.43	798.12
382.63	823.87
382.83	786.42
383.02	746.63
383.22	791.10
383.41	835.57
383.61	870.68
383.80	880.04
384.00	805.14
384.19	809.83
384.39	826.21
384.58	854.30
384.78	814.51
384.97	812.17
385.17	840.25
385.36	858.98
385.56	875.36
385.75	884.72
385.95	844.93
386.14	805.14
386.34	931.53
386.53	840.25
386.72	847.27
386.92	866.00
387.11	828.55
387.31	870.68
387.50	908.13
387.70	973.66
387.89	889.40
388.09	929.19
388.28	931.53
388.48	854.30
388.67	912.81
388.86	915.15
389.06	971.32
389.25	887.06
389.45	919.83
389.64	943.24
389.84	1022.81
390.03	1050.90
390.22	964.30
390.42	952.60
390.61	910.47
390.81	1004.09
391.00	997.07
391.19	1034.52
391.39	1046.22
391.58	1064.94
391.78	997.07
391.97	929.19
392.16	1008.77
392.36	1006.43
392.55	1048.56
392.75	1053.24
392.94	1125.80
393.13	1100.05
393.33	1095.37
393.52	1114.10
393.71	1104.73
393.91	1067.28
394.10	1013.45
394.29	1121.12
394.49	1050.90
394.68	1151.54
394.88	1090.69
395.07	1184.31
395.26	1167.93
395.46	1130.48
395.65	1146.86
395.84	1256.87
396.04	1158.57
396.23	1212.40
396.42	1212.40
396.62	1137.50
396.81	1235.80
397.00	1214.74
397.19	1128.14
397.39	1289.64
397.58	1315.38
397.77	1228.78
397.97	1188.99
398.16	1303.68
398.35	1345.81
398.55	1217.08
398.74	1376.24
398.93	1308.36
399.12	1322.40
399.32	1259.21
399.51	1390.28
399.70	1313.04
399.90	1254.53
400.09	1277.93
400.28	1409.00
400.47	1411.34
400.67	1331.76
400.86	1434.75
401.05	1425.39
401.24	1331.76
401.44	1416.02
401.63	1507.30
401.82	1519.01
402.01	1366.87
402.21	1483.90
402.40	1483.90
402.59	1519.01
402.78	1519.01
402.97	1479.22
403.17	1476.88
403.36	1610.29
403.55	1556.46
403.74	1523.69
403.93	1563.48
404.13	1657.10
404.32	1474.54
404.51	1572.84
404.70	1652.42
404.89	1654.76
405.09	1696.89
405.28	1596.25
405.47	1619.65
405.66	1645.40
405.85	1717.95
406.05	1685.19
406.24	1699.23
406.43	1673.48
406.62	1790.51
406.81	1849.02
407.00	1781.15
407.20	1746.04
407.39	1783.49
407.58	1760.08
407.77	1863.07
407.96	1902.86
408.15	1870.09
408.34	1823.28
408.54	1916.90
408.73	1940.30
408.92	1954.35
409.11	1940.30
409.30	2076.06
409.49	2047.97
409.68	1944.99
409.87	1944.99
410.07	2043.29
410.26	2080.74
410.45	2059.67
410.64	2054.99
410.83	2146.27
411.02	2125.21
411.21	2160.31
411.40	2134.57
411.59	2155.63
411.78	2200.10
411.98	2256.28
412.17	2125.21
412.36	2230.53
412.55	2324.15
412.74	2366.28
412.93	2324.15
413.12	2263.30
413.31	2363.94
413.50	2286.70
413.69	2443.52
413.88	2504.37
414.07	2555.86
414.26	2537.14
414.45	2597.99
414.64	2415.43
414.83	2558.21
415.02	2656.51
415.22	2710.34
415.41	2670.55
415.60	2602.68
415.79	2672.89
415.98	2808.64
416.17	2700.98
416.36	2724.38
416.55	2663.53
416.74	2867.16
416.93	2778.22
417.12	2878.86
417.31	2825.03
417.50	3014.61
417.69	3007.59
417.88	3038.02
418.07	2972.48
418.26	2946.73
418.45	3005.25
418.64	3014.61
418.83	3005.25
419.02	3136.32
419.21	3094.19
419.39	3155.04
419.58	3066.10
419.77	3136.32
419.96	3159.72
420.15	3185.47
420.34	3241.64
420.53	3206.53
420.72	3094.19
420.91	3112.91
421.10	3206.53
421.29	3274.41
421.48	3297.81
421.67	3361.01
421.86	3386.76
422.05	3358.67
422.24	3300.16
422.43	3372.71
422.61	3349.31
422.80	3428.88
422.99	3431.23
423.18	3321.22
423.37	3452.29
423.56	3255.69
423.75	3501.44
423.94	3211.22
424.13	3248.66
424.32	3276.75
424.50	3417.18
424.69	3379.73
424.88	3588.04
425.07	3300.16
425.26	3335.26
425.45	3318.88
425.64	3531.87
425.83	3510.80
426.01	3545.91
426.20	3412.50
426.39	3424.20
426.58	3513.14
426.77	3559.95
426.96	3473.36
427.15	3527.19
427.33	3499.10
427.52	3623.15
427.71	3672.30
427.90	3576.34
428.09	3616.13
428.28	3428.88
428.46	3765.92
428.65	3641.87
428.84	3786.99
429.03	3798.69
429.22	3716.77
429.40	3836.14
429.59	3768.26
429.78	3595.06
429.97	3576.34
430.16	3786.99
430.34	3700.39
430.53	3791.67
430.72	4002.32
430.91	3791.67
431.10	4025.72
431.28	3880.61
431.47	3988.27
431.66	4060.83
431.85	3997.64
432.03	3962.53
432.22	4058.49
432.41	4004.66
432.60	3974.23
432.79	4032.74
432.97	4184.88
433.16	4032.74
433.35	3957.85
433.54	4173.18
433.72	4180.20
433.91	4159.13
434.10	4093.60
434.28	4227.01
434.47	4119.34
434.66	4301.90
434.85	4372.12
435.03	4322.97
435.22	4297.22
435.41	4411.91
435.59	4425.95
435.78	4411.91
435.97	4404.89
436.16	4414.25
436.34	4311.27
436.53	4557.02
436.72	4545.32
436.90	4367.44
437.09	4454.04
437.28	4444.68
437.46	4564.04
437.65	4507.87
437.84	4498.51
438.02	4465.74
438.21	4629.58
438.40	4662.35
438.58	4664.69
438.77	4880.02
438.96	4636.60
439.14	4887.04
439.33	4861.29
439.52	4961.94
439.70	4882.36
439.89	5067.26
440.08	5053.22
440.26	5076.62
440.45	4929.17
440.63	4983.00
440.82	5121.09
441.01	5083.64
441.19	5121.09
441.38	5205.35
441.57	5107.05
441.75	5242.80
441.94	5605.58
442.12	5266.21
442.31	5479.19
442.50	5427.70
442.68	5411.32
442.87	5394.93
443.05	5612.60
443.24	5661.76
443.43	5577.50
443.61	5497.92
443.80	5682.82
443.98	5441.75
444.17	5334.08
444.35	5586.86
444.54	5568.13
444.73	5661.76
444.91	5706.23
445.10	5647.71
445.28	5757.72
445.47	5563.45
445.65	5643.03
445.84	5645.37
446.02	5694.52
446.21	5713.25
446.39	5689.84
446.58	5717.93
446.77	5722.61
446.95	5472.17
447.14	5668.78
447.32	5820.91
447.51	5750.70
447.69	5858.36
447.88	5764.74
448.06	5774.10
448.25	5802.19
448.43	5914.53
448.62	5799.85
448.80	5764.74
448.99	5877.09
449.17	5762.40
449.36	5802.19
449.54	6057.31
449.73	6132.20
449.91	6076.03
450.10	5947.30
450.28	6052.63
450.46	6146.25
450.65	6118.16
450.83	6001.13
451.02	6176.67
451.20	6366.26
451.39	6214.12
451.57	6225.82
451.76	6164.97
451.94	6335.83
452.13	6366.26
452.31	6223.48
452.49	6214.12
452.68	6354.55
452.86	6195.40
453.05	6455.20
453.23	6352.21
453.42	6333.49
453.60	6403.71
453.78	6366.26
453.97	6382.64
454.15	6471.58
454.34	6251.57
454.52	6417.75
454.70	6654.14
454.89	6502.01
455.07	6532.44
455.26	6593.29
455.44	6665.85
455.62	6785.21
455.81	6693.93
455.99	6675.21
456.17	6644.78
456.36	6745.42
456.54	6719.68
456.73	6839.05
456.91	7026.29
457.09	7133.95
457.28	6897.56
457.46	6853.09
457.64	7089.48
457.83	7042.67
458.01	7052.03
458.19	7143.32
458.38	7073.10
458.56	7073.10
458.74	7080.12
458.93	7204.17
459.11	7098.84
459.29	7199.49
459.48	7311.83
459.66	7295.45
459.84	7360.98
460.03	7534.18
460.21	7377.37
460.39	7398.43
460.57	7391.41
460.76	7435.88
460.94	7520.14
461.12	7576.31
461.31	7363.33
461.49	7555.25
461.67	7529.50
461.85	7550.57
462.04	7639.51
462.22	8187.19
462.40	7878.24
462.59	7651.21
462.77	7705.04
462.95	7850.16
463.13	7793.98
463.32	7747.17
463.50	7894.63
463.68	7997.61
463.86	7702.70
464.05	7873.56
464.23	7927.39
464.41	7911.01
464.59	7786.96
464.78	8142.72
464.96	7887.61
465.14	7861.86
465.32	8126.34
465.50	8086.55
465.69	8091.23
465.87	8238.69
466.05	8215.28
466.23	8070.17
466.41	8102.93
466.60	8449.33
466.78	8100.59
466.96	8241.03
467.14	8131.02
467.32	8397.84
467.51	8212.94
467.69	8255.07
467.87	8245.71
468.05	8369.76
468.23	8362.73
468.41	8332.31
468.60	8395.50
468.78	8620.19
468.96	8381.46
469.14	8655.30
469.32	8545.30
469.50	8702.11
469.69	8622.53
469.87	8664.66
470.05	8657.64
470.23	8732.54
470.41	8519.55
470.59	8837.86
470.77	8718.50
470.95	8821.48
471.14	9181.92
471.32	8954.89
471.50	8973.61
471.68	9032.13
471.86	8982.98
472.04	8968.93
472.22	9530.66
472.40	9092.98
472.58	9226.39
472.77	8964.25
472.95	9362.14
473.13	9525.98
473.31	9453.42
473.49	9528.32
473.67	9275.54
473.85	9715.56
474.03	9764.72
474.21	9507.26
474.39	9736.63
474.57	9884.08
474.75	9977.70
474.93	10186.01
475.12	9940.26
475.30	10125.16
475.48	9856.00
475.66	10146.22
475.84	10141.54
476.02	10228.14
476.20	10438.79
476.38	10668.16
476.56	10569.86
476.74	10544.11
476.92	10661.14
477.10	10321.76
477.28	10537.09
477.46	10806.25
477.64	10984.13
477.82	11108.18
478.00	11250.96
478.18	10939.66
478.36	11356.28
478.54	11529.48
478.72	11384.37
478.90	11405.43
479.08	11763.53
479.26	11508.41
479.44	11613.74
479.62	11934.39
479.80	11892.26
479.98	12098.23
480.16	11978.86
480.34	12226.96
480.52	12140.36
480.70	12248.02
480.88	12287.81
481.06	12376.75
481.24	12554.63
481.41	12702.09
481.59	13090.62
481.77	12847.20
481.95	12734.85
482.13	13263.82
482.31	13184.24
482.49	13224.03
482.67	13249.77
482.85	13415.95
483.03	13554.04
483.21	13724.90
483.39	13710.86
483.57	13757.67
483.74	13888.74
483.92	14171.94
484.10	13851.29
484.28	14295.99
484.46	14401.32
484.64	14682.18
484.82	14281.95
485.00	14579.20
485.18	15007.52
485.35	15054.33
485.53	15117.52
485.71	15220.50
485.89	15346.89
486.07	15452.22
486.25	15646.48
486.43	15733.08
486.61	15606.69
486.78	15852.45
486.96	15742.44
487.14	16320.56
487.32	16126.29
487.50	16318.22
487.68	16238.64
487.85	16606.10
488.03	16395.45
488.21	17036.76
488.39	16819.09
488.57	17116.34
488.75	17200.60
488.92	17336.35
489.10	17448.69
489.28	17706.15
489.46	17790.41
489.64	17750.62
489.81	18054.89
489.99	17963.61
490.17	18324.05
490.35	18279.58
490.53	18665.77
490.70	18691.52
490.88	18452.78
491.06	18785.14
491.24	18572.15
491.41	19164.31
491.59	19335.17
491.77	19325.80
491.95	19154.94
492.13	19541.13
492.30	19424.11
492.48	19744.76
492.66	19814.98
492.84	19555.18
493.01	20231.59
493.19	20252.66
493.37	20308.83
493.54	20215.21
493.72	20641.18
493.90	20798.00
494.08	20723.10
494.25	21008.65
494.43	20943.11
494.61	21053.12
494.79	21617.19
494.96	21048.44
495.14	21544.63
495.32	21689.74
495.49	21479.10
495.67	21846.56
495.85	21996.35
496.02	22080.61
496.20	22361.48
496.38	22061.89
496.55	22520.63
496.73	22600.21
496.91	22745.33
497.09	22768.73
497.26	23007.47
497.44	22766.39
497.62	23356.21
497.79	23508.34
497.97	23309.40
498.14	23503.66
498.32	23564.51
498.50	23831.33
498.67	23784.52
498.85	23908.57
499.03	23854.74
499.20	24163.69
499.38	23758.78
499.56	24362.64
499.73	24301.78
499.91	24491.37
500.08	24919.68
500.26	24287.74
500.44	24547.54
500.61	24952.45
500.79	24952.45
500.97	24870.53
501.14	25458.01
501.32	25202.89
501.49	25523.54
501.67	25553.97
501.84	25706.10
502.02	25766.96
502.20	25582.06
502.37	25844.20
502.55	25949.52
502.72	25589.08
502.90	25965.90
503.07	25886.32
503.25	25879.30
503.43	25986.97
503.60	26361.45
503.78	26153.15
503.95	26246.77
504.13	26373.16
504.30	26515.93
504.48	26623.59
504.65	26864.67
504.83	26778.07
505.01	27094.04
505.18	27051.91
505.36	27297.67
505.53	26927.86
505.71	27260.22
505.88	27470.87
506.06	27190.00
506.23	27513.00
506.41	27269.58
506.58	27618.32
506.76	28048.98
506.93	27971.74
507.11	27990.47
507.28	28287.71
507.46	28226.86
507.63	27983.44
507.81	28652.84
507.98	28173.03
508.16	28297.08
508.33	28875.19
508.50	28833.06
508.68	28627.09
508.85	29003.92
509.03	28690.29
509.20	29207.55
509.38	29411.17
509.55	29015.62
509.73	29273.08
509.90	29291.80
510.08	29584.37
510.25	29425.22
510.42	29542.24
510.60	29912.05
510.77	29895.66
510.95	30326.32
511.12	29954.18
511.30	29968.22
511.47	29853.53
511.64	30110.99
511.82	30345.05
511.99	30354.41
512.17	30572.08
512.34	30384.83
512.51	30944.22
512.69	30712.51
512.86	30775.70
513.04	31367.86
513.21	31089.34
513.38	31056.57
513.56	31094.02
513.73	31131.47
513.90	31133.81
514.08	31292.96
514.25	31475.52
514.43	31697.88
514.60	31491.91
514.77	31604.25
514.95	31777.45
515.12	32119.17
515.29	31531.70
515.47	31990.44
515.64	32086.40
515.81	31828.95
515.99	31859.37
516.16	32233.86
516.33	32327.48
516.51	32474.93
516.68	32346.20
516.85	32491.32
517.03	32830.69
517.20	32559.19
517.37	32725.37
517.54	32891.55
517.72	33043.68
517.89	32868.14
518.06	33123.26
518.24	32973.47
518.41	32966.45
518.58	33333.91
518.75	33207.52
518.93	33111.56
519.10	33567.96
519.27	33563.28
519.45	33340.93
519.62	34068.84
519.79	33692.01
519.96	33837.12
520.14	33799.68
520.31	34328.64
520.48	34139.05
520.65	33961.17
520.83	34401.19
521.00	34384.81
521.17	34356.72
521.34	34487.79
521.52	34796.74
521.69	34256.08
521.86	34691.42
522.03	34670.36
522.20	35047.18
522.38	34794.40
522.55	34888.03
522.72	34855.26
522.89	35103.35
523.07	35402.94
523.24	35159.53
523.41	35351.45
523.58	35503.59
523.75	35384.22
523.92	35747.00
524.10	35751.68
524.27	35695.51
524.44	35992.76
524.61	35857.01
524.78	35838.28
524.96	35885.09
525.13	36053.61
525.30	36205.75
525.47	36135.53
525.64	36215.11
525.81	36287.67
525.98	36741.73
526.16	36273.62
526.33	36362.56
526.50	37043.66
526.67	36613.00
526.84	36392.99
527.01	36247.88
527.18	36753.43
527.36	36919.61
527.53	36694.92
527.70	37170.05
527.87	37511.77
528.04	37305.80
528.21	36423.42
528.38	37043.66
528.55	37258.99
528.72	37027.28
528.89	37205.16
529.07	37324.52
529.24	37008.55
529.41	37818.38
529.58	37537.51
529.75	37504.74
529.92	37689.65
530.09	37668.58
530.26	37841.78
530.43	37876.89
530.60	37640.50
530.77	37748.16
530.94	38237.33
531.11	37741.14
531.28	38197.54
531.46	38345.00
531.63	38480.75
531.80	38153.07
531.97	38590.75
532.14	38403.51
532.31	38176.48
532.48	38965.24
532.65	38979.28
532.82	38473.73
532.99	38586.07
533.16	38483.09
533.33	38759.27
533.50	39000.35
533.67	38590.75
533.84	38342.66
534.01	39112.69
534.18	39037.80
534.35	39243.76
534.52	39241.42
534.69	39159.50
534.86	39655.70
535.03	39103.33
535.20	39222.70
535.37	39133.76
535.54	39566.76
535.71	39353.77
535.88	39742.30
536.05	39711.87
536.22	40053.59
536.38	39784.43
536.55	39400.58
536.72	40137.85
536.89	39810.17
537.06	39964.65
537.23	39999.76
537.40	39651.02
537.57	39686.12
537.74	40058.27
537.91	40084.01
538.08	39854.64
538.25	39943.58
538.42	40107.42
538.59	40481.91
538.75	40442.12
538.92	40587.23
539.09	40364.88
539.26	40465.52
539.43	40205.72
539.60	40678.51
539.77	40299.34
539.94	40959.38
540.11	40886.82
540.28	40793.20
540.44	41102.15
540.61	40776.81
540.78	40439.78
540.95	41397.06
541.12	40521.69
541.29	41034.27
541.46	41053.00
541.62	41083.42
541.79	41298.75
541.96	40793.20
542.13	40753.41
542.30	41200.45
542.47	41067.04
542.63	41280.03
542.80	41680.26
542.97	41549.19
543.14	41659.20
543.31	41816.01
543.48	41340.88
543.64	41649.83
543.81	42354.33
543.98	41923.68
544.15	42263.05
544.32	42536.90
544.48	42492.43
544.65	42251.35
544.82	42389.44
544.99	41645.15
545.16	42127.30
545.32	42230.29
545.49	42419.87
545.66	42679.67
545.83	42534.56
546.00	42415.19
546.16	42344.97
546.33	42712.44
546.50	42298.16
546.67	42689.03
546.83	42256.03
547.00	42319.23
547.17	42454.98
547.34	42637.54
547.50	43098.62
547.67	43063.52
547.84	42864.57
548.00	43271.82
548.17	43344.38
548.34	43480.13
548.51	43203.95
548.67	43138.41
548.84	43136.07
549.01	43133.73
549.18	43475.45
549.34	43124.37
549.51	43810.15
549.68	43388.85
549.84	43391.19
550.01	43473.11
550.18	42953.51
550.34	43672.06
550.51	43473.11
550.68	43779.72
550.84	43019.05
551.01	43679.08
551.18	43915.47
551.34	44048.88
551.51	44041.86
551.68	43927.17
551.84	43793.76
552.01	43845.26
552.18	44203.36
552.34	43590.14
552.51	44243.15
552.68	43728.23
552.84	44343.79
553.01	44238.47
553.18	43683.76
553.34	44308.68
553.51	44069.95
553.67	44273.57
553.84	44425.71
554.01	44355.49
554.17	44439.75
554.34	44374.22
554.51	44582.52
554.67	44772.11
554.84	44673.81
555.00	44612.95
555.17	44631.68
555.33	44596.57
555.50	44626.99
555.67	44996.80
555.83	44942.97
556.00	44893.82
556.16	45261.28
556.33	44926.58
556.50	44858.71
556.66	44533.37
556.83	44851.69
556.99	44996.80
557.16	45280.00
557.32	45095.10
557.49	45516.40
557.65	44669.12
557.82	45392.35
557.98	44889.13
558.15	45151.27
558.32	45233.19
558.48	45158.30
558.65	45242.56
558.81	45188.72
558.98	45200.43
559.14	45167.66
559.31	45244.90
559.47	45418.10
559.64	45521.08
559.80	45556.19
559.97	45607.68
560.13	45549.17
560.30	45310.43
560.46	45933.01
560.63	45872.16
560.79	46064.08
560.96	45766.84
561.12	46113.23
561.29	45741.09
561.45	45677.90
561.61	45553.85
561.78	45380.65
561.94	45368.94
562.11	45368.94
562.27	45603.00
562.44	45586.61
562.60	45841.73
562.77	45794.92
562.93	45963.44
563.10	45902.59
563.26	45612.36
563.42	46075.79
563.59	45986.85
563.75	45949.40
563.92	45925.99
564.08	45881.52
564.24	46000.89
564.41	46143.66
564.57	46431.55
564.74	46103.87
564.90	46330.90
565.07	46028.98
565.23	45610.02
565.39	45886.20
565.56	46644.54
565.72	46167.07
565.88	45659.17
566.05	46342.61
566.21	45860.46
566.38	45818.33
566.54	46312.18
566.70	46188.13
566.87	46085.15
567.03	46241.96
567.19	46569.64
567.36	46298.14
567.52	46745.18
567.68	46389.42
567.85	46457.29
568.01	46466.66
568.17	46705.39
568.34	46684.33
568.50	46490.06
568.66	46335.59
568.83	46396.44
568.99	46394.10
569.15	46401.12
569.32	46667.94
569.48	46679.64
569.64	46763.90
569.81	46962.85
569.97	47035.41
570.13	46691.35
570.30	46415.16
570.46	46663.26
570.62	46768.58
570.78	46501.76
570.95	46581.34
571.11	47288.18
571.27	46749.86
571.43	46667.94
571.60	46681.98
571.76	46614.11
571.92	46595.38
572.09	46789.65
572.25	47056.47
572.41	46674.96
572.57	46712.41
572.74	47157.11
572.90	47093.92
573.06	47140.73
573.22	46759.22
573.38	46871.57
573.55	46747.52
573.71	47351.38
573.87	46838.80
574.03	46841.14
574.20	47009.66
574.36	46806.03
574.52	46962.85
574.68	47192.22
574.84	46880.93
575.01	47117.32
575.17	46909.02
575.33	47068.17
575.49	46976.89
575.65	47054.13
575.82	47007.32
575.98	46885.61
576.14	47140.73
576.30	47288.18
576.46	47112.64
576.62	46925.40
576.79	46892.63
576.95	46810.71
577.11	46721.77
577.27	47079.88
577.43	47091.58
577.59	47367.76
577.75	46581.34
577.92	46782.63
578.08	46604.75
578.24	47009.66
578.40	47194.56
578.56	47274.14
578.72	47091.58
578.88	47260.10
579.04	47657.99
579.21	46990.94
579.37	47405.21
579.53	47552.66
579.69	46726.46
579.85	46939.44
580.01	47370.10
580.17	46925.40
580.33	47391.17
580.49	47487.13
580.65	47416.91
580.82	46892.63
580.98	47126.69
581.14	47147.75
581.30	47346.70
581.46	46866.89
581.62	47096.26
581.78	47140.73
581.94	47334.99
582.10	47320.95
582.26	47103.28
582.42	47246.05
582.58	47264.78
582.74	47234.35
582.90	47124.35
583.06	47281.16
583.22	46841.14
583.38	47398.19
583.54	47320.95
583.70	47409.89
583.86	47735.23
584.02	47072.85
584.18	47304.57
584.34	47599.47
584.50	47557.35
584.66	47695.44
584.82	47379.46
584.98	47681.39
585.14	47622.88
585.30	47461.38
585.46	47299.89
585.62	46777.95
585.78	47353.72
585.94	47150.09
586.10	47072.85
586.26	47098.60
586.42	47063.49
586.58	47159.45
586.74	47452.02
586.90	47447.34
587.06	47288.18
587.22	47370.10
587.38	47379.46
587.54	47550.32
587.70	47686.07
587.86	47594.79
588.02	47473.09
588.18	47164.14
588.34	47606.50
588.49	47086.90
588.65	47573.73
588.81	47505.85
588.97	47782.04
589.13	47566.71
589.29	47634.58
589.45	47681.39
589.61	47805.44
589.77	47854.59
589.93	47358.40
590.08	48112.05
590.24	47971.62
590.40	47828.85
590.56	47838.21
590.72	47665.01
590.88	47571.39
591.04	47388.83
591.20	47803.10
591.35	48161.20
591.51	48395.26
591.67	47973.96
591.83	47938.85
591.99	48013.75
592.15	47587.77
592.31	47686.07
592.46	47538.62
592.62	47784.38
592.78	47683.73
592.94	47840.55
593.10	48362.49
593.26	48339.08
593.41	48156.52
593.57	47817.14
593.73	48114.39
593.89	48388.24
594.05	48474.84
594.20	48385.89
594.36	48631.65
594.52	47667.35
594.68	48144.82
594.84	47847.57
594.99	48381.21
595.15	48184.61
595.31	48491.22
595.47	47976.30
595.62	48374.19
595.78	48437.39
595.94	47910.77
596.10	47824.17
596.25	48566.12
596.41	48381.21
596.57	47988.00
596.73	48430.36
596.88	47927.15
597.04	48177.59
597.20	48493.56
597.36	48149.50
597.51	48259.51
597.67	47679.05
597.83	48140.14
597.99	48753.36
598.14	48002.05
598.30	48039.50
598.46	48278.23
598.61	48495.90
598.77	48418.66
598.93	48301.64
599.09	48732.29
599.24	48624.63
599.40	48404.62
599.56	48355.47
599.71	48538.03
599.87	48507.60
600.03	47917.79
600.18	48189.29
600.34	47943.53
600.50	48664.42
600.65	48158.86
600.81	48259.51
600.97	48090.99
601.12	48559.09
601.28	48126.10
601.44	48385.89
601.59	48472.49
601.75	48294.61
601.91	48556.75
602.06	48435.05
602.22	48154.18
602.37	48126.10
602.53	48624.63
602.69	48563.78
602.84	48210.35
603.00	48336.74
603.16	48545.05
603.31	48095.67
603.47	48271.21
603.62	48500.58
603.78	48683.14
603.94	48612.93
604.09	48264.19
604.25	48175.25
604.40	48065.24
604.56	48266.53
604.71	49045.93
604.87	47889.70
605.03	47892.04
605.18	48556.75
605.34	48367.17
605.49	48156.52
605.65	48198.65
605.80	48023.11
605.96	48273.55
606.12	48322.70
606.27	48507.60
606.43	48200.99
606.58	48486.54
606.74	48250.14
606.89	48456.11
607.05	48212.70
607.20	47995.03
607.36	48294.61
607.51	48208.01
607.67	48205.67
607.82	48385.89
607.98	48002.05
608.13	48133.12
608.29	47887.36
608.44	48147.16
608.60	48083.97
608.75	48311.00
608.91	48128.44
609.06	47959.92
609.22	48156.52
609.37	47894.38
609.53	47941.19
609.68	47957.58
609.84	48016.09
609.99	48020.77
610.15	48002.05
610.30	48032.47
610.46	47917.79
610.61	48009.07
610.76	48025.45
610.92	47599.47
611.07	47758.63
611.23	47725.86
611.38	47831.19
611.54	47686.07
611.69	48002.05
611.84	48123.75
612.00	48030.13
612.15	47756.29
612.31	47819.49
612.46	47634.58
612.62	47824.17
612.77	47672.03
612.92	48259.51
613.08	47583.09
613.23	47936.51
613.39	48076.94
613.54	47737.57
613.69	48147.16
613.85	47398.19
614.00	47559.69
614.15	47988.00
614.31	47400.53
614.46	47660.33
614.62	47358.40
614.77	47461.38
614.92	47721.18
615.08	47325.63
615.23	47459.04
615.38	47786.72
615.54	47271.80
615.69	47889.70
615.84	47437.98
616.00	47746.93
616.15	47676.71
616.30	47384.15
616.46	47683.73
616.61	47627.56
616.76	47454.36
616.92	47590.11
617.07	47482.45
617.22	47122.01
617.37	46927.74
617.53	47222.65
617.68	47363.08
617.83	47056.47
617.99	47250.74
618.14	47363.08
618.29	47126.69
618.45	47363.08
618.60	46972.21
618.75	46555.60
618.90	46719.43
619.06	47519.90
619.21	46916.04
619.36	47503.51
619.51	47166.48
619.67	46784.97
619.82	47316.27
619.97	47196.90
620.12	46820.08
620.28	47407.55
620.43	47089.24
620.58	47105.62
620.73	47089.24
620.89	47253.08
621.04	47374.78
621.19	47042.43
621.34	46843.48
621.49	46770.93
621.65	46742.84
621.80	46941.78
621.95	46658.58
622.10	46997.96
622.25	46787.31
622.41	46822.42
622.56	46625.81
622.71	46859.87
622.86	46873.91
623.01	46436.23
623.16	46740.50
623.32	46794.33
623.47	46806.03
623.62	46670.28
623.77	46564.96
623.92	46768.58
624.07	46548.57
624.23	46916.04
624.38	46735.82
624.53	46178.77
624.68	46064.08
624.83	46321.54
624.98	46637.51
625.13	45865.14
625.29	46162.39
625.44	46349.63
625.59	46344.95
625.74	46384.74
625.89	45968.12
626.04	46007.91
626.19	45799.60
626.34	46101.53
626.49	45656.83
626.65	45977.48
626.80	46216.22
626.95	45738.75
627.10	45649.81
627.25	45968.12
627.40	46127.28
627.55	46138.98
627.70	46153.02
627.85	45940.04
628.00	46206.86
628.15	45804.28
628.30	45507.04
628.45	45684.92
628.60	45326.81
628.76	45729.39
628.91	45373.63
629.06	45312.77
629.21	45478.95
629.36	45062.33
629.51	45368.94
629.66	46153.02
629.81	45572.57
629.96	46071.10
630.11	45415.76
630.26	45071.70
630.41	45467.25
630.56	45429.80
630.71	45567.89
630.86	45162.98
631.01	45551.51
631.16	45287.03
631.31	45118.51
631.46	45155.96
631.61	45614.70
631.76	45553.85
631.91	45485.97
632.06	45485.97
632.21	44949.99
632.36	45385.33
632.51	44891.48
632.66	45546.82
632.81	45160.64
632.96	44996.80
633.10	45329.16
633.25	45067.02
633.40	45457.88
633.55	44928.92
633.70	45078.72
633.85	44928.92
634.00	44779.13
634.15	44502.95
634.30	44690.19
634.45	45085.74
634.60	44863.39
634.75	44945.31
634.90	44844.66
635.05	44938.29
635.19	44563.80
635.34	45212.13
635.49	44528.69
635.64	44907.86
635.79	44980.42
635.94	44964.03
636.09	44589.55
636.24	44243.15
636.39	44739.34
636.53	45195.74
636.68	44577.84
636.83	44463.16
636.98	44257.19
637.13	44091.01
637.28	44196.34
637.43	44334.43
637.57	44561.46
637.72	44313.36
637.87	44114.42
638.02	44626.99
638.17	44196.34
638.32	44177.61
638.46	43646.31
638.61	44079.31
638.76	44006.75
638.91	44055.90
639.06	43735.25
639.20	43540.99
639.35	43693.12
639.50	43707.16
639.65	43543.33
639.80	43995.05
639.94	43875.68
640.09	44257.19
640.24	43845.26
640.39	43707.16
640.54	43512.90
640.68	43739.93
640.83	44062.93
640.98	43892.07
641.13	43538.65
641.27	43835.89
641.42	43206.29
641.57	44020.80
641.72	43487.15
641.86	43276.51
642.01	43304.59
642.16	43665.03
642.31	42916.06
642.45	43934.20
642.60	43681.42
642.75	43342.04
642.90	43531.62
643.04	43873.34
643.19	43421.62
643.34	43288.21
643.48	43508.22
643.63	42962.87
643.78	43232.04
643.93	43358.42
644.07	42866.91
644.22	43569.07
644.37	43203.95
644.51	43295.23
644.66	42799.04
644.81	42782.65
644.95	43173.52
645.10	42997.98
645.25	42625.84
645.39	43388.85
645.54	42869.25
645.69	42614.13
645.83	42911.38
645.98	42799.04
646.13	42836.48
646.27	42569.66
646.42	42394.12
646.57	42621.16
646.71	42658.60
646.86	42927.77
647.00	43012.02
647.15	42864.57
647.30	42726.48
647.44	43093.94
647.59	42344.97
647.74	42494.77
647.88	42735.84
648.03	42909.04
648.17	43510.56
648.32	42777.97
648.47	42705.41
648.61	41818.35
648.76	42330.93
648.90	42780.31
649.05	42368.38
649.20	42508.81
649.34	42553.28
649.49	42239.65
649.63	42408.17
649.78	42595.41
649.92	42429.23
650.07	42817.76
650.21	42188.16
650.36	42604.77
650.51	42611.79
650.65	42534.56
650.80	42361.36
650.94	42220.92
651.09	42300.50
651.23	41897.93
651.38	41860.48
651.52	41998.57
651.67	41933.04
651.81	42059.43
651.96	42045.38
652.10	41649.83
652.25	41734.09
652.39	41977.51
652.54	42375.40
652.68	41848.78
652.83	41954.10
652.97	42143.69
653.12	41755.16
653.26	41717.71
653.41	41872.18
653.55	41652.17
653.70	41869.84
653.84	42010.28
653.99	42232.63
654.13	41397.06
654.27	41467.27
654.42	41624.09
654.56	41448.55
654.71	41588.98
654.85	41654.51
655.00	41729.41
655.14	41755.16
655.29	41387.69
655.43	41359.61
655.57	41338.54
655.72	41287.05
655.86	41261.30
656.01	41013.21
656.15	41322.16
656.30	41113.85
656.44	41148.96
656.58	41158.32
656.73	41081.08
656.87	40694.89
657.01	40666.81
657.16	41153.64
657.30	40919.59
657.45	40987.46
657.59	40928.95
657.73	40924.27
657.88	41130.23
658.02	41031.93
658.16	40952.35
658.31	40994.48
658.45	41104.49
658.60	40561.48
658.74	40725.32
658.88	40622.34
659.03	40687.87
659.17	40374.24
659.31	40315.73
659.46	40229.13
659.60	40432.75
659.74	39985.71
659.89	39957.63
660.03	40102.74
660.17	40254.87
660.32	39929.54
660.46	40425.73
660.60	40271.26
660.74	39800.81
660.89	39751.66
661.03	39812.51
661.17	39660.38
661.32	39250.78
661.46	39498.88
661.60	39400.58
661.74	39463.77
661.89	39707.19
662.03	39651.02
662.17	39601.86
662.31	39222.70
662.46	39770.38
662.60	39299.94
662.74	39409.94
662.88	38920.77
663.03	38431.60
663.17	39138.44
663.31	39040.14
663.45	39510.58
663.60	39641.65
663.74	39239.08
663.88	38972.26
664.02	38553.30
664.17	39199.29
664.31	38553.30
664.45	38888.00
664.59	38946.51
664.73	38588.41
664.88	38546.28
665.02	38539.26
665.16	38469.04
665.30	38459.68
665.44	38398.83
665.59	38080.52
665.73	37897.95
665.87	37825.40
666.01	38206.90
666.15	38302.87
666.29	37993.92
666.44	38164.78
666.58	38167.12
666.72	37801.99
666.86	37336.23
667.00	37797.31
667.14	37696.67
667.28	37631.13
667.43	37823.06
667.57	37750.50
667.71	37603.05
667.85	37659.22
667.99	37713.05
668.13	37315.16
668.27	37401.76
668.41	37230.90
668.56	36624.70
668.70	36570.87
668.84	36650.45
668.98	36657.47
669.12	36591.94
669.26	36781.52
669.40	37132.60
669.54	36802.58
669.68	37219.20
669.82	36472.57
669.96	36151.91
670.10	35889.77
670.25	36369.58
670.39	36299.37
670.53	36591.94
670.67	36322.77
670.81	36158.94
670.95	36332.14
671.09	35732.96
671.23	36013.82
671.37	36060.63
671.51	35842.96
671.65	35480.18
671.79	35498.91
671.93	35959.99
672.07	35578.48
672.21	35335.07
672.35	35143.14
672.49	35346.77
672.63	35676.79
672.77	34869.30
672.91	35192.30
673.05	35213.36
673.19	34941.86
673.33	35093.99
673.47	34494.82
673.61	34398.85
673.75	34204.59
673.89	34377.79
674.03	34225.65
674.17	34431.62
674.31	34227.99
674.45	34195.23
674.59	34368.43
674.73	33860.53
674.87	33687.33
675.01	33366.68
675.15	33177.09
675.29	33549.24
675.43	33703.71
675.56	33429.87
675.70	33401.79
675.84	33017.94
675.98	31850.01
676.12	33359.66
676.26	33406.47
676.40	32765.16
676.54	32868.14
676.68	32929.00
676.82	32264.28
676.96	32982.83
677.10	32519.40
677.23	32685.58
677.37	32421.10
677.51	32421.10
677.65	31850.01
677.79	31952.99
677.93	32205.77
678.07	31955.33
678.21	31606.59
678.34	31824.26
678.48	31669.79
678.62	31328.07
678.76	31618.30
678.90	31295.30
679.04	31384.24
679.18	31613.62
679.31	30916.14
679.45	30485.48
679.59	30604.84
679.73	30981.67
679.87	30469.09
680.00	30721.87
680.14	30487.82
680.28	30356.75
680.42	30115.67
680.56	30068.86
680.70	30082.91
680.83	29778.64
680.97	30022.05
681.11	30043.12
681.25	29654.59
681.39	29462.66
681.52	29535.22
681.66	29329.25
681.80	28701.99
681.94	28940.72
682.07	28933.70
682.21	28622.41
682.35	28709.01
682.49	28828.38
682.62	28606.03
682.76	28966.47
682.90	28350.91
683.04	28329.84
683.17	28226.86
683.31	27978.76
683.45	28114.52
683.59	27983.44
683.72	28048.98
683.86	28034.94
684.00	27716.62
684.13	27630.02
684.27	27627.68
684.41	27594.92
684.55	27271.92
684.68	27187.66
684.82	27222.77
684.96	27269.58
685.09	26778.07
685.23	27260.22
685.37	27185.32
685.50	27288.31
685.64	26906.80
685.78	26478.48
685.91	26354.43
686.05	26183.57
686.19	25586.74
686.32	26068.89
686.46	25867.60
686.60	25666.31
686.73	25371.41
686.87	25762.28
687.01	25891.01
687.14	25729.51
687.28	25626.53
687.42	25216.93
687.55	24884.58
687.69	25357.36
687.82	24805.00
687.96	24709.04
688.10	24961.81
688.23	24723.08
688.37	25057.78
688.50	25163.10
688.64	24671.59
688.78	24842.45
688.91	24444.56
689.05	24252.63
689.18	23962.40
689.32	23831.33
689.46	23508.34
689.59	24041.98
689.73	24011.56
689.86	24112.20
690.00	23964.75
690.13	23721.33
690.27	23613.66
690.41	23536.43
690.54	22960.66
690.68	23321.10
690.81	23185.35
690.95	23101.09
691.08	22663.41
691.22	22855.33
691.35	22712.56
691.49	22625.96
691.62	22670.43
691.76	22338.07
691.89	22293.60
692.03	22211.68
692.16	21968.27
692.30	21947.20
692.43	21713.15
692.57	21727.19
692.70	21706.13
692.84	21500.16
692.97	21088.23
693.11	21507.18
693.24	21561.02
693.38	20950.14
693.51	21111.63
693.65	21252.06
693.78	20849.49
693.92	21083.55
694.05	20922.05
694.19	20526.50
694.32	20624.80
694.45	20622.46
694.59	21010.99
694.72	20498.41
694.86	20365.00
694.99	19995.20
695.13	20088.82
695.26	19669.86
695.39	19590.28
695.53	19981.15
695.66	19960.09
695.80	19873.49
695.93	19681.56
696.07	19304.74
696.20	19339.85
696.33	18831.95
696.47	19208.78
696.60	19211.12
696.73	19178.35
696.87	19136.22
697.00	18913.87
697.14	18909.19
697.27	18611.94
697.40	18548.75
697.54	18824.93
697.67	18494.91
697.80	18633.00
697.94	18398.95
698.07	18492.57
698.21	18043.19
698.34	18127.45
698.47	17944.89
698.61	17530.61
698.74	17631.26
698.87	17537.63
699.01	17671.04
699.14	17586.79
699.27	17497.84
699.40	17500.19
699.54	17322.30
699.67	17369.12
699.80	16961.86
699.94	16943.14
700.07	17029.74
700.20	17027.40
700.34	16826.11
700.47	16730.15
700.60	16985.27
700.73	16423.54
700.87	16350.98
701.00	16470.35
701.13	16037.35
701.26	16152.04
701.40	16098.20
701.53	15899.26
701.66	15955.43
701.79	15889.90
701.93	15772.87
702.06	15564.56
702.19	15639.46
702.32	15655.84
702.46	15513.07
702.59	15988.20
702.72	15522.43
702.85	15459.24
702.99	15447.54
703.12	15232.21
703.25	14836.66
703.38	14949.00
703.51	14829.63
703.65	14801.55
703.78	14604.94
703.91	14413.02
704.04	14490.26
704.17	14340.46
704.31	14511.32
704.44	14827.29
704.57	14590.90
704.70	14324.08
704.83	14274.93
704.96	14136.84
705.10	14064.28
705.23	13961.30
>>>>>End Processed Spectral Data<<<<<
