SpectraSuite Data File
++++++++++++++++++++++++++++++++++++
Date: Fri Oct 25 10:44:27 EDT 2013
User: price-jones
Dark Spectrum Present: No
Reference Spectrum Present: No
Number of Sampled Component Spectra: 1
Spectrometers: USB2+H05261
Integration Time (usec): 100000 (USB2+H05261)
Spectra Averaged: 1 (USB2+H05261)
Boxcar Smoothing: 0 (USB2+H05261)
Correct for Electrical Dark: No (USB2+H05261)
Strobe/Lamp Enabled: No (USB2+H05261)
Correct for Detector Non-linearity: No (USB2+H05261)
Correct for Stray Light: No (USB2+H05261)
Number of Pixels in Processed Spectrum: 2048
>>>>>Begin Processed Spectral Data<<<<<
365.73	77.24
365.92	77.24
366.12	77.24
366.32	0.00
366.52	79.58
366.72	0.00
366.91	0.00
367.11	49.15
367.31	46.81
367.51	32.77
367.70	0.00
367.90	18.72
368.10	0.00
368.30	42.13
368.49	35.11
368.69	46.81
368.89	37.45
369.09	0.00
369.28	88.94
369.48	0.00
369.68	51.49
369.87	105.32
370.07	84.26
370.27	51.49
370.47	173.20
370.66	390.87
370.86	416.62
371.06	414.27
371.25	461.09
371.45	493.85
371.65	498.53
371.84	463.43
372.04	456.40
372.24	486.83
372.44	519.60
372.63	538.32
372.83	521.94
373.03	491.51
373.22	482.15
373.42	475.13
373.62	608.54
373.81	545.34
374.01	615.56
374.21	561.73
374.40	545.34
374.60	540.66
374.79	540.66
374.99	622.58
375.19	648.33
375.38	631.94
375.58	615.56
375.78	608.54
375.97	559.39
376.17	664.71
376.37	678.76
376.56	638.97
376.76	615.56
376.95	592.16
377.15	627.26
377.35	690.46
377.54	582.79
377.74	648.33
377.93	622.58
378.13	655.35
378.33	730.25
378.52	702.16
378.72	685.78
378.91	624.92
379.11	683.44
379.31	571.09
379.50	587.47
379.70	779.40
379.89	720.88
380.09	732.59
380.28	617.90
380.48	702.16
380.68	748.97
380.87	678.76
381.07	678.76
381.26	732.59
381.46	685.78
381.65	753.65
381.85	674.07
382.04	723.23
382.24	732.59
382.43	711.52
382.63	732.59
382.83	664.71
383.02	683.44
383.22	737.27
383.41	758.33
383.61	821.53
383.80	777.06
384.00	807.48
384.19	751.31
384.39	702.16
384.58	763.01
384.78	758.33
384.97	828.55
385.17	779.40
385.36	863.66
385.56	758.33
385.75	786.42
385.95	868.34
386.14	910.47
386.34	884.72
386.53	903.45
386.72	816.85
386.92	887.06
387.11	898.77
387.31	926.85
387.50	856.64
387.70	908.13
387.89	894.08
388.09	884.72
388.28	901.11
388.48	915.15
388.67	999.41
388.86	950.26
389.06	910.47
389.25	1032.18
389.45	971.32
389.64	994.73
389.84	985.37
390.03	1046.22
390.22	1076.65
390.42	1069.62
390.61	1006.43
390.81	936.21
391.00	1104.73
391.19	1181.97
391.39	1137.50
391.58	1177.29
391.78	1069.62
391.97	1062.60
392.16	1013.45
392.36	1008.77
392.55	1097.71
392.75	985.37
392.94	1039.20
393.13	994.73
393.33	1095.37
393.52	1081.33
393.71	1217.08
393.91	1125.80
394.10	1109.41
394.29	1259.21
394.49	1118.78
394.68	1275.59
394.88	1261.55
395.07	1294.32
395.26	1235.80
395.46	1184.31
395.65	1228.78
395.84	1191.33
396.04	1224.10
396.23	1116.44
396.42	1231.12
396.62	1186.65
396.81	1093.03
397.00	1294.32
397.19	1203.04
397.39	1313.04
397.58	1380.92
397.77	1409.00
397.97	1411.34
398.16	1460.49
398.35	1535.39
398.55	1540.07
398.74	1542.41
398.93	1551.78
399.12	1586.88
399.32	1563.48
399.51	1563.48
399.70	1586.88
399.90	1565.82
400.09	1724.97
400.28	1598.59
400.47	1682.85
400.67	1710.93
400.86	1652.42
401.05	1755.40
401.24	1713.27
401.44	1762.42
401.63	1760.08
401.82	1729.66
402.01	1708.59
402.21	1732.00
402.40	1837.32
402.59	1797.53
402.78	1832.64
402.97	1844.34
403.17	1788.17
403.36	1898.17
403.55	1893.49
403.74	1956.69
403.93	1937.96
404.13	1867.75
404.32	1872.43
404.51	1863.07
404.70	1944.99
404.89	1921.58
405.09	2113.50
405.28	2017.54
405.47	1891.15
405.66	1923.92
405.85	2078.40
406.05	2097.12
406.24	1991.80
406.43	2169.68
406.62	2090.10
406.81	2167.34
407.00	2160.31
407.20	2054.99
407.39	2113.50
407.58	2270.32
407.77	2174.36
407.96	2331.17
408.15	2272.66
408.34	2237.55
408.54	2361.60
408.73	2342.88
408.92	2340.54
409.11	2356.92
409.30	2389.69
409.49	2399.05
409.68	2237.55
409.87	2396.71
410.07	2511.39
410.26	2392.03
410.45	2548.84
410.64	2436.50
410.83	2544.16
411.02	2516.08
411.21	2710.34
411.40	2569.91
411.59	2633.10
411.78	2682.25
411.98	2684.59
412.17	2775.88
412.36	2752.47
412.55	2778.22
412.74	2801.62
412.93	2789.92
413.12	2930.35
413.31	2846.09
413.50	2925.67
413.69	2937.37
413.88	2935.03
414.07	3019.29
414.26	3124.62
414.45	3073.12
414.64	3038.02
414.83	3122.27
415.02	3087.17
415.22	3194.83
415.41	3225.26
415.60	3293.13
415.79	3293.13
415.98	3281.43
416.17	3468.67
416.36	3356.33
416.55	3475.70
416.74	3290.79
416.93	3337.60
417.12	3389.10
417.31	3316.54
417.50	3391.44
417.69	3536.55
417.88	3527.19
418.07	3613.79
418.26	3510.80
418.45	3574.00
418.64	3721.45
418.83	3574.00
419.02	3618.47
419.21	3716.77
419.39	3662.94
419.58	3623.15
419.77	3686.34
419.96	3705.07
420.15	3829.12
420.34	3705.07
420.53	3805.71
420.72	3978.91
420.91	3922.74
421.10	3878.27
421.29	4100.62
421.48	3840.82
421.67	3990.61
421.86	3943.80
422.05	3838.48
422.24	3833.80
422.43	3932.10
422.61	3915.72
422.80	3892.31
422.99	3997.64
423.18	3946.14
423.37	4021.04
423.56	3925.08
423.75	4049.13
423.94	3941.46
424.13	3801.03
424.32	3770.60
424.50	3990.61
424.69	3992.95
424.88	4224.67
425.07	4014.02
425.26	4023.38
425.45	4039.76
425.64	4081.89
425.83	4035.08
426.01	4072.53
426.20	4030.40
426.39	4119.34
426.58	3992.95
426.77	4014.02
426.96	4107.64
427.15	4065.51
427.33	3983.59
427.52	4114.66
427.71	4191.90
427.90	4119.34
428.09	4205.94
428.28	4297.22
428.46	4322.97
428.65	4255.09
428.84	4332.33
429.03	4407.23
429.22	4245.73
429.40	4346.37
429.59	4194.24
429.78	4126.36
429.97	4182.54
430.16	4140.41
430.34	4259.78
430.53	4304.25
430.72	4262.12
430.91	4245.73
431.10	4447.02
431.28	4655.33
431.47	4758.31
431.66	4770.01
431.85	4631.92
432.03	4685.75
432.22	4760.65
432.41	4683.41
432.60	4807.46
432.79	4812.14
432.97	4884.70
433.16	4753.63
433.35	4685.75
433.54	4683.41
433.72	4744.27
433.91	4739.58
434.10	4856.61
434.28	5046.20
434.47	5039.17
434.66	5006.41
434.85	4908.10
435.03	5085.98
435.22	5090.67
435.41	5177.26
435.59	5261.52
435.78	5240.46
435.97	5254.50
436.16	5338.76
436.34	5291.95
436.53	5280.25
436.72	5310.68
436.90	5114.07
437.09	5313.02
437.28	5247.48
437.46	5132.79
437.65	5235.78
437.84	5376.21
438.02	5399.62
438.21	5329.40
438.40	5252.16
438.58	5502.60
438.77	5507.28
438.96	5591.54
439.14	5549.41
439.33	5853.68
439.52	5809.21
439.70	5844.32
439.89	5879.43
440.08	5851.34
440.26	5820.91
440.45	6024.54
440.63	6052.63
440.82	6190.72
441.01	6171.99
441.19	6094.76
441.38	6249.23
441.57	6214.12
441.75	6415.41
441.94	6583.93
442.12	6415.41
442.31	6424.77
442.50	6466.90
442.68	6520.73
442.87	6457.54
443.05	6473.92
443.24	6509.03
443.43	6612.01
443.61	6822.66
443.80	6836.70
443.98	6574.56
444.17	6462.22
444.35	6771.17
444.54	6909.26
444.73	6729.04
444.91	6705.63
445.10	6771.17
445.28	6731.38
445.47	6684.57
445.65	6572.22
445.84	6548.82
446.02	6916.28
446.21	6663.51
446.39	6773.51
446.58	7028.63
446.77	6810.96
446.95	6689.25
447.14	6836.70
447.32	7037.99
447.51	6937.35
447.69	6881.18
447.88	6958.41
448.06	6923.30
448.25	7103.53
448.43	6920.96
448.62	6883.52
448.80	6867.13
448.99	7042.67
449.17	6932.67
449.36	6970.12
449.54	7262.68
449.73	7272.04
449.91	7243.96
450.10	7213.53
450.28	7440.56
450.46	7501.42
450.65	7522.48
450.83	7513.12
451.02	7531.84
451.20	7494.40
451.39	7494.40
451.57	7286.09
451.76	7571.63
451.94	7421.84
452.13	7543.55
452.31	7318.86
452.49	7323.54
452.68	7461.63
452.86	7267.36
453.05	7655.89
453.23	7559.93
453.42	7279.07
453.60	7492.05
453.78	7719.09
453.97	7644.19
454.15	7573.97
454.34	7714.41
454.52	7770.58
454.70	7639.51
454.89	7723.77
455.07	7646.53
455.26	7864.20
455.44	7960.16
455.62	7861.86
455.81	7868.88
455.99	8070.17
456.17	7976.55
456.36	7985.91
456.54	8196.56
456.73	8088.89
456.91	8259.75
457.09	8170.81
457.28	8374.44
457.46	8311.24
457.64	8339.33
457.83	8264.43
458.01	8116.98
458.19	8486.78
458.38	8355.71
458.56	8437.63
458.74	8465.72
458.93	8503.17
459.11	8552.32
459.29	8411.89
459.48	8592.11
459.66	8568.70
459.84	8610.83
460.03	8542.96
460.21	8835.52
460.39	8849.57
460.57	8716.16
460.76	8760.63
460.94	8889.35
461.12	8685.73
461.31	8875.31
461.49	8926.80
461.67	8812.12
461.85	9085.96
462.04	9060.21
462.22	9020.42
462.40	9341.08
462.59	8929.14
462.77	9252.14
462.95	9273.20
463.13	8926.80
463.32	9088.30
463.50	9397.25
463.68	9303.63
463.86	9142.13
464.05	8929.14
464.23	8999.36
464.41	9345.76
464.59	9055.53
464.78	9305.97
464.96	9528.32
465.14	9432.36
465.32	9420.66
465.50	9628.96
465.69	9750.67
465.87	9369.16
466.05	9441.72
466.23	9312.99
466.41	9460.45
466.60	9458.10
466.78	9401.93
466.96	9430.02
467.14	9441.72
467.32	9596.20
467.51	9895.78
467.69	9355.12
467.87	9856.00
468.05	9764.72
468.23	9647.69
468.41	9659.39
468.60	9633.64
468.78	9851.31
468.96	9774.08
469.14	9881.74
469.32	10120.48
469.50	9792.80
469.69	9902.81
469.87	10106.43
470.05	9891.10
470.23	9973.02
470.41	10066.64
470.59	10258.57
470.77	10120.48
470.95	10277.29
471.14	10368.57
471.32	10317.08
471.50	10644.76
471.68	10476.24
471.86	10672.84
472.04	10700.93
472.22	10766.46
472.40	10459.85
472.58	10677.52
472.77	10607.31
472.95	10829.66
473.13	11213.51
473.31	10778.17
473.49	10750.08
473.67	10876.47
473.85	10930.30
474.03	11353.94
474.21	11283.72
474.39	11304.79
474.57	11503.73
474.75	11623.10
474.93	11552.88
475.12	11431.18
475.30	11454.58
475.48	11585.65
475.66	11637.14
475.84	11667.57
476.02	11693.32
476.20	11651.19
476.38	11896.94
476.56	12058.44
476.74	11943.75
476.92	12154.40
477.10	12166.10
477.28	12662.30
477.46	12276.11
477.64	12713.79
477.82	12762.94
478.00	12575.70
478.18	12884.65
478.36	13060.19
478.54	13001.68
478.72	13298.92
478.90	13200.62
479.08	13521.27
479.26	13675.75
479.44	13401.91
479.62	13621.92
479.80	13596.17
479.98	13743.63
480.16	14033.85
480.34	13951.93
480.52	14232.80
480.70	14120.45
480.88	13846.61
481.06	14342.80
481.24	14073.64
481.41	14621.33
481.59	14916.23
481.77	14949.00
481.95	14890.49
482.13	15089.43
482.31	14965.39
482.49	15316.47
482.67	15358.60
482.85	15494.35
483.03	15695.63
483.21	15641.80
483.39	15967.13
483.57	15627.76
483.74	15822.02
483.92	16100.55
484.10	15824.36
484.28	16222.25
484.46	16624.83
484.64	16812.07
484.82	16636.53
485.00	16673.98
485.18	16683.34
485.35	16767.60
485.53	16432.90
485.71	16386.09
485.89	16830.79
486.07	16594.40
486.25	16802.71
486.43	17254.43
486.61	17399.54
486.78	17972.97
486.96	17902.76
487.14	18001.06
487.32	18066.60
487.50	17940.21
487.68	18572.15
487.85	19042.60
488.03	18691.52
488.21	19002.81
488.39	19012.17
488.57	18956.00
488.75	19026.21
488.92	19583.26
489.10	19676.88
489.28	19723.69
489.46	20154.35
489.64	20411.81
489.81	20320.53
489.99	20592.03
490.17	20783.96
490.35	20886.94
490.53	20840.13
490.70	21102.27
490.88	20821.41
491.06	21074.18
491.24	21231.00
491.41	21179.51
491.59	21441.65
491.77	21359.73
491.95	21827.84
492.13	21848.90
492.30	22061.89
492.48	22057.21
492.66	22188.28
492.84	21839.54
493.01	22506.59
493.19	22707.88
493.37	22607.23
493.54	22876.40
493.72	23073.00
493.90	23318.76
494.08	23344.50
494.25	23365.57
494.43	23611.32
494.61	23658.14
494.79	23978.79
494.96	23866.44
495.14	24072.41
495.32	24128.58
495.49	24446.90
495.67	24381.36
495.85	24496.05
496.02	24912.66
496.20	25247.36
496.38	24896.28
496.55	25202.89
496.73	25729.51
496.91	25261.40
497.09	25259.06
497.26	26120.38
497.44	25439.28
497.62	25944.84
497.79	26167.19
497.97	25668.66
498.14	25958.88
498.32	26211.66
498.50	26417.63
498.67	26845.94
498.85	26752.32
499.03	26532.31
499.20	26742.96
499.38	26544.02
499.56	26579.12
499.73	27110.43
499.91	27075.32
500.08	27384.27
500.26	27192.34
500.44	27094.04
500.61	27456.82
500.79	27037.87
500.97	27569.17
501.14	28018.55
501.32	27716.62
501.49	27803.22
501.67	27571.51
501.84	28259.63
502.02	27803.22
502.20	28442.19
502.37	28177.71
502.55	28423.47
502.72	28477.30
502.90	28840.08
503.07	28657.52
503.25	28842.42
503.43	28769.86
503.60	28781.57
503.78	28589.64
503.95	29076.48
504.13	29144.35
504.30	29298.83
504.48	29418.19
504.65	29338.62
504.83	29549.26
505.01	29923.75
505.18	29752.89
505.36	29979.92
505.53	30312.28
505.71	30384.83
505.88	29912.05
506.06	30110.99
506.23	30623.57
506.41	30108.65
506.58	30312.28
506.76	31040.18
506.93	30494.84
507.11	30331.00
507.28	30597.82
507.46	30586.12
507.63	30628.25
507.81	31213.38
507.98	30628.25
508.16	31047.21
508.33	31208.70
508.50	31370.20
508.68	31615.96
508.85	31583.19
509.03	31660.43
509.20	31711.92
509.38	31707.24
509.55	31964.70
509.73	31983.42
509.90	32137.90
510.08	31679.15
510.25	32030.23
510.42	32250.24
510.60	32456.21
510.77	32624.73
510.95	32903.25
511.12	32311.10
511.30	32760.48
511.47	32936.02
511.64	33076.45
511.82	33216.88
511.99	32868.14
512.17	33095.18
512.34	32842.40
512.51	33221.56
512.69	33546.90
512.86	33317.53
513.04	33773.93
513.21	33455.62
513.38	33031.98
513.56	33502.43
513.73	33556.26
513.90	33432.21
514.08	33649.88
514.25	33949.47
514.43	33661.58
514.60	33944.79
514.77	34162.46
514.95	34565.03
515.12	34506.52
515.29	34113.31
515.47	34848.24
515.64	34871.64
515.81	34295.87
515.99	34235.02
516.16	34316.93
516.33	34134.37
516.51	34024.37
516.68	33930.75
516.85	33612.43
517.03	34380.13
517.20	34763.98
517.37	34998.03
517.54	34981.65
517.72	34960.58
517.89	34590.78
518.06	34448.00
518.24	34562.69
518.41	34848.24
518.58	35009.73
518.75	35288.26
518.93	35519.97
519.10	35550.40
519.27	35646.36
519.45	35655.72
519.62	36189.36
519.79	36006.80
519.96	36208.09
520.14	36369.58
520.31	35992.76
520.48	36126.17
520.65	36194.04
520.83	36842.37
521.00	36928.97
521.17	36423.42
521.34	36751.09
521.52	36744.07
521.69	37036.64
521.86	36807.26
522.03	36528.74
522.20	36917.27
522.38	37244.94
522.55	37277.71
522.72	36699.60
522.89	37198.13
523.07	37511.77
523.24	37586.66
523.41	37722.41
523.58	37471.98
523.75	38349.68
523.92	37989.24
524.10	37890.93
524.27	37998.60
524.44	38527.56
524.61	38293.50
524.78	38405.85
524.96	38368.40
525.13	38466.70
525.30	38295.85
525.47	38899.70
525.64	38403.51
525.81	38462.02
525.98	38059.45
526.16	38155.41
526.33	37813.70
526.50	38377.76
526.67	37984.55
526.84	38253.72
527.01	38146.05
527.18	38623.52
527.36	38932.47
527.53	38998.01
527.70	39175.89
527.87	39199.29
528.04	39288.23
528.21	39321.00
528.38	39150.14
528.55	39711.87
528.72	39625.27
528.89	39856.98
529.07	39721.23
529.24	39143.12
529.41	39899.11
529.58	39400.58
529.75	39276.53
529.92	39728.25
530.09	39761.02
530.26	39683.78
530.43	40013.80
530.60	39693.15
530.77	39714.21
530.94	40306.37
531.11	40140.19
531.28	40423.39
531.46	40369.56
531.63	39758.68
531.80	40369.56
531.97	39988.05
532.14	40224.45
532.31	40168.27
532.48	39966.99
532.65	40341.47
532.82	40498.29
532.99	40718.30
533.16	40149.55
533.33	40509.99
533.50	41031.93
533.67	40706.60
533.84	40374.24
534.01	40708.94
534.18	40662.13
534.35	41174.70
534.52	40938.31
534.69	41186.41
534.86	41574.94
535.03	41076.40
535.20	41179.39
535.37	41670.90
535.54	41937.72
535.71	42005.59
535.88	41556.21
536.05	41408.76
536.22	41366.63
536.38	41280.03
536.55	41385.35
536.72	41481.31
536.89	41336.20
537.06	41574.94
537.23	41549.19
537.40	41933.04
537.57	42197.52
537.74	42253.69
537.91	42330.93
538.08	42153.05
538.25	41586.64
538.42	42059.43
538.59	42263.05
538.75	41766.86
538.92	42375.40
539.09	42216.24
539.26	41942.40
539.43	42515.83
539.60	42246.67
539.77	42312.20
539.94	42387.10
540.11	41816.01
540.28	42249.01
540.44	42389.44
540.61	42511.15
540.78	42347.31
540.95	42211.56
541.12	42424.55
541.29	41837.08
541.46	42312.20
541.62	42602.43
541.79	42822.44
541.96	42740.52
542.13	42871.59
542.30	42920.74
542.47	43000.32
542.63	42721.80
542.80	43035.43
542.97	43442.68
543.14	43477.79
543.31	43262.46
543.48	43658.01
543.64	44287.62
543.81	44025.48
543.98	43772.70
544.15	43742.27
544.32	43784.40
544.48	43903.77
544.65	43512.90
544.82	43725.89
544.99	43721.21
545.16	43892.07
545.32	43423.96
545.49	44308.68
545.66	44421.03
545.83	44083.99
546.00	44168.25
546.16	43859.30
546.33	43779.72
546.50	43672.06
546.67	43746.95
546.83	44058.24
547.00	43796.10
547.17	43650.99
547.34	44165.91
547.50	43948.24
547.67	44039.52
547.84	44453.79
548.00	44098.03
548.17	44669.12
548.34	44760.40
548.51	44669.12
548.67	44737.00
548.84	44500.61
549.01	44245.49
549.18	44479.54
549.34	44479.54
549.51	44362.51
549.68	44652.74
549.84	44978.07
550.01	44935.95
550.18	44942.97
550.34	44619.97
550.51	44762.75
550.68	44797.85
550.84	44713.59
551.01	44919.56
551.18	44994.46
551.34	44837.64
551.51	45057.65
551.68	45027.23
551.84	44910.20
552.01	44847.00
552.18	45010.84
552.34	44753.38
552.51	45301.07
552.68	44865.73
552.84	45415.76
553.01	45411.07
553.18	45226.17
553.34	44947.65
553.51	45205.11
553.67	45153.62
553.84	45755.13
554.01	45565.55
554.17	45256.60
554.34	45441.50
554.51	45336.18
554.67	45408.73
554.84	45317.45
555.00	45729.39
555.17	45209.79
555.33	45268.30
555.50	45347.88
555.67	45116.17
555.83	45340.86
556.00	45284.68
556.16	45595.98
556.33	45820.67
556.50	45462.57
556.66	45916.63
556.83	45495.33
556.99	45591.30
557.16	46155.36
557.32	45984.51
557.49	45808.96
557.65	45654.49
557.82	45675.55
557.98	45909.61
558.15	45703.64
558.32	45808.96
558.48	45617.04
558.65	45897.91
558.81	45546.82
558.98	46057.06
559.14	45715.34
559.31	45930.67
559.47	45930.67
559.64	46295.80
559.80	46181.11
559.97	45663.85
560.13	45787.90
560.30	46028.98
560.46	46059.40
560.63	46209.20
560.79	46426.87
560.96	46529.85
561.12	46234.94
561.29	46344.95
561.45	45839.39
561.61	46059.40
561.78	46286.43
561.94	45626.40
562.11	46183.45
562.27	45956.42
562.44	46534.53
562.60	46522.83
562.77	46445.59
562.93	46115.58
563.10	46534.53
563.26	46071.10
563.42	46040.68
563.59	46176.43
563.75	45923.65
563.92	46064.08
564.08	46298.14
564.24	46232.60
564.41	46581.34
564.57	46576.66
564.74	46138.98
564.90	46155.36
565.07	46525.17
565.23	46539.21
565.39	46361.33
565.56	46405.80
565.72	46014.93
565.88	46440.91
566.05	46267.71
566.21	46513.47
566.38	46623.47
566.54	46529.85
566.70	46726.46
566.87	47091.58
567.03	46960.51
567.19	46836.46
567.36	46555.60
567.52	46272.39
567.68	47072.85
567.85	46335.59
568.01	46726.46
568.17	46649.22
568.34	46401.12
568.50	46344.95
568.66	46333.24
568.83	46223.24
568.99	46548.57
569.15	46302.82
569.32	46246.65
569.48	46422.19
569.64	46904.34
569.81	46604.75
569.97	46639.86
570.13	46473.68
570.30	46237.28
570.46	46092.17
570.62	46522.83
570.78	46520.49
570.95	46253.67
571.11	46927.74
571.27	46532.19
571.43	46223.24
571.60	46581.34
571.76	46557.94
571.92	46810.71
572.09	46586.02
572.25	46822.42
572.41	46562.62
572.57	46857.52
572.74	46843.48
572.90	46209.20
573.06	47079.88
573.22	46663.26
573.38	46733.48
573.55	46466.66
573.71	46878.59
573.87	46693.69
574.03	46609.43
574.20	46630.49
574.36	46593.04
574.52	46143.66
574.68	46614.11
574.84	46541.55
575.01	46637.51
575.17	46555.60
575.33	46794.33
575.49	46363.67
575.65	46733.48
575.82	46981.57
575.98	46691.35
576.14	46827.10
576.30	46726.46
576.46	46522.83
576.62	46836.46
576.79	46864.55
576.95	46492.40
577.11	46593.04
577.27	46813.05
577.43	46902.00
577.59	46536.87
577.75	46370.69
577.92	46553.26
578.08	46813.05
578.24	46745.18
578.40	46436.23
578.56	46754.54
578.72	46719.43
578.88	47145.41
579.04	46674.96
579.21	46775.61
579.37	46871.57
579.53	46845.82
579.69	46665.60
579.85	46806.03
580.01	46836.46
580.17	46916.04
580.33	46960.51
580.49	46754.54
580.65	46883.27
580.82	46803.69
580.98	46543.89
581.14	46672.62
581.30	47096.26
581.46	46864.55
581.62	46808.37
581.78	46714.75
581.94	47381.80
582.10	46625.81
582.26	46745.18
582.42	46522.83
582.58	46539.21
582.74	46885.61
582.90	47363.08
583.06	47124.35
583.22	47360.74
583.38	46974.55
583.54	46948.81
583.70	46827.10
583.86	47004.98
584.02	46707.73
584.18	47030.72
584.34	46775.61
584.50	46749.86
584.66	46834.12
584.82	46590.70
584.98	46916.04
585.14	46855.18
585.30	46684.33
585.46	46899.65
585.62	46639.86
585.78	47161.79
585.94	46260.69
586.10	46686.67
586.26	46628.15
586.42	46780.29
586.58	47051.79
586.74	47129.03
586.90	46443.25
587.06	46918.38
587.22	46981.57
587.38	46974.55
587.54	47117.32
587.70	46824.76
587.86	46749.86
588.02	47229.67
588.18	46707.73
588.34	46724.11
588.49	46263.03
588.65	46211.54
588.81	46019.61
588.97	46387.08
589.13	46000.89
589.29	46129.62
589.45	46564.96
589.61	46681.98
589.77	46728.80
589.93	46848.16
590.08	46700.71
590.24	47391.17
590.40	46740.50
590.56	46976.89
590.72	47079.88
590.88	47072.85
591.04	47143.07
591.20	47414.57
591.35	46923.06
591.51	47386.49
591.67	46983.91
591.83	47196.90
591.99	46845.82
592.15	47002.64
592.31	46838.80
592.46	47007.32
592.62	46887.95
592.78	46958.17
592.94	47012.00
593.10	47365.42
593.26	47349.04
593.41	46974.55
593.57	47009.66
593.73	47019.02
593.89	47248.39
594.05	46951.15
594.20	46983.91
594.36	47285.84
594.52	46667.94
594.68	46768.58
594.84	46951.15
594.99	47320.95
595.15	46815.40
595.31	46707.73
595.47	46681.98
595.62	46740.50
595.78	46761.56
595.94	47470.75
596.10	46911.36
596.25	47461.38
596.41	47370.10
596.57	47129.03
596.73	47028.38
596.88	47189.88
597.04	46878.59
597.20	46848.16
597.36	46990.94
597.51	47206.26
597.67	47342.02
597.83	47236.69
597.99	47243.71
598.14	47388.83
598.30	46902.00
598.46	47407.55
598.61	46979.23
598.77	46782.63
598.93	47166.48
599.09	47189.88
599.24	47707.14
599.40	47426.28
599.56	47264.78
599.71	46899.65
599.87	47309.25
600.03	47110.30
600.18	47009.66
600.34	46878.59
600.50	47164.14
600.65	47004.98
600.81	47171.16
600.97	47262.44
601.12	47098.60
601.28	47220.31
601.44	47096.26
601.59	47255.42
601.75	46770.93
601.91	46787.31
602.06	47056.47
602.22	47171.16
602.37	46983.91
602.53	46564.96
602.69	47178.18
602.84	47267.12
603.00	47346.70
603.16	46632.83
603.31	47318.61
603.47	46890.29
603.62	47290.52
603.78	47192.22
603.94	46986.25
604.09	47133.71
604.25	46932.42
604.40	47129.03
604.56	46848.16
604.71	47131.37
604.87	46782.63
605.03	46653.90
605.18	46691.35
605.34	47009.66
605.49	46773.27
605.65	46808.37
605.80	47110.30
605.96	47133.71
606.12	46988.60
606.27	47536.28
606.43	46593.04
606.58	47089.24
606.74	46712.41
606.89	46497.08
607.05	46770.93
607.20	46873.91
607.36	46700.71
607.51	47112.64
607.67	46831.78
607.82	46567.30
607.98	46700.71
608.13	46590.70
608.29	46621.13
608.44	46422.19
608.60	46316.86
608.75	46492.40
608.91	46387.08
609.06	46520.49
609.22	46808.37
609.37	46454.95
609.53	46649.22
609.68	46162.39
609.84	46153.02
609.99	46358.99
610.15	46520.49
610.30	46583.68
610.46	46129.62
610.61	46368.35
610.76	46286.43
610.92	46539.21
611.07	46691.35
611.23	46429.21
611.38	46340.27
611.54	45701.30
611.69	46316.86
611.84	46153.02
612.00	46143.66
612.15	45820.67
612.31	46380.06
612.46	45729.39
612.62	45918.97
612.77	46424.53
612.92	46541.55
613.08	46096.85
613.23	46199.83
613.39	46047.70
613.54	45703.64
613.69	46059.40
613.85	46005.57
614.00	46141.32
614.15	46291.12
614.31	46045.36
614.46	46473.68
614.62	46129.62
614.77	45801.94
614.92	45773.86
615.08	45691.94
615.23	45715.34
615.38	45551.51
615.54	45357.24
615.69	45394.69
615.84	45448.52
616.00	45502.35
616.15	45595.98
616.30	45958.76
616.46	45516.40
616.61	45235.53
616.76	45347.88
616.92	44779.13
617.07	45579.59
617.22	45088.08
617.37	45177.02
617.53	45315.11
617.68	45652.15
617.83	45478.95
617.99	45146.59
618.14	45478.95
618.29	45539.80
618.45	45193.40
618.60	44964.03
618.75	44570.82
618.90	45158.30
619.06	45284.68
619.21	45453.20
619.36	45860.46
619.51	45303.41
619.67	44933.60
619.82	45219.15
619.97	45153.62
620.12	44765.09
620.28	44619.97
620.43	44680.83
620.58	44760.40
620.73	44737.00
620.89	45130.21
621.04	45001.48
621.19	44751.04
621.34	45158.30
621.49	44879.77
621.65	44292.30
621.80	44680.83
621.95	44395.28
622.10	44619.97
622.25	44051.22
622.41	44512.31
622.56	44226.76
622.71	44748.70
622.86	44561.46
623.01	44172.93
623.16	44165.91
623.32	44591.89
623.47	44545.08
623.62	44577.84
623.77	44418.69
623.92	44215.06
624.07	44275.91
624.23	43924.83
624.38	44282.94
624.53	44025.48
624.68	43950.58
624.83	44044.20
624.98	43931.86
625.13	43775.04
625.29	43831.21
625.44	43786.74
625.59	44016.11
625.74	43908.45
625.89	43491.83
626.04	43643.97
626.19	43840.57
626.34	43810.15
626.49	43934.20
626.65	43889.73
626.80	44034.84
626.95	44229.10
627.10	43805.47
627.25	43758.66
627.40	43512.90
627.55	43220.33
627.70	43292.89
627.85	42885.64
628.00	43232.04
628.15	42965.21
628.30	43056.50
628.45	43168.84
628.60	43393.53
628.76	43475.45
628.91	43463.75
629.06	43213.31
629.21	43089.26
629.36	43599.50
629.51	43168.84
629.66	42773.29
629.81	42876.27
629.96	42909.04
630.11	42920.74
630.26	43653.33
630.41	43299.91
630.56	43206.29
630.71	42866.91
630.86	42941.81
631.01	42733.50
631.16	42546.26
631.31	42480.72
631.46	42155.39
631.61	42803.72
631.76	42852.87
631.91	42679.67
632.06	43159.48
632.21	42885.64
632.36	43234.38
632.51	42553.28
632.66	42506.47
632.81	41998.57
632.96	42532.22
633.10	42497.11
633.25	42712.44
633.40	42447.96
633.55	42590.73
633.70	42607.11
633.85	42249.01
634.00	42305.18
634.15	42408.17
634.30	42403.49
634.45	42602.43
634.60	42298.16
634.75	42068.79
634.90	42288.80
635.05	41895.59
635.19	42061.77
635.34	42359.02
635.49	42071.13
635.64	41900.27
635.79	41776.22
635.94	41748.14
636.09	41687.28
636.24	41989.21
636.39	41886.23
636.53	41834.74
636.68	41661.54
636.83	42141.35
636.98	41752.82
637.13	41413.44
637.28	42160.07
637.43	42096.88
637.57	42031.34
637.72	41773.88
637.87	41619.41
638.02	41514.08
638.17	41804.31
638.32	41368.97
638.46	41476.63
638.61	41668.56
638.76	41315.14
638.91	41446.21
639.06	41546.85
639.20	41537.49
639.35	41883.89
639.50	41745.80
639.65	41401.74
639.80	41771.54
639.94	41598.34
640.09	41202.79
640.24	41116.19
640.39	40690.21
640.54	41106.83
640.68	40849.37
640.83	41139.60
640.98	41111.51
641.13	40781.49
641.27	41443.87
641.42	41436.84
641.57	41294.07
641.72	40872.78
641.86	40711.28
642.01	40610.64
642.16	40914.90
642.31	40528.72
642.45	41038.95
642.60	40500.63
642.75	40933.63
642.90	40783.83
643.04	40615.32
643.19	40554.46
643.34	40603.61
643.48	40369.56
643.63	40521.69
643.78	40229.13
643.93	40161.25
644.07	40231.47
644.22	40552.12
644.37	40119.12
644.51	40484.25
644.66	40678.51
644.81	40748.73
644.95	40715.96
645.10	40669.15
645.25	40416.37
645.39	40605.95
645.54	40495.95
645.69	39819.53
645.83	40292.32
645.98	40493.61
646.13	39807.83
646.27	40165.93
646.42	40030.18
646.57	40081.67
646.71	40030.18
646.86	40102.74
647.00	39908.47
647.15	40308.71
647.30	39915.50
647.44	39800.81
647.59	39704.85
647.74	39590.16
647.88	40182.32
648.03	39950.60
648.17	40013.80
648.32	39854.64
648.47	39304.62
648.61	39257.81
648.76	39716.55
648.90	39983.37
649.05	39686.12
649.20	39716.55
649.34	39681.44
649.49	39662.72
649.63	39409.94
649.78	39643.99
649.92	39496.54
650.07	39702.51
650.21	39049.50
650.36	39068.22
650.51	39147.80
650.65	40025.50
650.80	40245.51
650.94	39412.28
651.09	39452.07
651.23	39098.65
651.38	39271.85
651.52	39023.75
651.67	38911.41
651.81	38740.55
651.96	38494.79
652.10	38623.52
652.25	39037.80
652.39	38979.28
652.54	39058.86
652.68	39222.70
652.83	39110.35
652.97	38789.70
653.12	39423.98
653.26	38595.43
653.41	38698.42
653.55	38590.75
653.70	38541.60
653.84	39030.77
653.99	38724.16
654.13	38660.97
654.27	38646.93
654.42	38478.41
654.56	38815.44
654.71	38684.37
654.85	38841.19
655.00	39063.54
655.14	38532.24
655.29	38246.69
655.43	38539.26
655.57	38038.39
655.72	38087.54
655.86	37741.14
656.01	37699.01
656.15	37455.59
656.30	37876.89
656.44	38300.53
656.58	37902.64
656.73	37816.04
656.87	37986.89
657.01	37577.30
657.16	38075.84
657.30	37572.62
657.45	37951.79
657.59	37820.72
657.73	37752.84
657.88	38178.82
658.02	37794.97
658.16	38124.99
658.31	38031.36
658.45	37687.31
658.60	37673.26
658.74	38457.34
658.88	37900.29
659.03	37453.25
659.17	37366.65
659.31	37282.39
659.46	37184.09
659.60	37200.47
659.74	37677.94
659.89	37118.56
660.03	37493.04
660.17	37413.46
660.32	37277.71
660.46	37418.14
660.60	37205.16
660.74	37013.23
660.89	37071.75
661.03	37043.66
661.17	37008.55
661.32	36304.05
661.46	36924.29
661.60	36875.14
661.74	36861.10
661.89	37146.64
662.03	36825.99
662.17	36605.98
662.31	36847.05
662.46	36526.40
662.60	36622.36
662.74	36486.61
662.88	36315.75
663.03	36098.08
663.17	36378.95
663.31	35927.22
663.45	36158.94
663.60	36437.46
663.74	36016.16
663.88	35756.36
664.02	36158.94
664.17	36545.12
664.31	36060.63
664.45	35667.42
664.59	35894.46
664.73	35665.08
664.88	35887.43
665.02	35274.21
665.16	35435.71
665.30	35356.13
665.44	35634.66
665.59	35222.72
665.73	35522.31
665.87	35110.38
666.01	35421.67
666.15	35325.71
666.29	35304.64
666.44	35466.14
666.58	34834.19
666.72	34700.78
666.86	35096.33
667.00	34932.50
667.14	34775.68
667.28	34918.45
667.43	34560.35
667.57	34913.77
667.71	34560.35
667.85	34616.52
667.99	34497.16
668.13	34590.78
668.27	34068.84
668.41	34745.25
668.56	34740.57
668.70	34429.28
668.84	34216.29
668.98	34113.31
669.12	33928.41
669.26	34167.14
669.40	33666.27
669.54	33874.57
669.68	33930.75
669.82	34190.55
669.96	33921.38
670.10	33530.51
670.25	33696.69
670.39	33624.14
670.53	33287.10
670.67	32980.49
670.81	33759.89
670.95	33834.78
671.09	33280.08
671.23	32884.53
671.37	33273.06
671.51	33261.35
671.65	32795.59
671.79	32903.25
671.93	32666.86
672.07	33193.48
672.21	32865.80
672.35	32566.21
672.49	32959.42
672.63	32690.26
672.77	32900.91
672.91	32985.17
673.05	32484.30
673.19	32304.07
673.33	32065.34
673.47	32201.09
673.61	32285.35
673.75	32187.05
673.89	31768.09
674.03	31800.86
674.17	31665.11
674.31	31845.33
674.45	31938.95
674.59	31920.23
674.73	32140.24
674.87	31641.70
675.01	31274.24
675.15	31344.45
675.29	31414.67
675.43	31428.71
675.56	31138.49
675.70	31122.10
675.84	31164.23
675.98	30043.12
676.12	31164.23
676.26	31077.63
676.40	30738.26
676.54	30810.81
676.68	30661.02
676.82	29914.39
676.96	31152.53
677.10	30700.81
677.23	30670.38
677.37	30087.59
677.51	30394.20
677.65	29792.68
677.79	29790.34
677.93	30003.33
678.07	29986.94
678.21	29294.14
678.34	29558.63
678.48	29233.29
678.62	29287.12
678.76	29149.03
678.90	28685.61
679.04	29118.60
679.18	28802.63
679.31	28491.34
679.45	28823.70
679.59	28327.50
679.73	28402.40
679.87	28318.14
680.00	28229.20
680.14	28226.86
680.28	28081.75
680.42	28063.02
680.56	28313.46
680.70	27948.34
680.83	28465.60
680.97	27892.16
681.11	27835.99
681.25	27768.12
681.39	27903.87
681.52	27765.78
681.66	27592.58
681.80	27290.65
681.94	26923.18
682.07	27419.38
682.21	27187.66
682.35	26742.96
682.49	26817.86
682.62	27026.17
682.76	26885.73
682.90	26773.39
683.04	26560.40
683.17	26705.51
683.31	26408.26
683.45	26581.46
683.59	25865.26
683.72	26148.46
683.86	26092.29
684.00	25558.65
684.13	26001.01
684.27	25570.35
684.41	25862.92
684.55	25315.23
684.68	25572.69
684.82	25291.83
684.96	25291.83
685.09	25282.47
685.23	25310.55
685.37	25043.73
685.50	24931.39
685.64	25041.39
685.78	24734.78
685.91	24531.15
686.05	24245.61
686.19	24379.02
686.32	24276.04
686.46	24098.16
686.60	23768.14
686.73	23796.23
686.87	23948.36
687.01	23527.06
687.14	23353.87
687.28	23594.94
687.42	23634.73
687.55	23274.29
687.69	23264.92
687.82	23164.28
687.96	23508.34
688.10	23278.97
688.23	22993.42
688.37	22794.48
688.50	22672.77
688.64	22766.39
688.78	22911.50
688.91	22728.94
689.05	22796.82
689.18	22958.31
689.32	22621.28
689.46	22291.26
689.59	22204.66
689.73	22555.74
689.86	22228.07
690.00	21867.63
690.13	22169.55
690.27	21947.20
690.41	22129.77
690.54	21647.61
690.68	21312.92
690.81	21539.95
690.95	21474.42
691.08	21483.78
691.22	21284.83
691.35	21151.42
691.49	21575.06
691.62	21415.90
691.76	20912.69
691.89	21095.25
692.03	20769.91
692.16	20620.12
692.30	20622.46
692.43	20627.14
692.57	20135.63
692.70	20322.87
692.84	20533.52
692.97	20386.07
693.11	20049.03
693.24	20180.10
693.38	20170.74
693.51	19711.99
693.65	19953.07
693.78	20100.52
693.92	20217.55
694.05	19613.69
694.19	19859.45
694.32	19814.98
694.45	19529.43
694.59	19082.39
694.72	19286.01
694.86	19337.51
694.99	18782.80
695.13	19253.25
695.26	19103.45
695.39	18789.82
695.53	18785.14
695.66	19089.41
695.80	18883.44
695.93	18803.86
696.07	18469.17
696.20	18792.16
696.33	18331.08
696.47	18118.09
696.60	18132.13
696.73	18305.33
696.87	18127.45
697.00	18288.95
697.14	18279.58
697.27	18108.72
697.40	17724.88
697.54	18043.19
697.67	17642.96
697.80	17467.42
697.94	17563.38
698.07	17275.49
698.21	16985.27
698.34	17411.25
698.47	17224.00
698.61	16673.98
698.74	16727.81
698.87	17036.76
699.01	16524.18
699.14	16472.69
699.27	16554.61
699.40	16688.02
699.54	16489.07
699.67	16421.20
699.80	16498.44
699.94	16486.73
700.07	16224.59
700.20	16168.42
700.34	16081.82
700.47	16166.08
700.60	16266.72
700.73	16016.29
700.87	16042.03
701.00	15880.53
701.13	15910.96
701.26	15927.35
701.40	15782.23
701.53	15665.21
701.66	15321.15
701.79	15421.79
701.93	15482.64
702.06	15215.82
702.19	14885.81
702.32	15260.29
702.46	15030.92
702.59	14965.39
702.72	15122.20
702.85	15159.65
702.99	15066.03
703.12	14789.85
703.25	14572.18
703.38	14548.77
703.51	14525.36
703.65	14473.87
703.78	14490.26
703.91	14230.46
704.04	14548.77
704.17	14099.39
704.31	14272.59
704.44	13818.52
704.57	14193.01
704.70	14066.62
704.83	14066.62
704.96	14136.84
705.10	14050.24
705.23	13837.25
>>>>>End Processed Spectral Data<<<<<
