SpectraSuite Data File
++++++++++++++++++++++++++++++++++++
Date: Fri Oct 25 10:47:55 EDT 2013
User: price-jones
Dark Spectrum Present: No
Reference Spectrum Present: No
Number of Sampled Component Spectra: 1
Spectrometers: USB2+H05261
Integration Time (usec): 100000 (USB2+H05261)
Spectra Averaged: 1 (USB2+H05261)
Boxcar Smoothing: 0 (USB2+H05261)
Correct for Electrical Dark: No (USB2+H05261)
Strobe/Lamp Enabled: No (USB2+H05261)
Correct for Detector Non-linearity: No (USB2+H05261)
Correct for Stray Light: No (USB2+H05261)
Number of Pixels in Processed Spectrum: 2048
>>>>>Begin Processed Spectral Data<<<<<
365.73	100.64
365.92	100.64
366.12	100.64
366.32	72.56
366.52	44.47
366.72	23.41
366.91	0.00
367.11	65.54
367.31	0.00
367.51	0.00
367.70	4.68
367.90	135.75
368.10	42.13
368.30	58.51
368.49	16.38
368.69	32.77
368.89	63.19
369.09	65.54
369.28	107.66
369.48	81.92
369.68	56.17
369.87	140.43
370.07	51.49
370.27	191.92
370.47	259.80
370.66	334.70
370.86	374.49
371.06	468.11
371.25	573.43
371.45	524.28
371.65	475.13
371.84	411.93
372.04	440.02
372.24	540.66
372.44	416.62
372.63	521.94
372.83	491.51
373.03	538.32
373.22	498.53
373.42	500.87
373.62	568.75
373.81	596.84
374.01	550.03
374.21	550.03
374.40	510.24
374.60	561.73
374.79	566.41
374.99	472.79
375.19	503.22
375.38	575.77
375.58	601.52
375.78	580.45
375.97	622.58
376.17	615.56
376.37	568.75
376.56	624.92
376.76	629.60
376.95	517.26
377.15	585.13
377.35	587.47
377.54	615.56
377.74	648.33
377.93	526.62
378.13	660.03
378.33	603.86
378.52	594.50
378.72	662.37
378.91	671.73
379.11	603.86
379.31	531.30
379.50	606.20
379.70	655.35
379.89	660.03
380.09	685.78
380.28	627.26
380.48	678.76
380.68	664.71
380.87	547.69
381.07	638.97
381.26	655.35
381.46	704.50
381.65	664.71
381.85	608.54
382.04	706.84
382.24	657.69
382.43	660.03
382.63	606.20
382.83	791.10
383.02	655.35
383.22	683.44
383.41	716.20
383.61	730.25
383.80	695.14
384.00	744.29
384.19	713.86
384.39	718.54
384.58	814.51
384.78	777.06
384.97	828.55
385.17	858.98
385.36	826.21
385.56	847.27
385.75	723.23
385.95	774.72
386.14	812.17
386.34	734.93
386.53	795.78
386.72	748.97
386.92	828.55
387.11	816.85
387.31	816.85
387.50	791.10
387.70	840.25
387.89	833.23
388.09	800.46
388.28	819.19
388.48	833.23
388.67	922.17
388.86	917.49
389.06	919.83
389.25	851.96
389.45	844.93
389.64	849.61
389.84	919.83
390.03	898.77
390.22	919.83
390.42	896.43
390.61	947.92
390.81	940.90
391.00	933.87
391.19	1011.11
391.39	943.24
391.58	1053.24
391.78	964.30
391.97	912.81
392.16	1006.43
392.36	1043.88
392.55	926.85
392.75	999.41
392.94	990.05
393.13	954.94
393.33	952.60
393.52	1046.22
393.71	957.28
393.91	1006.43
394.10	990.05
394.29	1029.84
394.49	1048.56
394.68	1076.65
394.88	978.34
395.07	1132.82
395.26	1219.42
395.46	1128.14
395.65	1151.54
395.84	1137.50
396.04	1228.78
396.23	1048.56
396.42	1153.88
396.62	1053.24
396.81	1153.88
397.00	1123.46
397.19	1139.84
397.39	1268.57
397.58	1310.70
397.77	1268.57
397.97	1228.78
398.16	1226.44
398.35	1249.85
398.55	1256.87
398.74	1306.02
398.93	1315.38
399.12	1294.32
399.32	1306.02
399.51	1313.04
399.70	1441.77
399.90	1345.81
400.09	1359.85
400.28	1359.85
400.47	1362.19
400.67	1418.36
400.86	1366.87
401.05	1526.03
401.24	1394.96
401.44	1479.22
401.63	1486.24
401.82	1486.24
402.01	1507.30
402.21	1528.37
402.40	1540.07
402.59	1479.22
402.78	1558.80
402.97	1568.16
403.17	1591.56
403.36	1614.97
403.55	1643.06
403.74	1650.08
403.93	1586.88
404.13	1659.44
404.32	1647.74
404.51	1610.29
404.70	1638.38
404.89	1687.53
405.09	1650.08
405.28	1769.44
405.47	1708.59
405.66	1769.44
405.85	1748.38
406.05	1781.15
406.24	1746.04
406.43	1729.66
406.62	1799.87
406.81	1846.68
407.00	1774.13
407.20	1804.55
407.39	1746.04
407.58	1867.75
407.77	1998.82
407.96	2069.03
408.15	2005.84
408.34	1928.60
408.54	2071.37
408.73	1928.60
408.92	2008.18
409.11	2078.40
409.30	2040.95
409.49	2080.74
409.68	2033.93
409.87	2080.74
410.07	2106.48
410.26	2064.35
410.45	2136.91
410.64	2214.15
410.83	2207.13
411.02	2083.08
411.21	2183.72
411.40	2324.15
411.59	2347.56
411.78	2284.36
411.98	2293.72
412.17	2326.49
412.36	2328.83
412.55	2361.60
412.74	2448.20
412.93	2427.14
413.12	2352.24
413.31	2485.65
413.50	2562.89
413.69	2487.99
413.88	2572.25
414.07	2586.29
414.26	2495.01
414.45	2651.83
414.64	2558.21
414.83	2654.17
415.02	2740.77
415.22	2829.71
415.41	2682.25
415.60	2764.17
415.79	2874.18
415.98	2918.65
416.17	2857.79
416.36	2745.45
416.55	2883.54
416.74	2890.56
416.93	2979.50
417.12	2974.82
417.31	3082.49
417.50	3009.93
417.69	3103.55
417.88	3007.59
418.07	3070.78
418.26	2888.22
418.45	3075.46
418.64	3178.45
418.83	3166.74
419.02	3133.98
419.21	3211.22
419.39	3215.90
419.58	3110.57
419.77	3293.13
419.96	3276.75
420.15	3166.74
420.34	3297.81
420.53	3339.94
420.72	3541.23
420.91	3428.88
421.10	3382.07
421.29	3344.63
421.48	3335.26
421.67	3440.59
421.86	3344.63
422.05	3379.73
422.24	3447.61
422.43	3410.16
422.61	3365.69
422.80	3562.30
422.99	3459.31
423.18	3506.12
423.37	3707.41
423.56	3644.21
423.75	3531.87
423.94	3412.50
424.13	3220.58
424.32	3323.56
424.50	3576.34
424.69	3609.11
424.88	3660.60
425.07	3459.31
425.26	3531.87
425.45	3538.89
425.64	3597.40
425.83	3588.04
426.01	3705.07
426.20	3527.19
426.39	3648.90
426.58	3548.25
426.77	3569.32
426.96	3478.04
427.15	3616.13
427.33	3691.02
427.52	3665.28
427.71	3824.44
427.90	3693.37
428.09	3810.39
428.28	3674.64
428.46	3672.30
428.65	3684.00
428.84	3960.19
429.03	3983.59
429.22	3662.94
429.40	3761.24
429.59	3824.44
429.78	3693.37
429.97	3698.05
430.16	3707.41
430.34	3733.15
430.53	3967.21
430.72	3847.84
430.91	3936.78
431.10	3918.06
431.28	4100.62
431.47	4156.79
431.66	4177.86
431.85	4009.34
432.03	4067.85
432.22	4210.62
432.41	4109.98
432.60	4194.24
432.79	4166.15
432.97	4259.78
433.16	4278.50
433.35	4173.18
433.54	4294.88
433.72	4217.65
433.91	4259.78
434.10	4505.53
434.28	4290.20
434.47	4421.27
434.66	4355.74
434.85	4489.15
435.03	4533.62
435.22	4547.66
435.41	4510.21
435.59	4489.15
435.78	4376.80
435.97	4493.83
436.16	4557.02
436.34	4564.04
436.53	4643.62
436.72	4727.88
436.90	4580.43
437.09	4683.41
437.28	4477.44
437.46	4631.92
437.65	4678.73
437.84	4863.63
438.02	4814.48
438.21	4812.14
438.40	4692.77
438.58	4751.29
438.77	5083.64
438.96	4915.12
439.14	4947.89
439.33	5036.83
439.52	5093.01
439.70	4961.94
439.89	5135.14
440.08	5139.82
440.26	5137.48
440.45	5284.93
440.63	5186.63
440.82	5392.59
441.01	5448.77
441.19	5261.52
441.38	5465.15
441.57	5341.10
441.75	5682.82
441.94	5575.16
442.12	5523.66
442.31	5481.53
442.50	5540.05
442.68	5628.99
442.87	5659.42
443.05	5626.65
443.24	5851.34
443.43	5708.57
443.61	5710.91
443.80	5942.62
443.98	5760.06
444.17	5572.82
444.35	5727.29
444.54	5853.68
444.73	5921.56
444.91	5928.58
445.10	5696.86
445.28	5858.36
445.47	5664.10
445.65	5659.42
445.84	6003.47
446.02	5956.66
446.21	5750.70
446.39	5839.64
446.58	5956.66
446.77	5987.09
446.95	5797.51
447.14	6092.41
447.32	6167.31
447.51	6010.50
447.69	5867.72
447.88	5954.32
448.06	6118.16
448.25	6106.46
448.43	6069.01
448.62	6043.26
448.80	6054.97
448.99	5942.62
449.17	5991.77
449.36	6129.86
449.54	6160.29
449.73	6174.33
449.91	6310.08
450.10	6422.43
450.28	6370.94
450.46	6387.32
450.65	6394.34
450.83	6401.37
451.02	6319.45
451.20	6457.54
451.39	6389.66
451.57	6511.37
451.76	6291.36
451.94	6546.48
452.13	6558.18
452.31	6450.52
452.49	6457.54
452.68	6324.13
452.86	6466.90
453.05	6548.82
453.23	6532.44
453.42	6581.59
453.60	6586.27
453.78	6544.14
453.97	6785.21
454.15	6586.27
454.34	6574.56
454.52	6867.13
454.70	6815.64
454.89	6621.38
455.07	6822.66
455.26	6654.14
455.44	7002.88
455.62	7119.91
455.81	6904.58
455.99	7000.54
456.17	6939.69
456.36	7098.84
456.54	7073.10
456.73	7089.48
456.91	7360.98
457.09	7304.81
457.28	7435.88
457.46	7049.69
457.64	7410.14
457.83	7183.10
458.01	7234.60
458.19	7522.48
458.38	7187.79
458.56	7576.31
458.74	7356.30
458.93	7302.47
459.11	7398.43
459.29	7382.05
459.48	7634.83
459.66	7489.71
459.84	7566.95
460.03	7838.45
460.21	7555.25
460.39	7691.00
460.57	7510.78
460.76	7623.12
460.94	7665.25
461.12	7557.59
461.31	8011.65
461.49	7655.89
461.67	7688.66
461.85	7955.48
462.04	7779.94
462.22	8290.18
462.40	7943.78
462.59	8039.74
462.77	7892.29
462.95	8147.40
463.13	8229.32
463.32	8016.33
463.50	8023.36
463.68	8053.78
463.86	8053.78
464.05	7852.50
464.23	8124.00
464.41	8011.65
464.59	8037.40
464.78	8180.17
464.96	8234.00
465.14	8053.78
465.32	8243.37
465.50	8283.16
465.69	8353.37
465.87	8327.63
466.05	8358.05
466.23	8208.26
466.41	8229.32
466.60	8463.38
466.78	8423.59
466.96	8348.69
467.14	8486.78
467.32	8475.08
467.51	8606.15
467.69	8257.41
467.87	8407.20
468.05	8798.07
468.23	8489.12
468.41	8432.95
468.60	8484.44
468.78	8674.03
468.96	8711.47
469.14	8648.28
469.32	8889.35
469.50	8690.41
469.69	8917.44
469.87	8849.57
470.05	8952.55
470.23	8926.80
470.41	8905.74
470.59	8926.80
470.77	8961.91
470.95	9036.81
471.14	9355.12
471.32	8959.57
471.50	9331.72
471.68	9200.65
471.86	9312.99
472.04	9163.20
472.22	9570.45
472.40	9233.41
472.58	9650.03
472.77	9462.79
472.95	9570.45
473.13	9717.90
473.31	9502.58
473.49	9521.30
473.67	9533.00
473.85	9738.97
474.03	9827.91
474.21	10279.63
474.39	10120.48
474.57	9947.28
474.75	10040.90
474.93	10005.79
475.12	10031.54
475.30	10228.14
475.48	10293.68
475.66	10246.87
475.84	10153.24
476.02	10384.96
476.20	10296.02
476.38	10640.08
476.56	10860.09
476.74	10731.36
476.92	10721.99
477.10	10885.83
477.28	10743.06
477.46	10846.04
477.64	10949.03
477.82	11250.96
478.00	11140.95
478.18	11424.15
478.36	11274.36
478.54	11419.47
478.72	11709.70
478.90	11538.84
479.08	11976.52
479.26	11892.26
479.44	11775.24
479.62	11852.47
479.80	12250.36
479.98	12159.08
480.16	12273.77
480.34	12276.11
480.52	12414.20
480.70	12470.37
480.88	12297.17
481.06	12596.76
481.24	12758.26
481.41	12959.55
481.59	12732.51
481.77	13116.36
481.95	12931.46
482.13	13111.68
482.31	13165.51
482.49	13422.97
482.67	13603.19
482.85	13523.62
483.03	13802.14
483.21	13923.85
483.39	14094.71
483.57	13820.86
483.74	14099.39
483.92	14251.52
484.10	13998.74
484.28	14623.67
484.46	14670.48
484.64	14656.43
484.82	14497.28
485.00	14963.04
485.18	15068.37
485.35	15365.62
485.53	15016.88
485.71	15131.56
485.89	15477.96
486.07	15246.25
486.25	15335.19
486.43	15702.65
486.61	15719.04
486.78	15770.53
486.96	16013.95
487.14	16126.29
487.32	16327.58
487.50	16695.04
487.68	16634.19
487.85	17132.72
488.03	16755.90
488.21	16938.46
488.39	16891.65
488.57	17027.40
488.75	17408.90
488.92	17633.60
489.10	17568.06
489.28	17666.36
489.46	18008.08
489.64	17689.77
489.81	18295.97
489.99	18200.01
490.17	18588.53
490.35	18698.54
490.53	18455.12
490.70	18843.65
490.88	18902.17
491.06	19035.58
491.24	19117.50
491.41	19122.18
491.59	19061.32
491.77	19124.52
491.95	19447.51
492.13	19700.29
492.30	19417.08
492.48	19843.06
492.66	19997.54
492.84	19861.79
493.01	20065.41
493.19	20262.02
493.37	20383.73
493.54	20505.43
493.72	20819.07
493.90	20851.83
494.08	20858.85
494.25	21149.08
494.43	21432.29
494.61	21027.37
494.79	21507.18
494.96	21261.43
495.14	21685.06
495.32	22178.92
495.49	22106.36
495.67	22024.44
495.85	21898.05
496.02	22087.64
496.20	22185.94
496.38	22525.32
496.55	22494.89
496.73	22806.18
496.91	22848.31
497.09	22869.37
497.26	23257.90
497.44	22869.37
497.62	22841.29
497.79	23365.57
497.97	23412.38
498.14	23604.30
498.32	23744.73
498.50	23674.52
498.67	23756.44
498.85	23953.04
499.03	23702.61
499.20	23875.80
499.38	24112.20
499.56	24020.92
499.73	24561.58
499.91	24704.35
500.08	24652.86
500.26	24257.31
500.44	24886.92
500.61	24863.51
500.79	24692.65
500.97	24790.95
501.14	25184.16
501.32	24767.55
501.49	25034.37
501.67	25032.03
501.84	25539.93
502.02	24926.71
502.20	25617.16
502.37	25839.51
502.55	25853.56
502.72	25731.85
502.90	25970.58
503.07	25654.61
503.25	25549.29
503.43	25663.97
503.60	26183.57
503.78	25926.11
503.95	26515.93
504.13	26520.61
504.30	26780.41
504.48	26380.18
504.65	26775.73
504.83	26749.98
505.01	27068.30
505.18	27065.96
505.36	27197.02
505.53	26892.76
505.71	27496.61
505.88	27255.54
506.06	27604.28
506.23	27431.08
506.41	27227.45
506.58	27885.14
506.76	27580.87
506.93	27789.18
507.11	27639.39
507.28	27960.04
507.46	27571.51
507.63	28074.73
507.81	28166.01
507.98	27854.72
508.16	28404.74
508.33	28570.92
508.50	28489.00
508.68	28100.47
508.85	28922.00
509.03	28819.02
509.20	28769.86
509.38	28868.17
509.55	29282.44
509.73	29181.80
509.90	29055.41
510.08	29055.41
510.25	29355.00
510.42	29069.45
510.60	29638.20
510.77	29549.26
510.95	29607.78
511.12	29603.10
511.30	29783.32
511.47	29593.73
511.64	30115.67
511.82	30120.35
511.99	30029.07
512.17	29745.87
512.34	29972.90
512.51	30230.36
512.69	30312.28
512.86	30515.90
513.04	30862.30
513.21	30349.73
513.38	30904.43
513.56	30874.01
513.73	30677.40
513.90	30609.53
514.08	31023.80
514.25	31140.83
514.43	30920.82
514.60	31047.21
514.77	31236.79
514.95	31007.42
515.12	31503.61
515.29	31276.58
515.47	31683.83
515.64	31569.15
515.81	31697.88
515.99	31316.37
516.16	31838.31
516.33	31667.45
516.51	31730.64
516.68	31477.86
516.85	31321.05
517.03	31344.45
517.20	31812.56
517.37	31728.30
517.54	32233.86
517.72	32449.19
517.89	32339.18
518.06	32034.91
518.24	32184.71
518.41	32360.25
518.58	32861.12
518.75	32680.90
518.93	32638.77
519.10	32535.79
519.27	32973.47
519.45	32952.40
519.62	32765.16
519.79	32898.57
519.96	33102.20
520.14	33420.51
520.31	32741.75
520.48	33436.89
520.65	33219.22
520.83	33600.73
521.00	33134.96
521.17	33464.98
521.34	33773.93
521.52	34127.35
521.69	33954.15
521.86	33916.70
522.03	34291.19
522.20	33982.24
522.38	34415.24
522.55	34092.24
522.72	34396.51
522.89	34122.67
523.07	34431.62
523.24	34164.80
523.41	34431.62
523.58	34417.58
523.75	34824.83
523.92	34691.42
524.10	34649.29
524.27	34841.21
524.44	35365.49
524.61	35049.52
524.78	35395.92
524.96	35323.36
525.13	35054.20
525.30	35196.98
525.47	35290.60
525.64	35555.08
525.81	35515.29
525.98	35573.80
526.16	34904.41
526.33	35442.73
526.50	35665.08
526.67	35475.50
526.84	35571.46
527.01	35395.92
527.18	35681.47
527.36	35683.81
527.53	35440.39
527.70	36531.08
527.87	35962.33
528.04	36182.34
528.21	35833.60
528.38	36020.84
528.55	36566.19
528.72	36371.92
528.89	36737.05
529.07	36538.10
529.24	36273.62
529.41	36500.65
529.58	36650.45
529.75	36594.28
529.92	36715.98
530.09	36371.92
530.26	36753.43
530.43	37001.53
530.60	36552.15
530.77	36994.51
530.94	37146.64
531.11	36914.93
531.28	37179.41
531.46	37324.52
531.63	37385.38
531.80	37549.21
531.97	37214.52
532.14	37148.98
532.31	36966.42
532.48	37219.20
532.65	37240.26
532.82	37706.03
532.99	37797.31
533.16	37612.41
533.33	37542.19
533.50	37970.51
533.67	37776.25
533.84	37471.98
534.01	38253.72
534.18	37420.48
534.35	38204.56
534.52	38052.43
534.69	38036.05
534.86	38153.07
535.03	37467.30
535.20	37937.74
535.37	38646.93
535.54	38497.13
535.71	38572.03
535.88	38124.99
536.05	38066.47
536.22	38845.87
536.38	38382.45
536.55	38508.83
536.72	38244.35
536.89	38707.78
537.06	38892.68
537.23	38810.76
537.40	38305.21
537.57	38656.29
537.74	38649.27
537.91	39440.37
538.08	39222.70
538.25	38272.44
538.42	38864.60
538.59	38941.83
538.75	38660.97
538.92	38787.36
539.09	39335.04
539.26	39681.44
539.43	39164.18
539.60	39159.50
539.77	38717.14
539.94	39470.79
540.11	39789.11
540.28	39871.03
540.44	39353.77
540.61	39328.02
540.78	39108.01
540.95	39517.60
541.12	39454.41
541.29	39515.26
541.46	39892.09
541.62	39611.23
541.79	40020.82
541.96	39442.71
542.13	39875.71
542.30	39484.84
542.47	39746.98
542.63	39903.79
542.80	40046.57
542.97	40133.17
543.14	40545.10
543.31	40727.66
543.48	40119.12
543.64	40542.76
543.81	40526.38
543.98	40430.41
544.15	40287.64
544.32	40938.31
544.48	41010.87
544.65	40224.45
544.82	40474.88
544.99	40722.98
545.16	40620.00
545.32	40959.38
545.49	40821.28
545.66	41167.68
545.83	41076.40
546.00	40912.56
546.16	41214.49
546.33	40959.38
546.50	40556.80
546.67	41097.47
546.83	40905.54
547.00	40802.56
547.17	41170.02
547.34	40807.24
547.50	41586.64
547.67	41628.77
547.84	41558.55
548.00	41832.39
548.17	41642.81
548.34	41392.37
548.51	41261.30
548.67	41462.59
548.84	41766.86
549.01	41483.66
549.18	41773.88
549.34	41755.16
549.51	41425.14
549.68	41635.79
549.84	41900.27
550.01	42005.59
550.18	42129.64
550.34	41839.42
550.51	41570.25
550.68	41460.25
550.84	41420.46
551.01	42199.86
551.18	41832.39
551.34	42085.17
551.51	41921.34
551.68	42267.73
551.84	42621.16
552.01	42213.90
552.18	42141.35
552.34	42155.39
552.51	42396.46
552.68	42305.18
552.84	42305.18
553.01	42923.08
553.18	42429.23
553.34	41897.93
553.51	42689.03
553.67	42382.42
553.84	42749.88
554.01	43147.78
554.17	42885.64
554.34	42667.97
554.51	42410.51
554.67	42899.68
554.84	43166.50
555.00	43115.01
555.17	42178.79
555.33	43187.56
555.50	42471.36
555.67	42782.65
555.83	42679.67
556.00	43019.05
556.16	42960.53
556.33	42958.19
556.50	42829.46
556.66	43164.16
556.83	43103.31
556.99	43309.27
557.16	43562.05
557.32	42923.08
557.49	43171.18
557.65	42995.64
557.82	42895.00
557.98	43154.80
558.15	43634.61
558.32	43323.32
558.48	43285.87
558.65	43384.17
558.81	43030.75
558.98	43328.00
559.14	43480.13
559.31	43309.27
559.47	43332.68
559.64	43545.67
559.80	43742.27
559.97	43540.99
560.13	43302.25
560.30	43676.74
560.46	43187.56
560.63	43154.80
560.79	43613.54
560.96	44065.27
561.12	43538.65
561.29	43517.58
561.45	43569.07
561.61	43227.35
561.78	43702.48
561.94	43711.84
562.11	43323.32
562.27	43496.52
562.44	43814.83
562.60	43791.42
562.77	44044.20
562.93	43442.68
563.10	43957.60
563.26	43952.92
563.42	44149.53
563.59	43969.30
563.75	43381.83
563.92	44018.46
564.08	44083.99
564.24	43990.37
564.41	44083.99
564.57	43917.81
564.74	43899.09
564.90	43704.82
565.07	44313.36
565.23	43812.49
565.39	44006.75
565.56	43906.11
565.72	43997.39
565.88	44236.12
566.05	44039.52
566.21	44083.99
566.38	44062.93
566.54	43988.03
566.70	43894.41
566.87	44348.47
567.03	44273.57
567.19	44442.09
567.36	44275.91
567.52	44053.56
567.68	44109.74
567.85	43662.69
568.01	44296.98
568.17	43768.02
568.34	44378.90
568.50	43948.24
568.66	44039.52
568.83	43955.26
568.99	43847.60
569.15	43899.09
569.32	43854.62
569.48	43976.33
569.64	44460.82
569.81	44222.08
569.97	43775.04
570.13	44205.70
570.30	44355.49
570.46	44023.14
570.62	44037.18
570.78	44069.95
570.95	43920.15
571.11	44549.76
571.27	44079.31
571.43	44140.16
571.60	44093.35
571.76	44025.48
571.92	44236.12
572.09	44250.17
572.25	44191.65
572.41	44830.62
572.57	44790.83
572.74	44863.39
572.90	44287.62
573.06	44549.76
573.22	44615.29
573.38	44114.42
573.55	44116.76
573.71	44601.25
573.87	44245.49
574.03	44446.77
574.20	44451.45
574.36	44301.66
574.52	44547.42
574.68	44479.54
574.84	44594.23
575.01	44456.14
575.17	44519.33
575.33	44196.34
575.49	44779.13
575.65	44863.39
575.82	45055.31
575.98	44498.26
576.14	44905.52
576.30	44596.57
576.46	44421.03
576.62	44357.83
576.79	44722.96
576.95	44369.54
577.11	43863.98
577.27	44641.04
577.43	44332.09
577.59	44582.52
577.75	44360.17
577.92	43796.10
578.08	44233.78
578.24	44458.48
578.40	44697.21
578.56	44444.43
578.72	44449.11
578.88	44699.55
579.04	44839.98
579.21	44135.48
579.37	44142.50
579.53	44505.29
579.69	44329.75
579.85	44521.67
580.01	44818.92
580.17	44671.46
580.33	44720.62
580.49	45017.86
580.65	44652.74
580.82	44690.19
580.98	44751.04
581.14	44383.58
581.30	44816.58
581.46	44570.82
581.62	44655.08
581.78	44435.07
581.94	44491.24
582.10	44458.48
582.26	44772.11
582.42	44545.08
582.58	44861.05
582.74	44591.89
582.90	44486.56
583.06	44652.74
583.22	44589.55
583.38	44648.06
583.54	44877.43
583.70	44711.25
583.86	44369.54
584.02	44364.85
584.18	44404.64
584.34	44952.33
584.50	44746.36
584.66	44512.31
584.82	44313.36
584.98	44854.03
585.14	44528.69
585.30	44596.57
585.46	44495.92
585.62	44624.65
585.78	44708.91
585.94	44486.56
586.10	44374.22
586.26	44854.03
586.42	44928.92
586.58	44830.62
586.74	44652.74
586.90	44350.81
587.06	44343.79
587.22	44856.37
587.38	44423.37
587.54	45188.72
587.70	44858.71
587.86	44406.98
588.02	44727.64
588.18	44910.20
588.34	44533.37
588.49	44332.09
588.65	44378.90
588.81	44493.58
588.97	44432.73
589.13	44671.46
589.29	44500.61
589.45	44828.28
589.61	44877.43
589.77	44914.88
589.93	44884.45
590.08	45200.43
590.24	45081.06
590.40	44800.19
590.56	44905.52
590.72	45212.13
590.88	44959.35
591.04	45186.38
591.20	45488.31
591.35	44907.86
591.51	45057.65
591.67	45003.82
591.83	45202.77
591.99	44652.74
592.15	44793.17
592.31	44814.24
592.46	45104.46
592.62	44900.84
592.78	45015.52
592.94	45184.04
593.10	44980.42
593.26	45116.17
593.41	44830.62
593.57	44832.96
593.73	45081.06
593.89	44779.13
594.05	45015.52
594.20	45193.40
594.36	45291.71
594.52	44629.34
594.68	45022.54
594.84	45127.87
594.99	45633.42
595.15	44608.27
595.31	45408.73
595.47	45188.72
595.62	45109.14
595.78	45162.98
595.94	45364.26
596.10	45268.30
596.25	45326.81
596.41	45429.80
596.57	44982.76
596.73	45280.00
596.88	45209.79
597.04	45251.92
597.20	44584.86
597.36	45202.77
597.51	45390.01
597.67	45277.66
597.83	45343.20
597.99	44987.44
598.14	45263.62
598.30	45045.95
598.46	45242.56
598.61	45001.48
598.77	45067.02
598.93	45268.30
599.09	45102.12
599.24	45673.21
599.40	45125.53
599.56	45343.20
599.71	45394.69
599.87	45460.23
600.03	45364.26
600.18	45642.79
600.34	45146.59
600.50	45099.78
600.65	44973.39
600.81	44839.98
600.97	45509.38
601.12	45397.03
601.28	45378.31
601.44	44844.66
601.59	44992.12
601.75	45132.55
601.91	45319.79
602.06	45177.02
602.22	45525.76
602.37	44856.37
602.53	45081.06
602.69	45247.24
602.84	44949.99
603.00	44980.42
603.16	45322.13
603.31	44814.24
603.47	45205.11
603.62	45024.89
603.78	45076.38
603.94	44903.18
604.09	45406.39
604.25	45378.31
604.40	45364.26
604.56	44619.97
604.71	45081.06
604.87	45118.51
605.03	44949.99
605.18	45097.44
605.34	45076.38
605.49	44751.04
605.65	45055.31
605.80	45055.31
605.96	44949.99
606.12	45130.21
606.27	45710.66
606.43	44907.86
606.58	45155.96
606.74	45228.51
606.89	44797.85
607.05	44933.60
607.20	44816.58
607.36	45036.59
607.51	45390.01
607.67	45221.49
607.82	44945.31
607.98	45296.39
608.13	44931.26
608.29	44926.58
608.44	44243.15
608.60	44477.20
608.75	44847.00
608.91	44641.04
609.06	44596.57
609.22	44914.88
609.37	44561.46
609.53	45153.62
609.68	44734.66
609.84	44650.40
609.99	45013.18
610.15	44854.03
610.30	44746.36
610.46	44399.96
610.61	44741.68
610.76	44563.80
610.92	44657.42
611.07	44423.37
611.23	44619.97
611.38	44416.35
611.54	44409.32
611.69	44161.23
611.84	44238.47
612.00	43868.66
612.15	44549.76
612.31	44734.66
612.46	44217.40
612.62	44664.44
612.77	44421.03
612.92	44467.84
613.08	44060.58
613.23	44435.07
613.39	44275.91
613.54	43856.96
613.69	44247.83
613.85	44006.75
614.00	44732.32
614.15	44367.20
614.31	44093.35
614.46	44760.40
614.62	44444.43
614.77	44596.57
614.92	44123.78
615.08	43978.67
615.23	44144.84
615.38	44196.34
615.54	43899.09
615.69	44175.27
615.84	43718.87
616.00	44149.53
616.15	43782.06
616.30	43763.34
616.46	43700.14
616.61	43405.23
616.76	43878.02
616.92	43297.57
617.07	43988.03
617.22	43782.06
617.37	43538.65
617.53	43803.13
617.68	43927.17
617.83	43690.78
617.99	43899.09
618.14	43749.29
618.29	43555.03
618.45	43068.20
618.60	43735.25
618.75	43639.29
618.90	43580.78
619.06	43833.55
619.21	43065.86
619.36	43803.13
619.51	43517.58
619.67	43501.20
619.82	43459.07
619.97	43688.44
620.12	43447.36
620.28	42768.61
620.43	43152.46
620.58	43438.00
620.73	43618.22
620.89	43229.69
621.04	43398.21
621.19	43281.19
621.34	43339.70
621.49	42834.14
621.65	42672.65
621.80	43379.49
621.95	42682.01
622.10	43262.46
622.25	43042.45
622.41	43208.63
622.56	42803.72
622.71	42759.25
622.86	42815.42
623.01	42873.93
623.16	43140.75
623.32	42738.18
623.47	42843.51
623.62	43068.20
623.77	42974.58
623.92	42682.01
624.07	42637.54
624.23	42047.72
624.38	42351.99
624.53	42579.03
624.68	43117.35
624.83	42801.38
624.98	42883.30
625.13	42309.86
625.29	42588.39
625.44	43002.66
625.59	42066.45
625.74	42164.75
625.89	42031.34
626.04	42045.38
626.19	42429.23
626.34	42588.39
626.49	42057.09
626.65	42330.93
626.80	42604.77
626.95	42092.19
627.10	42139.00
627.25	41731.75
627.40	42014.96
627.55	41717.71
627.70	41600.68
627.85	41958.78
628.00	42150.71
628.15	42412.85
628.30	42117.94
628.45	42333.27
628.60	41680.26
628.76	42019.64
628.91	41961.12
629.06	41762.18
629.21	41918.99
629.36	41846.44
629.51	41361.95
629.66	41741.11
629.81	41591.32
629.96	41691.96
630.11	41750.48
630.26	41553.87
630.41	42293.48
630.56	41310.46
630.71	41928.36
630.86	41596.00
631.01	41074.06
631.16	41308.11
631.31	41340.88
631.46	41305.77
631.61	41270.67
631.76	41263.64
631.91	41298.75
632.06	41411.10
632.21	41160.66
632.36	41359.61
632.51	41137.26
632.66	41291.73
632.81	41338.54
632.96	41305.77
633.10	41048.32
633.25	40989.80
633.40	41434.50
633.55	41439.18
633.70	41071.72
633.85	40772.13
634.00	41535.15
634.15	40863.41
634.30	40765.11
634.45	40872.78
634.60	41008.53
634.75	40755.75
634.90	40858.73
635.05	40802.56
635.19	40762.77
635.34	41027.25
635.49	40762.77
635.64	40282.96
635.79	40673.83
635.94	40601.27
636.09	40451.48
636.24	40521.69
636.39	40065.29
636.53	40769.79
636.68	40397.65
636.83	40350.84
636.98	40755.75
637.13	39856.98
637.28	40332.11
637.43	40477.22
637.57	40493.61
637.72	40308.71
637.87	40481.91
638.02	40355.52
638.17	39714.21
638.32	40346.15
638.46	39784.43
638.61	39966.99
638.76	40009.12
638.91	40018.48
639.06	40524.04
639.20	39882.73
639.35	40329.77
639.50	40172.96
639.65	40067.63
639.80	40484.25
639.94	40163.59
640.09	40119.12
640.24	39901.45
640.39	39758.68
640.54	39505.90
640.68	39819.53
640.83	40023.16
640.98	39491.86
641.13	39629.95
641.27	39538.67
641.42	39768.04
641.57	39997.41
641.72	39665.06
641.86	39372.49
642.01	39271.85
642.16	39431.01
642.31	39189.93
642.45	39248.44
642.60	39278.87
642.75	39201.63
642.90	39505.90
643.04	39634.63
643.19	39559.73
643.34	39751.66
643.48	39503.56
643.63	39288.23
643.78	39154.82
643.93	38459.68
644.07	39037.80
644.22	39178.23
644.37	39044.82
644.51	38562.67
644.66	38976.94
644.81	39026.09
644.95	39255.46
645.10	39346.75
645.25	39702.51
645.39	39255.46
645.54	39159.50
645.69	39555.05
645.83	39009.71
645.98	39007.37
646.13	39131.42
646.27	39002.69
646.42	38803.74
646.57	39152.48
646.71	38726.50
646.86	38696.08
647.00	38590.75
647.15	38665.65
647.30	39138.44
647.44	38876.30
647.59	38803.74
647.74	38415.21
647.88	38345.00
648.03	38073.49
648.17	38438.62
648.32	38443.30
648.47	38433.94
648.61	38574.37
648.76	38672.67
648.90	38705.44
649.05	38726.50
649.20	38574.37
649.34	38998.01
649.49	38181.16
649.63	38204.56
649.78	38382.45
649.92	38249.03
650.07	38609.48
650.21	38073.49
650.36	38527.56
650.51	37689.65
650.65	38651.61
650.80	38625.86
650.94	38354.36
651.09	38384.79
651.23	38071.15
651.38	37975.19
651.52	38206.90
651.67	37846.46
651.81	37869.87
651.96	37659.22
652.10	37804.33
652.25	37624.11
652.39	37787.95
652.54	38213.93
652.68	37851.14
652.83	38047.75
652.97	38330.95
653.12	38256.06
653.26	37640.50
653.41	37581.98
653.55	37659.22
653.70	37368.99
653.84	37699.01
653.99	37598.37
654.13	37490.70
654.27	37563.26
654.42	37401.76
654.56	37401.76
654.71	37546.87
654.85	37556.24
655.00	37525.81
655.14	37352.61
655.29	37237.92
655.43	37390.06
655.57	37120.90
655.72	36790.88
655.86	36608.32
656.01	37457.93
656.15	37118.56
656.30	36891.52
656.44	37191.11
656.58	36760.45
656.73	36994.51
656.87	36950.04
657.01	36353.20
657.16	36821.31
657.30	36711.30
657.45	36687.90
657.59	36715.98
657.73	36776.84
657.88	36856.42
658.02	36950.04
658.16	36662.15
658.31	37048.34
658.45	37092.81
658.60	36657.47
658.74	36746.41
658.88	36505.34
659.03	36070.00
659.17	36079.36
659.31	36350.86
659.46	36238.51
659.60	36163.62
659.74	35585.50
659.89	36362.56
660.03	36102.76
660.17	36809.61
660.32	36201.07
660.46	36547.47
660.60	35929.56
660.74	36210.43
660.89	36114.47
661.03	35681.47
661.17	35526.99
661.32	35747.00
661.46	35576.14
661.60	35686.15
661.74	35978.72
661.89	35613.59
662.03	36032.55
662.17	35751.68
662.31	35456.78
662.46	36041.91
662.60	35599.55
662.74	35618.27
662.88	35482.52
663.03	34953.56
663.17	35515.29
663.31	35306.98
663.45	35175.91
663.60	35323.36
663.74	34864.62
663.88	35093.99
664.02	34668.02
664.17	35302.30
664.31	34466.73
664.45	35077.61
664.59	34878.66
664.73	34555.67
664.88	34775.68
665.02	34539.29
665.16	34859.94
665.30	34396.51
665.44	34529.92
665.59	34274.80
665.73	34356.72
665.87	34157.78
666.01	34431.62
666.15	33813.72
666.29	33984.58
666.44	34328.64
666.58	34054.79
666.72	34132.03
666.86	34345.02
667.00	34078.20
667.14	33851.17
667.28	34012.66
667.43	33823.08
667.57	33811.38
667.71	33624.14
667.85	33804.36
667.99	33677.97
668.13	33661.58
668.27	33394.76
668.41	33167.73
668.56	33359.66
668.70	33619.46
668.84	33113.90
668.98	33076.45
669.12	33324.55
669.26	33425.19
669.40	33369.02
669.54	33050.70
669.68	32851.76
669.82	33146.67
669.96	32753.46
670.10	32465.57
670.25	33003.89
670.39	32767.50
670.53	32652.81
670.67	32465.57
670.81	32830.69
670.95	32573.24
671.09	32964.10
671.23	32704.31
671.37	32275.99
671.51	32163.64
671.65	32165.98
671.79	32259.60
671.93	32261.94
672.07	32271.31
672.21	32009.17
672.35	31700.22
672.49	31894.48
672.63	31988.10
672.77	31555.10
672.91	31503.61
673.05	31583.19
673.19	31452.12
673.33	31578.51
673.47	31534.04
673.61	31676.81
673.75	31398.29
673.89	30988.69
674.03	30637.61
674.17	30953.58
674.31	30962.95
674.45	30651.66
674.59	31084.65
674.73	30831.88
674.87	30857.62
675.01	30895.07
675.15	31072.95
675.29	30937.20
675.43	30728.89
675.56	30438.67
675.70	30876.35
675.84	30323.98
675.98	28973.49
676.12	30270.15
676.26	29989.28
676.40	29795.02
676.54	29996.31
676.68	29799.70
676.82	28975.83
676.96	29357.34
677.10	29017.96
677.23	29673.31
677.37	29233.29
677.51	29371.38
677.65	29504.79
677.79	29179.46
677.93	29010.94
678.07	28734.76
678.21	28643.48
678.34	28458.57
678.48	28573.26
678.62	28404.74
678.76	28343.89
678.90	28496.02
679.04	28231.54
679.18	28442.19
679.31	28020.89
679.45	27871.10
679.59	27681.52
679.73	27693.22
679.87	28102.81
680.00	28025.57
680.14	27702.58
680.28	27690.88
680.42	27637.05
680.56	27339.80
680.70	27175.96
680.83	27295.33
680.97	26913.82
681.11	26719.56
681.25	27047.23
681.39	26848.29
681.52	26941.91
681.66	27096.38
681.80	26396.56
681.94	26426.99
682.07	26340.39
682.21	26307.62
682.35	26291.24
682.49	26216.34
682.62	26331.03
682.76	25949.52
682.90	26057.18
683.04	26195.28
683.17	26005.69
683.31	25795.04
683.45	25862.92
683.59	25762.28
683.72	25453.33
683.86	25392.47
684.00	25453.33
684.13	25289.49
684.27	25062.46
684.41	25184.16
684.55	25102.25
684.68	24964.15
684.82	24755.85
684.96	24201.14
685.09	24711.38
685.23	24474.98
685.37	24428.17
685.50	24496.05
685.64	24301.78
685.78	24423.49
685.91	24243.27
686.05	24208.16
686.19	23807.93
686.32	24020.92
686.46	23775.16
686.60	23587.92
686.73	23674.52
686.87	23065.98
687.01	23555.15
687.14	23115.13
687.28	23054.28
687.42	22864.69
687.55	22810.86
687.69	23143.22
687.82	23136.20
687.96	22993.42
688.10	22654.05
688.23	22658.73
688.37	22089.98
688.50	22022.10
688.64	22466.80
688.78	22132.11
688.91	22061.89
689.05	22127.42
689.18	21722.51
689.32	21586.76
689.46	22122.74
689.59	22019.76
689.73	21781.03
689.86	21752.94
690.00	21605.49
690.13	22073.59
690.27	21750.60
690.41	21605.49
690.54	21355.05
690.68	21181.85
690.81	21008.65
690.95	20910.35
691.08	21067.16
691.22	20924.39
691.35	20849.49
691.49	20987.58
691.62	20760.55
691.76	20442.24
691.89	20519.48
692.03	20456.28
692.16	20512.46
692.30	20264.36
692.43	20247.97
692.57	20238.61
692.70	20116.90
692.84	20128.61
692.97	19896.89
693.11	19506.02
693.24	19726.04
693.38	19594.96
693.51	19363.25
693.65	19688.59
693.78	19609.01
693.92	19431.13
694.05	19288.35
694.19	19063.66
694.32	19438.15
694.45	19154.94
694.59	19204.10
694.72	19096.43
694.86	18937.27
694.99	18537.04
695.13	18560.45
695.26	18389.59
695.39	18326.39
695.53	18192.98
695.66	18476.19
695.80	18279.58
695.93	18317.03
696.07	18218.73
696.20	17935.53
696.33	18190.64
696.47	18120.43
696.60	18024.47
696.73	17907.44
696.87	17834.88
697.00	17762.33
697.14	17554.02
697.27	17591.47
697.40	17624.23
697.54	17366.78
697.67	17085.91
697.80	17240.39
697.94	17130.38
698.07	16844.84
698.21	17078.89
698.34	16844.84
698.47	16856.54
698.61	16477.37
698.74	16582.70
698.87	16791.00
699.01	16498.44
699.14	16395.45
699.27	16444.60
699.40	16189.49
699.54	16297.15
699.67	15742.44
699.80	16353.32
699.94	16093.52
700.07	15901.60
700.20	15831.38
700.34	15791.59
700.47	15896.92
700.60	15733.08
700.73	15894.58
700.87	15957.77
701.00	15382.00
701.13	15192.42
701.26	15337.53
701.40	15346.89
701.53	15098.80
701.66	15150.29
701.79	15192.42
701.93	15145.61
702.06	14974.75
702.19	14822.61
702.32	14927.94
702.46	14476.21
702.59	14862.40
702.72	14747.72
702.85	14466.85
702.99	14724.31
703.12	14647.07
703.25	14389.61
703.38	14200.03
703.51	14092.37
703.65	14256.20
703.78	14324.08
703.91	14127.47
704.04	14178.97
704.17	13970.66
704.31	13933.21
704.44	13507.23
704.57	13568.09
704.70	13650.00
704.83	13591.49
704.96	13703.84
705.10	13879.38
705.23	13764.69
>>>>>End Processed Spectral Data<<<<<
