SpectraSuite Data File
++++++++++++++++++++++++++++++++++++
Date: Fri Oct 25 10:44:40 EDT 2013
User: price-jones
Dark Spectrum Present: No
Reference Spectrum Present: No
Number of Sampled Component Spectra: 1
Spectrometers: USB2+H05261
Integration Time (usec): 100000 (USB2+H05261)
Spectra Averaged: 1 (USB2+H05261)
Boxcar Smoothing: 0 (USB2+H05261)
Correct for Electrical Dark: No (USB2+H05261)
Strobe/Lamp Enabled: No (USB2+H05261)
Correct for Detector Non-linearity: No (USB2+H05261)
Correct for Stray Light: No (USB2+H05261)
Number of Pixels in Processed Spectrum: 2048
>>>>>Begin Processed Spectral Data<<<<<
365.73	138.09
365.92	138.09
366.12	138.09
366.32	0.00
366.52	25.75
366.72	28.09
366.91	0.00
367.11	60.85
367.31	18.72
367.51	0.00
367.70	28.09
367.90	81.92
368.10	49.15
368.30	58.51
368.49	35.11
368.69	72.56
368.89	2.34
369.09	0.00
369.28	121.71
369.48	119.37
369.68	51.49
369.87	140.43
370.07	88.94
370.27	161.50
370.47	168.52
370.66	332.36
370.86	322.99
371.06	463.43
371.25	503.22
371.45	477.47
371.65	372.15
371.84	468.11
372.04	458.74
372.24	449.38
372.44	437.68
372.63	568.75
372.83	561.73
373.03	493.85
373.22	512.58
373.42	512.58
373.62	521.94
373.81	491.51
374.01	528.96
374.21	575.77
374.40	505.56
374.60	552.37
374.79	482.15
374.99	493.85
375.19	428.32
375.38	589.82
375.58	645.99
375.78	599.18
375.97	627.26
376.17	575.77
376.37	519.60
376.56	463.43
376.76	608.54
376.95	601.52
377.15	622.58
377.35	528.96
377.54	559.39
377.74	531.30
377.93	580.45
378.13	643.65
378.33	599.18
378.52	676.41
378.72	596.84
378.91	606.20
379.11	587.47
379.31	547.69
379.50	650.67
379.70	617.90
379.89	603.86
380.09	641.31
380.28	617.90
380.48	657.69
380.68	601.52
380.87	655.35
381.07	615.56
381.26	718.54
381.46	699.82
381.65	650.67
381.85	582.79
382.04	627.26
382.24	634.29
382.43	636.63
382.63	587.47
382.83	704.50
383.02	638.97
383.22	718.54
383.41	638.97
383.61	645.99
383.80	720.88
384.00	753.65
384.19	718.54
384.39	695.14
384.58	748.97
384.78	727.91
384.97	760.67
385.17	662.37
385.36	734.93
385.56	688.12
385.75	741.95
385.95	774.72
386.14	730.25
386.34	777.06
386.53	765.36
386.72	784.08
386.92	819.19
387.11	800.46
387.31	718.54
387.50	709.18
387.70	826.21
387.89	833.23
388.09	833.23
388.28	842.59
388.48	866.00
388.67	800.46
388.86	875.36
389.06	882.38
389.25	863.66
389.45	945.58
389.64	835.57
389.84	868.34
390.03	889.40
390.22	957.28
390.42	950.26
390.61	854.30
390.81	971.32
391.00	901.11
391.19	978.34
391.39	922.17
391.58	990.05
391.78	999.41
391.97	971.32
392.16	943.24
392.36	959.62
392.55	983.02
392.75	1013.45
392.94	882.38
393.13	968.98
393.33	983.02
393.52	896.43
393.71	973.66
393.91	999.41
394.10	1029.84
394.29	1043.88
394.49	1041.54
394.68	1107.07
394.88	1032.18
395.07	983.02
395.26	1062.60
395.46	1048.56
395.65	1188.99
395.84	1125.80
396.04	1181.97
396.23	1172.61
396.42	1083.67
396.62	1142.18
396.81	1088.35
397.00	1081.33
397.19	1247.51
397.39	1130.48
397.58	1233.46
397.77	1226.44
397.97	1252.19
398.16	1214.74
398.35	1315.38
398.55	1275.59
398.74	1317.72
398.93	1401.98
399.12	1352.83
399.32	1334.11
399.51	1401.98
399.70	1394.96
399.90	1404.32
400.09	1324.74
400.28	1390.28
400.47	1420.71
400.67	1423.05
400.86	1418.36
401.05	1420.71
401.24	1495.60
401.44	1523.69
401.63	1504.96
401.82	1509.65
402.01	1483.90
402.21	1582.20
402.40	1493.26
402.59	1504.96
402.78	1575.18
402.97	1511.99
403.17	1612.63
403.36	1577.52
403.55	1584.54
403.74	1680.50
403.93	1680.50
404.13	1643.06
404.32	1692.21
404.51	1657.10
404.70	1621.99
404.89	1647.74
405.09	1746.04
405.28	1666.46
405.47	1785.83
405.66	1727.32
405.85	1757.74
406.05	1774.13
406.24	1661.78
406.43	1764.76
406.62	1872.43
406.81	1858.39
407.00	1806.89
407.20	1816.26
407.39	1799.87
407.58	1853.70
407.77	2015.20
407.96	2003.50
408.15	2031.58
408.34	1937.96
408.54	2040.95
408.73	1980.09
408.92	2059.67
409.11	2064.35
409.30	2015.20
409.49	1991.80
409.68	2076.06
409.87	2129.89
410.07	2113.50
410.26	2188.40
410.45	2207.13
410.64	2057.33
410.83	2235.21
411.02	2176.70
411.21	2188.40
411.40	2207.13
411.59	2331.17
411.78	2218.83
411.98	2256.28
412.17	2502.03
412.36	2253.94
412.55	2300.75
412.74	2429.48
412.93	2314.79
413.12	2424.80
413.31	2520.76
413.50	2506.71
413.69	2551.18
413.88	2525.44
414.07	2572.25
414.26	2520.76
414.45	2602.68
414.64	2548.84
414.83	2597.99
415.02	2710.34
415.22	2672.89
415.41	2651.83
415.60	2703.32
415.79	2827.37
415.98	2862.48
416.17	2752.47
416.36	2780.56
416.55	2862.48
416.74	2918.65
416.93	2930.35
417.12	2881.20
417.31	2967.80
417.50	2876.52
417.69	3000.57
417.88	3059.08
418.07	3030.99
418.26	3045.04
418.45	3009.93
418.64	3162.06
418.83	3089.51
419.02	3166.74
419.21	3225.26
419.39	3283.77
419.58	3187.81
419.77	3143.34
419.96	3213.56
420.15	3463.99
420.34	3300.16
420.53	3269.73
420.72	3342.28
420.91	3445.27
421.10	3382.07
421.29	3485.06
421.48	3372.71
421.67	3492.08
421.86	3410.16
422.05	3375.05
422.24	3311.86
422.43	3372.71
422.61	3473.36
422.80	3459.31
422.99	3496.76
423.18	3515.48
423.37	3559.95
423.56	3630.17
423.75	3538.89
423.94	3407.82
424.13	3309.52
424.32	3323.56
424.50	3557.61
424.69	3623.15
424.88	3506.12
425.07	3377.39
425.26	3485.06
425.45	3510.80
425.64	3496.76
425.83	3468.67
426.01	3707.41
426.20	3625.49
426.39	3658.26
426.58	3517.83
426.77	3524.85
426.96	3613.79
427.15	3597.40
427.33	3660.60
427.52	3655.92
427.71	3770.60
427.90	3684.00
428.09	3812.73
428.28	3744.86
428.46	3691.02
428.65	3758.90
428.84	3911.04
429.03	3927.42
429.22	3658.26
429.40	3796.35
429.59	3861.88
429.78	3658.26
429.97	3730.81
430.16	3651.24
430.34	3796.35
430.53	3836.14
430.72	3808.05
430.91	3880.61
431.10	3953.16
431.28	4028.06
431.47	4025.72
431.66	4173.18
431.85	3997.64
432.03	4234.03
432.22	4285.52
432.41	4112.32
432.60	4184.88
432.79	4161.47
432.97	4215.30
433.16	4163.81
433.35	4081.89
433.54	4236.37
433.72	4262.12
433.91	4161.47
434.10	4306.59
434.28	4276.16
434.47	4276.16
434.66	4252.75
434.85	4388.50
435.03	4432.97
435.22	4400.21
435.41	4685.75
435.59	4617.88
435.78	4648.30
435.97	4592.13
436.16	4585.11
436.34	4465.74
436.53	4571.07
436.72	4573.41
436.90	4634.26
437.09	4631.92
437.28	4531.28
437.46	4683.41
437.65	4671.71
437.84	4762.99
438.02	4568.73
438.21	4697.46
438.40	4648.30
438.58	4821.50
438.77	4905.76
438.96	4791.08
439.14	5008.75
439.33	4964.28
439.52	5116.41
439.70	5195.99
439.89	5142.16
440.08	4980.66
440.26	5170.24
440.45	5027.47
440.63	5296.63
440.82	5350.46
441.01	5245.14
441.19	5418.34
441.38	5317.70
441.57	5420.68
441.75	5547.07
441.94	5603.24
442.12	5774.10
442.31	5575.16
442.50	5509.62
442.68	5708.57
442.87	5584.52
443.05	5781.12
443.24	5844.32
443.43	5671.12
443.61	5657.07
443.80	5849.00
443.98	5699.20
444.17	5500.26
444.35	5750.70
444.54	5977.73
444.73	5888.79
444.91	5706.23
445.10	5776.44
445.28	5675.80
445.47	5631.33
445.65	5738.99
445.84	5809.21
446.02	5799.85
446.21	5987.09
446.39	5926.24
446.58	5942.62
446.77	5984.75
446.95	5879.43
447.14	5994.11
447.32	6108.80
447.51	6101.78
447.69	6066.67
447.88	6066.67
448.06	5933.26
448.25	6078.37
448.43	5973.05
448.62	5926.24
448.80	5809.21
448.99	5973.05
449.17	6136.88
449.36	6001.13
449.54	6146.25
449.73	6317.11
449.91	6406.05
450.10	6431.79
450.28	6427.11
450.46	6363.92
450.65	6340.51
450.83	6415.41
451.02	6235.19
451.20	6469.24
451.39	6506.69
451.57	6387.32
451.76	6413.07
451.94	6464.56
452.13	6586.27
452.31	6438.81
452.49	6422.43
452.68	6558.18
452.86	6473.92
453.05	6621.38
453.23	6558.18
453.42	6284.34
453.60	6595.63
453.78	6633.08
453.97	6494.99
454.15	6649.46
454.34	6651.80
454.52	6689.25
454.70	6719.68
454.89	6642.44
455.07	6731.38
455.26	6890.54
455.44	6906.92
455.62	6895.22
455.81	7122.25
455.99	6951.39
456.17	7082.46
456.36	6979.48
456.54	7129.27
456.73	7068.42
456.91	7236.94
457.09	7272.04
457.28	7321.20
457.46	7190.13
457.64	7267.36
457.83	7377.37
458.01	7246.30
458.19	7267.36
458.38	7328.22
458.56	7155.02
458.74	7419.50
458.93	7456.95
459.11	7309.49
459.29	7578.65
459.48	7569.29
459.66	7258.00
459.84	7478.01
460.03	7803.35
460.21	7597.38
460.39	7538.87
460.57	7581.00
460.76	7740.15
460.94	7770.58
461.12	7779.94
461.31	7929.74
461.49	7719.09
461.67	7721.43
461.85	7946.12
462.04	7974.21
462.22	8170.81
462.40	7962.50
462.59	7939.10
462.77	7976.55
462.95	7906.33
463.13	8159.11
463.32	7880.58
463.50	7962.50
463.68	7988.25
463.86	8070.17
464.05	7852.50
464.23	8093.57
464.41	8205.92
464.59	8004.63
464.78	8276.13
464.96	8283.16
465.14	8107.62
465.32	8292.52
465.50	8311.24
465.69	8334.65
465.87	8365.07
466.05	8255.07
466.23	8376.78
466.41	8269.11
466.60	8554.66
466.78	8262.09
466.96	8205.92
467.14	8219.96
467.32	8575.72
467.51	8664.66
467.69	8226.98
467.87	8613.17
468.05	8538.27
468.23	8507.85
468.41	8578.06
468.60	8629.56
468.78	8655.30
468.96	8606.15
469.14	8835.52
469.32	8851.91
469.50	8671.68
469.69	8816.80
469.87	8767.65
470.05	8777.01
470.23	9011.06
470.41	8842.54
470.59	9022.77
470.77	8828.50
470.95	9146.81
471.14	9193.62
471.32	9029.79
471.50	9198.31
471.68	9275.54
471.86	9371.50
472.04	9427.68
472.22	9542.36
472.40	9411.29
472.58	9341.08
472.77	9502.58
472.95	9315.33
473.13	9753.01
473.31	9308.31
473.49	9514.28
473.67	9556.41
473.85	9755.35
474.03	9895.78
474.21	9994.09
474.39	10076.01
474.57	10085.37
474.75	10155.58
474.93	10164.95
475.12	10204.74
475.30	10178.99
475.48	9940.26
475.66	10174.31
475.84	10244.52
476.02	10368.57
476.20	10384.96
476.38	10267.93
476.56	10927.96
476.74	10565.18
476.92	10597.95
477.10	10644.76
477.28	10937.32
477.46	10899.87
477.64	11047.33
477.82	11096.48
478.00	11372.66
478.18	11410.11
478.36	11290.74
478.54	11314.15
478.72	11468.62
478.90	11456.92
479.08	11686.29
479.26	11733.11
479.44	12035.03
479.62	11875.88
479.80	12294.83
479.98	12159.08
480.16	12208.23
480.34	12388.46
480.52	12453.99
480.70	12510.16
480.88	12233.98
481.06	12732.51
481.24	12489.10
481.41	12847.20
481.59	13004.02
481.77	13102.32
481.95	12954.87
482.13	13036.78
482.31	13226.37
482.49	13715.54
482.67	13731.92
482.85	13778.73
483.03	13809.16
483.21	13823.20
483.39	14045.55
483.57	13797.46
483.74	14024.49
483.92	14068.96
484.10	13977.68
484.28	14394.29
484.46	14544.09
484.64	14855.38
484.82	14539.41
485.00	15044.96
485.18	14951.34
485.35	14972.41
485.53	14909.21
485.71	14937.30
485.89	15297.74
486.07	15470.94
486.25	15557.54
486.43	15583.29
486.61	15623.08
486.78	15836.06
486.96	16009.26
487.14	16116.93
487.32	16056.08
487.50	16170.76
487.68	16758.24
487.85	16631.85
488.03	16896.33
488.21	17142.08
488.39	16865.90
488.57	17256.77
488.75	17139.74
488.92	17467.42
489.10	17605.51
489.28	17769.35
489.46	17748.28
489.64	18092.34
489.81	18389.59
489.99	18335.76
490.17	18663.43
490.35	18625.98
490.53	18745.35
490.70	18700.88
490.88	18684.50
491.06	19030.90
491.24	18965.36
491.41	19009.83
491.59	19066.00
491.77	18764.07
491.95	19339.85
492.13	19613.69
492.30	19726.04
492.48	19887.53
492.66	19857.10
492.84	19719.01
493.01	20219.89
493.19	20128.61
493.37	20552.24
493.54	20231.59
493.72	20793.32
493.90	21064.82
494.08	20966.52
494.25	21221.64
494.43	21032.05
494.61	21291.85
494.79	21214.62
494.96	21451.01
495.14	21528.25
495.32	21570.38
495.49	21769.32
495.67	21268.45
495.85	21986.99
496.02	22157.85
496.20	22078.27
496.38	21884.01
496.55	22347.44
496.73	23197.05
496.91	22504.25
497.09	22813.20
497.26	23063.64
497.44	22757.03
497.62	23070.66
497.79	23255.56
497.97	23206.41
498.14	23583.24
498.32	23365.57
498.50	23866.44
498.67	23878.15
498.85	24271.36
499.03	24339.23
499.20	24336.89
499.38	23971.77
499.56	24325.19
499.73	24243.27
499.91	23943.68
500.08	24460.94
500.26	24315.83
500.44	24678.61
500.61	24732.44
500.79	24805.00
500.97	24982.88
501.14	25198.21
501.32	24936.07
501.49	25127.99
501.67	24931.39
501.84	25331.62
502.02	25558.65
502.20	25724.83
502.37	25736.53
502.55	25722.49
502.72	25935.48
502.90	25874.62
503.07	25972.92
503.25	26136.76
503.43	25958.88
503.60	26033.78
503.78	26094.63
503.95	26045.48
504.13	26422.31
504.30	26434.01
504.48	26448.05
504.65	26607.21
504.83	26583.80
505.01	26918.50
505.18	26799.13
505.36	27133.83
505.53	27065.96
505.71	27388.95
505.88	27250.86
506.06	27192.34
506.23	27445.12
506.41	27337.46
506.58	27372.57
506.76	27681.52
506.93	27651.09
507.11	27681.52
507.28	27693.22
507.46	27835.99
507.63	27805.56
507.81	27936.63
507.98	27924.93
508.16	28294.74
508.33	28507.72
508.50	28357.93
508.68	28627.09
508.85	28374.31
509.03	28348.57
509.20	28493.68
509.38	29275.42
509.55	28767.52
509.73	29034.35
509.90	29003.92
510.08	28907.96
510.25	29109.24
510.42	29170.10
510.60	29212.23
510.77	29340.96
510.95	29633.52
511.12	29504.79
511.30	29769.27
511.47	30228.02
511.64	29832.47
511.82	29947.15
511.99	29851.19
512.17	30288.87
512.34	29649.91
512.51	30171.85
512.69	30675.06
512.86	30115.67
513.04	30565.06
513.21	30621.23
513.38	30445.69
513.56	30136.74
513.73	30302.92
513.90	30850.60
514.08	30642.29
514.25	30717.19
514.43	30771.02
514.60	30511.22
514.77	30995.71
514.95	31395.95
515.12	31426.37
515.29	31269.56
515.47	31407.65
515.64	31660.43
515.81	31447.44
515.99	31608.93
516.16	31644.04
516.33	31248.49
516.51	31393.61
516.68	31365.52
516.85	31665.11
517.03	31777.45
517.20	32030.23
517.37	32051.30
517.54	32154.28
517.72	31845.33
517.89	31908.52
518.06	31763.41
518.24	32020.87
518.41	31805.54
518.58	32435.14
518.75	32217.47
518.93	32594.30
519.10	32673.88
519.27	32652.81
519.45	32687.92
519.62	32783.88
519.79	32664.52
519.96	33305.82
520.14	33509.45
520.31	32856.44
520.48	33270.72
520.65	33097.52
520.83	33666.27
521.00	33720.10
521.17	33795.00
521.34	33123.26
521.52	33897.98
521.69	33713.08
521.86	33820.74
522.03	33708.40
522.20	33689.67
522.38	33752.87
522.55	34036.07
522.72	33972.88
522.89	33984.58
523.07	34394.17
523.24	34085.22
523.41	34494.82
523.58	34398.85
523.75	34848.24
523.92	34630.57
524.10	34967.60
524.27	34663.33
524.44	35157.19
524.61	35339.75
524.78	34976.97
524.96	34726.53
525.13	35222.72
525.30	34885.68
525.47	35512.95
525.64	35072.93
525.81	35002.71
525.98	35168.89
526.16	34951.22
526.33	35180.59
526.50	35723.60
526.67	34855.26
526.84	35438.05
527.01	34850.58
527.18	35580.82
527.36	35517.63
527.53	35849.99
527.70	36243.20
527.87	35718.92
528.04	35988.08
528.21	35857.01
528.38	36238.51
528.55	35924.88
528.72	36175.32
528.89	36683.22
529.07	36280.64
529.24	35936.59
529.41	36552.15
529.58	36140.21
529.75	36250.22
529.92	36580.23
530.09	36409.37
530.26	36449.16
530.43	36751.09
530.60	36575.55
530.77	36603.64
530.94	36847.05
531.11	36615.34
531.28	36594.28
531.46	36943.02
531.63	37001.53
531.80	36933.65
531.97	36673.85
532.14	37273.03
532.31	36835.35
532.48	37062.38
532.65	37081.11
532.82	37390.06
532.99	37038.98
533.16	36985.15
533.33	37434.53
533.50	37909.66
533.67	37699.01
533.84	37280.05
534.01	37563.26
534.18	37633.47
534.35	38010.30
534.52	37668.58
534.69	38082.86
534.86	37996.26
535.03	37455.59
535.20	38234.99
535.37	38272.44
535.54	38546.28
535.71	38312.23
535.88	38642.24
536.05	38026.68
536.22	38483.09
536.38	38513.52
536.55	38153.07
536.72	38211.59
536.89	38206.90
537.06	38663.31
537.23	38323.93
537.40	38600.12
537.57	38513.52
537.74	38553.30
537.91	38614.16
538.08	38890.34
538.25	38670.33
538.42	38506.49
538.59	38813.10
538.75	38567.35
538.92	39213.34
539.09	38988.64
539.26	39012.05
539.43	39370.15
539.60	39302.28
539.77	38525.22
539.94	39311.64
540.11	39374.83
540.28	39033.11
540.44	39292.91
540.61	39136.10
540.78	39435.69
540.95	39281.21
541.12	39482.50
541.29	39267.17
541.46	39754.00
541.62	39522.29
541.79	39487.18
541.96	39285.89
542.13	39878.05
542.30	39725.91
542.47	39454.41
542.63	39840.60
542.80	40250.19
542.97	40151.89
543.14	40664.47
543.31	40182.32
543.48	40130.83
543.64	40498.29
543.81	40563.82
543.98	40130.83
544.15	40306.37
544.32	40411.69
544.48	40648.08
544.65	40362.54
544.82	40367.22
544.99	40137.85
545.16	40891.50
545.32	40334.45
545.49	40437.44
545.66	41244.92
545.83	41050.66
546.00	41202.79
546.16	40760.43
546.33	40470.20
546.50	40725.32
546.67	40746.39
546.83	40388.28
547.00	40903.20
547.17	40989.80
547.34	40910.22
547.50	41251.94
547.67	41247.26
547.84	41113.85
548.00	41558.55
548.17	41493.02
548.34	40882.14
548.51	41818.35
548.67	41593.66
548.84	41291.73
549.01	41347.90
549.18	41397.06
549.34	41195.77
549.51	41926.02
549.68	41954.10
549.84	41738.77
550.01	41551.53
550.18	41361.95
550.34	41890.91
550.51	42040.70
550.68	41553.87
550.84	41614.72
551.01	41502.38
551.18	41738.77
551.34	41596.00
551.51	41902.61
551.68	42110.92
551.84	42124.96
552.01	41710.69
552.18	42351.99
552.34	41450.89
552.51	41977.51
552.68	41811.33
552.84	42396.46
553.01	41970.49
553.18	42363.70
553.34	42391.78
553.51	41825.37
553.67	41911.97
553.84	42752.23
554.01	42363.70
554.17	42518.17
554.34	42295.82
554.51	42576.69
554.67	42745.20
554.84	42572.00
555.00	42389.44
555.17	42216.24
555.33	42391.78
555.50	42471.36
555.67	42719.46
555.83	42656.26
556.00	42756.91
556.16	43033.09
556.33	42515.83
556.50	42878.61
556.66	42913.72
556.83	42281.78
556.99	43255.44
557.16	42916.06
557.32	42911.38
557.49	42810.74
557.65	42904.36
557.82	43054.15
557.98	42983.94
558.15	42953.51
558.32	42857.55
558.48	42749.88
558.65	42667.97
558.81	42576.69
558.98	42960.53
559.14	42972.24
559.31	42841.17
559.47	43402.89
559.64	43145.44
559.80	43271.82
559.97	42869.25
560.13	43208.63
560.30	42939.47
560.46	43009.68
560.63	43026.07
560.79	43854.62
560.96	43522.26
561.12	43592.48
561.29	43510.56
561.45	43779.72
561.61	43377.15
561.78	43335.02
561.94	43480.13
562.11	43194.59
562.27	42983.94
562.44	43152.46
562.60	43613.54
562.77	43363.11
562.93	43739.93
563.10	43924.83
563.26	43264.80
563.42	43669.72
563.59	43077.56
563.75	43295.23
563.92	43978.67
564.08	43555.03
564.24	44107.40
564.41	43768.02
564.57	43622.90
564.74	43950.58
564.90	43639.29
565.07	43533.96
565.23	43917.81
565.39	43718.87
565.56	43622.90
565.72	43400.55
565.88	43576.09
566.05	43435.66
566.21	43973.98
566.38	43903.77
566.54	44100.37
566.70	43985.69
566.87	44397.62
567.03	43873.34
567.19	44025.48
567.36	43943.56
567.52	44205.70
567.68	43796.10
567.85	43658.01
568.01	43992.71
568.17	43363.11
568.34	44093.35
568.50	43878.02
568.66	43746.95
568.83	44311.02
568.99	43917.81
569.15	43632.27
569.32	43505.88
569.48	43267.14
569.64	43969.30
569.81	43753.97
569.97	43871.00
570.13	44421.03
570.30	44201.02
570.46	43861.64
570.62	44086.33
570.78	44383.58
570.95	44020.80
571.11	44112.08
571.27	43393.53
571.43	44051.22
571.60	43899.09
571.76	43831.21
571.92	44027.82
572.09	43842.92
572.25	43880.36
572.41	44004.41
572.57	44041.86
572.74	44467.84
572.90	44292.30
573.06	43880.36
573.22	44058.24
573.38	43983.35
573.55	43922.49
573.71	44142.50
573.87	44186.97
574.03	44404.64
574.20	44238.47
574.36	44343.79
574.52	44502.95
574.68	44172.93
574.84	43744.61
575.01	44406.98
575.17	44313.36
575.33	44154.21
575.49	43782.06
575.65	44238.47
575.82	44013.77
575.98	44086.33
576.14	44334.43
576.30	44341.45
576.46	44296.98
576.62	43751.63
576.79	43831.21
576.95	43868.66
577.11	43885.04
577.27	44364.85
577.43	43847.60
577.59	44313.36
577.75	44481.88
577.92	43690.78
578.08	43875.68
578.24	44051.22
578.40	44067.61
578.56	44053.56
578.72	44308.68
578.88	44416.35
579.04	44701.89
579.21	43882.70
579.37	44315.70
579.53	44315.70
579.69	43643.97
579.85	44292.30
580.01	44734.66
580.17	44243.15
580.33	44594.23
580.49	44065.27
580.65	44404.64
580.82	44839.98
580.98	44163.57
581.14	44282.94
581.30	44519.33
581.46	44191.65
581.62	44334.43
581.78	43941.22
581.94	44690.19
582.10	44016.11
582.26	44048.88
582.42	44332.09
582.58	44367.20
582.74	44212.72
582.90	44605.93
583.06	44575.50
583.22	44877.43
583.38	44596.57
583.54	44282.94
583.70	44554.44
583.86	43901.43
584.02	44161.23
584.18	44636.36
584.34	44006.75
584.50	44339.11
584.66	44172.93
584.82	44137.82
584.98	44601.25
585.14	45024.89
585.30	44184.63
585.46	44336.77
585.62	44528.69
585.78	44605.93
585.94	44163.57
586.10	44196.34
586.26	44390.60
586.42	44713.59
586.58	44844.66
586.74	44519.33
586.90	44631.68
587.06	44399.96
587.22	44341.45
587.38	44444.43
587.54	44362.51
587.70	44645.72
587.86	44498.26
588.02	44126.12
588.18	44811.90
588.34	44507.63
588.49	44205.70
588.65	43730.57
588.81	43878.02
588.97	44289.96
589.13	44282.94
589.29	44212.72
589.45	44526.35
589.61	44142.50
589.77	44662.10
589.93	44428.05
590.08	45071.70
590.24	44414.01
590.40	44514.65
590.56	44940.63
590.72	44701.89
590.88	44594.23
591.04	44706.57
591.20	44985.10
591.35	44556.78
591.51	44926.58
591.67	44767.43
591.83	44968.71
591.99	44411.67
592.15	44538.05
592.31	45123.19
592.46	44451.45
592.62	44882.11
592.78	44896.16
592.94	45020.20
593.10	44502.95
593.26	44844.66
593.41	44678.49
593.57	44725.30
593.73	44676.15
593.89	44446.77
594.05	44664.44
594.20	44519.33
594.36	44945.31
594.52	44739.34
594.68	44484.22
594.84	44093.35
594.99	45237.87
595.15	44926.58
595.31	44858.71
595.47	44692.53
595.62	44992.12
595.78	44830.62
595.94	44938.29
596.10	45074.04
596.25	45219.15
596.41	45074.04
596.57	44706.57
596.73	44687.85
596.88	44177.61
597.04	44870.41
597.20	44762.75
597.36	44692.53
597.51	45130.21
597.67	45333.84
597.83	44814.24
597.99	45261.28
598.14	45148.93
598.30	44882.11
598.46	44744.02
598.61	44851.69
598.77	44289.96
598.93	45013.18
599.09	44210.38
599.24	45134.89
599.40	45059.99
599.56	44568.48
599.71	45277.66
599.87	45034.25
600.03	45179.36
600.18	45050.63
600.34	44985.10
600.50	44634.02
600.65	44612.95
600.81	45125.53
600.97	45151.27
601.12	44786.15
601.28	45146.59
601.44	44406.98
601.59	44786.15
601.75	44442.09
601.91	44725.30
602.06	44610.61
602.22	44914.88
602.37	44706.57
602.53	44978.07
602.69	45132.55
602.84	44842.32
603.00	44865.73
603.16	44734.66
603.31	44711.25
603.47	44500.61
603.62	44226.76
603.78	44729.98
603.94	44938.29
604.09	45099.78
604.25	45083.40
604.40	45031.91
604.56	44903.18
604.71	44678.49
604.87	44362.51
605.03	44402.30
605.18	44156.55
605.34	44655.08
605.49	44402.30
605.65	44758.06
605.80	44493.58
605.96	44589.55
606.12	44966.37
606.27	44729.98
606.43	44463.16
606.58	44498.26
606.74	44512.31
606.89	44680.83
607.05	44732.32
607.20	44605.93
607.36	44580.18
607.51	44809.56
607.67	44783.81
607.82	44622.31
607.98	44664.44
608.13	44114.42
608.29	44428.05
608.44	44308.68
608.60	44545.08
608.75	44098.03
608.91	44083.99
609.06	44416.35
609.22	44568.48
609.37	44296.98
609.53	44397.62
609.68	44622.31
609.84	43889.73
609.99	44371.88
610.15	44177.61
610.30	43889.73
610.46	44107.40
610.61	44268.89
610.76	44163.57
610.92	44360.17
611.07	44149.53
611.23	44079.31
611.38	44432.73
611.54	43852.28
611.69	43861.64
611.84	44009.09
612.00	43997.39
612.15	43988.03
612.31	44226.76
612.46	43622.90
612.62	44271.23
612.77	44044.20
612.92	44479.54
613.08	43592.48
613.23	44091.01
613.39	43882.70
613.54	43910.79
613.69	43761.00
613.85	44198.68
614.00	44165.91
614.15	44245.49
614.31	43578.43
614.46	44149.53
614.62	43997.39
614.77	43798.44
614.92	43910.79
615.08	43559.71
615.23	43667.37
615.38	43386.51
615.54	43508.22
615.69	43751.63
615.84	43866.32
616.00	43292.89
616.15	43445.02
616.30	43393.53
616.46	43508.22
616.61	43304.59
616.76	43573.75
616.92	42820.10
617.07	43615.88
617.22	43274.16
617.37	43023.73
617.53	43650.99
617.68	43215.65
617.83	43398.21
617.99	43449.70
618.14	43353.74
618.29	43419.28
618.45	42859.89
618.60	42953.51
618.75	43124.37
618.90	43236.72
619.06	43505.88
619.21	43112.67
619.36	43632.27
619.51	43147.78
619.67	42803.72
619.82	43133.73
619.97	43100.97
620.12	42967.55
620.28	43217.99
620.43	42572.00
620.58	42845.85
620.73	42724.14
620.89	42539.24
621.04	43164.16
621.19	42719.46
621.34	43079.90
621.49	42644.56
621.65	42564.98
621.80	42974.58
621.95	42604.77
622.10	42602.43
622.25	42260.71
622.41	42234.97
622.56	42237.31
622.71	42639.88
622.86	42775.63
623.01	42445.62
623.16	42665.63
623.32	42740.52
623.47	42337.95
623.62	42438.59
623.77	42354.33
623.92	42445.62
624.07	42761.59
624.23	42483.06
624.38	42560.30
624.53	41930.70
624.68	42155.39
624.83	42089.85
624.98	42431.57
625.13	41886.23
625.29	42408.17
625.44	41965.81
625.59	41549.19
625.74	41586.64
625.89	41766.86
626.04	41640.47
626.19	41703.67
626.34	42113.26
626.49	42064.11
626.65	42188.16
626.80	42232.63
626.95	41944.74
627.10	41612.38
627.25	41720.05
627.40	41214.49
627.55	41432.16
627.70	41670.90
627.85	41378.33
628.00	41333.86
628.15	41518.76
628.30	41235.56
628.45	41532.81
628.60	41624.09
628.76	41617.07
628.91	41448.55
629.06	41078.74
629.21	41291.73
629.36	41188.75
629.51	41155.98
629.66	41053.00
629.81	41361.95
629.96	41537.49
630.11	41404.08
630.26	41141.94
630.41	41413.44
630.56	40910.22
630.71	41380.67
630.86	41495.36
631.01	40566.16
631.16	40968.74
631.31	40786.18
631.46	41095.13
631.61	41015.55
631.76	40495.95
631.91	40870.43
632.06	40683.19
632.21	41277.69
632.36	41041.29
632.51	40832.99
632.66	40992.14
632.81	40568.51
632.96	40390.62
633.10	40591.91
633.25	40465.52
633.40	40924.27
633.55	40989.80
633.70	40631.70
633.85	40421.05
634.00	40435.10
634.15	40428.07
634.30	40849.37
634.45	40289.98
634.60	40428.07
634.75	40711.28
634.90	40498.29
635.05	40264.24
635.19	40236.15
635.34	40477.22
635.49	40264.24
635.64	39962.31
635.79	40418.71
635.94	39627.61
636.09	40226.79
636.24	40240.83
636.39	39908.47
636.53	39810.17
636.68	40135.51
636.83	40154.23
636.98	39943.58
637.13	40215.08
637.28	40039.54
637.43	40229.13
637.57	40442.12
637.72	39779.74
637.87	39604.20
638.02	39936.56
638.17	40130.83
638.32	39831.24
638.46	39707.19
638.61	39545.69
638.76	39784.43
638.91	39976.35
639.06	39611.23
639.20	39667.40
639.35	39349.09
639.50	39943.58
639.65	39786.77
639.80	39931.88
639.94	39342.06
640.09	39306.96
640.24	39707.19
640.39	39196.95
640.54	39246.10
640.68	39662.72
640.83	39536.33
640.98	38792.04
641.13	38930.13
641.27	39643.99
641.42	39807.83
641.57	39374.83
641.72	39117.37
641.86	39438.03
642.01	38778.00
642.16	39229.72
642.31	38646.93
642.45	39072.90
642.60	39178.23
642.75	39115.03
642.90	39068.22
643.04	39061.20
643.19	39058.86
643.34	39131.42
643.48	38469.04
643.63	38988.64
643.78	38492.45
643.93	38726.50
644.07	38632.88
644.22	38401.17
644.37	38443.30
644.51	38686.71
644.66	38824.81
644.81	38986.30
644.95	39262.49
645.10	38295.85
645.25	38782.68
645.39	38703.10
645.54	38778.00
645.69	39129.08
645.83	38532.24
645.98	38342.66
646.13	38770.97
646.27	38581.39
646.42	38864.60
646.57	38511.17
646.71	38597.77
646.86	38710.12
647.00	38618.84
647.15	38925.45
647.30	38188.18
647.44	37963.49
647.59	38450.32
647.74	38124.99
647.88	38066.47
648.03	38412.87
648.17	38387.13
648.32	38195.20
648.47	37956.47
648.61	37846.46
648.76	38089.88
648.90	38022.00
649.05	38148.39
649.20	38471.39
649.34	38410.53
649.49	37343.25
649.63	38033.71
649.78	37413.46
649.92	37617.09
650.07	38363.72
650.21	38052.43
650.36	37736.46
650.51	37940.08
650.65	38518.20
650.80	38150.73
650.94	38022.00
651.09	37806.67
651.23	37551.56
651.38	37949.45
651.52	37455.59
651.67	37624.11
651.81	37390.06
651.96	37563.26
652.10	37244.94
652.25	37266.01
652.39	37717.73
652.54	37476.66
652.68	37687.31
652.83	37846.46
652.97	37654.54
653.12	37364.31
653.26	37198.13
653.41	37055.36
653.55	36992.17
653.70	36556.83
653.84	37219.20
653.99	37156.00
654.13	37148.98
654.27	37200.47
654.42	37027.28
654.56	36938.33
654.71	37130.26
654.85	37053.02
655.00	37088.13
655.14	37090.47
655.29	36521.72
655.43	36900.89
655.57	36629.38
655.72	36535.76
655.86	36290.01
656.01	36699.60
656.15	36823.65
656.30	36605.98
656.44	36561.51
656.58	36655.13
656.73	36730.03
656.87	36577.89
657.01	36591.94
657.16	36708.96
657.30	36189.36
657.45	36254.90
657.59	36037.23
657.73	36172.98
657.88	36112.13
658.02	36591.94
658.16	36739.39
658.31	36603.64
658.45	36531.08
658.60	36170.64
658.74	36477.25
658.88	36350.86
659.03	36142.55
659.17	36130.85
659.31	35871.05
659.46	36299.37
659.60	36037.23
659.74	36378.95
659.89	36074.68
660.03	36180.00
660.17	35714.23
660.32	35749.34
660.46	35878.07
660.60	36079.36
660.74	35798.49
660.89	35878.07
661.03	35552.74
661.17	35536.35
661.32	34941.86
661.46	35297.62
661.60	35587.85
661.74	35573.80
661.89	34979.31
662.03	35257.83
662.17	35061.22
662.31	34969.94
662.46	35438.05
662.60	35189.95
662.74	35285.92
662.88	35161.87
663.03	34686.74
663.17	35143.14
663.31	34705.46
663.45	34773.34
663.60	34920.79
663.74	34134.37
663.88	34859.94
664.02	34398.85
664.17	34960.58
664.31	34457.37
664.45	34621.20
664.59	34284.17
664.73	34110.97
664.88	34576.73
665.02	34185.86
665.16	34230.33
665.30	34565.03
665.44	34565.03
665.59	33727.12
665.73	34155.44
665.87	33961.17
666.01	34293.53
666.15	34110.97
666.29	33921.38
666.44	33916.70
666.58	33703.71
666.72	33757.55
666.86	33422.85
667.00	33820.74
667.14	33146.67
667.28	33574.98
667.43	33408.81
667.57	33378.38
667.71	33092.83
667.85	33371.36
667.99	33352.63
668.13	33247.31
668.27	33057.73
668.41	33261.35
668.56	33083.47
668.70	33427.53
668.84	33298.80
668.98	32900.91
669.12	32453.87
669.26	32753.46
669.40	32488.98
669.54	32627.07
669.68	32924.32
669.82	32072.36
669.96	32126.19
670.10	32580.26
670.25	32676.22
670.39	32240.88
670.53	31976.40
670.67	31917.89
670.81	32594.30
670.95	32084.06
671.09	32177.68
671.23	31948.31
671.37	32318.12
671.51	32149.60
671.65	31770.43
671.79	31665.11
671.93	31433.39
672.07	32081.72
672.21	31775.11
672.35	31728.30
672.49	31655.75
672.63	31421.69
672.77	31510.63
672.91	31728.30
673.05	31651.06
673.19	31044.87
673.33	31049.55
673.47	31187.64
673.61	30555.69
673.75	30820.17
673.89	30773.36
674.03	30773.36
674.17	30426.96
674.31	30646.97
674.45	30707.83
674.59	30515.90
674.73	30773.36
674.87	30499.52
675.01	30508.88
675.15	30160.14
675.29	30668.04
675.43	30031.41
675.56	30096.95
675.70	29654.59
675.84	30143.76
675.98	29413.51
676.12	30118.01
676.26	29572.67
676.40	29743.53
676.54	29577.35
676.68	29649.91
676.82	29146.69
676.96	29160.73
677.10	29366.70
677.23	29074.13
677.37	29282.44
677.51	28566.24
677.65	28938.38
677.79	28301.76
677.93	28779.23
678.07	28360.27
678.21	28348.57
678.34	28453.89
678.48	28247.93
678.62	28081.75
678.76	27910.89
678.90	27459.16
679.04	27754.07
679.18	27903.87
679.31	27475.55
679.45	27660.45
679.59	27089.36
679.73	27517.68
679.87	27239.15
680.00	27253.20
680.14	27019.14
680.28	27328.10
680.42	26789.77
680.56	27187.66
680.70	26934.88
680.83	26824.88
680.97	27307.03
681.11	26927.86
681.25	26235.06
681.39	26670.40
681.52	26574.44
681.66	26532.31
681.80	26429.33
681.94	26405.92
682.07	26473.80
682.21	26211.66
682.35	26136.76
682.49	26211.66
682.62	25647.59
682.76	25961.22
682.90	25568.01
683.04	25633.55
683.17	25474.39
683.31	25539.93
683.45	25603.12
683.59	25385.45
683.72	25205.23
683.86	24940.75
684.00	25135.01
684.13	25032.03
684.27	24720.74
684.41	24690.31
684.55	24442.21
684.68	24641.16
684.82	24161.35
684.96	24460.94
685.09	24116.88
685.23	24554.56
685.37	24325.19
685.50	24252.63
685.64	24004.53
685.78	23861.76
685.91	23723.67
686.05	23541.11
686.19	23473.23
686.32	23328.12
686.46	23391.31
686.60	22850.65
686.73	22850.65
686.87	23007.47
687.01	22977.04
687.14	22787.46
687.28	22829.59
687.42	23014.49
687.55	22874.06
687.69	22998.10
687.82	22644.68
687.96	22923.21
688.10	22597.87
688.23	22396.59
688.37	21891.03
688.50	22469.14
688.64	21919.12
688.78	22008.06
688.91	22008.06
689.05	22225.73
689.18	22094.66
689.32	21593.78
689.46	21518.89
689.59	21729.53
689.73	21884.01
689.86	21455.69
690.00	21266.11
690.13	21465.05
690.27	21333.98
690.41	21174.83
690.54	21069.50
690.68	20732.47
690.81	20608.42
690.95	20779.28
691.08	20779.28
691.22	20484.37
691.35	20563.95
691.49	20896.30
691.62	20889.28
691.76	20463.30
691.89	20451.60
692.03	20013.92
692.16	20184.78
692.30	20109.88
692.43	20121.59
692.57	19545.81
692.70	20051.37
692.84	19501.34
692.97	19695.61
693.11	19590.28
693.24	19475.60
693.38	19105.79
693.51	19281.33
693.65	19311.76
693.78	19590.28
693.92	19426.45
694.05	19133.88
694.19	18934.93
694.32	18904.51
694.45	18871.74
694.59	18860.04
694.72	18375.55
694.86	18354.48
694.99	18586.19
695.13	18593.22
695.26	18338.10
695.39	18045.53
695.53	18387.25
695.66	18565.13
695.80	18518.32
695.93	17848.93
696.07	17935.53
696.20	17881.69
696.33	17965.95
696.47	17886.37
696.60	17673.39
696.73	17570.40
696.87	17561.04
697.00	17619.55
697.14	17598.49
697.27	17231.02
697.40	17380.82
697.54	17233.36
697.67	17200.60
697.80	17102.29
697.94	16791.00
698.07	16657.59
698.21	16704.40
698.34	16556.95
698.47	16566.31
698.61	16248.00
698.74	16320.56
698.87	16187.14
699.01	16252.68
699.14	16102.89
699.27	16037.35
699.40	15878.19
699.54	15796.28
699.67	15578.61
699.80	15786.91
699.94	15770.53
700.07	15817.34
700.20	15800.96
700.34	15470.94
700.47	15435.83
700.60	15578.61
700.73	15749.46
700.87	15239.23
701.00	15351.57
701.13	15721.38
701.26	15246.25
701.40	14977.09
701.53	14934.96
701.66	15037.94
701.79	14768.78
701.93	15133.90
702.06	14888.15
702.19	14803.89
702.32	14815.59
702.46	14401.32
702.59	14497.28
702.72	14581.54
702.85	14637.71
702.99	14649.41
703.12	14064.28
703.25	14256.20
703.38	14167.26
703.51	14129.81
703.65	13928.53
703.78	14059.60
703.91	13916.83
704.04	13778.73
704.17	13954.27
704.31	13781.07
704.44	13575.11
704.57	13399.57
704.70	13727.24
704.83	13579.79
704.96	13427.65
705.10	13385.52
705.23	13317.65
>>>>>End Processed Spectral Data<<<<<
