SpectraSuite Data File
++++++++++++++++++++++++++++++++++++
Date: Fri Oct 25 11:34:10 EDT 2013
User: price-jones
Dark Spectrum Present: No
Reference Spectrum Present: No
Number of Sampled Component Spectra: 1
Spectrometers: USB2+H05261
Integration Time (usec): 100000 (USB2+H05261)
Spectra Averaged: 1 (USB2+H05261)
Boxcar Smoothing: 0 (USB2+H05261)
Correct for Electrical Dark: No (USB2+H05261)
Strobe/Lamp Enabled: No (USB2+H05261)
Correct for Detector Non-linearity: No (USB2+H05261)
Correct for Stray Light: No (USB2+H05261)
Number of Pixels in Processed Spectrum: 2048
>>>>>Begin Processed Spectral Data<<<<<
365.73	259.80
365.92	259.80
366.12	259.80
366.32	203.63
366.52	187.24
366.72	177.88
366.91	140.43
367.11	224.69
367.31	114.69
367.51	86.60
367.70	168.52
367.90	180.22
368.10	175.54
368.30	131.07
368.49	224.69
368.69	208.31
368.89	227.03
369.09	156.82
369.28	152.13
369.48	205.97
369.68	194.26
369.87	266.82
370.07	266.82
370.27	234.05
370.47	327.68
370.66	468.11
370.86	535.98
371.06	500.87
371.25	554.71
371.45	533.64
371.65	559.39
371.84	634.29
372.04	531.30
372.24	554.71
372.44	599.18
372.63	587.47
372.83	610.88
373.03	566.41
373.22	564.07
373.42	641.31
373.62	706.84
373.81	561.73
374.01	580.45
374.21	596.84
374.40	641.31
374.60	648.33
374.79	624.92
374.99	617.90
375.19	627.26
375.38	547.69
375.58	601.52
375.78	627.26
375.97	653.01
376.17	737.27
376.37	688.12
376.56	655.35
376.76	648.33
376.95	657.69
377.15	692.80
377.35	678.76
377.54	645.99
377.74	685.78
377.93	711.52
378.13	713.86
378.33	732.59
378.52	765.36
378.72	779.40
378.91	725.57
379.11	723.23
379.31	772.38
379.50	720.88
379.70	711.52
379.89	716.20
380.09	685.78
380.28	650.67
380.48	725.57
380.68	734.93
380.87	699.82
381.07	657.69
381.26	685.78
381.46	730.25
381.65	730.25
381.85	720.88
382.04	697.48
382.24	774.72
382.43	748.97
382.63	744.29
382.83	770.04
383.02	774.72
383.22	795.78
383.41	772.38
383.61	858.98
383.80	877.70
384.00	812.17
384.19	763.01
384.39	816.85
384.58	863.66
384.78	800.46
384.97	833.23
385.17	849.61
385.36	758.33
385.56	816.85
385.75	814.51
385.95	896.43
386.14	837.91
386.34	823.87
386.53	875.36
386.72	837.91
386.92	840.25
387.11	880.04
387.31	945.58
387.50	854.30
387.70	828.55
387.89	844.93
388.09	800.46
388.28	889.40
388.48	840.25
388.67	943.24
388.86	910.47
389.06	983.02
389.25	880.04
389.45	1008.77
389.64	891.74
389.84	919.83
390.03	952.60
390.22	987.71
390.42	903.45
390.61	987.71
390.81	917.49
391.00	1020.47
391.19	1029.84
391.39	992.39
391.58	898.77
391.78	952.60
391.97	940.90
392.16	1022.81
392.36	1036.86
392.55	1015.79
392.75	1064.94
392.94	1088.35
393.13	1146.86
393.33	1027.50
393.52	1046.22
393.71	1090.69
393.91	1118.78
394.10	1074.31
394.29	1142.18
394.49	1081.33
394.68	1174.95
394.88	1149.20
395.07	1081.33
395.26	1163.25
395.46	1165.59
395.65	1128.14
395.84	1217.08
396.04	1181.97
396.23	1226.44
396.42	1217.08
396.62	1114.10
396.81	1196.01
397.00	1193.67
397.19	1177.29
397.39	1179.63
397.58	1254.53
397.77	1259.21
397.97	1196.01
398.16	1303.68
398.35	1310.70
398.55	1235.80
398.74	1266.23
398.93	1350.49
399.12	1184.31
399.32	1214.74
399.51	1249.85
399.70	1200.69
399.90	1313.04
400.09	1338.79
400.28	1301.34
400.47	1378.58
400.67	1355.17
400.86	1350.49
401.05	1331.76
401.24	1313.04
401.44	1411.34
401.63	1406.66
401.82	1394.96
402.01	1455.81
402.21	1397.30
402.40	1404.32
402.59	1416.02
402.78	1497.94
402.97	1458.15
403.17	1523.69
403.36	1554.12
403.55	1561.14
403.74	1605.61
403.93	1568.16
404.13	1544.75
404.32	1526.03
404.51	1547.09
404.70	1638.38
404.89	1584.54
405.09	1668.80
405.28	1666.46
405.47	1640.72
405.66	1734.34
405.85	1652.42
406.05	1614.97
406.24	1685.19
406.43	1621.99
406.62	1774.13
406.81	1853.70
407.00	1696.89
407.20	1839.66
407.39	1769.44
407.58	1799.87
407.77	1851.36
407.96	1849.02
408.15	1818.60
408.34	1736.68
408.54	1844.34
408.73	1788.17
408.92	1860.73
409.11	1893.49
409.30	2017.54
409.49	1956.69
409.68	1989.46
409.87	1926.26
410.07	1959.03
410.26	2005.84
410.45	2165.00
410.64	2092.44
410.83	2008.18
411.02	1984.77
411.21	2104.14
411.40	2080.74
411.59	2167.34
411.78	2340.54
411.98	2148.61
412.17	2218.83
412.36	2249.25
412.55	2244.57
412.74	2370.96
412.93	2296.07
413.12	2251.60
413.31	2345.22
413.50	2385.01
413.69	2349.90
413.88	2504.37
414.07	2335.85
414.26	2499.69
414.45	2478.63
414.64	2525.44
414.83	2525.44
415.02	2586.29
415.22	2658.85
415.41	2588.63
415.60	2541.82
415.79	2593.31
415.98	2602.68
416.17	2663.53
416.36	2729.06
416.55	2710.34
416.74	2815.66
416.93	2682.25
417.12	2700.98
417.31	2759.49
417.50	2818.00
417.69	2932.69
417.88	2846.09
418.07	2876.52
418.26	2899.92
418.45	2906.95
418.64	3066.10
418.83	2974.82
419.02	3066.10
419.21	3143.34
419.39	3066.10
419.58	2974.82
419.77	2899.92
419.96	3047.38
420.15	3133.98
420.34	3180.79
420.53	3089.51
420.72	3131.64
420.91	3197.17
421.10	3187.81
421.29	3190.15
421.48	3234.62
421.67	3201.85
421.86	3304.84
422.05	3178.45
422.24	3253.34
422.43	3258.03
422.61	3220.58
422.80	3288.45
422.99	3325.90
423.18	3382.07
423.37	3552.93
423.56	3344.63
423.75	3246.32
423.94	3328.24
424.13	3075.46
424.32	3251.00
424.50	3330.58
424.69	3400.80
424.88	3293.13
425.07	3267.39
425.26	3314.20
425.45	3332.92
425.64	3396.12
425.83	3349.31
426.01	3353.99
426.20	3440.59
426.39	3365.69
426.58	3304.84
426.77	3372.71
426.96	3435.91
427.15	3424.20
427.33	3520.17
427.52	3435.91
427.71	3592.72
427.90	3445.27
428.09	3564.64
428.28	3513.14
428.46	3693.37
428.65	3545.91
428.84	3749.54
429.03	3744.86
429.22	3501.44
429.40	3557.61
429.59	3805.71
429.78	3693.37
429.97	3641.87
430.16	3658.26
430.34	3915.72
430.53	3861.88
430.72	3859.54
430.91	3730.81
431.10	3728.47
431.28	3798.69
431.47	3815.07
431.66	4011.68
431.85	3983.59
432.03	3999.98
432.22	3988.27
432.41	3976.57
432.60	3988.27
432.79	3934.44
432.97	3957.85
433.16	4004.66
433.35	4156.79
433.54	4140.41
433.72	4142.75
433.91	4021.04
434.10	4102.96
434.28	4091.26
434.47	4072.53
434.66	4236.37
434.85	4245.73
435.03	4177.86
435.22	4231.69
435.41	4430.63
435.59	4184.88
435.78	4245.73
435.97	4332.33
436.16	4203.60
436.34	4318.29
436.53	4273.82
436.72	4524.26
436.90	4194.24
437.09	4545.32
437.28	4236.37
437.46	4428.29
437.65	4372.12
437.84	4369.78
438.02	4519.57
438.21	4428.29
438.40	4449.36
438.58	4723.20
438.77	4681.07
438.96	4624.90
439.14	4692.77
439.33	4657.67
439.52	4746.61
439.70	4849.59
439.89	4851.93
440.08	4784.06
440.26	5067.26
440.45	4926.83
440.63	4889.38
440.82	5013.43
441.01	5008.75
441.19	5088.32
441.38	5200.67
441.57	5137.48
441.75	5240.46
441.94	5291.95
442.12	5233.44
442.31	5273.23
442.50	5383.23
442.68	5448.77
442.87	5359.83
443.05	5315.36
443.24	5458.13
443.43	5444.09
443.61	5359.83
443.80	5600.90
443.98	5294.29
444.17	5273.23
444.35	5401.96
444.54	5561.11
444.73	5486.22
444.91	5497.92
445.10	5488.56
445.28	5467.49
445.47	5397.28
445.65	5621.97
445.84	5504.94
446.02	5565.79
446.21	5689.84
446.39	5682.82
446.58	5540.05
446.77	5603.24
446.95	5614.95
447.14	5549.41
447.32	5572.82
447.51	5493.24
447.69	5603.24
447.88	5610.26
448.06	5853.68
448.25	5621.97
448.43	5802.19
448.62	5591.54
448.80	5563.45
448.99	5479.19
449.17	5743.67
449.36	5717.93
449.54	5839.64
449.73	5813.89
449.91	5839.64
450.10	5872.40
450.28	5804.53
450.46	5923.90
450.65	5944.96
450.83	6141.57
451.02	5942.62
451.20	5930.92
451.39	5949.64
451.57	5944.96
451.76	5970.71
451.94	6029.22
452.13	6134.54
452.31	6190.72
452.49	6019.86
452.68	6076.03
452.86	6120.50
453.05	6319.45
453.23	6300.72
453.42	6300.72
453.60	6118.16
453.78	6153.27
453.97	6150.93
454.15	6249.23
454.34	6253.91
454.52	6392.00
454.70	6415.41
454.89	6637.76
455.07	6436.47
455.26	6445.84
455.44	6509.03
455.62	6354.55
455.81	6499.67
455.99	6640.10
456.17	6693.93
456.36	6604.99
456.54	6911.60
456.73	6796.92
456.91	6822.66
457.09	6834.36
457.28	6911.60
457.46	6827.34
457.64	6862.45
457.83	6876.49
458.01	6717.34
458.19	7035.65
458.38	6892.88
458.56	6965.43
458.74	6860.11
458.93	6960.75
459.11	7035.65
459.29	6925.65
459.48	7236.94
459.66	6981.82
459.84	7295.45
460.03	7323.54
460.21	7166.72
460.39	7222.89
460.57	7250.98
460.76	7325.88
460.94	7145.66
461.12	7328.22
461.31	7255.66
461.49	7379.71
461.67	7265.02
461.85	7391.41
462.04	7372.69
462.22	7922.71
462.40	7445.24
462.59	7625.47
462.77	7485.03
462.95	7501.42
463.13	7653.55
463.32	7693.34
463.50	7754.19
463.68	7803.35
463.86	7810.37
464.05	7550.57
464.23	7541.21
464.41	7831.43
464.59	7426.52
464.78	7960.16
464.96	7747.17
465.14	7676.96
465.32	7803.35
465.50	8058.46
465.69	7903.99
465.87	7999.95
466.05	8039.74
466.23	8201.24
466.41	7943.78
466.60	8098.25
466.78	7864.20
466.96	8004.63
467.14	8126.34
467.32	7995.27
467.51	8079.53
467.69	8044.42
467.87	8149.75
468.05	8180.17
468.23	8009.31
468.41	8264.43
468.60	8245.71
468.78	8163.79
468.96	8159.11
469.14	8250.39
469.32	8404.86
469.50	8161.45
469.69	8416.57
469.87	8554.66
470.05	8645.94
470.23	8674.03
470.41	8634.24
470.59	8454.02
470.77	8571.04
470.95	8524.23
471.14	8704.45
471.32	8425.93
471.50	8777.01
471.68	8762.97
471.86	8879.99
472.04	8945.53
472.22	8952.55
472.40	8809.78
472.58	8933.82
472.77	9181.92
472.95	9207.67
473.13	9483.85
473.31	9231.07
473.49	9151.49
473.67	9231.07
473.85	9252.14
474.03	9479.17
474.21	9586.83
474.39	9556.41
474.57	9774.08
474.75	9710.88
474.93	9628.96
475.12	9682.80
475.30	9713.22
475.48	9750.67
475.66	9951.96
475.84	9949.62
476.02	9830.25
476.20	10001.11
476.38	9975.36
476.56	10518.37
476.74	10239.84
476.92	10178.99
477.10	10155.58
477.28	10642.42
477.46	10516.03
477.64	10614.33
477.82	10537.09
478.00	10927.96
478.18	10677.52
478.36	10841.36
478.54	11014.56
478.72	10951.37
478.90	11234.57
479.08	11201.80
479.26	11080.10
479.44	11197.12
479.62	11382.03
479.80	11531.82
479.98	11541.18
480.16	11810.34
480.34	11953.12
480.52	12039.72
480.70	12191.85
480.88	11861.84
481.06	11943.75
481.24	12313.56
481.41	12255.04
481.59	12393.14
481.77	12720.81
481.95	12400.16
482.13	12683.36
482.31	12603.78
482.49	13092.96
482.67	12987.63
482.85	13144.45
483.03	12973.59
483.21	13245.09
483.39	13469.78
483.57	13277.86
483.74	13657.03
483.92	13525.96
484.10	13568.09
484.28	14153.22
484.46	14092.37
484.64	14246.84
484.82	13947.25
485.00	14185.99
485.18	14394.29
485.35	14874.10
485.53	14448.13
485.71	14780.48
485.89	14974.75
486.07	14970.07
486.25	15147.95
486.43	14813.25
486.61	15061.35
486.78	15442.85
486.96	15264.97
487.14	15737.76
487.32	15641.80
487.50	15644.14
487.68	15796.28
487.85	15807.98
488.03	16262.04
488.21	16629.51
488.39	16589.72
488.57	16570.99
488.75	16592.06
488.92	16915.05
489.10	16978.25
489.28	17270.81
489.46	17359.75
489.64	17305.92
489.81	17626.57
489.99	17598.49
490.17	17769.35
490.35	17827.86
490.53	18174.26
490.70	18448.10
490.88	18045.53
491.06	18319.37
491.24	18340.44
491.41	18785.14
491.59	18665.77
491.77	18396.61
491.95	18906.85
492.13	19042.60
492.30	19068.34
492.48	19000.47
492.66	19131.54
492.84	19374.95
493.01	19924.98
493.19	19660.50
493.37	19882.85
493.54	20051.37
493.72	20074.77
493.90	19859.45
494.08	20294.79
494.25	20294.79
494.43	20563.95
494.61	20430.54
494.79	20629.48
494.96	20631.82
495.14	21036.74
495.32	21055.46
495.49	21020.35
495.67	21172.49
495.85	21287.17
496.02	21738.90
496.20	21678.04
496.38	21729.53
496.55	21986.99
496.73	22136.79
496.91	22024.44
497.09	22199.98
497.26	22469.14
497.44	22097.00
497.62	22321.69
497.79	23101.09
497.97	22490.21
498.14	22794.48
498.32	22995.76
498.50	22965.34
498.67	23166.62
498.85	23117.47
499.03	23552.81
499.20	23536.43
499.38	23442.81
499.56	23639.41
499.73	23939.00
499.91	24011.56
500.08	24130.92
500.26	23896.87
500.44	24147.31
500.61	24095.82
500.79	23894.53
500.97	24327.53
501.14	24617.75
501.32	24610.73
501.49	24739.46
501.67	24730.10
501.84	24702.01
502.02	25006.28
502.20	24783.93
502.37	25263.74
502.55	25174.80
502.72	25106.93
502.90	25263.74
503.07	25106.93
503.25	25579.71
503.43	25275.45
503.60	25617.16
503.78	25729.51
503.95	25507.16
504.13	25556.31
504.30	25947.18
504.48	25909.73
504.65	26312.30
504.83	26214.00
505.01	26677.43
505.18	26464.44
505.36	26541.68
505.53	26480.82
505.71	26710.19
505.88	26831.90
506.06	26597.85
506.23	26876.37
506.41	26733.60
506.58	27105.74
506.76	26909.14
506.93	27178.30
507.11	27215.75
507.28	27679.18
507.46	27330.44
507.63	27639.39
507.81	27737.69
507.98	27580.87
508.16	27721.30
508.33	28135.58
508.50	28451.55
508.68	28252.61
508.85	28041.96
509.03	27742.37
509.20	28044.30
509.38	28463.25
509.55	28371.97
509.73	28521.77
509.90	28271.33
510.08	28524.11
510.25	28657.52
510.42	29039.03
510.60	29013.28
510.77	28978.17
510.95	29083.50
511.12	28896.25
511.30	29134.99
511.47	29142.01
511.64	28919.66
511.82	29476.71
511.99	29607.78
512.17	29862.90
512.34	29465.00
512.51	29933.11
512.69	30052.48
512.86	29956.52
513.04	30059.50
513.21	30504.20
513.38	30101.63
513.56	29956.52
513.73	30424.62
513.90	30059.50
514.08	30178.87
514.25	30438.67
514.43	30944.22
514.60	30764.00
514.77	30527.61
514.95	31023.80
515.12	30726.55
515.29	30726.55
515.47	30967.63
515.64	31098.70
515.81	30841.24
515.99	31651.06
516.16	31763.41
516.33	31087.00
516.51	31503.61
516.68	31433.39
516.85	31543.40
517.03	31697.88
517.20	31852.35
517.37	31711.92
517.54	32198.75
517.72	31964.70
517.89	31988.10
518.06	32329.82
518.24	32318.12
518.41	32233.86
518.58	32411.74
518.75	32397.70
518.93	32547.49
519.10	32472.59
519.27	32680.90
519.45	32617.71
519.62	32968.79
519.79	32711.33
519.96	32821.33
520.14	33170.07
520.31	32545.15
520.48	33280.08
520.65	33095.18
520.83	33586.69
521.00	33359.66
521.17	33495.41
521.34	33699.03
521.52	33809.04
521.69	33900.32
521.86	33675.63
522.03	33713.08
522.20	33881.60
522.38	34171.82
522.55	34134.37
522.72	34143.74
522.89	34349.70
523.07	34646.95
523.24	34424.60
523.41	34352.04
523.58	33947.13
523.75	34352.04
523.92	34368.43
524.10	34363.75
524.27	34653.97
524.44	34504.18
524.61	35047.18
524.78	34976.97
524.96	35323.36
525.13	35573.80
525.30	35196.98
525.47	34911.43
525.64	35047.18
525.81	35501.25
525.98	35625.29
526.16	34953.56
526.33	35084.63
526.50	35175.91
526.67	34918.45
526.84	35859.35
527.01	35545.72
527.18	35566.78
527.36	35751.68
527.53	35700.19
527.70	36165.96
527.87	36334.48
528.04	35842.96
528.21	35861.69
528.38	36212.77
528.55	36261.92
528.72	36051.27
528.89	36170.64
529.07	36430.44
529.24	36081.70
529.41	36322.77
529.58	36240.86
529.75	36474.91
529.92	36439.80
530.09	36533.42
530.26	36634.06
530.43	36524.06
530.60	36575.55
530.77	36940.68
530.94	36760.45
531.11	36690.24
531.28	36870.46
531.46	37097.49
531.63	37277.71
531.80	37483.68
531.97	37462.61
532.14	37394.74
532.31	37439.21
532.48	37233.24
532.65	37364.31
532.82	37596.03
532.99	37624.11
533.16	37532.83
533.33	37633.47
533.50	37715.39
533.67	37687.31
533.84	37757.52
534.01	37626.45
534.18	37816.04
534.35	37909.66
534.52	38384.79
534.69	38178.82
534.86	38319.25
535.03	38047.75
535.20	38660.97
535.37	38778.00
535.54	38363.72
535.71	38635.22
535.88	38375.42
536.05	38447.98
536.22	38717.14
536.38	38490.11
536.55	38656.29
536.72	38583.73
536.89	38850.55
537.06	38866.94
537.23	39512.92
537.40	38541.60
537.57	38740.55
537.74	38895.02
537.91	39213.34
538.08	39145.46
538.25	38724.16
538.42	39356.11
538.59	39108.01
538.75	39150.14
538.92	39201.63
539.09	39735.27
539.26	39428.66
539.43	39599.52
539.60	39810.17
539.77	39559.73
539.94	40048.91
540.11	40301.68
540.28	39133.76
540.44	40027.84
540.61	39629.95
540.78	39559.73
540.95	39803.15
541.12	39533.99
541.29	39990.39
541.46	39852.30
541.62	39814.85
541.79	40205.72
541.96	39618.25
542.13	39704.85
542.30	40020.82
542.47	40027.84
542.63	40081.67
542.80	40334.45
542.97	40620.00
543.14	40715.96
543.31	40645.74
543.48	40502.97
543.64	41251.94
543.81	40582.55
543.98	40987.46
544.15	41139.60
544.32	40715.96
544.48	41237.90
544.65	41184.07
544.82	41336.20
544.99	41102.15
545.16	41144.28
545.32	41277.69
545.49	41940.06
545.66	41471.95
545.83	41656.85
546.00	41453.23
546.16	41439.18
546.33	41256.62
546.50	41057.68
546.67	41352.58
546.83	41495.36
547.00	41397.06
547.17	41687.28
547.34	41359.61
547.50	42050.06
547.67	42164.75
547.84	41530.47
548.00	42356.67
548.17	42525.19
548.34	42265.39
548.51	42071.13
548.67	41907.29
548.84	42384.76
549.01	41970.49
549.18	42234.97
549.34	42045.38
549.51	42550.94
549.68	42380.08
549.84	42202.20
550.01	42351.99
550.18	41984.53
550.34	42794.36
550.51	42719.46
550.68	42696.05
550.84	42417.53
551.01	42768.61
551.18	42417.53
551.34	42527.53
551.51	42689.03
551.68	42391.78
551.84	42674.99
552.01	42260.71
552.18	42887.98
552.34	42773.29
552.51	42967.55
552.68	43098.62
552.84	42857.55
553.01	43323.32
553.18	43164.16
553.34	43330.34
553.51	43438.00
553.67	43283.53
553.84	43435.66
554.01	43239.06
554.17	43122.03
554.34	43086.92
554.51	43681.42
554.67	43475.45
554.84	43110.33
555.00	42885.64
555.17	43112.67
555.33	43531.62
555.50	43395.87
555.67	43475.45
555.83	43831.21
556.00	43555.03
556.16	44009.09
556.33	43606.52
556.50	43873.34
556.66	43749.29
556.83	43452.05
556.99	43973.98
557.16	43749.29
557.32	43990.37
557.49	43969.30
557.65	44069.95
557.82	43931.86
557.98	43674.40
558.15	44011.43
558.32	43732.91
558.48	43749.29
558.65	43922.49
558.81	43931.86
558.98	44208.04
559.14	44123.78
559.31	43903.77
559.47	44430.39
559.64	44409.32
559.80	44142.50
559.97	44194.00
560.13	44011.43
560.30	44055.90
560.46	44608.27
560.63	44121.44
560.79	44650.40
560.96	44280.60
561.12	44765.09
561.29	44708.91
561.45	44828.28
561.61	44378.90
561.78	44699.55
561.94	44460.82
562.11	44751.04
562.27	44619.97
562.44	44392.94
562.60	44783.81
562.77	44671.46
562.93	44425.71
563.10	44872.75
563.26	44423.37
563.42	44973.39
563.59	44793.17
563.75	44622.31
563.92	44949.99
564.08	44889.13
564.24	44760.40
564.41	44746.36
564.57	44938.29
564.74	45216.81
564.90	44870.41
565.07	44741.68
565.23	44856.37
565.39	44877.43
565.56	44809.56
565.72	44832.96
565.88	45291.71
566.05	44568.48
566.21	44877.43
566.38	44961.69
566.54	45134.89
566.70	45184.04
566.87	44811.90
567.03	45022.54
567.19	45280.00
567.36	44858.71
567.52	44744.02
567.68	45364.26
567.85	45186.38
568.01	45455.54
568.17	45137.23
568.34	45338.52
568.50	45705.98
568.66	45083.40
568.83	45282.34
568.99	45216.81
569.15	45237.87
569.32	45378.31
569.48	44851.69
569.64	45860.46
569.81	45460.23
569.97	45530.44
570.13	45600.66
570.30	45415.76
570.46	45790.24
570.62	45378.31
570.78	45434.48
570.95	45247.24
571.11	45556.19
571.27	45514.06
571.43	45329.16
571.60	45228.51
571.76	45469.59
571.92	45380.65
572.09	45160.64
572.25	45553.85
572.41	45305.75
572.57	45455.54
572.74	45722.37
572.90	45839.39
573.06	46150.68
573.22	45755.13
573.38	46071.10
573.55	45778.54
573.71	46216.22
573.87	45610.02
574.03	45633.42
574.20	46248.99
574.36	45581.93
574.52	45684.92
574.68	45668.53
574.84	45750.45
575.01	45989.19
575.17	45961.10
575.33	45635.77
575.49	45490.65
575.65	46295.80
575.82	46181.11
575.98	45911.95
576.14	46160.05
576.30	46017.27
576.46	46045.36
576.62	45830.03
576.79	45659.17
576.95	45415.76
577.11	45902.59
577.27	46038.34
577.43	46246.65
577.59	45968.12
577.75	45764.49
577.92	45471.93
578.08	45979.82
578.24	46096.85
578.40	46447.93
578.56	45897.91
578.72	46059.40
578.88	46171.75
579.04	45986.85
579.21	46000.89
579.37	45785.56
579.53	46000.89
579.69	45783.22
579.85	45787.90
580.01	45617.04
580.17	45045.95
580.33	46050.04
580.49	46347.29
580.65	46471.34
580.82	45722.37
580.98	46227.92
581.14	45565.55
581.30	46349.63
581.46	45331.50
581.62	45902.59
581.78	45757.47
581.94	46019.61
582.10	46237.28
582.26	45925.99
582.42	46232.60
582.58	45911.95
582.74	46089.83
582.90	45804.28
583.06	46040.68
583.22	45509.38
583.38	46223.24
583.54	46150.68
583.70	46213.88
583.86	46513.47
584.02	45961.10
584.18	46335.59
584.34	46028.98
584.50	45949.40
584.66	46415.16
584.82	46412.82
584.98	46714.75
585.14	45986.85
585.30	46026.63
585.46	45975.14
585.62	46085.15
585.78	46337.93
585.94	46129.62
586.10	46382.40
586.26	45867.48
586.42	45801.94
586.58	45909.61
586.74	45867.48
586.90	46138.98
587.06	45921.31
587.22	46527.51
587.38	46277.07
587.54	46330.90
587.70	46424.53
587.86	46366.01
588.02	46522.83
588.18	46377.72
588.34	46405.80
588.49	46211.54
588.65	46209.20
588.81	46195.15
588.97	46305.16
589.13	46571.98
589.29	46265.37
589.45	46515.81
589.61	46548.57
589.77	46749.86
589.93	46511.13
590.08	46492.40
590.24	46485.38
590.40	46787.31
590.56	46768.58
590.72	46658.58
590.88	46492.40
591.04	46590.70
591.20	46890.29
591.35	46707.73
591.51	47056.47
591.67	46983.91
591.83	47140.73
591.99	46799.01
592.15	46431.55
592.31	46546.23
592.46	46298.14
592.62	46841.14
592.78	46564.96
592.94	46820.08
593.10	46726.46
593.26	47091.58
593.41	46859.87
593.57	47012.00
593.73	46686.67
593.89	47166.48
594.05	47126.69
594.20	46934.76
594.36	47262.44
594.52	47426.28
594.68	46845.82
594.84	46728.80
594.99	47253.08
595.15	46731.14
595.31	47182.86
595.47	47145.41
595.62	47203.92
595.78	46909.02
595.94	46969.87
596.10	47178.18
596.25	46913.70
596.41	47178.18
596.57	46625.81
596.73	47274.14
596.88	46918.38
597.04	46880.93
597.20	46923.06
597.36	47058.81
597.51	47316.27
597.67	46618.79
597.83	46796.67
597.99	47049.45
598.14	47042.43
598.30	47077.54
598.46	47054.13
598.61	47138.39
598.77	46770.93
598.93	47334.99
599.09	46941.78
599.24	47297.55
599.40	47384.15
599.56	47405.21
599.71	47250.74
599.87	47459.04
600.03	47035.41
600.18	47292.86
600.34	47161.79
600.50	46951.15
600.65	47182.86
600.81	47508.19
600.97	47232.01
601.12	47026.04
601.28	47229.67
601.44	47143.07
601.59	47241.37
601.75	46717.09
601.91	47257.76
602.06	47234.35
602.22	47526.92
602.37	47110.30
602.53	47051.79
602.69	47388.83
602.84	47110.30
603.00	46787.31
603.16	46983.91
603.31	47213.29
603.47	47281.16
603.62	47313.93
603.78	46972.21
603.94	47133.71
604.09	47494.15
604.25	46883.27
604.40	47096.26
604.56	47285.84
604.71	47519.90
604.87	46887.95
605.03	46787.31
605.18	47484.79
605.34	47203.92
605.49	47161.79
605.65	47189.88
605.80	47248.39
605.96	46894.97
606.12	46972.21
606.27	46932.42
606.43	46857.52
606.58	47082.22
606.74	46948.81
606.89	47100.94
607.05	47215.63
607.20	47377.12
607.36	46658.58
607.51	47239.03
607.67	46712.41
607.82	46927.74
607.98	46855.18
608.13	46817.74
608.29	47051.79
608.44	47358.40
608.60	46681.98
608.75	46904.34
608.91	47040.09
609.06	46330.90
609.22	47009.66
609.37	46829.44
609.53	46787.31
609.68	47028.38
609.84	46876.25
609.99	46873.91
610.15	46581.34
610.30	46883.27
610.46	46263.03
610.61	46909.02
610.76	47201.58
610.92	46567.30
611.07	46581.34
611.23	46595.38
611.38	46663.26
611.54	46775.61
611.69	46546.23
611.84	46670.28
612.00	46979.23
612.15	46686.67
612.31	46377.72
612.46	46618.79
612.62	46316.86
612.77	46618.79
612.92	47112.64
613.08	46466.66
613.23	46368.35
613.39	46506.44
613.54	46487.72
613.69	46632.83
613.85	46272.39
614.00	46539.21
614.15	47012.00
614.31	46351.97
614.46	46251.33
614.62	45897.91
614.77	46466.66
614.92	46454.95
615.08	46356.65
615.23	46223.24
615.38	46438.57
615.54	46616.45
615.69	46698.37
615.84	46040.68
616.00	46738.16
616.15	46295.80
616.30	46382.40
616.46	46181.11
616.61	46684.33
616.76	46291.12
616.92	45710.66
617.07	46506.44
617.22	46485.38
617.37	45771.52
617.53	45975.14
617.68	46326.22
617.83	46134.30
617.99	46312.18
618.14	46323.88
618.29	46068.76
618.45	45883.86
618.60	45925.99
618.75	45766.84
618.90	45525.76
619.06	45984.51
619.21	45935.35
619.36	46199.83
619.51	45521.08
619.67	45394.69
619.82	45631.08
619.97	46026.63
620.12	45729.39
620.28	45530.44
620.43	46080.47
620.58	45794.92
620.73	45680.24
620.89	45954.08
621.04	45778.54
621.19	45687.26
621.34	45251.92
621.49	45483.63
621.65	45771.52
621.80	45965.78
621.95	45574.91
622.10	45874.50
622.25	45235.53
622.41	45605.34
622.56	45715.34
622.71	45778.54
622.86	45361.92
623.01	45586.61
623.16	45298.73
623.32	45553.85
623.47	45525.76
623.62	45174.68
623.77	45471.93
623.92	45858.12
624.07	45258.94
624.23	45588.95
624.38	45549.17
624.53	45448.52
624.68	45202.77
624.83	45198.09
624.98	45024.89
625.13	45270.64
625.29	45198.09
625.44	45146.59
625.59	44994.46
625.74	44598.91
625.89	44652.74
626.04	44861.05
626.19	44720.62
626.34	44844.66
626.49	45078.72
626.65	44311.02
626.80	44657.42
626.95	44708.91
627.10	44346.13
627.25	45083.40
627.40	45155.96
627.55	44458.48
627.70	44545.08
627.85	44545.08
628.00	44870.41
628.15	44582.52
628.30	44126.12
628.45	44432.73
628.60	44161.23
628.76	44765.09
628.91	44678.49
629.06	43995.05
629.21	44123.78
629.36	44037.18
629.51	44243.15
629.66	44484.22
629.81	44121.44
629.96	43915.47
630.11	44130.80
630.26	44404.64
630.41	44294.64
630.56	43737.59
630.71	44039.52
630.86	44083.99
631.01	43875.68
631.16	44184.63
631.31	43805.47
631.46	43908.45
631.61	44524.01
631.76	44442.09
631.91	44030.16
632.06	44392.94
632.21	44292.30
632.36	44402.30
632.51	43613.54
632.66	44023.14
632.81	44273.57
632.96	44172.93
633.10	43405.23
633.25	44055.90
633.40	43573.75
633.55	44086.33
633.70	43459.07
633.85	43831.21
634.00	43473.11
634.15	43679.08
634.30	43646.31
634.45	43686.10
634.60	43313.95
634.75	43789.08
634.90	43674.40
635.05	43835.89
635.19	43646.31
635.34	43400.55
635.49	43585.46
635.64	43508.22
635.79	43531.62
635.94	43548.01
636.09	43824.19
636.24	43189.91
636.39	43320.98
636.53	43482.47
636.68	43023.73
636.83	42827.12
636.98	43175.86
637.13	42733.50
637.28	43112.67
637.43	42850.53
637.57	43232.04
637.72	42749.88
637.87	42911.38
638.02	43220.33
638.17	43079.90
638.32	42806.06
638.46	42588.39
638.61	42597.75
638.76	42813.08
638.91	43199.27
639.06	42895.00
639.20	42391.78
639.35	42611.79
639.50	42452.64
639.65	42536.90
639.80	42728.82
639.94	42773.29
640.09	42326.25
640.24	42801.38
640.39	42295.82
640.54	42337.95
640.68	42139.00
640.83	42801.38
640.98	42806.06
641.13	42099.22
641.27	42450.30
641.42	42595.41
641.57	42241.99
641.72	42548.60
641.86	42548.60
642.01	42113.26
642.16	42363.70
642.31	41801.97
642.45	42494.77
642.60	41986.87
642.75	42190.50
642.90	42471.36
643.04	42101.56
643.19	42387.10
643.34	42150.71
643.48	41654.51
643.63	41717.71
643.78	42124.96
643.93	42483.06
644.07	42476.04
644.22	42213.90
644.37	41748.14
644.51	42108.58
644.66	42038.36
644.81	41717.71
644.95	42314.55
645.10	41855.80
645.25	41628.77
645.39	41397.06
645.54	41792.61
645.69	41830.05
645.83	41675.58
645.98	41471.95
646.13	41844.10
646.27	41511.74
646.42	41226.20
646.57	41258.96
646.71	41530.47
646.86	41963.46
647.00	41546.85
647.15	41542.17
647.30	41902.61
647.44	41530.47
647.59	40980.44
647.74	41352.58
647.88	41691.96
648.03	41874.52
648.17	41617.07
648.32	41273.01
648.47	41581.96
648.61	41205.13
648.76	41184.07
648.90	40914.90
649.05	41495.36
649.20	41397.06
649.34	41158.32
649.49	41378.33
649.63	41160.66
649.78	41373.65
649.92	40947.67
650.07	41902.61
650.21	41404.08
650.36	41549.19
650.51	41095.13
650.65	41345.56
650.80	41097.47
650.94	40905.54
651.09	40463.18
651.23	40671.49
651.38	40919.59
651.52	40594.25
651.67	40699.58
651.81	40718.30
651.96	40730.00
652.10	40554.46
652.25	40507.65
652.39	40526.38
652.54	40751.07
652.68	40561.48
652.83	41111.51
652.97	40877.46
653.12	40657.45
653.26	40332.11
653.41	40671.49
653.55	40275.94
653.70	40683.19
653.84	40318.07
653.99	40500.63
654.13	40273.60
654.27	40369.56
654.42	40631.70
654.56	39964.65
654.71	40608.29
654.85	40748.73
655.00	40306.37
655.14	40566.16
655.29	40816.60
655.43	40608.29
655.57	40046.57
655.72	39496.54
655.86	39772.72
656.01	39580.80
656.15	40058.27
656.30	39995.07
656.44	40002.10
656.58	40311.05
656.73	39868.69
656.87	39550.37
657.01	39519.95
657.16	40009.12
657.30	40006.78
657.45	39786.77
657.59	39264.83
657.73	39189.93
657.88	39749.32
658.02	39770.38
658.16	39526.97
658.31	39604.20
658.45	39882.73
658.60	39367.81
658.74	39807.83
658.88	39669.74
659.03	40039.54
659.17	38944.17
659.31	39117.37
659.46	39290.57
659.60	39456.75
659.74	39122.05
659.89	38892.68
660.03	38689.06
660.17	39182.91
660.32	39218.02
660.46	38899.70
660.60	38724.16
660.74	38726.50
660.89	38656.29
661.03	38593.09
661.17	38038.39
661.32	38143.71
661.46	39138.44
661.60	38602.46
661.74	38693.74
661.89	38490.11
662.03	38445.64
662.17	38532.24
662.31	38270.10
662.46	38433.94
662.60	38213.93
662.74	37675.60
662.88	37851.14
663.03	38036.05
663.17	37572.62
663.31	37387.72
663.45	38169.46
663.60	38569.69
663.74	37879.23
663.88	37977.53
664.02	37577.30
664.17	37818.38
664.31	37570.28
664.45	37474.32
664.59	37809.01
664.73	37392.40
664.88	37469.64
665.02	37617.09
665.16	37263.67
665.30	37153.66
665.44	37219.20
665.59	37261.33
665.73	37043.66
665.87	36868.12
666.01	36828.33
666.15	36982.80
666.29	36898.55
666.44	37226.22
666.58	36671.51
666.72	36737.05
666.86	36437.46
667.00	36589.59
667.14	36491.29
667.28	36538.10
667.43	36423.42
667.57	36643.43
667.71	36395.33
667.85	36685.56
667.99	35992.76
668.13	35775.09
668.27	35955.31
668.41	36175.32
668.56	35608.91
668.70	35786.79
668.84	35372.52
668.98	35791.47
669.12	35910.84
669.26	35756.36
669.40	35988.08
669.54	35559.76
669.68	35761.05
669.82	35002.71
669.96	34986.33
670.10	35276.55
670.25	35117.40
670.39	34817.81
670.53	35529.33
670.67	34902.07
670.81	35262.51
670.95	35077.61
671.09	34998.03
671.23	34419.92
671.37	34749.93
671.51	34464.39
671.65	34265.44
671.79	34433.96
671.93	34960.58
672.07	34712.49
672.21	34890.37
672.35	34099.26
672.49	34323.96
672.63	34148.42
672.77	34143.74
672.91	34204.59
673.05	34015.01
673.19	34185.86
673.33	33949.47
673.47	33565.62
673.61	33490.73
673.75	33696.69
673.89	33394.76
674.03	33284.76
674.17	33085.81
674.31	33067.09
674.45	33331.57
674.59	33118.58
674.73	32669.20
674.87	32510.04
675.01	32823.67
675.15	32533.45
675.29	32673.88
675.43	32428.12
675.56	32753.46
675.70	32552.17
675.84	32559.19
675.98	31307.01
676.12	32161.30
676.26	32046.62
676.40	32481.95
676.54	31648.72
676.68	31807.88
676.82	31456.80
676.96	31892.14
677.10	31606.59
677.23	31583.19
677.37	31433.39
677.51	31517.65
677.65	31108.06
677.79	30843.58
677.93	31157.21
678.07	30677.40
678.21	31089.34
678.34	30546.33
678.48	30998.06
678.62	30370.79
678.76	30663.36
678.90	30728.89
679.04	30464.41
679.18	30717.19
679.31	30038.44
679.45	30176.53
679.59	29928.43
679.73	30129.72
679.87	29612.46
680.00	29682.67
680.14	29329.25
680.28	29427.56
680.42	29869.92
680.56	29493.09
680.70	28919.66
680.83	28854.12
680.97	28751.14
681.11	29252.02
681.25	28701.99
681.39	28006.85
681.52	28395.38
681.66	28016.21
681.80	28102.81
681.94	28086.43
682.07	27821.95
682.21	27805.56
682.35	27845.35
682.49	27943.66
682.62	27992.81
682.76	28231.54
682.90	27735.35
683.04	27683.86
683.17	27580.87
683.31	27278.94
683.45	26836.58
683.59	27000.42
683.72	26661.04
683.86	26771.05
684.00	26672.74
684.13	26754.66
684.27	26298.26
684.41	26696.15
684.55	26494.86
684.68	26309.96
684.82	26434.01
684.96	26324.01
685.09	25888.67
685.23	26197.62
685.37	26614.23
685.50	26164.85
685.64	26073.57
685.78	25776.32
685.91	25954.20
686.05	25511.84
686.19	24945.43
686.32	25439.28
686.46	24865.85
686.60	24795.64
686.73	25048.41
686.87	24587.33
687.01	24926.71
687.14	24919.68
687.28	24510.09
687.42	24372.00
687.55	24510.09
687.69	24641.16
687.82	24130.92
687.96	24194.12
688.10	24222.20
688.23	24091.13
688.37	23852.40
688.50	24191.78
688.64	24009.22
688.78	23814.95
688.91	23704.95
689.05	23367.91
689.18	23356.21
689.32	22932.57
689.46	22970.02
689.59	23002.78
689.73	23201.73
689.86	23178.33
690.00	23255.56
690.13	23040.23
690.27	22656.39
690.41	22724.26
690.54	22419.99
690.68	22178.92
690.81	22429.35
690.95	22022.10
691.08	22064.23
691.22	22092.32
691.35	21804.43
691.49	22157.85
691.62	22012.74
691.76	21696.77
691.89	21099.93
692.03	21282.49
692.16	21280.15
692.30	21181.85
692.43	21036.74
692.57	21149.08
692.70	21249.72
692.84	20812.04
692.97	20470.33
693.11	20971.20
693.24	20645.87
693.38	20245.63
693.51	20549.90
693.65	20311.17
693.78	19798.59
693.92	20320.53
694.05	20079.46
694.19	20098.18
694.32	20013.92
694.45	19920.30
694.59	20187.12
694.72	20187.12
694.86	19777.53
694.99	19278.99
695.13	19370.27
695.26	19473.26
695.39	19110.47
695.53	19094.09
695.66	19213.46
695.80	19147.92
695.93	19080.05
696.07	18857.70
696.20	18387.25
696.33	18190.64
696.47	18279.58
696.60	18649.39
696.73	18487.89
696.87	18462.15
697.00	18366.18
697.14	18141.49
697.27	18113.41
697.40	18043.19
697.54	17879.35
697.67	17872.33
697.80	17823.18
697.94	17584.44
698.07	17802.11
698.21	17465.08
698.34	17507.21
698.47	17324.65
698.61	17128.04
698.74	16901.01
698.87	17275.49
699.01	16870.58
699.14	17090.59
699.27	16821.43
699.40	16741.85
699.54	16603.76
699.67	16786.32
699.80	16830.79
699.94	16266.72
700.07	16556.95
700.20	16505.46
700.34	16145.02
700.47	16121.61
700.60	16358.00
700.73	16219.91
700.87	15831.38
701.00	15693.29
701.13	15719.04
701.26	15765.85
701.40	15716.70
701.53	15571.58
701.66	15592.65
701.79	15496.69
701.93	15206.46
702.06	15421.79
702.19	14998.15
702.32	15199.44
702.46	15276.68
702.59	15133.90
702.72	15073.05
702.85	14939.64
702.99	14974.75
703.12	14799.21
703.25	14647.07
703.38	14586.22
703.51	14448.13
703.65	14171.94
703.78	14157.90
703.91	14188.33
704.04	13916.83
704.17	13916.83
704.31	14143.86
704.44	14085.34
704.57	13816.18
704.70	13907.46
704.83	13701.50
704.96	13462.76
705.10	13736.60
705.23	13607.87
>>>>>End Processed Spectral Data<<<<<
