SpectraSuite Data File
++++++++++++++++++++++++++++++++++++
Date: Fri Oct 25 10:44:12 EDT 2013
User: price-jones
Dark Spectrum Present: No
Reference Spectrum Present: No
Number of Sampled Component Spectra: 1
Spectrometers: USB2+H05261
Integration Time (usec): 100000 (USB2+H05261)
Spectra Averaged: 1 (USB2+H05261)
Boxcar Smoothing: 0 (USB2+H05261)
Correct for Electrical Dark: No (USB2+H05261)
Strobe/Lamp Enabled: No (USB2+H05261)
Correct for Detector Non-linearity: No (USB2+H05261)
Correct for Stray Light: No (USB2+H05261)
Number of Pixels in Processed Spectrum: 2048
>>>>>Begin Processed Spectral Data<<<<<
365.73	124.05
365.92	124.05
366.12	124.05
366.32	16.38
366.52	0.00
366.72	37.45
366.91	49.15
367.11	9.36
367.31	107.66
367.51	44.47
367.70	32.77
367.90	0.00
368.10	32.77
368.30	7.02
368.49	51.49
368.69	98.30
368.89	88.94
369.09	9.36
369.28	58.51
369.48	51.49
369.68	126.39
369.87	11.70
370.07	81.92
370.27	112.35
370.47	191.92
370.66	383.85
370.86	435.34
371.06	465.77
371.25	444.70
371.45	411.93
371.65	552.37
371.84	456.40
372.04	437.68
372.24	500.87
372.44	470.45
372.63	512.58
372.83	493.85
373.03	531.30
373.22	557.05
373.42	514.92
373.62	535.98
373.81	512.58
374.01	571.09
374.21	533.64
374.40	554.71
374.60	634.29
374.79	491.51
374.99	552.37
375.19	477.47
375.38	557.05
375.58	585.13
375.78	519.60
375.97	573.43
376.17	638.97
376.37	580.45
376.56	594.50
376.76	571.09
376.95	606.20
377.15	636.63
377.35	662.37
377.54	645.99
377.74	613.22
377.93	702.16
378.13	674.07
378.33	664.71
378.52	634.29
378.72	648.33
378.91	653.01
379.11	617.90
379.31	645.99
379.50	674.07
379.70	645.99
379.89	711.52
380.09	685.78
380.28	737.27
380.48	681.10
380.68	732.59
380.87	641.31
381.07	755.99
381.26	690.46
381.46	786.42
381.65	697.48
381.85	786.42
382.04	706.84
382.24	699.82
382.43	596.84
382.63	704.50
382.83	730.25
383.02	774.72
383.22	772.38
383.41	699.82
383.61	657.69
383.80	732.59
384.00	711.52
384.19	798.12
384.39	758.33
384.58	828.55
384.78	763.01
384.97	774.72
385.17	774.72
385.36	873.02
385.56	763.01
385.75	763.01
385.95	720.88
386.14	826.21
386.34	863.66
386.53	847.27
386.72	849.61
386.92	833.23
387.11	870.68
387.31	940.90
387.50	873.02
387.70	842.59
387.89	891.74
388.09	929.19
388.28	919.83
388.48	849.61
388.67	915.15
388.86	915.15
389.06	976.00
389.25	898.77
389.45	1020.47
389.64	873.02
389.84	896.43
390.03	933.87
390.22	1011.11
390.42	1055.58
390.61	999.41
390.81	1006.43
391.00	1076.65
391.19	1001.75
391.39	990.05
391.58	1057.92
391.78	1071.97
391.97	987.71
392.16	1069.62
392.36	1027.50
392.55	990.05
392.75	1088.35
392.94	1032.18
393.13	940.90
393.33	985.37
393.52	1022.81
393.71	1125.80
393.91	1188.99
394.10	1088.35
394.29	1210.06
394.49	1165.59
394.68	1179.63
394.88	1163.25
395.07	1284.95
395.26	1196.01
395.46	1203.04
395.65	1259.21
395.84	1132.82
396.04	1177.29
396.23	1163.25
396.42	1158.57
396.62	1111.75
396.81	1179.63
397.00	1303.68
397.19	1207.72
397.39	1308.36
397.58	1320.06
397.77	1324.74
397.97	1383.26
398.16	1392.62
398.35	1458.15
398.55	1432.41
398.74	1413.68
398.93	1502.62
399.12	1455.81
399.32	1469.86
399.51	1490.92
399.70	1575.18
399.90	1542.41
400.09	1526.03
400.28	1495.60
400.47	1668.80
400.67	1575.18
400.86	1577.52
401.05	1636.03
401.24	1643.06
401.44	1710.93
401.63	1771.79
401.82	1799.87
402.01	1664.12
402.21	1746.04
402.40	1703.91
402.59	1692.21
402.78	1809.23
402.97	1727.32
403.17	1722.63
403.36	1870.09
403.55	1795.19
403.74	1877.11
403.93	1928.60
404.13	1834.98
404.32	1877.11
404.51	1893.49
404.70	1900.52
404.89	1884.13
405.09	1942.64
405.28	1905.20
405.47	2001.16
405.66	1921.58
405.85	1954.35
406.05	1830.30
406.24	2015.20
406.43	1968.39
406.62	2083.08
406.81	2097.12
407.00	2106.48
407.20	2085.42
407.39	2094.78
407.58	2108.82
407.77	2080.74
407.96	2143.93
408.15	2141.59
408.34	2174.36
408.54	2237.55
408.73	2246.91
408.92	2356.92
409.11	2289.04
409.30	2377.98
409.49	2286.70
409.68	2258.62
409.87	2265.64
410.07	2352.24
410.26	2303.09
410.45	2431.82
410.64	2431.82
410.83	2462.24
411.02	2450.54
411.21	2541.82
411.40	2499.69
411.59	2605.02
411.78	2525.44
411.98	2623.74
412.17	2696.30
412.36	2750.13
412.55	2719.70
412.74	2836.73
412.93	2668.21
413.12	2640.12
413.31	2789.92
413.50	2820.35
413.69	2871.84
413.88	2909.29
414.07	2855.45
414.26	2810.98
414.45	3042.70
414.64	2967.80
414.83	2993.55
415.02	3021.63
415.22	3066.10
415.41	3215.90
415.60	3255.69
415.79	3070.78
415.98	3126.96
416.17	3358.67
416.36	3302.50
416.55	3204.19
416.74	3302.50
416.93	3225.26
417.12	3206.53
417.31	3286.11
417.50	3325.90
417.69	3353.99
417.88	3435.91
418.07	3337.60
418.26	3349.31
418.45	3332.92
418.64	3529.53
418.83	3623.15
419.02	3461.65
419.21	3606.77
419.39	3559.95
419.58	3548.25
419.77	3473.36
419.96	3529.53
420.15	3728.47
420.34	3761.24
420.53	3719.11
420.72	3770.60
420.91	3791.67
421.10	3749.54
421.29	3810.39
421.48	3747.20
421.67	3728.47
421.86	3714.43
422.05	3882.95
422.24	3850.18
422.43	3815.07
422.61	3845.50
422.80	3789.33
422.99	3995.29
423.18	4021.04
423.37	4025.72
423.56	3868.91
423.75	3859.54
423.94	3845.50
424.13	3691.02
424.32	3653.58
424.50	3992.95
424.69	3974.23
424.88	3871.25
425.07	3868.91
425.26	3850.18
425.45	3892.31
425.64	3875.93
425.83	3899.33
426.01	3922.74
426.20	4044.45
426.39	4049.13
426.58	3854.86
426.77	3964.87
426.96	4042.11
427.15	4025.72
427.33	4065.51
427.52	3988.27
427.71	4095.94
427.90	4163.81
428.09	4231.69
428.28	4142.75
428.46	3936.78
428.65	4163.81
428.84	4161.47
429.03	4308.93
429.22	4142.75
429.40	4126.36
429.59	4152.11
429.78	4046.79
429.97	3817.41
430.16	3978.91
430.34	4046.79
430.53	4084.23
430.72	4114.66
430.91	4238.71
431.10	4423.61
431.28	4430.63
431.47	4648.30
431.66	4535.96
431.85	4519.57
432.03	4603.83
432.22	4610.86
432.41	4533.62
432.60	4699.80
432.79	4566.39
432.97	4814.48
433.16	4823.84
433.35	4622.56
433.54	4580.43
433.72	4685.75
433.91	4535.96
434.10	4688.09
434.28	4704.48
434.47	4821.50
434.66	4903.42
434.85	4880.02
435.03	5006.41
435.22	4926.83
435.41	5104.71
435.59	4980.66
435.78	5008.75
435.97	5095.35
436.16	5172.58
436.34	5132.79
436.53	4971.30
436.72	4999.38
436.90	5069.60
437.09	5205.35
437.28	5083.64
437.46	5221.74
437.65	5114.07
437.84	5245.14
438.02	5022.79
438.21	5291.95
438.40	5100.03
438.58	5324.72
438.77	5296.63
438.96	5305.99
439.14	5518.98
439.33	5696.86
439.52	5540.05
439.70	5500.26
439.89	5703.89
440.08	5507.28
440.26	5530.69
440.45	5806.87
440.63	5839.64
440.82	5935.60
441.01	5886.45
441.19	5991.77
441.38	6202.42
441.57	6115.82
441.75	6146.25
441.94	6195.40
442.12	6338.17
442.31	6298.38
442.50	6338.17
442.68	6216.46
442.87	6370.94
443.05	6244.55
443.24	6506.69
443.43	6504.35
443.61	6417.75
443.80	6541.80
443.98	6333.49
444.17	6181.35
444.35	6424.77
444.54	6572.22
444.73	6520.73
444.91	6525.41
445.10	6434.13
445.28	6403.71
445.47	6291.36
445.65	6289.02
445.84	6537.12
446.02	6553.50
446.21	6546.48
446.39	6544.14
446.58	6558.18
446.77	6569.88
446.95	6548.82
447.14	6705.63
447.32	6696.27
447.51	6757.13
447.69	6635.42
447.88	6642.44
448.06	6860.11
448.25	6602.65
448.43	6729.04
448.62	6876.49
448.80	6733.72
448.99	6745.42
449.17	6871.81
449.36	6773.51
449.54	6967.77
449.73	7169.06
449.91	7040.33
450.10	7166.72
450.28	7262.68
450.46	7180.76
450.65	7155.02
450.83	7368.01
451.02	7084.80
451.20	7194.81
451.39	7068.42
451.57	7194.81
451.76	7089.48
451.94	7192.47
452.13	7162.04
452.31	7108.21
452.49	7094.16
452.68	7117.57
452.86	7241.62
453.05	7330.56
453.23	7304.81
453.42	7342.26
453.60	7243.96
453.78	7314.17
453.97	7529.50
454.15	7363.33
454.34	7229.91
454.52	7515.46
454.70	7431.20
454.89	7428.86
455.07	7459.29
455.26	7517.80
455.44	7730.79
455.62	7667.60
455.81	7522.48
455.99	7709.72
456.17	7941.44
456.36	7854.84
456.54	7950.80
456.73	7922.71
456.91	8065.49
457.09	8102.93
457.28	8145.06
457.46	7864.20
457.64	7927.39
457.83	7934.42
458.01	8107.62
458.19	8264.43
458.38	8140.38
458.56	8278.47
458.74	8140.38
458.93	8339.33
459.11	8336.99
459.29	8241.03
459.48	7985.91
459.66	8159.11
459.84	8285.50
460.03	8575.72
460.21	8446.99
460.39	8592.11
460.57	8212.94
460.76	8339.33
460.94	8601.47
461.12	8664.66
461.31	8613.17
461.49	8741.90
461.67	8652.96
461.85	8760.63
462.04	8692.75
462.22	8898.72
462.40	8786.37
462.59	8737.22
462.77	8931.48
462.95	8734.88
463.13	8929.14
463.32	8645.94
463.50	8697.43
463.68	8978.30
463.86	8954.89
464.05	8823.82
464.23	8929.14
464.41	9132.77
464.59	8746.58
464.78	9135.11
464.96	9139.79
465.14	8929.14
465.32	9153.84
465.50	9060.21
465.69	9263.84
465.87	9149.15
466.05	9163.20
466.23	9142.13
466.41	9259.16
466.60	9458.10
466.78	9219.37
466.96	9268.52
467.14	9296.61
467.32	9404.27
467.51	9540.02
467.69	9078.94
467.87	9444.06
468.05	9591.52
468.23	9266.18
468.41	9420.66
468.60	9554.07
468.78	9408.95
468.96	9476.83
469.14	9563.43
469.32	9762.37
469.50	9500.23
469.69	9741.31
469.87	9776.42
470.05	10043.24
470.23	9846.63
470.41	9717.90
470.59	9720.24
470.77	9717.90
470.95	9713.22
471.14	10050.26
471.32	10113.45
471.50	10108.77
471.68	10312.40
471.86	10539.43
472.04	10342.83
472.22	10593.26
472.40	10321.76
472.58	10284.31
472.77	10457.51
472.95	10572.20
473.13	10764.12
473.31	10429.43
473.49	10394.32
473.67	10600.29
473.85	10710.29
474.03	10712.63
474.21	10920.94
474.39	11066.05
474.57	10927.96
474.75	11187.76
474.93	11220.53
475.12	10986.47
475.30	11187.76
475.48	11442.88
475.66	11321.17
475.84	11112.86
476.02	11475.65
476.20	11623.10
476.38	11508.41
476.56	11782.26
476.74	11513.10
476.92	11728.42
477.10	11681.61
477.28	11770.55
477.46	11957.80
477.64	12109.93
477.82	12196.53
478.00	12514.84
478.18	12571.02
478.36	12404.84
478.54	12709.11
478.72	12678.68
478.90	13022.74
479.08	12886.99
479.26	13322.33
479.44	13186.58
479.62	13160.83
479.80	13324.67
479.98	13448.72
480.16	13516.59
480.34	13387.86
480.52	13654.69
480.70	13427.65
480.88	13612.56
481.06	13884.06
481.24	13645.32
481.41	14033.85
481.59	14501.96
481.77	14443.45
481.95	14431.74
482.13	14548.77
482.31	14380.25
482.49	14941.98
482.67	14719.63
482.85	14766.44
483.03	15049.64
483.21	15377.32
483.39	15475.62
483.57	15131.56
483.74	15456.90
483.92	15566.90
484.10	15625.42
484.28	15679.25
484.46	16198.85
484.64	16365.03
484.82	16067.78
485.00	16226.93
485.18	16266.72
485.35	16521.84
485.53	16093.52
485.71	15889.90
485.89	16652.91
486.07	16358.00
486.25	16566.31
486.43	16809.73
486.61	17067.19
486.78	17305.92
486.96	17472.10
487.14	17586.79
487.32	17413.59
487.50	17820.84
487.68	18073.62
487.85	18349.80
488.03	18263.20
488.21	18455.12
488.39	18361.50
488.57	18644.71
488.75	18635.35
488.92	19094.09
489.10	19414.74
489.28	19323.46
489.46	19733.06
489.64	19527.09
489.81	20049.03
489.99	19845.40
490.17	20086.48
490.35	20416.49
490.53	20004.56
490.70	20460.96
490.88	20198.82
491.06	20695.02
491.24	20840.13
491.41	20266.70
491.59	20634.16
491.77	20688.00
491.95	21184.19
492.13	21296.53
492.30	21383.13
492.48	21687.40
492.66	21535.27
492.84	21900.39
493.01	21876.99
493.19	21844.22
493.37	21951.88
493.54	22192.96
493.72	22796.82
493.90	22445.74
494.08	22668.09
494.25	23117.47
494.43	22855.33
494.61	23370.25
494.79	23374.93
494.96	23470.89
495.14	23594.94
495.32	23709.63
495.49	23868.78
495.67	23840.70
495.85	23929.64
496.02	23927.30
496.20	24437.53
496.38	24687.97
496.55	24599.03
496.73	24680.95
496.91	24514.77
497.09	24847.13
497.26	25212.25
497.44	25109.27
497.62	24926.71
497.79	25481.41
497.97	25172.46
498.14	25476.73
498.32	25652.27
498.50	25811.43
498.67	25816.11
498.85	25996.33
499.03	26064.21
499.20	26647.00
499.38	26340.39
499.56	26361.45
499.73	26281.88
499.91	26384.86
500.08	26405.92
500.26	26272.51
500.44	26431.67
500.61	26705.51
500.79	26239.75
500.97	27229.79
501.14	26869.35
501.32	26944.25
501.49	26764.03
501.67	27056.59
501.84	27220.43
502.02	27527.04
502.20	27323.41
502.37	27623.00
502.55	27623.00
502.72	28107.49
502.90	28027.92
503.07	27468.53
503.25	28105.15
503.43	28041.96
503.60	27992.81
503.78	27985.79
503.95	27950.68
504.13	28327.50
504.30	28519.43
504.48	28460.91
504.65	28744.12
504.83	28886.89
505.01	29181.80
505.18	29167.76
505.36	29895.66
505.53	29013.28
505.71	29146.69
505.88	29502.45
506.06	29146.69
506.23	29357.34
506.41	29984.60
506.58	29909.71
506.76	29640.54
506.93	30202.27
507.11	29937.79
507.28	29935.45
507.46	30075.88
507.63	30005.67
507.81	30003.33
507.98	30115.67
508.16	30345.05
508.33	30504.20
508.50	30595.48
508.68	30792.09
508.85	31063.59
509.03	30892.73
509.20	31117.42
509.38	31105.72
509.55	31058.91
509.73	31119.76
509.90	31229.77
510.08	31414.67
510.25	31278.92
510.42	31150.19
510.60	31882.78
510.77	31922.57
510.95	31732.98
511.12	31789.16
511.30	31740.00
511.47	31786.82
511.64	32346.20
511.82	32378.97
511.99	32126.19
512.17	31908.52
512.34	32519.40
512.51	32437.48
512.69	32828.35
512.86	32720.69
513.04	32870.48
513.21	32699.62
513.38	32903.25
513.56	32879.85
513.73	32620.05
513.90	33216.88
514.08	32776.86
514.25	33151.35
514.43	33273.06
514.60	33432.21
514.77	33343.27
514.95	33392.42
515.12	33331.57
515.29	33642.86
515.47	33921.38
515.64	33949.47
515.81	33783.29
515.99	33589.03
516.16	33844.15
516.33	33694.35
516.51	33586.69
516.68	33539.88
516.85	33085.81
517.03	33392.42
517.20	33762.23
517.37	34204.59
517.54	34361.40
517.72	33893.30
517.89	33947.13
518.06	33869.89
518.24	33893.30
518.41	34064.16
518.58	34878.66
518.75	34710.14
518.93	34773.34
519.10	34859.94
519.27	34962.92
519.45	35115.06
519.62	35236.77
519.79	35110.38
519.96	35564.44
520.14	35683.81
520.31	34824.83
520.48	35824.24
520.65	35388.90
520.83	35723.60
521.00	36060.63
521.17	36011.48
521.34	36048.93
521.52	35938.93
521.69	36573.21
521.86	36191.70
522.03	36128.51
522.20	36446.82
522.38	36140.21
522.55	36446.82
522.72	36540.44
522.89	36081.70
523.07	36505.34
523.24	36788.54
523.41	36556.83
523.58	36486.61
523.75	37095.15
523.92	37067.06
524.10	37095.15
524.27	37226.22
524.44	37235.58
524.61	37109.19
524.78	37053.02
524.96	37343.25
525.13	38033.71
525.30	37743.48
525.47	37982.21
525.64	37638.15
525.81	37663.90
525.98	37706.03
526.16	37371.33
526.33	37191.11
526.50	37593.68
526.67	37015.57
526.84	36889.18
527.01	37591.34
527.18	37600.71
527.36	37804.33
527.53	37970.51
527.70	38667.99
527.87	38588.41
528.04	38380.10
528.21	38305.21
528.38	38625.86
528.55	39136.10
528.72	38972.26
528.89	38813.10
529.07	39129.08
529.24	38281.80
529.41	39274.19
529.58	38431.60
529.75	38705.44
529.92	39112.69
530.09	39154.82
530.26	39377.17
530.43	39358.45
530.60	38600.12
530.77	39178.23
530.94	39985.71
531.11	39611.23
531.28	39264.83
531.46	39482.50
531.63	39559.73
531.80	39037.80
531.97	39566.76
532.14	39313.98
532.31	39037.80
532.48	39498.88
532.65	39498.88
532.82	39545.69
532.99	39969.33
533.16	39269.51
533.33	40006.78
533.50	39880.39
533.67	40477.22
533.84	39896.77
534.01	40076.99
534.18	39931.88
534.35	40790.86
534.52	40154.23
534.69	40591.91
534.86	40526.38
535.03	40598.93
535.20	40388.28
535.37	40961.72
535.54	40788.52
535.71	41013.21
535.88	40617.66
536.05	40231.47
536.22	40631.70
536.38	40868.09
536.55	40687.87
536.72	40800.22
536.89	40837.67
537.06	40634.04
537.23	41371.31
537.40	41212.15
537.57	41029.59
537.74	41017.89
537.91	41261.30
538.08	41172.36
538.25	41043.63
538.42	40886.82
538.59	41214.49
538.75	40886.82
538.92	40886.82
539.09	41464.93
539.26	41607.70
539.43	41532.81
539.60	41446.21
539.77	40978.10
539.94	41303.43
540.11	41617.07
540.28	41495.36
540.44	41645.15
540.61	41132.57
540.78	41099.81
540.95	41230.88
541.12	41483.66
541.29	42139.00
541.46	41401.74
541.62	42150.71
541.79	42279.44
541.96	41883.89
542.13	41956.44
542.30	42199.86
542.47	41916.65
542.63	41897.93
542.80	42061.77
542.97	42525.19
543.14	42766.27
543.31	42590.73
543.48	42974.58
543.64	42698.39
543.81	42960.53
543.98	42829.46
544.15	42632.86
544.32	43005.00
544.48	43267.14
544.65	43030.75
544.82	43203.95
544.99	42630.52
545.16	42674.99
545.32	42672.65
545.49	43533.96
545.66	43416.94
545.83	43203.95
546.00	43239.06
546.16	42997.98
546.33	42960.53
546.50	42904.36
546.67	43360.76
546.83	43201.61
547.00	43517.58
547.17	43498.86
547.34	43246.08
547.50	43208.63
547.67	43335.02
547.84	43405.23
548.00	43604.18
548.17	43739.93
548.34	43449.70
548.51	43711.84
548.67	43922.49
548.84	43955.26
549.01	43775.04
549.18	43487.15
549.34	43796.10
549.51	44058.24
549.68	44292.30
549.84	43878.02
550.01	44304.00
550.18	43693.12
550.34	44266.55
550.51	44137.82
550.68	43997.39
550.84	43768.02
551.01	44458.48
551.18	44112.08
551.34	44318.04
551.51	43936.54
551.68	44526.35
551.84	44254.85
552.01	44133.14
552.18	43945.90
552.34	44194.00
552.51	44165.91
552.68	44282.94
552.84	44430.39
553.01	44638.70
553.18	44353.15
553.34	44261.87
553.51	44456.14
553.67	44416.35
553.84	44942.97
554.01	44753.38
554.17	44648.06
554.34	45195.74
554.51	44924.24
554.67	44711.25
554.84	44648.06
555.00	44751.04
555.17	44390.60
555.33	44839.98
555.50	44528.69
555.67	44748.70
555.83	44926.58
556.00	44442.09
556.16	45125.53
556.33	45043.61
556.50	44657.42
556.66	44762.75
556.83	44687.85
556.99	44928.92
557.16	45116.17
557.32	45050.63
557.49	44872.75
557.65	44657.42
557.82	45167.66
557.98	45120.85
558.15	45270.64
558.32	45305.75
558.48	45235.53
558.65	44980.42
558.81	44830.62
558.98	44952.33
559.14	45167.66
559.31	44966.37
559.47	45287.03
559.64	45350.22
559.80	45251.92
559.97	45357.24
560.13	45350.22
560.30	45057.65
560.46	45645.13
560.63	45256.60
560.79	45326.81
560.96	45661.51
561.12	45338.52
561.29	45425.12
561.45	45558.53
561.61	45404.05
561.78	45549.17
561.94	45490.65
562.11	45294.05
562.27	45310.43
562.44	45432.14
562.60	45743.43
562.77	45830.03
562.93	45378.31
563.10	45677.90
563.26	45600.66
563.42	45713.00
563.59	45413.41
563.75	45612.36
563.92	46096.85
564.08	45724.71
564.24	46045.36
564.41	45778.54
564.57	45862.80
564.74	45628.74
564.90	45659.17
565.07	45874.50
565.23	45497.67
565.39	46010.25
565.56	45921.31
565.72	45659.17
565.88	45904.93
566.05	45581.93
566.21	45815.99
566.38	45645.13
566.54	45715.34
566.70	46019.61
566.87	46162.39
567.03	46045.36
567.19	46122.60
567.36	46171.75
567.52	45663.85
567.68	46050.04
567.85	45556.19
568.01	46354.31
568.17	45654.49
568.34	46007.91
568.50	45570.23
568.66	45785.56
568.83	45937.69
568.99	45830.03
569.15	45839.39
569.32	46089.83
569.48	45521.08
569.64	45921.31
569.81	45954.08
569.97	45916.63
570.13	45958.76
570.30	45518.74
570.46	45804.28
570.62	45698.96
570.78	45422.78
570.95	45815.99
571.11	46209.20
571.27	45851.09
571.43	46073.45
571.60	45724.71
571.76	46010.25
571.92	45991.53
572.09	46071.10
572.25	45867.48
572.41	46078.13
572.57	45787.90
572.74	46450.27
572.90	45961.10
573.06	45982.16
573.22	46082.81
573.38	45752.79
573.55	45701.30
573.71	46045.36
573.87	46024.29
574.03	46124.94
574.20	45801.94
574.36	45720.02
574.52	46113.23
574.68	46216.22
574.84	45977.48
575.01	45951.74
575.17	45930.67
575.33	45827.69
575.49	45879.18
575.65	46244.30
575.82	46131.96
575.98	46113.23
576.14	46344.95
576.30	46501.76
576.46	46033.66
576.62	46232.60
576.79	46110.89
576.95	45991.53
577.11	46059.40
577.27	46464.32
577.43	45907.27
577.59	46047.70
577.75	46000.89
577.92	45593.64
578.08	46087.49
578.24	45621.72
578.40	45954.08
578.56	46323.88
578.72	45911.95
578.88	46459.63
579.04	46506.44
579.21	45989.19
579.37	46164.73
579.53	45928.33
579.69	45895.56
579.85	46361.33
580.01	46167.07
580.17	45993.87
580.33	46204.52
580.49	46321.54
580.65	46649.22
580.82	46059.40
580.98	46195.15
581.14	46007.91
581.30	46216.22
581.46	46419.84
581.62	46464.32
581.78	46312.18
581.94	46267.71
582.10	46188.13
582.26	46288.77
582.42	46014.93
582.58	46138.98
582.74	46328.56
582.90	46593.04
583.06	46602.41
583.22	46555.60
583.38	46646.88
583.54	46405.80
583.70	46424.53
583.86	46248.99
584.02	46494.74
584.18	46115.58
584.34	46131.96
584.50	46199.83
584.66	46370.69
584.82	46012.59
584.98	46731.14
585.14	46469.00
585.30	46176.43
585.46	46328.56
585.62	46398.78
585.78	46124.94
585.94	45925.99
586.10	46433.89
586.26	46216.22
586.42	46382.40
586.58	46354.31
586.74	46216.22
586.90	45944.72
587.06	46204.52
587.22	46337.93
587.38	45799.60
587.54	45935.35
587.70	46560.28
587.86	46330.90
588.02	46513.47
588.18	45862.80
588.34	46031.32
588.49	45825.35
588.65	45184.04
588.81	45778.54
588.97	46024.29
589.13	45993.87
589.29	46075.79
589.45	46286.43
589.61	46298.14
589.77	46586.02
589.93	46211.54
590.08	46211.54
590.24	46520.49
590.40	46639.86
590.56	46625.81
590.72	46541.55
590.88	46274.73
591.04	46291.12
591.20	46607.09
591.35	46539.21
591.51	46855.18
591.67	46237.28
591.83	46616.45
591.99	46415.16
592.15	46398.78
592.31	46735.82
592.46	45921.31
592.62	46518.15
592.78	46616.45
592.94	46480.70
593.10	46574.32
593.26	46459.63
593.41	46288.77
593.57	46295.80
593.73	46134.30
593.89	46363.67
594.05	46962.85
594.20	46363.67
594.36	46569.64
594.52	46321.54
594.68	46314.52
594.84	46284.09
594.99	46597.73
595.15	46450.27
595.31	46504.10
595.47	46644.54
595.62	46277.07
595.78	46649.22
595.94	46969.87
596.10	46454.95
596.25	46815.40
596.41	46389.42
596.57	46384.74
596.73	46344.95
596.88	45851.09
597.04	46871.57
597.20	46117.92
597.36	46813.05
597.51	46965.19
597.67	47037.75
597.83	46213.88
597.99	46864.55
598.14	46787.31
598.30	46314.52
598.46	46197.49
598.61	46527.51
598.77	46284.09
598.93	46557.94
599.09	46618.79
599.24	47133.71
599.40	47019.02
599.56	46672.62
599.71	46396.44
599.87	46216.22
600.03	46595.38
600.18	46485.38
600.34	46506.44
600.50	46461.97
600.65	46735.82
600.81	46546.23
600.97	46719.43
601.12	46553.26
601.28	46431.55
601.44	46316.86
601.59	46375.37
601.75	46050.04
601.91	46358.99
602.06	45914.29
602.22	46506.44
602.37	46164.73
602.53	46810.71
602.69	46501.76
602.84	46843.48
603.00	46347.29
603.16	46461.97
603.31	46473.68
603.47	46230.26
603.62	46501.76
603.78	46412.82
603.94	46401.12
604.09	46445.59
604.25	46703.05
604.40	46082.81
604.56	46202.18
604.71	46562.62
604.87	46380.06
605.03	46272.39
605.18	46183.45
605.34	46143.66
605.49	46171.75
605.65	46525.17
605.80	46251.33
605.96	46382.40
606.12	46101.53
606.27	46749.86
606.43	46260.69
606.58	46476.02
606.74	46248.99
606.89	46003.23
607.05	46478.36
607.20	46677.30
607.36	46246.65
607.51	46799.01
607.67	46298.14
607.82	46508.79
607.98	46113.23
608.13	46218.56
608.29	46260.69
608.44	45764.49
608.60	45865.14
608.75	45982.16
608.91	45820.67
609.06	46380.06
609.22	46227.92
609.37	45649.81
609.53	46616.45
609.68	46054.72
609.84	45858.12
609.99	45858.12
610.15	45778.54
610.30	45855.78
610.46	45666.19
610.61	45881.52
610.76	46075.79
610.92	45806.62
611.07	45869.82
611.23	45954.08
611.38	45642.79
611.54	45495.33
611.69	45703.64
611.84	45724.71
612.00	45675.55
612.15	45219.15
612.31	46087.49
612.46	45481.29
612.62	45968.12
612.77	45563.21
612.92	45940.04
613.08	45525.76
613.23	45642.79
613.39	45649.81
613.54	45153.62
613.69	45378.31
613.85	45588.95
614.00	45659.17
614.15	45942.38
614.31	45408.73
614.46	45371.28
614.62	45462.57
614.77	45118.51
614.92	45291.71
615.08	45368.94
615.23	45268.30
615.38	45268.30
615.54	45298.73
615.69	45425.12
615.84	45085.74
616.00	45148.93
616.15	44989.78
616.30	45591.30
616.46	44961.69
616.61	44921.90
616.76	45008.50
616.92	44137.82
617.07	44938.29
617.22	45340.86
617.37	44357.83
617.53	44832.96
617.68	45418.10
617.83	44854.03
617.99	44706.57
618.14	44933.60
618.29	45212.13
618.45	44498.26
618.60	44535.71
618.75	44701.89
618.90	44882.11
619.06	44690.19
619.21	44760.40
619.36	45064.67
619.51	44816.58
619.67	44182.29
619.82	44727.64
619.97	44617.63
620.12	44488.90
620.28	43910.79
620.43	44481.88
620.58	44060.58
620.73	44751.04
620.89	44477.20
621.04	44261.87
621.19	44849.35
621.34	44575.50
621.49	44259.53
621.65	44236.12
621.80	44425.71
621.95	43786.74
622.10	44421.03
622.25	44093.35
622.41	43730.57
622.56	44055.90
622.71	44254.85
622.86	43873.34
623.01	43973.98
623.16	43798.44
623.32	44055.90
623.47	44341.45
623.62	43735.25
623.77	43831.21
623.92	43807.81
624.07	43819.51
624.23	43859.30
624.38	43695.46
624.53	43791.42
624.68	43412.26
624.83	43840.57
624.98	43428.64
625.13	43381.83
625.29	43309.27
625.44	43021.39
625.59	42904.36
625.74	43105.65
625.89	42550.94
626.04	43093.94
626.19	43023.73
626.34	43459.07
626.49	43466.09
626.65	43784.40
626.80	43175.86
626.95	42997.98
627.10	43232.04
627.25	42962.87
627.40	42630.52
627.55	42960.53
627.70	42485.40
627.85	42380.08
628.00	42899.68
628.15	42965.21
628.30	42597.75
628.45	43054.15
628.60	42883.30
628.76	42955.85
628.91	42927.77
629.06	42918.40
629.21	42689.03
629.36	42780.31
629.51	42359.02
629.66	42501.79
629.81	42295.82
629.96	42534.56
630.11	42742.86
630.26	43047.13
630.41	42792.01
630.56	42726.48
630.71	42548.60
630.86	42354.33
631.01	42590.73
631.16	42658.60
631.31	41890.91
631.46	42433.91
631.61	42323.91
631.76	42162.41
631.91	42714.78
632.06	42298.16
632.21	42557.96
632.36	42784.99
632.51	42036.02
632.66	41584.30
632.81	41736.43
632.96	41652.17
633.10	41808.99
633.25	42220.92
633.40	41916.65
633.55	42300.50
633.70	41989.21
633.85	42176.45
634.00	41818.35
634.15	42033.68
634.30	41820.69
634.45	42047.72
634.60	42244.33
634.75	41628.77
634.90	41909.63
635.05	41614.72
635.19	41352.58
635.34	41682.60
635.49	41509.40
635.64	41549.19
635.79	41436.84
635.94	41476.63
636.09	41537.49
636.24	41668.56
636.39	41537.49
636.53	41415.78
636.68	41223.86
636.83	41305.77
636.98	41467.27
637.13	41155.98
637.28	41530.47
637.43	41762.18
637.57	41151.30
637.72	41003.85
637.87	41223.86
638.02	41392.37
638.17	41361.95
638.32	41090.44
638.46	40952.35
638.61	41230.88
638.76	41008.53
638.91	41132.57
639.06	40957.03
639.20	40973.42
639.35	41291.73
639.50	41041.29
639.65	40800.22
639.80	41090.44
639.94	40811.92
640.09	40634.04
640.24	41078.74
640.39	40470.20
640.54	40655.11
640.68	40442.12
640.83	41249.60
640.98	40446.80
641.13	40350.84
641.27	40722.98
641.42	40343.81
641.57	40552.12
641.72	40364.88
641.86	39966.99
642.01	40266.58
642.16	40177.64
642.31	39950.60
642.45	40142.53
642.60	40196.36
642.75	40390.62
642.90	40091.04
643.04	40388.28
643.19	40060.61
643.34	40329.77
643.48	39985.71
643.63	39807.83
643.78	39683.78
643.93	39997.41
644.07	40133.17
644.22	39821.87
644.37	39658.04
644.51	39945.92
644.66	39985.71
644.81	39817.19
644.95	40140.19
645.10	40474.88
645.25	40306.37
645.39	39819.53
645.54	39983.37
645.69	39728.25
645.83	39782.09
645.98	39903.79
646.13	39730.59
646.27	40044.23
646.42	39796.13
646.57	39702.51
646.71	39533.99
646.86	39316.32
647.00	39922.52
647.15	39758.68
647.30	39524.63
647.44	39037.80
647.59	39002.69
647.74	39187.59
647.88	39171.21
648.03	39480.16
648.17	39398.24
648.32	39428.66
648.47	39028.43
648.61	38944.17
648.76	39438.03
648.90	39049.50
649.05	38902.04
649.20	38913.75
649.34	38946.51
649.49	38937.15
649.63	38628.20
649.78	38789.70
649.92	39044.82
650.07	39672.08
650.21	38780.34
650.36	38785.02
650.51	38827.15
650.65	39316.32
650.80	39299.94
650.94	39470.79
651.09	38735.87
651.23	39084.61
651.38	39023.75
651.52	38361.38
651.67	38651.61
651.81	38602.46
651.96	38403.51
652.10	38438.62
652.25	39061.20
652.39	39035.45
652.54	38447.98
652.68	38735.87
652.83	38490.11
652.97	38796.72
653.12	38452.66
653.26	38218.61
653.41	38206.90
653.55	38230.31
653.70	38244.35
653.84	38403.51
653.99	38653.95
654.13	37923.70
654.27	38349.68
654.42	37820.72
654.56	37834.76
654.71	38181.16
654.85	38740.55
655.00	38068.81
655.14	38199.88
655.29	37797.31
655.43	37734.12
655.57	37909.66
655.72	37340.91
655.86	37530.49
656.01	37394.74
656.15	37427.51
656.30	37467.30
656.44	37759.86
656.58	37188.77
656.73	37460.27
656.87	37240.26
657.01	37794.97
657.16	37649.86
657.30	37460.27
657.45	37024.93
657.59	37392.40
657.73	37329.20
657.88	38328.61
658.02	37855.82
658.16	38132.01
658.31	37865.19
658.45	37181.75
658.60	37109.19
658.74	37406.44
658.88	37462.61
659.03	36910.25
659.17	37132.60
659.31	37022.59
659.46	36818.97
659.60	37064.72
659.74	37067.06
659.89	37060.04
660.03	36830.67
660.17	36954.72
660.32	36863.44
660.46	37053.02
660.60	36732.37
660.74	36858.76
660.89	36458.52
661.03	36477.25
661.17	36528.74
661.32	36039.57
661.46	36809.61
661.60	36488.95
661.74	36533.42
661.89	36275.96
662.03	36680.88
662.17	36357.88
662.31	35988.08
662.46	36528.74
662.60	36194.04
662.74	35931.90
662.88	36224.47
663.03	35393.58
663.17	35903.82
663.31	35775.09
663.45	35737.64
663.60	35498.91
663.74	35812.54
663.88	35433.37
664.02	35613.59
664.17	35758.70
664.31	35672.10
664.45	35255.49
664.59	35452.09
664.73	35344.43
664.88	35482.52
665.02	34838.87
665.16	35391.24
665.30	35150.17
665.44	35166.55
665.59	35316.34
665.73	35040.16
665.87	34937.18
666.01	35166.55
666.15	34916.11
666.29	35283.58
666.44	34967.60
666.58	34845.90
666.72	34850.58
666.86	34485.45
667.00	34689.08
667.14	34408.22
667.28	34338.00
667.43	34380.13
667.57	34375.45
667.71	34370.77
667.85	34349.70
667.99	34340.34
668.13	34239.70
668.27	34452.69
668.41	34220.97
668.56	33446.26
668.70	33752.87
668.84	33947.13
668.98	33696.69
669.12	33577.33
669.26	33207.52
669.40	33472.00
669.54	33425.19
669.68	33621.80
669.82	33694.35
669.96	33364.34
670.10	33397.10
670.25	33542.22
670.39	33013.26
670.53	33022.62
670.67	33472.00
670.81	33535.20
670.95	33390.08
671.09	33249.65
671.23	33027.30
671.37	32737.07
671.51	32762.82
671.65	32577.92
671.79	32622.39
671.93	32828.35
672.07	33062.41
672.21	32561.53
672.35	32425.78
672.49	32608.34
672.63	32463.23
672.77	32240.88
672.91	32570.90
673.05	32245.56
673.19	32222.16
673.33	31945.97
673.47	32018.53
673.61	31557.44
673.75	31400.63
673.89	31091.68
674.03	30869.33
674.17	31445.10
674.31	31283.60
674.45	31304.67
674.59	31358.50
674.73	31515.31
674.87	31442.76
675.01	31051.89
675.15	31431.05
675.29	31037.84
675.43	31110.40
675.56	30888.05
675.70	30796.77
675.84	31049.55
675.98	30323.98
676.12	30646.97
676.26	30885.71
676.40	30270.15
676.54	30597.82
676.68	30312.28
676.82	30108.65
676.96	30249.08
677.10	30000.99
677.23	29813.74
677.37	30410.58
677.51	29605.44
677.65	29406.49
677.79	29003.92
677.93	29729.48
678.07	28762.84
678.21	28697.31
678.34	29125.63
678.48	28807.31
678.62	29050.73
678.76	28582.62
678.90	28320.48
679.04	28781.57
679.18	28467.94
679.31	28411.76
679.45	28458.57
679.59	27889.82
679.73	28095.79
679.87	28044.30
680.00	28102.81
680.14	27571.51
680.28	27555.13
680.42	27833.65
680.56	27901.53
680.70	27470.87
680.83	28063.02
680.97	27784.50
681.11	27775.14
681.25	26881.05
681.39	27087.02
681.52	27180.64
681.66	27248.52
681.80	27082.34
681.94	27117.45
682.07	27021.48
682.21	26485.50
682.35	26932.54
682.49	26565.08
682.62	26581.46
682.76	26735.94
682.90	26181.23
683.04	26555.72
683.17	26036.12
683.31	25832.49
683.45	25802.07
683.59	25837.17
683.72	25727.17
683.86	25755.26
684.00	25792.70
684.13	25610.14
684.27	25694.40
684.41	25462.69
684.55	25205.23
684.68	25273.10
684.82	25125.65
684.96	25050.75
685.09	25008.62
685.23	24816.70
685.37	24760.53
685.50	24905.64
685.64	24580.31
685.78	24467.96
685.91	24547.54
686.05	24100.50
686.19	24194.12
686.32	24243.27
686.46	23810.27
686.60	23559.83
686.73	23433.44
686.87	23377.27
687.01	23220.45
687.14	23026.19
687.28	23110.45
687.42	23358.55
687.55	23377.27
687.69	23136.20
687.82	23119.81
687.96	23161.94
688.10	23058.96
688.23	22810.86
688.37	22590.85
688.50	22590.85
688.64	22677.45
688.78	22590.85
688.91	22869.37
689.05	22483.19
689.18	22211.68
689.32	21984.65
689.46	21776.34
689.59	22104.02
689.73	22260.84
689.86	22026.78
690.00	21818.47
690.13	22012.74
690.27	21912.10
690.41	21586.76
690.54	21270.79
690.68	21067.16
690.81	21315.26
690.95	21785.71
691.08	21298.88
691.22	21200.57
691.35	21383.13
691.49	21390.16
691.62	21200.57
691.76	20872.90
691.89	20699.70
692.03	20620.12
692.16	20418.83
692.30	20444.58
692.43	20388.41
692.57	20168.40
692.70	20407.13
692.84	20301.81
692.97	20025.62
693.11	19910.94
693.24	19997.54
693.38	19768.16
693.51	19782.21
693.65	19903.92
693.78	19793.91
693.92	19747.10
694.05	19653.48
694.19	19494.32
694.32	19255.59
694.45	19260.27
694.59	19005.15
694.72	18810.89
694.86	18927.91
694.99	19012.17
695.13	19028.56
695.26	18726.63
695.39	19030.90
695.53	19035.58
695.66	18946.64
695.80	18593.22
695.93	18469.17
696.07	18515.98
696.20	18473.85
696.33	18281.92
696.47	18527.68
696.60	17877.01
696.73	18029.15
696.87	17994.04
697.00	17855.95
697.14	17914.46
697.27	17701.47
697.40	17628.92
697.54	17687.43
697.67	17334.01
697.80	17570.40
697.94	17291.88
698.07	17097.61
698.21	16893.99
698.34	16992.29
698.47	16812.07
698.61	16690.36
698.74	16805.05
698.87	16886.97
699.01	16425.88
699.14	16236.30
699.27	16402.47
699.40	16238.64
699.54	16210.55
699.67	16168.42
699.80	16341.62
699.94	16163.74
700.07	16173.10
700.20	16128.63
700.34	16133.31
700.47	16224.59
700.60	16212.89
700.73	16053.73
700.87	15850.11
701.00	15857.13
701.13	15704.99
701.26	15470.94
701.40	15358.60
701.53	15370.30
701.66	15309.44
701.79	15129.22
701.93	15183.06
702.06	15051.99
702.19	14956.02
702.32	15108.16
702.46	14899.85
702.59	14789.85
702.72	14806.23
702.85	14953.68
702.99	14771.12
703.12	14476.21
703.25	14548.77
703.38	14366.21
703.51	14457.49
703.65	14370.89
703.78	14530.05
703.91	14244.50
704.04	13991.72
704.17	14083.00
704.31	14347.48
704.44	14045.55
704.57	14052.58
704.70	13825.54
704.83	13584.47
704.96	13762.35
705.10	13771.71
705.23	13713.20
>>>>>End Processed Spectral Data<<<<<
