SpectraSuite Data File
++++++++++++++++++++++++++++++++++++
Date: Fri Oct 25 10:47:47 EDT 2013
User: price-jones
Dark Spectrum Present: No
Reference Spectrum Present: No
Number of Sampled Component Spectra: 1
Spectrometers: USB2+H05261
Integration Time (usec): 100000 (USB2+H05261)
Spectra Averaged: 1 (USB2+H05261)
Boxcar Smoothing: 0 (USB2+H05261)
Correct for Electrical Dark: No (USB2+H05261)
Strobe/Lamp Enabled: No (USB2+H05261)
Correct for Detector Non-linearity: No (USB2+H05261)
Correct for Stray Light: No (USB2+H05261)
Number of Pixels in Processed Spectrum: 2048
>>>>>Begin Processed Spectral Data<<<<<
365.73	102.98
365.92	102.98
366.12	102.98
366.32	100.64
366.52	91.28
366.72	56.17
366.91	21.06
367.11	0.00
367.31	0.00
367.51	44.47
367.70	25.75
367.90	81.92
368.10	86.60
368.30	81.92
368.49	16.38
368.69	23.41
368.89	37.45
369.09	60.85
369.28	91.28
369.48	0.00
369.68	117.03
369.87	107.66
370.07	102.98
370.27	180.22
370.47	175.54
370.66	418.96
370.86	407.25
371.06	489.17
371.25	486.83
371.45	444.70
371.65	400.23
371.84	491.51
372.04	440.02
372.24	528.96
372.44	484.49
372.63	472.79
372.83	550.03
373.03	472.79
373.22	521.94
373.42	517.26
373.62	561.73
373.81	589.82
374.01	573.43
374.21	592.16
374.40	500.87
374.60	575.77
374.79	514.92
374.99	507.90
375.19	613.22
375.38	571.09
375.58	482.15
375.78	561.73
375.97	568.75
376.17	667.05
376.37	615.56
376.56	578.11
376.76	500.87
376.95	557.05
377.15	636.63
377.35	603.86
377.54	587.47
377.74	636.63
377.93	589.82
378.13	622.58
378.33	573.43
378.52	617.90
378.72	648.33
378.91	653.01
379.11	587.47
379.31	617.90
379.50	650.67
379.70	660.03
379.89	662.37
380.09	702.16
380.28	631.94
380.48	657.69
380.68	610.88
380.87	603.86
381.07	741.95
381.26	704.50
381.46	662.37
381.65	725.57
381.85	622.58
382.04	676.41
382.24	681.10
382.43	671.73
382.63	699.82
382.83	697.48
383.02	765.36
383.22	643.65
383.41	669.39
383.61	648.33
383.80	763.01
384.00	880.04
384.19	765.36
384.39	751.31
384.58	805.14
384.78	650.67
384.97	779.40
385.17	774.72
385.36	725.57
385.56	746.63
385.75	791.10
385.95	763.01
386.14	784.08
386.34	739.61
386.53	732.59
386.72	744.29
386.92	833.23
387.11	847.27
387.31	940.90
387.50	887.06
387.70	779.40
387.89	793.44
388.09	837.91
388.28	896.43
388.48	915.15
388.67	826.21
388.86	978.34
389.06	910.47
389.25	898.77
389.45	933.87
389.64	976.00
389.84	943.24
390.03	849.61
390.22	919.83
390.42	840.25
390.61	894.08
390.81	976.00
391.00	987.71
391.19	940.90
391.39	990.05
391.58	1032.18
391.78	910.47
391.97	994.73
392.16	919.83
392.36	1050.90
392.55	954.94
392.75	966.64
392.94	968.98
393.13	983.02
393.33	957.28
393.52	999.41
393.71	933.87
393.91	1039.20
394.10	1034.52
394.29	1034.52
394.49	1071.97
394.68	1064.94
394.88	1151.54
395.07	1200.69
395.26	1118.78
395.46	1142.18
395.65	1247.51
395.84	1151.54
396.04	1165.59
396.23	1135.16
396.42	1095.37
396.62	1093.03
396.81	1109.41
397.00	1174.95
397.19	1090.69
397.39	1266.23
397.58	1235.80
397.77	1217.08
397.97	1233.46
398.16	1221.76
398.35	1343.47
398.55	1352.83
398.74	1350.49
398.93	1352.83
399.12	1329.42
399.32	1345.81
399.51	1409.00
399.70	1366.87
399.90	1397.30
400.09	1399.64
400.28	1455.81
400.47	1406.66
400.67	1394.96
400.86	1507.30
401.05	1432.41
401.24	1528.37
401.44	1364.53
401.63	1521.35
401.82	1507.30
402.01	1425.39
402.21	1430.07
402.40	1528.37
402.59	1558.80
402.78	1502.62
402.97	1596.25
403.17	1593.90
403.36	1565.82
403.55	1675.82
403.74	1617.31
403.93	1671.14
404.13	1619.65
404.32	1645.40
404.51	1689.87
404.70	1799.87
404.89	1734.34
405.09	1668.80
405.28	1748.38
405.47	1750.72
405.66	1788.17
405.85	1741.36
406.05	1729.66
406.24	1781.15
406.43	1839.66
406.62	1970.73
406.81	1879.45
407.00	1893.49
407.20	1792.85
407.39	1930.94
407.58	1975.41
407.77	1984.77
407.96	1907.54
408.15	1912.22
408.34	2054.99
408.54	1940.30
408.73	2052.65
408.92	2022.22
409.11	2064.35
409.30	1984.77
409.49	2005.84
409.68	2038.61
409.87	2097.12
410.07	2092.44
410.26	2087.76
410.45	2031.58
410.64	2216.49
410.83	2115.84
411.02	2136.91
411.21	2298.41
411.40	2209.47
411.59	2244.57
411.78	2246.91
411.98	2204.78
412.17	2342.88
412.36	2321.81
412.55	2359.26
412.74	2417.77
412.93	2473.95
413.12	2342.88
413.31	2541.82
413.50	2504.37
413.69	2544.16
413.88	2642.46
414.07	2590.97
414.26	2693.96
414.45	2665.87
414.64	2698.64
414.83	2766.51
415.02	2658.85
415.22	2691.62
415.41	2719.70
415.60	2780.56
415.79	2836.73
415.98	2789.92
416.17	2773.53
416.36	2801.62
416.55	2876.52
416.74	2789.92
416.93	3019.29
417.12	3033.33
417.31	2991.20
417.50	3005.25
417.69	3005.25
417.88	3042.70
418.07	3007.59
418.26	3098.87
418.45	3187.81
418.64	3337.60
418.83	3180.79
419.02	3162.06
419.21	3243.98
419.39	3304.84
419.58	3126.96
419.77	3267.39
419.96	3157.38
420.15	3293.13
420.34	3194.83
420.53	3314.20
420.72	3440.59
420.91	3419.52
421.10	3346.97
421.29	3431.23
421.48	3379.73
421.67	3400.80
421.86	3438.25
422.05	3389.10
422.24	3440.59
422.43	3428.88
422.61	3529.53
422.80	3471.01
422.99	3508.46
423.18	3492.08
423.37	3562.30
423.56	3538.89
423.75	3421.86
423.94	3391.44
424.13	3227.60
424.32	3361.01
424.50	3599.74
424.69	3613.79
424.88	3564.64
425.07	3503.78
425.26	3478.04
425.45	3496.76
425.64	3527.19
425.83	3571.66
426.01	3723.79
426.20	3672.30
426.39	3534.21
426.58	3599.74
426.77	3543.57
426.96	3562.30
427.15	3524.85
427.33	3632.51
427.52	3674.64
427.71	3716.77
427.90	3772.94
428.09	3798.69
428.28	3730.81
428.46	3660.60
428.65	3749.54
428.84	4009.34
429.03	3887.63
429.22	3801.03
429.40	3810.39
429.59	3805.71
429.78	3691.02
429.97	3543.57
430.16	3641.87
430.34	3618.47
430.53	3936.78
430.72	3899.33
430.91	3915.72
431.10	3967.21
431.28	4100.62
431.47	4065.51
431.66	4109.98
431.85	4067.85
432.03	4166.15
432.22	4264.46
432.41	4252.75
432.60	4161.47
432.79	4224.67
432.97	4283.18
433.16	4266.80
433.35	4189.56
433.54	4056.15
433.72	4252.75
433.91	4245.73
434.10	4461.06
434.28	4341.69
434.47	4355.74
434.66	4547.66
434.85	4496.17
435.03	4582.77
435.22	4461.06
435.41	4498.51
435.59	4435.32
435.78	4695.11
435.97	4587.45
436.16	4589.79
436.34	4638.94
436.53	4437.66
436.72	4748.95
436.90	4545.32
437.09	4643.62
437.28	4589.79
437.46	4704.48
437.65	4695.11
437.84	4660.01
438.02	4699.80
438.21	4737.24
438.40	4697.46
438.58	4784.06
438.77	4936.19
438.96	4887.04
439.14	5081.30
439.33	4999.38
439.52	5114.07
439.70	5146.84
439.89	5156.20
440.08	5184.29
440.26	5128.11
440.45	5149.18
440.63	5320.04
440.82	5385.57
441.01	5263.86
441.19	5458.13
441.38	5554.09
441.57	5296.63
441.75	5434.72
441.94	5640.69
442.12	5806.87
442.31	5811.55
442.50	5645.37
442.68	5664.10
442.87	5767.08
443.05	5659.42
443.24	5830.27
443.43	5940.28
443.61	5809.21
443.80	5809.21
443.98	5701.54
444.17	5671.12
444.35	5757.72
444.54	5863.04
444.73	5820.91
444.91	5912.19
445.10	5940.28
445.28	5879.43
445.47	5783.46
445.65	5928.58
445.84	5998.79
446.02	6045.60
446.21	5774.10
446.39	5853.68
446.58	6003.47
446.77	5959.00
446.95	5867.72
447.14	6167.31
447.32	6162.63
447.51	5907.51
447.69	5954.32
447.88	5973.05
448.06	6010.50
448.25	6038.58
448.43	6094.76
448.62	6115.82
448.80	5966.03
448.99	6190.72
449.17	6305.40
449.36	6132.20
449.54	6230.51
449.73	6375.62
449.91	6448.18
450.10	6338.17
450.28	6373.28
450.46	6373.28
450.65	6485.62
450.83	6317.11
451.02	6401.37
451.20	6523.07
451.39	6506.69
451.57	6457.54
451.76	6338.17
451.94	6513.71
452.13	6527.75
452.31	6623.72
452.49	6342.85
452.68	6483.28
452.86	6551.16
453.05	6537.12
453.23	6619.04
453.42	6530.09
453.60	6408.39
453.78	6621.38
453.97	6588.61
454.15	6588.61
454.34	6588.61
454.52	6633.08
454.70	6675.21
454.89	6806.28
455.07	6841.39
455.26	6745.42
455.44	6796.92
455.62	6855.43
455.81	7049.69
455.99	6867.13
456.17	6927.99
456.36	7047.35
456.54	6981.82
456.73	7323.54
456.91	7283.75
457.09	7243.96
457.28	7428.86
457.46	7232.26
457.64	7407.80
457.83	7302.47
458.01	7208.85
458.19	7353.96
458.38	7368.01
458.56	7417.16
458.74	7449.93
458.93	7339.92
459.11	7445.24
459.29	7351.62
459.48	7531.84
459.66	7623.12
459.84	7639.51
460.03	7693.34
460.21	7623.12
460.39	7719.09
460.57	7793.98
460.76	7592.70
460.94	7843.14
461.12	7878.24
461.31	7929.74
461.49	7775.26
461.67	7768.24
461.85	7950.80
462.04	7831.43
462.22	8285.50
462.40	8016.33
462.59	8021.02
462.77	7899.31
462.95	7953.14
463.13	8060.80
463.32	8077.19
463.50	8154.43
463.68	8320.60
463.86	8184.85
464.05	8259.75
464.23	8042.08
464.41	8374.44
464.59	7894.63
464.78	8294.86
464.96	8222.30
465.14	8278.47
465.32	8271.45
465.50	8351.03
465.69	8519.55
465.87	8470.40
466.05	8329.97
466.23	8393.16
466.41	8358.05
466.60	8573.38
466.78	8318.26
466.96	8383.80
467.14	8313.58
467.32	8718.50
467.51	8486.78
467.69	8519.55
467.87	8414.23
468.05	8552.32
468.23	8409.54
468.41	8510.19
468.60	8596.79
468.78	8674.03
468.96	8526.57
469.14	8816.80
469.32	9046.17
469.50	8493.80
469.69	8861.27
469.87	8987.66
470.05	8901.06
470.23	8826.16
470.41	8777.01
470.59	9085.96
470.77	9083.62
470.95	9055.53
471.14	9294.27
471.32	8830.84
471.50	9348.10
471.68	9191.28
471.86	9504.92
472.04	9305.97
472.22	9633.64
472.40	9214.69
472.58	9357.46
472.77	9488.53
472.95	9722.59
473.13	9804.50
473.31	9444.06
473.49	9523.64
473.67	9802.16
473.85	9762.37
474.03	9940.26
474.21	9818.55
474.39	10150.90
474.57	10031.54
474.75	10068.98
474.93	10012.81
475.12	10129.84
475.30	10345.17
475.48	10401.34
475.66	10225.80
475.84	10232.82
476.02	10513.69
476.20	10427.09
476.38	10707.95
476.56	10806.25
476.74	10946.69
476.92	10487.94
477.10	10782.85
477.28	11094.14
477.46	11143.29
477.64	10970.09
477.82	11147.97
478.00	11265.00
478.18	11424.15
478.36	11576.29
478.54	11796.30
478.72	11609.06
478.90	11756.51
479.08	11845.45
479.26	11819.71
479.44	12065.46
479.62	12051.42
479.80	12163.76
479.98	12290.15
480.16	12549.95
480.34	12297.17
480.52	12809.75
480.70	12575.70
480.88	12418.88
481.06	12655.28
481.24	12603.78
481.41	12835.50
481.59	13240.41
481.77	13039.12
481.95	13090.62
482.13	13247.43
482.31	13268.50
482.49	13364.46
482.67	13472.12
482.85	13701.50
483.03	13783.41
483.21	13895.76
483.39	14363.87
483.57	14047.90
483.74	14209.39
483.92	14668.14
484.10	14232.80
484.28	14490.26
484.46	14689.20
484.64	14871.76
484.82	14600.26
485.00	14771.12
485.18	14890.49
485.35	15225.18
485.53	15185.40
485.71	14993.47
485.89	15440.51
486.07	15330.51
486.25	15440.51
486.43	15810.32
486.61	15712.02
486.78	16042.03
486.96	16093.52
487.14	16374.39
487.32	16058.42
487.50	16568.65
487.68	16688.02
487.85	16821.43
488.03	16957.18
488.21	17144.42
488.39	17207.62
488.57	17172.51
488.75	17486.14
488.92	17802.11
489.10	17947.23
489.28	17752.96
489.46	18085.32
489.64	17891.06
489.81	18251.50
489.99	18251.50
490.17	18317.03
490.35	18726.63
490.53	18672.79
490.70	18845.99
490.88	18862.38
491.06	19073.03
491.24	19147.92
491.41	19026.21
491.59	19058.98
491.77	19185.37
491.95	19585.60
492.13	19620.71
492.30	19716.67
492.48	19840.72
492.66	20004.56
492.84	20255.00
493.01	20453.94
493.19	20121.59
493.37	20376.70
493.54	20418.83
493.72	20631.82
493.90	20695.02
494.08	21139.72
494.25	21387.82
494.43	21053.12
494.61	21411.22
494.79	21465.05
494.96	21628.89
495.14	21329.30
495.32	21823.16
495.49	21612.51
495.67	21991.67
495.85	22047.85
496.02	22478.50
496.20	22501.91
496.38	22490.21
496.55	22677.45
496.73	22796.82
496.91	22443.40
497.09	22665.75
497.26	23145.56
497.44	23384.29
497.62	22881.08
497.79	23372.59
497.97	23641.75
498.14	23578.56
498.32	23988.15
498.50	23513.02
498.67	24191.78
498.85	23971.77
499.03	24343.91
499.20	23758.78
499.38	24224.54
499.56	24332.21
499.73	24463.28
499.91	24479.66
500.08	24779.25
500.26	24390.72
500.44	24989.90
500.61	24641.16
500.79	24732.44
500.97	25067.14
501.14	25333.96
501.32	25027.35
501.49	24821.38
501.67	24945.43
501.84	25415.88
502.02	25333.96
502.20	25862.92
502.37	25759.94
502.55	25876.96
502.72	25862.92
502.90	25902.71
503.07	26026.76
503.25	26335.71
503.43	26162.51
503.60	25851.22
503.78	26630.62
503.95	26251.45
504.13	26480.82
504.30	26651.68
504.48	26579.12
504.65	27030.85
504.83	27080.00
505.01	27292.99
505.18	27016.80
505.36	27335.12
505.53	27194.68
505.71	27728.33
505.88	27835.99
506.06	27524.70
506.23	27438.10
506.41	27576.19
506.58	27321.07
506.76	27718.96
506.93	28334.53
507.11	28081.75
507.28	27714.28
507.46	27990.47
507.63	28182.39
507.81	28271.33
507.98	27971.74
508.16	28613.05
508.33	28367.29
508.50	28568.58
508.68	28584.96
508.85	29125.63
509.03	28673.90
509.20	28978.17
509.38	29230.95
509.55	28903.28
509.73	29298.83
509.90	29003.92
510.08	29336.27
510.25	29331.59
510.42	29380.74
510.60	29776.30
510.77	29383.09
510.95	30157.80
511.12	29642.88
511.30	29759.91
511.47	29996.31
511.64	29986.94
511.82	30232.70
511.99	29928.43
512.17	30148.44
512.34	30022.05
512.51	30228.02
512.69	30768.68
512.86	30228.02
513.04	31040.18
513.21	30742.94
513.38	30703.15
513.56	30663.36
513.73	30712.51
513.90	30932.52
514.08	30654.00
514.25	31000.40
514.43	31119.76
514.60	31070.61
514.77	31126.78
514.95	31695.53
515.12	31262.54
515.29	31421.69
515.47	31531.70
515.64	31938.95
515.81	31791.50
515.99	31723.62
516.16	31908.52
516.33	31585.53
516.51	32156.62
516.68	31487.23
516.85	31417.01
517.03	31522.34
517.20	31672.13
517.37	32137.90
517.54	32575.58
517.72	32217.47
517.89	32081.72
518.06	32182.37
518.24	32325.14
518.41	32123.85
518.58	32711.33
518.75	32643.45
518.93	32570.90
519.10	32767.50
519.27	33008.58
519.45	33027.30
519.62	33205.18
519.79	33359.66
519.96	33151.35
520.14	33811.38
520.31	33081.13
520.48	33390.08
520.65	33551.58
520.83	33748.18
521.00	33649.88
521.17	33699.03
521.34	33715.42
521.52	34080.54
521.69	34125.01
521.86	34195.23
522.03	34270.12
522.20	33841.81
522.38	34508.86
522.55	34298.21
522.72	34672.70
522.89	34520.56
523.07	34345.02
523.24	34132.03
523.41	34803.77
523.58	34881.00
523.75	35103.35
523.92	35028.46
524.10	35000.37
524.27	35267.19
524.44	35180.59
524.61	34827.17
524.78	34988.67
524.96	35321.02
525.13	35803.17
525.30	35590.19
525.47	35950.63
525.64	35182.93
525.81	35899.14
525.98	35658.06
526.16	35372.52
526.33	35629.98
526.50	35529.33
526.67	35194.64
526.84	35086.97
527.01	35775.09
527.18	35697.85
527.36	35775.09
527.53	35899.14
527.70	36615.34
527.87	36151.91
528.04	35971.69
528.21	36105.10
528.38	35969.35
528.55	36795.56
528.72	36395.33
528.89	36687.90
529.07	36652.79
529.24	36348.52
529.41	36725.35
529.58	36290.01
529.75	36650.45
529.92	36910.25
530.09	36397.67
530.26	37425.17
530.43	37420.48
530.60	36437.46
530.77	36669.17
530.94	37242.60
531.11	37153.66
531.28	37385.38
531.46	37312.82
531.63	37439.21
531.80	37046.00
531.97	37212.18
532.14	37418.14
532.31	37511.77
532.48	37249.63
532.65	37778.59
532.82	37741.14
532.99	37771.57
533.16	37528.15
533.33	37734.12
533.50	38010.30
533.67	37944.76
533.84	37591.34
534.01	37844.12
534.18	37572.62
534.35	38227.97
534.52	37724.75
534.69	38005.62
534.86	38323.93
535.03	37930.72
535.20	38536.92
535.37	39070.56
535.54	38506.49
535.71	38356.70
535.88	38801.40
536.05	38756.93
536.22	38864.60
536.38	38543.94
536.55	38569.69
536.72	38604.80
536.89	38600.12
537.06	38700.76
537.23	38742.89
537.40	38930.13
537.57	38890.34
537.74	39065.88
537.91	39243.76
538.08	38672.67
538.25	38698.42
538.42	39091.63
538.59	39164.18
538.75	38550.96
538.92	39035.45
539.09	39093.97
539.26	39175.89
539.43	39313.98
539.60	39222.70
539.77	39576.12
539.94	39831.24
540.11	39370.15
540.28	39433.35
540.44	39393.56
540.61	39639.31
540.78	39309.30
540.95	39992.73
541.12	39849.96
541.29	39660.38
541.46	39590.16
541.62	39824.22
541.79	39901.45
541.96	39498.88
542.13	40257.21
542.30	39988.05
542.47	40311.05
542.63	39784.43
542.80	40306.37
542.97	40687.87
543.14	40673.83
543.31	40229.13
543.48	40194.02
543.64	41104.49
543.81	41008.53
543.98	40484.25
544.15	40414.03
544.32	41095.13
544.48	40994.48
544.65	40573.19
544.82	41057.68
544.99	40727.66
545.16	40959.38
545.32	40917.25
545.49	41448.55
545.66	41322.16
545.83	41385.35
546.00	41392.37
546.16	41542.17
546.33	41310.46
546.50	40854.05
546.67	41354.93
546.83	41010.87
547.00	41170.02
547.17	41127.89
547.34	41488.34
547.50	41696.64
547.67	41708.35
547.84	41556.21
548.00	41504.72
548.17	41317.48
548.34	41390.03
548.51	41504.72
548.67	41895.59
548.84	42178.79
549.01	41680.26
549.18	41635.79
549.34	41668.56
549.51	42061.77
549.68	42265.39
549.84	42047.72
550.01	42150.71
550.18	42071.13
550.34	41797.29
550.51	42307.52
550.68	41979.85
550.84	41710.69
551.01	42342.63
551.18	42113.26
551.34	42162.41
551.51	42260.71
551.68	42602.43
551.84	42218.58
552.01	42068.79
552.18	42251.35
552.34	42146.03
552.51	42625.84
552.68	42642.22
552.84	42396.46
553.01	42628.18
553.18	42190.50
553.34	42583.71
553.51	42129.64
553.67	42335.61
553.84	42747.54
554.01	43262.46
554.17	42944.15
554.34	42962.87
554.51	42717.12
554.67	43276.51
554.84	42972.24
555.00	42995.64
555.17	42607.11
555.33	42958.19
555.50	42927.77
555.67	43014.37
555.83	42820.10
556.00	43096.28
556.16	43250.76
556.33	43070.54
556.50	43026.07
556.66	43344.38
556.83	43168.84
556.99	43569.07
557.16	43381.83
557.32	43311.61
557.49	43297.57
557.65	42829.46
557.82	43318.64
557.98	43002.66
558.15	43206.29
558.32	43498.86
558.48	43318.64
558.65	43342.04
558.81	43463.75
558.98	43140.75
559.14	43449.70
559.31	43271.82
559.47	43278.85
559.64	43824.19
559.80	43753.97
559.97	43786.74
560.13	43508.22
560.30	43875.68
560.46	44109.74
560.63	43641.63
560.79	43517.58
560.96	44140.16
561.12	43728.23
561.29	43604.18
561.45	43634.61
561.61	43498.86
561.78	43824.19
561.94	43466.09
562.11	43189.91
562.27	43522.26
562.44	43756.32
562.60	44189.31
562.77	44067.61
562.93	43969.30
563.10	44149.53
563.26	43562.05
563.42	43908.45
563.59	44062.93
563.75	43805.47
563.92	44109.74
564.08	43873.34
564.24	44254.85
564.41	44072.29
564.57	43817.17
564.74	44112.08
564.90	44154.21
565.07	44498.26
565.23	44289.96
565.39	44285.28
565.56	44100.37
565.72	43793.76
565.88	43852.28
566.05	44231.44
566.21	44072.29
566.38	44222.08
566.54	43985.69
566.70	44268.89
566.87	44975.73
567.03	44123.78
567.19	44439.75
567.36	44538.05
567.52	44069.95
567.68	44601.25
567.85	44201.02
568.01	44563.80
568.17	44294.64
568.34	44575.50
568.50	44114.42
568.66	43613.54
568.83	44425.71
568.99	43814.83
569.15	44488.90
569.32	44371.88
569.48	43920.15
569.64	44376.56
569.81	44172.93
569.97	44425.71
570.13	44102.71
570.30	44133.14
570.46	44027.82
570.62	43714.19
570.78	44217.40
570.95	44126.12
571.11	44570.82
571.27	44369.54
571.43	44727.64
571.60	44662.10
571.76	44673.81
571.92	44299.32
572.09	44395.28
572.25	44203.36
572.41	44374.22
572.57	44706.57
572.74	45191.06
572.90	44465.50
573.06	44439.75
573.22	44718.28
573.38	44437.41
573.55	44493.58
573.71	44381.24
573.87	44458.48
574.03	44060.58
574.20	44247.83
574.36	44683.17
574.52	44790.83
574.68	44872.75
574.84	44919.56
575.01	44552.10
575.17	44561.46
575.33	44332.09
575.49	44425.71
575.65	45141.91
575.82	44762.75
575.98	44783.81
576.14	45212.13
576.30	44751.04
576.46	44847.00
576.62	44425.71
576.79	44334.43
576.95	44304.00
577.11	44332.09
577.27	44643.38
577.43	45013.18
577.59	44687.85
577.75	44402.30
577.92	44671.46
578.08	44713.59
578.24	44465.50
578.40	44612.95
578.56	44605.93
578.72	44947.65
578.88	45069.36
579.04	44879.77
579.21	44498.26
579.37	44065.27
579.53	44488.90
579.69	44615.29
579.85	44418.69
580.01	44648.06
580.17	44968.71
580.33	44994.46
580.49	44994.46
580.65	44774.45
580.82	44713.59
580.98	44954.67
581.14	44697.21
581.30	44765.09
581.46	44753.38
581.62	44526.35
581.78	44753.38
581.94	45118.51
582.10	45048.29
582.26	44975.73
582.42	44545.08
582.58	45102.12
582.74	44739.34
582.90	45062.33
583.06	44624.65
583.22	44844.66
583.38	45359.58
583.54	44619.97
583.70	44556.78
583.86	44921.90
584.02	44296.98
584.18	44947.65
584.34	44837.64
584.50	44788.49
584.66	44856.37
584.82	45106.80
584.98	45010.84
585.14	45055.31
585.30	44776.79
585.46	44783.81
585.62	44278.25
585.78	44847.00
585.94	44308.68
586.10	44631.68
586.26	44994.46
586.42	44968.71
586.58	44945.31
586.74	44694.87
586.90	44865.73
587.06	44626.99
587.22	44987.44
587.38	44891.48
587.54	45385.33
587.70	45015.52
587.86	44729.98
588.02	44650.40
588.18	45090.42
588.34	44985.10
588.49	44538.05
588.65	44722.96
588.81	44315.70
588.97	44690.19
589.13	44814.24
589.29	44753.38
589.45	44931.26
589.61	44708.91
589.77	45631.08
589.93	44722.96
590.08	44711.25
590.24	44884.45
590.40	45031.91
590.56	44835.30
590.72	45497.67
590.88	44926.58
591.04	45207.45
591.20	45179.36
591.35	45010.84
591.51	45401.71
591.67	44964.03
591.83	45064.67
591.99	45214.47
592.15	44889.13
592.31	44989.78
592.46	44605.93
592.62	45478.95
592.78	45158.30
592.94	45167.66
593.10	45137.23
593.26	45043.61
593.41	45064.67
593.57	44898.50
593.73	44734.66
593.89	45308.09
594.05	45067.02
594.20	44933.60
594.36	45261.28
594.52	45537.46
594.68	45127.87
594.84	45181.70
594.99	45387.67
595.15	44947.65
595.31	45577.25
595.47	45488.31
595.62	45223.83
595.78	45425.12
595.94	45373.63
596.10	45696.62
596.25	45429.80
596.41	45244.90
596.57	45184.04
596.73	45052.97
596.88	44634.02
597.04	44987.44
597.20	45429.80
597.36	45275.32
597.51	45193.40
597.67	45542.14
597.83	45331.50
597.99	45603.00
598.14	45488.31
598.30	45495.33
598.46	45258.94
598.61	44999.14
598.77	44900.84
598.93	45127.87
599.09	45111.49
599.24	45415.76
599.40	45244.90
599.56	45476.61
599.71	45549.17
599.87	45720.02
600.03	45385.33
600.18	45532.78
600.34	45263.62
600.50	44907.86
600.65	44942.97
600.81	45647.47
600.97	45214.47
601.12	45610.02
601.28	45488.31
601.44	45497.67
601.59	45188.72
601.75	45439.16
601.91	45003.82
602.06	45226.17
602.22	45455.54
602.37	45380.65
602.53	45059.99
602.69	45605.34
602.84	44933.60
603.00	45123.19
603.16	44949.99
603.31	45097.44
603.47	44561.46
603.62	44612.95
603.78	45158.30
603.94	45134.89
604.09	45315.11
604.25	45500.01
604.40	45095.10
604.56	44954.67
604.71	45132.55
604.87	44737.00
605.03	45223.83
605.18	45057.65
605.34	45106.80
605.49	44680.83
605.65	45495.33
605.80	45022.54
605.96	45020.20
606.12	45727.05
606.27	45633.42
606.43	45001.48
606.58	45317.45
606.74	44816.58
606.89	45099.78
607.05	45319.79
607.20	45055.31
607.36	45003.82
607.51	45354.90
607.67	45191.06
607.82	44767.43
607.98	44832.96
608.13	44949.99
608.29	44818.92
608.44	44388.26
608.60	44355.49
608.75	44582.52
608.91	44734.66
609.06	44851.69
609.22	45401.71
609.37	44540.39
609.53	45057.65
609.68	45177.02
609.84	44282.94
609.99	44952.33
610.15	44554.44
610.30	44547.42
610.46	44751.04
610.61	44713.59
610.76	44949.99
610.92	44697.21
611.07	45038.93
611.23	44402.30
611.38	44666.78
611.54	44584.86
611.69	44397.62
611.84	44832.96
612.00	44755.72
612.15	44119.10
612.31	44875.09
612.46	44374.22
612.62	44961.69
612.77	44069.95
612.92	44306.34
613.08	44449.11
613.23	44722.96
613.39	44512.31
613.54	43878.02
613.69	44065.27
613.85	44142.50
614.00	44734.66
614.15	44172.93
614.31	44919.56
614.46	44818.92
614.62	44472.52
614.77	44545.08
614.92	44329.75
615.08	44144.84
615.23	44186.97
615.38	44079.31
615.54	43999.73
615.69	44137.82
615.84	43751.63
616.00	43964.62
616.15	44388.26
616.30	44500.61
616.46	44161.23
616.61	43969.30
616.76	43885.04
616.92	43580.78
617.07	43903.77
617.22	43768.02
617.37	43906.11
617.53	44060.58
617.68	44313.36
617.83	43812.49
617.99	43854.62
618.14	43639.29
618.29	43798.44
618.45	43232.04
618.60	43601.84
618.75	43676.74
618.90	43503.54
619.06	43910.79
619.21	43709.50
619.36	43842.92
619.51	43580.78
619.67	43419.28
619.82	43456.73
619.97	44137.82
620.12	43512.90
620.28	42986.28
620.43	43000.32
620.58	43318.64
620.73	43299.91
620.89	43641.63
621.04	43285.87
621.19	43072.88
621.34	43086.92
621.49	43304.59
621.65	43000.32
621.80	43449.70
621.95	43194.59
622.10	43304.59
622.25	43185.22
622.41	42660.94
622.56	42946.49
622.71	43372.47
622.86	43264.80
623.01	42890.32
623.16	43196.93
623.32	42965.21
623.47	43217.99
623.62	43316.29
623.77	42934.79
623.92	42639.88
624.07	42213.90
624.23	42665.63
624.38	42997.98
624.53	42480.72
624.68	42806.06
624.83	42782.65
624.98	42761.59
625.13	42555.62
625.29	42649.24
625.44	42600.09
625.59	42607.11
625.74	42719.46
625.89	42178.79
626.04	41865.16
626.19	42738.18
626.34	42188.16
626.49	42188.16
626.65	42604.77
626.80	42990.96
626.95	42618.81
627.10	42183.48
627.25	41872.18
627.40	41762.18
627.55	41682.60
627.70	41933.04
627.85	41975.17
628.00	41942.40
628.15	42094.53
628.30	41933.04
628.45	42761.59
628.60	41865.16
628.76	42513.49
628.91	42309.86
629.06	41933.04
629.21	42122.62
629.36	41937.72
629.51	41830.05
629.66	41820.69
629.81	41638.13
629.96	41322.16
630.11	41837.08
630.26	42007.94
630.41	41949.42
630.56	41816.01
630.71	41471.95
630.86	41890.91
631.01	41216.83
631.16	41565.57
631.31	41315.14
631.46	41287.05
631.61	41439.18
631.76	41214.49
631.91	41549.19
632.06	41549.19
632.21	41729.41
632.36	41380.67
632.51	41537.49
632.66	41408.76
632.81	40851.71
632.96	41106.83
633.10	41113.85
633.25	41158.32
633.40	41228.54
633.55	41230.88
633.70	41113.85
633.85	41361.95
634.00	41191.09
634.15	40921.93
634.30	41256.62
634.45	41308.11
634.60	41170.02
634.75	41127.89
634.90	40907.88
635.05	40928.95
635.19	41022.57
635.34	41284.71
635.49	41179.39
635.64	40495.95
635.79	40554.46
635.94	41139.60
636.09	40662.13
636.24	40730.00
636.39	40657.45
636.53	40559.14
636.68	40549.78
636.83	40556.80
636.98	40746.39
637.13	40222.11
637.28	40622.34
637.43	40449.14
637.57	40872.78
637.72	40807.24
637.87	40624.68
638.02	40058.27
638.17	40575.53
638.32	40203.38
638.46	40219.77
638.61	40451.48
638.76	40020.82
638.91	40334.45
639.06	40297.00
639.20	40306.37
639.35	40336.79
639.50	39730.59
639.65	40451.48
639.80	40140.19
639.94	39978.69
640.09	40247.85
640.24	40100.40
640.39	39552.71
640.54	39536.33
640.68	39739.96
640.83	39962.31
640.98	40112.10
641.13	39878.05
641.27	40105.08
641.42	39533.99
641.57	40744.05
641.72	39835.92
641.86	39601.86
642.01	39859.32
642.16	39367.81
642.31	39473.13
642.45	39681.44
642.60	39531.65
642.75	39271.85
642.90	39409.94
643.04	39470.79
643.19	39615.91
643.34	39377.17
643.48	39552.71
643.63	39435.69
643.78	39409.94
643.93	39012.05
644.07	38831.83
644.22	39459.09
644.37	39236.74
644.51	38808.42
644.66	39498.88
644.81	39063.54
644.95	39571.44
645.10	39171.21
645.25	38897.36
645.39	39358.45
645.54	39578.46
645.69	39037.80
645.83	38361.38
645.98	38923.11
646.13	39700.17
646.27	39302.28
646.42	39461.43
646.57	39541.01
646.71	39019.07
646.86	38976.94
647.00	39260.15
647.15	38990.98
647.30	39358.45
647.44	38548.62
647.59	38803.74
647.74	38897.36
647.88	38656.29
648.03	38920.77
648.17	38541.60
648.32	38506.49
648.47	38457.34
648.61	38359.04
648.76	38918.43
648.90	38703.10
649.05	38824.81
649.20	38761.61
649.34	38761.61
649.49	38792.04
649.63	38635.22
649.78	38361.38
649.92	38031.36
650.07	38766.29
650.21	38487.77
650.36	38281.80
650.51	38410.53
650.65	38934.81
650.80	38824.81
650.94	38536.92
651.09	38363.72
651.23	38478.41
651.38	38464.36
651.52	37998.60
651.67	38387.13
651.81	37968.17
651.96	38129.67
652.10	37722.41
652.25	37799.65
652.39	37904.98
652.54	38286.48
652.68	37830.08
652.83	38305.21
652.97	38089.88
653.12	37701.35
653.26	37970.51
653.41	37813.70
653.55	37708.37
653.70	37336.23
653.84	37495.38
653.99	37727.10
654.13	37600.71
654.27	37853.48
654.42	37116.22
654.56	37640.50
654.71	37769.22
654.85	37612.41
655.00	37624.11
655.14	37404.10
655.29	37177.07
655.43	37317.50
655.57	37184.09
655.72	37053.02
655.86	37247.29
656.01	37284.73
656.15	37165.37
656.30	37020.25
656.44	36603.64
656.58	37261.33
656.73	36978.12
656.87	36694.92
657.01	36683.22
657.16	37001.53
657.30	36388.31
657.45	36748.75
657.59	36570.87
657.73	37179.41
657.88	36950.04
658.02	36547.47
658.16	36713.64
658.31	37251.97
658.45	37001.53
658.60	36458.52
658.74	36924.29
658.88	36985.15
659.03	36610.66
659.17	36264.26
659.31	36400.01
659.46	36521.72
659.60	36650.45
659.74	36294.69
659.89	36245.54
660.03	36390.65
660.17	36362.56
660.32	36526.40
660.46	36657.47
660.60	36669.17
660.74	36203.41
660.89	35992.76
661.03	36187.02
661.17	36304.05
661.32	35431.03
661.46	36006.80
661.60	35995.10
661.74	35552.74
661.89	36058.29
662.03	35828.92
662.17	35370.18
662.31	35655.72
662.46	35526.99
662.60	35564.44
662.74	35323.36
662.88	35505.93
663.03	35477.84
663.17	35751.68
663.31	35232.08
663.45	35377.20
663.60	34836.53
663.74	35040.16
663.88	34885.68
664.02	34974.63
664.17	35129.10
664.31	34899.73
664.45	34621.20
664.59	35421.67
664.73	34850.58
664.88	35201.66
665.02	34857.60
665.16	34976.97
665.30	35035.48
665.44	34682.06
665.59	34546.31
665.73	34242.04
665.87	34157.78
666.01	34190.55
666.15	34347.36
666.29	33827.76
666.44	34724.19
666.58	34347.36
666.72	34190.55
666.86	34157.78
667.00	34602.48
667.14	34134.37
667.28	33755.21
667.43	33483.70
667.57	33874.57
667.71	33663.93
667.85	33673.29
667.99	33579.67
668.13	33305.82
668.27	33862.87
668.41	33752.87
668.56	33642.86
668.70	33453.28
668.84	33605.41
668.98	32959.42
669.12	33383.06
669.26	33553.92
669.40	32762.82
669.54	32809.63
669.68	33394.76
669.82	33053.05
669.96	32713.67
670.10	32601.32
670.25	32950.06
670.39	32486.64
670.53	32690.26
670.67	32697.28
670.81	32659.84
670.95	32629.41
671.09	32804.95
671.23	32369.61
671.37	32465.57
671.51	32669.20
671.65	32404.72
671.79	32154.28
671.93	32123.85
672.07	32514.72
672.21	32086.40
672.35	31597.23
672.49	31782.13
672.63	32245.56
672.77	31845.33
672.91	31878.10
673.05	32290.03
673.19	31452.12
673.33	31314.03
673.47	31445.10
673.61	31297.64
673.75	31321.05
673.89	30984.01
674.03	30745.28
674.17	31096.36
674.31	31131.47
674.45	30969.97
674.59	30890.39
674.73	31152.53
674.87	31035.50
675.01	30747.62
675.15	31016.78
675.29	30789.75
675.43	30527.61
675.56	30630.59
675.70	30450.37
675.84	30459.73
675.98	29427.56
676.12	30213.98
676.26	29968.22
676.40	29900.34
676.54	30022.05
676.68	29755.23
676.82	29476.71
676.96	29834.81
677.10	29301.17
677.23	29518.84
677.37	29675.65
677.51	29350.32
677.65	29221.59
677.79	29310.53
677.93	29074.13
678.07	29151.37
678.21	28739.44
678.34	28711.35
678.48	28566.24
678.62	28781.57
678.76	28790.93
678.90	28121.54
679.04	28285.37
679.18	28505.38
679.31	27957.70
679.45	27793.86
679.59	27999.83
679.73	27850.03
679.87	27971.74
680.00	27913.23
680.14	27522.36
680.28	27683.86
680.42	27632.36
680.56	27321.07
680.70	27459.16
680.83	27386.61
680.97	27098.72
681.11	27084.68
681.25	27236.81
681.39	26789.77
681.52	26813.18
681.66	27271.92
681.80	26670.40
681.94	26815.52
682.07	26536.99
682.21	26441.03
682.35	26197.62
682.49	26417.63
682.62	26359.11
682.76	26394.22
682.90	25891.01
683.04	26096.97
683.17	25951.86
683.31	25706.10
683.45	26167.19
683.59	25825.47
683.72	25511.84
683.86	25507.16
684.00	25404.17
684.13	25238.00
684.27	25366.73
684.41	25151.40
684.55	25249.70
684.68	25149.06
684.82	25025.01
684.96	24814.36
685.09	25078.84
685.23	24739.46
685.37	24500.73
685.50	24318.17
685.64	24662.22
685.78	24147.31
685.91	24252.63
686.05	24037.30
686.19	23814.95
686.32	24287.74
686.46	23765.80
686.60	23882.83
686.73	23367.91
686.87	22904.48
687.01	23737.71
687.14	23201.73
687.28	23124.49
687.42	23065.98
687.55	22888.10
687.69	23021.51
687.82	23098.75
687.96	23330.46
688.10	22831.93
688.23	22817.88
688.37	22218.71
688.50	22466.80
688.64	22537.02
688.78	22338.07
688.91	22204.66
689.05	22352.12
689.18	21919.12
689.32	21762.30
689.46	22036.14
689.59	22127.42
689.73	22235.09
689.86	22104.02
690.00	21591.44
690.13	21783.37
690.27	21214.62
690.41	21373.77
690.54	21408.88
690.68	21123.33
690.81	21282.49
690.95	20828.43
691.08	20971.20
691.22	21071.84
691.35	21083.55
691.49	20936.09
691.62	20802.68
691.76	20716.08
691.89	20739.49
692.03	20657.57
692.16	20554.58
692.30	20365.00
692.43	20486.71
692.57	19962.43
692.70	20287.76
692.84	20339.26
692.97	19779.87
693.11	19824.34
693.24	19723.69
693.38	19747.10
693.51	19325.80
693.65	19836.04
693.78	19421.77
693.92	19908.60
694.05	19253.25
694.19	19295.38
694.32	19145.58
694.45	19140.90
694.59	19002.81
694.72	19136.22
694.86	18967.70
694.99	18621.30
695.13	18785.14
695.26	18333.42
695.39	18310.01
695.53	18686.84
695.66	18508.96
695.80	18427.04
695.93	17860.63
696.07	18209.37
696.20	18249.16
696.33	18134.47
696.47	18122.77
696.60	18146.17
696.73	17752.96
696.87	18005.74
697.00	17886.37
697.14	17666.36
697.27	17638.28
697.40	17076.55
697.54	17256.77
697.67	17310.60
697.80	17350.39
697.94	17139.74
698.07	16844.84
698.21	17102.29
698.34	17298.90
698.47	17231.02
698.61	16561.63
698.74	16470.35
698.87	16641.21
699.01	16603.76
699.14	16524.18
699.27	16231.62
699.40	16180.12
699.54	16058.42
699.67	15885.22
699.80	16329.92
699.94	16137.99
700.07	16116.93
700.20	15999.90
700.34	15880.53
700.47	15646.48
700.60	15913.30
700.73	15936.71
700.87	15712.02
701.00	15431.15
701.13	15665.21
701.26	15421.79
701.40	15337.53
701.53	15440.51
701.66	15059.01
701.79	15281.36
701.93	15115.18
702.06	15075.39
702.19	15051.99
702.32	15087.09
702.46	14853.04
702.59	15000.49
702.72	14792.19
702.85	14850.70
702.99	14824.95
703.12	14869.42
703.25	14504.30
703.38	14391.95
703.51	14443.45
703.65	13987.04
703.78	14183.65
703.91	14171.94
704.04	14129.81
704.17	14045.55
704.31	13973.00
704.44	13624.26
704.57	13619.58
704.70	13694.47
704.83	13488.51
704.96	13624.26
705.10	13591.49
705.23	13638.30
>>>>>End Processed Spectral Data<<<<<
