SpectraSuite Data File
++++++++++++++++++++++++++++++++++++
Date: Fri Oct 25 11:33:11 EDT 2013
User: price-jones
Dark Spectrum Present: No
Reference Spectrum Present: No
Number of Sampled Component Spectra: 1
Spectrometers: USB2+H05261
Integration Time (usec): 100000 (USB2+H05261)
Spectra Averaged: 1 (USB2+H05261)
Boxcar Smoothing: 0 (USB2+H05261)
Correct for Electrical Dark: No (USB2+H05261)
Strobe/Lamp Enabled: No (USB2+H05261)
Correct for Detector Non-linearity: No (USB2+H05261)
Correct for Stray Light: No (USB2+H05261)
Number of Pixels in Processed Spectrum: 2048
>>>>>Begin Processed Spectral Data<<<<<
365.73	243.42
365.92	243.42
366.12	243.42
366.32	205.97
366.52	173.20
366.72	180.22
366.91	212.99
367.11	189.58
367.31	201.29
367.51	196.60
367.70	135.75
367.90	180.22
368.10	177.88
368.30	177.88
368.49	170.86
368.69	201.29
368.89	175.54
369.09	138.09
369.28	241.08
369.48	194.26
369.68	224.69
369.87	227.03
370.07	283.20
370.27	322.99
370.47	318.31
370.66	433.00
370.86	477.47
371.06	526.62
371.25	538.32
371.45	594.50
371.65	592.16
371.84	617.90
372.04	496.19
372.24	510.24
372.44	486.83
372.63	610.88
372.83	678.76
373.03	608.54
373.22	645.99
373.42	631.94
373.62	575.77
373.81	631.94
374.01	578.11
374.21	613.22
374.40	613.22
374.60	629.60
374.79	589.82
374.99	615.56
375.19	716.20
375.38	671.73
375.58	685.78
375.78	685.78
375.97	753.65
376.17	622.58
376.37	594.50
376.56	629.60
376.76	678.76
376.95	641.31
377.15	734.93
377.35	676.41
377.54	688.12
377.74	643.65
377.93	685.78
378.13	716.20
378.33	791.10
378.52	716.20
378.72	676.41
378.91	706.84
379.11	784.08
379.31	753.65
379.50	704.50
379.70	767.70
379.89	753.65
380.09	655.35
380.28	706.84
380.48	748.97
380.68	781.74
380.87	727.91
381.07	753.65
381.26	746.63
381.46	744.29
381.65	800.46
381.85	699.82
382.04	774.72
382.24	795.78
382.43	840.25
382.63	667.05
382.83	746.63
383.02	823.87
383.22	814.51
383.41	842.59
383.61	821.53
383.80	720.88
384.00	784.08
384.19	800.46
384.39	844.93
384.58	833.23
384.78	805.14
384.97	819.19
385.17	844.93
385.36	917.49
385.56	849.61
385.75	760.67
385.95	823.87
386.14	990.05
386.34	849.61
386.53	910.47
386.72	945.58
386.92	933.87
387.11	870.68
387.31	917.49
387.50	849.61
387.70	870.68
387.89	870.68
388.09	924.51
388.28	891.74
388.48	992.39
388.67	966.64
388.86	978.34
389.06	908.13
389.25	968.98
389.45	973.66
389.64	961.96
389.84	931.53
390.03	926.85
390.22	1067.28
390.42	976.00
390.61	915.15
390.81	1041.54
391.00	999.41
391.19	987.71
391.39	968.98
391.58	1029.84
391.78	1008.77
391.97	994.73
392.16	997.07
392.36	1163.25
392.55	1067.28
392.75	1093.03
392.94	1083.67
393.13	1062.60
393.33	1046.22
393.52	1086.01
393.71	1036.86
393.91	1146.86
394.10	1104.73
394.29	1074.31
394.49	1146.86
394.68	1109.41
394.88	1097.71
395.07	1151.54
395.26	1090.69
395.46	1104.73
395.65	1170.27
395.84	1249.85
396.04	1179.63
396.23	1137.50
396.42	1203.04
396.62	1254.53
396.81	1231.12
397.00	1177.29
397.19	1263.89
397.39	1322.40
397.58	1291.98
397.77	1277.93
397.97	1287.29
398.16	1235.80
398.35	1270.91
398.55	1303.68
398.74	1275.59
398.93	1284.95
399.12	1261.55
399.32	1338.79
399.51	1329.42
399.70	1413.68
399.90	1409.00
400.09	1355.17
400.28	1416.02
400.47	1341.13
400.67	1401.98
400.86	1394.96
401.05	1404.32
401.24	1441.77
401.44	1425.39
401.63	1399.64
401.82	1425.39
402.01	1462.83
402.21	1561.14
402.40	1544.75
402.59	1577.52
402.78	1481.56
402.97	1460.49
403.17	1530.71
403.36	1432.41
403.55	1565.82
403.74	1638.38
403.93	1607.95
404.13	1664.12
404.32	1631.35
404.51	1568.16
404.70	1664.12
404.89	1643.06
405.09	1671.14
405.28	1666.46
405.47	1671.14
405.66	1694.55
405.85	1778.81
406.05	1739.02
406.24	1764.76
406.43	1694.55
406.62	1811.57
406.81	1825.62
407.00	1762.42
407.20	1797.53
407.39	1755.40
407.58	1788.17
407.77	1872.43
407.96	1823.28
408.15	1867.75
408.34	1856.04
408.54	1921.58
408.73	1968.39
408.92	1961.37
409.11	1980.09
409.30	1998.82
409.49	1942.64
409.68	2059.67
409.87	2057.33
410.07	2043.29
410.26	2108.82
410.45	2064.35
410.64	2162.66
410.83	2111.16
411.02	2155.63
411.21	2237.55
411.40	2172.02
411.59	2228.19
411.78	2143.93
411.98	2272.66
412.17	2230.53
412.36	2349.90
412.55	2249.25
412.74	2413.09
412.93	2427.14
413.12	2462.24
413.31	2403.73
413.50	2464.58
413.69	2354.58
413.88	2420.11
414.07	2476.29
414.26	2576.93
414.45	2565.23
414.64	2605.02
414.83	2621.40
415.02	2565.23
415.22	2672.89
415.41	2626.08
415.60	2736.09
415.79	2684.59
415.98	2682.25
416.17	2808.64
416.36	2825.03
416.55	2818.00
416.74	2663.53
416.93	2848.43
417.12	2836.73
417.31	2963.12
417.50	2956.10
417.69	2916.31
417.88	2923.33
418.07	2965.46
418.26	3073.12
418.45	3033.33
418.64	2963.12
418.83	3026.31
419.02	2991.20
419.21	3148.02
419.39	3208.87
419.58	3117.59
419.77	3023.97
419.96	3199.51
420.15	3194.83
420.34	3087.17
420.53	3248.66
420.72	3311.86
420.91	3293.13
421.10	3201.85
421.29	3318.88
421.48	3159.72
421.67	3332.92
421.86	3279.09
422.05	3166.74
422.24	3272.07
422.43	3461.65
422.61	3447.61
422.80	3482.72
422.99	3452.29
423.18	3449.95
423.37	3438.25
423.56	3323.56
423.75	3386.76
423.94	3332.92
424.13	3126.96
424.32	3222.92
424.50	3557.61
424.69	3604.42
424.88	3503.78
425.07	3426.54
425.26	3445.27
425.45	3361.01
425.64	3496.76
425.83	3351.65
426.01	3513.14
426.20	3616.13
426.39	3543.57
426.58	3499.10
426.77	3391.44
426.96	3686.34
427.15	3531.87
427.33	3625.49
427.52	3676.98
427.71	3733.15
427.90	3625.49
428.09	3606.77
428.28	3613.79
428.46	3700.39
428.65	3679.32
428.84	3831.46
429.03	3829.12
429.22	3719.11
429.40	3859.54
429.59	3756.56
429.78	3660.60
429.97	3728.47
430.16	3782.31
430.34	3925.08
430.53	3990.61
430.72	3908.69
430.91	3936.78
431.10	3985.93
431.28	4025.72
431.47	4053.81
431.66	4128.70
431.85	4007.00
432.03	4182.54
432.22	4051.47
432.41	3983.59
432.60	4180.20
432.79	4102.96
432.97	4030.40
433.16	4051.47
433.35	4196.58
433.54	4231.69
433.72	4332.33
433.91	4245.73
434.10	4184.88
434.28	4166.15
434.47	4259.78
434.66	4367.44
434.85	4278.50
435.03	4271.48
435.22	4273.82
435.41	4491.49
435.59	4339.35
435.78	4397.87
435.97	4355.74
436.16	4397.87
436.34	4547.66
436.53	4517.23
436.72	4608.51
436.90	4435.32
437.09	4557.02
437.28	4458.72
437.46	4470.42
437.65	4503.19
437.84	4622.56
438.02	4685.75
438.21	4753.63
438.40	4552.34
438.58	4788.74
438.77	4910.44
438.96	4718.52
439.14	4887.04
439.33	4889.38
439.52	4919.81
439.70	4973.64
439.89	5011.09
440.08	5018.11
440.26	5088.32
440.45	4973.64
440.63	5121.09
440.82	5331.74
441.01	5071.94
441.19	5221.74
441.38	5467.49
441.57	5212.37
441.75	5348.12
441.94	5479.19
442.12	5540.05
442.31	5444.09
442.50	5418.34
442.68	5411.32
442.87	5619.63
443.05	5621.97
443.24	5600.90
443.43	5631.33
443.61	5703.89
443.80	5760.06
443.98	5488.56
444.17	5458.13
444.35	5664.10
444.54	5767.08
444.73	5727.29
444.91	5811.55
445.10	5703.89
445.28	5558.77
445.47	5540.05
445.65	5776.44
445.84	5696.86
446.02	5734.31
446.21	5675.80
446.39	5678.14
446.58	5727.29
446.77	5881.77
446.95	5593.88
447.14	5858.36
447.32	5820.91
447.51	5743.67
447.69	5729.63
447.88	5727.29
448.06	5757.72
448.25	5696.86
448.43	5856.02
448.62	5909.85
448.80	5930.92
448.99	5799.85
449.17	6019.86
449.36	6047.94
449.54	6193.06
449.73	6076.03
449.91	6106.46
450.10	6003.47
450.28	6387.32
450.46	6263.27
450.65	6153.27
450.83	6118.16
451.02	6164.97
451.20	6221.14
451.39	6218.80
451.57	6225.82
451.76	6092.41
451.94	6186.04
452.13	6392.00
452.31	6565.20
452.49	6277.32
452.68	6356.90
452.86	6392.00
453.05	6581.59
453.23	6392.00
453.42	6389.66
453.60	6326.47
453.78	6499.67
453.97	6333.49
454.15	6389.66
454.34	6410.73
454.52	6593.29
454.70	6712.66
454.89	6640.10
455.07	6612.01
455.26	6677.55
455.44	6787.55
455.62	6665.85
455.81	6729.04
455.99	6867.13
456.17	6857.77
456.36	6794.58
456.54	6944.37
456.73	6909.26
456.91	7185.44
457.09	7030.97
457.28	7218.21
457.46	7183.10
457.64	7185.44
457.83	7087.14
458.01	6991.18
458.19	7276.73
458.38	7150.34
458.56	7272.04
458.74	7243.96
458.93	7190.13
459.11	7300.13
459.29	7337.58
459.48	7445.24
459.66	7382.05
459.84	7475.67
460.03	7290.77
460.21	7541.21
460.39	7625.47
460.57	7581.00
460.76	7672.28
460.94	7630.15
461.12	7496.74
461.31	7693.34
461.49	7475.67
461.67	7597.38
461.85	7679.30
462.04	7609.08
462.22	7971.86
462.40	7698.02
462.59	8072.51
462.77	7761.22
462.95	7857.18
463.13	7838.45
463.32	7974.21
463.50	8004.63
463.68	8105.28
463.86	8046.76
464.05	7826.75
464.23	7992.93
464.41	7922.71
464.59	7784.62
464.78	8152.09
464.96	8163.79
465.14	7946.12
465.32	8088.89
465.50	8138.04
465.69	8308.90
465.87	8180.17
466.05	8201.24
466.23	8128.68
466.41	8142.72
466.60	8428.27
466.78	8119.32
466.96	8201.24
467.14	8503.17
467.32	8315.92
467.51	8411.89
467.69	8318.26
467.87	8428.27
468.05	8454.02
468.23	8428.27
468.41	8355.71
468.60	8435.29
468.78	8439.97
468.96	8468.06
469.14	8524.23
469.32	8713.81
469.50	8496.14
469.69	8697.43
469.87	8849.57
470.05	8844.88
470.23	8985.32
470.41	8795.73
470.59	8908.08
470.77	8753.60
470.95	8807.44
471.14	9116.39
471.32	8936.17
471.50	9088.30
471.68	9217.03
471.86	9214.69
472.04	9076.60
472.22	9275.54
472.40	9259.16
472.58	9280.22
472.77	9348.10
472.95	9423.00
473.13	9645.35
473.31	9497.89
473.49	9437.04
473.67	9563.43
473.85	9544.70
474.03	9806.84
474.21	9802.16
474.39	10047.92
474.57	9956.64
474.75	9909.83
474.93	9951.96
475.12	10080.69
475.30	10150.90
475.48	10244.52
475.66	10153.24
475.84	10244.52
476.02	10349.85
476.20	10406.02
476.38	10406.02
476.56	10665.82
476.74	10675.18
476.92	10572.20
477.10	10553.48
477.28	10958.39
477.46	11094.14
477.64	10874.13
477.82	11152.65
478.00	11424.15
478.18	10984.13
478.36	11265.00
478.54	11307.13
478.72	11609.06
478.90	11709.70
479.08	11714.38
479.26	11667.57
479.44	11833.75
479.62	11845.45
479.80	12191.85
479.98	12095.89
480.16	12285.47
480.34	12259.73
480.52	12418.88
480.70	12428.24
480.88	12362.71
481.06	12463.35
481.24	12514.84
481.41	12711.45
481.59	12868.27
481.77	12889.33
481.95	12952.52
482.13	13153.81
482.31	13018.06
482.49	13570.43
482.67	13532.98
482.85	13481.49
483.03	13652.34
483.21	13610.22
483.39	13919.17
483.57	13797.46
483.74	14312.38
483.92	14333.44
484.10	14295.99
484.28	14469.19
484.46	14501.96
484.64	14895.17
484.82	14941.98
485.00	14754.74
485.18	15096.46
485.35	15389.02
485.53	15253.27
485.71	15082.41
485.89	15695.63
486.07	15550.52
486.25	15695.63
486.43	15761.17
486.61	15791.59
486.78	15873.51
486.96	15791.59
487.14	16315.87
487.32	16421.20
487.50	16472.69
487.68	16545.25
487.85	16659.93
488.03	16924.41
488.21	17226.34
488.39	17128.04
488.57	17142.08
488.75	17406.56
488.92	17577.42
489.10	17659.34
489.28	17825.52
489.46	17738.92
489.64	17940.21
489.81	18284.26
489.99	18284.26
490.17	18558.11
490.35	18333.42
490.53	18831.95
490.70	18874.08
490.88	18562.79
491.06	18937.27
491.24	19253.25
491.41	19211.12
491.59	19389.00
491.77	19243.88
491.95	19632.41
492.13	19419.42
492.30	19761.14
492.48	19719.01
492.66	19981.15
492.84	20081.80
493.01	20194.14
493.19	20320.53
493.37	20453.94
493.54	20252.66
493.72	20753.53
493.90	21010.99
494.08	20884.60
494.25	21324.62
494.43	21362.07
494.61	21479.10
494.79	21710.81
494.96	21542.29
495.14	21661.66
495.32	21909.75
495.49	21923.80
495.67	21858.26
495.85	21935.50
496.02	22382.54
496.20	22415.31
496.38	22412.97
496.55	22478.50
496.73	23215.77
496.91	22934.91
497.09	23278.97
497.26	23021.51
497.44	23239.18
497.62	23058.96
497.79	23831.33
497.97	23693.24
498.14	23798.57
498.32	23960.06
498.50	23695.58
498.67	24063.05
498.85	23824.31
499.03	24322.85
499.20	24489.03
499.38	24283.06
499.56	24582.65
499.73	24797.98
499.91	25020.33
500.08	24896.28
500.26	24980.54
500.44	25135.01
500.61	25167.78
500.79	24929.05
500.97	25366.73
501.14	25511.84
501.32	25565.67
501.49	25792.70
501.67	25603.12
501.84	25558.65
502.02	26075.91
502.20	26361.45
502.37	25933.14
502.55	25898.03
502.72	26272.51
502.90	26059.52
503.07	26663.38
503.25	26419.97
503.43	26464.44
503.60	26773.39
503.78	26639.98
503.95	26270.17
504.13	26944.25
504.30	26738.28
504.48	26871.69
504.65	27323.41
504.83	27253.20
505.01	27632.36
505.18	27555.13
505.36	27800.88
505.53	27594.92
505.71	27505.98
505.88	27976.42
506.06	27236.81
506.23	28203.46
506.41	27676.83
506.58	27957.70
506.76	28121.54
506.93	28203.46
507.11	28411.76
507.28	28496.02
507.46	28570.92
507.63	28481.98
507.81	28774.55
507.98	28704.33
508.16	28807.31
508.33	28856.46
508.50	28968.81
508.68	29174.78
508.85	29371.38
509.03	29118.60
509.20	29525.86
509.38	29827.79
509.55	29804.38
509.73	29722.46
509.90	30005.67
510.08	29778.64
510.25	29635.86
510.42	29841.83
510.60	30443.35
510.77	30197.59
510.95	30593.14
511.12	30452.71
511.30	30359.09
511.47	30335.68
511.64	30071.20
511.82	30424.62
511.99	30822.51
512.17	30979.33
512.34	30934.86
512.51	31035.50
512.69	31133.81
512.86	30974.65
513.04	30838.90
513.21	31405.31
513.38	31243.81
513.56	31267.22
513.73	31229.77
513.90	31487.23
514.08	31679.15
514.25	31901.50
514.43	31978.74
514.60	31957.67
514.77	31950.65
514.95	32208.11
515.12	31604.25
515.29	31878.10
515.47	32180.03
515.64	32381.31
515.81	32376.63
515.99	32458.55
516.16	32341.52
516.33	32306.41
516.51	32856.44
516.68	32786.22
516.85	32811.97
517.03	33141.99
517.20	33137.30
517.37	32921.98
517.54	33137.30
517.72	33085.81
517.89	33305.82
518.06	32856.44
518.24	33390.08
518.41	33153.69
518.58	33322.21
518.75	33345.61
518.93	33500.09
519.10	33731.80
519.27	33542.22
519.45	34167.14
519.62	33965.85
519.79	34342.68
519.96	34433.96
520.14	34440.98
520.31	33935.43
520.48	34080.54
520.65	34567.37
520.83	34660.99
521.00	34597.80
521.17	34712.49
521.34	34525.24
521.52	35047.18
521.69	34876.32
521.86	34911.43
522.03	35484.86
522.20	35063.57
522.38	35328.05
522.55	35164.21
522.72	35318.68
522.89	35747.00
523.07	36093.40
523.24	35559.76
523.41	35665.08
523.58	35655.72
523.75	36002.12
523.92	35845.30
524.10	36259.58
524.27	36177.66
524.44	36180.00
524.61	36259.58
524.78	36222.13
524.96	36613.00
525.13	36107.44
525.30	36627.04
525.47	36723.01
525.64	36348.52
525.81	36472.57
525.98	36608.32
526.16	36762.79
526.33	36570.87
526.50	37092.81
526.67	36467.89
526.84	36854.08
527.01	37263.67
527.18	37165.37
527.36	37275.37
527.53	36863.44
527.70	37493.04
527.87	37626.45
528.04	37296.44
528.21	37530.49
528.38	37439.21
528.55	37792.63
528.72	37359.63
528.89	37708.37
529.07	37331.54
529.24	37467.30
529.41	37998.60
529.58	38050.09
529.75	37745.82
529.92	38277.12
530.09	37596.03
530.26	37713.05
530.43	38394.15
530.60	37881.57
530.77	37879.23
530.94	38459.68
531.11	38176.48
531.28	38223.29
531.46	38499.47
531.63	38897.36
531.80	37900.29
531.97	38794.38
532.14	38593.09
532.31	38951.20
532.48	38913.75
532.65	38878.64
532.82	38705.44
532.99	39129.08
533.16	39061.20
533.33	39119.71
533.50	39505.90
533.67	39299.94
533.84	38628.20
534.01	39299.94
534.18	39360.79
534.35	39840.60
534.52	39313.98
534.69	39962.31
534.86	39772.72
535.03	39632.29
535.20	39431.01
535.37	39922.52
535.54	40098.06
535.71	39772.72
535.88	39824.22
536.05	39913.16
536.22	40081.67
536.38	40133.17
536.55	40212.74
536.72	39835.92
536.89	40088.70
537.06	40657.45
537.23	40498.29
537.40	40362.54
537.57	40367.22
537.74	40177.64
537.91	40701.92
538.08	40327.43
538.25	40158.91
538.42	40187.00
538.59	41008.53
538.75	40229.13
538.92	40865.75
539.09	40767.45
539.26	40837.67
539.43	41247.26
539.60	41174.70
539.77	41654.51
539.94	41212.15
540.11	40914.90
540.28	41048.32
540.44	41062.36
540.61	41022.57
540.78	40886.82
540.95	40985.12
541.12	41322.16
541.29	41223.86
541.46	41125.55
541.62	41860.48
541.79	41748.14
541.96	41038.95
542.13	41240.24
542.30	41677.92
542.47	41731.75
542.63	41647.49
542.80	41890.91
542.97	42146.03
543.14	42422.21
543.31	41956.44
543.48	42139.00
543.64	42445.62
543.81	42733.50
543.98	42480.72
544.15	42129.64
544.32	42595.41
544.48	42684.35
544.65	42728.82
544.82	42902.02
544.99	42387.10
545.16	42452.64
545.32	42717.12
545.49	43051.81
545.66	43257.78
545.83	43068.20
546.00	42965.21
546.16	43082.24
546.33	42859.89
546.50	42782.65
546.67	43070.54
546.83	42532.22
547.00	42710.10
547.17	43447.36
547.34	43105.65
547.50	43550.35
547.67	43564.39
547.84	43445.02
548.00	43555.03
548.17	43590.14
548.34	43894.41
548.51	43957.60
548.67	43538.65
548.84	44060.58
549.01	43302.25
549.18	44023.14
549.34	43662.69
549.51	43978.67
549.68	44011.43
549.84	43936.54
550.01	44161.23
550.18	43917.81
550.34	44271.23
550.51	44161.23
550.68	43690.78
550.84	43828.87
551.01	44311.02
551.18	43948.24
551.34	44189.31
551.51	44505.29
551.68	44053.56
551.84	44079.31
552.01	44474.86
552.18	44205.70
552.34	44259.53
552.51	44329.75
552.68	44224.42
552.84	44383.58
553.01	44362.51
553.18	44711.25
553.34	44645.72
553.51	44217.40
553.67	44395.28
553.84	45165.32
554.01	44816.58
554.17	44477.20
554.34	44910.20
554.51	45064.67
554.67	45406.39
554.84	44875.09
555.00	44875.09
555.17	45043.61
555.33	44973.39
555.50	45045.95
555.67	44985.10
555.83	44744.02
556.00	45375.97
556.16	45523.42
556.33	45528.10
556.50	45277.66
556.66	45256.60
556.83	45134.89
556.99	45830.03
557.16	45736.41
557.32	45565.55
557.49	45490.65
557.65	45497.67
557.82	45078.72
557.98	45385.33
558.15	45296.39
558.32	45336.18
558.48	45322.13
558.65	45574.91
558.81	45474.27
558.98	45523.42
559.14	45942.38
559.31	45364.26
559.47	45755.13
559.64	45923.65
559.80	46082.81
559.97	46040.68
560.13	45450.86
560.30	45851.09
560.46	46471.34
560.63	46080.47
560.79	46012.59
560.96	46515.81
561.12	46204.52
561.29	46101.53
561.45	46024.29
561.61	45890.88
561.78	45954.08
561.94	46185.79
562.11	45514.06
562.27	46366.01
562.44	45909.61
562.60	46267.71
562.77	45734.07
562.93	45914.29
563.10	46450.27
563.26	46265.37
563.42	46244.30
563.59	46356.65
563.75	46319.20
563.92	46344.95
564.08	46351.97
564.24	46309.84
564.41	46618.79
564.57	47070.51
564.74	46639.86
564.90	46557.94
565.07	46344.95
565.23	46614.11
565.39	46911.36
565.56	46696.03
565.72	46394.10
565.88	46473.68
566.05	46670.28
566.21	46494.74
566.38	46525.17
566.54	46499.42
566.70	46686.67
566.87	46841.14
567.03	46639.86
567.19	47253.08
567.36	46902.00
567.52	46335.59
567.68	47019.02
567.85	46773.27
568.01	46953.49
568.17	46808.37
568.34	47103.28
568.50	47096.26
568.66	46178.77
568.83	46766.24
568.99	46934.76
569.15	47152.43
569.32	46775.61
569.48	47236.69
569.64	47337.33
569.81	46590.70
569.97	47114.98
570.13	47026.04
570.30	46829.44
570.46	46586.02
570.62	46787.31
570.78	46707.73
570.95	46932.42
571.11	47388.83
571.27	47119.66
571.43	46981.57
571.60	47210.95
571.76	47262.44
571.92	46911.36
572.09	47004.98
572.25	46902.00
572.41	47021.36
572.57	46953.49
572.74	47636.92
572.90	47257.76
573.06	47295.21
573.22	47208.61
573.38	47473.09
573.55	47367.76
573.71	47459.04
573.87	47229.67
574.03	46852.84
574.20	47510.53
574.36	47402.87
574.52	47716.50
574.68	47192.22
574.84	47372.44
575.01	47363.08
575.17	47599.47
575.33	47199.24
575.49	47358.40
575.65	47533.94
575.82	47657.99
575.98	47519.90
576.14	47735.23
576.30	47571.39
576.46	47374.78
576.62	47552.66
576.79	47243.71
576.95	46986.25
577.11	47409.89
577.27	47082.22
577.43	47601.82
577.59	47379.46
577.75	47274.14
577.92	47021.36
578.08	47466.06
578.24	47538.62
578.40	47849.91
578.56	47861.61
578.72	47110.30
578.88	47845.23
579.04	47847.57
579.21	47124.35
579.37	47297.55
579.53	47594.79
579.69	47590.11
579.85	47065.83
580.01	47533.94
580.17	47372.44
580.33	47753.95
580.49	48102.69
580.65	47924.81
580.82	47540.96
580.98	47622.88
581.14	47657.99
581.30	47573.73
581.46	47332.65
581.62	47498.83
581.78	47430.96
581.94	47665.01
582.10	47601.82
582.26	47777.36
582.42	47690.76
582.58	47945.87
582.74	47924.81
582.90	47414.57
583.06	48067.58
583.22	47562.03
583.38	47622.88
583.54	47391.17
583.70	47892.04
583.86	47728.20
584.02	47817.14
584.18	48172.91
584.34	47576.07
584.50	47653.31
584.66	47941.19
584.82	48175.25
584.98	47917.79
585.14	47660.33
585.30	47531.60
585.46	47655.65
585.62	47852.25
585.78	47866.30
585.94	47398.19
586.10	47477.77
586.26	47800.76
586.42	47398.19
586.58	48217.38
586.74	47653.31
586.90	47870.98
587.06	48020.77
587.22	48397.60
587.38	47800.76
587.54	48282.91
587.70	48079.28
587.86	47505.85
588.02	47714.16
588.18	47702.46
588.34	47892.04
588.49	47870.98
588.65	47807.78
588.81	47779.70
588.97	48135.46
589.13	47777.36
589.29	48027.79
589.45	48292.27
589.61	48140.14
589.77	48556.75
589.93	47842.89
590.08	48123.75
590.24	47983.32
590.40	48470.15
590.56	48453.77
590.72	48140.14
590.88	47901.40
591.04	47971.62
591.20	48315.68
591.35	47938.85
591.51	48769.74
591.67	48362.49
591.83	48493.56
591.99	48259.51
592.15	48392.92
592.31	48533.35
592.46	48196.31
592.62	48098.01
592.78	48437.39
592.94	48353.13
593.10	48376.53
593.26	48367.17
593.41	48552.07
593.57	48472.49
593.73	48250.14
593.89	48889.11
594.05	48825.92
594.20	48514.62
594.36	48825.92
594.52	48729.95
594.68	48383.55
594.84	48369.51
594.99	48516.96
595.15	48563.78
595.31	48526.33
595.47	48669.10
595.62	48371.85
595.78	48353.13
595.94	48657.40
596.10	48657.40
596.25	48573.14
596.41	48584.84
596.57	48062.90
596.73	48666.76
596.88	49022.52
597.04	48814.21
597.20	48966.35
597.36	48516.96
597.51	48589.52
597.67	48294.61
597.83	48266.53
597.99	48692.50
598.14	48350.79
598.30	48769.74
598.46	48856.34
598.61	48968.69
598.77	48687.82
598.93	48779.10
599.09	48399.94
599.24	49029.54
599.40	48692.50
599.56	49006.14
599.71	48715.91
599.87	48858.68
600.03	48949.96
600.18	48577.82
600.34	48774.42
600.50	48975.71
600.65	48844.64
600.81	48886.77
600.97	48772.08
601.12	48652.72
601.28	48596.54
601.44	48659.74
601.59	48641.01
601.75	48861.02
601.91	48779.10
602.06	48573.14
602.22	48767.40
602.37	48865.70
602.53	48687.82
602.69	48744.00
602.84	48760.38
603.00	48542.71
603.16	48985.07
603.31	48643.35
603.47	48921.88
603.62	48769.74
603.78	49305.73
603.94	48762.72
604.09	48722.93
604.25	48783.79
604.40	48423.34
604.56	48657.40
604.71	48914.86
604.87	48683.14
605.03	48507.60
605.18	48774.42
605.34	48512.28
605.49	48348.45
605.65	48299.30
605.80	48453.77
605.96	48526.33
606.12	48584.84
606.27	48842.30
606.43	47941.19
606.58	48779.10
606.74	48383.55
606.89	48561.44
607.05	49055.29
607.20	48575.48
607.36	48870.39
607.51	48540.37
607.67	48240.78
607.82	48598.88
607.98	48554.41
608.13	48516.96
608.29	48516.96
608.44	48641.01
608.60	48582.50
608.75	48884.43
608.91	48467.81
609.06	48353.13
609.22	48633.99
609.37	47831.19
609.53	48509.94
609.68	48568.46
609.84	48268.87
609.99	48727.61
610.15	48500.58
610.30	48491.22
610.46	48177.59
610.61	48367.17
610.76	48467.81
610.92	47875.66
611.07	48334.40
611.23	48378.87
611.38	48285.25
611.54	48156.52
611.69	48615.27
611.84	48264.19
612.00	48287.59
612.15	48280.57
612.31	48306.32
612.46	48128.44
612.62	48182.27
612.77	47763.31
612.92	48339.08
613.08	47845.23
613.23	48149.50
613.39	48137.80
613.54	48119.07
613.69	48552.07
613.85	48264.19
614.00	48402.28
614.15	48554.41
614.31	48200.99
614.46	48006.73
614.62	47882.68
614.77	48055.88
614.92	47955.24
615.08	47557.35
615.23	48313.34
615.38	48287.59
615.54	48156.52
615.69	48308.66
615.84	48076.94
616.00	47936.51
616.15	48119.07
616.30	47828.85
616.46	47835.87
616.61	47744.59
616.76	48343.77
616.92	48086.31
617.07	47859.27
617.22	48238.44
617.37	47452.02
617.53	47796.08
617.68	47686.07
617.83	47384.15
617.99	47749.27
618.14	47562.03
618.29	47445.00
618.45	47229.67
618.60	47604.16
618.75	47206.26
618.90	47334.99
619.06	47445.00
619.21	47419.25
619.36	47791.40
619.51	47423.93
619.67	47428.62
619.82	47349.04
619.97	47342.02
620.12	47299.89
620.28	47697.78
620.43	47480.11
620.58	47784.38
620.73	47852.25
620.89	47688.42
621.04	47494.15
621.19	47475.43
621.34	47353.72
621.49	47552.66
621.65	47152.43
621.80	47393.51
621.95	47194.56
622.10	46932.42
622.25	47501.17
622.41	46740.50
622.56	47054.13
622.71	47264.78
622.86	47175.84
623.01	46822.42
623.16	46965.19
623.32	46958.17
623.47	47000.30
623.62	46876.25
623.77	47295.21
623.92	47047.11
624.07	47407.55
624.23	47152.43
624.38	47246.05
624.53	46897.31
624.68	46253.67
624.83	46323.88
624.98	46770.93
625.13	46738.16
625.29	46536.87
625.44	46696.03
625.59	46534.53
625.74	46562.62
625.89	46595.38
626.04	46649.22
626.19	46525.17
626.34	46698.37
626.49	46241.96
626.65	45860.46
626.80	46656.24
626.95	46471.34
627.10	46185.79
627.25	46181.11
627.40	46799.01
627.55	46623.47
627.70	46270.05
627.85	46368.35
628.00	46230.26
628.15	46256.01
628.30	46087.49
628.45	46188.13
628.60	45738.75
628.76	46075.79
628.91	46195.15
629.06	45918.97
629.21	46122.60
629.36	45642.79
629.51	46068.76
629.66	46408.14
629.81	45968.12
629.96	45993.87
630.11	45979.82
630.26	46129.62
630.41	46068.76
630.56	45902.59
630.71	46115.58
630.86	45663.85
631.01	45357.24
631.16	45378.31
631.31	45588.95
631.46	45516.40
631.61	45621.72
631.76	46199.83
631.91	46209.20
632.06	46043.02
632.21	46017.27
632.36	45979.82
632.51	45041.27
632.66	45947.06
632.81	45382.99
632.96	45708.32
633.10	45574.91
633.25	45907.27
633.40	45626.40
633.55	45663.85
633.70	45448.52
633.85	44985.10
634.00	44933.60
634.15	45329.16
634.30	45181.70
634.45	45507.04
634.60	45577.25
634.75	45261.28
634.90	44954.67
635.05	45364.26
635.19	45373.63
635.34	45523.42
635.49	45085.74
635.64	45148.93
635.79	45411.07
635.94	45249.58
636.09	45492.99
636.24	45052.97
636.39	45050.63
636.53	44720.62
636.68	44739.34
636.83	44807.22
636.98	44573.16
637.13	44734.66
637.28	44776.79
637.43	44889.13
637.57	45254.26
637.72	44610.61
637.87	44722.96
638.02	44849.35
638.17	44641.04
638.32	44631.68
638.46	44641.04
638.61	44325.07
638.76	44299.32
638.91	44498.26
639.06	44285.28
639.20	44032.50
639.35	44109.74
639.50	43892.07
639.65	44399.96
639.80	44512.31
639.94	44804.88
640.09	44385.92
640.24	44388.26
640.39	44411.67
640.54	44030.16
640.68	44186.97
640.83	44376.56
640.98	44191.65
641.13	43915.47
641.27	44481.88
641.42	43908.45
641.57	44238.47
641.72	44002.07
641.86	43480.13
642.01	43838.23
642.16	43700.14
642.31	43849.94
642.45	43950.58
642.60	43688.44
642.75	43548.01
642.90	44126.12
643.04	44348.47
643.19	43655.67
643.34	43716.53
643.48	43768.02
643.63	43636.95
643.78	43466.09
643.93	43648.65
644.07	43597.16
644.22	43936.54
644.37	43562.05
644.51	43702.48
644.66	43646.31
644.81	43306.93
644.95	43555.03
645.10	43241.40
645.25	43192.25
645.39	43372.47
645.54	43466.09
645.69	43325.66
645.83	43335.02
645.98	43435.66
646.13	42644.56
646.27	43328.00
646.42	43206.29
646.57	43091.60
646.71	43320.98
646.86	43372.47
647.00	43152.46
647.15	43014.37
647.30	42930.11
647.44	42955.85
647.59	43129.05
647.74	42937.13
647.88	43241.40
648.03	43154.80
648.17	43459.07
648.32	43246.08
648.47	43335.02
648.61	43100.97
648.76	42677.33
648.90	42953.51
649.05	43063.52
649.20	43000.32
649.34	43318.64
649.49	42817.76
649.63	42405.83
649.78	43164.16
649.92	42948.83
650.07	43473.11
650.21	43213.31
650.36	42911.38
650.51	42600.09
650.65	43239.06
650.80	42878.61
650.94	42497.11
651.09	42415.19
651.23	41991.55
651.38	42403.49
651.52	42047.72
651.67	42295.82
651.81	42321.57
651.96	42295.82
652.10	42082.83
652.25	42007.94
652.39	42684.35
652.54	42464.34
652.68	41895.59
652.83	42333.27
652.97	42190.50
653.12	42017.30
653.26	42513.49
653.41	41989.21
653.55	42424.55
653.70	42391.78
653.84	42440.93
653.99	42305.18
654.13	42300.50
654.27	42122.62
654.42	41963.46
654.56	42192.84
654.71	41921.34
654.85	41937.72
655.00	41820.69
655.14	42117.94
655.29	42045.38
655.43	42384.76
655.57	41738.77
655.72	41621.75
655.86	41544.51
656.01	41179.39
656.15	41022.57
656.30	41872.18
656.44	41230.88
656.58	41635.79
656.73	41853.46
656.87	40865.75
657.01	41118.53
657.16	41521.10
657.30	41457.91
657.45	41673.24
657.59	40734.68
657.73	41242.58
657.88	41441.53
658.02	41195.77
658.16	41558.55
658.31	41015.55
658.45	41553.87
658.60	40849.37
658.74	41371.31
658.88	41240.24
659.03	41081.08
659.17	40849.37
659.31	40837.67
659.46	40416.37
659.60	41041.29
659.74	40687.87
659.89	40781.49
660.03	40072.31
660.17	40456.16
660.32	40566.16
660.46	40493.61
660.60	40952.35
660.74	40610.64
660.89	40428.07
661.03	40247.85
661.17	40023.16
661.32	40116.78
661.46	40140.19
661.60	40074.65
661.74	40158.91
661.89	40240.83
662.03	40156.57
662.17	39901.45
662.31	39765.70
662.46	39908.47
662.60	39770.38
662.74	39292.91
662.88	39473.13
663.03	39321.00
663.17	39555.05
663.31	39131.42
663.45	39679.10
663.60	39328.02
663.74	39328.02
663.88	39332.70
664.02	39503.56
664.17	39283.55
664.31	39257.81
664.45	39112.69
664.59	39285.89
664.73	38710.12
664.88	39358.45
665.02	38412.87
665.16	38866.94
665.30	38794.38
665.44	38672.67
665.59	38733.53
665.73	38323.93
665.87	38422.23
666.01	38127.33
666.15	38225.63
666.29	38162.43
666.44	38476.07
666.58	38019.66
666.72	38267.76
666.86	38253.72
667.00	38085.20
667.14	38298.19
667.28	37736.46
667.43	38139.03
667.57	38162.43
667.71	37797.31
667.85	37834.76
667.99	37762.20
668.13	37661.56
668.27	37383.04
668.41	37542.19
668.56	37427.51
668.70	37282.39
668.84	37083.45
668.98	37205.16
669.12	37013.23
669.26	36950.04
669.40	36793.22
669.54	37060.04
669.68	37406.44
669.82	36706.62
669.96	36603.64
670.10	36390.65
670.25	36559.17
670.39	36706.62
670.53	36797.90
670.67	36519.38
670.81	36999.19
670.95	36203.41
671.09	36044.25
671.23	36180.00
671.37	36369.58
671.51	36442.14
671.65	36517.04
671.79	35955.31
671.93	35969.35
672.07	36205.75
672.21	35833.60
672.35	35395.92
672.49	35929.56
672.63	35739.98
672.77	35419.33
672.91	35601.89
673.05	35257.83
673.19	34991.01
673.33	35281.24
673.47	35271.87
673.61	35290.60
673.75	35199.32
673.89	35189.95
674.03	34618.86
674.17	34775.68
674.31	34391.83
674.45	34272.46
674.59	34602.48
674.73	34242.04
674.87	34181.18
675.01	33659.24
675.15	33895.64
675.29	33804.36
675.43	33741.16
675.56	33773.93
675.70	34092.24
675.84	33825.42
675.98	32627.07
676.12	33865.21
676.26	33921.38
676.40	33202.84
676.54	33106.88
676.68	32931.34
676.82	32914.95
676.96	32975.81
677.10	32809.63
677.23	33050.70
677.37	33294.12
677.51	32814.31
677.65	32503.02
677.79	32444.51
677.93	32746.44
678.07	32009.17
678.21	32275.99
678.34	31903.84
678.48	31800.86
678.62	31625.32
678.76	31557.44
678.90	31625.32
679.04	31564.46
679.18	31723.62
679.31	31309.35
679.45	31349.14
679.59	31393.61
679.73	31372.54
679.87	30637.61
680.00	31009.76
680.14	30998.06
680.28	30932.52
680.42	30862.30
680.56	30733.57
680.70	30323.98
680.83	30450.37
680.97	30026.73
681.11	30562.72
681.25	29729.48
681.39	29858.21
681.52	29839.49
681.66	29364.36
681.80	29254.36
681.94	29041.37
682.07	29734.17
682.21	29099.88
682.35	28917.32
682.49	28996.90
682.62	28938.38
682.76	29205.20
682.90	28910.30
683.04	29017.96
683.17	28474.96
683.31	28404.74
683.45	28161.33
683.59	28393.04
683.72	28137.92
683.86	28123.88
684.00	28266.65
684.13	28079.41
684.27	27625.34
684.41	27463.85
684.55	27545.76
684.68	27480.23
684.82	27360.86
684.96	27417.04
685.09	27536.40
685.23	27398.31
685.37	27513.00
685.50	27360.86
685.64	27140.85
685.78	27047.23
685.91	26277.19
686.05	26277.19
686.19	26342.73
686.32	26576.78
686.46	26415.29
686.60	26085.27
686.73	26272.51
686.87	26061.87
687.01	26319.32
687.14	26141.44
687.28	25949.52
687.42	25827.81
687.55	25509.50
687.69	25781.00
687.82	25158.42
687.96	25331.62
688.10	25434.60
688.23	24886.92
688.37	25088.20
688.50	25310.55
688.64	25476.73
688.78	24781.59
688.91	24580.31
689.05	24533.50
689.18	24350.93
689.32	23803.25
689.46	24039.64
689.59	23744.73
689.73	24224.54
689.86	24175.39
690.00	24254.97
690.13	23962.40
690.27	23807.93
690.41	23695.58
690.54	23508.34
690.68	23569.19
690.81	23253.22
690.95	23424.08
691.08	22675.11
691.22	22586.17
691.35	22703.20
691.49	23218.11
691.62	22785.12
691.76	22476.16
691.89	22480.85
692.03	22078.27
692.16	22059.55
692.30	22249.13
692.43	22384.88
692.57	21818.47
692.70	21951.88
692.84	21788.05
692.97	21673.36
693.11	21820.81
693.24	21387.82
693.38	21275.47
693.51	21195.89
693.65	21102.27
693.78	21451.01
693.92	21013.33
694.05	20858.85
694.19	20669.27
694.32	20847.15
694.45	20891.62
694.59	20865.88
694.72	20783.96
694.86	20285.42
694.99	20365.00
695.13	20325.21
695.26	20294.79
695.39	19857.10
695.53	19805.61
695.66	19871.15
695.80	20147.33
695.93	19913.28
696.07	19470.92
696.20	19473.26
696.33	19145.58
696.47	19094.09
696.60	19253.25
696.73	19349.21
696.87	19199.41
697.00	19110.47
697.14	18747.69
697.27	18647.05
697.40	18621.30
697.54	18719.60
697.67	18651.73
697.80	18665.77
697.94	18384.91
698.07	18288.95
698.21	18450.44
698.34	18333.42
698.47	18251.50
698.61	17750.62
698.74	17600.83
698.87	17776.37
699.01	17530.61
699.14	17905.10
699.27	17621.89
699.40	17369.12
699.54	17345.71
699.67	17429.97
699.80	17312.94
699.94	17181.87
700.07	17240.39
700.20	17348.05
700.34	16891.65
700.47	16594.40
700.60	16919.73
700.73	16828.45
700.87	16599.08
701.00	16531.20
701.13	16388.43
701.26	16470.35
701.40	16372.05
701.53	16229.27
701.66	16252.68
701.79	16098.20
701.93	16142.67
702.06	15756.49
702.19	15812.66
702.32	15908.62
702.46	15903.94
702.59	15885.22
702.72	15894.58
702.85	15630.10
702.99	15812.66
703.12	15585.63
703.25	15349.23
703.38	15126.88
703.51	15199.44
703.65	15019.22
703.78	15016.88
703.91	14677.50
704.04	14831.97
704.17	14640.05
704.31	14630.69
704.44	14464.51
704.57	14649.41
704.70	14387.27
704.83	14497.28
704.96	14171.94
705.10	14314.72
705.23	13989.38
>>>>>End Processed Spectral Data<<<<<
