SpectraSuite Data File
++++++++++++++++++++++++++++++++++++
Date: Fri Oct 25 10:47:40 EDT 2013
User: price-jones
Dark Spectrum Present: No
Reference Spectrum Present: No
Number of Sampled Component Spectra: 1
Spectrometers: USB2+H05261
Integration Time (usec): 100000 (USB2+H05261)
Spectra Averaged: 1 (USB2+H05261)
Boxcar Smoothing: 0 (USB2+H05261)
Correct for Electrical Dark: No (USB2+H05261)
Strobe/Lamp Enabled: No (USB2+H05261)
Correct for Detector Non-linearity: No (USB2+H05261)
Correct for Stray Light: No (USB2+H05261)
Number of Pixels in Processed Spectrum: 2048
>>>>>Begin Processed Spectral Data<<<<<
365.73	37.45
365.92	37.45
366.12	37.45
366.32	131.07
366.52	0.00
366.72	67.88
366.91	21.06
367.11	35.11
367.31	53.83
367.51	42.13
367.70	0.00
367.90	44.47
368.10	98.30
368.30	35.11
368.49	39.79
368.69	49.15
368.89	77.24
369.09	32.77
369.28	46.81
369.48	114.69
369.68	60.85
369.87	77.24
370.07	60.85
370.27	147.45
370.47	105.32
370.66	430.66
370.86	379.17
371.06	507.90
371.25	437.68
371.45	430.66
371.65	524.28
371.84	456.40
372.04	449.38
372.24	482.15
372.44	461.09
372.63	468.11
372.83	568.75
373.03	491.51
373.22	554.71
373.42	533.64
373.62	496.19
373.81	521.94
374.01	582.79
374.21	547.69
374.40	531.30
374.60	552.37
374.79	519.60
374.99	585.13
375.19	580.45
375.38	650.67
375.58	554.71
375.78	671.73
375.97	587.47
376.17	638.97
376.37	550.03
376.56	571.09
376.76	589.82
376.95	648.33
377.15	580.45
377.35	594.50
377.54	484.49
377.74	657.69
377.93	683.44
378.13	592.16
378.33	669.39
378.52	615.56
378.72	594.50
378.91	683.44
379.11	594.50
379.31	613.22
379.50	655.35
379.70	737.27
379.89	653.01
380.09	695.14
380.28	587.47
380.48	613.22
380.68	627.26
380.87	615.56
381.07	685.78
381.26	753.65
381.46	704.50
381.65	662.37
381.85	648.33
382.04	697.48
382.24	674.07
382.43	669.39
382.63	685.78
382.83	704.50
383.02	650.67
383.22	720.88
383.41	737.27
383.61	751.31
383.80	727.91
384.00	716.20
384.19	669.39
384.39	739.61
384.58	734.93
384.78	732.59
384.97	793.44
385.17	816.85
385.36	662.37
385.56	774.72
385.75	734.93
385.95	786.42
386.14	805.14
386.34	805.14
386.53	793.44
386.72	697.48
386.92	753.65
387.11	898.77
387.31	816.85
387.50	741.95
387.70	826.21
387.89	866.00
388.09	798.12
388.28	877.70
388.48	856.64
388.67	880.04
388.86	880.04
389.06	887.06
389.25	922.17
389.45	894.08
389.64	954.94
389.84	947.92
390.03	931.53
390.22	940.90
390.42	957.28
390.61	938.55
390.81	957.28
391.00	971.32
391.19	973.66
391.39	952.60
391.58	1018.13
391.78	1020.47
391.97	983.02
392.16	992.39
392.36	990.05
392.55	997.07
392.75	1076.65
392.94	1036.86
393.13	992.39
393.33	870.68
393.52	1015.79
393.71	1015.79
393.91	1036.86
394.10	1048.56
394.29	1104.73
394.49	1114.10
394.68	1109.41
394.88	1090.69
395.07	1064.94
395.26	1139.84
395.46	1107.07
395.65	1086.01
395.84	1046.22
396.04	1193.67
396.23	1130.48
396.42	1090.69
396.62	1163.25
396.81	1144.52
397.00	1153.88
397.19	1188.99
397.39	1287.29
397.58	1329.42
397.77	1193.67
397.97	1252.19
398.16	1193.67
398.35	1320.06
398.55	1242.82
398.74	1306.02
398.93	1369.21
399.12	1458.15
399.32	1266.23
399.51	1291.98
399.70	1448.79
399.90	1399.64
400.09	1434.75
400.28	1336.45
400.47	1380.92
400.67	1521.35
400.86	1437.09
401.05	1497.94
401.24	1474.54
401.44	1481.56
401.63	1664.12
401.82	1465.18
402.01	1474.54
402.21	1516.67
402.40	1605.61
402.59	1593.90
402.78	1652.42
402.97	1575.18
403.17	1558.80
403.36	1568.16
403.55	1607.95
403.74	1563.48
403.93	1603.27
404.13	1694.55
404.32	1682.85
404.51	1710.93
404.70	1760.08
404.89	1654.76
405.09	1685.19
405.28	1785.83
405.47	1724.97
405.66	1846.68
405.85	1781.15
406.05	1743.70
406.24	1788.17
406.43	1785.83
406.62	1785.83
406.81	1942.64
407.00	1891.15
407.20	1858.39
407.39	1858.39
407.58	2003.50
407.77	1952.01
407.96	1980.09
408.15	1991.80
408.34	1954.35
408.54	1996.48
408.73	1996.48
408.92	2052.65
409.11	2040.95
409.30	2038.61
409.49	1963.71
409.68	1956.69
409.87	2179.04
410.07	2143.93
410.26	2104.14
410.45	2237.55
410.64	2134.57
410.83	2228.19
411.02	2200.10
411.21	2373.30
411.40	2303.09
411.59	2249.25
411.78	2314.79
411.98	2354.58
412.17	2361.60
412.36	2389.69
412.55	2445.86
412.74	2331.17
412.93	2518.42
413.12	2396.71
413.31	2619.06
413.50	2513.74
413.69	2551.18
413.88	2590.97
414.07	2621.40
414.26	2710.34
414.45	2637.78
414.64	2710.34
414.83	2616.72
415.02	2794.60
415.22	2813.32
415.41	2778.22
415.60	2813.32
415.79	2752.47
415.98	2949.08
416.17	2834.39
416.36	2759.49
416.55	3009.93
416.74	2892.90
416.93	2935.03
417.12	3035.67
417.31	3049.72
417.50	3059.08
417.69	3176.11
417.88	3073.12
418.07	3089.51
418.26	3045.04
418.45	3183.13
418.64	3248.66
418.83	3225.26
419.02	3215.90
419.21	3145.68
419.39	3248.66
419.58	3286.11
419.77	3253.34
419.96	3180.79
420.15	3391.44
420.34	3304.84
420.53	3304.84
420.72	3398.46
420.91	3332.92
421.10	3393.78
421.29	3482.72
421.48	3379.73
421.67	3456.97
421.86	3330.58
422.05	3503.78
422.24	3389.10
422.43	3412.50
422.61	3576.34
422.80	3487.40
422.99	3578.68
423.18	3613.79
423.37	3557.61
423.56	3550.59
423.75	3543.57
423.94	3339.94
424.13	3337.60
424.32	3499.10
424.50	3513.14
424.69	3632.51
424.88	3637.19
425.07	3674.64
425.26	3569.32
425.45	3609.11
425.64	3419.52
425.83	3548.25
426.01	3700.39
426.20	3719.11
426.39	3709.75
426.58	3709.75
426.77	3581.02
426.96	3634.85
427.15	3639.53
427.33	3691.02
427.52	3758.90
427.71	3791.67
427.90	3740.18
428.09	3737.84
428.28	3861.88
428.46	3714.43
428.65	3714.43
428.84	3948.48
429.03	3943.80
429.22	3719.11
429.40	3789.33
429.59	3812.73
429.78	3627.83
429.97	3611.45
430.16	3791.67
430.34	3833.80
430.53	3976.57
430.72	3911.04
430.91	3889.97
431.10	3899.33
431.28	4119.34
431.47	4140.41
431.66	4311.27
431.85	4187.22
432.03	4215.30
432.22	4229.35
432.41	4337.01
432.60	4269.14
432.79	4259.78
432.97	4308.93
433.16	4362.76
433.35	4276.16
433.54	4297.22
433.72	4329.99
433.91	4276.16
434.10	4402.55
434.28	4454.04
434.47	4470.42
434.66	4395.53
434.85	4582.77
435.03	4470.42
435.22	4440.00
435.41	4732.56
435.59	4664.69
435.78	4535.96
435.97	4699.80
436.16	4526.60
436.34	4667.03
436.53	4718.52
436.72	4926.83
436.90	4725.54
437.09	4793.42
437.28	4542.98
437.46	4606.17
437.65	4814.48
437.84	4770.01
438.02	4819.16
438.21	4882.36
438.40	4760.65
438.58	5036.83
438.77	5060.24
438.96	4973.64
439.14	4973.64
439.33	5174.92
439.52	5198.33
439.70	5217.05
439.89	5167.90
440.08	5177.26
440.26	5320.04
440.45	5221.74
440.63	5263.86
440.82	5263.86
441.01	5549.41
441.19	5418.34
441.38	5727.29
441.57	5439.40
441.75	5589.20
441.94	5598.56
442.12	5631.33
442.31	5785.80
442.50	5865.38
442.68	5678.14
442.87	5823.25
443.05	5776.44
443.24	5809.21
443.43	5743.67
443.61	5884.11
443.80	6029.22
443.98	5757.72
444.17	5650.05
444.35	5949.64
444.54	5841.98
444.73	5926.24
444.91	5877.09
445.10	5834.96
445.28	5827.93
445.47	5804.53
445.65	5891.13
445.84	5982.41
446.02	5839.64
446.21	6008.16
446.39	5921.56
446.58	6076.03
446.77	5989.43
446.95	5827.93
447.14	6108.80
447.32	6059.65
447.51	6085.39
447.69	6085.39
447.88	5982.41
448.06	6167.31
448.25	6099.44
448.43	6244.55
448.62	5949.64
448.80	6120.50
448.99	6164.97
449.17	6260.93
449.36	6235.19
449.54	6253.91
449.73	6420.09
449.91	6375.62
450.10	6471.58
450.28	6420.09
450.46	6565.20
450.65	6511.37
450.83	6649.46
451.02	6384.98
451.20	6534.78
451.39	6328.81
451.57	6504.35
451.76	6424.77
451.94	6511.37
452.13	6672.87
452.31	6406.05
452.49	6436.47
452.68	6628.40
452.86	6693.93
453.05	6656.48
453.23	6633.08
453.42	6834.36
453.60	6717.34
453.78	6579.25
453.97	6478.60
454.15	6803.94
454.34	6677.55
454.52	6846.07
454.70	6871.81
454.89	6768.83
455.07	6766.49
455.26	6956.07
455.44	6953.73
455.62	6904.58
455.81	7241.62
455.99	7084.80
456.17	7052.03
456.36	7225.23
456.54	7173.74
456.73	7180.76
456.91	7449.93
457.09	7431.20
457.28	7349.28
457.46	7218.21
457.64	7360.98
457.83	7442.90
458.01	7325.88
458.19	7424.18
458.38	7606.74
458.56	7478.01
458.74	7337.58
458.93	7569.29
459.11	7627.81
459.29	7573.97
459.48	7630.15
459.66	7552.91
459.84	7672.28
460.03	7728.45
460.21	7765.90
460.39	7665.25
460.57	7882.92
460.76	7693.34
460.94	7859.52
461.12	7943.78
461.31	8180.17
461.49	7740.15
461.67	7861.86
461.85	7922.71
462.04	7875.90
462.22	8355.71
462.40	8191.88
462.59	7997.61
462.77	8131.02
462.95	8182.51
463.13	8035.06
463.32	8128.68
463.50	7997.61
463.68	8084.21
463.86	8344.01
464.05	7995.27
464.23	8318.26
464.41	8327.63
464.59	8053.78
464.78	8383.80
464.96	8400.18
465.14	8201.24
465.32	8318.26
465.50	8306.56
465.69	8561.68
465.87	8241.03
466.05	8404.86
466.23	8383.80
466.41	8418.91
466.60	8554.66
466.78	8348.69
466.96	8662.32
467.14	8599.13
467.32	8561.68
467.51	8828.50
467.69	8454.02
467.87	8688.07
468.05	8472.74
468.23	8596.79
468.41	8683.39
468.60	8781.69
468.78	8596.79
468.96	8793.39
469.14	8887.01
469.32	8975.95
469.50	8580.40
469.69	8732.54
469.87	8964.25
470.05	8912.76
470.23	9078.94
470.41	9123.41
470.59	9048.51
470.77	9043.83
470.95	9224.05
471.14	9202.99
471.32	9125.75
471.50	9186.60
471.68	9406.61
471.86	9535.34
472.04	9444.06
472.22	9680.46
472.40	9172.56
472.58	9610.24
472.77	9612.58
472.95	9818.55
473.13	10090.05
473.31	9774.08
473.49	9856.00
473.67	9837.27
473.85	9865.36
474.03	10209.42
474.21	10097.07
474.39	10321.76
474.57	10237.50
474.75	10237.50
474.93	10413.04
475.12	10417.72
475.30	10312.40
475.48	10277.29
475.66	10132.18
475.84	10373.25
476.02	10417.72
476.20	10583.90
476.38	10583.90
476.56	10899.87
476.74	10998.18
476.92	10869.45
477.10	11016.90
477.28	11042.65
477.46	11171.38
477.64	11178.40
477.82	11206.48
478.00	11503.73
478.18	11550.54
478.36	11485.01
478.54	11747.15
478.72	11754.17
478.90	11833.75
479.08	11761.19
479.26	11847.79
479.44	11936.73
479.62	12304.20
479.80	12451.65
479.98	12252.70
480.16	12617.83
480.34	12601.44
480.52	12582.72
480.70	12669.32
480.88	12468.03
481.06	12837.84
481.24	13008.70
481.41	12989.97
481.59	13415.95
481.77	13245.09
481.95	13261.48
482.13	13291.90
482.31	13193.60
482.49	13530.64
482.67	13860.65
482.85	13687.45
483.03	13947.25
483.21	14083.00
483.39	14043.21
483.57	14413.02
483.74	14068.96
483.92	14520.68
484.10	14693.88
484.28	14843.68
484.46	14972.41
484.64	14965.39
484.82	14785.16
485.00	14991.13
485.18	15091.77
485.35	15211.14
485.53	15021.56
485.71	15171.35
485.89	15550.52
486.07	15264.97
486.25	15213.48
486.43	15861.81
486.61	15826.70
486.78	16140.33
486.96	16039.69
487.14	16212.89
487.32	16336.94
487.50	16711.42
487.68	16800.37
487.85	16847.18
488.03	17078.89
488.21	17114.00
488.39	17121.02
488.57	17415.93
488.75	17649.98
488.92	17858.29
489.10	18066.60
489.28	17914.46
489.46	18043.19
489.64	17951.91
489.81	18441.08
489.99	18459.81
490.17	18534.70
490.35	18644.71
490.53	18508.96
490.70	19021.53
490.88	18995.79
491.06	19360.91
491.24	19164.31
491.41	19342.19
491.59	19407.72
491.77	19325.80
491.95	19737.74
492.13	19751.78
492.30	20156.69
492.48	20002.22
492.66	20276.06
492.84	20290.10
493.01	20290.10
493.19	20205.84
493.37	20620.12
493.54	20666.93
493.72	20919.71
493.90	21053.12
494.08	21209.93
494.25	21764.64
494.43	21563.36
494.61	21717.83
494.79	21446.33
494.96	21652.30
495.14	21720.17
495.32	22127.42
495.49	21731.87
495.67	22136.79
495.85	22380.20
496.02	22192.96
496.20	22848.31
496.38	22632.98
496.55	22672.77
496.73	23405.36
496.91	23147.90
497.09	22934.91
497.26	23311.74
497.44	23108.11
497.62	23323.44
497.79	23592.60
497.97	23742.39
498.14	23690.90
498.32	24102.84
498.50	23906.23
498.67	24407.11
498.85	24297.10
499.03	24154.33
499.20	24126.24
499.38	24325.19
499.56	24247.95
499.73	24439.87
499.91	24709.04
500.08	24868.19
500.26	24645.84
500.44	24922.02
500.61	24980.54
500.79	24994.58
500.97	25387.79
501.14	25586.74
501.32	25352.68
501.49	25387.79
501.67	25476.73
501.84	25610.14
502.02	25659.29
502.20	25748.23
502.37	25867.60
502.55	26129.74
502.72	25991.65
502.90	25841.85
503.07	26057.18
503.25	25792.70
503.43	26188.25
503.60	26494.86
503.78	26588.49
503.95	26518.27
504.13	26647.00
504.30	26651.68
504.48	26799.13
504.65	27075.32
504.83	27295.33
505.01	27321.07
505.18	26934.88
505.36	27559.81
505.53	27358.52
505.71	27714.28
505.88	27513.00
506.06	27587.89
506.23	27800.88
506.41	27749.39
506.58	27983.44
506.76	28290.06
506.93	28215.16
507.11	27798.54
507.28	28645.82
507.46	28063.02
507.63	28339.21
507.81	28112.17
507.98	28180.05
508.16	28882.21
508.33	28837.74
508.50	28603.69
508.68	28694.97
508.85	28643.48
509.03	28910.30
509.20	28851.78
509.38	29549.26
509.55	29324.57
509.73	29394.79
509.90	29371.38
510.08	29383.09
510.25	29823.11
510.42	29825.45
510.60	29809.06
510.77	30134.40
510.95	30487.82
511.12	29942.47
511.30	29998.65
511.47	30616.55
511.64	30448.03
511.82	30429.30
511.99	30157.80
512.17	30141.42
512.34	30387.18
512.51	30597.82
512.69	30799.11
512.86	30890.39
513.04	30920.82
513.21	30719.53
513.38	30988.69
513.56	31299.98
513.73	30639.95
513.90	31037.84
514.08	30944.22
514.25	31639.36
514.43	31627.66
514.60	31414.67
514.77	31192.32
514.95	31786.82
515.12	31505.95
515.29	31630.00
515.47	32210.45
515.64	32084.06
515.81	31756.39
515.99	31955.33
516.16	32304.07
516.33	31751.71
516.51	32126.19
516.68	31639.36
516.85	31559.78
517.03	32299.39
517.20	32346.20
517.37	32818.99
517.54	32275.99
517.72	32280.67
517.89	32449.19
518.06	32411.74
518.24	32201.09
518.41	32053.64
518.58	32254.92
518.75	32416.42
518.93	32872.82
519.10	33031.98
519.27	33216.88
519.45	32954.74
519.62	33317.53
519.79	33479.02
519.96	33570.30
520.14	33628.82
520.31	33790.31
520.48	33722.44
520.65	33706.05
520.83	34036.07
521.00	34066.50
521.17	33907.34
521.34	34284.17
521.52	34345.02
521.69	34328.64
521.86	34260.76
522.03	34295.87
522.20	34375.45
522.38	34672.70
522.55	34466.73
522.72	34366.09
522.89	34288.85
523.07	34892.71
523.24	34511.20
523.41	34733.55
523.58	34724.19
523.75	35449.75
523.92	35225.06
524.10	35587.85
524.27	35374.86
524.44	35185.27
524.61	35367.84
524.78	35931.90
524.96	35686.15
525.13	35913.18
525.30	35601.89
525.47	35718.92
525.64	35777.43
525.81	36067.66
525.98	35917.86
526.16	35765.73
526.33	35236.77
526.50	36165.96
526.67	35550.40
526.84	35679.13
527.01	35658.06
527.18	36130.85
527.36	36432.78
527.53	36400.01
527.70	36526.40
527.87	36535.76
528.04	36421.08
528.21	36430.44
528.38	36690.24
528.55	36788.54
528.72	36713.64
528.89	36978.12
529.07	36730.03
529.24	36734.71
529.41	36882.16
529.58	36685.56
529.75	36884.50
529.92	36776.84
530.09	37378.36
530.26	37013.23
530.43	37160.69
530.60	37186.43
530.77	37050.68
530.94	37825.40
531.11	37619.43
531.28	37214.52
531.46	37163.03
531.63	37504.74
531.80	37294.10
531.97	37713.05
532.14	37900.29
532.31	37038.98
532.48	37371.33
532.65	38375.42
532.82	37729.44
532.99	38190.52
533.16	37741.14
533.33	37876.89
533.50	37989.24
533.67	38031.36
533.84	37890.93
534.01	38340.32
534.18	38195.20
534.35	38560.33
534.52	38169.46
534.69	38260.74
534.86	38726.50
535.03	38593.09
535.20	38543.94
535.37	38801.40
535.54	38890.34
535.71	38560.33
535.88	38696.08
536.05	38602.46
536.22	38909.07
536.38	38948.85
536.55	38967.58
536.72	39463.77
536.89	38806.08
537.06	39084.61
537.23	39150.14
537.40	39269.51
537.57	39063.54
537.74	38855.23
537.91	39409.94
538.08	39290.57
538.25	39250.78
538.42	39580.80
538.59	39700.17
538.75	39117.37
538.92	39714.21
539.09	39746.98
539.26	39559.73
539.43	39379.51
539.60	39768.04
539.77	39309.30
539.94	39983.37
540.11	39452.07
540.28	40184.66
540.44	39887.41
540.61	39456.75
540.78	39475.48
540.95	39868.69
541.12	39583.14
541.29	39959.97
541.46	40172.96
541.62	40046.57
541.79	40409.35
541.96	40407.01
542.13	40170.61
542.30	40367.22
542.47	40130.83
542.63	40346.15
542.80	40275.94
542.97	40627.02
543.14	41188.75
543.31	41031.93
543.48	40524.04
543.64	41394.71
543.81	40858.73
543.98	40982.78
544.15	40912.56
544.32	40692.55
544.48	41163.00
544.65	40851.71
544.82	40975.76
544.99	40788.52
545.16	41511.74
545.32	41163.00
545.49	41310.46
545.66	41275.35
545.83	41731.75
546.00	41457.91
546.16	41464.93
546.33	41329.18
546.50	40971.08
546.67	41406.42
546.83	40919.59
547.00	41303.43
547.17	41441.53
547.34	41446.21
547.50	41830.05
547.67	42426.89
547.84	41581.96
548.00	41743.45
548.17	41773.88
548.34	41588.98
548.51	41949.42
548.67	42075.81
548.84	42450.30
549.01	41605.36
549.18	42026.66
549.34	42197.52
549.51	42164.75
549.68	42312.20
549.84	42370.72
550.01	41883.89
550.18	42286.46
550.34	42579.03
550.51	42291.14
550.68	42146.03
550.84	41970.49
551.01	42148.37
551.18	42110.92
551.34	41909.63
551.51	42649.24
551.68	42939.47
551.84	42518.17
552.01	42466.68
552.18	42382.42
552.34	42412.85
552.51	42906.70
552.68	42766.27
552.84	42986.28
553.01	43054.15
553.18	42979.26
553.34	42667.97
553.51	42595.41
553.67	43009.68
553.84	43131.39
554.01	43105.65
554.17	43150.12
554.34	43070.54
554.51	43318.64
554.67	43133.73
554.84	43164.16
555.00	43164.16
555.17	42974.58
555.33	42773.29
555.50	43040.11
555.67	42925.42
555.83	43306.93
556.00	42993.30
556.16	43096.28
556.33	43545.67
556.50	43363.11
556.66	43828.87
556.83	43269.48
556.99	44016.11
557.16	43543.33
557.32	43414.60
557.49	43700.14
557.65	42869.25
557.82	43674.40
557.98	43292.89
558.15	43454.39
558.32	43550.35
558.48	43524.60
558.65	43536.30
558.81	43311.61
558.98	43618.22
559.14	43662.69
559.31	43758.66
559.47	43964.62
559.64	43812.49
559.80	44123.78
559.97	43896.75
560.13	43878.02
560.30	43948.24
560.46	43615.88
560.63	43782.06
560.79	43761.00
560.96	44325.07
561.12	43824.19
561.29	43730.57
561.45	44486.56
561.61	44278.25
561.78	44067.61
561.94	43887.39
562.11	43927.17
562.27	43779.72
562.44	44079.31
562.60	43938.88
562.77	44484.22
562.93	44226.76
563.10	44243.15
563.26	43920.15
563.42	43875.68
563.59	44025.48
563.75	43817.17
563.92	44467.84
564.08	44568.48
564.24	44367.20
564.41	44580.18
564.57	44065.27
564.74	44498.26
564.90	44339.11
565.07	44481.88
565.23	44423.37
565.39	44364.85
565.56	44208.04
565.72	44158.89
565.88	43985.69
566.05	44233.78
566.21	44306.34
566.38	44278.25
566.54	44121.44
566.70	44182.29
566.87	44605.93
567.03	44168.25
567.19	44802.53
567.36	44645.72
567.52	44842.32
567.68	44725.30
567.85	44488.90
568.01	44343.79
568.17	44219.74
568.34	45006.16
568.50	44215.06
568.66	44591.89
568.83	44313.36
568.99	44371.88
569.15	44729.98
569.32	44392.94
569.48	44418.69
569.64	44715.93
569.81	44435.07
569.97	44781.47
570.13	44531.03
570.30	43978.67
570.46	44184.63
570.62	44680.83
570.78	44481.88
570.95	43863.98
571.11	44397.62
571.27	44634.02
571.43	44755.72
571.60	44924.24
571.76	44385.92
571.92	44596.57
572.09	44725.30
572.25	44327.41
572.41	44219.74
572.57	44484.22
572.74	45219.15
572.90	44612.95
573.06	44971.05
573.22	44748.70
573.38	44945.31
573.55	44453.79
573.71	44507.63
573.87	44432.73
574.03	44835.30
574.20	44690.19
574.36	45041.27
574.52	44765.09
574.68	44910.20
574.84	44641.04
575.01	44591.89
575.17	44781.47
575.33	44800.19
575.49	44467.84
575.65	45205.11
575.82	44905.52
575.98	44559.12
576.14	45235.53
576.30	44900.84
576.46	44893.82
576.62	44924.24
576.79	44390.60
576.95	44722.96
577.11	44687.85
577.27	45272.98
577.43	44879.77
577.59	44751.04
577.75	44612.95
577.92	44357.83
578.08	44357.83
578.24	44856.37
578.40	44540.39
578.56	44893.82
578.72	44430.39
578.88	45214.47
579.04	45113.83
579.21	44442.09
579.37	44493.58
579.53	45113.83
579.69	44634.02
579.85	44830.62
580.01	45237.87
580.17	44968.71
580.33	44964.03
580.49	45177.02
580.65	45085.74
580.82	45031.91
580.98	45109.14
581.14	44945.31
581.30	45254.26
581.46	44907.86
581.62	44713.59
581.78	44949.99
581.94	45272.98
582.10	44896.16
582.26	45013.18
582.42	45024.89
582.58	45059.99
582.74	44842.32
582.90	44933.60
583.06	45074.04
583.22	45446.18
583.38	45230.85
583.54	44964.03
583.70	44849.35
583.86	45265.96
584.02	44891.48
584.18	44861.05
584.34	44942.97
584.50	45312.77
584.66	45219.15
584.82	44797.85
584.98	45399.37
585.14	44896.16
585.30	44797.85
585.46	45050.63
585.62	44643.38
585.78	45015.52
585.94	44701.89
586.10	44802.53
586.26	44788.49
586.42	45090.42
586.58	44919.56
586.74	45151.27
586.90	45003.82
587.06	44774.45
587.22	44704.23
587.38	44828.28
587.54	45308.09
587.70	44863.39
587.86	45034.25
588.02	45172.34
588.18	44917.22
588.34	45340.86
588.49	45041.27
588.65	44533.37
588.81	44884.45
588.97	44765.09
589.13	45076.38
589.29	44858.71
589.45	44875.09
589.61	45029.57
589.77	45333.84
589.93	44856.37
590.08	45514.06
590.24	45303.41
590.40	45237.87
590.56	45603.00
590.72	44804.88
590.88	44720.62
591.04	44542.74
591.20	45535.12
591.35	45457.88
591.51	45780.88
591.67	45022.54
591.83	45216.81
591.99	45069.36
592.15	45453.20
592.31	45277.66
592.46	44800.19
592.62	45338.52
592.78	45184.04
592.94	45387.67
593.10	45303.41
593.26	44994.46
593.41	45478.95
593.57	45331.50
593.73	45577.25
593.89	45385.33
594.05	45668.53
594.20	45443.84
594.36	45764.49
594.52	45448.52
594.68	45249.58
594.84	45467.25
594.99	45806.62
595.15	45298.73
595.31	45537.46
595.47	45375.97
595.62	45703.64
595.78	45247.24
595.94	45705.98
596.10	45471.93
596.25	45361.92
596.41	45680.24
596.57	45195.74
596.73	45453.20
596.88	45116.17
597.04	45312.77
597.20	45675.55
597.36	45195.74
597.51	45610.02
597.67	45457.88
597.83	45317.45
597.99	45638.11
598.14	45792.58
598.30	45516.40
598.46	45298.73
598.61	45375.97
598.77	44882.11
598.93	45153.62
599.09	45694.28
599.24	45921.31
599.40	45586.61
599.56	46054.72
599.71	45303.41
599.87	45373.63
600.03	45825.35
600.18	45820.67
600.34	45425.12
600.50	45736.41
600.65	45254.26
600.81	45565.55
600.97	45691.94
601.12	45710.66
601.28	45619.38
601.44	45624.06
601.59	45193.40
601.75	45027.23
601.91	45558.53
602.06	45287.03
602.22	45181.70
602.37	45617.04
602.53	45347.88
602.69	45586.61
602.84	45294.05
603.00	45394.69
603.16	45151.27
603.31	45427.46
603.47	44982.76
603.62	45476.61
603.78	45270.64
603.94	45628.74
604.09	45528.10
604.25	45591.30
604.40	45413.41
604.56	45834.71
604.71	45743.43
604.87	45158.30
605.03	45059.99
605.18	45247.24
605.34	45434.48
605.49	44460.82
605.65	45265.96
605.80	45471.93
605.96	45603.00
606.12	45315.11
606.27	45563.21
606.43	45385.33
606.58	45074.04
606.74	45397.03
606.89	45352.56
607.05	45235.53
607.20	45773.86
607.36	44718.28
607.51	45455.54
607.67	45610.02
607.82	45432.14
607.98	45055.31
608.13	45249.58
608.29	45357.24
608.44	44849.35
608.60	44449.11
608.75	44971.05
608.91	44816.58
609.06	44722.96
609.22	45371.28
609.37	44821.26
609.53	45083.40
609.68	44992.12
609.84	45361.92
609.99	44715.93
610.15	44769.77
610.30	44652.74
610.46	44683.17
610.61	44823.60
610.76	44818.92
610.92	44861.05
611.07	44655.08
611.23	44673.81
611.38	44921.90
611.54	44498.26
611.69	44893.82
611.84	44645.72
612.00	44758.06
612.15	44697.21
612.31	44797.85
612.46	44989.78
612.62	44339.11
612.77	45003.82
612.92	44889.13
613.08	44512.31
613.23	44931.26
613.39	44779.13
613.54	44481.88
613.69	44355.49
613.85	44481.88
614.00	44680.83
614.15	44399.96
614.31	44470.18
614.46	44734.66
614.62	44877.43
614.77	44669.12
614.92	44179.95
615.08	44362.51
615.23	43873.34
615.38	44399.96
615.54	44062.93
615.69	44535.71
615.84	43943.56
616.00	43943.56
616.15	44058.24
616.30	44449.11
616.46	44009.09
616.61	44055.90
616.76	44304.00
616.92	43800.79
617.07	44184.63
617.22	44020.80
617.37	44025.48
617.53	44182.29
617.68	43983.35
617.83	43878.02
617.99	43988.03
618.14	43990.37
618.29	43814.83
618.45	43964.62
618.60	43716.53
618.75	43812.49
618.90	43768.02
619.06	43803.13
619.21	43529.28
619.36	43892.07
619.51	43840.57
619.67	43936.54
619.82	43618.22
619.97	44465.50
620.12	43213.31
620.28	43283.53
620.43	43573.75
620.58	43910.79
620.73	43810.15
620.89	43709.50
621.04	43372.47
621.19	43775.04
621.34	43608.86
621.49	43220.33
621.65	43009.68
621.80	43545.67
621.95	43112.67
622.10	43222.67
622.25	43037.77
622.41	43112.67
622.56	42979.26
622.71	43566.73
622.86	43412.26
623.01	43302.25
623.16	43388.85
623.32	43620.56
623.47	43735.25
623.62	43491.83
623.77	43084.58
623.92	43042.45
624.07	42829.46
624.23	42789.67
624.38	43079.90
624.53	42380.08
624.68	42981.60
624.83	42974.58
624.98	42939.47
625.13	42457.32
625.29	43283.53
625.44	42616.47
625.59	42473.70
625.74	42630.52
625.89	42511.15
626.04	42405.83
626.19	42719.46
626.34	42717.12
626.49	42632.86
626.65	42670.31
626.80	42508.81
626.95	42178.79
627.10	42391.78
627.25	42595.41
627.40	41811.33
627.55	42370.72
627.70	41638.13
627.85	42190.50
628.00	42003.25
628.15	42586.05
628.30	42529.87
628.45	42405.83
628.60	42527.53
628.76	42515.83
628.91	41989.21
629.06	42265.39
629.21	42454.98
629.36	41970.49
629.51	41537.49
629.66	41797.29
629.81	41907.29
629.96	41750.48
630.11	41895.59
630.26	42101.56
630.41	42237.31
630.56	41921.34
630.71	41930.70
630.86	42021.98
631.01	41633.45
631.16	42256.03
631.31	41172.36
631.46	41364.29
631.61	41677.92
631.76	41706.01
631.91	41652.17
632.06	41186.41
632.21	41841.76
632.36	42213.90
632.51	41698.98
632.66	41490.68
632.81	40891.50
632.96	41563.23
633.10	41567.91
633.25	41481.31
633.40	41446.21
633.55	41457.91
633.70	41535.15
633.85	41216.83
634.00	41237.90
634.15	41200.45
634.30	40966.40
634.45	40992.14
634.60	40865.75
634.75	41280.03
634.90	41265.99
635.05	40975.76
635.19	40830.65
635.34	40982.78
635.49	41134.92
635.64	40339.13
635.79	40566.16
635.94	40788.52
636.09	40917.25
636.24	40612.98
636.39	40561.48
636.53	40236.15
636.68	40898.52
636.83	40655.11
636.98	40512.33
637.13	40589.57
637.28	40739.36
637.43	40390.62
637.57	40844.69
637.72	40322.75
637.87	40608.29
638.02	40367.22
638.17	40573.19
638.32	40002.10
638.46	40289.98
638.61	40219.77
638.76	39875.71
638.91	40620.00
639.06	40208.06
639.20	40332.11
639.35	40385.94
639.50	40243.17
639.65	40442.12
639.80	40418.71
639.94	40423.39
640.09	40179.98
640.24	40346.15
640.39	39871.03
640.54	39964.65
640.68	39929.54
640.83	39871.03
640.98	40282.96
641.13	39618.25
641.27	40030.18
641.42	39693.15
641.57	40215.08
641.72	40229.13
641.86	39398.24
642.01	39496.54
642.16	39999.76
642.31	39367.81
642.45	39847.62
642.60	39466.11
642.75	39442.71
642.90	39716.55
643.04	39686.12
643.19	38763.95
643.34	39952.94
643.48	39402.92
643.63	39702.51
643.78	39250.78
643.93	39384.19
644.07	39428.66
644.22	39159.50
644.37	39122.05
644.51	39084.61
644.66	39119.71
644.81	39033.11
644.95	39367.81
645.10	39407.60
645.25	39578.46
645.39	39580.80
645.54	39461.43
645.69	39269.51
645.83	38937.15
645.98	39438.03
646.13	39126.74
646.27	39122.05
646.42	38707.78
646.57	39222.70
646.71	39543.35
646.86	39061.20
647.00	39601.86
647.15	39026.09
647.30	39508.24
647.44	39447.39
647.59	39260.15
647.74	38682.03
647.88	38930.13
648.03	38995.67
648.17	38438.62
648.32	38651.61
648.47	38911.41
648.61	38857.57
648.76	38843.53
648.90	38396.49
649.05	38953.54
649.20	38873.96
649.34	38859.91
649.49	38422.23
649.63	38653.95
649.78	38600.12
649.92	38438.62
650.07	38787.36
650.21	38305.21
650.36	38548.62
650.51	38604.80
650.65	38808.42
650.80	39056.52
650.94	38508.83
651.09	38408.19
651.23	38281.80
651.38	38363.72
651.52	38050.09
651.67	38335.63
651.81	38333.29
651.96	38089.88
652.10	37947.11
652.25	37839.44
652.39	37919.02
652.54	37958.81
652.68	38682.03
652.83	38305.21
652.97	38412.87
653.12	38148.39
653.26	37935.40
653.41	38057.11
653.55	37972.85
653.70	37603.05
653.84	37600.71
653.99	38312.23
654.13	38398.83
654.27	37612.41
654.42	37581.98
654.56	37717.73
654.71	37982.21
654.85	37600.71
655.00	38019.66
655.14	37153.66
655.29	37160.69
655.43	37677.94
655.57	37006.21
655.72	37235.58
655.86	37663.90
656.01	37240.26
656.15	37244.94
656.30	36877.48
656.44	37376.01
656.58	37132.60
656.73	37111.53
656.87	37240.26
657.01	36694.92
657.16	36683.22
657.30	36605.98
657.45	36484.27
657.59	37347.93
657.73	36912.59
657.88	37284.73
658.02	36825.99
658.16	36928.97
658.31	37097.49
658.45	37385.38
658.60	37013.23
658.74	37029.62
658.88	37120.90
659.03	36498.31
659.17	36676.19
659.31	36343.84
659.46	36723.01
659.60	36652.79
659.74	36474.91
659.89	36247.88
660.03	36304.05
660.17	36552.15
660.32	36573.21
660.46	36772.16
660.60	36678.54
660.74	36755.77
660.89	36622.36
661.03	36243.20
661.17	36065.31
661.32	35952.97
661.46	35849.99
661.60	35459.12
661.74	35864.03
661.89	36025.53
662.03	35892.12
662.17	35477.84
662.31	35503.59
662.46	35477.84
662.60	36278.30
662.74	35646.36
662.88	35721.26
663.03	35435.71
663.17	35342.09
663.31	35222.72
663.45	35449.75
663.60	35019.10
663.74	35005.05
663.88	35271.87
664.02	35372.52
664.17	35414.65
664.31	34550.99
664.45	35009.73
664.59	35061.22
664.73	34913.77
664.88	34759.30
665.02	34227.99
665.16	35028.46
665.30	34642.27
665.44	34600.14
665.59	34380.13
665.73	34810.79
665.87	34293.53
666.01	34321.62
666.15	34452.69
666.29	34122.67
666.44	34263.10
666.58	34415.24
666.72	34558.01
666.86	34146.08
667.00	34504.18
667.14	34338.00
667.28	34181.18
667.43	34139.05
667.57	34272.46
667.71	33958.83
667.85	34099.26
667.99	33713.08
668.13	33703.71
668.27	33766.91
668.41	33923.72
668.56	33219.22
668.70	33727.12
668.84	33064.75
668.98	33256.67
669.12	33333.91
669.26	33446.26
669.40	33172.41
669.54	33202.84
669.68	33048.36
669.82	33116.24
669.96	32954.74
670.10	32781.54
670.25	33088.15
670.39	33003.89
670.53	32936.02
670.67	32835.38
670.81	33069.43
670.95	32994.53
671.09	32821.33
671.23	32842.40
671.37	32891.55
671.51	32257.26
671.65	32261.94
671.79	32505.36
671.93	32173.00
672.07	32657.49
672.21	32360.25
672.35	31892.14
672.49	32046.62
672.63	32170.66
672.77	31831.29
672.91	31964.70
673.05	31962.36
673.19	32135.56
673.33	31622.98
673.47	31676.81
673.61	31552.76
673.75	31269.56
673.89	30941.88
674.03	31194.66
674.17	31255.51
674.31	31302.32
674.45	30483.14
674.59	30841.24
674.73	31168.91
674.87	31166.57
675.01	30810.81
675.15	30593.14
675.29	31077.63
675.43	30756.98
675.56	30644.63
675.70	30684.42
675.84	30696.13
675.98	29507.13
676.12	30457.39
676.26	30122.69
676.40	30195.25
676.54	30017.37
676.68	30363.77
676.82	29535.22
676.96	29811.40
677.10	29717.78
677.23	29600.76
677.37	29638.20
677.51	29425.22
677.65	29546.92
677.79	29020.30
677.93	29071.79
678.07	28713.69
678.21	28776.89
678.34	28870.51
678.48	28353.25
678.62	28896.25
678.76	28673.90
678.90	28126.22
679.04	28580.28
679.18	28348.57
679.31	28161.33
679.45	27927.27
679.59	27953.02
679.73	28114.52
679.87	28002.17
680.00	27709.60
680.14	27821.95
680.28	27491.93
680.42	27475.55
680.56	27728.33
680.70	27573.85
680.83	27388.95
680.97	27250.86
681.11	27182.98
681.25	26661.04
681.39	26799.13
681.52	27129.15
681.66	27152.55
681.80	26831.90
681.94	26583.80
682.07	26677.43
682.21	26398.90
682.35	26333.37
682.49	26127.40
682.62	26532.31
682.76	26288.90
682.90	26354.43
683.04	25961.22
683.17	25898.03
683.31	26089.95
683.45	25898.03
683.59	26012.71
683.72	25441.62
683.86	25380.77
684.00	25062.46
684.13	25483.75
684.27	25525.88
684.41	25240.34
684.55	24980.54
684.68	25062.46
684.82	24950.11
684.96	24631.80
685.09	24980.54
685.23	24507.75
685.37	24978.20
685.50	24566.26
685.64	24474.98
685.78	24304.12
685.91	24699.67
686.05	24315.83
686.19	23920.28
686.32	24002.19
686.46	23616.01
686.60	23651.11
686.73	23964.75
686.87	23323.44
687.01	23358.55
687.14	23419.40
687.28	23023.85
687.42	23056.62
687.55	23098.75
687.69	22911.50
687.82	23187.69
687.96	23147.90
688.10	22801.50
688.23	22740.64
688.37	22731.28
688.50	22345.09
688.64	22656.39
688.78	22476.16
688.91	22412.97
689.05	22410.63
689.18	22197.64
689.32	21879.33
689.46	21963.59
689.59	22139.13
689.73	22326.37
689.86	21937.84
690.00	21523.57
690.13	22202.32
690.27	21612.51
690.41	21497.82
690.54	21539.95
690.68	21521.23
690.81	21003.97
690.95	20996.95
691.08	20924.39
691.22	21142.06
691.35	20879.92
691.49	20947.79
691.62	21123.33
691.76	21057.80
691.89	21074.18
692.03	20496.07
692.16	20058.39
692.30	20430.54
692.43	20547.56
692.57	20116.90
692.70	20301.81
692.84	19936.68
692.97	19929.66
693.11	19690.93
693.24	19962.43
693.38	19721.35
693.51	19522.41
693.65	19590.28
693.78	19552.84
693.92	19468.58
694.05	19309.42
694.19	19321.12
694.32	19140.90
694.45	19367.93
694.59	19246.23
694.72	19073.03
694.86	19227.50
694.99	18654.07
695.13	18677.48
695.26	18546.40
695.39	18424.70
695.53	18284.26
695.66	18506.62
695.80	18597.90
695.93	18097.02
696.07	18010.42
696.20	18307.67
696.33	18155.54
696.47	17989.36
696.60	17811.48
696.73	17893.40
696.87	18115.75
697.00	17919.14
697.14	17666.36
697.27	17551.68
697.40	17563.38
697.54	17483.80
697.67	17315.28
697.80	17617.21
697.94	17118.68
698.07	17345.71
698.21	17268.47
698.34	17106.98
698.47	16985.27
698.61	16699.72
698.74	16699.72
698.87	16978.25
699.01	16449.28
699.14	16360.34
699.27	16236.30
699.40	16084.16
699.54	16102.89
699.67	16030.33
699.80	16210.55
699.94	16046.71
700.07	16145.02
700.20	16161.40
700.34	15822.02
700.47	15843.09
700.60	15992.88
700.73	16009.26
700.87	15571.58
701.00	15594.99
701.13	15307.10
701.26	15639.46
701.40	15384.34
701.53	15105.82
701.66	15431.15
701.79	15185.40
701.93	15255.61
702.06	14848.36
702.19	14806.23
702.32	15051.99
702.46	14890.49
702.59	14724.31
702.72	14829.63
702.85	14750.06
702.99	14789.85
703.12	14808.57
703.25	14541.75
703.38	14764.10
703.51	14094.71
703.65	14314.72
703.78	14417.70
703.91	14071.30
704.04	14040.87
704.17	14288.97
704.31	14118.11
704.44	13607.87
704.57	13642.98
704.70	13647.66
704.83	13799.80
704.96	13610.22
705.10	13818.52
705.23	13844.27
>>>>>End Processed Spectral Data<<<<<
