SpectraSuite Data File
++++++++++++++++++++++++++++++++++++
Date: Fri Oct 25 10:44:51 EDT 2013
User: price-jones
Dark Spectrum Present: No
Reference Spectrum Present: No
Number of Sampled Component Spectra: 1
Spectrometers: USB2+H05261
Integration Time (usec): 100000 (USB2+H05261)
Spectra Averaged: 1 (USB2+H05261)
Boxcar Smoothing: 0 (USB2+H05261)
Correct for Electrical Dark: No (USB2+H05261)
Strobe/Lamp Enabled: No (USB2+H05261)
Correct for Detector Non-linearity: No (USB2+H05261)
Correct for Stray Light: No (USB2+H05261)
Number of Pixels in Processed Spectrum: 2048
>>>>>Begin Processed Spectral Data<<<<<
365.73	142.77
365.92	142.77
366.12	142.77
366.32	49.15
366.52	49.15
366.72	72.56
366.91	18.72
367.11	56.17
367.31	0.00
367.51	0.00
367.70	117.03
367.90	63.19
368.10	74.90
368.30	44.47
368.49	23.41
368.69	105.32
368.89	35.11
369.09	56.17
369.28	42.13
369.48	79.58
369.68	117.03
369.87	74.90
370.07	138.09
370.27	84.26
370.47	154.48
370.66	287.89
370.86	358.10
371.06	482.15
371.25	463.43
371.45	418.96
371.65	437.68
371.84	491.51
372.04	425.98
372.24	449.38
372.44	451.72
372.63	491.51
372.83	526.62
373.03	531.30
373.22	414.27
373.42	521.94
373.62	463.43
373.81	465.77
374.01	587.47
374.21	512.58
374.40	575.77
374.60	524.28
374.79	561.73
374.99	533.64
375.19	545.34
375.38	545.34
375.58	531.30
375.78	599.18
375.97	615.56
376.17	603.86
376.37	615.56
376.56	589.82
376.76	578.11
376.95	557.05
377.15	533.64
377.35	599.18
377.54	585.13
377.74	552.37
377.93	650.67
378.13	617.90
378.33	627.26
378.52	622.58
378.72	615.56
378.91	617.90
379.11	631.94
379.31	601.52
379.50	622.58
379.70	667.05
379.89	559.39
380.09	678.76
380.28	638.97
380.48	653.01
380.68	713.86
380.87	608.54
381.07	596.84
381.26	723.23
381.46	737.27
381.65	777.06
381.85	636.63
382.04	671.73
382.24	667.05
382.43	650.67
382.63	683.44
382.83	657.69
383.02	660.03
383.22	746.63
383.41	690.46
383.61	681.10
383.80	720.88
384.00	781.74
384.19	748.97
384.39	725.57
384.58	826.21
384.78	800.46
384.97	732.59
385.17	802.80
385.36	739.61
385.56	748.97
385.75	695.14
385.95	793.44
386.14	781.74
386.34	730.25
386.53	851.96
386.72	786.42
386.92	777.06
387.11	840.25
387.31	767.70
387.50	821.53
387.70	720.88
387.89	828.55
388.09	805.14
388.28	837.91
388.48	805.14
388.67	894.08
388.86	887.06
389.06	840.25
389.25	983.02
389.45	936.21
389.64	968.98
389.84	847.27
390.03	931.53
390.22	959.62
390.42	842.59
390.61	863.66
390.81	828.55
391.00	1001.75
391.19	961.96
391.39	933.87
391.58	1020.47
391.78	858.98
391.97	887.06
392.16	880.04
392.36	1022.81
392.55	964.30
392.75	854.30
392.94	973.66
393.13	912.81
393.33	866.00
393.52	945.58
393.71	950.26
393.91	1067.28
394.10	968.98
394.29	1069.62
394.49	1090.69
394.68	1151.54
394.88	1025.15
395.07	1181.97
395.26	1104.73
395.46	1095.37
395.65	1142.18
395.84	1123.46
396.04	1205.38
396.23	1165.59
396.42	1041.54
396.62	1095.37
396.81	1156.22
397.00	1163.25
397.19	1184.31
397.39	1207.72
397.58	1289.64
397.77	1191.33
397.97	1238.14
398.16	1299.00
398.35	1355.17
398.55	1275.59
398.74	1390.28
398.93	1352.83
399.12	1233.46
399.32	1303.68
399.51	1404.32
399.70	1434.75
399.90	1376.24
400.09	1394.96
400.28	1427.73
400.47	1315.38
400.67	1502.62
400.86	1467.52
401.05	1486.24
401.24	1467.52
401.44	1500.28
401.63	1462.83
401.82	1540.07
402.01	1504.96
402.21	1563.48
402.40	1542.41
402.59	1511.99
402.78	1558.80
402.97	1446.45
403.17	1596.25
403.36	1701.57
403.55	1582.20
403.74	1652.42
403.93	1607.95
404.13	1589.22
404.32	1650.08
404.51	1797.53
404.70	1671.14
404.89	1694.55
405.09	1701.57
405.28	1739.02
405.47	1729.66
405.66	1729.66
405.85	1739.02
406.05	1729.66
406.24	1757.74
406.43	1853.70
406.62	1886.47
406.81	1788.17
407.00	1846.68
407.20	1900.52
407.39	1884.13
407.58	1984.77
407.77	1970.73
407.96	1984.77
408.15	2050.31
408.34	1984.77
408.54	2052.65
408.73	1991.80
408.92	2036.27
409.11	2062.01
409.30	2026.90
409.49	1970.73
409.68	2076.06
409.87	2125.21
410.07	2186.06
410.26	2188.40
410.45	2188.40
410.64	2169.68
410.83	2223.51
411.02	2256.28
411.21	2345.22
411.40	2176.70
411.59	2258.62
411.78	2312.45
411.98	2263.30
412.17	2345.22
412.36	2347.56
412.55	2410.75
412.74	2363.94
412.93	2415.43
413.12	2408.41
413.31	2523.10
413.50	2558.21
413.69	2595.65
413.88	2595.65
414.07	2523.10
414.26	2581.61
414.45	2757.15
414.64	2738.43
414.83	2698.64
415.02	2677.57
415.22	2651.83
415.41	2759.49
415.60	2825.03
415.79	2747.79
415.98	2855.45
416.17	2895.24
416.36	2836.73
416.55	2958.44
416.74	2876.52
416.93	2920.99
417.12	3012.27
417.31	2942.05
417.50	2974.82
417.69	3187.81
417.88	3194.83
418.07	3063.76
418.26	3169.09
418.45	3143.34
418.64	3389.10
418.83	3260.37
419.02	3187.81
419.21	3295.47
419.39	3232.28
419.58	3232.28
419.77	3185.47
419.96	3311.86
420.15	3393.78
420.34	3375.05
420.53	3421.86
420.72	3496.76
420.91	3442.93
421.10	3417.18
421.29	3543.57
421.48	3379.73
421.67	3538.89
421.86	3527.19
422.05	3478.04
422.24	3482.72
422.43	3524.85
422.61	3524.85
422.80	3602.08
422.99	3548.25
423.18	3548.25
423.37	3529.53
423.56	3552.93
423.75	3503.78
423.94	3506.12
424.13	3321.22
424.32	3358.67
424.50	3623.15
424.69	3684.00
424.88	3770.60
425.07	3571.66
425.26	3536.55
425.45	3630.17
425.64	3449.95
425.83	3508.46
426.01	3562.30
426.20	3660.60
426.39	3735.50
426.58	3616.13
426.77	3550.59
426.96	3676.98
427.15	3616.13
427.33	3693.37
427.52	3768.26
427.71	3712.09
427.90	3679.32
428.09	3709.75
428.28	3709.75
428.46	3782.31
428.65	3882.95
428.84	3880.61
429.03	3896.99
429.22	3712.09
429.40	3805.71
429.59	3908.69
429.78	3786.99
429.97	3599.74
430.16	3686.34
430.34	3859.54
430.53	4032.74
430.72	3904.01
430.91	3892.31
431.10	3850.18
431.28	4039.76
431.47	3953.16
431.66	4308.93
431.85	4098.28
432.03	4264.46
432.22	4379.14
432.41	4177.86
432.60	4173.18
432.79	4161.47
432.97	4259.78
433.16	4159.13
433.35	4304.25
433.54	4325.31
433.72	4374.46
433.91	4311.27
434.10	4386.16
434.28	4306.59
434.47	4365.10
434.66	4531.28
434.85	4578.09
435.03	4564.04
435.22	4545.32
435.41	4669.37
435.59	4507.87
435.78	4699.80
435.97	4634.26
436.16	4489.15
436.34	4594.47
436.53	4592.13
436.72	4645.96
436.90	4465.74
437.09	4650.64
437.28	4669.37
437.46	4627.24
437.65	4779.37
437.84	4833.21
438.02	4791.08
438.21	5029.81
438.40	4636.60
438.58	4875.34
438.77	4760.65
438.96	5046.20
439.14	5020.45
439.33	5186.63
439.52	5226.42
439.70	5088.32
439.89	5062.58
440.08	5109.39
440.26	5233.44
440.45	5291.95
440.63	5238.12
440.82	5357.49
441.01	5210.03
441.19	5383.23
441.38	5516.64
441.57	5465.15
441.75	5614.95
441.94	5692.18
442.12	5673.46
442.31	5692.18
442.50	5799.85
442.68	5551.75
442.87	5640.69
443.05	5827.93
443.24	5797.51
443.43	5671.12
443.61	5720.27
443.80	5973.05
443.98	5727.29
444.17	5619.63
444.35	5898.15
444.54	5937.94
444.73	5785.80
444.91	5858.36
445.10	5987.09
445.28	5879.43
445.47	5975.39
445.65	5951.98
445.84	5996.45
446.02	6033.90
446.21	5994.11
446.39	5951.98
446.58	5942.62
446.77	6059.65
446.95	5949.64
447.14	5998.79
447.32	6040.92
447.51	6108.80
447.69	6003.47
447.88	6136.88
448.06	6085.39
448.25	6087.73
448.43	6008.16
448.62	5989.43
448.80	5888.79
448.99	6118.16
449.17	6108.80
449.36	6155.61
449.54	6256.25
449.73	6485.62
449.91	6305.40
450.10	6408.39
450.28	6483.28
450.46	6368.60
450.65	6431.79
450.83	6450.52
451.02	6342.85
451.20	6436.47
451.39	6569.88
451.57	6609.67
451.76	6417.75
451.94	6530.09
452.13	6497.33
452.31	6518.39
452.49	6473.92
452.68	6619.04
452.86	6604.99
453.05	6640.10
453.23	6740.74
453.42	6553.50
453.60	6569.88
453.78	6778.19
453.97	6628.40
454.15	6600.31
454.34	6689.25
454.52	6808.62
454.70	6710.32
454.89	6927.99
455.07	6785.21
455.26	6979.48
455.44	6874.15
455.62	7052.03
455.81	7208.85
455.99	7028.63
456.17	7059.06
456.36	7192.47
456.54	7145.66
456.73	7131.61
456.91	7377.37
457.09	7482.69
457.28	7328.22
457.46	7356.30
457.64	7463.97
457.83	7351.62
458.01	7206.51
458.19	7489.71
458.38	7255.66
458.56	7611.42
458.74	7410.14
458.93	7573.97
459.11	7611.42
459.29	7524.82
459.48	7454.61
459.66	7515.46
459.84	7569.29
460.03	7791.64
460.21	7854.84
460.39	7676.96
460.57	7681.64
460.76	7740.15
460.94	7674.62
461.12	7779.94
461.31	8119.32
461.49	7936.76
461.67	7723.77
461.85	8131.02
462.04	7873.56
462.22	8299.54
462.40	8102.93
462.59	7978.89
462.77	8105.28
462.95	7852.50
463.13	8095.91
463.32	8149.75
463.50	8128.68
463.68	8276.13
463.86	8105.28
464.05	7906.33
464.23	8135.70
464.41	8121.66
464.59	8222.30
464.78	8615.51
464.96	8147.40
465.14	8116.98
465.32	8280.82
465.50	8503.17
465.69	8425.93
465.87	8259.75
466.05	8603.81
466.23	8533.59
466.41	8292.52
466.60	8692.75
466.78	8423.59
466.96	8238.69
467.14	8484.44
467.32	8648.28
467.51	8592.11
467.69	8423.59
467.87	8463.38
468.05	8697.43
468.23	8531.25
468.41	8683.39
468.60	8854.25
468.78	8788.71
468.96	8788.71
469.14	8812.12
469.32	8922.12
469.50	8716.16
469.69	9032.13
469.87	8936.17
470.05	8997.02
470.23	9156.18
470.41	8870.63
470.59	8957.23
470.77	8982.98
470.95	9069.58
471.14	9153.84
471.32	9095.32
471.50	9254.48
471.68	9338.74
471.86	9598.54
472.04	9535.34
472.22	9628.96
472.40	9561.09
472.58	9392.57
472.77	9544.70
472.95	9795.14
473.13	9900.47
473.31	9675.77
473.49	9708.54
473.67	9668.75
473.85	9837.27
474.03	10148.56
474.21	10024.51
474.39	10127.50
474.57	10080.69
474.75	10071.33
474.93	10300.70
475.12	10256.23
475.30	10141.54
475.48	10256.23
475.66	10349.85
475.84	10471.56
476.02	10413.04
476.20	10480.92
476.38	10714.97
476.56	10841.36
476.74	10883.49
476.92	10703.27
477.10	10888.17
477.28	11019.24
477.46	11042.65
477.64	11056.69
477.82	11363.30
478.00	11555.22
478.18	11510.75
478.36	11527.14
478.54	11590.33
478.72	11672.25
478.90	11925.03
479.08	11791.62
479.26	12030.35
479.44	12170.79
479.62	12166.10
479.80	12175.47
479.98	12542.93
480.16	12360.37
480.34	12388.46
480.52	12613.15
480.70	12571.02
480.88	12257.39
481.06	12542.93
481.24	12765.28
481.41	12894.01
481.59	13099.98
481.77	13029.76
481.95	13062.53
482.13	13383.18
482.31	13336.37
482.49	13827.88
482.67	13820.86
482.85	13841.93
483.03	14036.19
483.21	14033.85
483.39	14029.17
483.57	14174.28
483.74	14551.11
483.92	14576.86
484.10	14375.57
484.28	14572.18
484.46	14911.55
484.64	15073.05
484.82	14693.88
485.00	15082.41
485.18	15321.15
485.35	15367.96
485.53	14897.51
485.71	15154.97
485.89	15517.75
486.07	15328.17
486.25	15662.86
486.43	15756.49
486.61	15726.06
486.78	16114.59
486.96	15978.84
487.14	15967.13
487.32	16388.43
487.50	16613.12
487.68	16683.34
487.85	16957.18
488.03	17132.72
488.21	17296.56
488.39	17207.62
488.57	17158.47
488.75	17479.12
488.92	17745.94
489.10	17664.02
489.28	17867.65
489.46	18012.76
489.64	18235.11
489.81	18630.66
489.99	18640.03
490.17	18590.88
490.35	18537.04
490.53	18544.06
490.70	18878.76
490.88	18925.57
491.06	19154.94
491.24	19316.44
491.41	19470.92
491.59	19321.12
491.77	19185.37
491.95	19356.23
492.13	19906.26
492.30	19646.46
492.48	20177.76
492.66	20205.84
492.84	20063.07
493.01	20533.52
493.19	20259.68
493.37	20762.89
493.54	20884.60
493.72	20847.15
493.90	20823.75
494.08	21177.17
494.25	21476.76
494.43	21135.04
494.61	21568.04
494.79	21720.17
494.96	21912.10
495.14	21598.46
495.32	21785.71
495.49	21685.06
495.67	21891.03
495.85	22394.25
496.02	22450.42
496.20	22747.67
496.38	22710.22
496.55	22628.30
496.73	23346.84
496.91	22857.67
497.09	22897.46
497.26	22766.39
497.44	22939.59
497.62	23126.83
497.79	23527.06
497.97	23461.53
498.14	23697.92
498.32	23960.06
498.50	23496.64
498.67	24355.61
498.85	24051.34
499.03	24283.06
499.20	24535.84
499.38	24144.97
499.56	24318.17
499.73	24493.71
499.91	24964.15
500.08	24690.31
500.26	24870.53
500.44	24584.99
500.61	24795.64
500.79	24659.88
500.97	24877.55
501.14	25362.04
501.32	25010.96
501.49	25516.52
501.67	25322.26
501.84	25579.71
502.02	25397.15
502.20	25560.99
502.37	26209.32
502.55	25914.41
502.72	26281.88
502.90	26064.21
503.07	26183.57
503.25	26438.69
503.43	26054.84
503.60	26328.69
503.78	26398.90
503.95	26106.34
504.13	26686.79
504.30	26621.25
504.48	26518.27
504.65	26721.90
504.83	27000.42
505.01	27201.71
505.18	27054.25
505.36	27576.19
505.53	27477.89
505.71	27728.33
505.88	27910.89
506.06	27505.98
506.23	27454.48
506.41	27728.33
506.58	27812.59
506.76	27969.40
506.93	28250.27
507.11	27920.25
507.28	28011.53
507.46	27927.27
507.63	28285.37
507.81	28233.88
507.98	28397.72
508.16	28247.93
508.33	28741.78
508.50	28601.35
508.68	28767.52
508.85	29247.33
509.03	28760.50
509.20	29034.35
509.38	29317.55
509.55	29497.77
509.73	29415.85
509.90	29326.91
510.08	29067.11
510.25	29202.86
510.42	29778.64
510.60	29933.11
510.77	29699.06
510.95	30274.83
511.12	29589.05
511.30	29626.50
511.47	30270.15
511.64	30398.88
511.82	30148.44
511.99	29862.90
512.17	30239.72
512.34	30560.37
512.51	30642.29
512.69	30529.95
512.86	30654.00
513.04	30822.51
513.21	30586.12
513.38	31000.40
513.56	30930.18
513.73	30775.70
513.90	31084.65
514.08	31105.72
514.25	31351.48
514.43	31374.88
514.60	31014.44
514.77	31634.68
514.95	31510.63
515.12	31494.25
515.29	31800.86
515.47	32313.44
515.64	31995.12
515.81	31531.70
515.99	31793.84
516.16	31508.29
516.33	31756.39
516.51	31866.39
516.68	31908.52
516.85	31772.77
517.03	32219.81
517.20	31943.63
517.37	32634.09
517.54	32650.47
517.72	32395.35
517.89	32409.40
518.06	32105.13
518.24	32346.20
518.41	32283.01
518.58	32879.85
518.75	32837.72
518.93	32882.19
519.10	32697.28
519.27	32910.27
519.45	33120.92
519.62	33095.18
519.79	33053.05
519.96	33174.75
520.14	33921.38
520.31	33502.43
520.48	33607.75
520.65	33345.61
520.83	33893.30
521.00	34117.99
521.17	33834.78
521.34	34120.33
521.52	34029.05
521.69	34057.14
521.86	34251.40
522.03	34274.80
522.20	34295.87
522.38	34590.78
522.55	34763.98
522.72	34473.75
522.89	34338.00
523.07	34649.29
523.24	34525.24
523.41	35140.80
523.58	34651.63
523.75	35124.42
523.92	34895.05
524.10	35314.00
524.27	34836.53
524.44	35063.57
524.61	35164.21
524.78	35299.96
524.96	35608.91
525.13	35435.71
525.30	35969.35
525.47	35962.33
525.64	35777.43
525.81	35346.77
525.98	35517.63
526.16	35196.98
526.33	35405.28
526.50	35789.13
526.67	35632.32
526.84	35585.50
527.01	35480.18
527.18	36315.75
527.36	35974.03
527.53	36641.09
527.70	36311.07
527.87	36561.51
528.04	36191.70
528.21	36261.92
528.38	35859.35
528.55	36528.74
528.72	36278.30
528.89	36685.56
529.07	36259.58
529.24	36542.78
529.41	36861.10
529.58	36788.54
529.75	36744.07
529.92	36943.02
530.09	37083.45
530.26	37097.49
530.43	37411.12
530.60	36680.88
530.77	37237.92
530.94	37464.96
531.11	37289.42
531.28	37214.52
531.46	37413.46
531.63	37202.82
531.80	37415.80
531.97	37420.48
532.14	37254.31
532.31	37448.57
532.48	37904.98
532.65	37977.53
532.82	37820.72
532.99	37479.00
533.16	37521.13
533.33	37832.42
533.50	37809.01
533.67	37979.87
533.84	38036.05
534.01	38242.01
534.18	37867.53
534.35	38185.84
534.52	38515.86
534.69	38249.03
534.86	38328.61
535.03	38384.79
535.20	38852.89
535.37	38960.56
535.54	38162.43
535.71	38717.14
535.88	38305.21
536.05	38721.82
536.22	38436.28
536.38	38328.61
536.55	38803.74
536.72	39192.27
536.89	38780.34
537.06	38630.54
537.23	38588.41
537.40	38529.90
537.57	38990.98
537.74	38726.50
537.91	39482.50
538.08	39267.17
538.25	38873.96
538.42	38740.55
538.59	39136.10
538.75	39065.88
538.92	38873.96
539.09	39241.42
539.26	39423.98
539.43	39218.02
539.60	39915.50
539.77	39285.89
539.94	39463.77
540.11	39524.63
540.28	39201.63
540.44	39559.73
540.61	39842.94
540.78	39395.90
540.95	39749.32
541.12	39566.76
541.29	40039.54
541.46	40074.65
541.62	39852.30
541.79	40051.25
541.96	39405.26
542.13	40282.96
542.30	39737.62
542.47	39899.11
542.63	39732.93
542.80	40184.66
542.97	40718.30
543.14	40769.79
543.31	40509.99
543.48	40662.13
543.64	41352.58
543.81	40849.37
543.98	40687.87
544.15	40535.74
544.32	41088.10
544.48	41123.21
544.65	40952.35
544.82	41043.63
544.99	41106.83
545.16	40931.29
545.32	40900.86
545.49	41521.10
545.66	41230.88
545.83	41556.21
546.00	41794.95
546.16	41113.85
546.33	40893.84
546.50	40486.59
546.67	40882.14
546.83	41263.64
547.00	41031.93
547.17	41148.96
547.34	41666.22
547.50	41661.54
547.67	41703.67
547.84	41560.89
548.00	41535.15
548.17	41759.84
548.34	41748.14
548.51	42068.79
548.67	41823.03
548.84	41738.77
549.01	41443.87
549.18	42054.75
549.34	41769.20
549.51	41680.26
549.68	41954.10
549.84	41874.52
550.01	42227.95
550.18	42155.39
550.34	42403.49
550.51	42124.96
550.68	41837.08
550.84	42082.83
551.01	42162.41
551.18	42115.60
551.34	42600.09
551.51	41771.54
551.68	42335.61
551.84	42337.95
552.01	42337.95
552.18	42337.95
552.34	42131.98
552.51	42162.41
552.68	42370.72
552.84	42731.16
553.01	42742.86
553.18	42403.49
553.34	42588.39
553.51	42382.42
553.67	42679.67
553.84	43131.39
554.01	42574.34
554.17	43030.75
554.34	42834.14
554.51	42885.64
554.67	42939.47
554.84	42824.78
555.00	42583.71
555.17	43302.25
555.33	42607.11
555.50	42534.56
555.67	42852.87
555.83	42852.87
556.00	42969.90
556.16	43784.40
556.33	43157.14
556.50	42869.25
556.66	43372.47
556.83	43100.97
556.99	43349.06
557.16	43264.80
557.32	43346.72
557.49	43838.23
557.65	43302.25
557.82	43147.78
557.98	43676.74
558.15	43620.56
558.32	43505.88
558.48	43358.42
558.65	43487.15
558.81	43189.91
558.98	43391.19
559.14	43758.66
559.31	43152.46
559.47	43391.19
559.64	44048.88
559.80	43824.19
559.97	43625.25
560.13	43379.49
560.30	43707.16
560.46	43466.09
560.63	43318.64
560.79	44121.44
560.96	43763.34
561.12	43817.17
561.29	43985.69
561.45	43852.28
561.61	43672.06
561.78	43749.29
561.94	43473.11
562.11	43948.24
562.27	43744.61
562.44	43557.37
562.60	44065.27
562.77	44013.77
562.93	44011.43
563.10	44392.94
563.26	43721.21
563.42	44051.22
563.59	43604.18
563.75	43665.03
563.92	43990.37
564.08	43913.13
564.24	44116.76
564.41	44107.40
564.57	43597.16
564.74	43922.49
564.90	43800.79
565.07	43976.33
565.23	44383.58
565.39	44076.97
565.56	44016.11
565.72	43969.30
565.88	44130.80
566.05	44013.77
566.21	43990.37
566.38	44318.04
566.54	44236.12
566.70	44123.78
566.87	44680.83
567.03	44378.90
567.19	44449.11
567.36	44215.06
567.52	44343.79
567.68	44360.17
567.85	44453.79
568.01	44554.44
568.17	43863.98
568.34	43903.77
568.50	44175.27
568.66	44257.19
568.83	44367.20
568.99	43442.68
569.15	43948.24
569.32	43995.05
569.48	43665.03
569.64	44659.76
569.81	44666.78
569.97	44479.54
570.13	44229.10
570.30	44538.05
570.46	44051.22
570.62	43910.79
570.78	43901.43
570.95	44079.31
571.11	44378.90
571.27	44189.31
571.43	44030.16
571.60	44210.38
571.76	43718.87
571.92	44196.34
572.09	44376.56
572.25	43990.37
572.41	44201.02
572.57	44350.81
572.74	44783.81
572.90	44456.14
573.06	44744.02
573.22	44921.90
573.38	44229.10
573.55	44130.80
573.71	44502.95
573.87	44432.73
574.03	44172.93
574.20	44285.28
574.36	44371.88
574.52	44603.59
574.68	44563.80
574.84	44718.28
575.01	44589.55
575.17	44484.22
575.33	44229.10
575.49	44048.88
575.65	44282.94
575.82	44811.90
575.98	44311.02
576.14	44540.39
576.30	44905.52
576.46	44456.14
576.62	44505.29
576.79	44233.78
576.95	44299.32
577.11	44364.85
577.27	44435.07
577.43	44442.09
577.59	44783.81
577.75	44626.99
577.92	44378.90
578.08	44367.20
578.24	44573.16
578.40	44231.44
578.56	44247.83
578.72	44371.88
578.88	45247.24
579.04	45062.33
579.21	44463.16
579.37	44559.12
579.53	44729.98
579.69	44137.82
579.85	44493.58
580.01	44781.47
580.17	44636.36
580.33	45205.11
580.49	44634.02
580.65	44669.12
580.82	45062.33
580.98	44327.41
581.14	44629.34
581.30	44914.88
581.46	44552.10
581.62	44790.83
581.78	44863.39
581.94	45109.14
582.10	44320.38
582.26	44727.64
582.42	44720.62
582.58	44854.03
582.74	44657.42
582.90	45055.31
583.06	45055.31
583.22	44458.48
583.38	44818.92
583.54	45022.54
583.70	45083.40
583.86	44994.46
584.02	44516.99
584.18	45118.51
584.34	44992.12
584.50	44753.38
584.66	44240.81
584.82	44659.76
584.98	44847.00
585.14	45186.38
585.30	44505.29
585.46	44928.92
585.62	44531.03
585.78	44795.51
585.94	44275.91
586.10	44739.34
586.26	44500.61
586.42	44992.12
586.58	44947.65
586.74	44783.81
586.90	44739.34
587.06	44816.58
587.22	45062.33
587.38	44423.37
587.54	44809.56
587.70	45081.06
587.86	44652.74
588.02	44781.47
588.18	44870.41
588.34	44493.58
588.49	44128.46
588.65	44102.71
588.81	44739.34
588.97	44435.07
589.13	44062.93
589.29	44793.17
589.45	44769.77
589.61	44872.75
589.77	45074.04
589.93	44774.45
590.08	44830.62
590.24	45104.46
590.40	45425.12
590.56	45081.06
590.72	44774.45
590.88	44706.57
591.04	44825.94
591.20	45148.93
591.35	45338.52
591.51	45022.54
591.67	44954.67
591.83	45104.46
591.99	45020.20
592.15	44935.95
592.31	44865.73
592.46	45340.86
592.62	45029.57
592.78	44926.58
592.94	45284.68
593.10	45118.51
593.26	45081.06
593.41	44767.43
593.57	44947.65
593.73	44624.65
593.89	44921.90
594.05	45015.52
594.20	44905.52
594.36	45027.23
594.52	44856.37
594.68	45387.67
594.84	44821.26
594.99	45406.39
595.15	45125.53
595.31	45085.74
595.47	45076.38
595.62	45106.80
595.78	45270.64
595.94	45366.60
596.10	44818.92
596.25	45347.88
596.41	45448.52
596.57	45120.85
596.73	45034.25
596.88	44968.71
597.04	44980.42
597.20	44732.32
597.36	45111.49
597.51	45057.65
597.67	45385.33
597.83	45242.56
597.99	45024.89
598.14	45715.34
598.30	45010.84
598.46	44727.64
598.61	45212.13
598.77	45106.80
598.93	45069.36
599.09	45368.94
599.24	45270.64
599.40	45619.38
599.56	45460.23
599.71	45263.62
599.87	45633.42
600.03	45207.45
600.18	45069.36
600.34	45511.72
600.50	45319.79
600.65	45010.84
600.81	45434.48
600.97	45453.20
601.12	45289.37
601.28	45205.11
601.44	45045.95
601.59	45265.96
601.75	44839.98
601.91	44809.56
602.06	44928.92
602.22	45439.16
602.37	45090.42
602.53	45319.79
602.69	45137.23
602.84	45565.55
603.00	45170.00
603.16	45055.31
603.31	45015.52
603.47	45230.85
603.62	44978.07
603.78	45387.67
603.94	44910.20
604.09	45572.57
604.25	44891.48
604.40	45287.03
604.56	44891.48
604.71	45722.37
604.87	44493.58
605.03	45081.06
605.18	44741.68
605.34	44896.16
605.49	44715.93
605.65	44945.31
605.80	44751.04
605.96	44816.58
606.12	45036.59
606.27	45085.74
606.43	45048.29
606.58	44975.73
606.74	44634.02
606.89	44783.81
607.05	45347.88
607.20	44968.71
607.36	44685.51
607.51	45146.59
607.67	45069.36
607.82	45179.36
607.98	44875.09
608.13	44830.62
608.29	44816.58
608.44	44804.88
608.60	44786.15
608.75	44491.24
608.91	44685.51
609.06	44760.40
609.22	45003.82
609.37	44566.14
609.53	44861.05
609.68	44575.50
609.84	44994.46
609.99	45013.18
610.15	44547.42
610.30	44605.93
610.46	44240.81
610.61	44685.51
610.76	44767.43
610.92	44498.26
611.07	44516.99
611.23	44509.97
611.38	45001.48
611.54	44406.98
611.69	44498.26
611.84	44442.09
612.00	44765.09
612.15	43859.30
612.31	44531.03
612.46	44477.20
612.62	44280.60
612.77	44179.95
612.92	44704.23
613.08	44179.95
613.23	44046.54
613.39	44100.37
613.54	43840.57
613.69	44137.82
613.85	44179.95
614.00	44201.02
614.15	44467.84
614.31	44177.61
614.46	44629.34
614.62	44201.02
614.77	44013.77
614.92	44119.10
615.08	44062.93
615.23	43901.43
615.38	43655.67
615.54	43627.59
615.69	43599.50
615.84	44020.80
616.00	43842.92
616.15	43583.12
616.30	44243.15
616.46	43828.87
616.61	43636.95
616.76	43489.49
616.92	43423.96
617.07	43098.62
617.22	43115.01
617.37	43489.49
617.53	43913.13
617.68	43840.57
617.83	44100.37
617.99	43550.35
618.14	43686.10
618.29	44018.46
618.45	43386.51
618.60	43447.36
618.75	43819.51
618.90	43426.30
619.06	43803.13
619.21	43768.02
619.36	43594.82
619.51	43758.66
619.67	43381.83
619.82	43662.69
619.97	43466.09
620.12	43370.13
620.28	43325.66
620.43	43281.19
620.58	42792.01
620.73	43391.19
620.89	43260.12
621.04	43157.14
621.19	43028.41
621.34	43278.85
621.49	42609.45
621.65	43152.46
621.80	43140.75
621.95	43065.86
622.10	42656.26
622.25	42855.21
622.41	42351.99
622.56	42595.41
622.71	43012.02
622.86	42916.06
623.01	42698.39
623.16	42787.33
623.32	43026.07
623.47	42707.76
623.62	42485.40
623.77	42597.75
623.92	42656.26
624.07	42527.53
624.23	42335.61
624.38	42927.77
624.53	42298.16
624.68	42293.48
624.83	42267.73
624.98	42796.70
625.13	42059.43
625.29	42241.99
625.44	42237.31
625.59	41900.27
625.74	42043.04
625.89	42220.92
626.04	41762.18
626.19	42263.05
626.34	42337.95
626.49	42209.22
626.65	42513.49
626.80	42359.02
626.95	42263.05
627.10	41914.31
627.25	42110.92
627.40	42066.45
627.55	41607.70
627.70	41331.52
627.85	41818.35
628.00	41701.32
628.15	41717.71
628.30	41738.77
628.45	41666.22
628.60	41766.86
628.76	41827.71
628.91	41816.01
629.06	41783.24
629.21	41347.90
629.36	41415.78
629.51	41408.76
629.66	41256.62
629.81	41153.64
629.96	41647.49
630.11	41537.49
630.26	41617.07
630.41	41628.77
630.56	41298.75
630.71	41647.49
630.86	41715.37
631.01	41099.81
631.16	41518.76
631.31	40975.76
631.46	40957.03
631.61	41347.90
631.76	41060.02
631.91	41418.12
632.06	41144.28
632.21	41390.03
632.36	41322.16
632.51	41088.10
632.66	40734.68
632.81	40428.07
632.96	40994.48
633.10	40608.29
633.25	40917.25
633.40	41202.79
633.55	40933.63
633.70	40816.60
633.85	40552.12
634.00	40959.38
634.15	41036.61
634.30	40849.37
634.45	40722.98
634.60	40804.90
634.75	41123.21
634.90	40683.19
635.05	40926.61
635.19	40259.55
635.34	40652.76
635.49	40617.66
635.64	40100.40
635.79	40533.40
635.94	40432.75
636.09	40863.41
636.24	40177.64
636.39	40505.31
636.53	40685.53
636.68	39831.24
636.83	40285.30
636.98	40205.72
637.13	40418.71
637.28	40535.74
637.43	40528.72
637.57	40430.41
637.72	40383.60
637.87	40720.64
638.02	40399.99
638.17	39976.35
638.32	40201.04
638.46	39655.70
638.61	39854.64
638.76	40086.36
638.91	40306.37
639.06	40343.81
639.20	39875.71
639.35	40362.54
639.50	40425.73
639.65	40336.79
639.80	40130.83
639.94	40013.80
640.09	39868.69
640.24	39339.72
640.39	39854.64
640.54	39725.91
640.68	38848.21
640.83	39316.32
640.98	39290.57
641.13	39281.21
641.27	39653.36
641.42	39704.85
641.57	39578.46
641.72	39421.64
641.86	39791.45
642.01	39470.79
642.16	39344.41
642.31	38937.15
642.45	39267.17
642.60	39363.13
642.75	38911.41
642.90	39234.40
643.04	39281.21
643.19	39126.74
643.34	39180.57
643.48	38890.34
643.63	39194.61
643.78	38766.29
643.93	38827.15
644.07	39009.71
644.22	39229.72
644.37	38735.87
644.51	38909.07
644.66	39215.68
644.81	39405.26
644.95	39000.35
645.10	38925.45
645.25	39026.09
645.39	38864.60
645.54	39798.47
645.69	38958.22
645.83	38941.83
645.98	39112.69
646.13	38707.78
646.27	38799.06
646.42	38962.90
646.57	38806.08
646.71	38857.57
646.86	39274.19
647.00	38967.58
647.15	38794.38
647.30	38733.53
647.44	38667.99
647.59	38256.06
647.74	38347.34
647.88	38391.81
648.03	38101.58
648.17	38508.83
648.32	38433.94
648.47	38536.92
648.61	38309.89
648.76	38349.68
648.90	38202.22
649.05	38164.78
649.20	38328.61
649.34	38546.28
649.49	38183.50
649.63	37640.50
649.78	38368.40
649.92	38162.43
650.07	38424.57
650.21	37764.54
650.36	37956.47
650.51	38071.15
650.65	38195.20
650.80	38651.61
650.94	38209.25
651.09	37942.42
651.23	38040.73
651.38	38000.94
651.52	38277.12
651.67	37598.37
651.81	37436.87
651.96	37778.59
652.10	37621.77
652.25	37944.76
652.39	37883.91
652.54	37432.19
652.68	37996.26
652.83	37986.89
652.97	38267.76
653.12	37670.92
653.26	37392.40
653.41	37612.41
653.55	37308.14
653.70	37736.46
653.84	37855.82
653.99	37586.66
654.13	37434.53
654.27	37275.37
654.42	36994.51
654.56	37179.41
654.71	37593.68
654.85	37420.48
655.00	37397.08
655.14	37092.81
655.29	36879.82
655.43	37191.11
655.57	36636.41
655.72	36940.68
655.86	36659.81
656.01	36989.83
656.15	36926.63
656.30	36737.05
656.44	37022.59
656.58	36931.31
656.73	36694.92
656.87	36760.45
657.01	36636.41
657.16	36662.15
657.30	36617.68
657.45	36383.63
657.59	36739.39
657.73	36891.52
657.88	36833.01
658.02	36779.18
658.16	36804.92
658.31	36889.18
658.45	36556.83
658.60	36170.64
658.74	36383.63
658.88	36556.83
659.03	36388.31
659.17	36093.40
659.31	36273.62
659.46	36217.45
659.60	36409.37
659.74	36542.78
659.89	36151.91
660.03	36086.38
660.17	36144.89
660.32	36009.14
660.46	36444.48
660.60	35800.83
660.74	36009.14
660.89	36107.44
661.03	35606.57
661.17	35868.71
661.32	35391.24
661.46	35676.79
661.60	35290.60
661.74	35742.32
661.89	35952.97
662.03	35789.13
662.17	35353.79
662.31	35482.52
662.46	35505.93
662.60	35330.39
662.74	34962.92
662.88	35395.92
663.03	34944.20
663.17	34960.58
663.31	34995.69
663.45	34822.49
663.60	35131.44
663.74	35079.95
663.88	35035.48
664.02	34782.70
664.17	35306.98
664.31	34597.80
664.45	34726.53
664.59	34920.79
664.73	34639.93
664.88	34448.00
665.02	34333.32
665.16	34873.98
665.30	34375.45
665.44	34106.29
665.59	33956.49
665.73	34323.96
665.87	34225.65
666.01	34813.13
666.15	34419.92
666.29	34220.97
666.44	34115.65
666.58	33848.83
666.72	34125.01
666.86	34057.14
667.00	33968.19
667.14	33406.47
667.28	33584.35
667.43	33628.82
667.57	33450.94
667.71	33457.96
667.85	33209.86
667.99	33558.60
668.13	33184.12
668.27	33130.28
668.41	33376.04
668.56	33139.65
668.70	33130.28
668.84	33177.09
668.98	33235.61
669.12	33111.56
669.26	33228.59
669.40	32481.95
669.54	32947.72
669.68	32615.37
669.82	32283.01
669.96	32671.54
670.10	32598.98
670.25	33097.52
670.39	32840.06
670.53	32236.20
670.67	32659.84
670.81	32598.98
670.95	32620.05
671.09	32467.91
671.23	32580.26
671.37	32343.86
671.51	32254.92
671.65	31929.59
671.79	32095.77
671.93	31878.10
672.07	32451.53
672.21	31957.67
672.35	31873.42
672.49	31660.43
672.63	32243.22
672.77	31639.36
672.91	31798.52
673.05	31564.46
673.19	31264.88
673.33	30888.05
673.47	31515.31
673.61	31267.22
673.75	31243.81
673.89	30478.46
674.03	30876.35
674.17	30721.87
674.31	30960.61
674.45	31002.74
674.59	30632.93
674.73	30735.92
674.87	30761.66
675.01	30272.49
675.15	30625.91
675.29	30658.68
675.43	30099.29
675.56	30375.47
675.70	29986.94
675.84	30017.37
675.98	29542.24
676.12	30022.05
676.26	30305.26
676.40	29722.46
676.54	29734.17
676.68	30099.29
676.82	29109.24
676.96	29479.05
677.10	29645.23
677.23	29572.67
677.37	29331.59
677.51	28732.42
677.65	29113.92
677.79	28999.24
677.93	29053.07
678.07	28673.90
678.21	28360.27
678.34	28315.80
678.48	28137.92
678.62	28416.44
678.76	28215.16
678.90	27880.46
679.04	28119.20
679.18	28290.06
679.31	27428.74
679.45	27648.75
679.59	27585.55
679.73	27365.54
679.87	27608.96
680.00	27234.47
680.14	27138.51
680.28	27154.90
680.42	27513.00
680.56	27082.34
680.70	27002.76
680.83	27292.99
680.97	27077.66
681.11	27236.81
681.25	26904.46
681.39	27063.61
681.52	26824.88
681.66	26941.91
681.80	26436.35
681.94	26382.52
682.07	26698.49
682.21	26197.62
682.35	25926.11
682.49	26265.49
682.62	26298.26
682.76	26019.74
682.90	26134.42
683.04	26169.53
683.17	25762.28
683.31	25315.23
683.45	25654.61
683.59	25406.52
683.72	25385.45
683.86	25420.56
684.00	25343.32
684.13	25127.99
684.27	24683.29
684.41	24847.13
684.55	24954.79
684.68	24559.24
684.82	24629.46
684.96	24748.82
685.09	24589.67
685.23	24332.21
685.37	24463.28
685.50	24229.23
685.64	23992.83
685.78	23899.21
685.91	23669.84
686.05	24133.26
686.19	23449.83
686.32	23749.42
686.46	23590.26
686.60	23185.35
686.73	23225.14
686.87	23363.23
687.01	22991.08
687.14	23255.56
687.28	22897.46
687.42	23026.19
687.55	22752.35
687.69	22897.46
687.82	22820.22
687.96	22927.89
688.10	23040.23
688.23	22539.36
688.37	22120.40
688.50	22185.94
688.64	22291.26
688.78	22171.89
688.91	22181.26
689.05	22115.72
689.18	22443.40
689.32	22008.06
689.46	21799.75
689.59	21830.18
689.73	21853.58
689.86	21846.56
690.00	21319.94
690.13	21654.64
690.27	21631.23
690.41	21486.12
690.54	21060.14
690.68	21130.36
690.81	20975.88
690.95	21062.48
691.08	20959.50
691.22	20823.75
691.35	20762.89
691.49	20849.49
691.62	20823.75
691.76	20535.86
691.89	20329.89
692.03	20278.40
692.16	20465.64
692.30	20271.38
692.43	20294.79
692.57	19730.72
692.70	19988.18
692.84	19726.04
692.97	19580.92
693.11	19379.64
693.24	19920.30
693.38	19618.37
693.51	19363.25
693.65	19587.94
693.78	19517.73
693.92	19646.46
694.05	19157.28
694.19	19311.76
694.32	19068.34
694.45	18934.93
694.59	18754.71
694.72	18820.25
694.86	18604.92
694.99	18670.45
695.13	18558.11
695.26	18590.88
695.39	18476.19
695.53	18417.68
695.66	18178.94
695.80	18651.73
695.93	18352.14
696.07	17980.00
696.20	17823.18
696.33	17972.97
696.47	17991.70
696.60	17905.10
696.73	17694.45
696.87	17778.71
697.00	17926.16
697.14	17579.76
697.27	17462.74
697.40	17305.92
697.54	17563.38
697.67	17039.10
697.80	17104.64
697.94	16833.13
698.07	16753.55
698.21	16725.47
698.34	17165.49
698.47	16823.77
698.61	16559.29
698.74	16521.84
698.87	16620.14
699.01	16217.57
699.14	16175.44
699.27	16250.34
699.40	16252.68
699.54	16219.91
699.67	16133.31
699.80	16037.35
699.94	16016.29
700.07	15999.90
700.20	15737.76
700.34	15903.94
700.47	15644.14
700.60	15864.15
700.73	15878.19
700.87	15499.03
701.00	15522.43
701.13	15164.33
701.26	15183.06
701.40	15145.61
701.53	15152.63
701.66	15119.86
701.79	14960.70
701.93	15290.72
702.06	15117.52
702.19	14981.77
702.32	14684.52
702.46	14906.87
702.59	14459.83
702.72	14602.60
702.85	14663.46
702.99	14672.82
703.12	14342.80
703.25	14265.57
703.38	14319.40
703.51	13965.98
703.65	14265.57
703.78	13996.40
703.91	14288.97
704.04	14113.43
704.17	14148.54
704.31	14005.77
704.44	13722.56
704.57	13865.33
704.70	13540.00
704.83	13781.07
704.96	13397.23
705.10	13664.05
705.23	13504.89
>>>>>End Processed Spectral Data<<<<<
