SpectraSuite Data File
++++++++++++++++++++++++++++++++++++
Date: Fri Oct 25 11:34:31 EDT 2013
User: price-jones
Dark Spectrum Present: No
Reference Spectrum Present: No
Number of Sampled Component Spectra: 1
Spectrometers: USB2+H05261
Integration Time (usec): 100000 (USB2+H05261)
Spectra Averaged: 1 (USB2+H05261)
Boxcar Smoothing: 0 (USB2+H05261)
Correct for Electrical Dark: No (USB2+H05261)
Strobe/Lamp Enabled: No (USB2+H05261)
Correct for Detector Non-linearity: No (USB2+H05261)
Correct for Stray Light: No (USB2+H05261)
Number of Pixels in Processed Spectrum: 2048
>>>>>Begin Processed Spectral Data<<<<<
365.73	292.57
365.92	292.57
366.12	292.57
366.32	170.86
366.52	154.48
366.72	241.08
366.91	128.73
367.11	196.60
367.31	224.69
367.51	131.07
367.70	198.95
367.90	161.50
368.10	177.88
368.30	229.37
368.49	175.54
368.69	217.67
368.89	245.76
369.09	159.16
369.28	138.09
369.48	257.46
369.68	241.08
369.87	238.73
370.07	248.10
370.27	285.55
370.47	362.78
370.66	500.87
370.86	547.69
371.06	491.51
371.25	533.64
371.45	535.98
371.65	489.17
371.84	479.81
372.04	540.66
372.24	533.64
372.44	603.86
372.63	690.46
372.83	613.22
373.03	599.18
373.22	638.97
373.42	669.39
373.62	622.58
373.81	641.31
374.01	688.12
374.21	699.82
374.40	589.82
374.60	699.82
374.79	648.33
374.99	627.26
375.19	617.90
375.38	552.37
375.58	594.50
375.78	662.37
375.97	660.03
376.17	638.97
376.37	617.90
376.56	601.52
376.76	571.09
376.95	695.14
377.15	716.20
377.35	748.97
377.54	662.37
377.74	685.78
377.93	620.24
378.13	580.45
378.33	725.57
378.52	678.76
378.72	716.20
378.91	765.36
379.11	662.37
379.31	720.88
379.50	617.90
379.70	779.40
379.89	660.03
380.09	676.41
380.28	699.82
380.48	641.31
380.68	739.61
380.87	716.20
381.07	744.29
381.26	779.40
381.46	734.93
381.65	709.18
381.85	809.83
382.04	737.27
382.24	732.59
382.43	758.33
382.63	755.99
382.83	772.38
383.02	781.74
383.22	786.42
383.41	725.57
383.61	788.76
383.80	814.51
384.00	763.01
384.19	751.31
384.39	842.59
384.58	798.12
384.78	763.01
384.97	805.14
385.17	763.01
385.36	840.25
385.56	903.45
385.75	809.83
385.95	854.30
386.14	760.67
386.34	851.96
386.53	795.78
386.72	781.74
386.92	945.58
387.11	877.70
387.31	821.53
387.50	802.80
387.70	833.23
387.89	936.21
388.09	816.85
388.28	884.72
388.48	929.19
388.67	854.30
388.86	833.23
389.06	971.32
389.25	912.81
389.45	856.64
389.64	910.47
389.84	943.24
390.03	940.90
390.22	938.55
390.42	999.41
390.61	894.08
390.81	966.64
391.00	978.34
391.19	983.02
391.39	931.53
391.58	1025.15
391.78	966.64
391.97	1006.43
392.16	922.17
392.36	1039.20
392.55	1025.15
392.75	868.34
392.94	924.51
393.13	976.00
393.33	1020.47
393.52	1121.12
393.71	1039.20
393.91	1041.54
394.10	1060.26
394.29	1046.22
394.49	1046.22
394.68	1086.01
394.88	1032.18
395.07	1104.73
395.26	1104.73
395.46	1263.89
395.65	1064.94
395.84	1121.12
396.04	1083.67
396.23	1153.88
396.42	1160.91
396.62	1128.14
396.81	1100.05
397.00	1144.52
397.19	1158.57
397.39	1252.19
397.58	1181.97
397.77	1177.29
397.97	1203.04
398.16	1135.16
398.35	1132.82
398.55	1256.87
398.74	1226.44
398.93	1313.04
399.12	1233.46
399.32	1198.35
399.51	1200.69
399.70	1277.93
399.90	1343.47
400.09	1317.72
400.28	1366.87
400.47	1366.87
400.67	1409.00
400.86	1261.55
401.05	1451.13
401.24	1413.68
401.44	1357.51
401.63	1378.58
401.82	1493.26
402.01	1455.81
402.21	1394.96
402.40	1404.32
402.59	1418.36
402.78	1474.54
402.97	1455.81
403.17	1472.20
403.36	1514.33
403.55	1493.26
403.74	1490.92
403.93	1472.20
404.13	1577.52
404.32	1509.65
404.51	1504.96
404.70	1626.67
404.89	1523.69
405.09	1680.50
405.28	1652.42
405.47	1675.82
405.66	1516.67
405.85	1483.90
406.05	1640.72
406.24	1699.23
406.43	1624.33
406.62	1734.34
406.81	1788.17
407.00	1673.48
407.20	1732.00
407.39	1830.30
407.58	1823.28
407.77	1746.04
407.96	1736.68
408.15	1809.23
408.34	1820.94
408.54	1914.56
408.73	1891.15
408.92	1870.09
409.11	1860.73
409.30	1834.98
409.49	1949.67
409.68	1846.68
409.87	1774.13
410.07	1952.01
410.26	1961.37
410.45	1895.83
410.64	2071.37
410.83	2036.27
411.02	1980.09
411.21	2106.48
411.40	2090.10
411.59	2106.48
411.78	2090.10
411.98	2073.71
412.17	2083.08
412.36	2106.48
412.55	2232.87
412.74	2157.97
412.93	2242.23
413.12	2246.91
413.31	2452.88
413.50	2263.30
413.69	2244.57
413.88	2429.48
414.07	2366.28
414.26	2256.28
414.45	2415.43
414.64	2373.30
414.83	2441.18
415.02	2452.88
415.22	2553.52
415.41	2562.89
415.60	2518.42
415.79	2546.50
415.98	2544.16
416.17	2555.86
416.36	2513.74
416.55	2586.29
416.74	2726.72
416.93	2616.72
417.12	2677.57
417.31	2649.49
417.50	2792.26
417.69	2928.01
417.88	2794.60
418.07	2759.49
418.26	2829.71
418.45	2834.39
418.64	3026.31
418.83	2778.22
419.02	2946.73
419.21	2857.79
419.39	2869.50
419.58	2916.31
419.77	2949.08
419.96	2963.12
420.15	3143.34
420.34	3089.51
420.53	3052.06
420.72	3026.31
420.91	3089.51
421.10	2956.10
421.29	3173.77
421.48	3105.89
421.67	3201.85
421.86	3138.66
422.05	3138.66
422.24	3063.76
422.43	3222.92
422.61	3269.73
422.80	3150.36
422.99	3307.18
423.18	3201.85
423.37	3246.32
423.56	3283.77
423.75	3258.03
423.94	3241.64
424.13	3028.65
424.32	3105.89
424.50	3225.26
424.69	3405.48
424.88	3246.32
425.07	3215.90
425.26	3185.47
425.45	3419.52
425.64	3248.66
425.83	3335.26
426.01	3372.71
426.20	3454.63
426.39	3424.20
426.58	3342.28
426.77	3330.58
426.96	3351.65
427.15	3382.07
427.33	3421.86
427.52	3295.47
427.71	3403.14
427.90	3337.60
428.09	3471.01
428.28	3581.02
428.46	3475.70
428.65	3492.08
428.84	3613.79
429.03	3513.14
429.22	3510.80
429.40	3510.80
429.59	3501.44
429.78	3503.78
429.97	3595.06
430.16	3637.19
430.34	3602.08
430.53	3698.05
430.72	3843.16
430.91	3801.03
431.10	3590.38
431.28	3850.18
431.47	3648.90
431.66	3955.51
431.85	3763.58
432.03	3960.19
432.22	3875.93
432.41	3761.24
432.60	3878.27
432.79	3770.60
432.97	4086.58
433.16	3934.44
433.35	3943.80
433.54	4037.42
433.72	4028.06
433.91	4044.45
434.10	4065.51
434.28	4093.60
434.47	4077.21
434.66	4002.32
434.85	4126.36
435.03	4168.49
435.22	4173.18
435.41	4156.79
435.59	4124.02
435.78	4262.12
435.97	4189.56
436.16	4100.62
436.34	4271.48
436.53	4245.73
436.72	4320.63
436.90	4077.21
437.09	4299.56
437.28	4205.94
437.46	4327.65
437.65	4344.03
437.84	4542.98
438.02	4367.44
438.21	4461.06
438.40	4369.78
438.58	4578.09
438.77	4667.03
438.96	4442.34
439.14	4589.79
439.33	4629.58
439.52	4578.09
439.70	4587.45
439.89	4746.61
440.08	4767.67
440.26	4795.76
440.45	4858.95
440.63	4903.42
440.82	4952.57
441.01	4828.53
441.19	4957.25
441.38	4901.08
441.57	4910.44
441.75	5081.30
441.94	5198.33
442.12	5064.92
442.31	5188.97
442.50	5132.79
442.68	5198.33
442.87	5378.55
443.05	5329.40
443.24	5305.99
443.43	5249.82
443.61	5245.14
443.80	5254.50
443.98	5174.92
444.17	5088.32
444.35	5057.90
444.54	5577.50
444.73	5423.02
444.91	5446.43
445.10	5465.15
445.28	5526.00
445.47	5242.80
445.65	5277.91
445.84	5444.09
446.02	5610.26
446.21	5584.52
446.39	5373.87
446.58	5544.73
446.77	5467.49
446.95	5366.85
447.14	5540.05
447.32	5523.66
447.51	5547.07
447.69	5603.24
447.88	5486.22
448.06	5507.28
448.25	5619.63
448.43	5495.58
448.62	5584.52
448.80	5652.39
448.99	5535.37
449.17	5736.65
449.36	5640.69
449.54	5748.36
449.73	5788.14
449.91	5783.46
450.10	5809.21
450.28	5771.76
450.46	5762.40
450.65	5820.91
450.83	5816.23
451.02	5820.91
451.20	5870.06
451.39	5734.31
451.57	5818.57
451.76	5947.30
451.94	5940.28
452.13	5905.17
452.31	5912.19
452.49	5858.36
452.68	6033.90
452.86	6047.94
453.05	6155.61
453.23	6024.54
453.42	6129.86
453.60	6160.29
453.78	6073.69
453.97	6104.12
454.15	6134.54
454.34	6239.87
454.52	6134.54
454.70	6127.52
454.89	6239.87
455.07	6176.67
455.26	6115.82
455.44	6443.49
455.62	6389.66
455.81	6326.47
455.99	6317.11
456.17	6539.46
456.36	6387.32
456.54	6450.52
456.73	6567.54
456.91	6757.13
457.09	6871.81
457.28	6881.18
457.46	6661.16
457.64	6754.79
457.83	6616.69
458.01	6799.26
458.19	6906.92
458.38	6815.64
458.56	6979.48
458.74	6871.81
458.93	6707.98
459.11	6930.33
459.29	6918.62
459.48	6951.39
459.66	6993.52
459.84	7019.27
460.03	7066.08
460.21	6972.46
460.39	7028.63
460.57	7030.97
460.76	7197.15
460.94	7386.73
461.12	7243.96
461.31	7199.49
461.49	7211.19
461.67	7279.07
461.85	7435.88
462.04	7332.90
462.22	7761.22
462.40	7438.22
462.59	7382.05
462.77	7360.98
462.95	7356.30
463.13	7339.92
463.32	7225.23
463.50	7417.16
463.68	7541.21
463.86	7501.42
464.05	7482.69
464.23	7325.88
464.41	7667.60
464.59	7281.41
464.78	7857.18
464.96	7576.31
465.14	7405.46
465.32	7623.12
465.50	7667.60
465.69	7833.77
465.87	7630.15
466.05	7616.10
466.23	7786.96
466.41	7737.81
466.60	7861.86
466.78	7791.64
466.96	7786.96
467.14	7946.12
467.32	7875.90
467.51	7999.95
467.69	7763.56
467.87	7805.69
468.05	8037.40
468.23	7908.67
468.41	8046.76
468.60	7962.50
468.78	8084.21
468.96	8077.19
469.14	8053.78
469.32	8105.28
469.50	8088.89
469.69	8196.56
469.87	8400.18
470.05	8091.23
470.23	8421.25
470.41	8486.78
470.59	8500.83
470.77	8336.99
470.95	8524.23
471.14	8596.79
471.32	8571.04
471.50	8566.36
471.68	8643.60
471.86	8784.03
472.04	8730.20
472.22	8713.81
472.40	8765.31
472.58	8519.55
472.77	8945.53
472.95	8777.01
473.13	9221.71
473.31	8933.82
473.49	9078.94
473.67	9092.98
473.85	9100.00
474.03	9294.27
474.21	9317.67
474.39	9458.10
474.57	9254.48
474.75	9460.45
474.93	9392.57
475.12	9483.85
475.30	9549.39
475.48	9383.21
475.66	9720.24
475.84	9542.36
476.02	9657.05
476.20	9579.81
476.38	10012.81
476.56	9982.38
476.74	10071.33
476.92	9996.43
477.10	9998.77
477.28	10363.89
477.46	10057.28
477.64	10258.57
477.82	10506.66
478.00	10820.30
478.18	10611.99
478.36	10721.99
478.54	10937.32
478.72	10846.04
478.90	11000.52
479.08	11265.00
479.26	11124.57
479.44	11087.12
479.62	11651.19
479.80	11276.70
479.98	11442.88
480.16	11517.78
480.34	11618.42
480.52	11889.92
480.70	11936.73
480.88	11513.10
481.06	11824.39
481.24	12051.42
481.41	11990.56
481.59	12180.15
481.77	12329.94
481.95	12285.47
482.13	12287.81
482.31	11908.65
482.49	12533.57
482.67	12571.02
482.85	12919.76
483.03	12994.65
483.21	12936.14
483.39	12994.65
483.57	12980.61
483.74	12966.57
483.92	13336.37
484.10	13352.76
484.28	13453.40
484.46	13741.29
484.64	13823.20
484.82	13790.44
485.00	13858.31
485.18	13823.20
485.35	14359.19
485.53	14134.50
485.71	14326.42
485.89	14684.52
486.07	14876.44
486.25	14597.92
486.43	14761.76
486.61	15005.17
486.78	14977.09
486.96	15019.22
487.14	15087.09
487.32	15569.24
487.50	15562.22
487.68	15768.19
487.85	16002.24
488.03	15784.57
488.21	16198.85
488.39	15950.75
488.57	16224.59
488.75	16205.87
488.92	16402.47
489.10	16681.00
489.28	16720.79
489.46	17205.28
489.64	16840.15
489.81	17097.61
489.99	17362.09
490.17	17343.37
490.35	17521.25
490.53	17675.73
490.70	17776.37
490.88	17575.08
491.06	17848.93
491.24	17853.61
491.41	18026.81
491.59	18160.22
491.77	18146.17
491.95	18530.02
492.13	18633.00
492.30	18946.64
492.48	18902.17
492.66	18733.65
492.84	18864.72
493.01	18892.80
493.19	18885.78
493.37	19297.72
493.54	19211.12
493.72	19510.71
493.90	19548.15
494.08	19864.13
494.25	19847.74
494.43	19924.98
494.61	20500.75
494.79	20341.60
494.96	20247.97
495.14	20355.64
495.32	20730.12
495.49	20449.26
495.67	20746.51
495.85	20739.49
496.02	21205.25
496.20	21549.31
496.38	21460.37
496.55	21355.05
496.73	21781.03
496.91	21443.99
497.09	21443.99
497.26	21748.26
497.44	22017.42
497.62	22195.30
497.79	22209.34
497.97	21996.35
498.14	22155.51
498.32	22654.05
498.50	22806.18
498.67	22520.63
498.85	22794.48
499.03	22768.73
499.20	22792.14
499.38	22937.25
499.56	23171.30
499.73	23257.90
499.91	23571.54
500.08	23618.35
500.26	23173.64
500.44	23351.52
500.61	23744.73
500.79	23578.56
500.97	23807.93
501.14	24332.21
501.32	24088.79
501.49	24140.29
501.67	24116.88
501.84	24641.16
502.02	24407.11
502.20	24353.27
502.37	24573.28
502.55	24505.41
502.72	24821.38
502.90	24912.66
503.07	24540.52
503.25	24819.04
503.43	24755.85
503.60	24966.49
503.78	24987.56
503.95	24940.75
504.13	25025.01
504.30	25434.60
504.48	25125.65
504.65	25668.66
504.83	25579.71
505.01	25825.47
505.18	25539.93
505.36	25956.54
505.53	25738.87
505.71	25626.53
505.88	26321.66
506.06	26085.27
506.23	26204.64
506.41	26019.74
506.58	26211.66
506.76	26490.18
506.93	26670.40
507.11	26518.27
507.28	26803.82
507.46	26822.54
507.63	26845.94
507.81	27229.79
507.98	26733.60
508.16	26757.00
508.33	27370.22
508.50	27283.62
508.68	27264.90
508.85	27747.05
509.03	27805.56
509.20	27608.96
509.38	27835.99
509.55	27763.43
509.73	27887.48
509.90	27882.80
510.08	27864.08
510.25	28327.50
510.42	28081.75
510.60	28257.29
510.77	28580.28
510.95	28863.49
511.12	28058.34
511.30	28563.90
511.47	28713.69
511.64	28685.61
511.82	28713.69
511.99	28755.82
512.17	28821.36
512.34	28919.66
512.51	29357.34
512.69	29387.77
512.86	29022.64
513.04	29142.01
513.21	29359.68
513.38	29479.05
513.56	29284.78
513.73	29591.39
513.90	29715.44
514.08	29446.28
514.25	29677.99
514.43	30323.98
514.60	30050.14
514.77	30008.01
514.95	30129.72
515.12	29757.57
515.29	29886.30
515.47	30349.73
515.64	30499.52
515.81	30415.26
515.99	30506.54
516.16	30892.73
516.33	30616.55
516.51	31040.18
516.68	30558.03
516.85	30829.54
517.03	31299.98
517.20	30909.11
517.37	30859.96
517.54	31077.63
517.72	31248.49
517.89	31227.43
518.06	31571.49
518.24	31428.71
518.41	31290.62
518.58	31653.40
518.75	31314.03
518.93	32121.51
519.10	31576.17
519.27	31456.80
519.45	31765.75
519.62	31903.84
519.79	32013.85
519.96	32519.40
520.14	32079.38
520.31	32142.58
520.48	32266.63
520.65	32634.09
520.83	32430.46
521.00	32811.97
521.17	32631.75
521.34	32580.26
521.52	32844.74
521.69	32641.11
521.86	32818.99
522.03	32755.80
522.20	32992.19
522.38	33343.27
522.55	33460.30
522.72	33188.80
522.89	33472.00
523.07	33326.89
523.24	33661.58
523.41	33467.32
523.58	33366.68
523.75	33750.52
523.92	33394.76
524.10	33797.34
524.27	33893.30
524.44	33905.00
524.61	34361.40
524.78	34424.60
524.96	34064.16
525.13	33919.04
525.30	34164.80
525.47	34249.06
525.64	33993.94
525.81	34546.31
525.98	34302.89
526.16	34359.06
526.33	34239.70
526.50	34890.37
526.67	34256.08
526.84	34728.87
527.01	34211.61
527.18	35119.74
527.36	34885.68
527.53	35124.42
527.70	35101.01
527.87	35412.31
528.04	35215.70
528.21	34962.92
528.38	35454.44
528.55	35791.47
528.72	35510.61
528.89	35358.47
529.07	35257.83
529.24	35459.12
529.41	35622.95
529.58	35845.30
529.75	35456.78
529.92	35941.27
530.09	35557.42
530.26	35505.93
530.43	36189.36
530.60	35615.93
530.77	35866.37
530.94	36126.17
531.11	36130.85
531.28	35992.76
531.46	36402.35
531.63	36243.20
531.80	36135.53
531.97	36243.20
532.14	36404.69
532.31	36517.04
532.48	36928.97
532.65	36762.79
532.82	36694.92
532.99	37013.23
533.16	36837.69
533.33	36720.66
533.50	36753.43
533.67	36945.36
533.84	36877.48
534.01	37141.96
534.18	36917.27
534.35	37205.16
534.52	37074.09
534.69	37471.98
534.86	37303.46
535.03	37383.04
535.20	37546.87
535.37	37446.23
535.54	37666.24
535.71	37518.79
535.88	37888.59
536.05	37589.00
536.22	37963.49
536.38	37677.94
536.55	37862.85
536.72	37813.70
536.89	37750.50
537.06	37390.06
537.23	37844.12
537.40	37682.62
537.57	37677.94
537.74	37577.30
537.91	38363.72
538.08	37951.79
538.25	37937.74
538.42	37996.26
538.59	38497.13
538.75	37930.72
538.92	38576.71
539.09	38483.09
539.26	38447.98
539.43	38712.46
539.60	38672.67
539.77	38595.43
539.94	38857.57
540.11	38728.84
540.28	38611.82
540.44	38909.07
540.61	38394.15
540.78	38679.69
540.95	38927.79
541.12	38843.53
541.29	39192.27
541.46	38904.38
541.62	39138.44
541.79	39463.77
541.96	39049.50
542.13	38794.38
542.30	39138.44
542.47	39250.78
542.63	39564.42
542.80	39431.01
542.97	40055.93
543.14	39796.13
543.31	39608.89
543.48	39655.70
543.64	40222.11
543.81	40236.15
543.98	39810.17
544.15	39859.32
544.32	40163.59
544.48	40477.22
544.65	40130.83
544.82	39931.88
544.99	39828.90
545.16	39746.98
545.32	40091.04
545.49	40634.04
545.66	40549.78
545.83	40886.82
546.00	40687.87
546.16	40449.14
546.33	40184.66
546.50	40137.85
546.67	40250.19
546.83	40336.79
547.00	40364.88
547.17	40692.55
547.34	40538.08
547.50	41141.94
547.67	40989.80
547.84	40847.03
548.00	41172.36
548.17	41198.11
548.34	41146.62
548.51	41319.82
548.67	41514.08
548.84	41069.38
549.01	40612.98
549.18	40914.90
549.34	41486.00
549.51	41469.61
549.68	41289.39
549.84	41146.62
550.01	41368.97
550.18	41635.79
550.34	41530.47
550.51	41511.74
550.68	41642.81
550.84	41474.29
551.01	41890.91
551.18	41425.14
551.34	41635.79
551.51	41759.84
551.68	41820.69
551.84	41645.15
552.01	41249.60
552.18	41567.91
552.34	41628.77
552.51	42188.16
552.68	41933.04
552.84	41862.82
553.01	42061.77
553.18	41858.14
553.34	42256.03
553.51	41551.53
553.67	41963.46
553.84	42256.03
554.01	42586.05
554.17	41996.23
554.34	42167.09
554.51	41972.83
554.67	42555.62
554.84	42602.43
555.00	42457.32
555.17	41984.53
555.33	42838.83
555.50	42782.65
555.67	43012.02
555.83	42761.59
556.00	42698.39
556.16	43129.05
556.33	42981.60
556.50	43054.15
556.66	42513.49
556.83	42707.76
556.99	43044.79
557.16	43285.87
557.32	42855.21
557.49	42944.15
557.65	42789.67
557.82	42895.00
557.98	42733.50
558.15	42988.62
558.32	43054.15
558.48	42759.25
558.65	42988.62
558.81	42815.42
558.98	43012.02
559.14	43119.69
559.31	42686.69
559.47	42916.06
559.64	43271.82
559.80	43110.33
559.97	43620.56
560.13	42824.78
560.30	43320.98
560.46	43505.88
560.63	43959.94
560.79	43636.95
560.96	43126.71
561.12	43838.23
561.29	43700.14
561.45	43597.16
561.61	43445.02
561.78	43182.88
561.94	43463.75
562.11	43559.71
562.27	43718.87
562.44	43466.09
562.60	43592.48
562.77	43988.03
562.93	43990.37
563.10	43819.51
563.26	43604.18
563.42	43763.34
563.59	43496.52
563.75	43826.53
563.92	43952.92
564.08	43557.37
564.24	44397.62
564.41	44175.27
564.57	43997.39
564.74	43990.37
564.90	43749.29
565.07	43807.81
565.23	43634.61
565.39	43819.51
565.56	44198.68
565.72	43812.49
565.88	43641.63
566.05	43716.53
566.21	44339.11
566.38	44086.33
566.54	44252.51
566.70	44208.04
566.87	44212.72
567.03	43791.42
567.19	44046.54
567.36	44020.80
567.52	44240.81
567.68	44388.26
567.85	43966.96
568.01	44273.57
568.17	44224.42
568.34	44381.24
568.50	44409.32
568.66	43842.92
568.83	44060.58
568.99	44065.27
569.15	44500.61
569.32	44399.96
569.48	44336.77
569.64	44449.11
569.81	44573.16
569.97	44502.95
570.13	44800.19
570.30	44657.42
570.46	44278.25
570.62	44552.10
570.78	44779.13
570.95	44142.50
571.11	44460.82
571.27	44264.21
571.43	44191.65
571.60	44332.09
571.76	44088.67
571.92	44409.32
572.09	44364.85
572.25	44601.25
572.41	44952.33
572.57	44296.98
572.74	45209.79
572.90	44416.35
573.06	44575.50
573.22	44940.63
573.38	45263.62
573.55	45055.31
573.71	44900.84
573.87	44959.35
574.03	44727.64
574.20	44839.98
574.36	44587.21
574.52	44940.63
574.68	44755.72
574.84	44729.98
575.01	44907.86
575.17	45113.83
575.33	45153.62
575.49	44430.39
575.65	45050.63
575.82	44858.71
575.98	44786.15
576.14	45244.90
576.30	44996.80
576.46	45057.65
576.62	44914.88
576.79	45036.59
576.95	44765.09
577.11	44381.24
577.27	44964.03
577.43	44847.00
577.59	45132.55
577.75	44949.99
577.92	44687.85
578.08	45120.85
578.24	44825.94
578.40	45284.68
578.56	45191.06
578.72	44685.51
578.88	44825.94
579.04	44713.59
579.21	45048.29
579.37	44765.09
579.53	45036.59
579.69	44980.42
579.85	44601.25
580.01	45270.64
580.17	44545.08
580.33	45434.48
580.49	44858.71
580.65	44814.24
580.82	45125.53
580.98	44957.01
581.14	44975.73
581.30	45366.60
581.46	45179.36
581.62	45092.76
581.78	45415.76
581.94	44992.12
582.10	45153.62
582.26	45354.90
582.42	45483.63
582.58	45413.41
582.74	44994.46
582.90	44994.46
583.06	45628.74
583.22	44959.35
583.38	45144.25
583.54	45221.49
583.70	45392.35
583.86	45385.33
584.02	45490.65
584.18	45134.89
584.34	45492.99
584.50	45743.43
584.66	45420.44
584.82	45202.77
584.98	45382.99
585.14	45371.28
585.30	44842.32
585.46	45027.23
585.62	45024.89
585.78	45249.58
585.94	44793.17
586.10	45277.66
586.26	44938.29
586.42	44989.78
586.58	45525.76
586.74	45668.53
586.90	45200.43
587.06	45240.21
587.22	45436.82
587.38	44945.31
587.54	45640.45
587.70	45890.88
587.86	45560.87
588.02	45324.47
588.18	45439.16
588.34	45315.11
588.49	45560.87
588.65	45254.26
588.81	45235.53
588.97	45521.08
589.13	45521.08
589.29	45200.43
589.45	45322.13
589.61	45399.37
589.77	45237.87
589.93	45174.68
590.08	45701.30
590.24	45495.33
590.40	45794.92
590.56	45729.39
590.72	45766.84
590.88	46115.58
591.04	45652.15
591.20	46068.76
591.35	45872.16
591.51	46021.95
591.67	46138.98
591.83	46218.56
591.99	45804.28
592.15	45441.50
592.31	45663.85
592.46	45331.50
592.62	45614.70
592.78	45787.90
592.94	46031.32
593.10	46031.32
593.26	45937.69
593.41	46199.83
593.57	45710.66
593.73	46003.23
593.89	46234.94
594.05	46028.98
594.20	45923.65
594.36	45780.88
594.52	46349.63
594.68	45766.84
594.84	45961.10
594.99	46550.91
595.15	46005.57
595.31	46143.66
595.47	46199.83
595.62	45958.76
595.78	45624.06
595.94	45701.30
596.10	45684.92
596.25	46164.73
596.41	45785.56
596.57	45951.74
596.73	46059.40
596.88	45872.16
597.04	45883.86
597.20	46050.04
597.36	45844.07
597.51	46078.13
597.67	45930.67
597.83	45862.80
597.99	46169.41
598.14	46101.53
598.30	45900.25
598.46	46005.57
598.61	46026.63
598.77	45764.49
598.93	46305.16
599.09	46005.57
599.24	46618.79
599.40	45956.42
599.56	45736.41
599.71	46623.47
599.87	46829.44
600.03	46415.16
600.18	46361.33
600.34	46389.42
600.50	46209.20
600.65	46260.69
600.81	46412.82
600.97	46302.82
601.12	46211.54
601.28	46164.73
601.44	46141.32
601.59	46454.95
601.75	46031.32
601.91	46787.31
602.06	46122.60
602.22	45895.56
602.37	46342.61
602.53	45851.09
602.69	46579.00
602.84	46031.32
603.00	46265.37
603.16	46454.95
603.31	45869.82
603.47	46232.60
603.62	46127.28
603.78	46459.63
603.94	46480.70
604.09	46436.23
604.25	46089.83
604.40	46162.39
604.56	46197.49
604.71	46433.89
604.87	45989.19
605.03	45883.86
605.18	46316.86
605.34	46192.81
605.49	45811.31
605.65	46066.42
605.80	45963.44
605.96	46199.83
606.12	46340.27
606.27	45883.86
606.43	45586.61
606.58	46110.89
606.74	45900.25
606.89	46309.84
607.05	46080.47
607.20	46328.56
607.36	45996.21
607.51	46429.21
607.67	46014.93
607.82	45811.31
607.98	45961.10
608.13	45736.41
608.29	46136.64
608.44	46050.04
608.60	45904.93
608.75	45832.37
608.91	45944.72
609.06	45422.78
609.22	45764.49
609.37	46028.98
609.53	45544.48
609.68	45535.12
609.84	45769.18
609.99	46157.70
610.15	45773.86
610.30	46040.68
610.46	45785.56
610.61	46234.94
610.76	45464.91
610.92	45462.57
611.07	45675.55
611.23	45333.84
611.38	45729.39
611.54	45588.95
611.69	45605.34
611.84	45923.65
612.00	45872.16
612.15	45432.14
612.31	45659.17
612.46	45301.07
612.62	45284.68
612.77	45666.19
612.92	45713.00
613.08	45626.40
613.23	45521.08
613.39	45364.26
613.54	45113.83
613.69	45670.87
613.85	45319.79
614.00	45462.57
614.15	45680.24
614.31	45020.20
614.46	45296.39
614.62	45324.47
614.77	45495.33
614.92	44992.12
615.08	45591.30
615.23	45624.06
615.38	45794.92
615.54	45062.33
615.69	45450.86
615.84	45617.04
616.00	45617.04
616.15	45329.16
616.30	45752.79
616.46	44828.28
616.61	45242.56
616.76	45251.92
616.92	44811.90
617.07	45422.78
617.22	45029.57
617.37	44811.90
617.53	45174.68
617.68	45015.52
617.83	44626.99
617.99	45476.61
618.14	45144.25
618.29	44914.88
618.45	45036.59
618.60	44928.92
618.75	44458.48
618.90	45045.95
619.06	45036.59
619.21	44786.15
619.36	45104.46
619.51	44378.90
619.67	44664.44
619.82	44732.32
619.97	45104.46
620.12	44486.56
620.28	44552.10
620.43	44797.85
620.58	45160.64
620.73	45043.61
620.89	44645.72
621.04	44760.40
621.19	44676.15
621.34	44683.17
621.49	44414.01
621.65	44329.75
621.80	44758.06
621.95	44381.24
622.10	44722.96
622.25	44783.81
622.41	44914.88
622.56	44531.03
622.71	44531.03
622.86	44802.53
623.01	44954.67
623.16	44282.94
623.32	44212.72
623.47	44053.56
623.62	44275.91
623.77	44872.75
623.92	44512.31
624.07	44201.02
624.23	44641.04
624.38	44371.88
624.53	44804.88
624.68	43669.72
624.83	44268.89
624.98	44060.58
625.13	43758.66
625.29	44041.86
625.44	44142.50
625.59	43938.88
625.74	43833.55
625.89	43608.86
626.04	43576.09
626.19	43789.08
626.34	43873.34
626.49	43459.07
626.65	43356.08
626.80	43524.60
626.95	43384.17
627.10	43079.90
627.25	43913.13
627.40	43945.90
627.55	43835.89
627.70	43615.88
627.85	43997.39
628.00	43749.29
628.15	43936.54
628.30	43178.20
628.45	43650.99
628.60	42953.51
628.76	43192.25
628.91	43646.31
629.06	43161.82
629.21	43313.95
629.36	42918.40
629.51	43306.93
629.66	43557.37
629.81	43409.92
629.96	43510.56
630.11	43234.38
630.26	43145.44
630.41	42878.61
630.56	43037.77
630.71	42834.14
630.86	43229.69
631.01	43079.90
631.16	43072.88
631.31	42967.55
631.46	42890.32
631.61	43161.82
631.76	43217.99
631.91	43168.84
632.06	43559.71
632.21	43475.45
632.36	43447.36
632.51	42941.81
632.66	43157.14
632.81	42976.92
632.96	42944.15
633.10	42986.28
633.25	42557.96
633.40	42756.91
633.55	42639.88
633.70	43180.54
633.85	42188.16
634.00	42340.29
634.15	42394.12
634.30	42665.63
634.45	42408.17
634.60	42911.38
634.75	42768.61
634.90	42670.31
635.05	43086.92
635.19	42302.84
635.34	42433.91
635.49	42763.93
635.64	42564.98
635.79	42770.95
635.94	42501.79
636.09	42478.38
636.24	42527.53
636.39	42213.90
636.53	42197.52
636.68	41827.71
636.83	41869.84
636.98	41841.76
637.13	41823.03
637.28	41862.82
637.43	42429.23
637.57	42319.23
637.72	41799.63
637.87	41752.82
638.02	42169.43
638.17	42024.32
638.32	41542.17
638.46	41755.16
638.61	42157.73
638.76	41500.04
638.91	41752.82
639.06	41677.92
639.20	41237.90
639.35	41638.13
639.50	41654.51
639.65	41890.91
639.80	41701.32
639.94	42038.36
640.09	41666.22
640.24	41855.80
640.39	41509.40
640.54	41340.88
640.68	41698.98
640.83	41624.09
640.98	41441.53
641.13	41254.28
641.27	41855.80
641.42	41956.44
641.57	40870.43
641.72	41532.81
641.86	41408.76
642.01	41181.73
642.16	41050.66
642.31	41378.33
642.45	41462.59
642.60	41064.70
642.75	40917.25
642.90	41188.75
643.04	41181.73
643.19	40786.18
643.34	41057.68
643.48	40891.50
643.63	41155.98
643.78	40954.69
643.93	41235.56
644.07	40825.96
644.22	41251.94
644.37	41127.89
644.51	40950.01
644.66	41418.12
644.81	40678.51
644.95	40900.86
645.10	40832.99
645.25	40835.33
645.39	40781.49
645.54	40889.16
645.69	40334.45
645.83	40409.35
645.98	40725.32
646.13	40383.60
646.27	40554.46
646.42	40713.62
646.57	40952.35
646.71	40713.62
646.86	40807.24
647.00	40381.26
647.15	40753.41
647.30	40781.49
647.44	40325.09
647.59	40399.99
647.74	40252.53
647.88	40442.12
648.03	40292.32
648.17	40622.34
648.32	40781.49
648.47	40458.50
648.61	40030.18
648.76	40182.32
648.90	40044.23
649.05	40023.16
649.20	40084.01
649.34	40032.52
649.49	40542.76
649.63	40580.21
649.78	40313.39
649.92	39831.24
650.07	40694.89
650.21	40140.19
650.36	40624.68
650.51	40088.70
650.65	40025.50
650.80	40177.64
650.94	39943.58
651.09	40442.12
651.23	39440.37
651.38	39938.90
651.52	39622.93
651.67	39243.76
651.81	40025.50
651.96	40343.81
652.10	39737.62
652.25	39599.52
652.39	39625.27
652.54	39700.17
652.68	39744.64
652.83	39337.38
652.97	39597.18
653.12	39622.93
653.26	39370.15
653.41	39426.32
653.55	39512.92
653.70	39665.06
653.84	39505.90
653.99	39302.28
654.13	39583.14
654.27	39166.52
654.42	39660.38
654.56	39140.78
654.71	39508.24
654.85	39346.75
655.00	39732.93
655.14	39173.55
655.29	39627.61
655.43	39374.83
655.57	38911.41
655.72	39009.71
655.86	39241.42
656.01	38244.35
656.15	38827.15
656.30	38787.36
656.44	39063.54
656.58	39210.99
656.73	38995.67
656.87	39049.50
657.01	38831.83
657.16	38590.75
657.30	38822.47
657.45	39288.23
657.59	38768.63
657.73	38513.52
657.88	38799.06
658.02	38967.58
658.16	38658.63
658.31	38909.07
658.45	38651.61
658.60	38143.71
658.74	38630.54
658.88	38183.50
659.03	38316.91
659.17	38600.12
659.31	38302.87
659.46	38480.75
659.60	38258.40
659.74	37961.15
659.89	38043.07
660.03	37914.34
660.17	38127.33
660.32	38073.49
660.46	37982.21
660.60	37315.16
660.74	38242.01
660.89	37801.99
661.03	37912.00
661.17	37247.29
661.32	37397.08
661.46	37841.78
661.60	37680.28
661.74	37818.38
661.89	37752.84
662.03	37680.28
662.17	36928.97
662.31	37291.76
662.46	37537.51
662.60	37521.13
662.74	36758.11
662.88	37034.30
663.03	36753.43
663.17	37027.28
663.31	36385.97
663.45	36940.68
663.60	37064.72
663.74	37256.65
663.88	37048.34
664.02	37041.32
664.17	37055.36
664.31	36514.70
664.45	36437.46
664.59	36924.29
664.73	36505.34
664.88	36460.87
665.02	36278.30
665.16	36264.26
665.30	36474.91
665.44	36320.43
665.59	36224.47
665.73	36100.42
665.87	35786.79
666.01	36114.47
666.15	35988.08
666.29	36077.02
666.44	36294.69
666.58	36154.26
666.72	35812.54
666.86	36025.53
667.00	35985.74
667.14	35590.19
667.28	35765.73
667.43	35157.19
667.57	35964.67
667.71	35803.17
667.85	35456.78
667.99	35723.60
668.13	35295.28
668.27	35037.82
668.41	35117.40
668.56	34712.49
668.70	34838.87
668.84	34892.71
668.98	35026.12
669.12	34520.56
669.26	34881.00
669.40	35108.04
669.54	34831.85
669.68	34859.94
669.82	34483.11
669.96	34017.35
670.10	34511.20
670.25	34511.20
670.39	34024.37
670.53	34302.89
670.67	34120.33
670.81	34721.85
670.95	33848.83
671.09	34106.29
671.23	34139.05
671.37	33879.25
671.51	33755.21
671.65	33923.72
671.79	33928.41
671.93	33666.27
672.07	33340.93
672.21	33443.91
672.35	33441.57
672.49	33912.02
672.63	33127.94
672.77	33460.30
672.91	33244.97
673.05	33156.03
673.19	33027.30
673.33	32865.80
673.47	32711.33
673.61	32584.94
673.75	32271.31
673.89	32348.54
674.03	32357.91
674.17	32549.83
674.31	32222.16
674.45	32123.85
674.59	32233.86
674.73	31938.95
674.87	31906.18
675.01	31772.77
675.15	31660.43
675.29	32135.56
675.43	31915.54
675.56	31857.03
675.70	31386.58
675.84	31995.12
675.98	30408.24
676.12	31426.37
676.26	31295.30
676.40	30960.61
676.54	31065.93
676.68	31241.47
676.82	30841.24
676.96	31098.70
677.10	31243.81
677.23	30630.59
677.37	30235.04
677.51	30455.05
677.65	30621.23
677.79	30195.25
677.93	30235.04
678.07	30228.02
678.21	30249.08
678.34	30174.19
678.48	29589.05
678.62	29874.60
678.76	29467.34
678.90	29811.40
679.04	29577.35
679.18	30026.73
679.31	29106.90
679.45	29125.63
679.59	29324.57
679.73	29099.88
679.87	29020.30
680.00	28638.80
680.14	29017.96
680.28	28629.43
680.42	28580.28
680.56	28166.01
680.70	28444.53
680.83	27990.47
680.97	28247.93
681.11	27971.74
681.25	27538.74
681.39	27508.32
681.52	28051.32
681.66	27463.85
681.80	27182.98
681.94	27061.27
682.07	27328.10
682.21	26918.50
682.35	27197.02
682.49	26787.43
682.62	27063.61
682.76	27405.33
682.90	27339.80
683.04	27075.32
683.17	26555.72
683.31	26473.80
683.45	26354.43
683.59	26338.05
683.72	26008.03
683.86	26143.78
684.00	26277.19
684.13	26183.57
684.27	25928.45
684.41	25834.83
684.55	25507.16
684.68	25809.09
684.82	25600.78
684.96	25750.57
685.09	25434.60
685.23	25399.49
685.37	25425.24
685.50	25706.10
685.64	24999.26
685.78	25001.60
685.91	24624.78
686.05	24524.13
686.19	24156.67
686.32	24425.83
686.46	24194.12
686.60	24020.92
686.73	24552.22
686.87	24271.36
687.01	24439.87
687.14	24177.73
687.28	24264.33
687.42	24032.62
687.55	23964.75
687.69	23688.56
687.82	23700.26
687.96	23295.35
688.10	23910.91
688.23	23360.89
688.37	23564.51
688.50	23459.19
688.64	23213.43
688.78	23117.47
688.91	23187.69
689.05	22841.29
689.18	22731.28
689.32	22429.35
689.46	22377.86
689.59	22534.68
689.73	22794.48
689.86	22630.64
690.00	22253.81
690.13	22314.67
690.27	22300.62
690.41	22118.06
690.54	21926.14
690.68	21947.20
690.81	21748.26
690.95	21727.19
691.08	21446.33
691.22	21273.13
691.35	21472.07
691.49	21448.67
691.62	21158.44
691.76	21064.82
691.89	21090.57
692.03	20676.29
692.16	20690.34
692.30	20582.67
692.43	20727.78
692.57	20573.31
692.70	20180.10
692.84	20304.15
692.97	19976.47
693.11	20152.01
693.24	19936.68
693.38	19756.46
693.51	19667.52
693.65	19655.82
693.78	19700.29
693.92	19939.02
694.05	19286.01
694.19	19510.71
694.32	19522.41
694.45	19559.86
694.59	19686.25
694.72	19733.06
694.86	19400.70
694.99	18862.38
695.13	19051.96
695.26	18291.29
695.39	19087.07
695.53	18579.17
695.66	18817.91
695.80	18670.45
695.93	18684.50
696.07	18438.74
696.20	18340.44
696.33	18003.40
696.47	17926.16
696.60	18008.08
696.73	18043.19
696.87	18183.62
697.00	18024.47
697.14	17490.82
697.27	17631.26
697.40	17813.82
697.54	17563.38
697.67	17341.03
697.80	17308.26
697.94	17355.07
698.07	17221.66
698.21	17125.70
698.34	17060.16
698.47	17001.65
698.61	16332.26
698.74	16870.58
698.87	16503.12
699.01	16278.43
699.14	16643.55
699.27	16812.07
699.40	16177.78
699.54	16023.31
699.67	16315.87
699.80	16109.91
699.94	15833.72
700.07	16109.91
700.20	16093.52
700.34	15854.79
700.47	15695.63
700.60	16088.84
700.73	15697.97
700.87	15597.33
701.00	15232.21
701.13	15445.20
701.26	15573.92
701.40	15281.36
701.53	15021.56
701.66	15119.86
701.79	15269.66
701.93	14909.21
702.06	14850.70
702.19	14822.61
702.32	14747.72
702.46	14696.22
702.59	14721.97
702.72	14831.97
702.85	14525.36
702.99	14553.45
703.12	14190.67
703.25	14310.04
703.38	14293.65
703.51	14382.59
703.65	13991.72
703.78	14052.58
703.91	13621.92
704.04	13886.40
704.17	13565.74
704.31	13563.40
704.44	13795.12
704.57	13724.90
704.70	13657.03
704.83	13549.36
704.96	13249.77
705.10	13324.67
705.23	12947.84
>>>>>End Processed Spectral Data<<<<<
