SpectraSuite Data File
++++++++++++++++++++++++++++++++++++
Date: Fri Oct 25 11:34:12 EDT 2013
User: price-jones
Dark Spectrum Present: No
Reference Spectrum Present: No
Number of Sampled Component Spectra: 1
Spectrometers: USB2+H05261
Integration Time (usec): 100000 (USB2+H05261)
Spectra Averaged: 1 (USB2+H05261)
Boxcar Smoothing: 0 (USB2+H05261)
Correct for Electrical Dark: No (USB2+H05261)
Strobe/Lamp Enabled: No (USB2+H05261)
Correct for Detector Non-linearity: No (USB2+H05261)
Correct for Stray Light: No (USB2+H05261)
Number of Pixels in Processed Spectrum: 2048
>>>>>Begin Processed Spectral Data<<<<<
365.73	304.27
365.92	304.27
366.12	304.27
366.32	201.29
366.52	187.24
366.72	173.20
366.91	173.20
367.11	145.11
367.31	156.82
367.51	166.18
367.70	210.65
367.90	234.05
368.10	152.13
368.30	203.63
368.49	152.13
368.69	182.56
368.89	210.65
369.09	196.60
369.28	224.69
369.48	170.86
369.68	322.99
369.87	229.37
370.07	241.08
370.27	322.99
370.47	332.36
370.66	456.40
370.86	472.79
371.06	573.43
371.25	573.43
371.45	454.06
371.65	493.85
371.84	568.75
372.04	535.98
372.24	526.62
372.44	624.92
372.63	606.20
372.83	594.50
373.03	603.86
373.22	528.96
373.42	599.18
373.62	634.29
373.81	564.07
374.01	685.78
374.21	617.90
374.40	599.18
374.60	627.26
374.79	629.60
374.99	636.63
375.19	681.10
375.38	601.52
375.58	608.54
375.78	674.07
375.97	657.69
376.17	734.93
376.37	645.99
376.56	725.57
376.76	650.67
376.95	648.33
377.15	664.71
377.35	648.33
377.54	711.52
377.74	697.48
377.93	690.46
378.13	697.48
378.33	674.07
378.52	690.46
378.72	671.73
378.91	727.91
379.11	615.56
379.31	697.48
379.50	730.25
379.70	755.99
379.89	720.88
380.09	734.93
380.28	751.31
380.48	737.27
380.68	746.63
380.87	662.37
381.07	781.74
381.26	809.83
381.46	755.99
381.65	741.95
381.85	725.57
382.04	786.42
382.24	734.93
382.43	847.27
382.63	793.44
382.83	781.74
383.02	765.36
383.22	840.25
383.41	755.99
383.61	793.44
383.80	814.51
384.00	826.21
384.19	802.80
384.39	791.10
384.58	795.78
384.78	854.30
384.97	788.76
385.17	805.14
385.36	844.93
385.56	854.30
385.75	842.59
385.95	880.04
386.14	877.70
386.34	823.87
386.53	760.67
386.72	880.04
386.92	866.00
387.11	945.58
387.31	903.45
387.50	788.76
387.70	924.51
387.89	812.17
388.09	861.32
388.28	849.61
388.48	880.04
388.67	917.49
388.86	968.98
389.06	861.32
389.25	997.07
389.45	1076.65
389.64	877.70
389.84	905.79
390.03	1008.77
390.22	929.19
390.42	945.58
390.61	877.70
390.81	1046.22
391.00	964.30
391.19	1022.81
391.39	940.90
391.58	1036.86
391.78	990.05
391.97	959.62
392.16	1041.54
392.36	1008.77
392.55	1123.46
392.75	1006.43
392.94	924.51
393.13	1053.24
393.33	1006.43
393.52	1048.56
393.71	1048.56
393.91	1142.18
394.10	999.41
394.29	1128.14
394.49	1074.31
394.68	1156.22
394.88	1132.82
395.07	1116.44
395.26	1086.01
395.46	1121.12
395.65	1221.76
395.84	1238.14
396.04	1196.01
396.23	1181.97
396.42	1137.50
396.62	1128.14
396.81	1198.35
397.00	1151.54
397.19	1249.85
397.39	1226.44
397.58	1254.53
397.77	1310.70
397.97	1242.82
398.16	1203.04
398.35	1212.40
398.55	1270.91
398.74	1259.21
398.93	1315.38
399.12	1359.85
399.32	1275.59
399.51	1294.32
399.70	1284.95
399.90	1369.21
400.09	1341.13
400.28	1313.04
400.47	1273.25
400.67	1467.52
400.86	1348.15
401.05	1383.26
401.24	1350.49
401.44	1404.32
401.63	1401.98
401.82	1401.98
402.01	1345.81
402.21	1446.45
402.40	1432.41
402.59	1366.87
402.78	1486.24
402.97	1551.78
403.17	1582.20
403.36	1544.75
403.55	1544.75
403.74	1537.73
403.93	1591.56
404.13	1575.18
404.32	1600.93
404.51	1643.06
404.70	1570.50
404.89	1530.71
405.09	1661.78
405.28	1631.35
405.47	1654.76
405.66	1640.72
405.85	1739.02
406.05	1526.03
406.24	1629.01
406.43	1729.66
406.62	1715.61
406.81	1769.44
407.00	1633.69
407.20	1727.32
407.39	1769.44
407.58	1778.81
407.77	1914.56
407.96	1713.27
408.15	1813.92
408.34	1806.89
408.54	1804.55
408.73	1809.23
408.92	1870.09
409.11	1968.39
409.30	1933.28
409.49	1942.64
409.68	1891.15
409.87	1895.83
410.07	2043.29
410.26	2040.95
410.45	1884.13
410.64	2036.27
410.83	2071.37
411.02	2031.58
411.21	2127.55
411.40	2045.63
411.59	2200.10
411.78	2172.02
411.98	2160.31
412.17	2218.83
412.36	2228.19
412.55	2160.31
412.74	2333.51
412.93	2333.51
413.12	2284.36
413.31	2377.98
413.50	2328.83
413.69	2394.37
413.88	2399.05
414.07	2473.95
414.26	2370.96
414.45	2485.65
414.64	2445.86
414.83	2527.78
415.02	2480.97
415.22	2579.27
415.41	2523.10
415.60	2663.53
415.79	2689.28
415.98	2775.88
416.17	2703.32
416.36	2682.25
416.55	2691.62
416.74	2780.56
416.93	2726.72
417.12	2803.96
417.31	2787.58
417.50	2855.45
417.69	2946.73
417.88	2836.73
418.07	2782.90
418.26	2869.50
418.45	3009.93
418.64	3133.98
418.83	3019.29
419.02	2986.52
419.21	2981.84
419.39	3101.21
419.58	3066.10
419.77	3026.31
419.96	3023.97
420.15	3108.23
420.34	3169.09
420.53	3213.56
420.72	3274.41
420.91	3185.47
421.10	3185.47
421.29	3197.17
421.48	3269.73
421.67	3178.45
421.86	3199.51
422.05	3351.65
422.24	3295.47
422.43	3243.98
422.61	3396.12
422.80	3361.01
422.99	3309.52
423.18	3382.07
423.37	3400.80
423.56	3323.56
423.75	3412.50
423.94	3265.05
424.13	3101.21
424.32	3236.96
424.50	3353.99
424.69	3358.67
424.88	3372.71
425.07	3286.11
425.26	3353.99
425.45	3389.10
425.64	3372.71
425.83	3384.41
426.01	3377.39
426.20	3349.31
426.39	3403.14
426.58	3384.41
426.77	3452.29
426.96	3372.71
427.15	3431.23
427.33	3421.86
427.52	3473.36
427.71	3592.72
427.90	3574.00
428.09	3583.36
428.28	3482.72
428.46	3686.34
428.65	3468.67
428.84	3557.61
429.03	3686.34
429.22	3506.12
429.40	3737.84
429.59	3744.86
429.78	3660.60
429.97	3658.26
430.16	3747.20
430.34	3742.52
430.53	3672.30
430.72	3716.77
430.91	3826.78
431.10	3646.55
431.28	3817.41
431.47	4009.34
431.66	3904.01
431.85	3955.51
432.03	3918.06
432.22	4124.02
432.41	4145.09
432.60	3882.95
432.79	3969.55
432.97	3922.74
433.16	4121.68
433.35	4095.94
433.54	4028.06
433.72	4049.13
433.91	3967.21
434.10	4107.64
434.28	4098.28
434.47	4135.73
434.66	4311.27
434.85	4273.82
435.03	4257.43
435.22	4166.15
435.41	4294.88
435.59	4428.29
435.78	4215.30
435.97	4367.44
436.16	4294.88
436.34	4208.28
436.53	4409.57
436.72	4397.87
436.90	4313.61
437.09	4421.27
437.28	4489.15
437.46	4400.21
437.65	4493.83
437.84	4554.68
438.02	4531.28
438.21	4512.55
438.40	4517.23
438.58	4802.78
438.77	4751.29
438.96	4585.11
439.14	4786.40
439.33	4922.15
439.52	4880.02
439.70	4901.08
439.89	5041.51
440.08	4983.00
440.26	5018.11
440.45	4917.47
440.63	4938.53
440.82	5029.81
441.01	5036.83
441.19	5100.03
441.38	5048.54
441.57	5144.50
441.75	5273.23
441.94	5305.99
442.12	5392.59
442.31	5242.80
442.50	5317.70
442.68	5151.52
442.87	5238.12
443.05	5315.36
443.24	5430.04
443.43	5308.34
443.61	5540.05
443.80	5462.81
443.98	5345.78
444.17	5116.41
444.35	5469.83
444.54	5310.68
444.73	5416.00
444.91	5535.37
445.10	5650.05
445.28	5416.00
445.47	5488.56
445.65	5423.02
445.84	5605.58
446.02	5547.07
446.21	5565.79
446.39	5448.77
446.58	5664.10
446.77	5614.95
446.95	5420.68
447.14	5504.94
447.32	5713.25
447.51	5692.18
447.69	5654.73
447.88	5666.44
448.06	5645.37
448.25	5659.42
448.43	5584.52
448.62	5526.00
448.80	5713.25
448.99	5790.49
449.17	5746.02
449.36	5645.37
449.54	5879.43
449.73	5921.56
449.91	5961.34
450.10	5886.45
450.28	6040.92
450.46	6066.67
450.65	5984.75
450.83	5902.83
451.02	5956.66
451.20	6064.33
451.39	6003.47
451.57	6080.71
451.76	5888.79
451.94	6136.88
452.13	6204.76
452.31	6129.86
452.49	6160.29
452.68	6197.74
452.86	6092.41
453.05	6197.74
453.23	6377.96
453.42	6174.33
453.60	6033.90
453.78	6413.07
453.97	6108.80
454.15	6160.29
454.34	6244.55
454.52	6455.20
454.70	6356.90
454.89	6319.45
455.07	6392.00
455.26	6574.56
455.44	6436.47
455.62	6466.90
455.81	6520.73
455.99	6682.23
456.17	6623.72
456.36	6633.08
456.54	6703.29
456.73	6724.36
456.91	6717.34
457.09	6796.92
457.28	6974.80
457.46	6796.92
457.64	6799.26
457.83	6827.34
458.01	6743.08
458.19	7087.14
458.38	6895.22
458.56	6918.62
458.74	6902.24
458.93	7133.95
459.11	6995.86
459.29	7063.74
459.48	7061.40
459.66	7023.95
459.84	7262.68
460.03	7262.68
460.21	7047.35
460.39	7084.80
460.57	7304.81
460.76	7222.89
460.94	7248.64
461.12	7307.15
461.31	7267.36
461.49	7215.87
461.67	7190.13
461.85	7499.08
462.04	7377.37
462.22	7861.86
462.40	7779.94
462.59	7426.52
462.77	7389.07
462.95	7571.63
463.13	7503.76
463.32	7578.65
463.50	7838.45
463.68	7791.64
463.86	7669.94
464.05	7396.09
464.23	7665.25
464.41	7962.50
464.59	7634.83
464.78	8002.29
464.96	7882.92
465.14	7676.96
465.32	7747.17
465.50	8032.72
465.69	7826.75
465.87	7789.30
466.05	8039.74
466.23	7985.91
466.41	8051.44
466.60	8201.24
466.78	7901.65
466.96	7953.14
467.14	8056.12
467.32	8149.75
467.51	8177.83
467.69	7843.14
467.87	8105.28
468.05	8149.75
468.23	8086.55
468.41	8023.36
468.60	8348.69
468.78	8276.13
468.96	8341.67
469.14	8341.67
469.32	8482.10
469.50	8182.51
469.69	8374.44
469.87	8341.67
470.05	8627.21
470.23	8519.55
470.41	8519.55
470.59	8816.80
470.77	8727.86
470.95	8678.71
471.14	8725.52
471.32	8592.11
471.50	8805.10
471.68	8830.84
471.86	8884.67
472.04	8938.51
472.22	9256.82
472.40	8926.80
472.58	8931.48
472.77	8924.46
472.95	9006.38
473.13	9355.12
473.31	9128.09
473.49	9542.36
473.67	9221.71
473.85	9282.56
474.03	9408.95
474.21	9666.41
474.39	9612.58
474.57	9523.64
474.75	9729.61
474.93	9619.60
475.12	9568.11
475.30	9717.90
475.48	9635.99
475.66	9879.40
475.84	9865.36
476.02	9867.70
476.20	9767.06
476.38	10125.16
476.56	10527.73
476.74	10162.61
476.92	10244.52
477.10	10167.29
477.28	10347.51
477.46	10422.41
477.64	10513.69
477.82	10843.70
478.00	10841.36
478.18	10972.43
478.36	10836.68
478.54	11234.57
478.72	11117.54
478.90	11150.31
479.08	11279.04
479.26	11461.60
479.44	11431.18
479.62	11566.93
479.80	11433.52
479.98	11723.74
480.16	11943.75
480.34	11531.82
480.52	11843.11
480.70	11969.50
480.88	11833.75
481.06	12011.63
481.24	12109.93
481.41	12252.70
481.59	12311.22
481.77	12613.15
481.95	12702.09
482.13	12662.30
482.31	12779.32
482.49	13011.04
482.67	12861.24
482.85	13125.72
483.03	13198.28
483.21	13099.98
483.39	13273.18
483.57	13315.31
483.74	13472.12
483.92	13689.79
484.10	13689.79
484.28	13870.01
484.46	14150.88
484.64	14340.46
484.82	14003.43
485.00	14218.75
485.18	14436.42
485.35	14768.78
485.53	14501.96
485.71	14747.72
485.89	14679.84
486.07	14728.99
486.25	14932.62
486.43	15082.41
486.61	15421.79
486.78	15421.79
486.96	15513.07
487.14	15829.04
487.32	15503.71
487.50	15847.77
487.68	15864.15
487.85	16222.25
488.03	16102.89
488.21	16594.40
488.39	16348.64
488.57	16889.31
488.75	16620.14
488.92	16912.71
489.10	17029.74
489.28	17135.06
489.46	17209.96
489.64	17207.62
489.81	17685.09
489.99	17736.58
490.17	17561.04
490.35	18118.09
490.53	17752.96
490.70	18260.86
490.88	17970.63
491.06	18443.42
491.24	18530.02
491.41	18745.35
491.59	18682.16
491.77	18651.73
491.95	19103.45
492.13	18850.67
492.30	19073.03
492.48	19122.18
492.66	19300.06
492.84	19470.92
493.01	19618.37
493.19	19477.94
493.37	19751.78
493.54	19892.21
493.72	20049.03
493.90	20011.58
494.08	20336.91
494.25	20477.35
494.43	20416.49
494.61	20608.42
494.79	20849.49
494.96	20739.49
495.14	20929.07
495.32	20900.98
495.49	21226.32
495.67	21404.20
495.85	21303.56
496.02	21774.00
496.20	21362.07
496.38	21834.86
496.55	21989.33
496.73	22450.42
496.91	22033.80
497.09	22230.41
497.26	22522.98
497.44	22162.53
497.62	22398.93
497.79	22590.85
497.97	22396.59
498.14	23023.85
498.32	22970.02
498.50	23262.58
498.67	23269.61
498.85	23377.27
499.03	23562.17
499.20	23527.06
499.38	23871.12
499.56	23702.61
499.73	23754.10
499.91	23819.63
500.08	24273.70
500.26	23885.17
500.44	24341.57
500.61	24383.70
500.79	24070.07
500.97	24669.25
501.14	24669.25
501.32	24854.15
501.49	24652.86
501.67	24884.58
501.84	25034.37
502.02	24744.14
502.20	24922.02
502.37	25025.01
502.55	24748.82
502.72	25170.12
502.90	25261.40
503.07	25261.40
503.25	25163.10
503.43	25399.49
503.60	25914.41
503.78	25743.55
503.95	25420.56
504.13	25687.38
504.30	25872.28
504.48	25858.24
504.65	26279.54
504.83	26384.86
505.01	26668.06
505.18	26214.00
505.36	26466.78
505.53	26632.96
505.71	26799.13
505.88	26677.43
506.06	26677.43
506.23	26813.18
506.41	27115.11
506.58	27154.90
506.76	27260.22
506.93	27182.98
507.11	27524.70
507.28	27175.96
507.46	27173.62
507.63	27220.43
507.81	27606.62
507.98	27608.96
508.16	28027.92
508.33	28240.90
508.50	27793.86
508.68	28271.33
508.85	28128.56
509.03	27976.42
509.20	28091.11
509.38	28318.14
509.55	28533.47
509.73	28741.78
509.90	28849.44
510.08	28601.35
510.25	28737.10
510.42	29062.43
510.60	28687.95
510.77	29071.79
510.95	29223.93
511.12	29212.23
511.30	29230.95
511.47	29202.86
511.64	29544.58
511.82	29834.81
511.99	29453.30
512.17	29928.43
512.34	29642.88
512.51	29811.40
512.69	30059.50
512.86	30426.96
513.04	29900.34
513.21	29902.68
513.38	30263.13
513.56	30326.32
513.73	30293.55
513.90	30663.36
514.08	30408.24
514.25	30815.49
514.43	30525.27
514.60	30792.09
514.77	30761.66
514.95	31157.21
515.12	30981.67
515.29	30937.20
515.47	31168.91
515.64	31295.30
515.81	30995.71
515.99	31157.21
516.16	31630.00
516.33	31253.17
516.51	31587.87
516.68	31854.69
516.85	31512.97
517.03	31854.69
517.20	31653.40
517.37	31868.73
517.54	32034.91
517.72	32107.47
517.89	31831.29
518.06	32046.62
518.24	32369.61
518.41	32163.64
518.58	31995.12
518.75	32121.51
518.93	32432.80
519.10	32573.24
519.27	32147.26
519.45	32542.81
519.62	32486.64
519.79	32746.44
519.96	33006.23
520.14	32936.02
520.31	32680.90
520.48	33298.80
520.65	33015.60
520.83	33408.81
521.00	33408.81
521.17	33352.63
521.34	33380.72
521.52	33914.36
521.69	33469.66
521.86	33649.88
522.03	33944.79
522.20	34101.61
522.38	34181.18
522.55	33928.41
522.72	33790.31
522.89	34195.23
523.07	34480.77
523.24	34328.64
523.41	34675.04
523.58	34148.42
523.75	34668.02
523.92	34981.65
524.10	34714.83
524.27	34389.49
524.44	34881.00
524.61	34665.67
524.78	34698.44
524.96	35468.48
525.13	35012.07
525.30	35452.09
525.47	35414.65
525.64	35206.34
525.81	35204.00
525.98	35543.38
526.16	35040.16
526.33	35304.64
526.50	35791.47
526.67	35211.02
526.84	35840.62
527.01	35651.04
527.18	35747.00
527.36	35424.01
527.53	36079.36
527.70	36154.26
527.87	36430.44
528.04	35838.28
528.21	36217.45
528.38	36093.40
528.55	36304.05
528.72	36119.15
528.89	36034.89
529.07	36091.06
529.24	36170.64
529.41	36598.96
529.58	36463.21
529.75	36151.91
529.92	36683.22
530.09	36708.96
530.26	36596.62
530.43	36575.55
530.60	36175.32
530.77	36704.28
530.94	36837.69
531.11	36797.90
531.28	37048.34
531.46	37132.60
531.63	37368.99
531.80	36889.18
531.97	37289.42
532.14	37598.37
532.31	37680.28
532.48	37577.30
532.65	37715.39
532.82	37120.90
532.99	37668.58
533.16	37605.39
533.33	37776.25
533.50	37914.34
533.67	37879.23
533.84	37703.69
534.01	37706.03
534.18	38043.07
534.35	38227.97
534.52	38330.95
534.69	38436.28
534.86	38363.72
535.03	37975.19
535.20	38553.30
535.37	38375.42
535.54	38735.87
535.71	38309.89
535.88	38623.52
536.05	38780.34
536.22	38993.32
536.38	38560.33
536.55	38532.24
536.72	38810.76
536.89	38513.52
537.06	38981.62
537.23	39110.35
537.40	38873.96
537.57	38726.50
537.74	38658.63
537.91	38845.87
538.08	39208.65
538.25	38768.63
538.42	39438.03
538.59	39690.80
538.75	39131.42
538.92	39243.76
539.09	39515.26
539.26	39323.34
539.43	39515.26
539.60	39615.91
539.77	39545.69
539.94	39885.07
540.11	39573.78
540.28	39892.09
540.44	39730.59
540.61	40053.59
540.78	40088.70
540.95	39585.48
541.12	39505.90
541.29	39590.16
541.46	39964.65
541.62	39428.66
541.79	40224.45
541.96	39552.71
542.13	39798.47
542.30	39892.09
542.47	39922.52
542.63	40435.10
542.80	40374.24
542.97	41053.00
543.14	40851.71
543.31	40428.07
543.48	40776.81
543.64	41249.60
543.81	40847.03
543.98	40814.26
544.15	41036.61
544.32	41088.10
544.48	41432.16
544.65	40978.10
544.82	40769.79
544.99	40985.12
545.16	41053.00
545.32	41027.25
545.49	41074.06
545.66	41832.39
545.83	41254.28
546.00	41490.68
546.16	41729.41
546.33	41446.21
546.50	40982.78
546.67	41703.67
546.83	41228.54
547.00	41404.08
547.17	41603.02
547.34	41710.69
547.50	41832.39
547.67	42394.12
547.84	42017.30
548.00	42176.45
548.17	42581.37
548.34	42136.66
548.51	42576.69
548.67	42103.90
548.84	42199.86
549.01	41743.45
549.18	41979.85
549.34	42445.62
549.51	42476.04
549.68	42600.09
549.84	42447.96
550.01	42267.73
550.18	42431.57
550.34	42263.05
550.51	42726.48
550.68	42412.85
550.84	42457.32
551.01	42520.51
551.18	42115.60
551.34	42658.60
551.51	42869.25
551.68	42714.78
551.84	42717.12
552.01	42543.92
552.18	42466.68
552.34	42777.97
552.51	42707.76
552.68	42752.23
552.84	42703.07
553.01	43044.79
553.18	43005.00
553.34	43072.88
553.51	43089.26
553.67	43185.22
553.84	43407.58
554.01	43433.32
554.17	43512.90
554.34	43896.75
554.51	43021.39
554.67	43636.95
554.84	43735.25
555.00	43386.51
555.17	43477.79
555.33	43761.00
555.50	43180.54
555.67	43386.51
555.83	43871.00
556.00	43597.16
556.16	44240.81
556.33	43646.31
556.50	43611.20
556.66	43777.38
556.83	43941.22
556.99	44175.27
557.16	43922.49
557.32	43842.92
557.49	43959.94
557.65	43550.35
557.82	43789.08
557.98	43786.74
558.15	44074.63
558.32	44257.19
558.48	43929.51
558.65	44182.29
558.81	44107.40
558.98	43803.13
559.14	44275.91
559.31	43878.02
559.47	43990.37
559.64	44144.84
559.80	44594.23
559.97	44367.20
560.13	44186.97
560.30	44364.85
560.46	44767.43
560.63	44083.99
560.79	44760.40
560.96	45064.67
561.12	44790.83
561.29	44584.86
561.45	44645.72
561.61	44378.90
561.78	44896.16
561.94	44252.51
562.11	44608.27
562.27	44414.01
562.44	44301.66
562.60	44774.45
562.77	44781.47
562.93	44601.25
563.10	44774.45
563.26	44741.68
563.42	45448.52
563.59	44603.59
563.75	44341.45
563.92	44683.17
564.08	44673.81
564.24	44989.78
564.41	45193.40
564.57	44842.32
564.74	44994.46
564.90	44720.62
565.07	45249.58
565.23	45092.76
565.39	44739.34
565.56	44919.56
565.72	45015.52
565.88	45158.30
566.05	45045.95
566.21	45013.18
566.38	45099.78
566.54	45287.03
566.70	45223.83
566.87	45083.40
567.03	44573.16
567.19	45298.73
567.36	45013.18
567.52	45429.80
567.68	45141.91
567.85	45209.79
568.01	45298.73
568.17	45045.95
568.34	45595.98
568.50	45263.62
568.66	44900.84
568.83	45492.99
568.99	45460.23
569.15	45317.45
569.32	45413.41
569.48	45071.70
569.64	45808.96
569.81	45481.29
569.97	45628.74
570.13	45411.07
570.30	45460.23
570.46	45532.78
570.62	45862.80
570.78	45219.15
570.95	45394.69
571.11	46202.18
571.27	45202.77
571.43	45759.81
571.60	45776.20
571.76	45640.45
571.92	45532.78
572.09	45666.19
572.25	45378.31
572.41	45495.33
572.57	45127.87
572.74	45984.51
572.90	45291.71
573.06	46209.20
573.22	45282.34
573.38	46146.00
573.55	46047.70
573.71	45991.53
573.87	45661.51
574.03	45736.41
574.20	46265.37
574.36	45689.60
574.52	46075.79
574.68	45694.28
574.84	46080.47
575.01	46136.64
575.17	45893.22
575.33	46307.50
575.49	45521.08
575.65	45874.50
575.82	46335.59
575.98	45759.81
576.14	46454.95
576.30	45944.72
576.46	46279.41
576.62	45961.10
576.79	45755.13
576.95	45523.42
577.11	46202.18
577.27	45652.15
577.43	45834.71
577.59	45998.55
577.75	45743.43
577.92	45790.24
578.08	45984.51
578.24	45993.87
578.40	46213.88
578.56	46380.06
578.72	45736.41
578.88	45937.69
579.04	45883.86
579.21	45666.19
579.37	46141.32
579.53	46050.04
579.69	46028.98
579.85	45860.46
580.01	45958.76
580.17	45872.16
580.33	46321.54
580.49	46073.45
580.65	45975.14
580.82	45762.15
580.98	46028.98
581.14	45691.94
581.30	46216.22
581.46	46213.88
581.62	46101.53
581.78	45888.54
581.94	46050.04
582.10	46169.41
582.26	46314.52
582.42	46094.51
582.58	45827.69
582.74	46258.35
582.90	45947.06
583.06	46298.14
583.22	45949.40
583.38	46263.03
583.54	45918.97
583.70	46141.32
583.86	46368.35
584.02	45694.28
584.18	46562.62
584.34	46571.98
584.50	46284.09
584.66	46534.53
584.82	46342.61
584.98	46562.62
585.14	46131.96
585.30	46043.02
585.46	46237.28
585.62	46122.60
585.78	46230.26
585.94	46038.34
586.10	45888.54
586.26	46234.94
586.42	46340.27
586.58	46323.88
586.74	46131.96
586.90	45687.26
587.06	46239.62
587.22	46506.44
587.38	46300.48
587.54	46663.26
587.70	46351.97
587.86	46607.09
588.02	46110.89
588.18	46162.39
588.34	46293.46
588.49	45918.97
588.65	46260.69
588.81	46623.47
588.97	46579.00
589.13	45904.93
589.29	46358.99
589.45	46871.57
589.61	46649.22
589.77	46684.33
589.93	46614.11
590.08	46745.18
590.24	47136.05
590.40	46864.55
590.56	46454.95
590.72	46913.70
590.88	46405.80
591.04	46543.89
591.20	47157.11
591.35	46770.93
591.51	46609.43
591.67	47014.34
591.83	46873.91
591.99	46876.25
592.15	46738.16
592.31	46358.99
592.46	46726.46
592.62	46677.30
592.78	46887.95
592.94	47278.82
593.10	47037.75
593.26	47019.02
593.41	47000.30
593.57	46983.91
593.73	47002.64
593.89	47421.59
594.05	46894.97
594.20	46897.31
594.36	47112.64
594.52	47103.28
594.68	46651.56
594.84	46347.29
594.99	47346.70
595.15	46962.85
595.31	47217.97
595.47	46759.22
595.62	47033.07
595.78	46803.69
595.94	47096.26
596.10	47098.60
596.25	46787.31
596.41	47040.09
596.57	47051.79
596.73	47723.52
596.88	47337.33
597.04	47075.19
597.20	47026.04
597.36	46934.76
597.51	47093.92
597.67	46925.40
597.83	47129.03
597.99	47042.43
598.14	47033.07
598.30	46735.82
598.46	46986.25
598.61	47292.86
598.77	47447.34
598.93	47103.28
599.09	46993.28
599.24	47721.18
599.40	46920.72
599.56	47206.26
599.71	47423.93
599.87	47945.87
600.03	47187.54
600.18	47547.98
600.34	46862.21
600.50	47201.58
600.65	47416.91
600.81	47304.57
600.97	47473.09
601.12	47187.54
601.28	47325.63
601.44	47049.45
601.59	46969.87
601.75	46969.87
601.91	47239.03
602.06	47210.95
602.22	47136.05
602.37	47660.33
602.53	47136.05
602.69	47224.99
602.84	46913.70
603.00	46752.20
603.16	47269.46
603.31	47114.98
603.47	47330.31
603.62	46862.21
603.78	47416.91
603.94	47143.07
604.09	47405.21
604.25	47257.76
604.40	47075.19
604.56	47491.81
604.71	47192.22
604.87	46909.02
605.03	46941.78
605.18	46878.59
605.34	46976.89
605.49	46916.04
605.65	47089.24
605.80	47147.75
605.96	47220.31
606.12	46707.73
606.27	47267.12
606.43	46876.25
606.58	47330.31
606.74	47166.48
606.89	46890.29
607.05	46845.82
607.20	47557.35
607.36	46941.78
607.51	47232.01
607.67	47306.91
607.82	46768.58
607.98	46988.60
608.13	47019.02
608.29	46939.44
608.44	46784.97
608.60	46958.17
608.75	47070.51
608.91	46986.25
609.06	46869.23
609.22	47096.26
609.37	46574.32
609.53	46658.58
609.68	47220.31
609.84	47023.70
609.99	46763.90
610.15	46791.99
610.30	46967.53
610.46	46883.27
610.61	46972.21
610.76	46815.40
610.92	46808.37
611.07	46204.52
611.23	46401.12
611.38	46639.86
611.54	46726.46
611.69	47166.48
611.84	46909.02
612.00	46349.63
612.15	46799.01
612.31	46979.23
612.46	46312.18
612.62	46251.33
612.77	46244.30
612.92	46820.08
613.08	46344.95
613.23	47124.35
613.39	46574.32
613.54	46492.40
613.69	46447.93
613.85	46443.25
614.00	46504.10
614.15	46595.38
614.31	46433.89
614.46	46635.17
614.62	46408.14
614.77	46574.32
614.92	46440.91
615.08	46270.05
615.23	46377.72
615.38	46560.28
615.54	46141.32
615.69	46314.52
615.84	46384.74
616.00	46487.72
616.15	46564.96
616.30	46738.16
616.46	46623.47
616.61	46150.68
616.76	46714.75
616.92	46092.17
617.07	46209.20
617.22	45869.82
617.37	45682.58
617.53	46274.73
617.68	45783.22
617.83	45944.72
617.99	46384.74
618.14	46567.30
618.29	46061.74
618.45	45872.16
618.60	45752.79
618.75	46087.49
618.90	46007.91
619.06	46010.25
619.21	46019.61
619.36	45968.12
619.51	45713.00
619.67	46066.42
619.82	45858.12
619.97	46246.65
620.12	45595.98
620.28	45647.47
620.43	45869.82
620.58	45752.79
620.73	46101.53
620.89	45914.29
621.04	46068.76
621.19	46157.70
621.34	45797.26
621.49	45607.68
621.65	45888.54
621.80	46272.39
621.95	45731.73
622.10	46146.00
622.25	45558.53
622.41	45516.40
622.56	45883.86
622.71	45275.32
622.86	45193.40
623.01	45457.88
623.16	45308.09
623.32	45441.50
623.47	45357.24
623.62	45366.60
623.77	45434.48
623.92	45518.74
624.07	45141.91
624.23	45450.86
624.38	45542.14
624.53	45394.69
624.68	44769.77
624.83	44952.33
624.98	45242.56
625.13	44928.92
625.29	45146.59
625.44	45059.99
625.59	45265.96
625.74	44825.94
625.89	45184.04
626.04	44863.39
626.19	45216.81
626.34	44704.23
626.49	44645.72
626.65	44739.34
626.80	44662.10
626.95	44172.93
627.10	44311.02
627.25	44905.52
627.40	44739.34
627.55	44879.77
627.70	45099.78
627.85	44608.27
628.00	44425.71
628.15	44837.64
628.30	44332.09
628.45	44109.74
628.60	44203.36
628.76	44191.65
628.91	44224.42
629.06	44151.87
629.21	43959.94
629.36	43871.00
629.51	44624.65
629.66	44596.57
629.81	44039.52
629.96	44311.02
630.11	44285.28
630.26	44158.89
630.41	44409.32
630.56	44477.20
630.71	44470.18
630.86	44278.25
631.01	44055.90
631.16	44144.84
631.31	43852.28
631.46	44371.88
631.61	44280.60
631.76	44325.07
631.91	44343.79
632.06	44772.11
632.21	44467.84
632.36	44182.29
632.51	43798.44
632.66	44201.02
632.81	43676.74
632.96	43625.25
633.10	43784.40
633.25	43859.30
633.40	43913.13
633.55	43831.21
633.70	43985.69
633.85	43714.19
634.00	43849.94
634.15	43358.42
634.30	43903.77
634.45	43363.11
634.60	43192.25
634.75	43915.47
634.90	43517.58
635.05	43587.80
635.19	43515.24
635.34	43484.81
635.49	43222.67
635.64	43826.53
635.79	43487.15
635.94	43772.70
636.09	43482.47
636.24	43360.76
636.39	43276.51
636.53	43077.56
636.68	43054.15
636.83	43159.48
636.98	43311.61
637.13	43180.54
637.28	42745.20
637.43	43103.31
637.57	43007.34
637.72	42714.78
637.87	43182.88
638.02	42925.42
638.17	42953.51
638.32	42813.08
638.46	42464.34
638.61	42902.02
638.76	42979.26
638.91	42927.77
639.06	42843.51
639.20	42738.18
639.35	42480.72
639.50	42651.58
639.65	43000.32
639.80	42974.58
639.94	42682.01
640.09	42899.68
640.24	42993.30
640.39	42438.59
640.54	42188.16
640.68	42623.50
640.83	42560.30
640.98	42515.83
641.13	42316.89
641.27	43049.47
641.42	42504.13
641.57	42522.85
641.72	42777.97
641.86	42344.97
642.01	42246.67
642.16	42066.45
642.31	42043.04
642.45	42473.70
642.60	42202.20
642.75	42241.99
642.90	42492.43
643.04	41984.53
643.19	41937.72
643.34	41673.24
643.48	41872.18
643.63	41853.46
643.78	42408.17
643.93	42333.27
644.07	42429.23
644.22	42513.49
644.37	42139.00
644.51	42078.15
644.66	41633.45
644.81	41886.23
644.95	42153.05
645.10	41848.78
645.25	41345.56
645.39	41617.07
645.54	41408.76
645.69	41530.47
645.83	41359.61
645.98	41394.71
646.13	41706.01
646.27	41474.29
646.42	41364.29
646.57	41209.81
646.71	41504.72
646.86	41713.03
647.00	41663.88
647.15	41996.23
647.30	41619.41
647.44	41392.37
647.59	41343.22
647.74	41518.76
647.88	41340.88
648.03	41483.66
648.17	42068.79
648.32	42003.25
648.47	41748.14
648.61	41598.34
648.76	41368.97
648.90	41455.57
649.05	41464.93
649.20	41106.83
649.34	41303.43
649.49	41338.54
649.63	41216.83
649.78	41221.52
649.92	41572.60
650.07	41078.74
650.21	41729.41
650.36	41280.03
650.51	41118.53
650.65	41642.81
650.80	41273.01
650.94	40753.41
651.09	41006.19
651.23	40715.96
651.38	40435.10
651.52	40793.20
651.67	40828.30
651.81	41022.57
651.96	40704.26
652.10	40964.06
652.25	40648.08
652.39	40465.52
652.54	40570.85
652.68	40802.56
652.83	40664.47
652.97	41212.15
653.12	40662.13
653.26	40460.84
653.41	40428.07
653.55	40524.04
653.70	40973.42
653.84	40746.39
653.99	40584.89
654.13	40591.91
654.27	40423.39
654.42	40535.74
654.56	40133.17
654.71	40685.53
654.85	40563.82
655.00	40357.86
655.14	40371.90
655.29	40411.69
655.43	40477.22
655.57	40163.59
655.72	39744.64
655.86	40306.37
656.01	39838.26
656.15	39428.66
656.30	40030.18
656.44	39775.06
656.58	40297.00
656.73	39915.50
656.87	39819.53
657.01	39791.45
657.16	39583.14
657.30	40130.83
657.45	39908.47
657.59	39793.79
657.73	39426.32
657.88	39414.62
658.02	39707.19
658.16	40409.35
658.31	39431.01
658.45	40137.85
658.60	39147.80
658.74	39533.99
658.88	39576.12
659.03	38827.15
659.17	39295.25
659.31	38700.76
659.46	39185.25
659.60	39255.46
659.74	39203.97
659.89	39063.54
660.03	38550.96
660.17	39330.36
660.32	39309.30
660.46	39381.85
660.60	38616.50
660.74	39218.02
660.89	38581.39
661.03	38373.08
661.17	38684.37
661.32	38382.45
661.46	38522.88
661.60	38710.12
661.74	38490.11
661.89	38328.61
662.03	38803.74
662.17	38050.09
662.31	38260.74
662.46	38293.50
662.60	38148.39
662.74	38246.69
662.88	38089.88
663.03	38024.34
663.17	37549.21
663.31	37387.72
663.45	37799.65
663.60	38515.86
663.74	37991.58
663.88	37574.96
664.02	37902.64
664.17	38110.94
664.31	37366.65
664.45	37237.92
664.59	37071.75
664.73	37081.11
664.88	37666.24
665.02	37266.01
665.16	37268.35
665.30	37331.54
665.44	37401.76
665.59	36769.82
665.73	37158.34
665.87	36641.09
666.01	36910.25
666.15	36793.22
666.29	36793.22
666.44	37038.98
666.58	36861.10
666.72	36526.40
666.86	36563.85
667.00	36481.93
667.14	36758.11
667.28	36402.35
667.43	36519.38
667.57	36538.10
667.71	36538.10
667.85	36755.77
667.99	36519.38
668.13	36407.03
668.27	35875.73
668.41	35873.39
668.56	35426.35
668.70	35938.93
668.84	35225.06
668.98	35887.43
669.12	35941.27
669.26	35299.96
669.40	35945.95
669.54	35810.20
669.68	35569.12
669.82	35571.46
669.96	35388.90
670.10	35126.76
670.25	35014.41
670.39	35082.29
670.53	35438.05
670.67	35084.63
670.81	35438.05
670.95	35180.59
671.09	35101.01
671.23	34646.95
671.37	34412.90
671.51	34684.40
671.65	34691.42
671.79	34693.76
671.93	34855.26
672.07	34457.37
672.21	34991.01
672.35	34206.93
672.49	34326.30
672.63	34160.12
672.77	34103.95
672.91	34293.53
673.05	33797.34
673.19	33748.18
673.33	33638.18
673.47	33687.33
673.61	33490.73
673.75	33567.96
673.89	33830.10
674.03	33174.75
674.17	32987.51
674.31	33069.43
674.45	33078.79
674.59	33092.83
674.73	33104.54
674.87	32814.31
675.01	32753.46
675.15	32753.46
675.29	32669.20
675.43	32573.24
675.56	32821.33
675.70	32320.46
675.84	32215.13
675.98	31248.49
676.12	31962.36
676.26	32039.59
676.40	32177.68
676.54	31611.28
676.68	31538.72
676.82	31637.02
676.96	31646.38
677.10	31356.16
677.23	31627.66
677.37	31503.61
677.51	31206.36
677.65	31477.86
677.79	31459.14
677.93	31594.89
678.07	30920.82
678.21	30857.62
678.34	30878.69
678.48	30384.83
678.62	30237.38
678.76	30539.31
678.90	30504.20
679.04	30286.53
679.18	30513.56
679.31	29818.42
679.45	29902.68
679.59	29797.36
679.73	29771.61
679.87	29837.15
680.00	29570.33
680.14	29598.41
680.28	29551.60
680.42	29226.27
680.56	29020.30
680.70	29205.20
680.83	29120.95
680.97	28931.36
681.11	29186.48
681.25	28636.45
681.39	28334.53
681.52	28552.20
681.66	28109.83
681.80	28091.11
681.94	28119.20
682.07	27938.97
682.21	27882.80
682.35	27941.32
682.49	27777.48
682.62	27793.86
682.76	28194.09
682.90	27550.45
683.04	27620.66
683.17	27660.45
683.31	27255.54
683.45	27267.24
683.59	27035.53
683.72	26775.73
683.86	26705.51
684.00	26888.07
684.13	26958.29
684.27	26757.00
684.41	26511.25
684.55	26267.83
684.68	26408.26
684.82	26244.43
684.96	26366.13
685.09	26244.43
685.23	26082.93
685.37	26108.68
685.50	26113.36
685.64	26015.05
685.78	25612.48
685.91	25692.06
686.05	25294.17
686.19	25249.70
686.32	25039.05
686.46	24856.49
686.60	24732.44
686.73	25266.08
686.87	25071.82
687.01	25050.75
687.14	24903.30
687.28	24655.20
687.42	24467.96
687.55	24444.56
687.69	24542.86
687.82	23875.80
687.96	24238.59
688.10	24498.39
688.23	24144.97
688.37	23906.23
688.50	23852.40
688.64	23838.36
688.78	23686.22
688.91	23667.50
689.05	23482.59
689.18	23346.84
689.32	23051.94
689.46	23129.17
689.59	23161.94
689.73	23073.00
689.86	23157.26
690.00	22937.25
690.13	23426.42
690.27	22738.30
690.41	22852.99
690.54	22412.97
690.68	22452.76
690.81	22635.32
690.95	22476.16
691.08	21879.33
691.22	22122.74
691.35	21788.05
691.49	22153.17
691.62	21907.41
691.76	21546.97
691.89	21710.81
692.03	20999.29
692.16	21128.02
692.30	21055.46
692.43	21020.35
692.57	20938.43
692.70	20723.10
692.84	21036.74
692.97	20519.48
693.11	20638.84
693.24	20690.34
693.38	20563.95
693.51	20610.76
693.65	20505.43
693.78	19969.45
693.92	20233.93
694.05	20074.77
694.19	19995.20
694.32	20161.37
694.45	19950.73
694.59	20283.08
694.72	20159.03
694.86	19702.63
694.99	19534.11
695.13	19517.73
695.26	19288.35
695.39	19005.15
695.53	19262.61
695.66	19185.37
695.80	18925.57
695.93	19140.90
696.07	18609.60
696.20	18593.22
696.33	18391.93
696.47	18691.52
696.60	18410.65
696.73	18537.04
696.87	18389.59
697.00	18436.40
697.14	18082.98
697.27	17865.31
697.40	18197.67
697.54	17781.05
697.67	17727.22
697.80	17811.48
697.94	17774.03
698.07	17776.37
698.21	17666.36
698.34	17284.86
698.47	17228.68
698.61	17160.81
698.74	17209.96
698.87	17036.76
699.01	16765.26
699.14	17018.04
699.27	16821.43
699.40	16713.77
699.54	16795.68
699.67	16678.66
699.80	16468.01
699.94	16617.80
700.07	16521.84
700.20	16451.63
700.34	16140.33
700.47	16102.89
700.60	16243.32
700.73	16325.24
700.87	15887.56
701.00	15941.39
701.13	16123.95
701.26	15889.90
701.40	15566.90
701.53	15604.35
701.66	15545.84
701.79	15482.64
701.93	15527.11
702.06	15124.54
702.19	15267.31
702.32	15461.58
702.46	15016.88
702.59	15332.85
702.72	15110.50
702.85	14932.62
702.99	14813.25
703.12	14621.33
703.25	14644.73
703.38	14675.16
703.51	14590.90
703.65	14420.04
703.78	14038.53
703.91	13963.64
704.04	14120.45
704.17	13797.46
704.31	13958.96
704.44	14115.77
704.57	13699.16
704.70	13893.42
704.83	13556.38
704.96	13781.07
705.10	13474.46
705.23	13603.19
>>>>>End Processed Spectral Data<<<<<
