SpectraSuite Data File
++++++++++++++++++++++++++++++++++++
Date: Fri Oct 25 10:43:24 EDT 2013
User: price-jones
Dark Spectrum Present: No
Reference Spectrum Present: No
Number of Sampled Component Spectra: 1
Spectrometers: USB2+H05261
Integration Time (usec): 100000 (USB2+H05261)
Spectra Averaged: 1 (USB2+H05261)
Boxcar Smoothing: 0 (USB2+H05261)
Correct for Electrical Dark: No (USB2+H05261)
Strobe/Lamp Enabled: No (USB2+H05261)
Correct for Detector Non-linearity: No (USB2+H05261)
Correct for Stray Light: No (USB2+H05261)
Number of Pixels in Processed Spectrum: 2048
>>>>>Begin Processed Spectral Data<<<<<
365.73	117.03
365.92	117.03
366.12	117.03
366.32	11.70
366.52	0.00
366.72	32.77
366.91	46.81
367.11	37.45
367.31	56.17
367.51	51.49
367.70	0.00
367.90	35.11
368.10	0.00
368.30	42.13
368.49	30.43
368.69	98.30
368.89	30.43
369.09	18.72
369.28	72.56
369.48	53.83
369.68	91.28
369.87	23.41
370.07	44.47
370.27	145.11
370.47	170.86
370.66	379.17
370.86	409.59
371.06	484.49
371.25	498.53
371.45	339.38
371.65	477.47
371.84	465.77
372.04	397.89
372.24	521.94
372.44	514.92
372.63	437.68
372.83	510.24
373.03	505.56
373.22	505.56
373.42	531.30
373.62	486.83
373.81	547.69
374.01	535.98
374.21	559.39
374.40	550.03
374.60	589.82
374.79	624.92
374.99	519.60
375.19	519.60
375.38	613.22
375.58	610.88
375.78	636.63
375.97	615.56
376.17	631.94
376.37	580.45
376.56	610.88
376.76	472.79
376.95	510.24
377.15	697.48
377.35	653.01
377.54	550.03
377.74	655.35
377.93	660.03
378.13	631.94
378.33	615.56
378.52	676.41
378.72	634.29
378.91	627.26
379.11	662.37
379.31	695.14
379.50	692.80
379.70	655.35
379.89	657.69
380.09	692.80
380.28	638.97
380.48	653.01
380.68	674.07
380.87	711.52
381.07	638.97
381.26	767.70
381.46	683.44
381.65	678.76
381.85	716.20
382.04	629.60
382.24	711.52
382.43	624.92
382.63	711.52
382.83	763.01
383.02	753.65
383.22	800.46
383.41	767.70
383.61	706.84
383.80	744.29
384.00	744.29
384.19	727.91
384.39	854.30
384.58	765.36
384.78	840.25
384.97	744.29
385.17	760.67
385.36	807.48
385.56	755.99
385.75	809.83
385.95	833.23
386.14	854.30
386.34	772.38
386.53	844.93
386.72	826.21
386.92	873.02
387.11	858.98
387.31	840.25
387.50	828.55
387.70	866.00
387.89	945.58
388.09	861.32
388.28	842.59
388.48	844.93
388.67	945.58
388.86	875.36
389.06	910.47
389.25	915.15
389.45	1050.90
389.64	966.64
389.84	983.02
390.03	1088.35
390.22	964.30
390.42	976.00
390.61	866.00
390.81	964.30
391.00	1050.90
391.19	1095.37
391.39	1083.67
391.58	1114.10
391.78	1095.37
391.97	1048.56
392.16	994.73
392.36	1041.54
392.55	1097.71
392.75	1071.97
392.94	1060.26
393.13	990.05
393.33	971.32
393.52	997.07
393.71	1078.99
393.91	1135.16
394.10	1149.20
394.29	1139.84
394.49	1256.87
394.68	1217.08
394.88	1291.98
395.07	1184.31
395.26	1217.08
395.46	1163.25
395.65	1324.74
395.84	1158.57
396.04	1163.25
396.23	1111.75
396.42	1212.40
396.62	1186.65
396.81	1174.95
397.00	1174.95
397.19	1226.44
397.39	1280.27
397.58	1397.30
397.77	1444.11
397.97	1430.07
398.16	1394.96
398.35	1448.79
398.55	1385.60
398.74	1507.30
398.93	1519.01
399.12	1547.09
399.32	1453.47
399.51	1469.86
399.70	1547.09
399.90	1561.14
400.09	1689.87
400.28	1554.12
400.47	1481.56
400.67	1689.87
400.86	1624.33
401.05	1582.20
401.24	1652.42
401.44	1617.31
401.63	1717.95
401.82	1687.53
402.01	1666.46
402.21	1732.00
402.40	1743.70
402.59	1710.93
402.78	1668.80
402.97	1694.55
403.17	1802.21
403.36	1689.87
403.55	1858.39
403.74	1865.41
403.93	1846.68
404.13	1699.23
404.32	1872.43
404.51	1874.77
404.70	1954.35
404.89	1874.77
405.09	1975.41
405.28	1963.71
405.47	1891.15
405.66	1991.80
405.85	2052.65
406.05	1930.94
406.24	1956.69
406.43	1877.11
406.62	2073.71
406.81	2113.50
407.00	1947.33
407.20	1994.14
407.39	1961.37
407.58	2146.27
407.77	2162.66
407.96	2267.98
408.15	2260.96
408.34	2179.04
408.54	2279.68
408.73	2354.58
408.92	2279.68
409.11	2363.94
409.30	2338.20
409.49	2275.00
409.68	2296.07
409.87	2291.38
410.07	2314.79
410.26	2324.15
410.45	2438.84
410.64	2373.30
410.83	2361.60
411.02	2518.42
411.21	2654.17
411.40	2605.02
411.59	2572.25
411.78	2600.34
411.98	2619.06
412.17	2663.53
412.36	2649.49
412.55	2614.38
412.74	2731.41
412.93	2679.91
413.12	2693.96
413.31	2988.86
413.50	2876.52
413.69	2768.85
413.88	2909.29
414.07	2888.22
414.26	2846.09
414.45	2928.01
414.64	3021.63
414.83	2974.82
415.02	3021.63
415.22	3213.56
415.41	3009.93
415.60	3063.76
415.79	3133.98
415.98	3211.22
416.17	3169.09
416.36	3164.40
416.55	3150.36
416.74	3199.51
416.93	3328.24
417.12	3227.60
417.31	3206.53
417.50	3290.79
417.69	3412.50
417.88	3447.61
418.07	3424.20
418.26	3447.61
418.45	3482.72
418.64	3562.30
418.83	3541.23
419.02	3538.89
419.21	3578.68
419.39	3684.00
419.58	3510.80
419.77	3590.38
419.96	3574.00
420.15	3721.45
420.34	3660.60
420.53	3625.49
420.72	3653.58
420.91	3819.75
421.10	3705.07
421.29	3817.41
421.48	3665.28
421.67	3758.90
421.86	3775.28
422.05	3866.56
422.24	3756.56
422.43	3728.47
422.61	3700.39
422.80	3854.86
422.99	3981.25
423.18	3838.48
423.37	3988.27
423.56	3913.38
423.75	3861.88
423.94	3831.46
424.13	3669.96
424.32	3819.75
424.50	3950.82
424.69	3943.80
424.88	3995.29
425.07	3824.44
425.26	3843.16
425.45	3892.31
425.64	3939.12
425.83	4037.42
426.01	3936.78
426.20	3941.46
426.39	3810.39
426.58	3939.12
426.77	3997.64
426.96	3941.46
427.15	3927.42
427.33	3929.76
427.52	4053.81
427.71	4145.09
427.90	3920.40
428.09	4072.53
428.28	4105.30
428.46	4149.77
428.65	4021.04
428.84	4159.13
429.03	4337.01
429.22	4070.19
429.40	4278.50
429.59	4058.49
429.78	3836.14
429.97	3911.04
430.16	3904.01
430.34	3927.42
430.53	4173.18
430.72	4067.85
430.91	4156.79
431.10	4428.29
431.28	4470.42
431.47	4564.04
431.66	4554.68
431.85	4533.62
432.03	4550.00
432.22	4603.83
432.41	4533.62
432.60	4582.77
432.79	4837.89
432.97	4781.71
433.16	4641.28
433.35	4554.68
433.54	4535.96
433.72	4840.23
433.91	4629.58
434.10	4746.61
434.28	4706.82
434.47	4741.93
434.66	4802.78
434.85	4765.33
435.03	5011.09
435.22	4741.93
435.41	5078.96
435.59	5102.37
435.78	4999.38
435.97	5041.51
436.16	4947.89
436.34	5032.15
436.53	5139.82
436.72	5242.80
436.90	5020.45
437.09	5217.05
437.28	5139.82
437.46	5193.65
437.65	5170.24
437.84	4994.70
438.02	5125.77
438.21	5221.74
438.40	5034.49
438.58	5263.86
438.77	5256.84
438.96	5226.42
439.14	5518.98
439.33	5509.62
439.52	5579.84
439.70	5554.09
439.89	5479.19
440.08	5645.37
440.26	5673.46
440.45	5493.24
440.63	5813.89
440.82	5823.25
441.01	5895.81
441.19	5858.36
441.38	5956.66
441.57	6005.81
441.75	6340.51
441.94	6237.53
442.12	6394.34
442.31	6232.85
442.50	6108.80
442.68	6270.30
442.87	6162.63
443.05	6349.87
443.24	6403.71
443.43	6188.38
443.61	6310.08
443.80	6560.52
443.98	6286.68
444.17	6408.39
444.35	6420.09
444.54	6658.82
444.73	6597.97
444.91	6394.34
445.10	6420.09
445.28	6260.93
445.47	6296.04
445.65	6310.08
445.84	6520.73
446.02	6513.71
446.21	6478.60
446.39	6548.82
446.58	6785.21
446.77	6665.85
446.95	6284.34
447.14	6726.70
447.32	6815.64
447.51	6644.78
447.69	6619.04
447.88	6750.10
448.06	6806.28
448.25	6581.59
448.43	6768.83
448.62	6731.38
448.80	6630.74
448.99	6771.17
449.17	6895.22
449.36	6665.85
449.54	6918.62
449.73	7040.33
449.91	7059.06
450.10	7173.74
450.28	7185.44
450.46	6974.80
450.65	7098.84
450.83	7035.65
451.02	6944.37
451.20	7215.87
451.39	7220.55
451.57	7227.57
451.76	7033.31
451.94	7159.70
452.13	7248.64
452.31	7283.75
452.49	6977.14
452.68	7155.02
452.86	7180.76
453.05	7225.23
453.23	7295.45
453.42	7344.60
453.60	7304.81
453.78	7368.01
453.97	7487.37
454.15	7323.54
454.34	7332.90
454.52	7513.12
454.70	7461.63
454.89	7424.18
455.07	7475.67
455.26	7679.30
455.44	7672.28
455.62	7606.74
455.81	7784.62
455.99	7683.98
456.17	7595.04
456.36	7602.06
456.54	7791.64
456.73	7995.27
456.91	7953.14
457.09	7943.78
457.28	8360.39
457.46	7899.31
457.64	8166.13
457.83	7918.03
458.01	7847.82
458.19	8098.25
458.38	8107.62
458.56	8011.65
458.74	8107.62
458.93	8121.66
459.11	8311.24
459.29	8255.07
459.48	8116.98
459.66	8346.35
459.84	8402.52
460.03	8393.16
460.21	8461.04
460.39	8369.76
460.57	8372.10
460.76	8610.83
460.94	8477.42
461.12	8510.19
461.31	8592.11
461.49	8636.58
461.67	8613.17
461.85	9184.26
462.04	8968.93
462.22	9212.35
462.40	9039.15
462.59	8872.97
462.77	8936.17
462.95	8671.68
463.13	8716.16
463.32	8933.82
463.50	8938.51
463.68	8994.68
463.86	8950.21
464.05	8692.75
464.23	9001.70
464.41	8929.14
464.59	8641.26
464.78	9114.05
464.96	8950.21
465.14	8931.48
465.32	9064.89
465.50	9233.41
465.69	9217.03
465.87	8990.00
466.05	9128.09
466.23	9050.85
466.41	9057.87
466.60	9210.01
466.78	9205.33
466.96	9097.66
467.14	9219.37
467.32	9263.84
467.51	9397.25
467.69	9224.05
467.87	9394.91
468.05	9380.87
468.23	9298.95
468.41	9446.40
468.60	9540.02
468.78	9607.90
468.96	9434.70
469.14	9738.97
469.32	9661.73
469.50	9444.06
469.69	9734.29
469.87	9809.19
470.05	9851.31
470.23	9792.80
470.41	9692.16
470.59	9713.22
470.77	9762.37
470.95	9935.57
471.14	10031.54
471.32	9963.66
471.50	9954.30
471.68	10094.73
471.86	10218.78
472.04	10340.49
472.22	10670.50
472.40	10174.31
472.58	10384.96
472.77	10338.15
472.95	10572.20
473.13	10693.91
473.31	10352.19
473.49	10569.86
473.67	10324.10
473.85	10338.15
474.03	10778.17
474.21	10913.92
474.39	10820.30
474.57	10635.39
474.75	11073.07
474.93	11398.41
475.12	11035.63
475.30	11435.86
475.48	11325.85
475.66	11023.92
475.84	11248.61
476.02	11309.47
476.20	11250.96
476.38	11501.39
476.56	11995.25
476.74	11918.01
476.92	11583.31
477.10	11660.55
477.28	12072.48
477.46	12107.59
477.64	12084.19
477.82	12329.94
478.00	12393.14
478.18	12292.49
478.36	12306.54
478.54	12421.22
478.72	12510.16
478.90	12702.09
479.08	12919.76
479.26	12896.35
479.44	12861.24
479.62	13331.69
479.80	12922.10
479.98	13245.09
480.16	13481.49
480.34	13437.02
480.52	13736.60
480.70	13612.56
480.88	13434.68
481.06	13795.12
481.24	13713.20
481.41	14080.66
481.59	14286.63
481.77	14415.36
481.95	14307.69
482.13	14516.00
482.31	14417.70
482.49	14817.93
482.67	15059.01
482.85	14923.26
483.03	14754.74
483.21	15005.17
483.39	15133.90
483.57	15131.56
483.74	15583.29
483.92	15417.11
484.10	15227.53
484.28	15824.36
484.46	16226.93
484.64	16407.16
484.82	15798.62
485.00	16287.79
485.18	16145.02
485.35	16556.95
485.53	16130.97
485.71	16208.21
485.89	15985.86
486.07	16327.58
486.25	16388.43
486.43	16718.45
486.61	16809.73
486.78	17130.38
486.96	17022.72
487.14	17429.97
487.32	17657.00
487.50	17722.54
487.68	17778.71
487.85	18157.88
488.03	18192.98
488.21	18450.44
488.39	18272.56
488.57	18487.89
488.75	18710.24
488.92	19185.37
489.10	19150.26
489.28	19166.65
489.46	19648.80
489.64	19349.21
489.81	20175.42
489.99	20135.63
490.17	20119.24
490.35	20219.89
490.53	20322.87
490.70	20081.80
490.88	20252.66
491.06	20524.16
491.24	20624.80
491.41	20507.77
491.59	20800.34
491.77	20673.95
491.95	20645.87
492.13	21165.46
492.30	21053.12
492.48	21338.66
492.66	21582.08
492.84	21806.77
493.01	21874.65
493.19	22059.55
493.37	22387.22
493.54	22389.56
493.72	22544.04
493.90	22686.81
494.08	22537.02
494.25	22850.65
494.43	22834.27
494.61	23159.60
494.79	23056.62
494.96	22974.70
495.14	23227.48
495.32	23531.75
495.49	23828.99
495.67	23550.47
495.85	23875.80
496.02	24060.71
496.20	24353.27
496.38	24016.24
496.55	24147.31
496.73	24875.21
496.91	24697.33
497.09	24694.99
497.26	25046.07
497.44	24809.68
497.62	24905.64
497.79	24774.57
497.97	25025.01
498.14	25137.35
498.32	25497.80
498.50	25380.77
498.67	25727.17
498.85	26061.87
499.03	25722.49
499.20	25743.55
499.38	25956.54
499.56	26132.08
499.73	26429.33
499.91	26513.59
500.08	26630.62
500.26	26038.46
500.44	26719.56
500.61	26562.74
500.79	26384.86
500.97	26623.59
501.14	26761.69
501.32	26806.16
501.49	27124.47
501.67	27021.48
501.84	26841.26
502.02	27796.20
502.20	27461.51
502.37	27424.06
502.55	27520.02
502.72	27796.20
502.90	27716.62
503.07	27733.01
503.25	27875.78
503.43	27564.49
503.60	28030.26
503.78	27892.16
503.95	28149.62
504.13	28273.67
504.30	28556.88
504.48	28474.96
504.65	28666.88
504.83	28783.91
505.01	28999.24
505.18	28545.17
505.36	29193.50
505.53	29186.48
505.71	29455.64
505.88	29305.85
506.06	29282.44
506.23	29436.92
506.41	29380.74
506.58	29289.46
506.76	29469.69
506.93	29893.32
507.11	29834.81
507.28	29589.05
507.46	29954.18
507.63	29816.08
507.81	30085.25
507.98	30052.48
508.16	30122.69
508.33	30366.11
508.50	30593.14
508.68	30621.23
508.85	30698.47
509.03	30984.01
509.20	31105.72
509.38	31143.17
509.55	31037.84
509.73	31527.02
509.90	31285.94
510.08	31138.49
510.25	31433.39
510.42	31447.44
510.60	31578.51
510.77	31681.49
510.95	31885.12
511.12	31562.12
511.30	31882.78
511.47	32058.32
511.64	32238.54
511.82	32311.10
511.99	32208.11
512.17	32011.51
512.34	31786.82
512.51	32360.25
512.69	32275.99
512.86	32716.01
513.04	32652.81
513.21	32849.42
513.38	32510.04
513.56	32374.29
513.73	32587.28
513.90	32446.85
514.08	32741.75
514.25	33200.50
514.43	32716.01
514.60	32954.74
514.77	32643.45
514.95	33282.42
515.12	33301.14
515.29	33408.81
515.47	33645.20
515.64	33865.21
515.81	33778.61
515.99	33542.22
516.16	33479.02
516.33	33378.38
516.51	33832.44
516.68	33111.56
516.85	33202.84
517.03	33460.30
517.20	34007.98
517.37	34047.77
517.54	34511.20
517.72	34139.05
517.89	33390.08
518.06	33802.02
518.24	34190.55
518.41	34202.25
518.58	34412.90
518.75	34017.35
518.93	34618.86
519.10	34562.69
519.27	34827.17
519.45	34881.00
519.62	35316.34
519.79	35115.06
519.96	35140.80
520.14	35096.33
520.31	34890.37
520.48	35222.72
520.65	35398.26
520.83	36041.91
521.00	35796.15
521.17	35402.94
521.34	35821.90
521.52	35882.75
521.69	36205.75
521.86	36203.41
522.03	35683.81
522.20	35924.88
522.38	36109.78
522.55	36549.81
522.72	36130.85
522.89	36591.94
523.07	36128.51
523.24	36058.29
523.41	36790.88
523.58	36580.23
523.75	37191.11
523.92	36914.93
524.10	37090.47
524.27	36856.42
524.44	37111.53
524.61	37378.36
524.78	37254.31
524.96	36975.78
525.13	37287.07
525.30	37479.00
525.47	37420.48
525.64	37441.55
525.81	37053.02
525.98	37677.94
526.16	37148.98
526.33	37111.53
526.50	37703.69
526.67	36938.33
526.84	36849.39
527.01	37090.47
527.18	37462.61
527.36	37764.54
527.53	37942.42
527.70	38143.71
527.87	38223.29
528.04	37848.80
528.21	38237.33
528.38	38326.27
528.55	38815.44
528.72	38314.57
528.89	38747.57
529.07	38698.42
529.24	38253.72
529.41	38356.70
529.58	38808.42
529.75	38590.75
529.92	38602.46
530.09	38642.24
530.26	38895.02
530.43	38724.16
530.60	38529.90
530.77	38979.28
530.94	39503.56
531.11	39182.91
531.28	38686.71
531.46	39351.43
531.63	39131.42
531.80	39306.96
531.97	39063.54
532.14	39079.92
532.31	38866.94
532.48	38925.45
532.65	39423.98
532.82	39578.46
532.99	39225.04
533.16	39138.44
533.33	39548.03
533.50	39679.10
533.67	39395.90
533.84	39676.76
534.01	39878.05
534.18	39700.17
534.35	40142.53
534.52	39885.07
534.69	40025.50
534.86	39957.63
535.03	39955.29
535.20	40247.85
535.37	40734.68
535.54	40840.01
535.71	40711.28
535.88	40442.12
536.05	40350.84
536.22	40517.01
536.38	40605.95
536.55	40098.06
536.72	40390.62
536.89	40467.86
537.06	40605.95
537.23	40914.90
537.40	40788.52
537.57	40884.48
537.74	40966.40
537.91	41163.00
538.08	41062.36
538.25	40631.70
538.42	41195.77
538.59	41216.83
538.75	41038.95
538.92	40935.97
539.09	41326.84
539.26	41448.55
539.43	41359.61
539.60	40973.42
539.77	41254.28
539.94	41048.32
540.11	41237.90
540.28	41387.69
540.44	41528.13
540.61	41200.45
540.78	40903.20
540.95	41476.63
541.12	41130.23
541.29	41226.20
541.46	41684.94
541.62	41453.23
541.79	42005.59
541.96	40980.44
542.13	41652.17
542.30	41523.44
542.47	41673.24
542.63	41816.01
542.80	41518.76
542.97	42412.85
543.14	42717.12
543.31	42213.90
543.48	42366.04
543.64	42876.27
543.81	42595.41
543.98	42799.04
544.15	42464.34
544.32	42719.46
544.48	42848.19
544.65	42562.64
544.82	42714.78
544.99	42389.44
545.16	42082.83
545.32	42153.05
545.49	43222.67
545.66	43480.13
545.83	42712.44
546.00	43021.39
546.16	42586.05
546.33	42773.29
546.50	42581.37
546.67	43194.59
546.83	42574.34
547.00	43140.75
547.17	42899.68
547.34	42871.59
547.50	43037.77
547.67	43428.64
547.84	43428.64
548.00	43421.62
548.17	43473.11
548.34	43239.06
548.51	43746.95
548.67	43473.11
548.84	43320.98
549.01	43585.46
549.18	43419.28
549.34	43236.72
549.51	43845.26
549.68	43852.28
549.84	43955.26
550.01	43779.72
550.18	43531.62
550.34	43423.96
550.51	43845.26
550.68	43863.98
550.84	43042.45
551.01	43578.43
551.18	43920.15
551.34	44004.41
551.51	44126.12
551.68	44114.42
551.84	43730.57
552.01	43793.76
552.18	44264.21
552.34	43761.00
552.51	44165.91
552.68	43807.81
552.84	43997.39
553.01	44212.72
553.18	44102.71
553.34	44030.16
553.51	44421.03
553.67	43976.33
553.84	44275.91
554.01	44690.19
554.17	44383.58
554.34	44584.86
554.51	44542.74
554.67	44786.15
554.84	44135.48
555.00	44266.55
555.17	44107.40
555.33	44388.26
555.50	44746.36
555.67	44617.63
555.83	44641.04
556.00	45003.82
556.16	45326.81
556.33	44390.60
556.50	44399.96
556.66	44538.05
556.83	44659.76
556.99	44268.89
557.16	44982.76
557.32	45223.83
557.49	44830.62
557.65	44910.20
557.82	44982.76
557.98	45020.20
558.15	44828.28
558.32	44898.50
558.48	44666.78
558.65	44542.74
558.81	44460.82
558.98	44940.63
559.14	44535.71
559.31	44737.00
559.47	44821.26
559.64	44762.75
559.80	44921.90
559.97	44856.37
560.13	44275.91
560.30	45078.72
560.46	45237.87
560.63	45205.11
560.79	45382.99
560.96	45010.84
561.12	44729.98
561.29	44975.73
561.45	44638.70
561.61	45139.57
561.78	45631.08
561.94	45001.48
562.11	44872.75
562.27	45261.28
562.44	45130.21
562.60	45415.76
562.77	45209.79
562.93	45162.98
563.10	45287.03
563.26	45076.38
563.42	45570.23
563.59	45282.34
563.75	45378.31
563.92	45705.98
564.08	44992.12
564.24	45603.00
564.41	45598.32
564.57	45134.89
564.74	45076.38
564.90	45134.89
565.07	45563.21
565.23	45595.98
565.39	45181.70
565.56	45347.88
565.72	45158.30
565.88	45471.93
566.05	45165.32
566.21	45216.81
566.38	45411.07
566.54	45521.08
566.70	45937.69
566.87	45825.35
567.03	45649.81
567.19	45872.16
567.36	45940.04
567.52	45675.55
567.68	45696.62
567.85	45705.98
568.01	45638.11
568.17	45322.13
568.34	45897.91
568.50	45549.17
568.66	45432.14
568.83	45024.89
568.99	45296.39
569.15	45432.14
569.32	45317.45
569.48	45375.97
569.64	45694.28
569.81	45708.32
569.97	45090.42
570.13	45397.03
570.30	45366.60
570.46	45298.73
570.62	45275.32
570.78	45034.25
570.95	45308.09
571.11	45268.30
571.27	45284.68
571.43	45617.04
571.60	45832.37
571.76	45329.16
571.92	45902.59
572.09	45638.11
572.25	45572.57
572.41	45556.19
572.57	45745.77
572.74	46464.32
572.90	45731.73
573.06	45993.87
573.22	46092.17
573.38	45614.70
573.55	45544.48
573.71	46000.89
573.87	45862.80
574.03	45755.13
574.20	45652.15
574.36	45827.69
574.52	45876.84
574.68	45635.77
574.84	45642.79
575.01	45811.31
575.17	45827.69
575.33	45914.29
575.49	45762.15
575.65	46026.63
575.82	46143.66
575.98	45684.92
576.14	45841.73
576.30	45837.05
576.46	45752.79
576.62	45418.10
576.79	45551.51
576.95	45677.90
577.11	45907.27
577.27	46202.18
577.43	45308.09
577.59	45528.10
577.75	45340.86
577.92	45624.06
578.08	45329.16
578.24	45261.28
578.40	45839.39
578.56	45801.94
578.72	45785.56
578.88	45958.76
579.04	45930.67
579.21	45876.84
579.37	45289.37
579.53	45638.11
579.69	45549.17
579.85	45914.29
580.01	45865.14
580.17	45977.48
580.33	45961.10
580.49	45911.95
580.65	45684.92
580.82	45888.54
580.98	45727.05
581.14	45488.31
581.30	45652.15
581.46	46012.59
581.62	46019.61
581.78	45640.45
581.94	46124.94
582.10	45689.60
582.26	46281.75
582.42	45593.64
582.58	45982.16
582.74	45591.30
582.90	45663.85
583.06	45879.18
583.22	45996.21
583.38	45949.40
583.54	46494.74
583.70	45830.03
583.86	45830.03
584.02	45455.54
584.18	45972.80
584.34	45951.74
584.50	46120.26
584.66	46197.49
584.82	45876.84
584.98	46146.00
585.14	45855.78
585.30	45729.39
585.46	45837.05
585.62	45127.87
585.78	45904.93
585.94	45640.45
586.10	45642.79
586.26	46052.38
586.42	45925.99
586.58	46153.02
586.74	46190.47
586.90	46094.51
587.06	45638.11
587.22	45675.55
587.38	45804.28
587.54	45778.54
587.70	46157.70
587.86	45652.15
588.02	45895.56
588.18	46087.49
588.34	45694.28
588.49	45528.10
588.65	44978.07
588.81	45401.71
588.97	45581.93
589.13	45378.31
589.29	45242.56
589.45	45556.19
589.61	46115.58
589.77	46237.28
589.93	45925.99
590.08	45701.30
590.24	46007.91
590.40	46134.30
590.56	46330.90
590.72	45916.63
590.88	45661.51
591.04	46040.68
591.20	46431.55
591.35	46113.23
591.51	46724.11
591.67	45879.18
591.83	46045.36
591.99	45741.09
592.15	46176.43
592.31	45944.72
592.46	45783.22
592.62	46164.73
592.78	46347.29
592.94	46052.38
593.10	46328.56
593.26	46230.26
593.41	46157.70
593.57	45888.54
593.73	45708.32
593.89	46115.58
594.05	45975.14
594.20	46188.13
594.36	46344.95
594.52	46401.12
594.68	46204.52
594.84	45787.90
594.99	46370.69
595.15	46279.41
595.31	46382.40
595.47	46094.51
595.62	45858.12
595.78	46019.61
595.94	46213.88
596.10	46096.85
596.25	46057.06
596.41	45895.56
596.57	46045.36
596.73	46026.63
596.88	45982.16
597.04	46227.92
597.20	46052.38
597.36	46071.10
597.51	46431.55
597.67	45909.61
597.83	46169.41
597.99	46298.14
598.14	46178.77
598.30	46047.70
598.46	45701.30
598.61	46099.19
598.77	45659.17
598.93	46153.02
599.09	46326.22
599.24	46508.79
599.40	46227.92
599.56	46447.93
599.71	46389.42
599.87	46174.09
600.03	46146.00
600.18	46108.55
600.34	45930.67
600.50	46124.94
600.65	45654.49
600.81	46120.26
600.97	46513.47
601.12	46375.37
601.28	46403.46
601.44	45701.30
601.59	46192.81
601.75	45940.04
601.91	46211.54
602.06	45961.10
602.22	46117.92
602.37	45684.92
602.53	46162.39
602.69	46213.88
602.84	46000.89
603.00	46256.01
603.16	45790.24
603.31	45972.80
603.47	46052.38
603.62	45982.16
603.78	45673.21
603.94	45984.51
604.09	46480.70
604.25	46033.66
604.40	46113.23
604.56	46089.83
604.71	46096.85
604.87	45736.41
605.03	45801.94
605.18	45797.26
605.34	46021.95
605.49	45223.83
605.65	46101.53
605.80	45731.73
605.96	45780.88
606.12	45989.19
606.27	46611.77
606.43	46080.47
606.58	46244.30
606.74	46078.13
606.89	45731.73
607.05	45448.52
607.20	45815.99
607.36	45766.84
607.51	46019.61
607.67	45970.46
607.82	46073.45
607.98	46160.05
608.13	45436.82
608.29	45956.42
608.44	45202.77
608.60	45226.17
608.75	46103.87
608.91	45525.76
609.06	45324.47
609.22	45535.12
609.37	45029.57
609.53	45542.14
609.68	45092.76
609.84	45532.78
609.99	45638.11
610.15	45668.53
610.30	45436.82
610.46	45558.53
610.61	45310.43
610.76	45668.53
610.92	45415.76
611.07	45481.29
611.23	45909.61
611.38	45797.26
611.54	45432.14
611.69	45242.56
611.84	44968.71
612.00	45130.21
612.15	45088.08
612.31	45490.65
612.46	45268.30
612.62	45411.07
612.77	44694.87
612.92	45338.52
613.08	44961.69
613.23	44940.63
613.39	44982.76
613.54	44704.23
613.69	44961.69
613.85	44971.05
614.00	44781.47
614.15	44753.38
614.31	45130.21
614.46	45268.30
614.62	45036.59
614.77	44912.54
614.92	44928.92
615.08	44821.26
615.23	44538.05
615.38	44673.81
615.54	44488.90
615.69	44729.98
615.84	44327.41
616.00	44472.52
616.15	44444.43
616.30	44783.81
616.46	44561.46
616.61	44395.28
616.76	44472.52
616.92	44025.48
617.07	44451.45
617.22	44470.18
617.37	44062.93
617.53	44215.06
617.68	44631.68
617.83	44685.51
617.99	44795.51
618.14	44631.68
618.29	44734.66
618.45	43959.94
618.60	43992.71
618.75	43753.97
618.90	44044.20
619.06	44348.47
619.21	44140.16
619.36	44507.63
619.51	44222.08
619.67	44011.43
619.82	43810.15
619.97	44322.72
620.12	43262.46
620.28	43716.53
620.43	43709.50
620.58	43840.57
620.73	43927.17
620.89	43564.39
621.04	44098.03
621.19	43995.05
621.34	43835.89
621.49	43438.00
621.65	43833.55
621.80	43880.36
621.95	43107.99
622.10	44142.50
622.25	43592.48
622.41	44027.82
622.56	43772.70
622.71	43643.97
622.86	43435.66
623.01	43430.98
623.16	43728.23
623.32	43239.06
623.47	43281.19
623.62	43693.12
623.77	43332.68
623.92	43407.58
624.07	42843.51
624.23	42623.50
624.38	43180.54
624.53	43290.55
624.68	42831.80
624.83	42911.38
624.98	43564.39
625.13	43054.15
625.29	42923.08
625.44	43110.33
625.59	42831.80
625.74	42808.40
625.89	42782.65
626.04	42501.79
626.19	42548.60
626.34	42932.45
626.49	43012.02
626.65	42632.86
626.80	42770.95
626.95	42321.57
627.10	42782.65
627.25	42583.71
627.40	42443.27
627.55	42155.39
627.70	42157.73
627.85	42972.24
628.00	42389.44
628.15	42513.49
628.30	42520.51
628.45	42955.85
628.60	42642.22
628.76	42925.42
628.91	42508.81
629.06	42122.62
629.21	42120.28
629.36	42525.19
629.51	42143.69
629.66	42487.74
629.81	42108.58
629.96	41680.26
630.11	42323.91
630.26	42263.05
630.41	42103.90
630.56	42047.72
630.71	41816.01
630.86	42052.41
631.01	42213.90
631.16	42384.76
631.31	41340.88
631.46	41593.66
631.61	41631.11
631.76	41741.11
631.91	42052.41
632.06	42157.73
632.21	42330.93
632.36	41612.38
632.51	41394.71
632.66	41397.06
632.81	41397.06
632.96	41766.86
633.10	41790.27
633.25	41706.01
633.40	41808.99
633.55	42036.02
633.70	41851.12
633.85	41808.99
634.00	41727.07
634.15	41668.56
634.30	41275.35
634.45	41148.96
634.60	41935.38
634.75	41287.05
634.90	41172.36
635.05	41282.37
635.19	41170.02
635.34	41443.87
635.49	41343.22
635.64	41045.97
635.79	41219.17
635.94	40900.86
636.09	41478.97
636.24	41050.66
636.39	41013.21
636.53	41191.09
636.68	40428.07
636.83	40662.13
636.98	40842.35
637.13	41013.21
637.28	41099.81
637.43	41167.68
637.57	41144.28
637.72	40751.07
637.87	40919.59
638.02	41146.62
638.17	40921.93
638.32	40816.60
638.46	40657.45
638.61	40671.49
638.76	40463.18
638.91	40896.18
639.06	40587.23
639.20	41027.25
639.35	40797.88
639.50	40247.85
639.65	40446.80
639.80	40170.61
639.94	39913.16
640.09	40271.26
640.24	40156.57
640.39	40065.29
640.54	40245.51
640.68	39974.01
640.83	40285.30
640.98	39772.72
641.13	39889.75
641.27	40198.70
641.42	39835.92
641.57	40222.11
641.72	40151.89
641.86	40046.57
642.01	39374.83
642.16	40130.83
642.31	39629.95
642.45	40144.87
642.60	39622.93
642.75	39541.01
642.90	39962.31
643.04	39882.73
643.19	40037.20
643.34	39894.43
643.48	39835.92
643.63	39688.46
643.78	39929.54
643.93	39751.66
644.07	39585.48
644.22	39789.11
644.37	39517.60
644.51	39278.87
644.66	39629.95
644.81	39625.27
644.95	39339.72
645.10	39395.90
645.25	39526.97
645.39	39541.01
645.54	39559.73
645.69	39168.87
645.83	39452.07
645.98	39393.56
646.13	39496.54
646.27	39194.61
646.42	38916.09
646.57	38934.81
646.71	39445.05
646.86	39688.46
647.00	39189.93
647.15	39023.75
647.30	39152.48
647.44	39218.02
647.59	39484.84
647.74	38574.37
647.88	38593.09
648.03	38850.55
648.17	38979.28
648.32	38824.81
648.47	38862.26
648.61	38595.43
648.76	38869.28
648.90	38740.55
649.05	38948.85
649.20	38698.42
649.34	38466.70
649.49	38595.43
649.63	38778.00
649.78	38754.59
649.92	38644.59
650.07	38703.10
650.21	38841.19
650.36	38965.24
650.51	38506.49
650.65	39384.19
650.80	38979.28
650.94	38986.30
651.09	38543.94
651.23	38349.68
651.38	38464.36
651.52	37928.38
651.67	37986.89
651.81	38288.82
651.96	38403.51
652.10	38525.22
652.25	38157.75
652.39	38342.66
652.54	37982.21
652.68	38043.07
652.83	38366.06
652.97	38192.86
653.12	38440.96
653.26	37865.19
653.41	37893.27
653.55	38157.75
653.70	38026.68
653.84	37666.24
653.99	37675.60
654.13	37724.75
654.27	37792.63
654.42	37954.13
654.56	37897.95
654.71	37493.04
654.85	37708.37
655.00	38122.65
655.14	37607.73
655.29	37471.98
655.43	37003.87
655.57	36811.95
655.72	36690.24
655.86	37207.50
656.01	36741.73
656.15	37038.98
656.30	36987.49
656.44	36596.62
656.58	37310.48
656.73	36795.56
656.87	37443.89
657.01	37249.63
657.16	36966.42
657.30	36924.29
657.45	36645.77
657.59	37324.52
657.73	37001.53
657.88	36842.37
658.02	37518.79
658.16	37184.09
658.31	37132.60
658.45	36847.05
658.60	36821.31
658.74	37361.97
658.88	37041.32
659.03	36627.04
659.17	36613.00
659.31	36840.03
659.46	36123.83
659.60	36886.84
659.74	36533.42
659.89	36388.31
660.03	36268.94
660.17	36268.94
660.32	36676.19
660.46	36105.10
660.60	36596.62
660.74	36397.67
660.89	36388.31
661.03	36294.69
661.17	36381.29
661.32	36123.83
661.46	35957.65
661.60	35648.70
661.74	35721.26
661.89	35723.60
662.03	35922.54
662.17	35957.65
662.31	35679.13
662.46	36196.38
662.60	35651.04
662.74	35952.97
662.88	35791.47
663.03	35587.85
663.17	35552.74
663.31	35473.16
663.45	35323.36
663.60	35349.11
663.74	35541.03
663.88	35456.78
664.02	35131.44
664.17	35372.52
664.31	34756.96
664.45	35115.06
664.59	34738.23
664.73	35241.45
664.88	34960.58
665.02	34646.95
665.16	34490.13
665.30	34740.57
665.44	34754.61
665.59	34773.34
665.73	34607.16
665.87	33867.55
666.01	34384.81
666.15	34326.30
666.29	34206.93
666.44	34532.26
666.58	34597.80
666.72	34178.84
666.86	34036.07
667.00	34213.95
667.14	34279.49
667.28	34108.63
667.43	34356.72
667.57	34197.57
667.71	34242.04
667.85	34085.22
667.99	33977.56
668.13	33769.25
668.27	33846.49
668.41	33986.92
668.56	33851.17
668.70	33694.35
668.84	33099.86
668.98	33263.69
669.12	33263.69
669.26	33378.38
669.40	32973.47
669.54	33333.91
669.68	32858.78
669.82	33029.64
669.96	32219.81
670.10	32554.51
670.25	32868.14
670.39	32910.27
670.53	32870.48
670.67	32708.99
670.81	32708.99
670.95	32891.55
671.09	32376.63
671.23	32264.28
671.37	31744.69
671.51	32198.75
671.65	32456.21
671.79	32259.60
671.93	31969.38
672.07	32109.81
672.21	31800.86
672.35	32060.66
672.49	31812.56
672.63	31967.04
672.77	31850.01
672.91	31674.47
673.05	31576.17
673.19	31683.83
673.33	31751.71
673.47	31428.71
673.61	31630.00
673.75	30998.06
673.89	31285.94
674.03	31494.25
674.17	31138.49
674.31	31250.83
674.45	31218.07
674.59	31000.40
674.73	31510.63
674.87	31211.04
675.01	30981.67
675.15	30813.15
675.29	30876.35
675.43	30951.24
675.56	30373.13
675.70	30834.22
675.84	30696.13
675.98	29387.77
676.12	30490.16
676.26	30562.72
676.40	29954.18
676.54	30209.29
676.68	30291.21
676.82	29532.88
676.96	29404.15
677.10	30054.82
677.23	29560.97
677.37	29549.26
677.51	29420.53
677.65	29296.49
677.79	28945.41
677.93	28613.05
678.07	29020.30
678.21	28500.70
678.34	28362.61
678.48	28166.01
678.62	28472.62
678.76	28339.21
678.90	28517.09
679.04	28243.24
679.18	28428.15
679.31	27491.93
679.45	27641.73
679.59	28009.19
679.73	27974.08
679.87	27585.55
680.00	28058.34
680.14	27559.81
680.28	27555.13
680.42	27454.48
680.56	27447.46
680.70	27456.82
680.83	27108.08
680.97	27236.81
681.11	27014.46
681.25	26958.29
681.39	27063.61
681.52	27122.13
681.66	26930.20
681.80	26436.35
681.94	26441.03
682.07	26473.80
682.21	26604.87
682.35	26349.75
682.49	26136.76
682.62	26129.74
682.76	25806.75
682.90	26033.78
683.04	25982.29
683.17	25502.48
683.31	25439.28
683.45	25427.58
683.59	25584.40
683.72	25612.48
683.86	25778.66
684.00	25263.74
684.13	24854.15
684.27	25102.25
684.41	24828.40
684.55	24882.24
684.68	24538.18
684.82	24755.85
684.96	24865.85
685.09	24744.14
685.23	24521.79
685.37	24683.29
685.50	24662.22
685.64	24741.80
685.78	24364.98
685.91	24400.08
686.05	23962.40
686.19	23859.42
686.32	23817.29
686.46	23587.92
686.60	23410.04
686.73	22993.42
686.87	23517.70
687.01	23377.27
687.14	22785.12
687.28	23042.57
687.42	22654.05
687.55	22824.90
687.69	23019.17
687.82	22993.42
687.96	22817.88
688.10	22593.19
688.23	22553.40
688.37	22759.37
688.50	22438.72
688.64	22607.23
688.78	22291.26
688.91	21879.33
689.05	22277.22
689.18	21937.84
689.32	21383.13
689.46	21818.47
689.59	21970.61
689.73	22078.27
689.86	21764.64
690.00	21804.43
690.13	21813.79
690.27	21181.85
690.41	21029.71
690.54	20987.58
690.68	21116.31
690.81	21078.86
690.95	20896.30
691.08	20741.83
691.22	21034.39
691.35	20709.06
691.49	20580.33
691.62	20716.08
691.76	20547.56
691.89	20652.89
692.03	20306.49
692.16	20603.74
692.30	20395.43
692.43	20315.85
692.57	19957.75
692.70	19524.75
692.84	20163.72
692.97	19894.55
693.11	19857.10
693.24	19463.90
693.38	19688.59
693.51	19700.29
693.65	19323.46
693.78	19229.84
693.92	19438.15
694.05	19384.32
694.19	19159.63
694.32	19007.49
694.45	19316.44
694.59	19171.33
694.72	18885.78
694.86	19082.39
694.99	18609.60
695.13	18728.97
695.26	18504.28
695.39	18525.34
695.53	18679.82
695.66	18670.45
695.80	18272.56
695.93	18192.98
696.07	18403.63
696.20	18338.10
696.33	17834.88
696.47	17928.50
696.60	17708.49
696.73	17586.79
696.87	17717.86
697.00	17647.64
697.14	17631.26
697.27	17240.39
697.40	17125.70
697.54	17186.55
697.67	16992.29
697.80	17357.41
697.94	17193.58
698.07	16947.82
698.21	16936.12
698.34	17109.32
698.47	17008.67
698.61	16851.86
698.74	16669.30
698.87	16800.37
699.01	16025.65
699.14	16563.97
699.27	16528.86
699.40	16306.51
699.54	15992.88
699.67	16149.70
699.80	16161.40
699.94	15995.22
700.07	16201.19
700.20	15896.92
700.34	15805.64
700.47	15625.42
700.60	15531.80
700.73	15578.61
700.87	15697.97
701.00	15410.09
701.13	15492.01
701.26	15232.21
701.40	15330.51
701.53	15063.69
701.66	15061.35
701.79	14876.44
701.93	14855.38
702.06	14878.79
702.19	14831.97
702.32	14530.05
702.46	14831.97
702.59	14799.21
702.72	14949.00
702.85	14656.43
702.99	14668.14
703.12	14429.40
703.25	14171.94
703.38	14134.50
703.51	14490.26
703.65	14373.23
703.78	13631.28
703.91	13994.06
704.04	13921.51
704.17	13778.73
704.31	13846.61
704.44	13638.30
704.57	13713.20
704.70	13720.22
704.83	13689.79
704.96	13631.28
705.10	13547.02
705.23	13642.98
>>>>>End Processed Spectral Data<<<<<
