SpectraSuite Data File
++++++++++++++++++++++++++++++++++++
Date: Fri Oct 25 11:34:19 EDT 2013
User: price-jones
Dark Spectrum Present: No
Reference Spectrum Present: No
Number of Sampled Component Spectra: 1
Spectrometers: USB2+H05261
Integration Time (usec): 100000 (USB2+H05261)
Spectra Averaged: 1 (USB2+H05261)
Boxcar Smoothing: 0 (USB2+H05261)
Correct for Electrical Dark: No (USB2+H05261)
Strobe/Lamp Enabled: No (USB2+H05261)
Correct for Detector Non-linearity: No (USB2+H05261)
Correct for Stray Light: No (USB2+H05261)
Number of Pixels in Processed Spectrum: 2048
>>>>>Begin Processed Spectral Data<<<<<
365.73	337.04
365.92	337.04
366.12	337.04
366.32	205.97
366.52	170.86
366.72	220.01
366.91	182.56
367.11	259.80
367.31	140.43
367.51	138.09
367.70	182.56
367.90	184.90
368.10	159.16
368.30	161.50
368.49	184.90
368.69	203.63
368.89	259.80
369.09	177.88
369.28	156.82
369.48	184.90
369.68	212.99
369.87	168.52
370.07	257.46
370.27	229.37
370.47	346.40
370.66	538.32
370.86	538.32
371.06	528.96
371.25	543.00
371.45	475.13
371.65	557.05
371.84	477.47
372.04	545.34
372.24	540.66
372.44	510.24
372.63	592.16
372.83	650.67
373.03	514.92
373.22	627.26
373.42	585.13
373.62	580.45
373.81	676.41
374.01	634.29
374.21	650.67
374.40	613.22
374.60	631.94
374.79	589.82
374.99	575.77
375.19	669.39
375.38	634.29
375.58	613.22
375.78	573.43
375.97	594.50
376.17	655.35
376.37	744.29
376.56	645.99
376.76	706.84
376.95	657.69
377.15	732.59
377.35	629.60
377.54	664.71
377.74	638.97
377.93	643.65
378.13	741.95
378.33	741.95
378.52	622.58
378.72	636.63
378.91	734.93
379.11	723.23
379.31	793.44
379.50	655.35
379.70	723.23
379.89	791.10
380.09	781.74
380.28	730.25
380.48	697.48
380.68	716.20
380.87	674.07
381.07	772.38
381.26	807.48
381.46	697.48
381.65	720.88
381.85	795.78
382.04	844.93
382.24	772.38
382.43	774.72
382.63	760.67
382.83	727.91
383.02	833.23
383.22	870.68
383.41	678.76
383.61	807.48
383.80	760.67
384.00	807.48
384.19	746.63
384.39	896.43
384.58	807.48
384.78	774.72
384.97	866.00
385.17	868.34
385.36	837.91
385.56	748.97
385.75	903.45
385.95	805.14
386.14	856.64
386.34	940.90
386.53	819.19
386.72	826.21
386.92	823.87
387.11	919.83
387.31	884.72
387.50	819.19
387.70	856.64
387.89	847.27
388.09	889.40
388.28	936.21
388.48	887.06
388.67	992.39
388.86	922.17
389.06	952.60
389.25	924.51
389.45	924.51
389.64	997.07
389.84	924.51
390.03	1006.43
390.22	997.07
390.42	870.68
390.61	933.87
390.81	929.19
391.00	1020.47
391.19	1048.56
391.39	1032.18
391.58	990.05
391.78	966.64
391.97	999.41
392.16	1116.44
392.36	1083.67
392.55	1004.09
392.75	1039.20
392.94	954.94
393.13	1004.09
393.33	968.98
393.52	1057.92
393.71	1032.18
393.91	1090.69
394.10	1060.26
394.29	1132.82
394.49	1015.79
394.68	1123.46
394.88	1071.97
395.07	1170.27
395.26	1179.63
395.46	1144.52
395.65	1121.12
395.84	1184.31
396.04	1074.31
396.23	1200.69
396.42	1188.99
396.62	1156.22
396.81	1163.25
397.00	1167.93
397.19	1170.27
397.39	1224.10
397.58	1228.78
397.77	1207.72
397.97	1198.35
398.16	1238.14
398.35	1172.61
398.55	1123.46
398.74	1245.16
398.93	1240.48
399.12	1282.61
399.32	1338.79
399.51	1291.98
399.70	1357.51
399.90	1320.06
400.09	1324.74
400.28	1275.59
400.47	1397.30
400.67	1413.68
400.86	1317.72
401.05	1453.47
401.24	1336.45
401.44	1383.26
401.63	1331.76
401.82	1348.15
402.01	1350.49
402.21	1448.79
402.40	1444.11
402.59	1425.39
402.78	1528.37
402.97	1444.11
403.17	1425.39
403.36	1469.86
403.55	1551.78
403.74	1638.38
403.93	1605.61
404.13	1582.20
404.32	1521.35
404.51	1500.28
404.70	1643.06
404.89	1572.84
405.09	1600.93
405.28	1699.23
405.47	1673.48
405.66	1593.90
405.85	1668.80
406.05	1589.22
406.24	1708.59
406.43	1706.25
406.62	1760.08
406.81	1753.06
407.00	1846.68
407.20	1795.19
407.39	1781.15
407.58	1853.70
407.77	1846.68
407.96	1856.04
408.15	1778.81
408.34	1774.13
408.54	1809.23
408.73	1823.28
408.92	1860.73
409.11	1867.75
409.30	1902.86
409.49	2019.88
409.68	1982.43
409.87	2008.18
410.07	2064.35
410.26	1968.39
410.45	2040.95
410.64	2031.58
410.83	2174.36
411.02	2054.99
411.21	2008.18
411.40	2024.56
411.59	2237.55
411.78	2193.08
411.98	2181.38
412.17	2193.08
412.36	2179.04
412.55	2157.97
412.74	2225.85
412.93	2282.02
413.12	2417.77
413.31	2305.43
413.50	2181.38
413.69	2366.28
413.88	2410.75
414.07	2504.37
414.26	2312.45
414.45	2377.98
414.64	2399.05
414.83	2462.24
415.02	2525.44
415.22	2581.61
415.41	2588.63
415.60	2661.19
415.79	2546.50
415.98	2710.34
416.17	2700.98
416.36	2712.68
416.55	2708.00
416.74	2773.53
416.93	2766.51
417.12	2724.38
417.31	2703.32
417.50	2827.37
417.69	2869.50
417.88	2902.26
418.07	2881.20
418.26	2848.43
418.45	2827.37
418.64	3012.27
418.83	2984.18
419.02	3101.21
419.21	2967.80
419.39	2960.78
419.58	3049.72
419.77	3002.91
419.96	3033.33
420.15	3000.57
420.34	3056.74
420.53	3213.56
420.72	3035.67
420.91	3136.32
421.10	3133.98
421.29	3178.45
421.48	3211.22
421.67	3166.74
421.86	3152.70
422.05	3218.24
422.24	3218.24
422.43	3176.11
422.61	3346.97
422.80	3307.18
422.99	3253.34
423.18	3445.27
423.37	3339.94
423.56	3290.79
423.75	3337.60
423.94	3159.72
424.13	3152.70
424.32	3152.70
424.50	3318.88
424.69	3286.11
424.88	3309.52
425.07	3337.60
425.26	3248.66
425.45	3328.24
425.64	3344.63
425.83	3403.14
426.01	3475.70
426.20	3452.29
426.39	3323.56
426.58	3372.71
426.77	3297.81
426.96	3471.01
427.15	3440.59
427.33	3548.25
427.52	3536.55
427.71	3534.21
427.90	3473.36
428.09	3541.23
428.28	3566.98
428.46	3574.00
428.65	3419.52
428.84	3653.58
429.03	3590.38
429.22	3585.70
429.40	3595.06
429.59	3786.99
429.78	3513.14
429.97	3492.08
430.16	3637.19
430.34	3709.75
430.53	3698.05
430.72	3866.56
430.91	3772.94
431.10	3681.66
431.28	3833.80
431.47	3908.69
431.66	3812.73
431.85	3875.93
432.03	3953.16
432.22	4060.83
432.41	3946.14
432.60	3960.19
432.79	3920.40
432.97	3939.12
433.16	4035.08
433.35	3906.35
433.54	3990.61
433.72	4065.51
433.91	4147.43
434.10	4060.83
434.28	4229.35
434.47	4100.62
434.66	4278.50
434.85	4196.58
435.03	4173.18
435.22	4184.88
435.41	4217.65
435.59	4278.50
435.78	4262.12
435.97	4250.41
436.16	4322.97
436.34	4243.39
436.53	4243.39
436.72	4318.29
436.90	4257.43
437.09	4374.46
437.28	4329.99
437.46	4346.37
437.65	4442.34
437.84	4397.87
438.02	4362.76
438.21	4568.73
438.40	4578.09
438.58	4519.57
438.77	4566.39
438.96	4631.92
439.14	4833.21
439.33	4720.86
439.52	4821.50
439.70	4704.48
439.89	4840.23
440.08	4819.16
440.26	4882.36
440.45	4695.11
440.63	5039.17
440.82	5018.11
441.01	4985.34
441.19	5029.81
441.38	4966.62
441.57	5116.41
441.75	5163.22
441.94	5266.21
442.12	5174.92
442.31	5247.48
442.50	5174.92
442.68	5315.36
442.87	5348.12
443.05	5420.68
443.24	5352.81
443.43	5497.92
443.61	5425.36
443.80	5579.84
443.98	5268.55
444.17	5221.74
444.35	5352.81
444.54	5514.30
444.73	5540.05
444.91	5507.28
445.10	5298.97
445.28	5486.22
445.47	5441.75
445.65	5469.83
445.84	5509.62
446.02	5582.18
446.21	5631.33
446.39	5652.39
446.58	5565.79
446.77	5591.54
446.95	5483.88
447.14	5430.04
447.32	5643.03
447.51	5647.71
447.69	5558.77
447.88	5544.73
448.06	5813.89
448.25	5640.69
448.43	5701.54
448.62	5628.99
448.80	5628.99
448.99	5818.57
449.17	5713.25
449.36	5792.83
449.54	5888.79
449.73	5867.72
449.91	5914.53
450.10	5856.02
450.28	5963.68
450.46	5755.38
450.65	6043.26
450.83	5884.11
451.02	5912.19
451.20	5818.57
451.39	6036.24
451.57	5980.07
451.76	5846.66
451.94	6150.93
452.13	6132.20
452.31	5998.79
452.49	6136.88
452.68	6239.87
452.86	6155.61
453.05	6242.21
453.23	6307.74
453.42	6099.44
453.60	6176.67
453.78	6352.21
453.97	6104.12
454.15	6183.70
454.34	6202.42
454.52	6352.21
454.70	6333.49
454.89	6160.29
455.07	6356.90
455.26	6218.80
455.44	6640.10
455.62	6459.88
455.81	6548.82
455.99	6518.39
456.17	6691.59
456.36	6623.72
456.54	6590.95
456.73	6679.89
456.91	6834.36
457.09	6754.79
457.28	6752.45
457.46	6815.64
457.64	6867.13
457.83	6815.64
458.01	6864.79
458.19	6953.73
458.38	6848.41
458.56	6853.09
458.74	7098.84
458.93	7045.01
459.11	6998.20
459.29	7152.68
459.48	6897.56
459.66	7066.08
459.84	7035.65
460.03	7262.68
460.21	7075.44
460.39	7110.55
460.57	7220.55
460.76	7229.91
460.94	7126.93
461.12	7288.43
461.31	7192.47
461.49	7229.91
461.67	7047.35
461.85	7400.77
462.04	7382.05
462.22	7782.28
462.40	7527.16
462.59	7466.31
462.77	7433.54
462.95	7536.52
463.13	7485.03
463.32	7379.71
463.50	7583.34
463.68	7648.87
463.86	7662.91
464.05	7618.44
464.23	7676.96
464.41	7655.89
464.59	7595.04
464.78	7887.61
464.96	7691.00
465.14	7894.63
465.32	7749.51
465.50	7847.82
465.69	7943.78
465.87	7892.29
466.05	7903.99
466.23	8053.78
466.41	8070.17
466.60	8154.43
466.78	7941.44
466.96	7999.95
467.14	7934.42
467.32	8093.57
467.51	8035.06
467.69	7826.75
467.87	7894.63
468.05	8093.57
468.23	7941.44
468.41	8011.65
468.60	8124.00
468.78	8219.96
468.96	8131.02
469.14	8365.07
469.32	8465.72
469.50	8278.47
469.69	8353.37
469.87	8468.06
470.05	8397.84
470.23	8542.96
470.41	8528.91
470.59	8659.98
470.77	8564.02
470.95	8741.90
471.14	8505.51
471.32	8500.83
471.50	8800.41
471.68	8816.80
471.86	8732.54
472.04	8847.22
472.22	8884.67
472.40	8727.86
472.58	8865.95
472.77	8889.35
472.95	8954.89
473.13	9231.07
473.31	8943.19
473.49	9053.19
473.67	9249.80
473.85	9472.15
474.03	9607.90
474.21	9280.22
474.39	9430.02
474.57	9474.49
474.75	9671.09
474.93	9703.86
475.12	9540.02
475.30	9753.01
475.48	9748.33
475.66	9846.63
475.84	9584.49
476.02	9844.29
476.20	9748.33
476.38	10214.10
476.56	10270.27
476.74	10314.74
476.92	10200.05
477.10	10195.37
477.28	10368.57
477.46	10281.97
477.64	10380.28
477.82	10691.57
478.00	10939.66
478.18	10621.35
478.36	10719.65
478.54	10944.34
478.72	10958.39
478.90	10878.81
479.08	11239.25
479.26	11314.15
479.44	11290.74
479.62	11555.22
479.80	11529.48
479.98	11648.85
480.16	11871.20
480.34	11758.85
480.52	11880.56
480.70	11960.14
480.88	11782.26
481.06	11997.59
481.24	12327.60
481.41	12306.54
481.59	12617.83
481.77	12458.67
481.95	12276.11
482.13	12652.94
482.31	12615.49
482.49	12968.91
482.67	12779.32
482.85	13097.64
483.03	13099.98
483.21	13266.16
483.39	13275.52
483.57	13209.98
483.74	13380.84
483.92	13256.79
484.10	13441.70
484.28	13750.65
484.46	13839.59
484.64	13989.38
484.82	13963.64
485.00	14277.27
485.18	14448.13
485.35	14375.57
485.53	14567.49
485.71	14492.60
485.89	15005.17
486.07	14874.10
486.25	14789.85
486.43	15140.93
486.61	14906.87
486.78	15147.95
486.96	15356.25
487.14	15524.77
487.32	15735.42
487.50	15562.22
487.68	15824.36
487.85	16081.82
488.03	16212.89
488.21	16425.88
488.39	16343.96
488.57	16673.98
488.75	16629.51
488.92	16758.24
489.10	16779.30
489.28	17027.40
489.46	17123.36
489.64	17270.81
489.81	17488.48
489.99	17462.74
490.17	17451.03
490.35	17743.60
490.53	17980.00
490.70	18228.09
490.88	18202.35
491.06	18223.41
491.24	18438.74
491.41	18611.94
491.59	18611.94
491.77	18623.64
491.95	18789.82
492.13	18974.72
492.30	19232.18
492.48	19033.24
492.66	19012.17
492.84	19442.83
493.01	19693.27
493.19	19520.07
493.37	19735.40
493.54	19407.72
493.72	19889.87
493.90	19894.55
494.08	19857.10
494.25	20367.34
494.43	20329.89
494.61	20365.00
494.79	20528.84
494.96	20683.31
495.14	20893.96
495.32	21116.31
495.49	21060.14
495.67	20898.64
495.85	21338.66
496.02	21231.00
496.20	21413.56
496.38	21053.12
496.55	21495.48
496.73	22167.21
496.91	21827.84
497.09	21900.39
497.26	21942.52
497.44	21902.73
497.62	22520.63
497.79	22548.72
497.97	22501.91
498.14	23012.15
498.32	22778.09
498.50	22834.27
498.67	23173.64
498.85	23021.51
499.03	23215.77
499.20	23070.66
499.38	23183.01
499.56	23234.50
499.73	23651.11
499.91	23934.32
500.08	23976.45
500.26	23679.20
500.44	23915.59
500.61	23917.93
500.79	23934.32
500.97	23747.08
501.14	24456.26
501.32	24245.61
501.49	24542.86
501.67	24498.39
501.84	24491.37
502.02	24498.39
502.20	24662.22
502.37	24716.06
502.55	25090.54
502.72	24833.08
502.90	24933.73
503.07	24999.26
503.25	24975.86
503.43	25071.82
503.60	25221.61
503.78	25497.80
503.95	25490.77
504.13	25607.80
504.30	25841.85
504.48	25525.88
504.65	25776.32
504.83	26284.22
505.01	25928.45
505.18	26300.60
505.36	26457.42
505.53	26331.03
505.71	26637.64
505.88	26845.94
506.06	26515.93
506.23	26352.09
506.41	26611.89
506.58	27049.57
506.76	26684.45
506.93	26981.70
507.11	26993.40
507.28	27131.49
507.46	27211.07
507.63	27197.02
507.81	27009.78
507.98	27154.90
508.16	27087.02
508.33	27510.66
508.50	27681.52
508.68	27864.08
508.85	27765.78
509.03	27840.67
509.20	28233.88
509.38	28128.56
509.55	27992.81
509.73	28465.60
509.90	28821.36
510.08	28168.35
510.25	28542.83
510.42	28496.02
510.60	28753.48
510.77	28650.50
510.95	28959.45
511.12	28926.68
511.30	28922.00
511.47	29113.92
511.64	29106.90
511.82	29439.26
511.99	29600.76
512.17	29369.04
512.34	29347.98
512.51	29766.93
512.69	29961.20
512.86	29937.79
513.04	29708.42
513.21	30108.65
513.38	30040.78
513.56	30443.35
513.73	30125.04
513.90	29771.61
514.08	30256.11
514.25	30300.58
514.43	30415.26
514.60	30576.76
514.77	30473.78
514.95	30431.65
515.12	30450.37
515.29	30600.16
515.47	30787.41
515.64	30794.43
515.81	31070.61
515.99	31206.36
516.16	31297.64
516.33	31271.90
516.51	31728.30
516.68	31098.70
516.85	31608.93
517.03	31604.25
517.20	31299.98
517.37	31454.46
517.54	31655.75
517.72	31653.40
517.89	31693.19
518.06	32226.84
518.24	31922.57
518.41	31997.46
518.58	31945.97
518.75	32107.47
518.93	32194.07
519.10	32472.59
519.27	32285.35
519.45	32304.07
519.62	32818.99
519.79	32692.60
519.96	32294.71
520.14	32627.07
520.31	32727.71
520.48	32659.84
520.65	33254.33
520.83	33472.00
521.00	33188.80
521.17	33514.13
521.34	33310.50
521.52	33455.62
521.69	33247.31
521.86	33916.70
522.03	33806.70
522.20	33570.30
522.38	33717.76
522.55	34110.97
522.72	33696.69
522.89	34129.69
523.07	34040.75
523.24	34237.36
523.41	34178.84
523.58	33762.23
523.75	34277.15
523.92	34160.12
524.10	34609.50
524.27	34497.16
524.44	34249.06
524.61	34536.94
524.78	34485.45
524.96	34843.56
525.13	34817.81
525.30	35199.32
525.47	34644.61
525.64	35248.47
525.81	35159.53
525.98	35140.80
526.16	34983.99
526.33	34799.08
526.50	35269.53
526.67	34986.33
526.84	35166.55
527.01	35306.98
527.18	35194.64
527.36	35548.06
527.53	35295.28
527.70	35976.37
527.87	35557.42
528.04	35796.15
528.21	35901.48
528.38	35873.39
528.55	35578.48
528.72	35763.39
528.89	35913.18
529.07	35955.31
529.24	35796.15
529.41	36383.63
529.58	36016.16
529.75	36215.11
529.92	36023.19
530.09	36439.80
530.26	36350.86
530.43	36334.48
530.60	36109.78
530.77	36053.61
530.94	36690.24
531.11	36570.87
531.28	36491.29
531.46	37006.21
531.63	36938.33
531.80	36720.66
531.97	36917.27
532.14	37055.36
532.31	36886.84
532.48	37125.58
532.65	37572.62
532.82	37488.36
532.99	37579.64
533.16	37542.19
533.33	37326.86
533.50	37649.86
533.67	37514.11
533.84	37502.40
534.01	37500.06
534.18	37373.67
534.35	37614.75
534.52	37647.52
534.69	38094.56
534.86	38141.37
535.03	37490.70
535.20	37928.38
535.37	38349.68
535.54	38354.36
535.71	37893.27
535.88	38396.49
536.05	38099.24
536.22	38363.72
536.38	38281.80
536.55	38370.74
536.72	38501.81
536.89	38354.36
537.06	38045.41
537.23	38876.30
537.40	38354.36
537.57	38249.03
537.74	38326.27
537.91	39040.14
538.08	38682.03
538.25	37944.76
538.42	38618.84
538.59	39070.56
538.75	38469.04
538.92	39033.11
539.09	39239.08
539.26	38796.72
539.43	38967.58
539.60	39218.02
539.77	39302.28
539.94	39599.52
540.11	39646.33
540.28	39405.26
540.44	39070.56
540.61	39328.02
540.78	39232.06
540.95	39775.06
541.12	39803.15
541.29	39768.04
541.46	39950.60
541.62	39683.78
541.79	40039.54
541.96	39636.97
542.13	39934.22
542.30	39545.69
542.47	39882.73
542.63	39653.36
542.80	40327.43
542.97	39831.24
543.14	40481.91
543.31	40086.36
543.48	40418.71
543.64	40360.20
543.81	40699.58
543.98	40425.73
544.15	40285.30
544.32	40811.92
544.48	41074.06
544.65	40781.49
544.82	40912.56
544.99	40399.99
545.16	40924.27
545.32	40825.96
545.49	40954.69
545.66	41640.47
545.83	41050.66
546.00	41251.94
546.16	41198.11
546.33	41146.62
546.50	40933.63
546.67	41448.55
546.83	40921.93
547.00	41450.89
547.17	41247.26
547.34	41605.36
547.50	41371.31
547.67	41696.64
547.84	41193.43
548.00	41371.31
548.17	41823.03
548.34	42300.50
548.51	42330.93
548.67	41993.89
548.84	41965.81
549.01	41523.44
549.18	41706.01
549.34	41794.95
549.51	41818.35
549.68	41893.25
549.84	42169.43
550.01	42038.36
550.18	41418.12
550.34	42143.69
550.51	42286.46
550.68	42384.76
550.84	41832.39
551.01	42251.35
551.18	42024.32
551.34	42370.72
551.51	42827.12
551.68	42447.96
551.84	42600.09
552.01	41881.55
552.18	42576.69
552.34	42241.99
552.51	42611.79
552.68	42733.50
552.84	42895.00
553.01	42918.40
553.18	42670.31
553.34	42588.39
553.51	42677.33
553.67	42962.87
553.84	42564.98
554.01	42939.47
554.17	42595.41
554.34	43000.32
554.51	42852.87
554.67	43239.06
554.84	43435.66
555.00	43009.68
555.17	42855.21
555.33	43271.82
555.50	43126.71
555.67	42887.98
555.83	42951.17
556.00	43318.64
556.16	43594.82
556.33	43533.96
556.50	43573.75
556.66	43613.54
556.83	43288.21
556.99	43835.89
557.16	43388.85
557.32	43674.40
557.49	43824.19
557.65	43241.40
557.82	43908.45
557.98	43676.74
558.15	43700.14
558.32	43894.41
558.48	43405.23
558.65	43611.20
558.81	43929.51
558.98	43019.05
559.14	43826.53
559.31	43423.96
559.47	43863.98
559.64	43704.82
559.80	43775.04
559.97	44039.52
560.13	44177.61
560.30	44205.70
560.46	44238.47
560.63	44079.31
560.79	44149.53
560.96	44285.28
561.12	44643.38
561.29	44051.22
561.45	44196.34
561.61	43707.16
561.78	44231.44
561.94	44109.74
562.11	44289.96
562.27	44203.36
562.44	43899.09
562.60	44556.78
562.77	44062.93
562.93	44332.09
563.10	44062.93
563.26	44554.44
563.42	44596.57
563.59	44563.80
563.75	44512.31
563.92	44545.08
564.08	44608.27
564.24	44624.65
564.41	44603.59
564.57	44500.61
564.74	44636.36
564.90	44615.29
565.07	44584.86
565.23	44275.91
565.39	44383.58
565.56	45137.23
565.72	44783.81
565.88	44844.66
566.05	44505.29
566.21	44802.53
566.38	44662.10
566.54	44725.30
566.70	44872.75
566.87	44971.05
567.03	44502.95
567.19	45186.38
567.36	44919.56
567.52	44877.43
567.68	45338.52
567.85	44634.02
568.01	45125.53
568.17	44687.85
568.34	45195.74
568.50	44924.24
568.66	44662.10
568.83	44954.67
568.99	44737.00
569.15	44959.35
569.32	44903.18
569.48	44851.69
569.64	45469.59
569.81	45432.14
569.97	45427.46
570.13	45212.13
570.30	44957.01
570.46	44954.67
570.62	45193.40
570.78	45329.16
570.95	45343.20
571.11	45734.07
571.27	44889.13
571.43	44952.33
571.60	45408.73
571.76	45177.02
571.92	44999.14
572.09	44978.07
572.25	45064.67
572.41	45172.34
572.57	45270.64
572.74	45212.13
572.90	45235.53
573.06	45081.06
573.22	45626.40
573.38	45591.30
573.55	45617.04
573.71	45462.57
573.87	45617.04
574.03	45478.95
574.20	45776.20
574.36	45319.79
574.52	45471.93
574.68	45397.03
574.84	45897.91
575.01	45834.71
575.17	45507.04
575.33	45359.58
575.49	45624.06
575.65	45666.19
575.82	45546.82
575.98	45656.83
576.14	45813.65
576.30	45525.76
576.46	45460.23
576.62	45572.57
576.79	45191.06
576.95	45277.66
577.11	45375.97
577.27	45357.24
577.43	45272.98
577.59	45490.65
577.75	45151.27
577.92	45378.31
578.08	45308.09
578.24	45322.13
578.40	45759.81
578.56	45734.07
578.72	45305.75
578.88	45689.60
579.04	45476.61
579.21	45406.39
579.37	45820.67
579.53	45705.98
579.69	46162.39
579.85	45495.33
580.01	45666.19
580.17	45684.92
580.33	45436.82
580.49	45574.91
580.65	45921.31
580.82	45539.80
580.98	45808.96
581.14	45741.09
581.30	45961.10
581.46	45265.96
581.62	45326.81
581.78	45076.38
581.94	46197.49
582.10	45495.33
582.26	45991.53
582.42	45783.22
582.58	45961.10
582.74	45815.99
582.90	46267.71
583.06	45911.95
583.22	45296.39
583.38	45837.05
583.54	45759.81
583.70	45551.51
583.86	45893.22
584.02	45710.66
584.18	46270.05
584.34	45675.55
584.50	45846.41
584.66	46380.06
584.82	46277.07
584.98	46333.24
585.14	46043.02
585.30	45918.97
585.46	45940.04
585.62	45874.50
585.78	45860.46
585.94	45942.38
586.10	46094.51
586.26	45305.75
586.42	45858.12
586.58	46260.69
586.74	45820.67
586.90	45780.88
587.06	45841.73
587.22	45750.45
587.38	45890.88
587.54	45916.63
587.70	46546.23
587.86	45694.28
588.02	45972.80
588.18	46103.87
588.34	46216.22
588.49	46183.45
588.65	46066.42
588.81	46120.26
588.97	45925.99
589.13	46096.85
589.29	46021.95
589.45	46167.07
589.61	46461.97
589.77	46291.12
589.93	46110.89
590.08	46080.47
590.24	46396.44
590.40	46756.88
590.56	46492.40
590.72	46373.03
590.88	46239.62
591.04	45930.67
591.20	46248.99
591.35	46656.24
591.51	46712.41
591.67	46373.03
591.83	46471.34
591.99	46525.17
592.15	46485.38
592.31	46232.60
592.46	45982.16
592.62	46822.42
592.78	46417.50
592.94	46824.76
593.10	46621.13
593.26	46799.01
593.41	46841.14
593.57	46241.96
593.73	46806.03
593.89	46827.10
594.05	47056.47
594.20	46403.46
594.36	46447.93
594.52	46965.19
594.68	46738.16
594.84	46256.01
594.99	46710.07
595.15	46176.43
595.31	46728.80
595.47	46195.15
595.62	46714.75
595.78	46319.20
595.94	46731.14
596.10	46356.65
596.25	46927.74
596.41	46696.03
596.57	46316.86
596.73	47229.67
596.88	46323.88
597.04	46681.98
597.20	47131.37
597.36	46848.16
597.51	46843.48
597.67	46466.66
597.83	46862.21
597.99	46990.94
598.14	46487.72
598.30	46836.46
598.46	46644.54
598.61	46770.93
598.77	46850.50
598.93	46663.26
599.09	46904.34
599.24	47206.26
599.40	46529.85
599.56	46911.36
599.71	47063.49
599.87	47505.85
600.03	47065.83
600.18	46887.95
600.34	46731.14
600.50	46443.25
600.65	46511.13
600.81	46885.61
600.97	46899.65
601.12	47000.30
601.28	46782.63
601.44	46813.05
601.59	46532.19
601.75	46831.78
601.91	46843.48
602.06	46571.98
602.22	47131.37
602.37	46550.91
602.53	46658.58
602.69	46848.16
602.84	46506.44
603.00	46777.95
603.16	47267.12
603.31	47049.45
603.47	46941.78
603.62	46976.89
603.78	46843.48
603.94	46897.31
604.09	46660.92
604.25	46672.62
604.40	46766.24
604.56	46557.94
604.71	47014.34
604.87	46630.49
605.03	46579.00
605.18	46630.49
605.34	46651.56
605.49	46581.34
605.65	46127.28
605.80	46841.14
605.96	46597.73
606.12	46852.84
606.27	46808.37
606.43	46209.20
606.58	46845.82
606.74	46759.22
606.89	46871.57
607.05	46941.78
607.20	46745.18
607.36	46689.01
607.51	46677.30
607.67	46745.18
607.82	46515.81
607.98	46476.02
608.13	46497.08
608.29	46438.57
608.44	46665.60
608.60	46270.05
608.75	46698.37
608.91	46672.62
609.06	46127.28
609.22	46794.33
609.37	46628.15
609.53	46623.47
609.68	46649.22
609.84	46583.68
609.99	46527.51
610.15	46623.47
610.30	46555.60
610.46	46204.52
610.61	46424.53
610.76	46581.34
610.92	46344.95
611.07	46047.70
611.23	45687.26
611.38	46487.72
611.54	46356.65
611.69	46749.86
611.84	46471.34
612.00	46178.77
612.15	46138.98
612.31	46550.91
612.46	46513.47
612.62	46211.54
612.77	46089.83
612.92	46300.48
613.08	46014.93
613.23	46476.02
613.39	46272.39
613.54	45977.48
613.69	46199.83
613.85	45933.01
614.00	46326.22
614.15	46155.36
614.31	46429.21
614.46	46117.92
614.62	45689.60
614.77	46209.20
614.92	46213.88
615.08	46122.60
615.23	45769.18
615.38	46047.70
615.54	46241.96
615.69	46199.83
615.84	45780.88
616.00	46403.46
616.15	46305.16
616.30	46440.91
616.46	46061.74
616.61	46143.66
616.76	46157.70
616.92	45539.80
617.07	45698.96
617.22	46057.06
617.37	44935.95
617.53	45441.50
617.68	45577.25
617.83	45682.58
617.99	45729.39
618.14	45907.27
618.29	45385.33
618.45	45624.06
618.60	45354.90
618.75	45614.70
618.90	45483.63
619.06	45198.09
619.21	45429.80
619.36	45382.99
619.51	45116.17
619.67	45380.65
619.82	45429.80
619.97	46080.47
620.12	45544.48
620.28	45464.91
620.43	45556.19
620.58	45457.88
620.73	45542.14
620.89	45535.12
621.04	45755.13
621.19	45626.40
621.34	45502.35
621.49	45282.34
621.65	45748.11
621.80	45495.33
621.95	45467.25
622.10	45172.34
622.25	45172.34
622.41	45095.10
622.56	45418.10
622.71	45127.87
622.86	44989.78
623.01	44830.62
623.16	45048.29
623.32	45792.58
623.47	45612.36
623.62	44971.05
623.77	45249.58
623.92	45230.85
624.07	44966.37
624.23	45364.26
624.38	45048.29
624.53	45132.55
624.68	44949.99
624.83	44718.28
624.98	44968.71
625.13	44488.90
625.29	44903.18
625.44	45184.04
625.59	45017.86
625.74	44877.43
625.89	44346.13
626.04	44755.72
626.19	44390.60
626.34	44722.96
626.49	44058.24
626.65	43798.44
626.80	44584.86
626.95	44229.10
627.10	44360.17
627.25	44226.76
627.40	44229.10
627.55	44175.27
627.70	44203.36
627.85	44603.59
628.00	44744.02
628.15	44456.14
628.30	43543.33
628.45	44027.82
628.60	43398.21
628.76	43892.07
628.91	44048.88
629.06	44486.56
629.21	43856.96
629.36	43730.57
629.51	44100.37
629.66	44296.98
629.81	44275.91
629.96	44009.09
630.11	44044.20
630.26	43803.13
630.41	43934.20
630.56	43660.35
630.71	43562.05
630.86	44067.61
631.01	43386.51
631.16	43721.21
631.31	43557.37
631.46	43505.88
631.61	43852.28
631.76	43997.39
631.91	43758.66
632.06	44334.43
632.21	43807.81
632.36	43505.88
632.51	43199.27
632.66	43391.19
632.81	43648.65
632.96	43658.01
633.10	43126.71
633.25	43562.05
633.40	43463.75
633.55	43976.33
633.70	43161.82
633.85	43349.06
634.00	43096.28
634.15	43243.74
634.30	43210.97
634.45	43351.40
634.60	43620.56
634.75	43449.70
634.90	43283.53
635.05	43821.85
635.19	43012.02
635.34	42897.34
635.49	43168.84
635.64	43215.65
635.79	43236.72
635.94	43407.58
636.09	43419.28
636.24	43302.25
636.39	42588.39
636.53	43154.80
636.68	42869.25
636.83	42880.95
636.98	42651.58
637.13	42323.91
637.28	42595.41
637.43	42218.58
637.57	42988.62
637.72	42181.13
637.87	42440.93
638.02	42466.68
638.17	43086.92
638.32	42389.44
638.46	42047.72
638.61	42469.02
638.76	42288.80
638.91	42887.98
639.06	42705.41
639.20	42007.94
639.35	41970.49
639.50	42031.34
639.65	42506.47
639.80	42300.50
639.94	42827.12
640.09	42618.81
640.24	42501.79
640.39	42286.46
640.54	41956.44
640.68	42220.92
640.83	42747.54
640.98	42506.47
641.13	42663.28
641.27	42436.25
641.42	42068.79
641.57	42036.02
641.72	42309.86
641.86	42279.44
642.01	41823.03
642.16	41989.21
642.31	41216.83
642.45	41961.12
642.60	42038.36
642.75	41982.19
642.90	42300.50
643.04	41993.89
643.19	41764.52
643.34	41483.66
643.48	41490.68
643.63	41329.18
643.78	42153.05
643.93	41926.02
644.07	41682.60
644.22	41574.94
644.37	41727.07
644.51	41584.30
644.66	41659.20
644.81	41663.88
644.95	41666.22
645.10	41715.37
645.25	41422.80
645.39	41345.56
645.54	41354.93
645.69	41546.85
645.83	40954.69
645.98	41483.66
646.13	41322.16
646.27	41221.52
646.42	40694.89
646.57	41364.29
646.71	41645.15
646.86	41336.20
647.00	41317.48
647.15	41642.81
647.30	41668.56
647.44	40868.09
647.59	41214.49
647.74	41043.63
647.88	41209.81
648.03	41570.25
648.17	41315.14
648.32	41624.09
648.47	41467.27
648.61	40732.34
648.76	40584.89
648.90	40594.25
649.05	40926.61
649.20	40772.13
649.34	41132.57
649.49	40912.56
649.63	40971.08
649.78	40793.20
649.92	40868.09
650.07	41537.49
650.21	40687.87
650.36	41181.73
650.51	41270.67
650.65	40612.98
650.80	40730.00
650.94	41038.95
651.09	40774.47
651.23	40552.12
651.38	40556.80
651.52	40327.43
651.67	40264.24
651.81	40498.29
651.96	40577.87
652.10	40353.18
652.25	40512.33
652.39	39856.98
652.54	40680.85
652.68	40156.57
652.83	40517.01
652.97	40285.30
653.12	39896.77
653.26	40282.96
653.41	40404.67
653.55	40451.48
653.70	40357.86
653.84	40526.38
653.99	40481.91
654.13	40292.32
654.27	39580.80
654.42	40196.36
654.56	40013.80
654.71	40502.97
654.85	39861.66
655.00	40261.90
655.14	40306.37
655.29	40191.68
655.43	40217.43
655.57	39676.76
655.72	39023.75
655.86	40039.54
656.01	39718.89
656.15	39243.76
656.30	39470.79
656.44	39526.97
656.58	39597.18
656.73	39875.71
656.87	39358.45
657.01	39248.44
657.16	39576.12
657.30	39306.96
657.45	39887.41
657.59	39304.62
657.73	39138.44
657.88	39576.12
658.02	39674.42
658.16	39772.72
658.31	39461.43
658.45	39000.35
658.60	39115.03
658.74	39129.08
658.88	39229.72
659.03	39065.88
659.17	38850.55
659.31	38588.41
659.46	38684.37
659.60	39414.62
659.74	38763.95
659.89	38328.61
660.03	38462.02
660.17	38960.56
660.32	38660.97
660.46	38600.12
660.60	38188.18
660.74	38157.75
660.89	38616.50
661.03	38319.25
661.17	38087.54
661.32	38597.77
661.46	38768.63
661.60	38368.40
661.74	38169.46
661.89	38356.70
662.03	37701.35
662.17	38223.29
662.31	37764.54
662.46	38398.83
662.60	38199.88
662.74	37717.73
662.88	37713.05
663.03	37446.23
663.17	37577.30
663.31	36919.61
663.45	37577.30
663.60	37750.50
663.74	37352.61
663.88	37731.78
664.02	37177.07
664.17	37394.74
664.31	37701.35
664.45	37006.21
664.59	37118.56
664.73	37060.04
664.88	37420.48
665.02	36938.33
665.16	36575.55
665.30	36992.17
665.44	37038.98
665.59	36725.35
665.73	36519.38
665.87	36517.04
666.01	36882.16
666.15	36486.61
666.29	36437.46
666.44	36903.23
666.58	36615.34
666.72	36463.21
666.86	36163.62
667.00	36065.31
667.14	36088.72
667.28	36212.77
667.43	35983.40
667.57	36589.59
667.71	35887.43
667.85	36519.38
667.99	36282.98
668.13	35599.55
668.27	35887.43
668.41	35824.24
668.56	35143.14
668.70	35428.69
668.84	35208.68
668.98	35175.91
669.12	35622.95
669.26	35456.78
669.40	35363.15
669.54	35208.68
669.68	35377.20
669.82	34948.88
669.96	34546.31
670.10	34761.64
670.25	34930.16
670.39	34976.97
670.53	35166.55
670.67	34756.96
670.81	35005.05
670.95	34768.66
671.09	34401.19
671.23	34288.85
671.37	34876.32
671.51	34515.88
671.65	34693.76
671.79	34305.23
671.93	34305.23
672.07	34522.90
672.21	34017.35
672.35	34059.48
672.49	33633.50
672.63	33954.15
672.77	33748.18
672.91	33701.37
673.05	33532.86
673.19	33631.16
673.33	33263.69
673.47	33663.93
673.61	33326.89
673.75	33240.29
673.89	33060.07
674.03	32666.86
674.17	33046.02
674.31	32816.65
674.45	32868.14
674.59	32598.98
674.73	32694.94
674.87	32776.86
675.01	32360.25
675.15	32320.46
675.29	32304.07
675.43	32341.52
675.56	32081.72
675.70	31770.43
675.84	31957.67
675.98	31007.42
676.12	31711.92
676.26	32245.56
676.40	31536.38
676.54	31587.87
676.68	31473.18
676.82	31054.23
676.96	31606.59
677.10	31620.64
677.23	31278.92
677.37	31353.82
677.51	31297.64
677.65	31168.91
677.79	30771.02
677.93	30684.42
678.07	30876.35
678.21	30572.08
678.34	30228.02
678.48	30022.05
678.62	30527.61
678.76	30291.21
678.90	29968.22
679.04	30033.75
679.18	30181.21
679.31	29841.83
679.45	29642.88
679.59	29432.24
679.73	29584.37
679.87	29717.78
680.00	29596.07
680.14	29064.77
680.28	29287.12
680.42	29184.14
680.56	28994.56
680.70	29144.35
680.83	28538.15
680.97	28655.18
681.11	28641.14
681.25	28680.92
681.39	28268.99
681.52	28414.10
681.66	28329.84
681.80	27768.12
681.94	27550.45
682.07	27873.44
682.21	28046.64
682.35	27426.40
682.49	27740.03
682.62	27543.42
682.76	27835.99
682.90	27569.17
683.04	27496.61
683.17	27117.45
683.31	26625.93
683.45	27178.30
683.59	26469.12
683.72	26356.77
683.86	26663.38
684.00	26506.57
684.13	26639.98
684.27	26225.70
684.41	26003.35
684.55	26352.09
684.68	26497.20
684.82	25610.14
684.96	25722.49
685.09	26015.05
685.23	25778.66
685.37	26040.80
685.50	25867.60
685.64	25958.88
685.78	25303.53
685.91	25715.47
686.05	24886.92
686.19	24987.56
686.32	24959.47
686.46	24671.59
686.60	24702.01
686.73	24645.84
686.87	24201.14
687.01	24746.48
687.14	24493.71
687.28	24905.64
687.42	24704.35
687.55	24194.12
687.69	24112.20
687.82	24084.11
687.96	23655.79
688.10	24203.48
688.23	24350.93
688.37	24002.19
688.50	23971.77
688.64	23426.42
688.78	23541.11
688.91	23473.23
689.05	23309.40
689.18	23278.97
689.32	22593.19
689.46	23040.23
689.59	22934.91
689.73	23164.28
689.86	23285.99
690.00	22555.74
690.13	22740.64
690.27	22616.60
690.41	22658.73
690.54	21944.86
690.68	22338.07
690.81	21963.59
690.95	22092.32
691.08	22115.72
691.22	21956.57
691.35	21680.38
691.49	21696.77
691.62	21717.83
691.76	21139.72
691.89	21408.88
692.03	21097.59
692.16	21032.05
692.30	21160.78
692.43	21048.44
692.57	20636.50
692.70	21111.63
692.84	20680.97
692.97	20383.73
693.11	20828.43
693.24	20580.33
693.38	20154.35
693.51	20329.89
693.65	20077.12
693.78	20137.97
693.92	20322.87
694.05	19791.57
694.19	19819.66
694.32	19866.47
694.45	19957.75
694.59	19943.70
694.72	19901.58
694.86	19475.60
694.99	19173.67
695.13	18855.36
695.26	19250.91
695.39	18675.13
695.53	19049.62
695.66	19119.84
695.80	18773.44
695.93	18948.98
696.07	18735.99
696.20	18651.73
696.33	18363.84
696.47	18244.48
696.60	18209.37
696.73	18239.79
696.87	18405.97
697.00	18090.00
697.14	17944.89
697.27	18197.67
697.40	17848.93
697.54	17743.60
697.67	17802.11
697.80	17640.62
697.94	17605.51
698.07	17537.63
698.21	17509.55
698.34	17460.40
698.47	17355.07
698.61	16688.02
698.74	16847.18
698.87	16716.11
699.01	16837.81
699.14	16772.28
699.27	16779.30
699.40	16622.48
699.54	16552.27
699.67	16716.11
699.80	16444.60
699.94	16343.96
700.07	16208.21
700.20	16470.35
700.34	16191.83
700.47	16084.16
700.60	16203.53
700.73	16259.70
700.87	15903.94
701.00	15651.16
701.13	15433.49
701.26	15623.08
701.40	15545.84
701.53	15405.41
701.66	15346.89
701.79	15234.55
701.93	14796.87
702.06	15077.73
702.19	15070.71
702.32	14965.39
702.46	14839.00
702.59	15016.88
702.72	14934.96
702.85	14794.53
702.99	15023.90
703.12	14689.20
703.25	14560.47
703.38	14274.93
703.51	14260.88
703.65	14300.67
703.78	14101.73
703.91	14005.77
704.04	14031.51
704.17	13823.20
704.31	13923.85
704.44	14024.49
704.57	13839.59
704.70	13748.31
704.83	13486.17
704.96	13582.13
705.10	13575.11
705.23	13380.84
>>>>>End Processed Spectral Data<<<<<
