SpectraSuite Data File
++++++++++++++++++++++++++++++++++++
Date: Fri Oct 25 10:44:50 EDT 2013
User: price-jones
Dark Spectrum Present: No
Reference Spectrum Present: No
Number of Sampled Component Spectra: 1
Spectrometers: USB2+H05261
Integration Time (usec): 100000 (USB2+H05261)
Spectra Averaged: 1 (USB2+H05261)
Boxcar Smoothing: 0 (USB2+H05261)
Correct for Electrical Dark: No (USB2+H05261)
Strobe/Lamp Enabled: No (USB2+H05261)
Correct for Detector Non-linearity: No (USB2+H05261)
Correct for Stray Light: No (USB2+H05261)
Number of Pixels in Processed Spectrum: 2048
>>>>>Begin Processed Spectral Data<<<<<
365.73	156.82
365.92	156.82
366.12	156.82
366.32	51.49
366.52	56.17
366.72	70.22
366.91	14.04
367.11	88.94
367.31	4.68
367.51	49.15
367.70	0.00
367.90	100.64
368.10	51.49
368.30	42.13
368.49	63.19
368.69	30.43
368.89	77.24
369.09	65.54
369.28	18.72
369.48	30.43
369.68	67.88
369.87	98.30
370.07	16.38
370.27	119.37
370.47	201.29
370.66	365.12
370.86	425.98
371.06	416.62
371.25	528.96
371.45	341.72
371.65	477.47
371.84	423.64
372.04	440.02
372.24	514.92
372.44	477.47
372.63	461.09
372.83	498.53
373.03	507.90
373.22	461.09
373.42	512.58
373.62	484.49
373.81	491.51
374.01	582.79
374.21	514.92
374.40	498.53
374.60	491.51
374.79	519.60
374.99	526.62
375.19	566.41
375.38	559.39
375.58	564.07
375.78	505.56
375.97	564.07
376.17	615.56
376.37	622.58
376.56	554.71
376.76	566.41
376.95	603.86
377.15	615.56
377.35	582.79
377.54	615.56
377.74	547.69
377.93	477.47
378.13	596.84
378.33	599.18
378.52	531.30
378.72	624.92
378.91	514.92
379.11	667.05
379.31	667.05
379.50	585.13
379.70	624.92
379.89	629.60
380.09	629.60
380.28	638.97
380.48	660.03
380.68	688.12
380.87	660.03
381.07	669.39
381.26	725.57
381.46	683.44
381.65	645.99
381.85	615.56
382.04	690.46
382.24	610.88
382.43	657.69
382.63	582.79
382.83	753.65
383.02	667.05
383.22	713.86
383.41	709.18
383.61	730.25
383.80	767.70
384.00	730.25
384.19	695.14
384.39	727.91
384.58	688.12
384.78	732.59
384.97	664.71
385.17	676.41
385.36	758.33
385.56	826.21
385.75	725.57
385.95	737.27
386.14	835.57
386.34	723.23
386.53	699.82
386.72	713.86
386.92	854.30
387.11	830.89
387.31	709.18
387.50	791.10
387.70	739.61
387.89	774.72
388.09	770.04
388.28	833.23
388.48	816.85
388.67	830.89
388.86	793.44
389.06	837.91
389.25	882.38
389.45	898.77
389.64	770.04
389.84	877.70
390.03	889.40
390.22	898.77
390.42	1015.79
390.61	1015.79
390.81	926.85
391.00	1011.11
391.19	1008.77
391.39	971.32
391.58	973.66
391.78	957.28
391.97	1006.43
392.16	940.90
392.36	1032.18
392.55	950.26
392.75	973.66
392.94	987.71
393.13	1025.15
393.33	894.08
393.52	940.90
393.71	1081.33
393.91	994.73
394.10	1036.86
394.29	987.71
394.49	1036.86
394.68	1144.52
394.88	1156.22
395.07	1139.84
395.26	1114.10
395.46	1086.01
395.65	1163.25
395.84	999.41
396.04	1165.59
396.23	1130.48
396.42	1060.26
396.62	1107.07
396.81	1128.14
397.00	1146.86
397.19	1160.91
397.39	1186.65
397.58	1242.82
397.77	1263.89
397.97	1273.25
398.16	1228.78
398.35	1277.93
398.55	1256.87
398.74	1249.85
398.93	1439.43
399.12	1306.02
399.32	1364.53
399.51	1287.29
399.70	1411.34
399.90	1413.68
400.09	1296.66
400.28	1439.43
400.47	1317.72
400.67	1362.19
400.86	1411.34
401.05	1434.75
401.24	1472.20
401.44	1516.67
401.63	1563.48
401.82	1488.58
402.01	1521.35
402.21	1549.43
402.40	1551.78
402.59	1516.67
402.78	1526.03
402.97	1577.52
403.17	1523.69
403.36	1568.16
403.55	1547.09
403.74	1563.48
403.93	1703.91
404.13	1549.43
404.32	1685.19
404.51	1547.09
404.70	1734.34
404.89	1710.93
405.09	1724.97
405.28	1734.34
405.47	1720.29
405.66	1767.10
405.85	1769.44
406.05	1703.91
406.24	1776.47
406.43	1825.62
406.62	1900.52
406.81	1797.53
407.00	1837.32
407.20	1851.36
407.39	1905.20
407.58	1961.37
407.77	1975.41
407.96	1989.46
408.15	1989.46
408.34	1865.41
408.54	2022.22
408.73	2012.86
408.92	1970.73
409.11	1989.46
409.30	2143.93
409.49	2015.20
409.68	2026.90
409.87	1989.46
410.07	2057.33
410.26	2176.70
410.45	2078.40
410.64	2097.12
410.83	2218.83
411.02	2211.81
411.21	2258.62
411.40	2291.38
411.59	2246.91
411.78	2293.72
411.98	2324.15
412.17	2359.26
412.36	2361.60
412.55	2396.71
412.74	2368.62
412.93	2396.71
413.12	2389.69
413.31	2569.91
413.50	2450.54
413.69	2637.78
413.88	2682.25
414.07	2576.93
414.26	2595.65
414.45	2595.65
414.64	2623.74
414.83	2633.10
415.02	2640.12
415.22	2822.69
415.41	2768.85
415.60	2717.36
415.79	2834.39
415.98	2913.97
416.17	2839.07
416.36	2857.79
416.55	2925.67
416.74	2991.20
416.93	2853.11
417.12	2981.84
417.31	2874.18
417.50	3012.27
417.69	3148.02
417.88	3176.11
418.07	3091.85
418.26	3012.27
418.45	3169.09
418.64	3180.79
418.83	3218.24
419.02	3108.23
419.21	3330.58
419.39	3332.92
419.58	3248.66
419.77	3026.31
419.96	3211.22
420.15	3321.22
420.34	3239.30
420.53	3389.10
420.72	3353.99
420.91	3400.80
421.10	3339.94
421.29	3405.48
421.48	3412.50
421.67	3351.65
421.86	3372.71
422.05	3339.94
422.24	3330.58
422.43	3386.76
422.61	3482.72
422.80	3562.30
422.99	3583.36
423.18	3534.21
423.37	3632.51
423.56	3566.98
423.75	3588.04
423.94	3407.82
424.13	3262.71
424.32	3522.51
424.50	3562.30
424.69	3489.74
424.88	3538.89
425.07	3382.07
425.26	3545.91
425.45	3494.42
425.64	3571.66
425.83	3548.25
426.01	3623.15
426.20	3559.95
426.39	3707.41
426.58	3506.12
426.77	3676.98
426.96	3520.17
427.15	3585.70
427.33	3641.87
427.52	3779.97
427.71	3651.24
427.90	3702.73
428.09	3840.82
428.28	3648.90
428.46	3698.05
428.65	3815.07
428.84	4056.15
429.03	3988.27
429.22	3754.22
429.40	3758.90
429.59	3723.79
429.78	3604.42
429.97	3639.53
430.16	3791.67
430.34	3749.54
430.53	3791.67
430.72	3995.29
430.91	3939.12
431.10	3953.16
431.28	4133.39
431.47	4067.85
431.66	4184.88
431.85	4131.05
432.03	4081.89
432.22	4290.20
432.41	4166.15
432.60	4140.41
432.79	4266.80
432.97	4355.74
433.16	4212.96
433.35	4273.82
433.54	4297.22
433.72	4287.86
433.91	4351.06
434.10	4325.31
434.28	4402.55
434.47	4388.50
434.66	4507.87
434.85	4468.08
435.03	4596.81
435.22	4498.51
435.41	4554.68
435.59	4477.44
435.78	4449.36
435.97	4793.42
436.16	4458.72
436.34	4585.11
436.53	4655.33
436.72	4798.10
436.90	4587.45
437.09	4669.37
437.28	4727.88
437.46	4634.26
437.65	4744.27
437.84	4805.12
438.02	4746.61
438.21	4746.61
438.40	4528.94
438.58	4978.32
438.77	4919.81
438.96	4997.04
439.14	5001.72
439.33	5085.98
439.52	5146.84
439.70	5125.77
439.89	5123.43
440.08	5188.97
440.26	5184.29
440.45	5177.26
440.63	5327.06
440.82	5252.16
441.01	5282.59
441.19	5434.72
441.38	5500.26
441.57	5502.60
441.75	5465.15
441.94	5624.31
442.12	5673.46
442.31	5657.07
442.50	5792.83
442.68	5633.67
442.87	5652.39
443.05	5516.64
443.24	5837.30
443.43	5783.46
443.61	5813.89
443.80	6113.48
443.98	5935.60
444.17	5624.31
444.35	5977.73
444.54	5902.83
444.73	5783.46
444.91	5774.10
445.10	5961.34
445.28	5926.24
445.47	5797.51
445.65	5839.64
445.84	5799.85
446.02	6090.07
446.21	5830.27
446.39	5942.62
446.58	6054.97
446.77	5907.51
446.95	5942.62
447.14	6134.54
447.32	5996.45
447.51	5968.37
447.69	6078.37
447.88	6001.13
448.06	6120.50
448.25	6064.33
448.43	6073.69
448.62	6111.14
448.80	6179.01
448.99	5998.79
449.17	6059.65
449.36	6139.23
449.54	6392.00
449.73	6345.19
449.91	6485.62
450.10	6448.18
450.28	6509.03
450.46	6370.94
450.65	6375.62
450.83	6504.35
451.02	6429.45
451.20	6448.18
451.39	6633.08
451.57	6672.87
451.76	6380.30
451.94	6490.31
452.13	6668.19
452.31	6499.67
452.49	6324.13
452.68	6649.46
452.86	6544.14
453.05	6731.38
453.23	6520.73
453.42	6548.82
453.60	6715.00
453.78	6736.06
453.97	6523.07
454.15	6628.40
454.34	6644.78
454.52	6782.87
454.70	6649.46
454.89	6754.79
455.07	6939.69
455.26	6810.96
455.44	6913.94
455.62	6984.16
455.81	6796.92
455.99	7059.06
456.17	7040.33
456.36	6958.41
456.54	7075.44
456.73	7194.81
456.91	7382.05
457.09	7215.87
457.28	7424.18
457.46	7321.20
457.64	7349.28
457.83	7382.05
458.01	7173.74
458.19	7463.97
458.38	7414.82
458.56	7524.82
458.74	7501.42
458.93	7410.14
459.11	7470.99
459.29	7527.16
459.48	7620.78
459.66	7536.52
459.84	7672.28
460.03	7585.68
460.21	7695.68
460.39	7585.68
460.57	7756.54
460.76	7548.23
460.94	7831.43
461.12	7742.49
461.31	7733.13
461.49	7735.47
461.67	7803.35
461.85	8037.40
462.04	7941.44
462.22	8166.13
462.40	7857.18
462.59	7934.42
462.77	8119.32
462.95	8095.91
463.13	8088.89
463.32	8093.57
463.50	8105.28
463.68	8102.93
463.86	8095.91
464.05	7976.55
464.23	8142.72
464.41	8262.09
464.59	7992.93
464.78	8278.47
464.96	8283.16
465.14	8140.38
465.32	8280.82
465.50	8390.82
465.69	8280.82
465.87	8290.18
466.05	8397.84
466.23	8351.03
466.41	8446.99
466.60	8528.91
466.78	8564.02
466.96	8507.85
467.14	8374.44
467.32	8587.43
467.51	8659.98
467.69	8327.63
467.87	8454.02
468.05	8587.43
468.23	8685.73
468.41	8533.59
468.60	8725.52
468.78	8720.84
468.96	8580.40
469.14	8709.13
469.32	9057.87
469.50	8777.01
469.69	8898.72
469.87	8912.76
470.05	9043.83
470.23	8975.95
470.41	8947.87
470.59	9071.92
470.77	8987.66
470.95	9067.24
471.14	9135.11
471.32	9088.30
471.50	9238.09
471.68	9446.40
471.86	9305.97
472.04	9554.07
472.22	9535.34
472.40	9437.04
472.58	9561.09
472.77	9792.80
472.95	9605.56
473.13	10033.88
473.31	9570.45
473.49	9624.28
473.67	9525.98
473.85	9638.33
474.03	10050.26
474.21	9909.83
474.39	10157.92
474.57	9783.44
474.75	10239.84
474.93	10420.06
475.12	10279.63
475.30	10068.98
475.48	10317.08
475.66	10113.45
475.84	10160.27
476.02	10509.01
476.20	10298.36
476.38	10548.79
476.56	10757.10
476.74	10663.48
476.92	10696.25
477.10	10916.26
477.28	10853.06
477.46	10874.13
477.64	11218.19
477.82	11290.74
478.00	11562.25
478.18	11377.34
478.36	11346.92
478.54	11468.62
478.72	11705.02
478.90	11941.41
479.08	11896.94
479.26	12046.74
479.44	11831.41
479.62	11943.75
479.80	12224.62
479.98	12283.13
480.16	12564.00
480.34	12257.39
480.52	12540.59
480.70	12409.52
480.88	12264.41
481.06	12582.72
481.24	12823.80
481.41	13057.85
481.59	13041.46
481.77	13291.90
481.95	13256.79
482.13	13209.98
482.31	13355.10
482.49	13579.79
482.67	13624.26
482.85	13488.51
483.03	14022.15
483.21	13778.73
483.39	13984.70
483.57	13912.14
483.74	14441.11
483.92	14455.15
484.10	14157.90
484.28	14508.98
484.46	14445.79
484.64	14822.61
484.82	14799.21
485.00	14953.68
485.18	14920.92
485.35	15234.55
485.53	15070.71
485.71	15023.90
485.89	15257.95
486.07	15300.08
486.25	15627.76
486.43	15426.47
486.61	15789.25
486.78	15784.57
486.96	15948.41
487.14	16294.81
487.32	16327.58
487.50	16353.32
487.68	16685.68
487.85	16767.60
488.03	16823.77
488.21	16884.62
488.39	16833.13
488.57	17406.56
488.75	17357.41
488.92	17577.42
489.10	17767.01
489.28	17734.24
489.46	18050.21
489.64	18178.94
489.81	18511.30
489.99	18471.51
490.17	18387.25
490.35	18562.79
490.53	19000.47
490.70	18941.96
490.88	18759.39
491.06	19091.75
491.24	19124.52
491.41	19066.00
491.59	19412.40
491.77	19056.64
491.95	19239.20
492.13	19644.12
492.30	20163.72
492.48	20088.82
492.66	20056.05
492.84	19747.10
493.01	20325.21
493.19	20463.30
493.37	20559.27
493.54	20622.46
493.72	20861.19
493.90	20774.60
494.08	21099.93
494.25	21280.15
494.43	21317.60
494.61	21518.89
494.79	21591.44
494.96	21998.70
495.14	21902.73
495.32	21827.84
495.49	21813.79
495.67	21848.90
495.85	22017.42
496.02	22150.83
496.20	22459.78
496.38	22572.13
496.55	22691.49
496.73	23080.02
496.91	23105.77
497.09	22834.27
497.26	23274.29
497.44	23211.09
497.62	22986.40
497.79	23674.52
497.97	23241.52
498.14	23880.49
498.32	23936.66
498.50	23892.19
498.67	23971.77
498.85	23953.04
499.03	24194.12
499.20	24374.34
499.38	23974.11
499.56	24474.98
499.73	24706.70
499.91	24341.57
500.08	24760.53
500.26	24341.57
500.44	24517.11
500.61	25043.73
500.79	24379.02
500.97	24884.58
501.14	25310.55
501.32	25083.52
501.49	25167.78
501.67	25151.40
501.84	25553.97
502.02	25652.27
502.20	25467.37
502.37	26012.71
502.55	25659.29
502.72	25879.30
502.90	25975.27
503.07	26188.25
503.25	25816.11
503.43	26316.98
503.60	26211.66
503.78	26150.81
503.95	26066.55
504.13	26485.50
504.30	26567.42
504.48	26562.74
504.65	27023.83
504.83	27225.11
505.01	26754.66
505.18	26740.62
505.36	27391.29
505.53	27601.94
505.71	27585.55
505.88	27271.92
506.06	27379.59
506.23	28009.19
506.41	27583.21
506.58	27690.88
506.76	27742.37
506.93	27793.86
507.11	28016.21
507.28	27580.87
507.46	27838.33
507.63	27894.50
507.81	27988.13
507.98	28268.99
508.16	28311.12
508.33	28222.18
508.50	28486.66
508.68	28819.02
508.85	28912.64
509.03	29106.90
509.20	29022.64
509.38	28950.09
509.55	29095.20
509.73	28898.59
509.90	29109.24
510.08	29039.03
510.25	29184.14
510.42	29163.08
510.60	29687.36
510.77	29319.89
510.95	29521.18
511.12	29869.92
511.30	29837.15
511.47	30019.71
511.64	30401.22
511.82	30328.66
511.99	29823.11
512.17	29944.81
512.34	30092.27
512.51	30703.15
512.69	30665.70
512.86	30487.82
513.04	30871.67
513.21	30274.83
513.38	30504.20
513.56	30686.76
513.73	30352.07
513.90	30782.73
514.08	31173.60
514.25	31360.84
514.43	31227.43
514.60	30836.56
514.77	31023.80
514.95	31646.38
515.12	31283.60
515.29	31819.58
515.47	31597.23
515.64	32081.72
515.81	31388.92
515.99	31531.70
516.16	31583.19
516.33	31821.92
516.51	32458.55
516.68	31431.05
516.85	31814.90
517.03	31730.64
517.20	32088.74
517.37	31971.72
517.54	32355.57
517.72	32350.88
517.89	31859.37
518.06	32151.94
518.24	32154.28
518.41	32247.90
518.58	32348.54
518.75	32416.42
518.93	32463.23
519.10	32690.26
519.27	32973.47
519.45	32666.86
519.62	33060.07
519.79	32905.59
519.96	33228.59
520.14	33549.24
520.31	33090.49
520.48	33186.46
520.65	33247.31
520.83	33713.08
521.00	33792.65
521.17	33682.65
521.34	33867.55
521.52	33979.90
521.69	34015.01
521.86	33804.36
522.03	34281.83
522.20	34143.74
522.38	34197.57
522.55	34199.91
522.72	34129.69
522.89	34202.25
523.07	34370.77
523.24	34338.00
523.41	34560.35
523.58	34190.55
523.75	34848.24
523.92	34834.19
524.10	34948.88
524.27	35070.59
524.44	35054.20
524.61	35089.31
524.78	35278.89
524.96	35377.20
525.13	35365.49
525.30	35388.90
525.47	35646.36
525.64	35585.50
525.81	35777.43
525.98	35295.28
526.16	35658.06
526.33	35248.47
526.50	35807.86
526.67	35318.68
526.84	35260.17
527.01	34911.43
527.18	36123.83
527.36	36044.25
527.53	36355.54
527.70	36453.84
527.87	36240.86
528.04	36243.20
528.21	36226.81
528.38	36002.12
528.55	36559.17
528.72	36566.19
528.89	36701.94
529.07	36238.51
529.24	36353.20
529.41	36786.20
529.58	36512.36
529.75	36439.80
529.92	36940.68
530.09	36503.00
530.26	36797.90
530.43	37399.42
530.60	36503.00
530.77	37097.49
530.94	37062.38
531.11	36889.18
531.28	37120.90
531.46	37109.19
531.63	36683.22
531.80	37134.94
531.97	36811.95
532.14	37013.23
532.31	37258.99
532.48	37748.16
532.65	37614.75
532.82	37544.53
532.99	37862.85
533.16	37397.08
533.33	37794.97
533.50	37876.89
533.67	37633.47
533.84	37762.20
534.01	38155.41
534.18	37949.45
534.35	38251.38
534.52	38211.59
534.69	38029.02
534.86	37776.25
535.03	37919.02
535.20	38323.93
535.37	38745.23
535.54	38543.94
535.71	38389.47
535.88	38529.90
536.05	38579.05
536.22	39084.61
536.38	38511.17
536.55	38281.80
536.72	38693.74
536.89	38403.51
537.06	38314.57
537.23	38735.87
537.40	38843.53
537.57	38485.43
537.74	38965.24
537.91	39398.24
538.08	39009.71
538.25	38857.57
538.42	38850.55
538.59	39103.33
538.75	38799.06
538.92	39524.63
539.09	39407.60
539.26	39150.14
539.43	39313.98
539.60	39484.84
539.77	39222.70
539.94	39178.23
540.11	39295.25
540.28	39529.31
540.44	39573.78
540.61	39206.31
540.78	39482.50
540.95	39091.63
541.12	39292.91
541.29	39360.79
541.46	39819.53
541.62	39807.83
541.79	39580.80
541.96	39739.96
542.13	39896.77
542.30	39665.06
542.47	40215.08
542.63	39929.54
542.80	39922.52
542.97	40254.87
543.14	40685.53
543.31	40224.45
543.48	40542.76
543.64	40940.65
543.81	40418.71
543.98	40692.55
544.15	40563.82
544.32	40884.48
544.48	40978.10
544.65	40814.26
544.82	40795.54
544.99	40732.34
545.16	40692.55
545.32	40985.12
545.49	41034.27
545.66	41380.67
545.83	41354.93
546.00	41420.46
546.16	41130.23
546.33	41219.17
546.50	41174.70
546.67	41038.95
546.83	40643.40
547.00	41483.66
547.17	41193.43
547.34	41490.68
547.50	41696.64
547.67	41359.61
547.84	41081.08
548.00	41500.04
548.17	41944.74
548.34	41633.45
548.51	41617.07
548.67	42036.02
548.84	41706.01
549.01	41610.04
549.18	41841.76
549.34	41888.57
549.51	42281.78
549.68	42197.52
549.84	41794.95
550.01	41453.23
550.18	41869.84
550.34	41926.02
550.51	42415.19
550.68	42169.43
550.84	41801.97
551.01	41984.53
551.18	41806.65
551.34	42209.22
551.51	41806.65
551.68	42169.43
551.84	42733.50
552.01	42108.58
552.18	42351.99
552.34	42244.33
552.51	42270.08
552.68	41844.10
552.84	42941.81
553.01	42564.98
553.18	42450.30
553.34	42560.30
553.51	42064.11
553.67	42085.17
553.84	42796.70
554.01	42976.92
554.17	42855.21
554.34	43044.79
554.51	42377.74
554.67	43084.58
554.84	42433.91
555.00	42478.38
555.17	42527.53
555.33	42913.72
555.50	42522.85
555.67	43028.41
555.83	42815.42
556.00	42871.59
556.16	43182.88
556.33	42869.25
556.50	42981.60
556.66	43133.73
556.83	42726.48
556.99	43171.18
557.16	43412.26
557.32	43360.76
557.49	43463.75
557.65	42784.99
557.82	43154.80
557.98	43117.35
558.15	43278.85
558.32	43395.87
558.48	43491.83
558.65	43040.11
558.81	42796.70
558.98	43168.84
559.14	43070.54
559.31	43084.58
559.47	43330.34
559.64	43346.72
559.80	43419.28
559.97	43217.99
560.13	43395.87
560.30	43037.77
560.46	43531.62
560.63	43264.80
560.79	43594.82
560.96	43349.06
561.12	43636.95
561.29	43573.75
561.45	43618.22
561.61	43697.80
561.78	43562.05
561.94	43482.47
562.11	43576.09
562.27	43672.06
562.44	43653.33
562.60	43524.60
562.77	43697.80
562.93	43508.22
563.10	43768.02
563.26	43632.27
563.42	43922.49
563.59	43585.46
563.75	43498.86
563.92	43814.83
564.08	43798.44
564.24	43789.08
564.41	43749.29
564.57	43868.66
564.74	44044.20
564.90	43758.66
565.07	43732.91
565.23	43716.53
565.39	43800.79
565.56	44039.52
565.72	43543.33
565.88	44201.02
566.05	43721.21
566.21	43761.00
566.38	43744.61
566.54	43732.91
566.70	44041.86
566.87	44488.90
567.03	43739.93
567.19	44964.03
567.36	44208.04
567.52	43753.97
567.68	43789.08
567.85	43709.50
568.01	43997.39
568.17	43852.28
568.34	44421.03
568.50	44093.35
568.66	43796.10
568.83	44076.97
568.99	43746.95
569.15	43861.64
569.32	44147.18
569.48	44069.95
569.64	44252.51
569.81	44098.03
569.97	44435.07
570.13	43906.11
570.30	43791.42
570.46	43981.01
570.62	44332.09
570.78	43718.87
570.95	44065.27
571.11	44229.10
571.27	44341.45
571.43	44172.93
571.60	44177.61
571.76	43957.60
571.92	44208.04
572.09	44348.47
572.25	44037.18
572.41	44083.99
572.57	44540.39
572.74	44547.42
572.90	44516.99
573.06	44287.62
573.22	44652.74
573.38	44280.60
573.55	44226.76
573.71	44184.63
573.87	43744.61
574.03	44584.86
574.20	43941.22
574.36	43999.73
574.52	44168.25
574.68	44439.75
574.84	44727.64
575.01	45006.16
575.17	44088.67
575.33	44437.41
575.49	44203.36
575.65	44762.75
575.82	44678.49
575.98	43796.10
576.14	44456.14
576.30	44509.97
576.46	44130.80
576.62	44563.80
576.79	44222.08
576.95	44147.18
577.11	44493.58
577.27	44282.94
577.43	44491.24
577.59	44498.26
577.75	44158.89
577.92	43903.77
578.08	44100.37
578.24	44161.23
578.40	44458.48
578.56	44343.79
578.72	44577.84
578.88	44919.56
579.04	44556.78
579.21	44505.29
579.37	44362.51
579.53	44704.23
579.69	44505.29
579.85	44311.02
580.01	44598.91
580.17	44350.81
580.33	45097.44
580.49	44671.46
580.65	44685.51
580.82	44645.72
580.98	44439.75
581.14	44392.94
581.30	44907.86
581.46	44727.64
581.62	44816.58
581.78	44215.06
581.94	45015.52
582.10	44460.82
582.26	44851.69
582.42	44362.51
582.58	44428.05
582.74	44486.56
582.90	44601.25
583.06	45205.11
583.22	44531.03
583.38	44807.22
583.54	45092.76
583.70	44755.72
583.86	44877.43
584.02	44369.54
584.18	44275.91
584.34	44505.29
584.50	44371.88
584.66	44418.69
584.82	44444.43
584.98	45078.72
585.14	44722.96
585.30	44673.81
585.46	44486.56
585.62	44315.70
585.78	44575.50
585.94	44144.84
586.10	44421.03
586.26	44287.62
586.42	44811.90
586.58	44985.10
586.74	44617.63
586.90	44608.27
587.06	44821.26
587.22	44542.74
587.38	44507.63
587.54	44985.10
587.70	44854.03
587.86	44844.66
588.02	44622.31
588.18	44896.16
588.34	44470.18
588.49	44718.28
588.65	43910.79
588.81	44151.87
588.97	44725.30
589.13	44416.35
589.29	44704.23
589.45	44306.34
589.61	44589.55
589.77	44875.09
589.93	44711.25
590.08	44732.32
590.24	44835.30
590.40	44877.43
590.56	45125.53
590.72	44875.09
590.88	44341.45
591.04	44839.98
591.20	45436.82
591.35	45333.84
591.51	45537.46
591.67	44680.83
591.83	44999.14
591.99	44648.06
592.15	45036.59
592.31	45364.26
592.46	44893.82
592.62	44865.73
592.78	44882.11
592.94	45317.45
593.10	44968.71
593.26	44935.95
593.41	45106.80
593.57	44823.60
593.73	45160.64
593.89	44847.00
594.05	44823.60
594.20	44584.86
594.36	45563.21
594.52	44992.12
594.68	45123.19
594.84	45013.18
594.99	45265.96
595.15	45125.53
595.31	45052.97
595.47	44966.37
595.62	45170.00
595.78	44940.63
595.94	45219.15
596.10	45322.13
596.25	44975.73
596.41	45336.18
596.57	45280.00
596.73	45422.78
596.88	44367.20
597.04	45050.63
597.20	45448.52
597.36	45052.97
597.51	45041.27
597.67	45242.56
597.83	44933.60
597.99	45003.82
598.14	45214.47
598.30	44591.89
598.46	44463.16
598.61	45139.57
598.77	44690.19
598.93	44861.05
599.09	44900.84
599.24	45521.08
599.40	45289.37
599.56	45041.27
599.71	45111.49
599.87	45263.62
600.03	44987.44
600.18	45375.97
600.34	45188.72
600.50	44938.29
600.65	45036.59
600.81	44921.90
600.97	45420.44
601.12	45317.45
601.28	45153.62
601.44	44612.95
601.59	44905.52
601.75	44662.10
601.91	44584.86
602.06	44980.42
602.22	44940.63
602.37	44905.52
602.53	44898.50
602.69	44774.45
602.84	44942.97
603.00	45233.19
603.16	44814.24
603.31	45219.15
603.47	44648.06
603.62	44978.07
603.78	45310.43
603.94	44839.98
604.09	45172.34
604.25	45455.54
604.40	45364.26
604.56	45441.50
604.71	45092.76
604.87	44514.65
605.03	44886.79
605.18	44694.87
605.34	44947.65
605.49	44713.59
605.65	44655.08
605.80	44957.01
605.96	44811.90
606.12	45099.78
606.27	45303.41
606.43	44779.13
606.58	44912.54
606.74	44863.39
606.89	45282.34
607.05	44758.06
607.20	45099.78
607.36	44664.44
607.51	44659.76
607.67	44802.53
607.82	44896.16
607.98	44610.61
608.13	44919.56
608.29	44404.64
608.44	44404.64
608.60	44648.06
608.75	44423.37
608.91	44240.81
609.06	44245.49
609.22	44746.36
609.37	44535.71
609.53	44802.53
609.68	44601.25
609.84	44229.10
609.99	44278.25
610.15	44367.20
610.30	44360.17
610.46	43854.62
610.61	44460.82
610.76	44418.69
610.92	44196.34
611.07	44711.25
611.23	44477.20
611.38	44453.79
611.54	44549.76
611.69	44060.58
611.84	44397.62
612.00	44369.54
612.15	44051.22
612.31	44502.95
612.46	44292.30
612.62	44498.26
612.77	44163.57
612.92	44622.31
613.08	44088.67
613.23	44030.16
613.39	44158.89
613.54	43936.54
613.69	44395.28
613.85	44212.72
614.00	43868.66
614.15	44430.39
614.31	44306.34
614.46	44203.36
614.62	44311.02
614.77	44076.97
614.92	43938.88
615.08	43798.44
615.23	43955.26
615.38	44158.89
615.54	43688.44
615.69	43718.87
615.84	43646.31
616.00	43826.53
616.15	43775.04
616.30	43697.80
616.46	43519.92
616.61	43332.68
616.76	43831.21
616.92	43047.13
617.07	43138.41
617.22	43409.92
617.37	43672.06
617.53	43372.47
617.68	43756.32
617.83	43798.44
617.99	43386.51
618.14	43578.43
618.29	43063.52
618.45	43107.99
618.60	43728.23
618.75	43557.37
618.90	43435.66
619.06	43536.30
619.21	43779.72
619.36	43601.84
619.51	43613.54
619.67	43318.64
619.82	43676.74
619.97	43735.25
620.12	43171.18
620.28	42902.02
620.43	43063.52
620.58	42941.81
620.73	43440.34
620.89	42955.85
621.04	43070.54
621.19	43332.68
621.34	42937.13
621.49	42562.64
621.65	42536.90
621.80	43152.46
621.95	42609.45
622.10	42923.08
622.25	42462.00
622.41	42501.79
622.56	42909.04
622.71	42679.67
622.86	42607.11
623.01	42616.47
623.16	42759.25
623.32	42892.66
623.47	42600.09
623.62	42438.59
623.77	42260.71
623.92	42883.30
624.07	42691.37
624.23	42213.90
624.38	42518.17
624.53	42436.25
624.68	42410.51
624.83	42466.68
624.98	42326.25
625.13	42244.33
625.29	41982.19
625.44	42452.64
625.59	42192.84
625.74	41825.37
625.89	41839.42
626.04	42096.88
626.19	42487.74
626.34	42246.67
626.49	42174.11
626.65	42274.76
626.80	42337.95
626.95	41921.34
627.10	41666.22
627.25	41603.02
627.40	41855.80
627.55	41773.88
627.70	41481.31
627.85	41434.50
628.00	41380.67
628.15	42007.94
628.30	41696.64
628.45	41724.73
628.60	41874.52
628.76	41551.53
628.91	41935.38
629.06	41574.94
629.21	41684.94
629.36	41476.63
629.51	41486.00
629.66	41600.68
629.81	41544.51
629.96	41432.16
630.11	41853.46
630.26	41607.70
630.41	41406.42
630.56	41338.54
630.71	41694.30
630.86	41322.16
631.01	41436.84
631.16	41120.87
631.31	41345.56
631.46	40779.15
631.61	41022.57
631.76	41469.61
631.91	41237.90
632.06	41315.14
632.21	41626.43
632.36	41486.00
632.51	41031.93
632.66	41001.50
632.81	40666.81
632.96	40699.58
633.10	40748.73
633.25	41095.13
633.40	40648.08
633.55	41441.53
633.70	40931.29
633.85	41062.36
634.00	41132.57
634.15	40395.31
634.30	40465.52
634.45	40910.22
634.60	40636.38
634.75	40631.70
634.90	40926.61
635.05	40437.44
635.19	40339.13
635.34	40746.39
635.49	40364.88
635.64	40350.84
635.79	40341.47
635.94	40708.94
636.09	40313.39
636.24	39938.90
636.39	39786.77
636.53	40088.70
636.68	40259.55
636.83	40280.62
636.98	40172.96
637.13	39772.72
637.28	40201.04
637.43	40196.36
637.57	40627.02
637.72	39833.58
637.87	39962.31
638.02	40130.83
638.17	40392.97
638.32	39995.07
638.46	40046.57
638.61	39894.43
638.76	39931.88
638.91	40320.41
639.06	39828.90
639.20	40121.46
639.35	40229.13
639.50	39948.26
639.65	39924.86
639.80	39793.79
639.94	40009.12
640.09	39917.84
640.24	40011.46
640.39	39529.31
640.54	39154.82
640.68	39660.38
640.83	39679.10
640.98	39199.29
641.13	39171.21
641.27	39723.57
641.42	39264.83
641.57	39145.46
641.72	39573.78
641.86	39138.44
642.01	38726.50
642.16	38934.81
642.31	39033.11
642.45	39349.09
642.60	39122.05
642.75	39269.51
642.90	39271.85
643.04	39302.28
643.19	38883.32
643.34	39658.04
643.48	38162.43
643.63	39344.41
643.78	38541.60
643.93	39023.75
644.07	39014.39
644.22	38539.26
644.37	38485.43
644.51	39042.48
644.66	39201.63
644.81	39161.84
644.95	39072.90
645.10	39285.89
645.25	39264.83
645.39	38822.47
645.54	39075.24
645.69	38892.68
645.83	38497.13
645.98	38721.82
646.13	38895.02
646.27	38866.94
646.42	38717.14
646.57	38653.95
646.71	38749.91
646.86	38714.80
647.00	38857.57
647.15	38625.86
647.30	38745.23
647.44	38225.63
647.59	38422.23
647.74	37888.59
647.88	38342.66
648.03	38569.69
648.17	38951.20
648.32	38096.90
648.47	37930.72
648.61	38265.42
648.76	38679.69
648.90	38340.32
649.05	38660.97
649.20	38092.22
649.34	38513.52
649.49	38036.05
649.63	38113.28
649.78	37607.73
649.92	38279.46
650.07	38206.90
650.21	37394.74
650.36	38080.52
650.51	38134.35
650.65	38291.16
650.80	38293.50
650.94	38377.76
651.09	38199.88
651.23	37663.90
651.38	37923.70
651.52	37565.60
651.67	37886.25
651.81	37371.33
651.96	37493.04
652.10	37151.32
652.25	37479.00
652.39	37397.08
652.54	37928.38
652.68	37858.17
652.83	37677.94
652.97	37710.71
653.12	37390.06
653.26	37589.00
653.41	37202.82
653.55	37113.87
653.70	37378.36
653.84	37333.89
653.99	37783.27
654.13	37340.91
654.27	37207.50
654.42	37366.65
654.56	36896.20
654.71	37205.16
654.85	37319.84
655.00	37495.38
655.14	37216.86
655.29	37029.62
655.43	37120.90
655.57	37148.98
655.72	37263.67
655.86	36594.28
656.01	36575.55
656.15	36708.96
656.30	36561.51
656.44	36711.30
656.58	37013.23
656.73	36910.25
656.87	36783.86
657.01	36449.16
657.16	36685.56
657.30	36678.54
657.45	36327.45
657.59	36720.66
657.73	36535.76
657.88	36985.15
658.02	36980.46
658.16	36982.80
658.31	36634.06
658.45	36615.34
658.60	36116.81
658.74	36725.35
658.88	36573.21
659.03	36493.63
659.17	36238.51
659.31	36392.99
659.46	36297.03
659.60	36671.51
659.74	36294.69
659.89	36105.10
660.03	36032.55
660.17	35917.86
660.32	36180.00
660.46	36030.21
660.60	36203.41
660.74	35857.01
660.89	35882.75
661.03	35473.16
661.17	35681.47
661.32	34981.65
661.46	35360.81
661.60	35775.09
661.74	35564.44
661.89	35569.12
662.03	35524.65
662.17	35428.69
662.31	35124.42
662.46	35526.99
662.60	35456.78
662.74	35285.92
662.88	35093.99
663.03	35023.78
663.17	35143.14
663.31	34939.52
663.45	35119.74
663.60	35304.64
663.74	34824.83
663.88	34686.74
664.02	34904.41
664.17	34951.22
664.31	34817.81
664.45	34565.03
664.59	34483.11
664.73	33986.92
664.88	35152.51
665.02	34408.22
665.16	34731.21
665.30	34115.65
665.44	34033.73
665.59	34150.76
665.73	34284.17
665.87	34242.04
666.01	34242.04
666.15	34073.52
666.29	34314.59
666.44	34445.66
666.58	34160.12
666.72	33935.43
666.86	34036.07
667.00	34113.31
667.14	33607.75
667.28	33436.89
667.43	33455.62
667.57	33479.02
667.71	33570.30
667.85	33460.30
667.99	33443.91
668.13	33394.76
668.27	32889.21
668.41	33607.75
668.56	33193.48
668.70	33212.20
668.84	33188.80
668.98	32910.27
669.12	32818.99
669.26	32826.01
669.40	32577.92
669.54	32669.20
669.68	32690.26
669.82	32896.23
669.96	32554.51
670.10	32680.90
670.25	32510.04
670.39	32524.08
670.53	32521.74
670.67	32329.82
670.81	32765.16
670.95	32311.10
671.09	32554.51
671.23	32470.25
671.37	32173.00
671.51	32231.52
671.65	31978.74
671.79	31817.24
671.93	32051.30
672.07	32442.17
672.21	31850.01
672.35	31644.04
672.49	31428.71
672.63	31718.94
672.77	31627.66
672.91	31599.57
673.05	31751.71
673.19	31543.40
673.33	31208.70
673.47	31351.48
673.61	30969.97
673.75	31119.76
673.89	30897.41
674.03	30665.70
674.17	30602.50
674.31	30909.11
674.45	30604.84
674.59	30789.75
674.73	30885.71
674.87	30899.75
675.01	30473.78
675.15	30642.29
675.29	30569.74
675.43	30274.83
675.56	30005.67
675.70	29631.18
675.84	30064.18
675.98	29502.45
676.12	30204.61
676.26	29755.23
676.40	29806.72
676.54	29778.64
676.68	29780.98
676.82	29369.04
676.96	29729.48
677.10	29291.80
677.23	29443.94
677.37	29474.37
677.51	28821.36
677.65	28943.06
677.79	28610.71
677.93	29111.58
678.07	28442.19
678.21	28229.20
678.34	28095.79
678.48	27988.13
678.62	28044.30
678.76	28320.48
678.90	27828.97
679.04	27833.65
679.18	27807.90
679.31	27704.92
679.45	27857.06
679.59	27311.71
679.73	27103.40
679.87	27407.67
680.00	27454.48
680.14	27412.35
680.28	27065.96
680.42	26988.72
680.56	27459.16
680.70	27454.48
680.83	27058.93
680.97	27124.47
681.11	26927.86
681.25	26347.41
681.39	26583.80
681.52	26953.61
681.66	26609.55
681.80	26501.89
681.94	26328.69
682.07	26747.64
682.21	26375.50
682.35	26307.62
682.49	26309.96
682.62	25940.16
682.76	25996.33
682.90	25764.62
683.04	25902.71
683.17	25766.96
683.31	25462.69
683.45	25268.42
683.59	25532.90
683.72	25254.38
683.86	25135.01
684.00	25135.01
684.13	25680.36
684.27	24992.24
684.41	24980.54
684.55	24943.09
684.68	24783.93
684.82	24650.52
684.96	24723.08
685.09	24694.99
685.23	24388.38
685.37	24343.91
685.50	24858.83
685.64	24126.24
685.78	24079.43
685.91	23992.83
686.05	23662.82
686.19	23339.82
686.32	23346.84
686.46	23063.64
686.60	23262.58
686.73	23477.91
686.87	23157.26
687.01	23019.17
687.14	23122.15
687.28	22593.19
687.42	23030.87
687.55	22806.18
687.69	23311.74
687.82	22750.01
687.96	22604.89
688.10	22649.36
688.23	23051.94
688.37	22253.81
688.50	22223.39
688.64	22295.94
688.78	22209.34
688.91	22132.11
689.05	22164.87
689.18	22174.24
689.32	21645.27
689.46	21886.35
689.59	21888.69
689.73	21689.74
689.86	21593.78
690.00	21535.27
690.13	21394.84
690.27	20994.61
690.41	21282.49
690.54	20886.94
690.68	21013.33
690.81	20938.43
690.95	20898.64
691.08	20833.11
691.22	20538.20
691.35	20823.75
691.49	20744.17
691.62	20952.48
691.76	20404.79
691.89	20383.73
692.03	20386.07
692.16	20496.07
692.30	20032.65
692.43	19829.02
692.57	20016.26
692.70	19950.73
692.84	20067.75
692.97	19829.02
693.11	19594.96
693.24	19744.76
693.38	19477.94
693.51	19389.00
693.65	19536.45
693.78	19499.00
693.92	19227.50
694.05	19133.88
694.19	19087.07
694.32	18981.74
694.45	18899.83
694.59	18815.57
694.72	18558.11
694.86	18724.29
694.99	18885.78
695.13	18429.38
695.26	18466.83
695.39	18218.73
695.53	18295.97
695.66	18616.62
695.80	18200.01
695.93	18263.20
696.07	18197.67
696.20	17813.82
696.33	18080.64
696.47	17961.27
696.60	17977.65
696.73	17834.88
696.87	17500.19
697.00	17570.40
697.14	17310.60
697.27	17603.17
697.40	17336.35
697.54	17291.88
697.67	17083.57
697.80	17167.83
697.94	16711.42
698.07	16975.91
698.21	16755.90
698.34	16762.92
698.47	16828.45
698.61	16327.58
698.74	16219.91
698.87	16332.26
699.01	16095.86
699.14	16290.13
699.27	16116.93
699.40	16201.19
699.54	16086.50
699.67	16046.71
699.80	15866.49
699.94	15557.54
700.07	15896.92
700.20	15367.96
700.34	15838.41
700.47	15740.10
700.60	15974.16
700.73	15754.15
700.87	15637.12
701.00	15611.37
701.13	15492.01
701.26	15286.04
701.40	15548.18
701.53	14991.13
701.66	14956.02
701.79	14843.68
701.93	14796.87
702.06	14965.39
702.19	14750.06
702.32	14761.76
702.46	14656.43
702.59	14485.58
702.72	14860.06
702.85	14511.32
702.99	14452.81
703.12	14698.56
703.25	14406.00
703.38	14036.19
703.51	13980.02
703.65	14249.18
703.78	14090.02
703.91	13755.33
704.04	14059.60
704.17	14001.08
704.31	13982.36
704.44	13659.37
704.57	13619.58
704.70	13715.54
704.83	13633.62
704.96	13724.90
705.10	13394.89
705.23	13504.89
>>>>>End Processed Spectral Data<<<<<
