SpectraSuite Data File
++++++++++++++++++++++++++++++++++++
Date: Fri Oct 25 10:48:17 EDT 2013
User: price-jones
Dark Spectrum Present: No
Reference Spectrum Present: No
Number of Sampled Component Spectra: 1
Spectrometers: USB2+H05261
Integration Time (usec): 100000 (USB2+H05261)
Spectra Averaged: 1 (USB2+H05261)
Boxcar Smoothing: 0 (USB2+H05261)
Correct for Electrical Dark: No (USB2+H05261)
Strobe/Lamp Enabled: No (USB2+H05261)
Correct for Detector Non-linearity: No (USB2+H05261)
Correct for Stray Light: No (USB2+H05261)
Number of Pixels in Processed Spectrum: 2048
>>>>>Begin Processed Spectral Data<<<<<
365.73	135.75
365.92	135.75
366.12	135.75
366.32	32.77
366.52	7.02
366.72	42.13
366.91	42.13
367.11	93.62
367.31	37.45
367.51	25.75
367.70	4.68
367.90	11.70
368.10	70.22
368.30	0.00
368.49	70.22
368.69	119.37
368.89	37.45
369.09	21.06
369.28	84.26
369.48	126.39
369.68	84.26
369.87	88.94
370.07	117.03
370.27	168.52
370.47	236.39
370.66	498.53
370.86	376.83
371.06	486.83
371.25	463.43
371.45	430.66
371.65	437.68
371.84	519.60
372.04	472.79
372.24	526.62
372.44	463.43
372.63	601.52
372.83	535.98
373.03	517.26
373.22	564.07
373.42	596.84
373.62	573.43
373.81	648.33
374.01	617.90
374.21	620.24
374.40	554.71
374.60	580.45
374.79	533.64
374.99	585.13
375.19	671.73
375.38	550.03
375.58	587.47
375.78	638.97
375.97	585.13
376.17	592.16
376.37	657.69
376.56	671.73
376.76	624.92
376.95	629.60
377.15	648.33
377.35	657.69
377.54	655.35
377.74	711.52
377.93	739.61
378.13	723.23
378.33	748.97
378.52	713.86
378.72	734.93
378.91	695.14
379.11	678.76
379.31	702.16
379.50	643.65
379.70	702.16
379.89	622.58
380.09	636.63
380.28	706.84
380.48	730.25
380.68	643.65
380.87	716.20
381.07	671.73
381.26	737.27
381.46	723.23
381.65	748.97
381.85	737.27
382.04	706.84
382.24	709.18
382.43	760.67
382.63	725.57
382.83	704.50
383.02	716.20
383.22	770.04
383.41	699.82
383.61	765.36
383.80	877.70
384.00	760.67
384.19	793.44
384.39	816.85
384.58	765.36
384.78	896.43
384.97	856.64
385.17	812.17
385.36	868.34
385.56	823.87
385.75	758.33
385.95	870.68
386.14	844.93
386.34	837.91
386.53	861.32
386.72	809.83
386.92	922.17
387.11	870.68
387.31	858.98
387.50	898.77
387.70	856.64
387.89	999.41
388.09	922.17
388.28	889.40
388.48	887.06
388.67	1022.81
388.86	940.90
389.06	912.81
389.25	997.07
389.45	990.05
389.64	1083.67
389.84	980.68
390.03	994.73
390.22	1039.20
390.42	983.02
390.61	1006.43
390.81	1057.92
391.00	1015.79
391.19	1034.52
391.39	1193.67
391.58	1203.04
391.78	1067.28
391.97	1046.22
392.16	957.28
392.36	1100.05
392.55	1102.39
392.75	1013.45
392.94	1025.15
393.13	1090.69
393.33	1062.60
393.52	1032.18
393.71	1128.14
393.91	1057.92
394.10	1142.18
394.29	1109.41
394.49	1235.80
394.68	1240.48
394.88	1231.12
395.07	1313.04
395.26	1296.66
395.46	1224.10
395.65	1273.25
395.84	1303.68
396.04	1338.79
396.23	1275.59
396.42	1268.57
396.62	1158.57
396.81	1247.51
397.00	1287.29
397.19	1327.08
397.39	1259.21
397.58	1336.45
397.77	1345.81
397.97	1401.98
398.16	1540.07
398.35	1507.30
398.55	1495.60
398.74	1474.54
398.93	1500.28
399.12	1533.05
399.32	1554.12
399.51	1409.00
399.70	1617.31
399.90	1603.27
400.09	1596.25
400.28	1558.80
400.47	1502.62
400.67	1703.91
400.86	1643.06
401.05	1685.19
401.24	1645.40
401.44	1680.50
401.63	1612.63
401.82	1717.95
402.01	1661.78
402.21	1717.95
402.40	1675.82
402.59	1722.63
402.78	1739.02
402.97	1823.28
403.17	1865.41
403.36	1830.30
403.55	1846.68
403.74	1879.45
403.93	1849.02
404.13	1886.47
404.32	1888.81
404.51	1827.96
404.70	1856.04
404.89	1963.71
405.09	2019.88
405.28	1870.09
405.47	1930.94
405.66	1963.71
405.85	2003.50
406.05	1982.43
406.24	1970.73
406.43	2148.61
406.62	1975.41
406.81	2108.82
407.00	2066.69
407.20	2033.93
407.39	2183.72
407.58	2085.42
407.77	2190.74
407.96	2221.17
408.15	2333.51
408.34	2223.51
408.54	2370.96
408.73	2239.89
408.92	2239.89
409.11	2338.20
409.30	2293.72
409.49	2249.25
409.68	2345.22
409.87	2319.47
410.07	2420.11
410.26	2359.26
410.45	2361.60
410.64	2382.67
410.83	2361.60
411.02	2445.86
411.21	2628.42
411.40	2530.12
411.59	2612.04
411.78	2574.59
411.98	2583.95
412.17	2534.80
412.36	2602.68
412.55	2630.76
412.74	2743.11
412.93	2780.56
413.12	2801.62
413.31	2899.92
413.50	2700.98
413.69	2768.85
413.88	2904.60
414.07	2792.26
414.26	3012.27
414.45	3000.57
414.64	2864.82
414.83	3033.33
415.02	2970.14
415.22	3070.78
415.41	3045.04
415.60	3026.31
415.79	3162.06
415.98	3290.79
416.17	3293.13
416.36	3288.45
416.55	3283.77
416.74	3332.92
416.93	3187.81
417.12	3185.47
417.31	3342.28
417.50	3356.33
417.69	3316.54
417.88	3365.69
418.07	3300.16
418.26	3442.93
418.45	3506.12
418.64	3653.58
418.83	3588.04
419.02	3508.46
419.21	3592.72
419.39	3623.15
419.58	3627.83
419.77	3559.95
419.96	3559.95
420.15	3801.03
420.34	3686.34
420.53	3894.65
420.72	3733.15
420.91	3763.58
421.10	3805.71
421.29	3875.93
421.48	3906.35
421.67	3871.25
421.86	3843.16
422.05	3791.67
422.24	3794.01
422.43	3789.33
422.61	3779.97
422.80	3971.89
422.99	3992.95
423.18	4009.34
423.37	3999.98
423.56	3850.18
423.75	3911.04
423.94	3894.65
424.13	3765.92
424.32	3686.34
424.50	3801.03
424.69	3953.16
424.88	3960.19
425.07	4009.34
425.26	3826.78
425.45	3866.56
425.64	3845.50
425.83	4002.32
426.01	4079.55
426.20	4032.74
426.39	3955.51
426.58	3941.46
426.77	3819.75
426.96	4095.94
427.15	4030.40
427.33	4058.49
427.52	4208.28
427.71	4138.07
427.90	4065.51
428.09	4203.60
428.28	4266.80
428.46	4112.32
428.65	4070.19
428.84	4255.09
429.03	4196.58
429.22	4152.11
429.40	4250.41
429.59	4124.02
429.78	3988.27
429.97	3950.82
430.16	4063.17
430.34	4056.15
430.53	4360.42
430.72	4262.12
430.91	4245.73
431.10	4418.93
431.28	4454.04
431.47	4617.88
431.66	4634.26
431.85	4741.93
432.03	4655.33
432.22	4709.16
432.41	4573.41
432.60	4718.52
432.79	4643.62
432.97	4725.54
433.16	4671.71
433.35	4655.33
433.54	4716.18
433.72	4627.24
433.91	4695.11
434.10	4746.61
434.28	4718.52
434.47	4861.29
434.66	4978.32
434.85	5029.81
435.03	4880.02
435.22	5198.33
435.41	5111.73
435.59	4896.40
435.78	4945.55
435.97	5107.05
436.16	5186.63
436.34	5275.57
436.53	5006.41
436.72	5298.97
436.90	5039.17
437.09	5158.54
437.28	5006.41
437.46	5116.41
437.65	5114.07
437.84	5268.55
438.02	5195.99
438.21	5151.52
438.40	5184.29
438.58	5261.52
438.77	5514.30
438.96	5413.66
439.14	5706.23
439.33	5600.90
439.52	5558.77
439.70	5750.70
439.89	5535.37
440.08	5699.20
440.26	5785.80
440.45	5689.84
440.63	5799.85
440.82	5832.62
441.01	5940.28
441.19	5947.30
441.38	6160.29
441.57	6211.78
441.75	6312.42
441.94	6260.93
442.12	6274.98
442.31	6347.53
442.50	6352.21
442.68	6317.11
442.87	6284.34
443.05	6164.97
443.24	6586.27
443.43	6389.66
443.61	6401.37
443.80	6672.87
443.98	6319.45
444.17	6143.91
444.35	6466.90
444.54	6506.69
444.73	6513.71
444.91	6382.64
445.10	6466.90
445.28	6420.09
445.47	6478.60
445.65	6361.58
445.84	6546.48
446.02	6602.65
446.21	6553.50
446.39	6541.80
446.58	6668.19
446.77	6789.89
446.95	6544.14
447.14	6775.85
447.32	6740.74
447.51	6867.13
447.69	6705.63
447.88	6633.08
448.06	6565.20
448.25	6626.06
448.43	6796.92
448.62	6747.76
448.80	6628.40
448.99	6761.81
449.17	6925.65
449.36	6857.77
449.54	6967.77
449.73	7009.90
449.91	7119.91
450.10	7222.89
450.28	7260.34
450.46	7178.42
450.65	7194.81
450.83	7030.97
451.02	7356.30
451.20	7248.64
451.39	7389.07
451.57	7236.94
451.76	7206.51
451.94	7225.23
452.13	7122.25
452.31	7335.24
452.49	7229.91
452.68	7232.26
452.86	7138.63
453.05	7368.01
453.23	7358.64
453.42	7421.84
453.60	7531.84
453.78	7442.90
453.97	7375.03
454.15	7403.11
454.34	7311.83
454.52	7744.83
454.70	7407.80
454.89	7714.41
455.07	7768.24
455.26	7651.21
455.44	7875.90
455.62	7915.69
455.81	7906.33
455.99	7793.98
456.17	7726.11
456.36	7754.19
456.54	8025.70
456.73	8079.53
456.91	8044.42
457.09	8063.15
457.28	8259.75
457.46	8301.88
457.64	8177.83
457.83	8091.23
458.01	8037.40
458.19	8042.08
458.38	7896.97
458.56	8416.57
458.74	8189.53
458.93	8341.67
459.11	8166.13
459.29	8322.94
459.48	8367.42
459.66	8416.57
459.84	8287.84
460.03	8592.11
460.21	8557.00
460.39	8568.70
460.57	8627.21
460.76	8606.15
460.94	8685.73
461.12	8615.51
461.31	8760.63
461.49	8606.15
461.67	8486.78
461.85	8947.87
462.04	8837.86
462.22	9315.33
462.40	8727.86
462.59	8952.55
462.77	8791.05
462.95	8833.18
463.13	8868.29
463.32	8854.25
463.50	9111.71
463.68	9004.04
463.86	9046.17
464.05	8994.68
464.23	8807.44
464.41	8870.63
464.59	8973.61
464.78	9294.27
464.96	9228.73
465.14	9107.02
465.32	9315.33
465.50	9415.98
465.69	9380.87
465.87	9170.22
466.05	9359.80
466.23	9453.42
466.41	9074.26
466.60	9415.98
466.78	9254.48
466.96	9364.48
467.14	9212.35
467.32	9355.12
467.51	9425.34
467.69	9415.98
467.87	9423.00
468.05	9591.52
468.23	9305.97
468.41	9610.24
468.60	9638.33
468.78	9591.52
468.96	9685.14
469.14	9652.37
469.32	9846.63
469.50	9579.81
469.69	9970.68
469.87	9694.50
470.05	9750.67
470.23	9657.05
470.41	9940.26
470.59	10017.49
470.77	9823.23
470.95	10050.26
471.14	10003.45
471.32	9926.21
471.50	10523.05
471.68	10314.74
471.86	10246.87
472.04	10347.51
472.22	10693.91
472.40	10293.68
472.58	10516.03
472.77	10436.45
472.95	10562.84
473.13	10920.94
473.31	10553.48
473.49	10572.20
473.67	10602.63
473.85	10675.18
474.03	10951.37
474.21	11138.61
474.39	10951.37
474.57	11138.61
474.75	11215.85
474.93	11225.21
475.12	11094.14
475.30	11463.94
475.48	11386.71
475.66	11162.01
475.84	11321.17
476.02	11351.60
476.20	11169.04
476.38	11630.12
476.56	11971.84
476.74	11630.12
476.92	11686.29
477.10	11726.08
477.28	12175.47
477.46	12018.65
477.64	12184.83
477.82	12374.41
478.00	12512.50
478.18	12449.31
478.36	12486.76
478.54	12758.26
478.72	12704.43
478.90	13034.44
479.08	13020.40
479.26	13219.35
479.44	13231.05
479.62	13460.42
479.80	13336.37
479.98	13673.41
480.16	13701.50
480.34	13422.97
480.52	13944.91
480.70	13738.94
480.88	13685.11
481.06	14256.20
481.24	13855.97
481.41	14214.07
481.59	14516.00
481.77	14562.81
481.95	14375.57
482.13	14480.89
482.31	14583.88
482.49	14714.95
482.67	14747.72
482.85	15084.75
483.03	14970.07
483.21	15264.97
483.39	15225.18
483.57	15564.56
483.74	15641.80
483.92	15690.95
484.10	15543.50
484.28	15695.63
484.46	16128.63
484.64	16320.56
484.82	16168.42
485.00	16292.47
485.18	16517.16
485.35	16278.43
485.53	16210.55
485.71	16313.53
485.89	16561.63
486.07	16568.65
486.25	16718.45
486.43	16910.37
486.61	16903.35
486.78	17343.37
486.96	17455.72
487.14	17923.82
487.32	17736.58
487.50	17926.16
487.68	18153.20
487.85	18420.02
488.03	18761.73
488.21	18684.50
488.39	18499.59
488.57	18836.63
488.75	18906.85
488.92	18785.14
489.10	19653.48
489.28	19302.40
489.46	19836.04
489.64	19466.24
489.81	20067.75
489.99	20367.34
490.17	20182.44
490.35	20767.57
490.53	20203.50
490.70	20360.32
490.88	20453.94
491.06	20823.75
491.24	20802.68
491.41	20844.81
491.59	21163.12
491.77	20753.53
491.95	21106.95
492.13	21259.09
492.30	21596.12
492.48	21523.57
492.66	21869.97
492.84	22036.14
493.01	22045.51
493.19	22185.94
493.37	22218.71
493.54	22494.89
493.72	22703.20
493.90	22562.76
494.08	23051.94
494.25	23255.56
494.43	23374.93
494.61	23405.36
494.79	23344.50
494.96	23325.78
495.14	23459.19
495.32	23906.23
495.49	23976.45
495.67	24109.86
495.85	24254.97
496.02	24105.18
496.20	24737.12
496.38	24245.61
496.55	24538.18
496.73	24669.25
496.91	24584.99
497.09	25305.87
497.26	25366.73
497.44	24877.55
497.62	25259.06
497.79	25422.90
497.97	25523.54
498.14	25738.87
498.32	25598.44
498.50	25715.47
498.67	25993.99
498.85	26314.64
499.03	26335.71
499.20	26349.75
499.38	26221.02
499.56	26565.08
499.73	26513.59
499.91	26773.39
500.08	26834.24
500.26	26539.33
500.44	26499.55
500.61	26651.68
500.79	26712.53
500.97	26845.94
501.14	27480.23
501.32	27407.67
501.49	27087.02
501.67	27309.37
501.84	27634.71
502.02	27756.41
502.20	27749.39
502.37	27878.12
502.55	27559.81
502.72	28133.24
502.90	27960.04
503.07	28095.79
503.25	28219.84
503.43	28128.56
503.60	28187.07
503.78	28652.84
503.95	28350.91
504.13	29048.39
504.30	29024.98
504.48	28769.86
504.65	28954.77
504.83	28933.70
505.01	29488.41
505.18	29397.13
505.36	29589.05
505.53	29509.47
505.71	29905.02
505.88	30012.69
506.06	29125.63
506.23	29944.81
506.41	29523.52
506.58	30000.99
506.76	29928.43
506.93	30466.75
507.11	30347.39
507.28	30031.41
507.46	30047.80
507.63	30366.11
507.81	30363.77
507.98	30122.69
508.16	30331.00
508.33	30492.50
508.50	30780.39
508.68	30415.26
508.85	31175.94
509.03	31157.21
509.20	31133.81
509.38	31641.70
509.55	31473.18
509.73	31747.03
509.90	31417.01
510.08	31578.51
510.25	31693.19
510.42	31620.64
510.60	31857.03
510.77	32126.19
510.95	32212.79
511.12	31704.90
511.30	32383.65
511.47	33020.28
511.64	32329.82
511.82	32826.01
511.99	32652.81
512.17	32554.51
512.34	32388.33
512.51	32950.06
512.69	32620.05
512.86	32826.01
513.04	33268.37
513.21	33244.97
513.38	33198.16
513.56	32903.25
513.73	33078.79
513.90	33378.38
514.08	33736.48
514.25	33237.95
514.43	33474.34
514.60	33635.84
514.77	33942.45
514.95	33701.37
515.12	33736.48
515.29	33825.42
515.47	34211.61
515.64	34405.88
515.81	34412.90
515.99	33853.51
516.16	34106.29
516.33	33717.76
516.51	33853.51
516.68	33186.46
516.85	33525.83
517.03	33743.50
517.20	34340.34
517.37	34436.30
517.54	34614.18
517.72	34686.74
517.89	34089.90
518.06	34366.09
518.24	34361.40
518.41	34232.68
518.58	35033.14
518.75	34897.39
518.93	34586.10
519.10	34897.39
519.27	35414.65
519.45	35101.01
519.62	35321.02
519.79	35800.83
519.96	35789.13
520.14	35442.73
520.31	35522.31
520.48	36088.72
520.65	35777.43
520.83	35658.06
521.00	36151.91
521.17	36421.08
521.34	36048.93
521.52	36290.01
521.69	36727.69
521.86	36898.55
522.03	36400.01
522.20	36353.20
522.38	36655.13
522.55	36477.25
522.72	36383.63
522.89	36814.29
523.07	36598.96
523.24	36973.44
523.41	36814.29
523.58	37053.02
523.75	37270.69
523.92	37443.89
524.10	37137.28
524.27	37340.91
524.44	37596.03
524.61	37310.48
524.78	37572.62
524.96	37614.75
525.13	37794.97
525.30	38279.46
525.47	38134.35
525.64	37727.10
525.81	38038.39
525.98	38092.22
526.16	37567.94
526.33	37521.13
526.50	37736.46
526.67	37755.18
526.84	37544.53
527.01	37832.42
527.18	38220.95
527.36	37818.38
527.53	38780.34
527.70	39152.48
527.87	38749.91
528.04	38487.77
528.21	38546.28
528.38	38904.38
528.55	38789.70
528.72	39391.22
528.89	39243.76
529.07	39189.93
529.24	39196.95
529.41	39321.00
529.58	38775.66
529.75	38813.10
529.92	39077.58
530.09	39257.81
530.26	39255.46
530.43	39805.49
530.60	39391.22
530.77	39634.63
530.94	39643.99
531.11	39826.56
531.28	39875.71
531.46	39880.39
531.63	39948.26
531.80	39775.06
531.97	39339.72
532.14	39409.94
532.31	39683.78
532.48	39831.24
532.65	39927.20
532.82	39917.84
532.99	40182.32
533.16	39892.09
533.33	39981.03
533.50	40657.45
533.67	40362.54
533.84	40137.85
534.01	40135.51
534.18	40371.90
534.35	40692.55
534.52	40474.88
534.69	40751.07
534.86	40704.26
535.03	40526.38
535.20	40807.24
535.37	41045.97
535.54	41422.80
535.71	41436.84
535.88	41153.64
536.05	40959.38
536.22	41116.19
536.38	41099.81
536.55	41097.47
536.72	41097.47
536.89	41422.80
537.06	41130.23
537.23	41413.44
537.40	41565.57
537.57	41069.38
537.74	41406.42
537.91	42054.75
538.08	41577.28
538.25	40708.94
538.42	41720.05
538.59	42068.79
538.75	41109.17
538.92	41926.02
539.09	41383.01
539.26	41703.67
539.43	41773.88
539.60	41731.75
539.77	41443.87
539.94	41867.50
540.11	41673.24
540.28	41689.62
540.44	41762.18
540.61	41565.57
540.78	41862.82
540.95	42333.27
541.12	41570.25
541.29	41834.74
541.46	41965.81
541.62	42344.97
541.79	42265.39
541.96	42068.79
542.13	42141.35
542.30	42499.45
542.47	42682.01
542.63	42394.12
542.80	42293.48
542.97	42990.96
543.14	42813.08
543.31	42789.67
543.48	42845.85
543.64	43435.66
543.81	43412.26
543.98	43100.97
544.15	42784.99
544.32	43377.15
544.48	43821.85
544.65	43758.66
544.82	43023.73
544.99	42693.71
545.16	43215.65
545.32	43262.46
545.49	43093.94
545.66	43559.71
545.83	43468.43
546.00	43679.08
546.16	43122.03
546.33	43672.06
546.50	43037.77
546.67	43318.64
546.83	43271.82
547.00	43723.55
547.17	43775.04
547.34	43351.40
547.50	43608.86
547.67	43990.37
547.84	43592.48
548.00	44189.31
548.17	43973.98
548.34	44025.48
548.51	44313.36
548.67	44149.53
548.84	44201.02
549.01	44065.27
549.18	44327.41
549.34	44383.58
549.51	44467.84
549.68	44505.29
549.84	44509.97
550.01	44219.74
550.18	44296.98
550.34	44835.30
550.51	44430.39
550.68	44135.48
550.84	43742.27
551.01	44589.55
551.18	44526.35
551.34	44769.77
551.51	44491.24
551.68	44432.73
551.84	44783.81
552.01	44655.08
552.18	44519.33
552.34	44254.85
552.51	44751.04
552.68	44652.74
552.84	45256.60
553.01	45001.48
553.18	44556.78
553.34	44910.20
553.51	44460.82
553.67	44959.35
553.84	44816.58
554.01	45076.38
554.17	45127.87
554.34	45214.47
554.51	45181.70
554.67	45109.14
554.84	44994.46
555.00	44966.37
555.17	45048.29
555.33	45404.05
555.50	45198.09
555.67	45165.32
555.83	45331.50
556.00	45467.25
556.16	45834.71
556.33	45305.75
556.50	45294.05
556.66	45354.90
556.83	44971.05
556.99	45645.13
557.16	45668.53
557.32	45584.27
557.49	45296.39
557.65	45202.77
557.82	45390.01
557.98	45181.70
558.15	45675.55
558.32	45270.64
558.48	45223.83
558.65	45338.52
558.81	45120.85
558.98	45045.95
559.14	45745.77
559.31	45705.98
559.47	45748.11
559.64	45876.84
559.80	46003.23
559.97	45476.61
560.13	45691.94
560.30	45755.13
560.46	45806.62
560.63	45820.67
560.79	46113.23
560.96	46251.33
561.12	45689.60
561.29	45958.76
561.45	45846.41
561.61	45481.29
561.78	45776.20
561.94	45621.72
562.11	46106.21
562.27	45455.54
562.44	45883.86
562.60	45790.24
562.77	46059.40
562.93	45748.11
563.10	46270.05
563.26	45595.98
563.42	46579.00
563.59	45972.80
563.75	45914.29
563.92	46073.45
564.08	46267.71
564.24	46394.10
564.41	46291.12
564.57	46550.91
564.74	46024.29
564.90	46014.93
565.07	45982.16
565.23	46138.98
565.39	45813.65
565.56	46181.11
565.72	46192.81
565.88	46267.71
566.05	46337.93
566.21	46031.32
566.38	45738.75
566.54	46131.96
566.70	46181.11
566.87	46520.49
567.03	46321.54
567.19	46639.86
567.36	46286.43
567.52	46148.34
567.68	46234.94
567.85	46274.73
568.01	45904.93
568.17	46370.69
568.34	46164.73
568.50	46190.47
568.66	46073.45
568.83	46464.32
568.99	46108.55
569.15	46356.65
569.32	46099.19
569.48	45982.16
569.64	46569.64
569.81	46799.01
569.97	46487.72
570.13	46270.05
570.30	45759.81
570.46	46293.46
570.62	46260.69
570.78	45759.81
570.95	46241.96
571.11	46607.09
571.27	46443.25
571.43	46508.79
571.60	46632.83
571.76	46405.80
571.92	46143.66
572.09	46543.89
572.25	46248.99
572.41	46478.36
572.57	46632.83
572.74	46733.48
572.90	46714.75
573.06	46209.20
573.22	46855.18
573.38	46492.40
573.55	46623.47
573.71	46714.75
573.87	46574.32
574.03	45991.53
574.20	46337.93
574.36	46005.57
574.52	46885.61
574.68	46363.67
574.84	46897.31
575.01	46394.10
575.17	46354.31
575.33	46227.92
575.49	46658.58
575.65	46894.97
575.82	46906.68
575.98	46485.38
576.14	46265.37
576.30	46571.98
576.46	46536.87
576.62	46248.99
576.79	46424.53
576.95	46192.81
577.11	46382.40
577.27	46501.76
577.43	46911.36
577.59	46450.27
577.75	46590.70
577.92	46513.47
578.08	46263.03
578.24	45778.54
578.40	46532.19
578.56	46366.01
578.72	46588.36
578.88	47019.02
579.04	46696.03
579.21	46686.67
579.37	46691.35
579.53	46763.90
579.69	46366.01
579.85	46714.75
580.01	46829.44
580.17	46349.63
580.33	46731.14
580.49	46726.46
580.65	46576.66
580.82	46728.80
580.98	46253.67
581.14	46225.58
581.30	46677.30
581.46	46520.49
581.62	46745.18
581.78	46752.20
581.94	46965.19
582.10	46461.97
582.26	46611.77
582.42	46614.11
582.58	46471.34
582.74	46501.76
582.90	46932.42
583.06	46703.05
583.22	46745.18
583.38	46944.12
583.54	47173.50
583.70	46754.54
583.86	46340.27
584.02	46244.30
584.18	46740.50
584.34	47084.56
584.50	46796.67
584.66	46801.35
584.82	46679.64
584.98	47136.05
585.14	46616.45
585.30	46394.10
585.46	46897.31
585.62	46586.02
585.78	46815.40
585.94	46366.01
586.10	46728.80
586.26	46356.65
586.42	46974.55
586.58	47037.75
586.74	46602.41
586.90	46653.90
587.06	46176.43
587.22	47030.72
587.38	46429.21
587.54	47019.02
587.70	46983.91
587.86	46513.47
588.02	46899.65
588.18	46660.92
588.34	46569.64
588.49	46337.93
588.65	46223.24
588.81	46057.06
588.97	45986.85
589.13	45853.44
589.29	46230.26
589.45	46684.33
589.61	46623.47
589.77	47159.45
589.93	46770.93
590.08	46941.78
590.24	47063.49
590.40	47302.23
590.56	47161.79
590.72	46595.38
590.88	46602.41
591.04	47180.52
591.20	47320.95
591.35	46955.83
591.51	47356.06
591.67	46525.17
591.83	46841.14
591.99	46604.75
592.15	46801.35
592.31	46799.01
592.46	47295.21
592.62	46796.67
592.78	46972.21
592.94	47164.14
593.10	46990.94
593.26	47014.34
593.41	46890.29
593.57	46667.94
593.73	46997.96
593.89	46925.40
594.05	47021.36
594.20	47145.41
594.36	46948.81
594.52	46658.58
594.68	46815.40
594.84	47040.09
594.99	47206.26
595.15	46883.27
595.31	46962.85
595.47	46782.63
595.62	46878.59
595.78	47040.09
595.94	46852.84
596.10	46876.25
596.25	46997.96
596.41	47246.05
596.57	46997.96
596.73	46923.06
596.88	46703.05
597.04	46986.25
597.20	46873.91
597.36	46827.10
597.51	47189.88
597.67	47318.61
597.83	47037.75
597.99	47124.35
598.14	47159.45
598.30	46937.10
598.46	47250.74
598.61	46887.95
598.77	46759.22
598.93	46817.74
599.09	47206.26
599.24	46822.42
599.40	46911.36
599.56	46930.08
599.71	46880.93
599.87	47182.86
600.03	47274.14
600.18	46820.08
600.34	46836.46
600.50	46848.16
600.65	46911.36
600.81	47107.96
600.97	47299.89
601.12	46878.59
601.28	47313.93
601.44	46850.50
601.59	46801.35
601.75	46742.84
601.91	47058.81
602.06	46639.86
602.22	47386.49
602.37	46759.22
602.53	46983.91
602.69	47044.77
602.84	46969.87
603.00	47065.83
603.16	47199.24
603.31	46583.68
603.47	46508.79
603.62	46894.97
603.78	47007.32
603.94	46714.75
604.09	47255.42
604.25	47168.82
604.40	46735.82
604.56	47033.07
604.71	47051.79
604.87	46820.08
605.03	47311.59
605.18	46714.75
605.34	47028.38
605.49	46461.97
605.65	46611.77
605.80	46997.96
605.96	47084.56
606.12	46997.96
606.27	46869.23
606.43	46586.02
606.58	46642.20
606.74	46256.01
606.89	46644.54
607.05	46944.12
607.20	46724.11
607.36	46703.05
607.51	46916.04
607.67	46607.09
607.82	46511.13
607.98	46611.77
608.13	46550.91
608.29	46770.93
608.44	46108.55
608.60	46155.36
608.75	46611.77
608.91	46398.78
609.06	46375.37
609.22	47246.05
609.37	46340.27
609.53	46422.19
609.68	46569.64
609.84	46454.95
609.99	46363.67
610.15	46323.88
610.30	45975.14
610.46	45825.35
610.61	46239.62
610.76	46735.82
610.92	46033.66
611.07	46241.96
611.23	46160.05
611.38	46309.84
611.54	45940.04
611.69	46057.06
611.84	46183.45
612.00	46195.15
612.15	45691.94
612.31	45858.12
612.46	45895.56
612.62	46476.02
612.77	46466.66
612.92	46108.55
613.08	46192.81
613.23	45935.35
613.39	45893.22
613.54	45607.68
613.69	45525.76
613.85	45897.91
614.00	46110.89
614.15	45797.26
614.31	46326.22
614.46	45738.75
614.62	45642.79
614.77	45689.60
614.92	45832.37
615.08	45675.55
615.23	45925.99
615.38	45443.84
615.54	45375.97
615.69	45607.68
615.84	45326.81
616.00	46040.68
616.15	45923.65
616.30	45654.49
616.46	45406.39
616.61	45287.03
616.76	45888.54
616.92	45387.67
617.07	44968.71
617.22	45223.83
617.37	45244.90
617.53	45549.17
617.68	45750.45
617.83	45979.82
617.99	45364.26
618.14	45258.94
618.29	45277.66
618.45	44938.29
618.60	45095.10
618.75	45062.33
618.90	44982.76
619.06	45366.60
619.21	44741.68
619.36	45605.34
619.51	45106.80
619.67	45083.40
619.82	45375.97
619.97	45059.99
620.12	44666.78
620.28	44327.41
620.43	45062.33
620.58	44652.74
620.73	45003.82
620.89	44928.92
621.04	44737.00
621.19	44828.28
621.34	45024.89
621.49	44552.10
621.65	44952.33
621.80	44898.50
621.95	44886.79
622.10	44722.96
622.25	44201.02
622.41	44648.06
622.56	44392.94
622.71	45090.42
622.86	44397.62
623.01	44502.95
623.16	44996.80
623.32	44673.81
623.47	44725.30
623.62	44114.42
623.77	44439.75
623.92	44374.22
624.07	44554.44
624.23	43894.41
624.38	43906.11
624.53	44463.16
624.68	44521.67
624.83	44435.07
624.98	44404.64
625.13	43927.17
625.29	44346.13
625.44	44034.84
625.59	43536.30
625.74	43702.48
625.89	44039.52
626.04	43690.78
626.19	43866.32
626.34	43578.43
626.49	43430.98
626.65	43576.09
626.80	43913.13
626.95	43922.49
627.10	43517.58
627.25	43517.58
627.40	43145.44
627.55	43381.83
627.70	43358.42
627.85	43180.54
628.00	43526.94
628.15	43285.87
628.30	43185.22
628.45	43407.58
628.60	43166.50
628.76	43599.50
628.91	43782.06
629.06	43091.60
629.21	43021.39
629.36	43133.73
629.51	42934.79
629.66	43166.50
629.81	43037.77
629.96	43171.18
630.11	42866.91
630.26	43374.81
630.41	43042.45
630.56	42738.18
630.71	42745.20
630.86	43215.65
631.01	42890.32
631.16	42990.96
631.31	42803.72
631.46	42583.71
631.61	42976.92
631.76	42834.14
631.91	42916.06
632.06	43007.34
632.21	42953.51
632.36	43122.03
632.51	42672.65
632.66	42536.90
632.81	42270.08
632.96	42604.77
633.10	42007.94
633.25	41916.65
633.40	42309.86
633.55	42878.61
633.70	42422.21
633.85	42672.65
634.00	42314.55
634.15	42637.54
634.30	42230.29
634.45	42693.71
634.60	42293.48
634.75	42146.03
634.90	42359.02
635.05	42625.84
635.19	42328.59
635.34	42054.75
635.49	42305.18
635.64	42092.19
635.79	41773.88
635.94	42071.13
636.09	42560.30
636.24	41790.27
636.39	41804.31
636.53	41977.51
636.68	41764.52
636.83	41642.81
636.98	42096.88
637.13	41261.30
637.28	42384.76
637.43	42525.19
637.57	41918.99
637.72	41979.85
637.87	42052.41
638.02	42169.43
638.17	41888.57
638.32	41830.05
638.46	41909.63
638.61	41684.94
638.76	41244.92
638.91	41509.40
639.06	41593.66
639.20	41493.02
639.35	42127.30
639.50	41130.23
639.65	41614.72
639.80	41619.41
639.94	41165.34
640.09	41350.24
640.24	41223.86
640.39	41170.02
640.54	41586.64
640.68	41247.26
640.83	41163.00
640.98	40765.11
641.13	41233.22
641.27	41598.34
641.42	41120.87
641.57	40959.38
641.72	40765.11
641.86	40823.62
642.01	40430.41
642.16	40540.42
642.31	40685.53
642.45	40861.07
642.60	40435.10
642.75	40657.45
642.90	40533.40
643.04	40584.89
643.19	40612.98
643.34	40786.18
643.48	40596.59
643.63	40837.67
643.78	40194.02
643.93	40404.67
644.07	40182.32
644.22	40257.21
644.37	40355.52
644.51	40318.07
644.66	40407.01
644.81	40549.78
644.95	40189.34
645.10	40563.82
645.25	40657.45
645.39	40334.45
645.54	40694.89
645.69	40329.77
645.83	40245.51
645.98	40584.89
646.13	40142.53
646.27	40203.38
646.42	40409.35
646.57	40163.59
646.71	40325.09
646.86	40264.24
647.00	40495.95
647.15	40034.86
647.30	40217.43
647.44	39931.88
647.59	39864.00
647.74	40165.93
647.88	39819.53
648.03	40004.44
648.17	39959.97
648.32	39585.48
648.47	39533.99
648.61	39768.04
648.76	40133.17
648.90	39758.68
649.05	40259.55
649.20	39660.38
649.34	39725.91
649.49	39775.06
649.63	39833.58
649.78	39660.38
649.92	39384.19
650.07	39721.23
650.21	39433.35
650.36	39777.40
650.51	39784.43
650.65	39828.90
650.80	39578.46
650.94	39356.11
651.09	39697.83
651.23	39374.83
651.38	39171.21
651.52	38700.76
651.67	39285.89
651.81	39569.10
651.96	39222.70
652.10	39391.22
652.25	38831.83
652.39	39260.15
652.54	39257.81
652.68	38986.30
652.83	39164.18
652.97	39194.61
653.12	39309.30
653.26	38974.60
653.41	39077.58
653.55	38728.84
653.70	38869.28
653.84	38990.98
653.99	39082.27
654.13	38988.64
654.27	38995.67
654.42	39124.40
654.56	38864.60
654.71	39126.74
654.85	38745.23
655.00	38623.52
655.14	38609.48
655.29	38251.38
655.43	38576.71
655.57	38096.90
655.72	38078.18
655.86	38244.35
656.01	38122.65
656.15	37958.81
656.30	37897.95
656.44	38089.88
656.58	38080.52
656.73	38202.22
656.87	38143.71
657.01	37794.97
657.16	38288.82
657.30	37916.68
657.45	38022.00
657.59	38087.54
657.73	37897.95
657.88	38190.52
658.02	38017.32
658.16	37645.18
658.31	38302.87
658.45	38099.24
658.60	37663.90
658.74	37818.38
658.88	37600.71
659.03	37427.51
659.17	37511.77
659.31	37532.83
659.46	37146.64
659.60	37535.17
659.74	37244.94
659.89	37029.62
660.03	37408.78
660.17	37408.78
660.32	37638.15
660.46	37677.94
660.60	37083.45
660.74	37359.63
660.89	37312.82
661.03	37280.05
661.17	37310.48
661.32	36954.72
661.46	36758.11
661.60	36346.18
661.74	36755.77
661.89	37184.09
662.03	36769.82
662.17	36840.03
662.31	36926.63
662.46	37116.22
662.60	36737.05
662.74	36882.16
662.88	36659.81
663.03	36414.05
663.17	36107.44
663.31	36184.68
663.45	36720.66
663.60	36437.46
663.74	36062.97
663.88	36418.74
664.02	35974.03
664.17	36285.33
664.31	36121.49
664.45	35615.93
664.59	36053.61
664.73	35892.12
664.88	36062.97
665.02	35658.06
665.16	35894.46
665.30	35803.17
665.44	35838.28
665.59	35122.08
665.73	35433.37
665.87	35208.68
666.01	35248.47
666.15	35676.79
666.29	35536.35
666.44	35447.41
666.58	35192.30
666.72	35487.20
666.86	35353.79
667.00	35491.88
667.14	34892.71
667.28	34403.53
667.43	34888.03
667.57	35091.65
667.71	34766.32
667.85	35269.53
667.99	34459.71
668.13	34251.40
668.27	34558.01
668.41	34983.99
668.56	34157.78
668.70	34391.83
668.84	34096.92
668.98	34410.56
669.12	34429.28
669.26	34136.71
669.40	34036.07
669.54	34164.80
669.68	33942.45
669.82	33614.77
669.96	33610.09
670.10	33837.12
670.25	33820.74
670.39	33448.60
670.53	33689.67
670.67	33275.40
670.81	33230.93
670.95	33525.83
671.09	33668.61
671.23	33855.85
671.37	33457.96
671.51	33371.36
671.65	33244.97
671.79	32713.67
671.93	33223.90
672.07	33039.00
672.21	33109.22
672.35	32465.57
672.49	32381.31
672.63	33104.54
672.77	33036.66
672.91	32711.33
673.05	32334.50
673.19	32683.24
673.33	32547.49
673.47	32416.42
673.61	32208.11
673.75	32105.13
673.89	31960.02
674.03	32016.19
674.17	32126.19
674.31	32109.81
674.45	31693.19
674.59	31803.20
674.73	31934.27
674.87	31878.10
675.01	31796.18
675.15	31892.14
675.29	31683.83
675.43	31606.59
675.56	31517.65
675.70	31112.74
675.84	30991.03
675.98	30422.28
676.12	30923.16
676.26	30658.68
676.40	30541.65
676.54	31215.72
676.68	30801.45
676.82	30118.01
676.96	30572.08
677.10	30529.95
677.23	30574.42
677.37	30445.69
677.51	29972.90
677.65	29905.02
677.79	29729.48
677.93	30183.55
678.07	29703.74
678.21	29731.83
678.34	29170.10
678.48	29809.06
678.62	29645.23
678.76	29085.84
678.90	29177.12
679.04	29322.23
679.18	29092.86
679.31	28811.99
679.45	28879.87
679.59	28453.89
679.73	28383.68
679.87	28716.03
680.00	28938.38
680.14	28294.74
680.28	28329.84
680.42	28266.65
680.56	28011.53
680.70	27946.00
680.83	28144.94
680.97	28063.02
681.11	27910.89
681.25	27552.79
681.39	27955.36
681.52	27859.40
681.66	27826.63
681.80	27042.55
681.94	27468.53
682.07	27433.42
682.21	27379.59
682.35	27339.80
682.49	27213.41
682.62	27143.19
682.76	26930.20
682.90	26579.12
683.04	27033.19
683.17	26787.43
683.31	26546.36
683.45	26602.53
683.59	26363.79
683.72	26218.68
683.86	25968.24
684.00	26099.31
684.13	26286.56
684.27	25982.29
684.41	25830.15
684.55	25781.00
684.68	25537.59
684.82	25488.43
684.96	25432.26
685.09	25443.96
685.23	25420.56
685.37	25039.05
685.50	25511.84
685.64	24982.88
685.78	25209.91
685.91	25010.96
686.05	24669.25
686.19	24484.34
686.32	24828.40
686.46	24369.66
686.60	23943.68
686.73	24173.05
686.87	23747.08
687.01	23775.16
687.14	23651.11
687.28	23646.43
687.42	23363.23
687.55	23489.62
687.69	23632.39
687.82	23281.31
687.96	23470.89
688.10	23236.84
688.23	23248.54
688.37	23161.94
688.50	22918.53
688.64	23297.69
688.78	22995.76
688.91	22895.12
689.05	22675.11
689.18	22766.39
689.32	22497.23
689.46	22658.73
689.59	22504.25
689.73	22300.62
689.86	22328.71
690.00	22291.26
690.13	22382.54
690.27	22094.66
690.41	22436.38
690.54	21876.99
690.68	21537.61
690.81	21628.89
690.95	21455.69
691.08	21600.80
691.22	21619.53
691.35	21664.00
691.49	21661.66
691.62	21598.46
691.76	20933.75
691.89	21158.44
692.03	20856.51
692.16	20851.83
692.30	21109.29
692.43	20837.79
692.57	20720.76
692.70	20552.24
692.84	20585.01
692.97	20217.55
693.11	20311.17
693.24	20542.88
693.38	20524.16
693.51	20301.81
693.65	19967.11
693.78	20205.84
693.92	20077.12
694.05	19866.47
694.19	19711.99
694.32	19562.20
694.45	19913.28
694.59	19763.48
694.72	19243.88
694.86	19166.65
694.99	19056.64
695.13	18789.82
695.26	18560.45
695.39	18778.12
695.53	18869.40
695.66	19082.39
695.80	18871.74
695.93	18635.35
696.07	18588.53
696.20	18560.45
696.33	18642.37
696.47	18295.97
696.60	18464.49
696.73	18628.32
696.87	18319.37
697.00	18270.22
697.14	18267.88
697.27	18038.51
697.40	17961.27
697.54	17635.94
697.67	17888.71
697.80	17970.63
697.94	17671.04
698.07	17600.83
698.21	17249.75
698.34	17404.22
698.47	17170.17
698.61	17212.30
698.74	16957.18
698.87	16999.31
699.01	17015.69
699.14	16901.01
699.27	16982.93
699.40	16994.63
699.54	16781.64
699.67	16463.33
699.80	16276.09
699.94	16362.69
700.07	16468.01
700.20	16224.59
700.34	16198.85
700.47	15819.68
700.60	16107.57
700.73	16397.79
700.87	16320.56
701.00	15903.94
701.13	16053.73
701.26	15939.05
701.40	15899.26
701.53	16053.73
701.66	15702.65
701.79	15571.58
701.93	15194.76
702.06	15286.04
702.19	15246.25
702.32	15236.89
702.46	15473.28
702.59	15274.34
702.72	14984.11
702.85	14939.64
702.99	15330.51
703.12	15056.67
703.25	14726.65
703.38	14644.73
703.51	14991.13
703.65	14724.31
703.78	14871.76
703.91	14499.62
704.04	14588.56
704.17	14429.40
704.31	14328.76
704.44	14005.77
704.57	14122.79
704.70	14235.14
704.83	13881.72
704.96	13956.61
705.10	14005.77
705.23	13963.64
>>>>>End Processed Spectral Data<<<<<
