SpectraSuite Data File
++++++++++++++++++++++++++++++++++++
Date: Fri Oct 25 11:33:09 EDT 2013
User: price-jones
Dark Spectrum Present: No
Reference Spectrum Present: No
Number of Sampled Component Spectra: 1
Spectrometers: USB2+H05261
Integration Time (usec): 100000 (USB2+H05261)
Spectra Averaged: 1 (USB2+H05261)
Boxcar Smoothing: 0 (USB2+H05261)
Correct for Electrical Dark: No (USB2+H05261)
Strobe/Lamp Enabled: No (USB2+H05261)
Correct for Detector Non-linearity: No (USB2+H05261)
Correct for Stray Light: No (USB2+H05261)
Number of Pixels in Processed Spectrum: 2048
>>>>>Begin Processed Spectral Data<<<<<
365.73	299.59
365.92	299.59
366.12	299.59
366.32	175.54
366.52	145.11
366.72	212.99
366.91	184.90
367.11	110.01
367.31	154.48
367.51	138.09
367.70	182.56
367.90	194.26
368.10	210.65
368.30	156.82
368.49	128.73
368.69	166.18
368.89	124.05
369.09	196.60
369.28	166.18
369.48	220.01
369.68	145.11
369.87	170.86
370.07	210.65
370.27	283.20
370.47	372.15
370.66	433.00
370.86	519.60
371.06	528.96
371.25	571.09
371.45	547.69
371.65	512.58
371.84	503.22
372.04	547.69
372.24	547.69
372.44	613.22
372.63	545.34
372.83	627.26
373.03	620.24
373.22	552.37
373.42	596.84
373.62	660.03
373.81	613.22
374.01	695.14
374.21	641.31
374.40	608.54
374.60	615.56
374.79	638.97
374.99	641.31
375.19	622.58
375.38	627.26
375.58	683.44
375.78	746.63
375.97	660.03
376.17	643.65
376.37	620.24
376.56	734.93
376.76	645.99
376.95	671.73
377.15	653.01
377.35	678.76
377.54	674.07
377.74	627.26
377.93	723.23
378.13	702.16
378.33	770.04
378.52	767.70
378.72	727.91
378.91	753.65
379.11	758.33
379.31	671.73
379.50	737.27
379.70	723.23
379.89	795.78
380.09	739.61
380.28	711.52
380.48	767.70
380.68	737.27
380.87	770.04
381.07	784.08
381.26	812.17
381.46	683.44
381.65	697.48
381.85	723.23
382.04	856.64
382.24	753.65
382.43	812.17
382.63	812.17
382.83	812.17
383.02	784.08
383.22	786.42
383.41	823.87
383.61	866.00
383.80	807.48
384.00	809.83
384.19	763.01
384.39	856.64
384.58	812.17
384.78	837.91
384.97	959.62
385.17	835.57
385.36	884.72
385.56	870.68
385.75	856.64
385.95	842.59
386.14	847.27
386.34	901.11
386.53	898.77
386.72	770.04
386.92	950.26
387.11	873.02
387.31	840.25
387.50	816.85
387.70	959.62
387.89	908.13
388.09	950.26
388.28	826.21
388.48	884.72
388.67	957.28
388.86	961.96
389.06	926.85
389.25	954.94
389.45	924.51
389.64	1015.79
389.84	973.66
390.03	978.34
390.22	997.07
390.42	1083.67
390.61	912.81
390.81	992.39
391.00	1008.77
391.19	929.19
391.39	999.41
391.58	1025.15
391.78	999.41
391.97	1013.45
392.16	985.37
392.36	1170.27
392.55	1008.77
392.75	1039.20
392.94	1078.99
393.13	1083.67
393.33	1011.11
393.52	966.64
393.71	1027.50
393.91	1029.84
394.10	1046.22
394.29	1036.86
394.49	1111.75
394.68	1135.16
394.88	1104.73
395.07	1088.35
395.26	1188.99
395.46	1020.47
395.65	1256.87
395.84	1184.31
396.04	1165.59
396.23	1149.20
396.42	1198.35
396.62	1245.16
396.81	1242.82
397.00	1181.97
397.19	1226.44
397.39	1217.08
397.58	1238.14
397.77	1282.61
397.97	1249.85
398.16	1263.89
398.35	1320.06
398.55	1256.87
398.74	1306.02
398.93	1348.15
399.12	1270.91
399.32	1273.25
399.51	1301.34
399.70	1401.98
399.90	1329.42
400.09	1427.73
400.28	1446.45
400.47	1380.92
400.67	1483.90
400.86	1425.39
401.05	1453.47
401.24	1427.73
401.44	1420.71
401.63	1418.36
401.82	1399.64
402.01	1479.22
402.21	1378.58
402.40	1430.07
402.59	1514.33
402.78	1575.18
402.97	1488.58
403.17	1598.59
403.36	1540.07
403.55	1551.78
403.74	1570.50
403.93	1556.46
404.13	1629.01
404.32	1575.18
404.51	1645.40
404.70	1605.61
404.89	1710.93
405.09	1699.23
405.28	1654.76
405.47	1748.38
405.66	1694.55
405.85	1736.68
406.05	1666.46
406.24	1710.93
406.43	1767.10
406.62	1888.81
406.81	1877.11
407.00	1760.08
407.20	1701.57
407.39	1884.13
407.58	1839.66
407.77	1928.60
407.96	1867.75
408.15	1928.60
408.34	1788.17
408.54	1905.20
408.73	1858.39
408.92	1944.99
409.11	1956.69
409.30	1984.77
409.49	2066.69
409.68	1989.46
409.87	1980.09
410.07	2090.10
410.26	2038.61
410.45	2083.08
410.64	1916.90
410.83	2052.65
411.02	2148.61
411.21	2155.63
411.40	2143.93
411.59	2321.81
411.78	2232.87
411.98	2181.38
412.17	2335.85
412.36	2256.28
412.55	2293.72
412.74	2356.92
412.93	2282.02
413.12	2272.66
413.31	2389.69
413.50	2370.96
413.69	2466.92
413.88	2525.44
414.07	2478.63
414.26	2537.14
414.45	2583.95
414.64	2551.18
414.83	2644.81
415.02	2675.23
415.22	2689.28
415.41	2579.27
415.60	2689.28
415.79	2771.19
415.98	2668.21
416.17	2626.08
416.36	2729.06
416.55	2691.62
416.74	2754.81
416.93	2818.00
417.12	2855.45
417.31	2766.51
417.50	3056.74
417.69	2953.76
417.88	2911.63
418.07	2928.01
418.26	3056.74
418.45	3026.31
418.64	3084.83
418.83	3173.77
419.02	3136.32
419.21	3213.56
419.39	3157.38
419.58	3122.27
419.77	3164.40
419.96	3229.94
420.15	3204.19
420.34	3204.19
420.53	3243.98
420.72	3220.58
420.91	3325.90
421.10	3274.41
421.29	3318.88
421.48	3248.66
421.67	3234.62
421.86	3276.75
422.05	3337.60
422.24	3314.20
422.43	3342.28
422.61	3353.99
422.80	3499.10
422.99	3372.71
423.18	3349.31
423.37	3510.80
423.56	3494.42
423.75	3346.97
423.94	3377.39
424.13	3265.05
424.32	3288.45
424.50	3463.99
424.69	3424.20
424.88	3468.67
425.07	3529.53
425.26	3410.16
425.45	3550.59
425.64	3515.48
425.83	3515.48
426.01	3545.91
426.20	3531.87
426.39	3459.31
426.58	3637.19
426.77	3508.46
426.96	3494.42
427.15	3695.71
427.33	3611.45
427.52	3719.11
427.71	3758.90
427.90	3658.26
428.09	3721.45
428.28	3597.40
428.46	3625.49
428.65	3662.94
428.84	3871.25
429.03	3812.73
429.22	3819.75
429.40	3744.86
429.59	3784.65
429.78	3625.49
429.97	3679.32
430.16	3826.78
430.34	3871.25
430.53	3796.35
430.72	3988.27
430.91	3918.06
431.10	3852.52
431.28	3904.01
431.47	3936.78
431.66	4067.85
431.85	4152.11
432.03	4128.70
432.22	4191.90
432.41	4124.02
432.60	3983.59
432.79	4119.34
432.97	4145.09
433.16	4189.56
433.35	4168.49
433.54	4119.34
433.72	4322.97
433.91	4149.77
434.10	4072.53
434.28	4124.02
434.47	4280.84
434.66	4332.33
434.85	4463.40
435.03	4369.78
435.22	4269.14
435.41	4500.85
435.59	4557.02
435.78	4369.78
435.97	4198.92
436.16	4383.82
436.34	4437.66
436.53	4409.57
436.72	4498.51
436.90	4400.21
437.09	4517.23
437.28	4432.97
437.46	4613.20
437.65	4500.85
437.84	4650.64
438.02	4500.85
438.21	4603.83
438.40	4681.07
438.58	4816.82
438.77	4933.85
438.96	4809.80
439.14	4833.21
439.33	4854.27
439.52	4882.36
439.70	4835.55
439.89	5181.95
440.08	5022.79
440.26	4987.68
440.45	4994.70
440.63	5107.05
440.82	5233.44
441.01	5219.39
441.19	5064.92
441.38	5170.24
441.57	5291.95
441.75	5313.02
441.94	5434.72
442.12	5439.40
442.31	5577.50
442.50	5434.72
442.68	5350.46
442.87	5425.36
443.05	5535.37
443.24	5530.69
443.43	5469.83
443.61	5558.77
443.80	5806.87
443.98	5610.26
444.17	5294.29
444.35	5643.03
444.54	5774.10
444.73	5589.20
444.91	5724.95
445.10	5846.66
445.28	5757.72
445.47	5757.72
445.65	5701.54
445.84	5865.38
446.02	5851.34
446.21	5914.53
446.39	5720.27
446.58	5944.96
446.77	5724.95
446.95	5884.11
447.14	5860.70
447.32	5762.40
447.51	5860.70
447.69	5954.32
447.88	5731.97
448.06	5792.83
448.25	5860.70
448.43	5769.42
448.62	5991.77
448.80	5942.62
448.99	5966.03
449.17	5940.28
449.36	5900.49
449.54	6008.16
449.73	6101.78
449.91	6092.41
450.10	6092.41
450.28	6160.29
450.46	6122.84
450.65	6171.99
450.83	6277.32
451.02	6101.78
451.20	6258.59
451.39	6340.51
451.57	6359.24
451.76	6129.86
451.94	6260.93
452.13	6396.68
452.31	6516.05
452.49	6354.55
452.68	6352.21
452.86	6487.96
453.05	6354.55
453.23	6534.78
453.42	6366.26
453.60	6366.26
453.78	6499.67
453.97	6532.44
454.15	6427.11
454.34	6471.58
454.52	6651.80
454.70	6581.59
454.89	6574.56
455.07	6686.91
455.26	6579.25
455.44	6628.40
455.62	6586.27
455.81	6736.06
455.99	6965.43
456.17	6698.61
456.36	6682.23
456.54	6953.73
456.73	7173.74
456.91	7042.67
457.09	7117.57
457.28	7047.35
457.46	6897.56
457.64	7166.72
457.83	7180.76
458.01	7105.87
458.19	7082.46
458.38	7145.66
458.56	7194.81
458.74	7124.59
458.93	7281.41
459.11	7288.43
459.29	7295.45
459.48	7286.09
459.66	7531.84
459.84	7435.88
460.03	7459.29
460.21	7606.74
460.39	7396.09
460.57	7461.63
460.76	7515.46
460.94	7602.06
461.12	7620.78
461.31	7756.54
461.49	7592.70
461.67	7487.37
461.85	7850.16
462.04	7595.04
462.22	7892.29
462.40	7950.80
462.59	7735.47
462.77	7819.73
462.95	7929.74
463.13	8030.38
463.32	7815.05
463.50	7943.78
463.68	8077.19
463.86	7887.61
464.05	7969.52
464.23	7875.90
464.41	8067.83
464.59	7829.09
464.78	8095.91
464.96	8105.28
465.14	7922.71
465.32	8135.70
465.50	8093.57
465.69	8023.36
465.87	8215.28
466.05	8116.98
466.23	8257.41
466.41	8294.86
466.60	8484.44
466.78	8226.98
466.96	8386.14
467.14	8128.68
467.32	8348.69
467.51	8575.72
467.69	8215.28
467.87	8442.31
468.05	8589.77
468.23	8526.57
468.41	8458.70
468.60	8404.86
468.78	8718.50
468.96	8475.08
469.14	8877.65
469.32	8739.56
469.50	8585.08
469.69	8807.44
469.87	8833.18
470.05	8898.72
470.23	9032.13
470.41	8966.59
470.59	8994.68
470.77	8891.70
470.95	8975.95
471.14	9111.71
471.32	8791.05
471.50	9174.90
471.68	9163.20
471.86	9078.94
472.04	9240.44
472.22	9399.59
472.40	9151.49
472.58	9343.42
472.77	9460.45
472.95	9453.42
473.13	9785.78
473.31	9423.00
473.49	9598.54
473.67	9654.71
473.85	9640.67
474.03	9928.55
474.21	9774.08
474.39	10029.20
474.57	10010.47
474.75	10068.98
474.93	10113.45
475.12	9916.85
475.30	10073.67
475.48	10031.54
475.66	10068.98
475.84	10085.37
476.02	10380.28
476.20	10092.39
476.38	10513.69
476.56	10738.38
476.74	10588.58
476.92	10471.56
477.10	10675.18
477.28	10799.23
477.46	10761.78
477.64	10939.66
477.82	11073.07
478.00	11377.34
478.18	11133.93
478.36	11384.37
478.54	11564.59
478.72	11494.37
478.90	11641.82
479.08	11683.95
479.26	12086.53
479.44	11796.30
479.62	12042.06
479.80	12002.27
479.98	12135.68
480.16	12250.36
480.34	12079.50
480.52	12278.45
480.70	12414.20
480.88	12252.70
481.06	12278.45
481.24	12784.01
481.41	12910.40
481.59	13069.55
481.77	12952.52
481.95	13130.41
482.13	12924.44
482.31	13453.40
482.49	13558.72
482.67	13621.92
482.85	13490.85
483.03	13795.12
483.21	13743.63
483.39	14167.26
483.57	14005.77
483.74	14221.10
483.92	14090.02
484.10	14059.60
484.28	14518.34
484.46	14590.90
484.64	14794.53
484.82	14541.75
485.00	14782.82
485.18	15150.29
485.35	15337.53
485.53	15262.63
485.71	15506.05
485.89	15737.76
486.07	15700.31
486.25	15655.84
486.43	15756.49
486.61	15866.49
486.78	16091.18
486.96	15917.98
487.14	16470.35
487.32	16299.49
487.50	16606.10
487.68	16491.41
487.85	16812.07
488.03	16964.20
488.21	16915.05
488.39	16854.20
488.57	17444.01
488.75	17406.56
488.92	17729.56
489.10	17872.33
489.28	17778.71
489.46	18094.68
489.64	17926.16
489.81	18216.39
489.99	18354.48
490.17	18298.31
490.35	18548.75
490.53	18710.24
490.70	18712.58
490.88	18625.98
491.06	19257.93
491.24	18899.83
491.41	19239.20
491.59	19403.04
491.77	19293.04
491.95	19400.70
492.13	19716.67
492.30	19700.29
492.48	20149.67
492.66	19990.52
492.84	20247.97
493.01	20304.15
493.19	20290.10
493.37	20746.51
493.54	20542.88
493.72	20959.50
493.90	20833.11
494.08	20732.47
494.25	21144.40
494.43	21095.25
494.61	21050.78
494.79	21483.78
494.96	21563.36
495.14	21834.86
495.32	22178.92
495.49	21907.41
495.67	22047.85
495.85	22160.19
496.02	22443.40
496.20	22754.69
496.38	22717.24
496.55	22672.77
496.73	23290.67
496.91	23166.62
497.09	23012.15
497.26	23096.41
497.44	23213.43
497.62	23487.28
497.79	23828.99
497.97	23616.01
498.14	23627.71
498.32	23770.48
498.50	24189.44
498.67	24203.48
498.85	23976.45
499.03	24252.63
499.20	24308.80
499.38	24552.22
499.56	24322.85
499.73	24690.31
499.91	24938.41
500.08	25036.71
500.26	24449.24
500.44	24744.14
500.61	25245.02
500.79	25085.86
500.97	25429.92
501.14	25509.50
501.32	25511.84
501.49	25642.91
501.67	25846.54
501.84	25795.04
502.02	25809.09
502.20	25883.98
502.37	26204.64
502.55	26033.78
502.72	26094.63
502.90	26190.59
503.07	26305.28
503.25	26469.12
503.43	26536.99
503.60	26586.15
503.78	26927.86
503.95	26501.89
504.13	26661.04
504.30	26892.76
504.48	26731.26
504.65	26984.04
504.83	27353.84
505.01	27655.77
505.18	27428.74
505.36	27903.87
505.53	27145.53
505.71	27831.31
505.88	27929.61
506.06	27578.53
506.23	27997.49
506.41	27632.36
506.58	27969.40
506.76	27885.14
506.93	28217.50
507.11	28428.15
507.28	28453.89
507.46	28919.66
507.63	28629.43
507.81	28514.75
507.98	28580.28
508.16	28517.09
508.33	28964.13
508.50	29032.00
508.68	29013.28
508.85	29296.49
509.03	29081.16
509.20	29214.57
509.38	29823.11
509.55	29605.44
509.73	29996.31
509.90	29914.39
510.08	29788.00
510.25	29818.42
510.42	29949.50
510.60	29825.45
510.77	30000.99
510.95	30288.87
511.12	30071.20
511.30	30679.74
511.47	29879.28
511.64	30309.94
511.82	30815.49
511.99	30689.10
512.17	30831.88
512.34	30728.89
512.51	30984.01
512.69	31082.31
512.86	31110.40
513.04	31225.09
513.21	31168.91
513.38	31138.49
513.56	31089.34
513.73	31555.10
513.90	31580.85
514.08	31477.86
514.25	31798.52
514.43	31920.23
514.60	31854.69
514.77	31735.32
514.95	32456.21
515.12	32432.80
515.29	32285.35
515.47	32147.26
515.64	32556.85
515.81	32187.05
515.99	32545.15
516.16	32830.69
516.33	32268.97
516.51	32676.22
516.68	32788.56
516.85	32854.10
517.03	32996.87
517.20	33289.44
517.37	32769.84
517.54	32933.68
517.72	33247.31
517.89	33226.24
518.06	33490.73
518.24	33298.80
518.41	33324.55
518.58	33546.90
518.75	33546.90
518.93	33670.95
519.10	33404.13
519.27	33734.14
519.45	34148.42
519.62	33991.60
519.79	34136.71
519.96	34237.36
520.14	34148.42
520.31	34143.74
520.48	34277.15
520.65	34242.04
520.83	34937.18
521.00	34417.58
521.17	34883.34
521.34	34859.94
521.52	34890.37
521.69	35360.81
521.86	34899.73
522.03	35239.11
522.20	35435.71
522.38	35690.83
522.55	35447.41
522.72	35491.88
522.89	35452.09
523.07	35873.39
523.24	35648.70
523.41	35543.38
523.58	36032.55
523.75	36217.45
523.92	35669.76
524.10	36294.69
524.27	36182.34
524.44	35831.26
524.61	36273.62
524.78	36287.67
524.96	36067.66
525.13	36538.10
525.30	36392.99
525.47	36713.64
525.64	36247.88
525.81	36615.34
525.98	37326.86
526.16	36657.47
526.33	36671.51
526.50	36891.52
526.67	36481.93
526.84	37010.89
527.01	36935.99
527.18	36938.33
527.36	37120.90
527.53	37776.25
527.70	37247.29
527.87	37486.02
528.04	37090.47
528.21	37656.88
528.38	37460.27
528.55	37368.99
528.72	37581.98
528.89	37556.24
529.07	37434.53
529.24	37663.90
529.41	37497.72
529.58	37752.84
529.75	37399.42
529.92	38391.81
530.09	38078.18
530.26	38354.36
530.43	38061.79
530.60	38050.09
530.77	38284.14
530.94	38375.42
531.11	37834.76
531.28	38464.36
531.46	38408.19
531.63	38546.28
531.80	38672.67
531.97	38754.59
532.14	38616.50
532.31	38361.38
532.48	39374.83
532.65	39077.58
532.82	38932.47
532.99	38590.75
533.16	38925.45
533.33	39210.99
533.50	39239.08
533.67	39072.90
533.84	39000.35
534.01	39400.58
534.18	39292.91
534.35	39887.41
534.52	39505.90
534.69	39934.22
534.86	39695.49
535.03	39365.47
535.20	39782.09
535.37	39716.55
535.54	39908.47
535.71	40222.11
535.88	39847.62
536.05	39934.22
536.22	39983.37
536.38	40151.89
536.55	40271.26
536.72	40191.68
536.89	40060.61
537.06	40254.87
537.23	40685.53
537.40	40378.92
537.57	40191.68
537.74	40360.20
537.91	40781.49
538.08	40685.53
538.25	40521.69
538.42	40591.91
538.59	40755.75
538.75	40395.31
538.92	41024.91
539.09	41083.42
539.26	40870.43
539.43	40755.75
539.60	40423.39
539.77	40580.21
539.94	41219.17
540.11	41422.80
540.28	41024.91
540.44	41579.62
540.61	41284.71
540.78	41029.59
540.95	41067.04
541.12	40755.75
541.29	41574.94
541.46	41188.75
541.62	41397.06
541.79	41682.60
541.96	41050.66
542.13	41118.53
542.30	41368.97
542.47	41865.16
542.63	41839.42
542.80	42003.25
542.97	42241.99
543.14	42529.87
543.31	41680.26
543.48	42131.98
543.64	42473.70
543.81	42803.72
543.98	42373.06
544.15	42494.77
544.32	42618.81
544.48	42740.52
544.65	42579.03
544.82	42880.95
544.99	42127.30
545.16	42656.26
545.32	42887.98
545.49	43096.28
545.66	43187.56
545.83	42719.46
546.00	42717.12
546.16	43086.92
546.33	42897.34
546.50	42696.05
546.67	43332.68
546.83	43159.48
547.00	43133.73
547.17	43016.71
547.34	43194.59
547.50	43285.87
547.67	43533.96
547.84	43283.53
548.00	43040.11
548.17	43868.66
548.34	43988.03
548.51	43959.94
548.67	43901.43
548.84	43693.12
549.01	43632.27
549.18	43491.83
549.34	44112.08
549.51	44374.22
549.68	43913.13
549.84	43981.01
550.01	43835.89
550.18	43737.59
550.34	43742.27
550.51	44425.71
550.68	43847.60
550.84	43634.61
551.01	43931.86
551.18	44123.78
551.34	43854.62
551.51	44383.58
551.68	44404.64
551.84	44383.58
552.01	44051.22
552.18	43955.26
552.34	44369.54
552.51	44275.91
552.68	44025.48
552.84	44479.54
553.01	44804.88
553.18	44196.34
553.34	44882.11
553.51	44355.49
553.67	44783.81
553.84	44453.79
554.01	45081.06
554.17	45244.90
554.34	44961.69
554.51	45249.58
554.67	45029.57
554.84	44844.66
555.00	44912.54
555.17	44692.53
555.33	45071.70
555.50	45242.56
555.67	45588.95
555.83	45455.54
556.00	44872.75
556.16	45511.72
556.33	45413.41
556.50	45144.25
556.66	45581.93
556.83	45067.02
556.99	45478.95
557.16	45450.86
557.32	45322.13
557.49	45759.81
557.65	45415.76
557.82	45677.90
557.98	45308.09
558.15	45799.60
558.32	45858.12
558.48	45605.34
558.65	45343.20
558.81	46216.22
558.98	45823.01
559.14	45436.82
559.31	45549.17
559.47	45813.65
559.64	45771.52
559.80	46134.30
559.97	45940.04
560.13	45673.21
560.30	45844.07
560.46	46033.66
560.63	46199.83
560.79	46293.46
560.96	46195.15
561.12	46305.16
561.29	46281.75
561.45	46096.85
561.61	46005.57
561.78	45886.20
561.94	45998.55
562.11	45633.42
562.27	46288.77
562.44	46153.02
562.60	46700.71
562.77	46389.42
562.93	46085.15
563.10	46611.77
563.26	46478.36
563.42	46775.61
563.59	46071.10
563.75	46459.63
563.92	46527.51
564.08	46782.63
564.24	46529.85
564.41	46291.12
564.57	46595.38
564.74	46904.34
564.90	46747.52
565.07	46571.98
565.23	45975.14
565.39	46433.89
565.56	46651.56
565.72	46693.69
565.88	46703.05
566.05	46504.10
566.21	46649.22
566.38	46543.89
566.54	46974.55
566.70	46501.76
566.87	46656.24
567.03	46546.23
567.19	46691.35
567.36	47159.45
567.52	46745.18
567.68	46646.88
567.85	46679.64
568.01	47051.79
568.17	46698.37
568.34	46703.05
568.50	46927.74
568.66	46815.40
568.83	47042.43
568.99	46855.18
569.15	47028.38
569.32	46653.90
569.48	46466.66
569.64	47466.06
569.81	47339.68
569.97	46927.74
570.13	47447.34
570.30	46677.30
570.46	47374.78
570.62	46831.78
570.78	46878.59
570.95	47136.05
571.11	47154.77
571.27	47140.73
571.43	47119.66
571.60	46918.38
571.76	47004.98
571.92	46827.10
572.09	47356.06
572.25	47316.27
572.41	46974.55
572.57	46955.83
572.74	47896.72
572.90	47480.11
573.06	47473.09
573.22	47484.79
573.38	47194.56
573.55	47412.23
573.71	47746.93
573.87	47157.11
574.03	47126.69
574.20	47833.53
574.36	47288.18
574.52	47419.25
574.68	47412.23
574.84	47288.18
575.01	47475.43
575.17	47395.85
575.33	47393.51
575.49	47285.84
575.65	47655.65
575.82	47515.22
575.98	47477.77
576.14	47807.78
576.30	47971.62
576.46	47550.32
576.62	47679.05
576.79	47388.83
576.95	46955.83
577.11	47419.25
577.27	47255.42
577.43	47428.62
577.59	47573.73
577.75	47166.48
577.92	47112.64
578.08	47721.18
578.24	47938.85
578.40	47770.33
578.56	47224.99
578.72	47367.76
578.88	47543.30
579.04	47674.37
579.21	47517.56
579.37	47885.02
579.53	47849.91
579.69	47409.89
579.85	47388.83
580.01	47718.84
580.17	47828.85
580.33	47929.49
580.49	47728.20
580.65	47833.53
580.82	47487.13
580.98	47199.24
581.14	47091.58
581.30	47803.10
581.46	47463.72
581.62	47524.58
581.78	47676.71
581.94	47746.93
582.10	47604.16
582.26	47922.47
582.42	47856.93
582.58	47852.25
582.74	47276.48
582.90	47760.97
583.06	47791.40
583.22	47732.89
583.38	47763.31
583.54	47962.26
583.70	47826.51
583.86	48062.90
584.02	47819.49
584.18	48266.53
584.34	47770.33
584.50	47711.82
584.66	47957.58
584.82	47878.00
584.98	48123.75
585.14	47753.95
585.30	47772.67
585.46	47632.24
585.62	47386.49
585.78	47819.49
585.94	47707.14
586.10	47505.85
586.26	47606.50
586.42	47456.70
586.58	47707.14
586.74	47889.70
586.90	47592.45
587.06	47538.62
587.22	47660.33
587.38	47990.34
587.54	48252.48
587.70	48215.04
587.86	48406.96
588.02	47929.49
588.18	48093.33
588.34	47840.55
588.49	48217.38
588.65	47746.93
588.81	47929.49
588.97	48371.85
589.13	47924.81
589.29	47870.98
589.45	48509.94
589.61	48030.13
589.77	48076.94
589.93	47632.24
590.08	48196.31
590.24	48142.48
590.40	48629.31
590.56	48446.75
590.72	48577.82
590.88	47562.03
591.04	48229.08
591.20	47800.76
591.35	48371.85
591.51	48573.14
591.67	48446.75
591.83	48465.47
591.99	48233.76
592.15	48186.95
592.31	48577.82
592.46	48027.79
592.62	48355.47
592.78	48601.22
592.94	48718.25
593.10	48465.47
593.26	48467.81
593.41	48865.70
593.57	48573.14
593.73	48924.22
593.89	48388.24
594.05	48685.48
594.20	48788.47
594.36	48678.46
594.52	48741.66
594.68	48832.94
594.84	48467.81
594.99	48554.41
595.15	48713.57
595.31	48868.05
595.47	48519.31
595.62	48509.94
595.78	48512.28
595.94	48587.18
596.10	48193.97
596.25	48655.06
596.41	48512.28
596.57	48458.45
596.73	48795.49
596.88	48442.07
597.04	48535.69
597.20	48708.89
597.36	48090.99
597.51	48554.41
597.67	48418.66
597.83	48521.65
597.99	48641.01
598.14	48266.53
598.30	48470.15
598.46	48559.09
598.61	48786.13
598.77	48736.98
598.93	48568.46
599.09	48577.82
599.24	49008.48
599.40	48814.21
599.56	48832.94
599.71	49010.82
599.87	49422.75
600.03	49120.82
600.18	48772.08
600.34	48629.31
600.50	48910.17
600.65	48809.53
600.81	48481.86
600.97	48587.18
601.12	48933.58
601.28	48795.49
601.44	48935.92
601.59	48800.17
601.75	48797.83
601.91	48535.69
602.06	49113.80
602.22	48846.98
602.37	48371.85
602.53	48849.32
602.69	48624.63
602.84	48446.75
603.00	48355.47
603.16	49048.27
603.31	48500.58
603.47	49331.47
603.62	48912.52
603.78	48971.03
603.94	48870.39
604.09	48556.75
604.25	49017.84
604.40	48678.46
604.56	48720.59
604.71	48987.41
604.87	48481.86
605.03	48673.78
605.18	48811.87
605.34	48542.71
605.49	48488.88
605.65	48898.47
605.80	48198.65
605.96	49010.82
606.12	48406.96
606.27	48552.07
606.43	48753.36
606.58	48807.19
606.74	48622.29
606.89	48657.40
607.05	48664.42
607.20	48463.13
607.36	48704.21
607.51	48327.38
607.67	48971.03
607.82	48516.96
607.98	48556.75
608.13	48245.46
608.29	48456.11
608.44	48753.36
608.60	48093.33
608.75	48858.68
608.91	48617.61
609.06	48507.60
609.22	48858.68
609.37	48589.52
609.53	48956.99
609.68	48273.55
609.84	47826.51
609.99	48587.18
610.15	48112.05
610.30	48411.64
610.46	48521.65
610.61	48128.44
610.76	48692.50
610.92	47660.33
611.07	48418.66
611.23	48245.46
611.38	48521.65
611.54	47889.70
611.69	48294.61
611.84	48399.94
612.00	47875.66
612.15	47973.96
612.31	48308.66
612.46	47730.54
612.62	47861.61
612.77	48062.90
612.92	48322.70
613.08	48086.31
613.23	48058.22
613.39	48341.42
613.54	48493.56
613.69	48514.62
613.85	48004.39
614.00	48030.13
614.15	48280.57
614.31	48172.91
614.46	48172.91
614.62	47831.19
614.77	47777.36
614.92	48074.60
615.08	47945.87
615.23	48301.64
615.38	48182.27
615.54	47997.37
615.69	48135.46
615.84	48135.46
616.00	48435.05
616.15	48142.48
616.30	47913.11
616.46	47770.33
616.61	47789.06
616.76	47927.15
616.92	47962.26
617.07	48041.84
617.22	47847.57
617.37	48062.90
617.53	47702.46
617.68	47814.80
617.83	47695.44
617.99	48224.40
618.14	47489.47
618.29	47805.44
618.45	47908.43
618.60	47669.69
618.75	47407.55
618.90	47189.88
619.06	47627.56
619.21	47632.24
619.36	47885.02
619.51	47159.45
619.67	47906.08
619.82	47908.43
619.97	47608.84
620.12	47454.36
620.28	47332.65
620.43	47775.02
620.58	47210.95
620.73	47445.00
620.89	47657.99
621.04	47793.74
621.19	47234.35
621.34	47079.88
621.49	46927.74
621.65	47384.15
621.80	47576.07
621.95	47419.25
622.10	47241.37
622.25	47632.24
622.41	46913.70
622.56	47072.85
622.71	47400.53
622.86	47161.79
623.01	47501.17
623.16	47213.29
623.32	47157.11
623.47	47416.91
623.62	46972.21
623.77	47033.07
623.92	47480.11
624.07	47250.74
624.23	47267.12
624.38	47159.45
624.53	46817.74
624.68	46988.60
624.83	46714.75
624.98	47316.27
625.13	46527.51
625.29	46426.87
625.44	46894.97
625.59	46370.69
625.74	46333.24
625.89	46333.24
626.04	46775.61
626.19	46686.67
626.34	46480.70
626.49	46246.65
626.65	45984.51
626.80	46822.42
626.95	46457.29
627.10	46281.75
627.25	46387.08
627.40	46609.43
627.55	46019.61
627.70	45872.16
627.85	46731.14
628.00	46653.90
628.15	46820.08
628.30	45771.52
628.45	46153.02
628.60	45900.25
628.76	46054.72
628.91	45968.12
629.06	45654.49
629.21	45975.14
629.36	45874.50
629.51	46146.00
629.66	46267.71
629.81	45853.44
629.96	45984.51
630.11	45710.66
630.26	45743.43
630.41	45691.94
630.56	45982.16
630.71	45977.48
630.86	45743.43
631.01	45441.50
631.16	45387.67
631.31	45823.01
631.46	45652.15
631.61	46057.06
631.76	45869.82
631.91	45783.22
632.06	45944.72
632.21	45436.82
632.36	46241.96
632.51	45462.57
632.66	45553.85
632.81	45406.39
632.96	45645.13
633.10	45586.61
633.25	45656.83
633.40	45560.87
633.55	45925.99
633.70	45727.05
633.85	44982.76
634.00	45350.22
634.15	45001.48
634.30	45485.97
634.45	45371.28
634.60	45696.62
634.75	45272.98
634.90	45546.82
635.05	45560.87
635.19	44907.86
635.34	45567.89
635.49	45062.33
635.64	45172.34
635.79	45394.69
635.94	45352.56
636.09	45244.90
636.24	45453.20
636.39	44786.15
636.53	45284.68
636.68	45324.47
636.83	44519.33
636.98	44631.68
637.13	44477.20
637.28	44533.37
637.43	44343.79
637.57	44683.17
637.72	44825.94
637.87	44755.72
638.02	44804.88
638.17	44266.55
638.32	44587.21
638.46	44254.85
638.61	45055.31
638.76	44217.40
638.91	44395.28
639.06	44016.11
639.20	44374.22
639.35	44245.49
639.50	44339.11
639.65	44360.17
639.80	44502.95
639.94	44421.03
640.09	44484.22
640.24	44355.49
640.39	44385.92
640.54	43990.37
640.68	44264.21
640.83	44133.14
640.98	44069.95
641.13	43728.23
641.27	44624.65
641.42	44186.97
641.57	43772.70
641.72	44238.47
641.86	43812.49
642.01	43592.48
642.16	43831.21
642.31	43840.57
642.45	44025.48
642.60	43660.35
642.75	43976.33
642.90	43824.19
643.04	43971.64
643.19	43959.94
643.34	43981.01
643.48	43594.82
643.63	43849.94
643.78	43590.14
643.93	43828.87
644.07	43225.01
644.22	43496.52
644.37	43667.37
644.51	43580.78
644.66	43283.53
644.81	43257.78
644.95	43920.15
645.10	43580.78
645.25	43330.34
645.39	43391.19
645.54	43370.13
645.69	42902.02
645.83	43257.78
645.98	43194.59
646.13	43419.28
646.27	43332.68
646.42	42454.98
646.57	43421.62
646.71	43407.58
646.86	43430.98
647.00	43201.61
647.15	43016.71
647.30	43281.19
647.44	43236.72
647.59	43386.51
647.74	43220.33
647.88	42983.94
648.03	43323.32
648.17	43316.29
648.32	43426.30
648.47	43328.00
648.61	42754.57
648.76	43110.33
648.90	42328.59
649.05	42813.08
649.20	42960.53
649.34	42780.31
649.49	42829.46
649.63	42930.11
649.78	42710.10
649.92	42990.96
650.07	43110.33
650.21	42726.48
650.36	42689.03
650.51	42721.80
650.65	42920.74
650.80	43168.84
650.94	43000.32
651.09	42543.92
651.23	42171.77
651.38	42403.49
651.52	42059.43
651.67	42546.26
651.81	42464.34
651.96	42284.12
652.10	42155.39
652.25	42349.65
652.39	42316.89
652.54	42525.19
652.68	42169.43
652.83	41993.89
652.97	42553.28
653.12	42300.50
653.26	42323.91
653.41	41993.89
653.55	42288.80
653.70	42333.27
653.84	42267.73
653.99	42108.58
654.13	42780.31
654.27	41944.74
654.42	41998.57
654.56	41935.38
654.71	42195.18
654.85	42199.86
655.00	41902.61
655.14	41940.06
655.29	42230.29
655.43	42078.15
655.57	41493.02
655.72	41301.09
655.86	41537.49
656.01	41539.83
656.15	41745.80
656.30	41420.46
656.44	42019.64
656.58	41769.20
656.73	42085.17
656.87	41329.18
657.01	40861.07
657.16	41546.85
657.30	41675.58
657.45	41687.28
657.59	41287.05
657.73	40589.57
657.88	41221.52
658.02	41710.69
658.16	41874.52
658.31	41333.86
658.45	41500.04
658.60	41254.28
658.74	41476.63
658.88	41383.01
659.03	40938.31
659.17	41015.55
659.31	40676.17
659.46	40807.24
659.60	41139.60
659.74	41247.26
659.89	40502.97
660.03	39924.86
660.17	40942.99
660.32	40598.93
660.46	40596.59
660.60	39880.39
660.74	40247.85
660.89	40559.14
661.03	39948.26
661.17	40219.77
661.32	40224.45
661.46	40535.74
661.60	40144.87
661.74	39721.23
661.89	40299.34
662.03	39955.29
662.17	40144.87
662.31	39971.67
662.46	40041.88
662.60	39934.22
662.74	39828.90
662.88	39405.26
663.03	39491.86
663.17	39559.73
663.31	39700.17
663.45	39168.87
663.60	39775.06
663.74	39470.79
663.88	39629.95
664.02	39192.27
664.17	39487.18
664.31	39147.80
664.45	39044.82
664.59	39431.01
664.73	38525.22
664.88	39044.82
665.02	38925.45
665.16	39089.29
665.30	38960.56
665.44	38738.21
665.59	38492.45
665.73	38705.44
665.87	38412.87
666.01	38721.82
666.15	38602.46
666.29	38457.34
666.44	38440.96
666.58	38719.48
666.72	38305.21
666.86	37874.55
667.00	38031.36
667.14	37986.89
667.28	37996.26
667.43	38174.14
667.57	38061.79
667.71	38209.25
667.85	38108.60
667.99	37984.55
668.13	37493.04
668.27	37291.76
668.41	37589.00
668.56	37366.65
668.70	36779.18
668.84	37181.75
668.98	37106.85
669.12	37366.65
669.26	37415.80
669.40	37230.90
669.54	37439.21
669.68	37392.40
669.82	36882.16
669.96	36875.14
670.10	36697.26
670.25	36442.14
670.39	36610.66
670.53	36732.37
670.67	36950.04
670.81	37104.51
670.95	36100.42
671.09	36404.69
671.23	35995.10
671.37	36521.72
671.51	36334.48
671.65	35955.31
671.79	36208.09
671.93	36140.21
672.07	36137.87
672.21	35721.26
672.35	35686.15
672.49	35538.69
672.63	35765.73
672.77	35545.72
672.91	35503.59
673.05	35370.18
673.19	35503.59
673.33	35391.24
673.47	35173.57
673.61	35321.02
673.75	34712.49
673.89	35072.93
674.03	34775.68
674.17	34539.29
674.31	34466.73
674.45	34213.95
674.59	34822.49
674.73	34658.65
674.87	34260.76
675.01	33975.22
675.15	34171.82
675.29	33518.81
675.43	33567.96
675.56	34047.77
675.70	33905.00
675.84	33626.48
675.98	32437.48
676.12	33708.40
676.26	33762.23
676.40	33230.93
676.54	33656.90
676.68	33259.01
676.82	32636.43
676.96	33146.67
677.10	32769.84
677.23	33010.92
677.37	32809.63
677.51	32903.25
677.65	32510.04
677.79	32678.56
677.93	32098.11
678.07	32390.67
678.21	32381.31
678.34	31992.78
678.48	31796.18
678.62	32004.49
678.76	31798.52
678.90	31484.89
679.04	31412.33
679.18	31967.04
679.31	31529.36
679.45	31496.59
679.59	31012.10
679.73	30951.24
679.87	30960.61
680.00	30822.51
680.14	30932.52
680.28	30780.39
680.42	31103.38
680.56	30515.90
680.70	30419.94
680.83	30256.11
680.97	29659.27
681.11	30429.30
681.25	30043.12
681.39	29991.62
681.52	30270.15
681.66	29612.46
681.80	29202.86
681.94	29692.04
682.07	29333.93
682.21	29067.11
682.35	28821.36
682.49	28706.67
682.62	29144.35
682.76	28954.77
682.90	28840.08
683.04	28800.29
683.17	28528.79
683.31	28613.05
683.45	28236.22
683.59	28107.49
683.72	27527.04
683.86	28067.70
684.00	28362.61
684.13	28252.61
684.27	27976.42
684.41	27950.68
684.55	27667.47
684.68	27718.96
684.82	27051.91
684.96	27309.37
685.09	27417.04
685.23	27061.27
685.37	27489.59
685.50	27215.75
685.64	27084.68
685.78	26984.04
685.91	26958.29
686.05	26230.38
686.19	25982.29
686.32	26639.98
686.46	26150.81
686.60	25689.72
686.73	26092.29
686.87	26008.03
687.01	26141.44
687.14	26050.16
687.28	26101.65
687.42	25951.86
687.55	25507.16
687.69	25406.52
687.82	25020.33
687.96	25125.65
688.10	25689.72
688.23	25462.69
688.37	25401.83
688.50	25401.83
688.64	24957.13
688.78	24940.75
688.91	24823.72
689.05	25013.31
689.18	24245.61
689.32	24259.65
689.46	24013.90
689.59	23758.78
689.73	24507.75
689.86	24280.72
690.00	23754.10
690.13	24088.79
690.27	23618.35
690.41	23812.61
690.54	23501.32
690.68	23213.43
690.81	23325.78
690.95	23157.26
691.08	22813.20
691.22	22752.35
691.35	22738.30
691.49	23201.73
691.62	23199.39
691.76	22527.66
691.89	22368.50
692.03	22419.99
692.16	22099.34
692.30	22335.73
692.43	21986.99
692.57	21851.24
692.70	22265.52
692.84	21886.35
692.97	21954.22
693.11	21261.43
693.24	21397.18
693.38	21284.83
693.51	21483.78
693.65	21149.08
693.78	21111.63
693.92	21254.40
694.05	21329.30
694.19	21097.59
694.32	20898.64
694.45	20929.07
694.59	20716.08
694.72	20870.56
694.86	20533.52
694.99	20233.93
695.13	20393.09
695.26	20114.56
695.39	20002.22
695.53	19889.87
695.66	20060.73
695.80	19449.85
695.93	20025.62
696.07	19597.31
696.20	19190.05
696.33	19274.31
696.47	19201.76
696.60	19573.90
696.73	19178.35
696.87	19297.72
697.00	19384.32
697.14	19019.19
697.27	18878.76
697.40	18810.89
697.54	18728.97
697.67	18546.40
697.80	18703.22
697.94	18443.42
698.07	18321.71
698.21	18651.73
698.34	18434.06
698.47	18040.85
698.61	17792.75
698.74	17783.39
698.87	17795.09
699.01	17771.69
699.14	17614.87
699.27	17745.94
699.40	17795.09
699.54	17397.20
699.67	17338.69
699.80	17308.26
699.94	17099.95
700.07	17083.57
700.20	17095.27
700.34	16652.91
700.47	16774.62
700.60	17125.70
700.73	17097.61
700.87	16861.22
701.00	16512.48
701.13	16554.61
701.26	16393.11
701.40	16189.49
701.53	16294.81
701.66	16126.29
701.79	16325.24
701.93	15964.79
702.06	15772.87
702.19	15564.56
702.32	15889.90
702.46	15903.94
702.59	15779.89
702.72	15494.35
702.85	15604.35
702.99	15501.37
703.12	15342.21
703.25	15220.50
703.38	15056.67
703.51	15178.37
703.65	14918.57
703.78	14719.63
703.91	14836.66
704.04	14867.08
704.17	14857.72
704.31	14513.66
704.44	14824.95
704.57	14586.22
704.70	14478.55
704.83	14459.83
704.96	14260.88
705.10	14497.28
705.23	14183.65
>>>>>End Processed Spectral Data<<<<<
