SpectraSuite Data File
++++++++++++++++++++++++++++++++++++
Date: Fri Oct 25 10:46:57 EDT 2013
User: price-jones
Dark Spectrum Present: No
Reference Spectrum Present: No
Number of Sampled Component Spectra: 1
Spectrometers: USB2+H05261
Integration Time (usec): 100000 (USB2+H05261)
Spectra Averaged: 1 (USB2+H05261)
Boxcar Smoothing: 0 (USB2+H05261)
Correct for Electrical Dark: No (USB2+H05261)
Strobe/Lamp Enabled: No (USB2+H05261)
Correct for Detector Non-linearity: No (USB2+H05261)
Correct for Stray Light: No (USB2+H05261)
Number of Pixels in Processed Spectrum: 2048
>>>>>Begin Processed Spectral Data<<<<<
365.73	159.16
365.92	159.16
366.12	159.16
366.32	58.51
366.52	117.03
366.72	53.83
366.91	14.04
367.11	49.15
367.31	0.00
367.51	0.00
367.70	32.77
367.90	49.15
368.10	67.88
368.30	0.00
368.49	11.70
368.69	93.62
368.89	44.47
369.09	42.13
369.28	117.03
369.48	117.03
369.68	84.26
369.87	110.01
370.07	65.54
370.27	88.94
370.47	215.33
370.66	390.87
370.86	400.23
371.06	383.85
371.25	437.68
371.45	489.17
371.65	533.64
371.84	531.30
372.04	472.79
372.24	491.51
372.44	491.51
372.63	468.11
372.83	468.11
373.03	578.11
373.22	498.53
373.42	507.90
373.62	552.37
373.81	589.82
374.01	578.11
374.21	521.94
374.40	580.45
374.60	559.39
374.79	533.64
374.99	704.50
375.19	683.44
375.38	617.90
375.58	594.50
375.78	627.26
375.97	613.22
376.17	653.01
376.37	578.11
376.56	615.56
376.76	615.56
376.95	697.48
377.15	671.73
377.35	645.99
377.54	655.35
377.74	582.79
377.93	657.69
378.13	624.92
378.33	725.57
378.52	599.18
378.72	613.22
378.91	610.88
379.11	706.84
379.31	643.65
379.50	641.31
379.70	695.14
379.89	692.80
380.09	699.82
380.28	748.97
380.48	699.82
380.68	671.73
380.87	692.80
381.07	711.52
381.26	746.63
381.46	713.86
381.65	685.78
381.85	706.84
382.04	669.39
382.24	737.27
382.43	685.78
382.63	681.10
382.83	748.97
383.02	779.40
383.22	833.23
383.41	746.63
383.61	681.10
383.80	840.25
384.00	805.14
384.19	819.19
384.39	873.02
384.58	784.08
384.78	809.83
384.97	833.23
385.17	875.36
385.36	807.48
385.56	861.32
385.75	868.34
385.95	763.01
386.14	861.32
386.34	844.93
386.53	858.98
386.72	844.93
386.92	840.25
387.11	889.40
387.31	873.02
387.50	870.68
387.70	990.05
387.89	875.36
388.09	837.91
388.28	882.38
388.48	898.77
388.67	863.66
388.86	908.13
389.06	1034.52
389.25	938.55
389.45	952.60
389.64	964.30
389.84	1015.79
390.03	1018.13
390.22	985.37
390.42	1055.58
390.61	1088.35
390.81	1004.09
391.00	1100.05
391.19	1046.22
391.39	1020.47
391.58	1001.75
391.78	1053.24
391.97	1081.33
392.16	1032.18
392.36	1102.39
392.55	1074.31
392.75	1011.11
392.94	1050.90
393.13	1034.52
393.33	957.28
393.52	1071.97
393.71	1055.58
393.91	1102.39
394.10	1104.73
394.29	1205.38
394.49	1179.63
394.68	1198.35
394.88	1135.16
395.07	1207.72
395.26	1291.98
395.46	1334.11
395.65	1245.16
395.84	1249.85
396.04	1261.55
396.23	1156.22
396.42	1102.39
396.62	1242.82
396.81	1284.95
397.00	1226.44
397.19	1270.91
397.39	1277.93
397.58	1341.13
397.77	1369.21
397.97	1404.32
398.16	1465.18
398.35	1327.08
398.55	1397.30
398.74	1537.73
398.93	1434.75
399.12	1460.49
399.32	1430.07
399.51	1483.90
399.70	1441.77
399.90	1519.01
400.09	1563.48
400.28	1586.88
400.47	1701.57
400.67	1563.48
400.86	1640.72
401.05	1713.27
401.24	1650.08
401.44	1640.72
401.63	1748.38
401.82	1717.95
402.01	1680.50
402.21	1736.68
402.40	1633.69
402.59	1659.44
402.78	1598.59
402.97	1699.23
403.17	1783.49
403.36	1783.49
403.55	1881.79
403.74	1858.39
403.93	1825.62
404.13	1884.13
404.32	1813.92
404.51	1762.42
404.70	1916.90
404.89	1778.81
405.09	1933.28
405.28	1949.67
405.47	1919.24
405.66	1863.07
405.85	1926.26
406.05	2003.50
406.24	1928.60
406.43	2090.10
406.62	2036.27
406.81	1994.14
407.00	2047.97
407.20	1935.62
407.39	2129.89
407.58	2160.31
407.77	2005.84
407.96	2225.85
408.15	2228.19
408.34	2214.15
408.54	2221.17
408.73	2239.89
408.92	2293.72
409.11	2399.05
409.30	2265.64
409.49	2291.38
409.68	2221.17
409.87	2225.85
410.07	2305.43
410.26	2333.51
410.45	2434.16
410.64	2335.85
410.83	2490.33
411.02	2490.33
411.21	2576.93
411.40	2576.93
411.59	2548.84
411.78	2642.46
411.98	2445.86
412.17	2546.50
412.36	2670.55
412.55	2633.10
412.74	2677.57
412.93	2705.66
413.12	2654.17
413.31	2736.09
413.50	2738.43
413.69	2708.00
413.88	2850.77
414.07	2862.48
414.26	2970.14
414.45	2899.92
414.64	2897.58
414.83	2923.33
415.02	2883.54
415.22	3068.44
415.41	3084.83
415.60	3087.17
415.79	3136.32
415.98	3201.85
416.17	3112.91
416.36	3241.64
416.55	3150.36
416.74	3229.94
416.93	3192.49
417.12	3206.53
417.31	3248.66
417.50	3194.83
417.69	3461.65
417.88	3372.71
418.07	3258.03
418.26	3300.16
418.45	3337.60
418.64	3503.78
418.83	3496.76
419.02	3492.08
419.21	3513.14
419.39	3648.90
419.58	3552.93
419.77	3461.65
419.96	3653.58
420.15	3569.32
420.34	3545.91
420.53	3644.21
420.72	3737.84
420.91	3709.75
421.10	3822.09
421.29	3878.27
421.48	3728.47
421.67	3691.02
421.86	3777.62
422.05	3756.56
422.24	3627.83
422.43	3723.79
422.61	3777.62
422.80	3794.01
422.99	3817.41
423.18	3854.86
423.37	3775.28
423.56	3967.21
423.75	3957.85
423.94	3810.39
424.13	3618.47
424.32	3803.37
424.50	3754.22
424.69	3969.55
424.88	4002.32
425.07	3770.60
425.26	3751.88
425.45	3840.82
425.64	3894.65
425.83	3885.29
426.01	3995.29
426.20	3988.27
426.39	3948.48
426.58	3880.61
426.77	3906.35
426.96	3901.67
427.15	3920.40
427.33	4105.30
427.52	4039.76
427.71	3997.64
427.90	4025.72
428.09	4011.68
428.28	4117.00
428.46	4142.75
428.65	4119.34
428.84	4187.22
429.03	4205.94
429.22	3918.06
429.40	4243.39
429.59	3899.33
429.78	3894.65
429.97	3777.62
430.16	4079.55
430.34	4128.70
430.53	4234.03
430.72	4255.09
430.91	4124.02
431.10	4297.22
431.28	4447.02
431.47	4470.42
431.66	4337.01
431.85	4428.29
432.03	4564.04
432.22	4531.28
432.41	4479.79
432.60	4629.58
432.79	4542.98
432.97	4779.37
433.16	4678.73
433.35	4519.57
433.54	4496.17
433.72	4620.22
433.91	4802.78
434.10	4468.08
434.28	4781.71
434.47	4709.16
434.66	4683.41
434.85	4891.72
435.03	4760.65
435.22	4758.31
435.41	4891.72
435.59	4901.08
435.78	4978.32
435.97	5074.28
436.16	4945.55
436.34	5081.30
436.53	5076.62
436.72	5139.82
436.90	4983.00
437.09	5123.43
437.28	5050.88
437.46	5069.60
437.65	5188.97
437.84	5025.13
438.02	4980.66
438.21	5144.50
438.40	5214.71
438.58	5235.78
438.77	5341.10
438.96	5254.50
439.14	5338.76
439.33	5401.96
439.52	5390.25
439.70	5413.66
439.89	5530.69
440.08	5509.62
440.26	5612.60
440.45	5661.76
440.63	5621.97
440.82	5851.34
441.01	5710.91
441.19	5895.81
441.38	5940.28
441.57	5935.60
441.75	6113.48
441.94	6115.82
442.12	6141.57
442.31	6087.73
442.50	6097.10
442.68	6129.86
442.87	6216.46
443.05	6356.90
443.24	6427.11
443.43	6251.57
443.61	6228.17
443.80	6377.96
443.98	6143.91
444.17	5991.77
444.35	6469.24
444.54	6466.90
444.73	6347.53
444.91	6267.95
445.10	6349.87
445.28	6321.79
445.47	6427.11
445.65	6225.82
445.84	6375.62
446.02	6483.28
446.21	6553.50
446.39	6436.47
446.58	6504.35
446.77	6499.67
446.95	6483.28
447.14	6502.01
447.32	6537.12
447.51	6530.09
447.69	6558.18
447.88	6485.62
448.06	6616.69
448.25	6532.44
448.43	6635.42
448.62	6469.24
448.80	6609.67
448.99	6604.99
449.17	6609.67
449.36	6736.06
449.54	6677.55
449.73	6883.52
449.91	6939.69
450.10	7159.70
450.28	6920.96
450.46	6967.77
450.65	7047.35
450.83	7009.90
451.02	6935.01
451.20	7094.16
451.39	7185.44
451.57	7187.79
451.76	7005.22
451.94	7012.24
452.13	7033.31
452.31	7035.65
452.49	6747.76
452.68	7033.31
452.86	6965.43
453.05	7363.33
453.23	7393.75
453.42	7229.91
453.60	7115.23
453.78	7250.98
453.97	7279.07
454.15	7435.88
454.34	7227.57
454.52	7328.22
454.70	7215.87
454.89	7272.04
455.07	7391.41
455.26	7372.69
455.44	7550.57
455.62	7543.55
455.81	7520.14
455.99	7716.75
456.17	7538.87
456.36	7889.95
456.54	7672.28
456.73	7648.87
456.91	7896.97
457.09	7929.74
457.28	8107.62
457.46	7676.96
457.64	7875.90
457.83	8081.87
458.01	7918.03
458.19	8074.85
458.38	8004.63
458.56	8173.15
458.74	8126.34
458.93	7995.27
459.11	8135.70
459.29	8208.26
459.48	8273.79
459.66	8100.59
459.84	8135.70
460.03	8306.56
460.21	8229.32
460.39	8381.46
460.57	8332.31
460.76	8252.73
460.94	8383.80
461.12	8322.94
461.31	8402.52
461.49	8451.67
461.67	8475.08
461.85	8528.91
462.04	8479.76
462.22	9032.13
462.40	8774.67
462.59	8821.48
462.77	8468.06
462.95	8709.13
463.13	8826.16
463.32	8769.99
463.50	8769.99
463.68	8791.05
463.86	8781.69
464.05	8737.22
464.23	8784.03
464.41	8772.33
464.59	8545.30
464.78	9235.75
464.96	8938.51
465.14	8894.04
465.32	9195.96
465.50	9179.58
465.69	9177.24
465.87	9034.47
466.05	8901.06
466.23	9032.13
466.41	9048.51
466.60	9490.87
466.78	9123.41
466.96	9294.27
467.14	9076.60
467.32	9102.34
467.51	9329.38
467.69	8982.98
467.87	9259.16
468.05	9282.56
468.23	9167.88
468.41	9310.65
468.60	9315.33
468.78	9312.99
468.96	9341.08
469.14	9619.60
469.32	9451.08
469.50	9301.29
469.69	9659.39
469.87	9577.47
470.05	9589.17
470.23	9570.45
470.41	9734.29
470.59	9799.82
470.77	9750.67
470.95	9994.09
471.14	9912.17
471.32	9774.08
471.50	10122.82
471.68	10153.24
471.86	10031.54
472.04	10181.33
472.22	10387.30
472.40	10019.83
472.58	10253.89
472.77	10319.42
472.95	10497.30
473.13	10773.49
473.31	10546.45
473.49	10406.02
473.67	10420.06
473.85	10417.72
474.03	10796.89
474.21	10864.77
474.39	10906.90
474.57	10895.19
474.75	11089.46
474.93	10995.84
475.12	10841.36
475.30	11052.01
475.48	11253.30
475.66	11129.25
475.84	11248.61
476.02	11225.21
476.20	11283.72
476.38	11295.43
476.56	11515.44
476.74	11510.75
476.92	11665.23
477.10	11742.47
477.28	11868.86
477.46	11990.56
477.64	11955.46
477.82	12198.87
478.00	12603.78
478.18	12320.58
478.36	12388.46
478.54	12451.65
478.72	12376.75
478.90	12671.66
479.08	12840.18
479.26	12847.20
479.44	12812.09
479.62	12994.65
479.80	13085.94
479.98	13235.73
480.16	13336.37
480.34	13369.14
480.52	13692.13
480.70	13352.76
480.88	13579.79
481.06	13607.87
481.24	13834.91
481.41	14071.30
481.59	13970.66
481.77	14230.46
481.95	14160.24
482.13	14288.97
482.31	14263.22
482.49	14478.55
482.67	14518.34
482.85	14827.29
483.03	14665.80
483.21	14822.61
483.39	15005.17
483.57	15035.60
483.74	15297.74
483.92	15377.32
484.10	15358.60
484.28	15763.51
484.46	16105.23
484.64	16145.02
484.82	15854.79
485.00	15824.36
485.18	15868.83
485.35	16027.99
485.53	15761.17
485.71	16163.74
485.89	16439.92
486.07	16168.42
486.25	16489.07
486.43	16519.50
486.61	16812.07
486.78	17036.76
486.96	17001.65
487.14	17390.18
487.32	17542.32
487.50	17547.00
487.68	17940.21
487.85	17933.18
488.03	18139.15
488.21	18441.08
488.39	18157.88
488.57	18368.52
488.75	18485.55
488.92	18813.23
489.10	19105.79
489.28	19178.35
489.46	19330.48
489.64	19587.94
489.81	19901.58
489.99	19763.48
490.17	20107.54
490.35	20016.26
490.53	20042.01
490.70	20430.54
490.88	20037.33
491.06	20442.24
491.24	20835.45
491.41	20678.63
491.59	20709.06
491.77	20425.86
491.95	20753.53
492.13	20959.50
492.30	21343.35
492.48	21420.58
492.66	21434.63
492.84	21495.48
493.01	21680.38
493.19	21558.67
493.37	21837.20
493.54	21986.99
493.72	22080.61
493.90	22225.73
494.08	22499.57
494.25	22864.69
494.43	22951.29
494.61	23166.62
494.79	22927.89
494.96	23138.54
495.14	23332.80
495.32	23585.58
495.49	23384.29
495.67	23398.34
495.85	23850.06
496.02	23625.37
496.20	23962.40
496.38	24201.14
496.55	24484.34
496.73	24676.27
496.91	24163.69
497.09	24547.54
497.26	24772.23
497.44	24741.80
497.62	24542.86
497.79	24826.06
497.97	25095.22
498.14	25340.98
498.32	25350.34
498.50	25252.04
498.67	25750.57
498.85	25413.54
499.03	25893.35
499.20	26022.08
499.38	25956.54
499.56	26113.36
499.73	26195.28
499.91	26492.52
500.08	26237.41
500.26	25881.64
500.44	26637.64
500.61	26412.95
500.79	26396.56
500.97	26316.98
501.14	26852.97
501.32	26658.70
501.49	26864.67
501.67	27016.80
501.84	27178.30
502.02	26991.06
502.20	27391.29
502.37	27473.21
502.55	27117.45
502.72	27857.06
502.90	27793.86
503.07	27637.05
503.25	27798.54
503.43	27838.33
503.60	27864.08
503.78	28095.79
503.95	28056.00
504.13	28243.24
504.30	28180.05
504.48	28334.53
504.65	28797.95
504.83	29029.66
505.01	28802.63
505.18	28781.57
505.36	29219.25
505.53	29020.30
505.71	29429.90
505.88	29605.44
506.06	29326.91
506.23	29448.62
506.41	29287.12
506.58	29310.53
506.76	29053.07
506.93	29675.65
507.11	29764.59
507.28	29736.51
507.46	29621.82
507.63	29916.73
507.81	30164.82
507.98	29762.25
508.16	29928.43
508.33	30331.00
508.50	30410.58
508.68	30539.31
508.85	30958.27
509.03	30394.20
509.20	31061.25
509.38	30953.58
509.55	30773.36
509.73	30829.54
509.90	30764.00
510.08	30881.03
510.25	31302.32
510.42	31466.16
510.60	31578.51
510.77	31414.67
510.95	31611.28
511.12	31566.81
511.30	32109.81
511.47	31791.50
511.64	32004.49
511.82	32109.81
511.99	31899.16
512.17	32004.49
512.34	31915.54
512.51	32313.44
512.69	32465.57
512.86	32517.06
513.04	32451.53
513.21	32613.02
513.38	32273.65
513.56	33034.32
513.73	32060.66
513.90	32900.91
514.08	32800.27
514.25	32938.36
514.43	32936.02
514.60	33092.83
514.77	32959.42
514.95	33460.30
515.12	33111.56
515.29	33614.77
515.47	33991.60
515.64	33724.78
515.81	33795.00
515.99	33483.70
516.16	33495.41
516.33	33031.98
516.51	33149.01
516.68	33399.44
516.85	33310.50
517.03	33202.84
517.20	33780.95
517.37	33926.07
517.54	34174.16
517.72	33961.17
517.89	33596.05
518.06	33979.90
518.24	33893.30
518.41	34176.50
518.58	34323.96
518.75	34330.98
518.93	34436.30
519.10	34490.13
519.27	35253.15
519.45	34981.65
519.62	35079.95
519.79	34888.03
519.96	35484.86
520.14	35721.26
520.31	35105.70
520.48	35204.00
520.65	35154.85
520.83	35330.39
521.00	35377.20
521.17	35784.45
521.34	36018.50
521.52	35957.65
521.69	35651.04
521.86	36107.44
522.03	36121.49
522.20	35861.69
522.38	35840.62
522.55	36517.04
522.72	36538.10
522.89	35924.88
523.07	36275.96
523.24	36428.10
523.41	36723.01
523.58	36715.98
523.75	36837.69
523.92	37008.55
524.10	36814.29
524.27	37156.00
524.44	37130.26
524.61	37076.43
524.78	36816.63
524.96	36811.95
525.13	37322.18
525.30	37666.24
525.47	37326.86
525.64	37462.61
525.81	37560.92
525.98	37207.50
526.16	37235.58
526.33	37570.28
526.50	37347.93
526.67	36879.82
526.84	37500.06
527.01	37102.17
527.18	37778.59
527.36	37937.74
527.53	37944.76
527.70	38394.15
527.87	38211.59
528.04	37855.82
528.21	38270.10
528.38	38120.31
528.55	38391.81
528.72	38845.87
528.89	38600.12
529.07	38752.25
529.24	38447.98
529.41	38677.35
529.58	38780.34
529.75	38600.12
529.92	38511.17
530.09	39042.48
530.26	39040.14
530.43	38733.53
530.60	38714.80
530.77	38667.99
530.94	39218.02
531.11	38902.04
531.28	39000.35
531.46	39297.59
531.63	39377.17
531.80	39068.22
531.97	39524.63
532.14	39253.12
532.31	39042.48
532.48	39047.16
532.65	39428.66
532.82	39470.79
532.99	39510.58
533.16	39526.97
533.33	39714.21
533.50	39828.90
533.67	39585.48
533.84	39791.45
534.01	39777.40
534.18	39765.70
534.35	40163.59
534.52	40121.46
534.69	39985.71
534.86	40381.26
535.03	39920.18
535.20	40807.24
535.37	40612.98
535.54	40734.68
535.71	40652.76
535.88	40512.33
536.05	40507.65
536.22	40645.74
536.38	40762.77
536.55	40297.00
536.72	40348.50
536.89	40332.11
537.06	40509.99
537.23	40779.15
537.40	40442.12
537.57	40566.16
537.74	40807.24
537.91	41148.96
538.08	41172.36
538.25	41006.19
538.42	41060.02
538.59	41551.53
538.75	40755.75
538.92	41088.10
539.09	41177.04
539.26	41116.19
539.43	41251.94
539.60	41198.11
539.77	40610.64
539.94	41610.04
540.11	41240.24
540.28	41347.90
540.44	41167.68
540.61	41315.14
540.78	41380.67
540.95	41329.18
541.12	41343.22
541.29	41193.43
541.46	41474.29
541.62	41722.39
541.79	41727.07
541.96	41780.90
542.13	41783.24
542.30	41832.39
542.47	41883.89
542.63	42305.18
542.80	42085.17
542.97	42258.37
543.14	42703.07
543.31	42773.29
543.48	42347.31
543.64	43016.71
543.81	42560.30
543.98	42387.10
544.15	42623.50
544.32	42946.49
544.48	42824.78
544.65	42726.48
544.82	42773.29
544.99	42305.18
545.16	42616.47
545.32	42705.41
545.49	43611.20
545.66	43199.27
545.83	43264.80
546.00	43049.47
546.16	42897.34
546.33	42831.80
546.50	43084.58
546.67	43014.37
546.83	42789.67
547.00	43206.29
547.17	42981.60
547.34	43175.86
547.50	43021.39
547.67	43484.81
547.84	43356.08
548.00	43922.49
548.17	43835.89
548.34	43494.18
548.51	43842.92
548.67	43910.79
548.84	43543.33
549.01	43512.90
549.18	43524.60
549.34	43690.78
549.51	43807.81
549.68	44025.48
549.84	43641.63
550.01	44172.93
550.18	43807.81
550.34	43805.47
550.51	43899.09
550.68	43943.56
550.84	43487.15
551.01	44100.37
551.18	43945.90
551.34	44261.87
551.51	44009.09
551.68	44018.46
551.84	44299.32
552.01	43707.16
552.18	44006.75
552.34	43688.44
552.51	44236.12
552.68	44116.76
552.84	44505.29
553.01	44430.39
553.18	44184.63
553.34	44601.25
553.51	44301.66
553.67	44404.64
553.84	44851.69
554.01	44399.96
554.17	44905.52
554.34	44924.24
554.51	44886.79
554.67	44608.27
554.84	44257.19
555.00	44486.56
555.17	44411.67
555.33	44931.26
555.50	44818.92
555.67	44762.75
555.83	45146.59
556.00	44814.24
556.16	45024.89
556.33	45017.86
556.50	44987.44
556.66	44959.35
556.83	44868.07
556.99	44933.60
557.16	44879.77
557.32	45258.94
557.49	44921.90
557.65	45106.80
557.82	45139.57
557.98	44968.71
558.15	44959.35
558.32	45125.53
558.48	45048.29
558.65	45490.65
558.81	45088.08
558.98	44882.11
559.14	45069.36
559.31	45647.47
559.47	44992.12
559.64	45343.20
559.80	45738.75
559.97	45638.11
560.13	45036.59
560.30	45729.39
560.46	45041.27
560.63	45230.85
560.79	45886.20
560.96	45701.30
561.12	45144.25
561.29	45326.81
561.45	45867.48
561.61	45436.82
561.78	45881.52
561.94	45495.33
562.11	44985.10
562.27	45333.84
562.44	45324.47
562.60	45647.47
562.77	45888.54
562.93	45846.41
563.10	45762.15
563.26	45048.29
563.42	46036.00
563.59	45382.99
563.75	45329.16
563.92	45914.29
564.08	45397.03
564.24	45680.24
564.41	45766.84
564.57	45495.33
564.74	45813.65
564.90	45834.71
565.07	45879.18
565.23	45605.34
565.39	45453.20
565.56	45645.13
565.72	45504.70
565.88	45581.93
566.05	45954.08
566.21	45518.74
566.38	45876.84
566.54	45703.64
566.70	45984.51
566.87	46117.92
567.03	45703.64
567.19	46520.49
567.36	45827.69
567.52	45853.44
567.68	46239.62
567.85	45680.24
568.01	45598.32
568.17	45544.48
568.34	45956.42
568.50	45680.24
568.66	45759.81
568.83	46153.02
568.99	45343.20
569.15	45886.20
569.32	45443.84
569.48	45577.25
569.64	45904.93
569.81	45780.88
569.97	45951.74
570.13	45860.46
570.30	46045.36
570.46	45785.56
570.62	45656.83
570.78	45815.99
570.95	45612.36
571.11	45720.02
571.27	45921.31
571.43	45684.92
571.60	46089.83
571.76	45785.56
571.92	46225.58
572.09	45830.03
572.25	45954.08
572.41	46017.27
572.57	45977.48
572.74	46621.13
572.90	46398.78
573.06	46330.90
573.22	46265.37
573.38	45815.99
573.55	45963.44
573.71	46082.81
573.87	46506.44
574.03	45689.60
574.20	46141.32
574.36	46099.19
574.52	46361.33
574.68	45799.60
574.84	45844.07
575.01	46157.70
575.17	46490.06
575.33	45996.21
575.49	46045.36
575.65	46110.89
575.82	46387.08
575.98	45813.65
576.14	46560.28
576.30	46286.43
576.46	45907.27
576.62	45668.53
576.79	46017.27
576.95	45998.55
577.11	46174.09
577.27	46124.94
577.43	46366.01
577.59	46195.15
577.75	46110.89
577.92	46071.10
578.08	46052.38
578.24	46464.32
578.40	46211.54
578.56	45698.96
578.72	46160.05
578.88	46431.55
579.04	46525.17
579.21	45937.69
579.37	46014.93
579.53	46068.76
579.69	46066.42
579.85	46354.31
580.01	46422.19
580.17	45923.65
580.33	46183.45
580.49	46534.53
580.65	46445.59
580.82	46541.55
580.98	46136.64
581.14	45893.22
581.30	46499.42
581.46	46019.61
581.62	46127.28
581.78	46101.53
581.94	46600.07
582.10	46461.97
582.26	46469.00
582.42	46171.75
582.58	46323.88
582.74	46183.45
582.90	46333.24
583.06	46553.26
583.22	46234.94
583.38	46330.90
583.54	46745.18
583.70	46581.34
583.86	46330.90
584.02	45869.82
584.18	45979.82
584.34	46260.69
584.50	46197.49
584.66	46380.06
584.82	46361.33
584.98	46674.96
585.14	46546.23
585.30	45893.22
585.46	46337.93
585.62	46061.74
585.78	46330.90
585.94	45975.14
586.10	46185.79
586.26	46497.08
586.42	46471.34
586.58	46155.36
586.74	46473.68
586.90	46241.96
587.06	46579.00
587.22	46667.94
587.38	46440.91
587.54	46167.07
587.70	46642.20
587.86	46440.91
588.02	46295.80
588.18	46581.34
588.34	46361.33
588.49	45834.71
588.65	45928.33
588.81	46188.13
588.97	46092.17
589.13	45937.69
589.29	46480.70
589.45	46347.29
589.61	46553.26
589.77	46801.35
589.93	46103.87
590.08	46267.71
590.24	46705.39
590.40	46387.08
590.56	47016.68
590.72	46473.68
590.88	46689.01
591.04	46211.54
591.20	46721.77
591.35	46756.88
591.51	46822.42
591.67	46548.57
591.83	46405.80
591.99	46361.33
592.15	46124.94
592.31	46527.51
592.46	46361.33
592.62	46389.42
592.78	46440.91
592.94	46754.54
593.10	46433.89
593.26	46422.19
593.41	46181.11
593.57	46384.74
593.73	46625.81
593.89	46806.03
594.05	46480.70
594.20	46513.47
594.36	46845.82
594.52	46382.40
594.68	46635.17
594.84	46143.66
594.99	46955.83
595.15	46789.65
595.31	46628.15
595.47	46131.96
595.62	46913.70
595.78	46761.56
595.94	46714.75
596.10	46923.06
596.25	46845.82
596.41	46925.40
596.57	46382.40
596.73	46700.71
596.88	46110.89
597.04	46515.81
597.20	46997.96
597.36	46862.21
597.51	46871.57
597.67	46522.83
597.83	46815.40
597.99	46445.59
598.14	46733.48
598.30	46747.52
598.46	46611.77
598.61	46689.01
598.77	46366.01
598.93	46890.29
599.09	46384.74
599.24	46810.71
599.40	46719.43
599.56	46787.31
599.71	46487.72
599.87	46747.52
600.03	46796.67
600.18	46206.86
600.34	46569.64
600.50	47091.58
600.65	46555.60
600.81	46995.62
600.97	47044.77
601.12	46902.00
601.28	46717.09
601.44	46625.81
601.59	46426.87
601.75	46623.47
601.91	47047.11
602.06	46440.91
602.22	46630.49
602.37	46660.92
602.53	46871.57
602.69	46714.75
602.84	46506.44
603.00	46344.95
603.16	46672.62
603.31	46000.89
603.47	46361.33
603.62	46571.98
603.78	46602.41
603.94	46410.48
604.09	46871.57
604.25	46667.94
604.40	46394.10
604.56	46335.59
604.71	46506.44
604.87	46815.40
605.03	46562.62
605.18	46639.86
605.34	46464.32
605.49	46124.94
605.65	46656.24
605.80	46429.21
605.96	46635.17
606.12	46749.86
606.27	46864.55
606.43	46045.36
606.58	46433.89
606.74	46108.55
606.89	46635.17
607.05	46344.95
607.20	46632.83
607.36	46277.07
607.51	46667.94
607.67	46700.71
607.82	46426.87
607.98	46131.96
608.13	46085.15
608.29	45979.82
608.44	46117.92
608.60	45970.46
608.75	45975.14
608.91	45776.20
609.06	45869.82
609.22	46761.56
609.37	45797.26
609.53	46209.20
609.68	45783.22
609.84	46059.40
609.99	45895.56
610.15	46092.17
610.30	45940.04
610.46	45455.54
610.61	45907.27
610.76	45858.12
610.92	46061.74
611.07	46202.18
611.23	45844.07
611.38	46021.95
611.54	45958.76
611.69	45647.47
611.84	45530.44
612.00	45607.68
612.15	45474.27
612.31	46040.68
612.46	45731.73
612.62	45925.99
612.77	45991.53
612.92	46157.70
613.08	45963.44
613.23	45862.80
613.39	45654.49
613.54	44912.54
613.69	45825.35
613.85	45446.18
614.00	46078.13
614.15	45457.88
614.31	45652.15
614.46	45420.44
614.62	45815.99
614.77	45303.41
614.92	45457.88
615.08	45727.05
615.23	45378.31
615.38	45371.28
615.54	45146.59
615.69	45380.65
615.84	45069.36
616.00	45062.33
616.15	45041.27
616.30	44954.67
616.46	45130.21
616.61	44884.45
616.76	45663.85
616.92	44744.02
617.07	44603.59
617.22	44861.05
617.37	44720.62
617.53	45219.15
617.68	45144.25
617.83	45242.56
617.99	45294.05
618.14	45457.88
618.29	45198.09
618.45	44781.47
618.60	44884.45
618.75	44793.17
618.90	45422.78
619.06	44861.05
619.21	44971.05
619.36	44856.37
619.51	44608.27
619.67	44947.65
619.82	44861.05
619.97	45090.42
620.12	44296.98
620.28	44418.69
620.43	44301.66
620.58	44582.52
620.73	44545.08
620.89	44425.71
621.04	44559.12
621.19	44158.89
621.34	44313.36
621.49	44243.15
621.65	44563.80
621.80	44669.12
621.95	44212.72
622.10	44699.55
622.25	44432.73
622.41	43892.07
622.56	43697.80
622.71	44304.00
622.86	44137.82
623.01	43962.28
623.16	44437.41
623.32	43885.04
623.47	44121.44
623.62	44278.25
623.77	44027.82
623.92	43873.34
624.07	43744.61
624.23	43838.23
624.38	43718.87
624.53	43973.98
624.68	44006.75
624.83	43901.43
624.98	43828.87
625.13	43660.35
625.29	44018.46
625.44	43700.14
625.59	43487.15
625.74	43098.62
625.89	43519.92
626.04	43215.65
626.19	43089.26
626.34	43906.11
626.49	43861.64
626.65	43910.79
626.80	43730.57
626.95	43351.40
627.10	43461.41
627.25	43639.29
627.40	42923.08
627.55	42728.82
627.70	42691.37
627.85	42927.77
628.00	42958.19
628.15	42670.31
628.30	42883.30
628.45	43239.06
628.60	42974.58
628.76	43189.91
628.91	43330.34
629.06	42873.93
629.21	42927.77
629.36	42597.75
629.51	42777.97
629.66	42492.43
629.81	42410.51
629.96	42972.24
630.11	42590.73
630.26	43012.02
630.41	42948.83
630.56	42691.37
630.71	43075.22
630.86	42483.06
631.01	42534.56
631.16	42609.45
631.31	42862.23
631.46	42625.84
631.61	42560.30
631.76	42579.03
631.91	42890.32
632.06	42810.74
632.21	42480.72
632.36	42876.27
632.51	42122.62
632.66	42557.96
632.81	42089.85
632.96	42288.80
633.10	41858.14
633.25	42038.36
633.40	42359.02
633.55	42251.35
633.70	42295.82
633.85	42124.96
634.00	42321.57
634.15	42447.96
634.30	41961.12
634.45	41816.01
634.60	42169.43
634.75	41691.96
634.90	41673.24
635.05	42005.59
635.19	41893.25
635.34	41989.21
635.49	42295.82
635.64	41867.50
635.79	41888.57
635.94	41818.35
636.09	41930.70
636.24	41647.49
636.39	41584.30
636.53	41324.50
636.68	41275.35
636.83	41387.69
636.98	41565.57
637.13	41701.32
637.28	41420.46
637.43	41748.14
637.57	42174.11
637.72	41542.17
637.87	41794.95
638.02	41317.48
638.17	41935.38
638.32	41036.61
638.46	41174.70
638.61	41050.66
638.76	41078.74
638.91	41411.10
639.06	40982.78
639.20	41155.98
639.35	41219.17
639.50	41523.44
639.65	41378.33
639.80	40942.99
639.94	41265.99
640.09	41050.66
640.24	40638.72
640.39	40884.48
640.54	40737.02
640.68	41137.26
640.83	40783.83
640.98	40748.73
641.13	40898.52
641.27	41221.52
641.42	40715.96
641.57	41235.56
641.72	41034.27
641.86	40460.84
642.01	40353.18
642.16	40704.26
642.31	40451.48
642.45	40849.37
642.60	40224.45
642.75	40034.86
642.90	40465.52
643.04	40428.07
643.19	40072.31
643.34	40226.79
643.48	40851.71
643.63	40013.80
643.78	40243.17
643.93	40402.33
644.07	40435.10
644.22	40336.79
644.37	40402.33
644.51	40261.90
644.66	40151.89
644.81	40273.60
644.95	40418.71
645.10	40332.11
645.25	40376.58
645.39	40334.45
645.54	40065.29
645.69	40133.17
645.83	39789.11
645.98	40140.19
646.13	40044.23
646.27	39948.26
646.42	40142.53
646.57	40037.20
646.71	39908.47
646.86	40102.74
647.00	39903.79
647.15	39908.47
647.30	40100.40
647.44	39997.41
647.59	39681.44
647.74	39508.24
647.88	39562.08
648.03	39894.43
648.17	39566.76
648.32	39299.94
648.47	39473.13
648.61	39629.95
648.76	39810.17
648.90	39218.02
649.05	39541.01
649.20	39772.72
649.34	39957.63
649.49	39292.91
649.63	39487.18
649.78	39449.73
649.92	39267.17
650.07	39697.83
650.21	39257.81
650.36	39531.65
650.51	39147.80
650.65	39618.25
650.80	39515.26
650.94	39346.75
651.09	39395.90
651.23	39026.09
651.38	38859.91
651.52	38560.33
651.67	39047.16
651.81	39042.48
651.96	39124.40
652.10	38822.47
652.25	38813.10
652.39	38740.55
652.54	39325.68
652.68	39026.09
652.83	39180.57
652.97	39070.56
653.12	38892.68
653.26	38918.43
653.41	38508.83
653.55	38703.10
653.70	38253.72
653.84	38796.72
653.99	38822.47
654.13	38614.16
654.27	38988.64
654.42	38883.32
654.56	38211.59
654.71	38642.24
654.85	38464.36
655.00	38265.42
655.14	38033.71
655.29	38061.79
655.43	38036.05
655.57	37991.58
655.72	37930.72
655.86	37818.38
656.01	37832.42
656.15	37940.08
656.30	37846.46
656.44	37598.37
656.58	37542.19
656.73	37888.59
656.87	37897.95
657.01	37591.34
657.16	37593.68
657.30	37661.56
657.45	37586.66
657.59	38026.68
657.73	37511.77
657.88	38115.62
658.02	37787.95
658.16	37350.27
658.31	37699.01
658.45	38024.34
658.60	37750.50
658.74	37780.93
658.88	37350.27
659.03	37060.04
659.17	37275.37
659.31	37053.02
659.46	36994.51
659.60	37521.13
659.74	36854.08
659.89	37097.49
660.03	37130.26
660.17	37390.06
660.32	37244.94
660.46	36802.58
660.60	37116.22
660.74	37219.20
660.89	36531.08
661.03	36477.25
661.17	36765.14
661.32	36517.04
661.46	36577.89
661.60	36790.88
661.74	36952.38
661.89	37034.30
662.03	36474.91
662.17	36329.80
662.31	36189.36
662.46	36130.85
662.60	36098.08
662.74	36783.86
662.88	36727.69
663.03	35779.77
663.17	36025.53
663.31	35929.56
663.45	35974.03
663.60	35812.54
663.74	35917.86
663.88	36032.55
664.02	35620.61
664.17	35866.37
664.31	35477.84
664.45	35501.25
664.59	35747.00
664.73	35704.87
664.88	35491.88
665.02	35480.18
665.16	35438.05
665.30	35552.74
665.44	35302.30
665.59	35091.65
665.73	35339.75
665.87	35267.19
666.01	35299.96
666.15	35040.16
666.29	35157.19
666.44	35386.56
666.58	34995.69
666.72	34843.56
666.86	35332.73
667.00	35154.85
667.14	34925.47
667.28	34670.36
667.43	34466.73
667.57	34543.97
667.71	34448.00
667.85	34614.18
667.99	34251.40
668.13	34183.52
668.27	34567.37
668.41	34539.29
668.56	33933.09
668.70	34295.87
668.84	34064.16
668.98	33968.19
669.12	34059.48
669.26	34567.37
669.40	33874.57
669.54	33628.82
669.68	33905.00
669.82	34003.30
669.96	33366.68
670.10	33661.58
670.25	33755.21
670.39	33869.89
670.53	33284.76
670.67	33270.72
670.81	33830.10
670.95	33507.11
671.09	33670.95
671.23	33329.23
671.37	33343.27
671.51	33369.02
671.65	33039.00
671.79	32753.46
671.93	32872.82
672.07	32854.10
672.21	33202.84
672.35	32971.13
672.49	32556.85
672.63	32851.76
672.77	32720.69
672.91	32566.21
673.05	32002.14
673.19	32362.59
673.33	32222.16
673.47	32294.71
673.61	31740.00
673.75	32098.11
673.89	31798.52
674.03	31641.70
674.17	31192.32
674.31	31468.50
674.45	31653.40
674.59	31873.42
674.73	32041.93
674.87	31243.81
675.01	31693.19
675.15	31737.66
675.29	31363.18
675.43	31440.42
675.56	31470.84
675.70	31274.24
675.84	31225.09
675.98	29853.53
676.12	30881.03
676.26	30543.99
676.40	30417.60
676.54	30118.01
676.68	30712.51
676.82	29902.68
676.96	30401.22
677.10	30099.29
677.23	29909.71
677.37	29923.75
677.51	30143.76
677.65	29731.83
677.79	29659.27
677.93	29921.41
678.07	29621.82
678.21	29567.99
678.34	29528.20
678.48	29694.38
678.62	29401.81
678.76	29216.91
678.90	28872.85
679.04	28959.45
679.18	29074.13
679.31	28496.02
679.45	28931.36
679.59	28212.82
679.73	28510.07
679.87	28519.43
680.00	28170.69
680.14	28313.46
680.28	28346.23
680.42	27999.83
680.56	27983.44
680.70	27936.63
680.83	27838.33
680.97	28079.41
681.11	27981.10
681.25	27374.91
681.39	27566.83
681.52	27737.69
681.66	27580.87
681.80	27452.14
681.94	27250.86
682.07	26735.94
682.21	27452.14
682.35	26906.80
682.49	26836.58
682.62	26958.29
682.76	26438.69
682.90	26696.15
683.04	26614.23
683.17	26300.60
683.31	26221.02
683.45	26487.84
683.59	26066.55
683.72	26260.81
683.86	25802.07
684.00	25865.26
684.13	25898.03
684.27	25640.57
684.41	25483.75
684.55	25743.55
684.68	25315.23
684.82	25645.25
684.96	25362.04
685.09	25404.17
685.23	24915.00
685.37	25443.96
685.50	24917.34
685.64	25017.99
685.78	24765.21
685.91	25172.46
686.05	24599.03
686.19	24020.92
686.32	24446.90
686.46	24119.22
686.60	23819.63
686.73	24102.84
686.87	23538.77
687.01	23318.76
687.14	23339.82
687.28	23730.69
687.42	23555.15
687.55	23255.56
687.69	23435.78
687.82	22913.84
687.96	23381.95
688.10	23424.08
688.23	23239.18
688.37	22845.97
688.50	22988.74
688.64	22724.26
688.78	22642.34
688.91	22867.03
689.05	22483.19
689.18	22700.86
689.32	22022.10
689.46	22223.39
689.59	22483.19
689.73	22579.15
689.86	22342.75
690.00	22258.49
690.13	22333.39
690.27	21886.35
690.41	21832.52
690.54	21696.77
690.68	21582.08
690.81	21270.79
690.95	21303.56
691.08	21481.44
691.22	21336.32
691.35	21329.30
691.49	21341.00
691.62	21212.28
691.76	21223.98
691.89	21221.64
692.03	21226.32
692.16	20908.01
692.30	20655.23
692.43	20645.87
692.57	20608.42
692.70	20608.42
692.84	20357.98
692.97	20215.21
693.11	20086.48
693.24	20006.90
693.38	20152.01
693.51	19894.55
693.65	20180.10
693.78	20182.44
693.92	20006.90
694.05	19882.85
694.19	20018.60
694.32	19707.31
694.45	19491.98
694.59	19154.94
694.72	19136.22
694.86	19199.41
694.99	18932.59
695.13	19400.70
695.26	19274.31
695.39	18656.41
695.53	18607.26
695.66	18728.97
695.80	18539.38
695.93	18670.45
696.07	18384.91
696.20	18345.12
696.33	18675.13
696.47	18256.18
696.60	18143.83
696.73	18162.56
696.87	18099.36
697.00	18265.54
697.14	18167.24
697.27	17846.58
697.40	17956.59
697.54	17816.16
697.67	17734.24
697.80	17413.59
697.94	17802.11
698.07	17532.95
698.21	17071.87
698.34	17392.52
698.47	17504.87
698.61	16781.64
698.74	16926.75
698.87	16980.59
699.01	16542.91
699.14	16748.87
699.27	16514.82
699.40	16753.55
699.54	16636.53
699.67	16496.10
699.80	16482.05
699.94	16657.59
700.07	16255.02
700.20	16140.33
700.34	16423.54
700.47	15913.30
700.60	16283.11
700.73	16306.51
700.87	16196.51
701.00	15786.91
701.13	15885.22
701.26	15852.45
701.40	15697.97
701.53	15403.07
701.66	15726.06
701.79	15564.56
701.93	15335.19
702.06	15040.28
702.19	15140.93
702.32	15056.67
702.46	15234.55
702.59	15234.55
702.72	15094.11
702.85	14892.83
702.99	14881.13
703.12	14927.94
703.25	14953.68
703.38	14738.35
703.51	14677.50
703.65	14782.82
703.78	14354.51
703.91	14778.14
704.04	14553.45
704.17	14207.05
704.31	14136.84
704.44	14080.66
704.57	14202.37
704.70	13956.61
704.83	13937.89
704.96	13973.00
705.10	13872.36
705.23	14083.00
>>>>>End Processed Spectral Data<<<<<
