SpectraSuite Data File
++++++++++++++++++++++++++++++++++++
Date: Fri Oct 25 10:48:36 EDT 2013
User: price-jones
Dark Spectrum Present: No
Reference Spectrum Present: No
Number of Sampled Component Spectra: 1
Spectrometers: USB2+H05261
Integration Time (usec): 100000 (USB2+H05261)
Spectra Averaged: 1 (USB2+H05261)
Boxcar Smoothing: 0 (USB2+H05261)
Correct for Electrical Dark: No (USB2+H05261)
Strobe/Lamp Enabled: No (USB2+H05261)
Correct for Detector Non-linearity: No (USB2+H05261)
Correct for Stray Light: No (USB2+H05261)
Number of Pixels in Processed Spectrum: 2048
>>>>>Begin Processed Spectral Data<<<<<
365.73	138.09
365.92	138.09
366.12	138.09
366.32	23.41
366.52	72.56
366.72	79.58
366.91	30.43
367.11	63.19
367.31	4.68
367.51	60.85
367.70	60.85
367.90	84.26
368.10	7.02
368.30	117.03
368.49	46.81
368.69	126.39
368.89	49.15
369.09	67.88
369.28	133.41
369.48	72.56
369.68	95.96
369.87	88.94
370.07	117.03
370.27	170.86
370.47	238.73
370.66	442.36
370.86	418.96
371.06	512.58
371.25	472.79
371.45	475.13
371.65	461.09
371.84	489.17
372.04	428.32
372.24	477.47
372.44	517.26
372.63	547.69
372.83	533.64
373.03	519.60
373.22	585.13
373.42	528.96
373.62	580.45
373.81	571.09
374.01	596.84
374.21	667.05
374.40	638.97
374.60	699.82
374.79	585.13
374.99	596.84
375.19	671.73
375.38	638.97
375.58	559.39
375.78	627.26
375.97	622.58
376.17	702.16
376.37	688.12
376.56	706.84
376.76	702.16
376.95	653.01
377.15	629.60
377.35	690.46
377.54	702.16
377.74	685.78
377.93	627.26
378.13	697.48
378.33	791.10
378.52	739.61
378.72	660.03
378.91	760.67
379.11	699.82
379.31	744.29
379.50	737.27
379.70	725.57
379.89	741.95
380.09	723.23
380.28	695.14
380.48	772.38
380.68	793.44
380.87	732.59
381.07	760.67
381.26	819.19
381.46	737.27
381.65	748.97
381.85	718.54
382.04	760.67
382.24	791.10
382.43	688.12
382.63	784.08
382.83	737.27
383.02	882.38
383.22	837.91
383.41	692.80
383.61	755.99
383.80	847.27
384.00	875.36
384.19	826.21
384.39	849.61
384.58	833.23
384.78	917.49
384.97	915.15
385.17	788.76
385.36	903.45
385.56	917.49
385.75	861.32
385.95	896.43
386.14	807.48
386.34	844.93
386.53	884.72
386.72	856.64
386.92	912.81
387.11	842.59
387.31	936.21
387.50	866.00
387.70	868.34
387.89	919.83
388.09	966.64
388.28	1006.43
388.48	898.77
388.67	1132.82
388.86	1004.09
389.06	1011.11
389.25	1078.99
389.45	1125.80
389.64	1001.75
389.84	1050.90
390.03	1048.56
390.22	1046.22
390.42	1043.88
390.61	1102.39
390.81	1050.90
391.00	1144.52
391.19	1114.10
391.39	1177.29
391.58	1069.62
391.78	1043.88
391.97	1135.16
392.16	1011.11
392.36	1125.80
392.55	1100.05
392.75	1029.84
392.94	1034.52
393.13	1069.62
393.33	1107.07
393.52	1114.10
393.71	1137.50
393.91	1205.38
394.10	1217.08
394.29	1200.69
394.49	1299.00
394.68	1252.19
394.88	1256.87
395.07	1364.53
395.26	1291.98
395.46	1331.76
395.65	1226.44
395.84	1231.12
396.04	1378.58
396.23	1240.48
396.42	1184.31
396.62	1210.06
396.81	1196.01
397.00	1341.13
397.19	1462.83
397.39	1291.98
397.58	1476.88
397.77	1509.65
397.97	1469.86
398.16	1519.01
398.35	1528.37
398.55	1516.67
398.74	1537.73
398.93	1633.69
399.12	1547.09
399.32	1586.88
399.51	1593.90
399.70	1652.42
399.90	1605.61
400.09	1727.32
400.28	1727.32
400.47	1689.87
400.67	1703.91
400.86	1762.42
401.05	1788.17
401.24	1722.63
401.44	1842.00
401.63	1827.96
401.82	1767.10
402.01	1778.81
402.21	1816.26
402.40	1846.68
402.59	1900.52
402.78	1858.39
402.97	1797.53
403.17	1888.81
403.36	1785.83
403.55	1928.60
403.74	1977.75
403.93	1961.37
404.13	1973.07
404.32	1907.54
404.51	1921.58
404.70	1980.09
404.89	1966.05
405.09	1970.73
405.28	2036.27
405.47	2085.42
405.66	2113.50
405.85	2015.20
406.05	2134.57
406.24	2104.14
406.43	2120.53
406.62	2113.50
406.81	2373.30
407.00	2143.93
407.20	2097.12
407.39	2197.76
407.58	2284.36
407.77	2282.02
407.96	2279.68
408.15	2342.88
408.34	2347.56
408.54	2354.58
408.73	2408.41
408.92	2445.86
409.11	2406.07
409.30	2452.88
409.49	2457.56
409.68	2436.50
409.87	2380.32
410.07	2448.20
410.26	2466.92
410.45	2590.97
410.64	2492.67
410.83	2530.12
411.02	2586.29
411.21	2661.19
411.40	2729.06
411.59	2759.49
411.78	2729.06
411.98	2752.47
412.17	2691.62
412.36	2740.77
412.55	2778.22
412.74	2871.84
412.93	2803.96
413.12	2906.95
413.31	3019.29
413.50	3000.57
413.69	2892.90
413.88	3063.76
414.07	3009.93
414.26	2965.46
414.45	3112.91
414.64	3105.89
414.83	3258.03
415.02	3089.51
415.22	3166.74
415.41	3290.79
415.60	3180.79
415.79	3361.01
415.98	3332.92
416.17	3461.65
416.36	3236.96
416.55	3389.10
416.74	3417.18
416.93	3393.78
417.12	3438.25
417.31	3499.10
417.50	3461.65
417.69	3588.04
417.88	3698.05
418.07	3576.34
418.26	3604.42
418.45	3548.25
418.64	3796.35
418.83	3758.90
419.02	3716.77
419.21	3808.05
419.39	3817.41
419.58	3698.05
419.77	3693.37
419.96	3791.67
420.15	3845.50
420.34	3875.93
420.53	3913.38
420.72	3941.46
420.91	4039.76
421.10	4021.04
421.29	4042.11
421.48	3988.27
421.67	4095.94
421.86	3920.40
422.05	3988.27
422.24	3936.78
422.43	3995.29
422.61	4081.89
422.80	4065.51
422.99	3955.51
423.18	4109.98
423.37	4138.07
423.56	4098.28
423.75	4168.49
423.94	4056.15
424.13	3801.03
424.32	3948.48
424.50	4079.55
424.69	4175.52
424.88	4201.26
425.07	4166.15
425.26	3969.55
425.45	4236.37
425.64	4128.70
425.83	4074.87
426.01	4308.93
426.20	4156.79
426.39	4367.44
426.58	4053.81
426.77	4074.87
426.96	4086.58
427.15	4145.09
427.33	4217.65
427.52	4102.96
427.71	4379.14
427.90	4255.09
428.09	4318.29
428.28	4416.59
428.46	4294.88
428.65	4318.29
428.84	4533.62
429.03	4571.07
429.22	4306.59
429.40	4390.84
429.59	4290.20
429.78	4081.89
429.97	4009.34
430.16	4229.35
430.34	4271.48
430.53	4315.95
430.72	4318.29
430.91	4297.22
431.10	4566.39
431.28	4643.62
431.47	4704.48
431.66	4727.88
431.85	4655.33
432.03	4882.36
432.22	4910.44
432.41	4774.69
432.60	4685.75
432.79	4837.89
432.97	5055.56
433.16	5029.81
433.35	4791.08
433.54	4791.08
433.72	4957.25
433.91	4798.10
434.10	4990.02
434.28	4997.04
434.47	5034.49
434.66	5184.29
434.85	5121.09
435.03	5172.58
435.22	5240.46
435.41	5238.12
435.59	5320.04
435.78	5320.04
435.97	5408.98
436.16	5448.77
436.34	5420.68
436.53	5341.10
436.72	5441.75
436.90	5268.55
437.09	5474.51
437.28	5430.04
437.46	5338.76
437.65	5348.12
437.84	5451.11
438.02	5254.50
438.21	5284.93
438.40	5355.15
438.58	5657.07
438.77	5624.31
438.96	5633.67
439.14	5804.53
439.33	5870.06
439.52	5825.59
439.70	5827.93
439.89	5823.25
440.08	5970.71
440.26	5956.66
440.45	5914.53
440.63	6155.61
440.82	6181.35
441.01	6179.01
441.19	6221.14
441.38	6253.91
441.57	6221.14
441.75	6590.95
441.94	6513.71
442.12	6541.80
442.31	6539.46
442.50	6670.53
442.68	6434.13
442.87	6768.83
443.05	6689.25
443.24	6707.98
443.43	6729.04
443.61	6787.55
443.80	6932.67
443.98	6703.29
444.17	6511.37
444.35	6771.17
444.54	6815.64
444.73	6817.98
444.91	6773.51
445.10	6649.46
445.28	6651.80
445.47	6752.45
445.65	6726.70
445.84	6558.18
446.02	6899.90
446.21	6839.05
446.39	6862.45
446.58	7019.27
446.77	6923.30
446.95	6839.05
447.14	7091.82
447.32	7126.93
447.51	6904.58
447.69	6902.24
447.88	7021.61
448.06	6944.37
448.25	6946.71
448.43	7007.56
448.62	7101.19
448.80	7002.88
448.99	7005.22
449.17	7005.22
449.36	7197.15
449.54	7229.91
449.73	7211.19
449.91	7396.09
450.10	7426.52
450.28	7330.56
450.46	7391.41
450.65	7473.33
450.83	7585.68
451.02	7414.82
451.20	7627.81
451.39	7566.95
451.57	7391.41
451.76	7496.74
451.94	7517.80
452.13	7672.28
452.31	7541.21
452.49	7246.30
452.68	7552.91
452.86	7335.24
453.05	7618.44
453.23	7630.15
453.42	7604.40
453.60	7702.70
453.78	7838.45
453.97	7911.01
454.15	7637.17
454.34	7583.34
454.52	7726.11
454.70	7929.74
454.89	7936.76
455.07	7892.29
455.26	7925.05
455.44	8006.97
455.62	7936.76
455.81	8205.92
455.99	8074.85
456.17	8341.67
456.36	8376.78
456.54	8313.58
456.73	8353.37
456.91	8400.18
457.09	8355.71
457.28	8596.79
457.46	8315.92
457.64	8369.76
457.83	8381.46
458.01	8524.23
458.19	8592.11
458.38	8472.74
458.56	8615.51
458.74	8652.96
458.93	8692.75
459.11	8557.00
459.29	8608.49
459.48	8636.58
459.66	8695.09
459.84	8699.77
460.03	8788.71
460.21	8723.18
460.39	8704.45
460.57	8945.53
460.76	9027.45
460.94	8835.52
461.12	8929.14
461.31	8964.25
461.49	8837.86
461.67	8933.82
461.85	9240.44
462.04	9195.96
462.22	9495.55
462.40	9453.42
462.59	9289.59
462.77	9327.03
462.95	9315.33
463.13	9254.48
463.32	9280.22
463.50	9369.16
463.68	9320.01
463.86	9458.10
464.05	9301.29
464.23	9425.34
464.41	9317.67
464.59	9336.40
464.78	9624.28
464.96	9640.67
465.14	9413.63
465.32	9509.60
465.50	9392.57
465.69	9659.39
465.87	9647.69
466.05	9540.02
466.23	9671.09
466.41	9451.08
466.60	9664.07
466.78	9675.77
466.96	9619.60
467.14	9820.89
467.32	9701.52
467.51	9811.53
467.69	9687.48
467.87	9844.29
468.05	9884.08
468.23	9846.63
468.41	9771.74
468.60	9935.57
468.78	9966.00
468.96	9898.13
469.14	10279.63
469.32	10274.95
469.50	9853.66
469.69	10113.45
469.87	10167.29
470.05	10202.40
470.23	10141.54
470.41	10136.86
470.59	10298.36
470.77	10333.47
470.95	10345.17
471.14	10672.84
471.32	10408.36
471.50	10717.31
471.68	10691.57
471.86	10757.10
472.04	10785.19
472.22	10813.28
472.40	10796.89
472.58	10827.32
472.77	10874.13
472.95	10796.89
473.13	11424.15
473.31	10843.70
473.49	11056.69
473.67	11199.46
473.85	10984.13
474.03	11623.10
474.21	11424.15
474.39	11482.67
474.57	11513.10
474.75	11470.97
474.93	11744.81
475.12	11630.12
475.30	11798.64
475.48	11515.44
475.66	11634.80
475.84	11763.53
476.02	11840.77
476.20	11990.56
476.38	12255.04
476.56	12348.67
476.74	12236.32
476.92	12334.62
477.10	12393.14
477.28	12706.77
477.46	12652.94
477.64	12631.87
477.82	12755.92
478.00	13158.49
478.18	12968.91
478.36	13064.87
478.54	13130.41
478.72	13259.13
478.90	13404.25
479.08	13584.47
479.26	13841.93
479.44	13699.16
479.62	13851.29
479.80	13736.60
479.98	14071.30
480.16	14298.33
480.34	14106.41
480.52	14169.60
480.70	14375.57
480.88	13975.34
481.06	14457.49
481.24	14604.94
481.41	14684.52
481.59	14757.08
481.77	15288.38
481.95	15073.05
482.13	15311.78
482.31	15169.01
482.49	15496.69
482.67	15578.61
482.85	15604.35
483.03	15868.83
483.21	16086.50
483.39	16060.76
483.57	15971.82
483.74	16451.63
483.92	16278.43
484.10	16152.04
484.28	16723.13
484.46	16531.20
484.64	16915.05
484.82	16685.68
485.00	16996.97
485.18	16891.65
485.35	17219.32
485.53	16599.08
485.71	16526.52
485.89	16936.12
486.07	17305.92
486.25	17209.96
486.43	17518.91
486.61	17860.63
486.78	17781.05
486.96	18120.43
487.14	18359.16
487.32	18354.48
487.50	18506.62
487.68	18745.35
487.85	19190.05
488.03	19360.91
488.21	19248.57
488.39	19239.20
488.57	19438.15
488.75	19592.62
488.92	19985.83
489.10	19974.13
489.28	20365.00
489.46	20418.83
489.64	20556.93
489.81	20826.09
489.99	20842.47
490.17	20861.19
490.35	21406.54
490.53	21083.55
490.70	21645.27
490.88	21322.28
491.06	21495.48
491.24	21561.02
491.41	21553.99
491.59	21668.68
491.77	21507.18
491.95	21734.21
492.13	22015.08
492.30	22412.97
492.48	22382.54
492.66	22347.44
492.84	22576.81
493.01	22941.93
493.19	22700.86
493.37	22904.48
493.54	23211.09
493.72	23381.95
493.90	23592.60
494.08	23789.20
494.25	23655.79
494.43	24011.56
494.61	24400.08
494.79	24121.56
494.96	24233.91
495.14	24140.29
495.32	24400.08
495.49	24474.98
495.67	24573.28
495.85	25003.94
496.02	25474.39
496.20	25139.69
496.38	25333.96
496.55	25750.57
496.73	25991.65
496.91	26008.03
497.09	26153.15
497.26	26089.95
497.44	25844.20
497.62	26174.21
497.79	25979.95
497.97	25820.79
498.14	26256.13
498.32	26501.89
498.50	26600.19
498.67	27005.10
498.85	26602.53
499.03	27232.13
499.20	26731.26
499.38	27494.27
499.56	27447.46
499.73	27412.35
499.91	27590.24
500.08	27644.07
500.26	27363.20
500.44	27505.98
500.61	27850.03
500.79	27435.76
500.97	27789.18
501.14	27810.25
501.32	28105.15
501.49	27901.53
501.67	28137.92
501.84	28507.72
502.02	28364.95
502.20	28914.98
502.37	28856.46
502.55	28900.94
502.72	29200.52
502.90	29043.71
503.07	29090.52
503.25	29336.27
503.43	28982.85
503.60	29235.63
503.78	29120.95
503.95	29364.36
504.13	29596.07
504.30	29738.85
504.48	29823.11
504.65	29905.02
504.83	30218.66
505.01	30375.47
505.18	30242.06
505.36	30686.76
505.53	30600.16
505.71	30998.06
505.88	30841.24
506.06	30391.86
506.23	30780.39
506.41	30476.12
506.58	30448.03
506.76	31185.30
506.93	30862.30
507.11	31068.27
507.28	31131.47
507.46	30862.30
507.63	31185.30
507.81	31510.63
507.98	31407.65
508.16	31681.49
508.33	31700.22
508.50	31573.83
508.68	31742.35
508.85	32224.50
509.03	31997.46
509.20	32554.51
509.38	32456.21
509.55	32542.81
509.73	32573.24
509.90	32173.00
510.08	32575.58
510.25	32655.15
510.42	32837.72
510.60	33137.30
510.77	32987.51
510.95	33572.64
511.12	33308.16
511.30	33432.21
511.47	33530.51
511.64	33977.56
511.82	33855.85
511.99	33092.83
512.17	33570.30
512.34	33497.75
512.51	33591.37
512.69	34132.03
512.86	34188.21
513.04	34162.46
513.21	33736.48
513.38	34015.01
513.56	34279.49
513.73	34068.84
513.90	34305.23
514.08	34473.75
514.25	34389.49
514.43	34335.66
514.60	34469.07
514.77	34621.20
514.95	34747.59
515.12	34803.77
515.29	34782.70
515.47	34972.28
515.64	35585.50
515.81	34724.19
515.99	34939.52
516.16	35131.44
516.33	34719.51
516.51	35101.01
516.68	34396.51
516.85	34263.10
517.03	35016.75
517.20	35129.10
517.37	35152.51
517.54	35548.06
517.72	35393.58
517.89	35278.89
518.06	34932.50
518.24	35328.05
518.41	35318.68
518.58	35917.86
518.75	35625.29
518.93	36381.29
519.10	36233.83
519.27	36275.96
519.45	36730.03
519.62	36694.92
519.79	36451.50
519.96	36615.34
520.14	36863.44
520.31	36510.02
520.48	36898.55
520.65	36659.81
520.83	37193.45
521.00	37001.53
521.17	37439.21
521.34	37474.32
521.52	37378.36
521.69	37528.15
521.86	37507.08
522.03	37818.38
522.20	37645.18
522.38	37631.13
522.55	37916.68
522.72	37759.86
522.89	37617.09
523.07	37951.79
523.24	37935.40
523.41	38103.92
523.58	37923.70
523.75	38675.01
523.92	38696.08
524.10	38838.85
524.27	38775.66
524.44	38452.66
524.61	38691.40
524.78	38785.02
524.96	38712.46
525.13	39077.58
525.30	39232.06
525.47	39566.76
525.64	38747.57
525.81	39255.46
525.98	38873.96
526.16	38370.74
526.33	38600.12
526.50	38763.95
526.67	38801.40
526.84	38770.97
527.01	38951.20
527.18	39391.22
527.36	39477.82
527.53	39604.20
527.70	39704.85
527.87	39885.07
528.04	40027.84
528.21	39950.60
528.38	40039.54
528.55	40158.91
528.72	40093.38
528.89	40020.82
529.07	40184.66
529.24	40219.77
529.41	40268.92
529.58	40051.25
529.75	40236.15
529.92	40404.67
530.09	40399.99
530.26	40266.58
530.43	40563.82
530.60	40517.01
530.77	40587.23
530.94	40556.80
531.11	40816.60
531.28	40474.88
531.46	41038.95
531.63	41202.79
531.80	40884.48
531.97	40767.45
532.14	40889.16
532.31	40512.33
532.48	41045.97
532.65	41038.95
532.82	41305.77
532.99	41357.27
533.16	40996.82
533.33	41036.61
533.50	41265.99
533.67	41345.56
533.84	41497.70
534.01	41408.76
534.18	41361.95
534.35	41706.01
534.52	41621.75
534.69	41921.34
534.86	41720.05
535.03	41549.19
535.20	41996.23
535.37	42429.23
535.54	41989.21
535.71	42141.35
535.88	42099.22
536.05	41855.80
536.22	42157.73
536.38	42202.20
536.55	42155.39
536.72	42307.52
536.89	41673.24
537.06	42211.56
537.23	42424.55
537.40	42450.30
537.57	42478.38
537.74	42284.12
537.91	42841.17
538.08	42899.68
538.25	42621.16
538.42	43000.32
538.59	43000.32
538.75	42424.55
538.92	42972.24
539.09	42761.59
539.26	43168.84
539.43	42670.31
539.60	42733.50
539.77	42782.65
539.94	42663.28
540.11	42682.01
540.28	42803.72
540.44	42639.88
540.61	43187.56
540.78	42747.54
540.95	42555.62
541.12	43306.93
541.29	43440.34
541.46	43138.41
541.62	43395.87
541.79	43412.26
541.96	43192.25
542.13	43358.42
542.30	43562.05
542.47	43400.55
542.63	43164.16
542.80	43615.88
542.97	44140.16
543.14	44020.80
543.31	43826.53
543.48	43920.15
543.64	44755.72
543.81	44437.41
543.98	44046.54
544.15	44191.65
544.32	44182.29
544.48	44800.19
544.65	44266.55
544.82	44076.97
544.99	43863.98
545.16	44404.64
545.32	44100.37
545.49	44678.49
545.66	44821.26
545.83	44610.61
546.00	44875.09
546.16	44645.72
546.33	44362.51
546.50	44196.34
546.67	44521.67
546.83	44332.09
547.00	44690.19
547.17	44348.47
547.34	44816.58
547.50	44648.06
547.67	44725.30
547.84	44870.41
548.00	45331.50
548.17	45277.66
548.34	44741.68
548.51	45294.05
548.67	44886.79
548.84	45226.17
549.01	45111.49
549.18	45492.99
549.34	45350.22
549.51	45635.77
549.68	45464.91
549.84	45523.42
550.01	45387.67
550.18	45549.17
550.34	45181.70
550.51	45495.33
550.68	45460.23
550.84	45078.72
551.01	45418.10
551.18	45326.81
551.34	45825.35
551.51	45904.93
551.68	45846.41
551.84	45855.78
552.01	45769.18
552.18	45687.26
552.34	45104.46
552.51	46017.27
552.68	45736.41
552.84	45689.60
553.01	46171.75
553.18	45963.44
553.34	45722.37
553.51	45247.24
553.67	45937.69
553.84	46073.45
554.01	46234.94
554.17	46358.99
554.34	46092.17
554.51	45984.51
554.67	45902.59
554.84	46028.98
555.00	46244.30
555.17	46143.66
555.33	46045.36
555.50	46066.42
555.67	46387.08
555.83	45846.41
556.00	46176.43
556.16	46939.44
556.33	46274.73
556.50	46197.49
556.66	46143.66
556.83	45743.43
556.99	46466.66
557.16	46742.84
557.32	45942.38
557.49	46852.84
557.65	46183.45
557.82	46206.86
557.98	46646.88
558.15	46185.79
558.32	46532.19
558.48	46358.99
558.65	46408.14
558.81	46560.28
558.98	46459.63
559.14	46777.95
559.31	46712.41
559.47	46204.52
559.64	46670.28
559.80	46658.58
559.97	46897.31
560.13	46382.40
560.30	46284.09
560.46	46845.82
560.63	46408.14
560.79	47061.15
560.96	46948.81
561.12	46356.65
561.29	46906.68
561.45	46614.11
561.61	46351.97
561.78	46845.82
561.94	46597.73
562.11	46852.84
562.27	46541.55
562.44	47035.41
562.60	47157.11
562.77	47033.07
562.93	46497.08
563.10	47037.75
563.26	46625.81
563.42	46806.03
563.59	46728.80
563.75	47016.68
563.92	47353.72
564.08	47089.24
564.24	47023.70
564.41	46920.72
564.57	46876.25
564.74	47107.96
564.90	46880.93
565.07	46988.60
565.23	46986.25
565.39	46766.24
565.56	47440.32
565.72	46892.63
565.88	47051.79
566.05	46934.76
566.21	47222.65
566.38	47114.98
566.54	46799.01
566.70	47615.86
566.87	47358.40
567.03	47505.85
567.19	47676.71
567.36	47449.68
567.52	47091.58
567.68	46944.12
567.85	46761.56
568.01	47253.08
568.17	47171.16
568.34	47400.53
568.50	47491.81
568.66	47079.88
568.83	47157.11
568.99	47110.30
569.15	46902.00
569.32	47297.55
569.48	47323.29
569.64	47117.32
569.81	47468.40
569.97	47185.20
570.13	47454.36
570.30	47056.47
570.46	46880.93
570.62	46567.30
570.78	47014.34
570.95	47089.24
571.11	47629.90
571.27	47143.07
571.43	46927.74
571.60	47524.58
571.76	47180.52
571.92	47192.22
572.09	47203.92
572.25	47201.58
572.41	47770.33
572.57	47421.59
572.74	48060.56
572.90	47412.23
573.06	47587.77
573.22	47440.32
573.38	47096.26
573.55	47159.45
573.71	47667.35
573.87	47683.73
574.03	47110.30
574.20	47248.39
574.36	47246.05
574.52	47171.16
574.68	47744.59
574.84	47257.76
575.01	47426.28
575.17	47065.83
575.33	47154.77
575.49	47269.46
575.65	47498.83
575.82	47690.76
575.98	47234.35
576.14	47669.69
576.30	47821.83
576.46	47033.07
576.62	47489.47
576.79	47365.42
576.95	47391.17
577.11	47377.12
577.27	47356.06
577.43	47487.13
577.59	47409.89
577.75	47334.99
577.92	47068.17
578.08	47012.00
578.24	46742.84
578.40	47180.52
578.56	47054.13
578.72	47360.74
578.88	47721.18
579.04	47723.52
579.21	47323.29
579.37	47239.03
579.53	47393.51
579.69	47239.03
579.85	47667.35
580.01	47728.20
580.17	47239.03
580.33	47505.85
580.49	47648.63
580.65	47613.52
580.82	47257.76
580.98	47260.10
581.14	47154.77
581.30	47562.03
581.46	47599.47
581.62	47920.13
581.78	47236.69
581.94	47524.58
582.10	47391.17
582.26	47475.43
582.42	47255.42
582.58	47723.52
582.74	47463.72
582.90	47449.68
583.06	47880.34
583.22	47957.58
583.38	47700.12
583.54	47578.41
583.70	47281.16
583.86	47578.41
584.02	47187.54
584.18	47559.69
584.34	47665.01
584.50	47477.77
584.66	47498.83
584.82	46965.19
584.98	47803.10
585.14	47704.80
585.30	47030.72
585.46	47409.89
585.62	47381.80
585.78	47145.41
585.94	46897.31
586.10	47309.25
586.26	47531.60
586.42	47494.15
586.58	47571.39
586.74	47625.22
586.90	47241.37
587.06	47744.59
587.22	47821.83
587.38	47622.88
587.54	47505.85
587.70	47992.68
587.86	47253.08
588.02	47543.30
588.18	47760.97
588.34	47187.54
588.49	47290.52
588.65	47164.14
588.81	46976.89
588.97	47215.63
589.13	46894.97
589.29	47243.71
589.45	47086.90
589.61	47660.33
589.77	47559.69
589.93	47533.94
590.08	47847.57
590.24	47643.94
590.40	47784.38
590.56	47793.74
590.72	47950.56
590.88	47529.26
591.04	47784.38
591.20	47796.08
591.35	47498.83
591.51	48198.65
591.67	47613.52
591.83	47569.05
591.99	47234.35
592.15	47753.95
592.31	47660.33
592.46	47615.86
592.62	47655.65
592.78	47772.67
592.94	47540.96
593.10	47241.37
593.26	48093.33
593.41	47903.74
593.57	47650.97
593.73	47714.16
593.89	47622.88
594.05	47751.61
594.20	47215.63
594.36	47203.92
594.52	47587.77
594.68	47742.25
594.84	47709.48
594.99	48086.31
595.15	47618.20
595.31	47625.22
595.47	47861.61
595.62	47601.82
595.78	47660.33
595.94	47934.17
596.10	48175.25
596.25	47978.64
596.41	48390.58
596.57	47702.46
596.73	47817.14
596.88	47711.82
597.04	47562.03
597.20	47550.32
597.36	47665.01
597.51	48107.37
597.67	47468.40
597.83	47805.44
597.99	48158.86
598.14	47767.99
598.30	47896.72
598.46	47051.79
598.61	47807.78
598.77	47716.50
598.93	47601.82
599.09	47428.62
599.24	48083.97
599.40	47964.60
599.56	47775.02
599.71	47786.72
599.87	47517.56
600.03	47906.08
600.18	47489.47
600.34	47454.36
600.50	47742.25
600.65	47751.61
600.81	47805.44
600.97	47957.58
601.12	48282.91
601.28	47870.98
601.44	47084.56
601.59	47543.30
601.75	47494.15
601.91	47445.00
602.06	48004.39
602.22	47461.38
602.37	47482.45
602.53	47510.53
602.69	47807.78
602.84	47901.40
603.00	47611.18
603.16	47384.15
603.31	47346.70
603.47	47742.25
603.62	47433.30
603.78	47796.08
603.94	47672.03
604.09	48044.18
604.25	47763.31
604.40	48009.07
604.56	47716.50
604.71	47629.90
604.87	47550.32
605.03	47749.27
605.18	47075.19
605.34	47089.24
605.49	47423.93
605.65	47704.80
605.80	47449.68
605.96	47363.08
606.12	47526.92
606.27	47997.37
606.43	47201.58
606.58	47452.02
606.74	47384.15
606.89	47122.01
607.05	47201.58
607.20	47253.08
607.36	47381.80
607.51	47910.77
607.67	47634.58
607.82	47915.45
607.98	47711.82
608.13	47765.65
608.29	47257.76
608.44	47117.32
608.60	46784.97
608.75	46799.01
608.91	47068.17
609.06	47023.70
609.22	47592.45
609.37	47098.60
609.53	47344.36
609.68	47327.97
609.84	46864.55
609.99	47107.96
610.15	46939.44
610.30	46944.12
610.46	46873.91
610.61	47229.67
610.76	47178.18
610.92	47122.01
611.07	46845.82
611.23	46787.31
611.38	47107.96
611.54	46808.37
611.69	46658.58
611.84	46754.54
612.00	46604.75
612.15	46588.36
612.31	47070.51
612.46	46630.49
612.62	47395.85
612.77	46775.61
612.92	46953.49
613.08	46848.16
613.23	46974.55
613.39	46681.98
613.54	46361.33
613.69	46541.55
613.85	47000.30
614.00	46492.40
614.15	46923.06
614.31	46930.08
614.46	46660.92
614.62	46628.15
614.77	46277.07
614.92	46431.55
615.08	46674.96
615.23	46859.87
615.38	46405.80
615.54	46391.76
615.69	46319.20
615.84	46176.43
616.00	46279.41
616.15	46157.70
616.30	45869.82
616.46	45780.88
616.61	46036.00
616.76	46265.37
616.92	46096.85
617.07	46454.95
617.22	46209.20
617.37	46124.94
617.53	46232.60
617.68	46117.92
617.83	46478.36
617.99	46335.59
618.14	45975.14
618.29	46330.90
618.45	45696.62
618.60	45911.95
618.75	46146.00
618.90	45553.85
619.06	45977.48
619.21	45944.72
619.36	45792.58
619.51	46075.79
619.67	45844.07
619.82	45574.91
619.97	45844.07
620.12	45464.91
620.28	45265.96
620.43	45687.26
620.58	45490.65
620.73	45251.92
620.89	45387.67
621.04	45352.56
621.19	45382.99
621.34	45581.93
621.49	45153.62
621.65	45631.08
621.80	45670.87
621.95	44870.41
622.10	45525.76
622.25	45277.66
622.41	45331.50
622.56	45198.09
622.71	45544.48
622.86	45272.98
623.01	44942.97
623.16	45373.63
623.32	45146.59
623.47	45387.67
623.62	45280.00
623.77	45230.85
623.92	44952.33
624.07	44903.18
624.23	44774.45
624.38	44486.56
624.53	44877.43
624.68	45034.25
624.83	44732.32
624.98	44996.80
625.13	44781.47
625.29	44882.11
625.44	44722.96
625.59	44664.44
625.74	44465.50
625.89	43985.69
626.04	44341.45
626.19	44378.90
626.34	44381.24
626.49	44406.98
626.65	44549.76
626.80	44472.52
626.95	44332.09
627.10	44168.25
627.25	43798.44
627.40	44177.61
627.55	43983.35
627.70	43430.98
627.85	44332.09
628.00	43950.58
628.15	44058.24
628.30	43929.51
628.45	44362.51
628.60	43964.62
628.76	44041.86
628.91	43941.22
629.06	44048.88
629.21	43770.36
629.36	43906.11
629.51	43494.18
629.66	43543.33
629.81	43714.19
629.96	43892.07
630.11	43763.34
630.26	43976.33
630.41	43583.12
630.56	43409.92
630.71	43653.33
630.86	43690.78
631.01	43543.33
631.16	43161.82
631.31	43393.53
631.46	43213.31
631.61	43346.72
631.76	43622.90
631.91	43524.60
632.06	43938.88
632.21	43531.62
632.36	43952.92
632.51	43133.73
632.66	43494.18
632.81	42756.91
632.96	43262.46
633.10	42995.64
633.25	43005.00
633.40	43187.56
633.55	43126.71
633.70	43353.74
633.85	43000.32
634.00	43276.51
634.15	42609.45
634.30	43023.73
634.45	42693.71
634.60	42916.06
634.75	42951.17
634.90	43288.21
635.05	43262.46
635.19	42663.28
635.34	43236.72
635.49	42799.04
635.64	42693.71
635.79	42843.51
635.94	42543.92
636.09	42794.36
636.24	42691.37
636.39	42396.46
636.53	42579.03
636.68	42534.56
636.83	42546.26
636.98	42660.94
637.13	42375.40
637.28	42593.07
637.43	42564.98
637.57	42794.36
637.72	42117.94
637.87	42539.24
638.02	42768.61
638.17	42330.93
638.32	41965.81
638.46	42057.09
638.61	41963.46
638.76	41619.41
638.91	42188.16
639.06	42672.65
639.20	42052.41
639.35	42164.75
639.50	41823.03
639.65	42225.60
639.80	42265.39
639.94	41773.88
640.09	42007.94
640.24	41876.86
640.39	41708.35
640.54	41663.88
640.68	41668.56
640.83	42073.47
640.98	41383.01
641.13	41347.90
641.27	41621.75
641.42	41530.47
641.57	41771.54
641.72	41588.98
641.86	41294.07
642.01	41612.38
642.16	41649.83
642.31	41280.03
642.45	41752.82
642.60	40861.07
642.75	41331.52
642.90	41525.78
643.04	41078.74
643.19	41698.98
643.34	41495.36
643.48	41209.81
643.63	41343.22
643.78	41317.48
643.93	41088.10
644.07	40950.01
644.22	41453.23
644.37	40458.50
644.51	41102.15
644.66	40781.49
644.81	40620.00
644.95	41060.02
645.10	41242.58
645.25	41092.79
645.39	40886.82
645.54	41113.85
645.69	41134.92
645.83	41125.55
645.98	40966.40
646.13	40624.68
646.27	40751.07
646.42	40444.46
646.57	40980.44
646.71	40821.28
646.86	40631.70
647.00	41043.63
647.15	40601.27
647.30	40275.94
647.44	40275.94
647.59	40725.32
647.74	40128.48
647.88	40301.68
648.03	40224.45
648.17	40315.73
648.32	40149.55
648.47	40289.98
648.61	39754.00
648.76	40622.34
648.90	40486.59
649.05	40048.91
649.20	40271.26
649.34	40687.87
649.49	40215.08
649.63	40456.16
649.78	40147.21
649.92	40032.52
650.07	40451.48
650.21	39976.35
650.36	40399.99
650.51	40135.51
650.65	40526.38
650.80	40421.05
650.94	40339.13
651.09	40311.05
651.23	39833.58
651.38	39611.23
651.52	39473.13
651.67	40002.10
651.81	39400.58
651.96	39374.83
652.10	39817.19
652.25	39653.36
652.39	39632.29
652.54	40081.67
652.68	39920.18
652.83	39791.45
652.97	39739.96
653.12	40006.78
653.26	39541.01
653.41	39880.39
653.55	39697.83
653.70	39335.04
653.84	39721.23
653.99	39505.90
654.13	39332.70
654.27	39398.24
654.42	39260.15
654.56	39262.49
654.71	39084.61
654.85	39566.76
655.00	39096.31
655.14	38375.42
655.29	39093.97
655.43	39019.07
655.57	38801.40
655.72	38429.26
655.86	38387.13
656.01	38588.41
656.15	38359.04
656.30	38272.44
656.44	38370.74
656.58	38422.23
656.73	38038.39
656.87	38419.89
657.01	38485.43
657.16	38408.19
657.30	38373.08
657.45	38380.10
657.59	38682.03
657.73	38220.95
657.88	38607.14
658.02	38237.33
658.16	38546.28
658.31	38710.12
658.45	38660.97
658.60	38375.42
658.74	38525.22
658.88	38328.61
659.03	38113.28
659.17	37926.04
659.31	38588.41
659.46	38045.41
659.60	38246.69
659.74	38443.30
659.89	38012.64
660.03	38075.84
660.17	37949.45
660.32	38387.13
660.46	38242.01
660.60	37975.19
660.74	38195.20
660.89	37680.28
661.03	37642.84
661.17	37497.72
661.32	37064.72
661.46	37780.93
661.60	37399.42
661.74	37455.59
661.89	37326.86
662.03	37146.64
662.17	36959.40
662.31	37383.04
662.46	37368.99
662.60	37415.80
662.74	36840.03
662.88	36987.49
663.03	37134.94
663.17	37071.75
663.31	36659.81
663.45	36945.36
663.60	36926.63
663.74	36488.95
663.88	36568.53
664.02	36357.88
664.17	36849.39
664.31	36486.61
664.45	36392.99
664.59	36608.32
664.73	36538.10
664.88	36488.95
665.02	36009.14
665.16	36535.76
665.30	36226.81
665.44	36172.98
665.59	35852.33
665.73	36313.41
665.87	35730.62
666.01	35805.52
666.15	35704.87
666.29	35704.87
666.44	36348.52
666.58	35576.14
666.72	35768.07
666.86	36004.46
667.00	35833.60
667.14	35194.64
667.28	35154.85
667.43	35480.18
667.57	35669.76
667.71	35442.73
667.85	35452.09
667.99	35012.07
668.13	35196.98
668.27	34668.02
668.41	34925.47
668.56	34679.72
668.70	34700.78
668.84	34845.90
668.98	34888.03
669.12	34693.76
669.26	34335.66
669.40	34464.39
669.54	34267.78
669.68	34836.53
669.82	34403.53
669.96	34307.57
670.10	34345.02
670.25	34050.11
670.39	34497.16
670.53	34209.27
670.67	33837.12
670.81	34029.05
670.95	34064.16
671.09	34125.01
671.23	33933.09
671.37	34223.31
671.51	33696.69
671.65	33670.95
671.79	33490.73
671.93	33572.64
672.07	33504.77
672.21	33638.18
672.35	33151.35
672.49	33481.36
672.63	33214.54
672.77	33387.74
672.91	33050.70
673.05	33343.27
673.19	32767.50
673.33	32706.65
673.47	32865.80
673.61	32315.78
673.75	32687.92
673.89	32252.58
674.03	32486.64
674.17	32673.88
674.31	32666.86
674.45	32187.05
674.59	32435.14
674.73	32360.25
674.87	32184.71
675.01	32552.17
675.15	32336.84
675.29	32245.56
675.43	31896.82
675.56	31812.56
675.70	32039.59
675.84	31262.54
675.98	30890.39
676.12	31604.25
676.26	31454.46
676.40	31578.51
676.54	31381.90
676.68	31133.81
676.82	30543.99
676.96	30654.00
677.10	30789.75
677.23	30806.13
677.37	30604.84
677.51	30817.83
677.65	30574.42
677.79	30260.79
677.93	30249.08
678.07	30543.99
678.21	29883.96
678.34	30000.99
678.48	29780.98
678.62	30169.51
678.76	29575.01
678.90	29589.05
679.04	29401.81
679.18	29795.02
679.31	29280.10
679.45	28929.02
679.59	28807.31
679.73	29151.37
679.87	29127.97
680.00	28931.36
680.14	29111.58
680.28	28821.36
680.42	28795.61
680.56	28481.98
680.70	28329.84
680.83	28217.50
680.97	28299.42
681.11	28140.26
681.25	28048.98
681.39	28093.45
681.52	28102.81
681.66	28184.73
681.80	28180.05
681.94	27840.67
682.07	27866.42
682.21	27513.00
682.35	27899.19
682.49	27613.64
682.62	27627.68
682.76	27058.93
682.90	27105.74
683.04	27285.97
683.17	27182.98
683.31	26904.46
683.45	26864.67
683.59	26848.29
683.72	26689.13
683.86	26487.84
684.00	26143.78
684.13	26368.48
684.27	26155.49
684.41	26305.28
684.55	25982.29
684.68	25689.72
684.82	25891.01
684.96	25979.95
685.09	26101.65
685.23	25518.86
685.37	25343.32
685.50	25621.84
685.64	25724.83
685.78	25186.50
685.91	25668.66
686.05	24842.45
686.19	25039.05
686.32	24968.84
686.46	24648.18
686.60	24067.73
686.73	24367.32
686.87	24123.90
687.01	23714.31
687.14	23744.73
687.28	23534.09
687.42	23929.64
687.55	23386.63
687.69	23218.11
687.82	23852.40
687.96	23953.04
688.10	23726.01
688.23	23700.26
688.37	23506.00
688.50	22979.38
688.64	23274.29
688.78	22953.63
688.91	22820.22
689.05	23206.41
689.18	22902.14
689.32	22820.22
689.46	22384.88
689.59	22705.54
689.73	22930.23
689.86	22721.92
690.00	22321.69
690.13	22852.99
690.27	22412.97
690.41	22178.92
690.54	22183.60
690.68	22148.49
690.81	21998.70
690.95	21724.85
691.08	21982.31
691.22	21528.25
691.35	21668.68
691.49	22040.82
691.62	21727.19
691.76	21745.92
691.89	21530.59
692.03	21366.75
692.16	21001.63
692.30	21212.28
692.43	21050.78
692.57	20856.51
692.70	20746.51
692.84	21188.87
692.97	20475.01
693.11	20893.96
693.24	20273.72
693.38	20655.23
693.51	20140.31
693.65	20329.89
693.78	20201.16
693.92	20194.14
694.05	20070.09
694.19	19644.12
694.32	19704.97
694.45	19971.79
694.59	19641.78
694.72	19693.27
694.86	19840.72
694.99	19335.17
695.13	19377.30
695.26	19286.01
695.39	19264.95
695.53	19447.51
695.66	19211.12
695.80	19248.57
695.93	19075.37
696.07	18876.42
696.20	18834.29
696.33	18871.74
696.47	18897.49
696.60	18771.10
696.73	18759.39
696.87	18546.40
697.00	18387.25
697.14	18583.85
697.27	18200.01
697.40	18214.05
697.54	18408.31
697.67	17834.88
697.80	17771.69
697.94	17799.77
698.07	18097.02
698.21	17649.98
698.34	17479.12
698.47	17425.29
698.61	17329.33
698.74	17146.76
698.87	17139.74
699.01	17341.03
699.14	16875.26
699.27	16872.92
699.40	17165.49
699.54	16805.05
699.67	16725.47
699.80	16627.17
699.94	16407.16
700.07	16809.73
700.20	16643.55
700.34	16208.21
700.47	16177.78
700.60	16332.26
700.73	16369.71
700.87	16304.17
701.00	16238.64
701.13	15974.16
701.26	16203.53
701.40	16098.20
701.53	15915.64
701.66	15623.08
701.79	15719.04
701.93	15714.36
702.06	15419.45
702.19	15482.64
702.32	15669.89
702.46	15597.33
702.59	15262.63
702.72	15129.22
702.85	15398.38
702.99	15169.01
703.12	15351.57
703.25	15190.08
703.38	14941.98
703.51	14841.34
703.65	14850.70
703.78	14579.20
703.91	14864.74
704.04	14824.95
704.17	14450.47
704.31	14300.67
704.44	14183.65
704.57	14010.45
704.70	13902.78
704.83	14190.67
704.96	14094.71
705.10	14136.84
705.23	14122.79
>>>>>End Processed Spectral Data<<<<<
