SpectraSuite Data File
++++++++++++++++++++++++++++++++++++
Date: Fri Oct 25 11:34:05 EDT 2013
User: price-jones
Dark Spectrum Present: No
Reference Spectrum Present: No
Number of Sampled Component Spectra: 1
Spectrometers: USB2+H05261
Integration Time (usec): 100000 (USB2+H05261)
Spectra Averaged: 1 (USB2+H05261)
Boxcar Smoothing: 0 (USB2+H05261)
Correct for Electrical Dark: No (USB2+H05261)
Strobe/Lamp Enabled: No (USB2+H05261)
Correct for Detector Non-linearity: No (USB2+H05261)
Correct for Stray Light: No (USB2+H05261)
Number of Pixels in Processed Spectrum: 2048
>>>>>Begin Processed Spectral Data<<<<<
365.73	304.27
365.92	304.27
366.12	304.27
366.32	222.35
366.52	170.86
366.72	203.63
366.91	168.52
367.11	159.16
367.31	184.90
367.51	166.18
367.70	154.48
367.90	212.99
368.10	154.48
368.30	126.39
368.49	215.33
368.69	208.31
368.89	154.48
369.09	187.24
369.28	210.65
369.48	231.71
369.68	264.48
369.87	154.48
370.07	259.80
370.27	264.48
370.47	358.10
370.66	482.15
370.86	531.30
371.06	554.71
371.25	617.90
371.45	519.60
371.65	535.98
371.84	594.50
372.04	507.90
372.24	552.37
372.44	526.62
372.63	559.39
372.83	573.43
373.03	575.77
373.22	564.07
373.42	573.43
373.62	603.86
373.81	692.80
374.01	645.99
374.21	606.20
374.40	734.93
374.60	660.03
374.79	596.84
374.99	608.54
375.19	578.11
375.38	622.58
375.58	683.44
375.78	645.99
375.97	645.99
376.17	692.80
376.37	688.12
376.56	723.23
376.76	692.80
376.95	629.60
377.15	706.84
377.35	725.57
377.54	744.29
377.74	720.88
377.93	737.27
378.13	655.35
378.33	648.33
378.52	716.20
378.72	713.86
378.91	763.01
379.11	709.18
379.31	636.63
379.50	624.92
379.70	711.52
379.89	777.06
380.09	746.63
380.28	697.48
380.48	723.23
380.68	709.18
380.87	763.01
381.07	784.08
381.26	711.52
381.46	770.04
381.65	718.54
381.85	763.01
382.04	765.36
382.24	849.61
382.43	774.72
382.63	751.31
382.83	748.97
383.02	774.72
383.22	807.48
383.41	755.99
383.61	884.72
383.80	856.64
384.00	791.10
384.19	767.70
384.39	866.00
384.58	788.76
384.78	840.25
384.97	856.64
385.17	770.04
385.36	823.87
385.56	800.46
385.75	795.78
385.95	849.61
386.14	800.46
386.34	847.27
386.53	823.87
386.72	798.12
386.92	924.51
387.11	938.55
387.31	847.27
387.50	889.40
387.70	952.60
387.89	922.17
388.09	870.68
388.28	826.21
388.48	830.89
388.67	940.90
388.86	880.04
389.06	973.66
389.25	905.79
389.45	922.17
389.64	954.94
389.84	1022.81
390.03	940.90
390.22	980.68
390.42	954.94
390.61	943.24
390.81	997.07
391.00	1064.94
391.19	990.05
391.39	922.17
391.58	1074.31
391.78	964.30
391.97	999.41
392.16	1015.79
392.36	1060.26
392.55	1100.05
392.75	1137.50
392.94	1055.58
393.13	1022.81
393.33	1086.01
393.52	1048.56
393.71	1034.52
393.91	1027.50
394.10	1043.88
394.29	1069.62
394.49	1097.71
394.68	1160.91
394.88	1071.97
395.07	1102.39
395.26	1135.16
395.46	1111.75
395.65	1228.78
395.84	1242.82
396.04	1240.48
396.23	1128.14
396.42	1282.61
396.62	1184.31
396.81	1252.19
397.00	1259.21
397.19	1142.18
397.39	1200.69
397.58	1270.91
397.77	1249.85
397.97	1191.33
398.16	1226.44
398.35	1247.51
398.55	1247.51
398.74	1296.66
398.93	1259.21
399.12	1282.61
399.32	1167.93
399.51	1296.66
399.70	1364.53
399.90	1359.85
400.09	1418.36
400.28	1376.24
400.47	1413.68
400.67	1329.42
400.86	1348.15
401.05	1345.81
401.24	1315.38
401.44	1474.54
401.63	1425.39
401.82	1439.43
402.01	1373.89
402.21	1472.20
402.40	1549.43
402.59	1526.03
402.78	1486.24
402.97	1521.35
403.17	1511.99
403.36	1446.45
403.55	1542.41
403.74	1535.39
403.93	1610.29
404.13	1607.95
404.32	1549.43
404.51	1526.03
404.70	1579.86
404.89	1706.25
405.09	1675.82
405.28	1710.93
405.47	1657.10
405.66	1703.91
405.85	1596.25
406.05	1781.15
406.24	1732.00
406.43	1701.57
406.62	1767.10
406.81	1870.09
407.00	1727.32
407.20	1820.94
407.39	1795.19
407.58	1935.62
407.77	1743.70
407.96	1748.38
408.15	1832.64
408.34	1834.98
408.54	1891.15
408.73	1891.15
408.92	1900.52
409.11	1980.09
409.30	1952.01
409.49	1940.30
409.68	2003.50
409.87	1968.39
410.07	1998.82
410.26	2078.40
410.45	2045.63
410.64	2139.25
410.83	2139.25
411.02	2111.16
411.21	2150.95
411.40	2092.44
411.59	2078.40
411.78	2066.69
411.98	2120.53
412.17	2335.85
412.36	2284.36
412.55	2289.04
412.74	2279.68
412.93	2284.36
413.12	2111.16
413.31	2305.43
413.50	2296.07
413.69	2443.52
413.88	2314.79
414.07	2553.52
414.26	2382.67
414.45	2506.71
414.64	2473.95
414.83	2417.77
415.02	2551.18
415.22	2621.40
415.41	2546.50
415.60	2612.04
415.79	2663.53
415.98	2658.85
416.17	2761.83
416.36	2628.42
416.55	2808.64
416.74	2846.09
416.93	2733.75
417.12	2745.45
417.31	2813.32
417.50	2857.79
417.69	2850.77
417.88	2923.33
418.07	2825.03
418.26	2883.54
418.45	2899.92
418.64	3124.62
418.83	3033.33
419.02	3045.04
419.21	2993.55
419.39	3075.46
419.58	2977.16
419.77	3103.55
419.96	3110.57
420.15	3129.30
420.34	3183.13
420.53	3234.62
420.72	3133.98
420.91	3087.17
421.10	3136.32
421.29	3211.22
421.48	3267.39
421.67	3255.69
421.86	3159.72
422.05	3300.16
422.24	3274.41
422.43	3169.09
422.61	3342.28
422.80	3370.37
422.99	3328.24
423.18	3349.31
423.37	3318.88
423.56	3274.41
423.75	3353.99
423.94	3274.41
424.13	3199.51
424.32	3225.26
424.50	3452.29
424.69	3606.77
424.88	3419.52
425.07	3286.11
425.26	3375.05
425.45	3412.50
425.64	3218.24
425.83	3363.35
426.01	3309.52
426.20	3321.22
426.39	3463.99
426.58	3372.71
426.77	3522.51
426.96	3578.68
427.15	3501.44
427.33	3606.77
427.52	3447.61
427.71	3613.79
427.90	3531.87
428.09	3623.15
428.28	3625.49
428.46	3714.43
428.65	3658.26
428.84	3674.64
429.03	3779.97
429.22	3541.23
429.40	3599.74
429.59	3749.54
429.78	3548.25
429.97	3688.68
430.16	3772.94
430.34	3627.83
430.53	3859.54
430.72	3784.65
430.91	3819.75
431.10	3763.58
431.28	3896.99
431.47	3836.14
431.66	3995.29
431.85	3838.48
432.03	3913.38
432.22	4021.04
432.41	4023.38
432.60	4091.26
432.79	4025.72
432.97	3969.55
433.16	4095.94
433.35	3950.82
433.54	4095.94
433.72	4105.30
433.91	4124.02
434.10	4191.90
434.28	4166.15
434.47	4131.05
434.66	4196.58
434.85	4252.75
435.03	4283.18
435.22	4374.46
435.41	4388.50
435.59	4346.37
435.78	4355.74
435.97	4386.16
436.16	4388.50
436.34	4381.48
436.53	4475.10
436.72	4397.87
436.90	4304.25
437.09	4552.34
437.28	4381.48
437.46	4421.27
437.65	4454.04
437.84	4505.53
438.02	4559.36
438.21	4617.88
438.40	4348.72
438.58	4627.24
438.77	4681.07
438.96	4554.68
439.14	4720.86
439.33	4706.82
439.52	4765.33
439.70	4875.34
439.89	4844.91
440.08	5036.83
440.26	5020.45
440.45	5071.94
440.63	4858.95
440.82	4983.00
441.01	4936.19
441.19	5200.67
441.38	5156.20
441.57	5160.88
441.75	5151.52
441.94	5158.54
442.12	5195.99
442.31	5317.70
442.50	5434.72
442.68	5352.81
442.87	5434.72
443.05	5327.06
443.24	5380.89
443.43	5483.88
443.61	5437.06
443.80	5607.92
443.98	5371.53
444.17	5275.57
444.35	5497.92
444.54	5455.79
444.73	5411.32
444.91	5540.05
445.10	5561.11
445.28	5640.69
445.47	5526.00
445.65	5570.48
445.84	5593.88
446.02	5652.39
446.21	5593.88
446.39	5486.22
446.58	5621.97
446.77	5729.63
446.95	5638.35
447.14	5575.16
447.32	5605.58
447.51	5680.48
447.69	5703.89
447.88	5722.61
448.06	5675.80
448.25	5577.50
448.43	5755.38
448.62	5696.86
448.80	5610.26
448.99	5628.99
449.17	5753.04
449.36	5851.34
449.54	5860.70
449.73	6005.81
449.91	5888.79
450.10	5830.27
450.28	6005.81
450.46	5959.00
450.65	6216.46
450.83	5877.09
451.02	5940.28
451.20	6132.20
451.39	5994.11
451.57	6106.46
451.76	6031.56
451.94	6183.70
452.13	6232.85
452.31	6113.48
452.49	6090.07
452.68	6312.42
452.86	6115.82
453.05	6356.90
453.23	6422.43
453.42	6214.12
453.60	6230.51
453.78	6345.19
453.97	6256.25
454.15	6174.33
454.34	6242.21
454.52	6399.02
454.70	6443.49
454.89	6347.53
455.07	6523.07
455.26	6574.56
455.44	6485.62
455.62	6651.80
455.81	6506.69
455.99	6633.08
456.17	6612.01
456.36	6757.13
456.54	6764.15
456.73	6633.08
456.91	6878.83
457.09	6892.88
457.28	7028.63
457.46	6733.72
457.64	6942.03
457.83	6958.41
458.01	6995.86
458.19	7035.65
458.38	6913.94
458.56	7070.76
458.74	6998.20
458.93	6988.84
459.11	7173.74
459.29	7171.40
459.48	6986.50
459.66	7073.10
459.84	7239.28
460.03	7222.89
460.21	7337.58
460.39	7258.00
460.57	7379.71
460.76	7382.05
460.94	7290.77
461.12	7452.27
461.31	7307.15
461.49	7370.35
461.67	7360.98
461.85	7485.03
462.04	7365.67
462.22	7754.19
462.40	7588.02
462.59	7470.99
462.77	7421.84
462.95	7705.04
463.13	7566.95
463.32	7676.96
463.50	7691.00
463.68	7798.66
463.86	7957.82
464.05	7644.19
464.23	7630.15
464.41	7962.50
464.59	7637.17
464.78	8035.06
464.96	7967.18
465.14	7765.90
465.32	7861.86
465.50	7943.78
465.69	7936.76
465.87	7733.13
466.05	8030.38
466.23	8161.45
466.41	8056.12
466.60	8306.56
466.78	7960.16
466.96	7992.93
467.14	8112.30
467.32	8124.00
467.51	8175.49
467.69	8131.02
467.87	8018.68
468.05	8175.49
468.23	8262.09
468.41	8407.20
468.60	8313.58
468.78	8369.76
468.96	8294.86
469.14	8435.29
469.32	8566.36
469.50	8273.79
469.69	8425.93
469.87	8336.99
470.05	8692.75
470.23	8617.85
470.41	8622.53
470.59	8662.32
470.77	8734.88
470.95	8945.53
471.14	9004.04
471.32	8725.52
471.50	8908.08
471.68	8812.12
471.86	8924.46
472.04	8957.23
472.22	9214.69
472.40	8894.04
472.58	9074.26
472.77	9029.79
472.95	9217.03
473.13	9547.05
473.31	9254.48
473.49	9399.59
473.67	9397.25
473.85	9654.71
474.03	9586.83
474.21	9544.70
474.39	9439.38
474.57	9596.20
474.75	9888.76
474.93	9792.80
475.12	9692.16
475.30	10029.20
475.48	9760.03
475.66	10113.45
475.84	10029.20
476.02	10071.33
476.20	10033.88
476.38	10178.99
476.56	10359.21
476.74	10546.45
476.92	10384.96
477.10	10235.16
477.28	10546.45
477.46	10736.04
477.64	10537.09
477.82	10874.13
478.00	10981.79
478.18	11012.22
478.36	10960.73
478.54	11066.05
478.72	11276.70
478.90	11243.93
479.08	11700.34
479.26	11604.38
479.44	11534.16
479.62	11796.30
479.80	11690.98
479.98	11648.85
480.16	12116.95
480.34	11901.62
480.52	12081.85
480.70	12058.44
480.88	12081.85
481.06	12093.55
481.24	12294.83
481.41	12559.31
481.59	12435.27
481.77	12512.50
481.95	12622.51
482.13	12526.55
482.31	12816.77
482.49	13200.62
482.67	13025.08
482.85	13329.35
483.03	13495.53
483.21	13343.39
483.39	13652.34
483.57	13362.12
483.74	13717.88
483.92	13764.69
484.10	13635.96
484.28	14064.28
484.46	14251.52
484.64	14284.29
484.82	14092.37
485.00	14373.23
485.18	14965.39
485.35	14663.46
485.53	14719.63
485.71	14923.26
485.89	15283.70
486.07	15115.18
486.25	15323.49
486.43	15250.93
486.61	15545.84
486.78	15241.57
486.96	15531.80
487.14	15960.11
487.32	15618.39
487.50	16404.81
487.68	16074.80
487.85	16049.05
488.03	16201.19
488.21	16531.20
488.39	16769.94
488.57	16929.09
488.75	16964.20
488.92	17001.65
489.10	17121.02
489.28	17481.46
489.46	17724.88
489.64	17270.81
489.81	18012.76
489.99	17678.07
490.17	17713.17
490.35	18029.15
490.53	18197.67
490.70	18389.59
490.88	18429.38
491.06	18691.52
491.24	18721.95
491.41	18773.44
491.59	18719.60
491.77	18735.99
491.95	19154.94
492.13	19405.38
492.30	19096.43
492.48	19407.72
492.66	19417.08
492.84	19667.52
493.01	19915.62
493.19	19716.67
493.37	20187.12
493.54	20034.99
493.72	20217.55
493.90	20493.73
494.08	20482.03
494.25	20418.83
494.43	20776.94
494.61	20592.03
494.79	20889.28
494.96	20610.76
495.14	21111.63
495.32	21731.87
495.49	21207.59
495.67	21551.65
495.85	21460.37
496.02	21720.17
496.20	21664.00
496.38	21919.12
496.55	21795.07
496.73	22595.53
496.91	22424.67
497.09	22424.67
497.26	22548.72
497.44	22443.40
497.62	22750.01
497.79	22906.82
497.97	22827.24
498.14	22911.50
498.32	23697.92
498.50	23426.42
498.67	23545.79
498.85	23346.84
499.03	23330.46
499.20	23658.14
499.38	23683.88
499.56	24189.44
499.73	24341.57
499.91	24395.40
500.08	24409.45
500.26	23896.87
500.44	24432.85
500.61	24393.06
500.79	24308.80
500.97	24517.11
501.14	24746.48
501.32	24730.10
501.49	24711.38
501.67	25020.33
501.84	25041.39
502.02	25001.60
502.20	25359.70
502.37	25120.97
502.55	25343.32
502.72	25448.64
502.90	25474.39
503.07	25355.02
503.25	25621.84
503.43	25362.04
503.60	25549.29
503.78	25649.93
503.95	25902.71
504.13	25919.09
504.30	25914.41
504.48	26256.13
504.65	26300.60
504.83	26389.54
505.01	26661.04
505.18	26721.90
505.36	26902.12
505.53	26780.41
505.71	26934.88
505.88	27054.25
506.06	26761.69
506.23	27461.51
506.41	26864.67
506.58	27211.07
506.76	27388.95
506.93	27398.31
507.11	27468.53
507.28	27615.98
507.46	27969.40
507.63	27573.85
507.81	27931.95
507.98	27880.46
508.16	27765.78
508.33	28212.82
508.50	28531.13
508.68	28362.61
508.85	28371.97
509.03	28140.26
509.20	28559.22
509.38	28809.65
509.55	28952.43
509.73	28903.28
509.90	29074.13
510.08	29301.17
510.25	29001.58
510.42	29369.04
510.60	29106.90
510.77	29312.87
510.95	29692.04
511.12	28900.94
511.30	29504.79
511.47	29596.07
511.64	29408.83
511.82	29914.39
511.99	30136.74
512.17	30232.70
512.34	30015.03
512.51	30625.91
512.69	30139.08
512.86	30405.90
513.04	30260.79
513.21	29944.81
513.38	30326.32
513.56	30462.07
513.73	30616.55
513.90	30450.37
514.08	30424.62
514.25	30766.34
514.43	31012.10
514.60	30857.62
514.77	31133.81
514.95	31250.83
515.12	31007.42
515.29	31089.34
515.47	31264.88
515.64	31218.07
515.81	30874.01
515.99	31360.84
516.16	31962.36
516.33	31569.15
516.51	31845.33
516.68	31690.85
516.85	32135.56
517.03	32496.00
517.20	32229.18
517.37	32053.64
517.54	31894.48
517.72	32376.63
517.89	32048.96
518.06	32896.23
518.24	32341.52
518.41	32304.07
518.58	32236.20
518.75	32453.87
518.93	32739.41
519.10	32744.09
519.27	32833.04
519.45	32858.78
519.62	32917.29
519.79	33153.69
519.96	33163.05
520.14	33322.21
520.31	32996.87
520.48	33207.52
520.65	33280.08
520.83	33776.27
521.00	33965.85
521.17	33827.76
521.34	33514.13
521.52	34071.18
521.69	33769.25
521.86	33851.17
522.03	34281.83
522.20	34543.97
522.38	34403.53
522.55	34560.35
522.72	34286.51
522.89	34700.78
523.07	34740.57
523.24	34632.91
523.41	34480.77
523.58	34342.68
523.75	34827.17
523.92	34499.50
524.10	35079.95
524.27	34948.88
524.44	35044.84
524.61	35138.46
524.78	35152.51
524.96	35365.49
525.13	35206.34
525.30	35828.92
525.47	35269.53
525.64	35147.82
525.81	35868.71
525.98	35913.18
526.16	35508.27
526.33	35714.23
526.50	35728.28
526.67	35828.92
526.84	35929.56
527.01	35941.27
527.18	35852.33
527.36	36306.39
527.53	36212.77
527.70	36322.77
527.87	36793.22
528.04	36577.89
528.21	36299.37
528.38	36280.64
528.55	36971.10
528.72	36467.89
528.89	36627.04
529.07	36725.35
529.24	36748.75
529.41	36877.48
529.58	36774.50
529.75	36802.58
529.92	37015.57
530.09	36931.31
530.26	37050.68
530.43	37003.87
530.60	37097.49
530.77	36900.89
530.94	37317.50
531.11	37179.41
531.28	37610.07
531.46	37469.64
531.63	37904.98
531.80	37553.90
531.97	37539.85
532.14	37635.81
532.31	37467.30
532.48	38171.80
532.65	38019.66
532.82	37617.09
532.99	38319.25
533.16	37717.73
533.33	37900.29
533.50	38260.74
533.67	37787.95
533.84	38061.79
534.01	38565.01
534.18	38274.78
534.35	38604.80
534.52	38106.26
534.69	38735.87
534.86	38415.21
535.03	38185.84
535.20	38471.39
535.37	38230.31
535.54	38792.04
535.71	38756.93
535.88	38925.45
536.05	38803.74
536.22	39269.51
536.38	39136.10
536.55	38927.79
536.72	38864.60
536.89	38899.70
537.06	39342.06
537.23	39545.69
537.40	39044.82
537.57	38796.72
537.74	39140.78
537.91	39400.58
538.08	39313.98
538.25	39227.38
538.42	39622.93
538.59	39653.36
538.75	39395.90
538.92	39962.31
539.09	39833.58
539.26	40072.31
539.43	39915.50
539.60	39901.45
539.77	39463.77
539.94	39798.47
540.11	39889.75
540.28	40088.70
540.44	39964.65
540.61	39969.33
540.78	40100.40
540.95	40261.90
541.12	40294.66
541.29	40041.88
541.46	40346.15
541.62	40577.87
541.79	40467.86
541.96	40266.58
542.13	40449.14
542.30	40364.88
542.47	40690.21
542.63	40744.05
542.80	40774.47
542.97	41055.34
543.14	41223.86
543.31	41476.63
543.48	40924.27
543.64	41380.67
543.81	41315.14
543.98	41394.71
544.15	41031.93
544.32	41488.34
544.48	41935.38
544.65	41684.94
544.82	42000.91
544.99	41347.90
545.16	41053.00
545.32	41551.53
545.49	41731.75
545.66	41923.68
545.83	41642.81
546.00	41682.60
546.16	42295.82
546.33	41453.23
546.50	41422.80
546.67	41691.96
546.83	41270.67
547.00	42146.03
547.17	41596.00
547.34	42241.99
547.50	42225.60
547.67	42616.47
547.84	42052.41
548.00	42588.39
548.17	42665.63
548.34	42501.79
548.51	42462.00
548.67	42490.09
548.84	42618.81
549.01	42546.26
549.18	42295.82
549.34	42834.14
549.51	42850.53
549.68	42777.97
549.84	42508.81
550.01	42583.71
550.18	42747.54
550.34	42738.18
550.51	43012.02
550.68	42859.89
550.84	42754.57
551.01	43189.91
551.18	42560.30
551.34	42843.51
551.51	43194.59
551.68	42810.74
551.84	43323.32
552.01	42927.77
552.18	43456.73
552.34	43000.32
552.51	43292.89
552.68	43175.86
552.84	43281.19
553.01	43363.11
553.18	43269.48
553.34	43466.09
553.51	43601.84
553.67	43751.63
553.84	43737.59
554.01	44261.87
554.17	43545.67
554.34	43796.10
554.51	44168.25
554.67	43957.60
554.84	43768.02
555.00	43592.48
555.17	43629.93
555.33	44039.52
555.50	43896.75
555.67	43992.71
555.83	44177.61
556.00	43854.62
556.16	44402.30
556.33	44369.54
556.50	44376.56
556.66	44184.63
556.83	44067.61
556.99	44355.49
557.16	44477.20
557.32	44067.61
557.49	44465.50
557.65	43990.37
557.82	44062.93
557.98	44320.38
558.15	44559.12
558.32	44491.24
558.48	43990.37
558.65	44456.14
558.81	44128.46
558.98	44238.47
559.14	44418.69
559.31	44825.94
559.47	44978.07
559.64	44325.07
559.80	44671.46
559.97	44755.72
560.13	44659.76
560.30	44861.05
560.46	45146.59
560.63	45151.27
560.79	45195.74
560.96	44755.72
561.12	44746.36
561.29	44971.05
561.45	44851.69
561.61	44954.67
561.78	44720.62
561.94	44994.46
562.11	44807.22
562.27	44769.77
562.44	44884.45
562.60	45078.72
562.77	44847.00
562.93	45242.56
563.10	45113.83
563.26	44886.79
563.42	45551.51
563.59	45099.78
563.75	45186.38
563.92	45420.44
564.08	44655.08
564.24	45289.37
564.41	45181.70
564.57	45521.08
564.74	45153.62
564.90	45083.40
565.07	45497.67
565.23	45464.91
565.39	45467.25
565.56	45581.93
565.72	45392.35
565.88	45776.20
566.05	45102.12
566.21	45626.40
566.38	45476.61
566.54	45567.89
566.70	45352.56
566.87	45631.08
567.03	45242.56
567.19	45757.47
567.36	45485.97
567.52	45570.23
567.68	46014.93
567.85	45778.54
568.01	45572.57
568.17	45624.06
568.34	45303.41
568.50	45696.62
568.66	45305.75
568.83	45546.82
568.99	45556.19
569.15	45729.39
569.32	45495.33
569.48	45668.53
569.64	46232.60
569.81	45467.25
569.97	46115.58
570.13	45745.77
570.30	45226.17
570.46	45331.50
570.62	46036.00
570.78	45638.11
570.95	45710.66
571.11	45914.29
571.27	45675.55
571.43	45986.85
571.60	45860.46
571.76	45783.22
571.92	45954.08
572.09	45937.69
572.25	45799.60
572.41	45855.78
572.57	45876.84
572.74	46115.58
572.90	45645.13
573.06	46316.86
573.22	46354.31
573.38	46059.40
573.55	46066.42
573.71	46527.51
573.87	46026.63
574.03	46263.03
574.20	46761.56
574.36	45963.44
574.52	46396.44
574.68	46366.01
574.84	46244.30
575.01	46590.70
575.17	46490.06
575.33	46391.76
575.49	45984.51
575.65	46443.25
575.82	46368.35
575.98	46113.23
576.14	46625.81
576.30	46546.23
576.46	45961.10
576.62	45963.44
576.79	46436.23
576.95	45661.51
577.11	46389.42
577.27	46124.94
577.43	46358.99
577.59	45982.16
577.75	46234.94
577.92	45886.20
578.08	46092.17
578.24	46291.12
578.40	46237.28
578.56	46387.08
578.72	46288.77
578.88	46279.41
579.04	46361.33
579.21	46564.96
579.37	46609.43
579.53	46635.17
579.69	46061.74
579.85	46403.46
580.01	46330.90
580.17	46415.16
580.33	46550.91
580.49	46370.69
580.65	46539.21
580.82	46356.65
580.98	46373.03
581.14	45954.08
581.30	46817.74
581.46	46401.12
581.62	46279.41
581.78	46244.30
581.94	46279.41
582.10	46382.40
582.26	47042.43
582.42	46466.66
582.58	46562.62
582.74	46429.21
582.90	46532.19
583.06	46415.16
583.22	46202.18
583.38	46981.57
583.54	46520.49
583.70	46373.03
583.86	46408.14
584.02	46740.50
584.18	46969.87
584.34	46740.50
584.50	46972.21
584.66	46923.06
584.82	46759.22
584.98	46817.74
585.14	46607.09
585.30	46326.22
585.46	46487.72
585.62	46356.65
585.78	46677.30
585.94	46639.86
586.10	46291.12
586.26	46361.33
586.42	46440.91
586.58	46298.14
586.74	46445.59
586.90	46492.40
587.06	46681.98
587.22	46681.98
587.38	46686.67
587.54	46593.04
587.70	47023.70
587.86	46609.43
588.02	46745.18
588.18	46871.57
588.34	46726.46
588.49	46721.77
588.65	46616.45
588.81	46461.97
588.97	47138.39
589.13	47007.32
589.29	46583.68
589.45	46618.79
589.61	46815.40
589.77	46658.58
589.93	46803.69
590.08	46958.17
590.24	47133.71
590.40	47304.57
590.56	47213.29
590.72	47217.97
590.88	46588.36
591.04	46848.16
591.20	47419.25
591.35	47079.88
591.51	47648.63
591.67	46813.05
591.83	47168.82
591.99	47084.56
592.15	46794.33
592.31	47063.49
592.46	46838.80
592.62	47058.81
592.78	47236.69
592.94	47091.58
593.10	47374.78
593.26	47129.03
593.41	47423.93
593.57	47454.36
593.73	47594.79
593.89	47428.62
594.05	47714.16
594.20	47428.62
594.36	47629.90
594.52	47185.20
594.68	47152.43
594.84	47213.29
594.99	47346.70
595.15	47402.87
595.31	47707.14
595.47	47459.04
595.62	47426.28
595.78	46691.35
595.94	47124.35
596.10	47379.46
596.25	47313.93
596.41	47510.53
596.57	46913.70
596.73	47229.67
596.88	47325.63
597.04	47714.16
597.20	47349.04
597.36	47643.94
597.51	47564.37
597.67	47056.47
597.83	46976.89
597.99	47547.98
598.14	46789.65
598.30	47159.45
598.46	47370.10
598.61	47618.20
598.77	47426.28
598.93	47437.98
599.09	47681.39
599.24	47704.80
599.40	47426.28
599.56	47505.85
599.71	47669.69
599.87	47730.54
600.03	47728.20
600.18	47466.06
600.34	47416.91
600.50	47454.36
600.65	47573.73
600.81	47437.98
600.97	47639.26
601.12	47522.24
601.28	47704.80
601.44	47714.16
601.59	47295.21
601.75	47386.49
601.91	48053.54
602.06	47292.86
602.22	47983.32
602.37	47311.59
602.53	47835.87
602.69	47868.64
602.84	47391.17
603.00	47391.17
603.16	47667.35
603.31	47487.13
603.47	47655.65
603.62	47533.94
603.78	48058.22
603.94	47241.37
604.09	47590.11
604.25	47248.39
604.40	47437.98
604.56	47374.78
604.71	47564.37
604.87	47339.68
605.03	46822.42
605.18	47285.84
605.34	47683.73
605.49	47452.02
605.65	47557.35
605.80	47316.27
605.96	47250.74
606.12	47360.74
606.27	47709.48
606.43	47386.49
606.58	47058.81
606.74	47346.70
606.89	47199.24
607.05	47775.02
607.20	47398.19
607.36	47072.85
607.51	47454.36
607.67	47150.09
607.82	47313.93
607.98	47489.47
608.13	47636.92
608.29	47040.09
608.44	47342.02
608.60	46967.53
608.75	47592.45
608.91	47033.07
609.06	46684.33
609.22	47543.30
609.37	47531.60
609.53	47555.00
609.68	47384.15
609.84	46808.37
609.99	47452.02
610.15	46864.55
610.30	47267.12
610.46	46925.40
610.61	47203.92
610.76	47091.58
610.92	46962.85
611.07	47082.22
611.23	47089.24
611.38	46997.96
611.54	47105.62
611.69	47405.21
611.84	47187.54
612.00	46939.44
612.15	47000.30
612.31	47229.67
612.46	46600.07
612.62	47004.98
612.77	47342.02
612.92	47030.72
613.08	46902.00
613.23	47028.38
613.39	47019.02
613.54	46810.71
613.69	47316.27
613.85	46831.78
614.00	46712.41
614.15	47079.88
614.31	46548.57
614.46	47009.66
614.62	46667.94
614.77	46841.14
614.92	47079.88
615.08	46637.51
615.23	46827.10
615.38	47257.76
615.54	46485.38
615.69	46639.86
615.84	46501.76
616.00	47276.48
616.15	46309.84
616.30	46820.08
616.46	46859.87
616.61	46726.46
616.76	46373.03
616.92	46689.01
617.07	46871.57
617.22	46508.79
617.37	46361.33
617.53	46415.16
617.68	46546.23
617.83	46424.53
617.99	46806.03
618.14	46721.77
618.29	46349.63
618.45	46410.48
618.60	46316.86
618.75	46487.72
618.90	46120.26
619.06	46031.32
619.21	46113.23
619.36	46515.81
619.51	46075.79
619.67	46066.42
619.82	46265.37
619.97	46305.16
620.12	45963.44
620.28	45872.16
620.43	46354.31
620.58	46419.84
620.73	46227.92
620.89	46651.56
621.04	46433.89
621.19	46110.89
621.34	46036.00
621.49	45937.69
621.65	45886.20
621.80	46263.03
621.95	46426.87
622.10	46258.35
622.25	46120.26
622.41	45834.71
622.56	45911.95
622.71	46178.77
622.86	46342.61
623.01	45984.51
623.16	45841.73
623.32	45867.48
623.47	45874.50
623.62	45940.04
623.77	45986.85
623.92	45942.38
624.07	45792.58
624.23	45855.78
624.38	46010.25
624.53	45837.05
624.68	45368.94
624.83	45181.70
624.98	45429.80
625.13	45106.80
625.29	45385.33
625.44	45439.16
625.59	45375.97
625.74	45593.64
625.89	45462.57
626.04	45343.20
626.19	45502.35
626.34	45294.05
626.49	44830.62
626.65	45017.86
626.80	45085.74
626.95	44839.98
627.10	44975.73
627.25	45221.49
627.40	45003.82
627.55	44879.77
627.70	45202.77
627.85	45411.07
628.00	45418.10
628.15	45097.44
628.30	44650.40
628.45	44566.14
628.60	44357.83
628.76	44737.00
628.91	44753.38
629.06	44781.47
629.21	44500.61
629.36	44622.31
629.51	44910.20
629.66	45120.85
629.81	44760.40
629.96	45048.29
630.11	44418.69
630.26	44512.31
630.41	44718.28
630.56	44329.75
630.71	44645.72
630.86	44767.43
631.01	44638.70
631.16	44409.32
631.31	44704.23
631.46	44435.07
631.61	44914.88
631.76	44889.13
631.91	44495.92
632.06	44437.41
632.21	44877.43
632.36	44519.33
632.51	44170.59
632.66	44296.98
632.81	44081.65
632.96	44444.43
633.10	44030.16
633.25	44502.95
633.40	44318.04
633.55	44474.86
633.70	44299.32
633.85	44327.41
634.00	43952.92
634.15	43885.04
634.30	43793.76
634.45	43964.62
634.60	43831.21
634.75	44376.56
634.90	43793.76
635.05	43868.66
635.19	44175.27
635.34	43978.67
635.49	44065.27
635.64	43871.00
635.79	44259.53
635.94	43863.98
636.09	43784.40
636.24	43683.76
636.39	43927.17
636.53	43871.00
636.68	43786.74
636.83	43332.68
636.98	43414.60
637.13	43592.48
637.28	43260.12
637.43	43536.30
637.57	43629.93
637.72	43337.36
637.87	43480.13
638.02	43377.15
638.17	43084.58
638.32	43353.74
638.46	43002.66
638.61	43196.93
638.76	43533.96
638.91	43459.07
639.06	43054.15
639.20	42827.12
639.35	42866.91
639.50	42953.51
639.65	42698.39
639.80	43667.37
639.94	43044.79
640.09	42768.61
640.24	43489.49
640.39	42586.05
640.54	42452.64
640.68	42806.06
640.83	43079.90
640.98	43049.47
641.13	42389.44
641.27	43150.12
641.42	42904.36
641.57	42909.04
641.72	43243.74
641.86	42667.97
642.01	42344.97
642.16	42515.83
642.31	42237.31
642.45	42895.00
642.60	42244.33
642.75	42213.90
642.90	42841.17
643.04	42958.19
643.19	42113.26
643.34	42176.45
643.48	42384.76
643.63	42525.19
643.78	42478.38
643.93	42382.42
644.07	42337.95
644.22	42272.42
644.37	42204.54
644.51	42272.42
644.66	42265.39
644.81	42309.86
644.95	42131.98
645.10	42459.66
645.25	41509.40
645.39	41600.68
645.54	42241.99
645.69	41855.80
645.83	41385.35
645.98	42265.39
646.13	41729.41
646.27	41909.63
646.42	41532.81
646.57	41839.42
646.71	42321.57
646.86	42106.24
647.00	42309.86
647.15	42256.03
647.30	41603.02
647.44	42103.90
647.59	41961.12
647.74	41565.57
647.88	41853.46
648.03	41991.55
648.17	42160.07
648.32	41823.03
648.47	42178.79
648.61	41539.83
648.76	41593.66
648.90	41500.04
649.05	41516.42
649.20	41605.36
649.34	41675.58
649.49	41832.39
649.63	41603.02
649.78	41769.20
649.92	41631.11
650.07	42108.58
650.21	41928.36
650.36	41656.85
650.51	41708.35
650.65	41698.98
650.80	41392.37
650.94	41584.30
651.09	41397.06
651.23	41202.79
651.38	40942.99
651.52	40924.27
651.67	40957.03
651.81	41043.63
651.96	40982.78
652.10	40980.44
652.25	41155.98
652.39	41186.41
652.54	40877.46
652.68	40561.48
652.83	41083.42
652.97	41390.03
653.12	41069.38
653.26	41179.39
653.41	40512.33
653.55	40769.79
653.70	41069.38
653.84	40907.88
653.99	41111.51
654.13	40851.71
654.27	40662.13
654.42	40952.35
654.56	40741.71
654.71	40905.54
654.85	40598.93
655.00	40767.45
655.14	40786.18
655.29	40870.43
655.43	40835.33
655.57	40584.89
655.72	40453.82
655.86	40451.48
656.01	40407.01
656.15	40556.80
656.30	40566.16
656.44	40552.12
656.58	40432.75
656.73	40678.51
656.87	40245.51
657.01	39997.41
657.16	40247.85
657.30	40474.88
657.45	39709.53
657.59	40093.38
657.73	39796.13
657.88	40048.91
658.02	40594.25
658.16	39941.24
658.31	39690.80
658.45	39819.53
658.60	39573.78
658.74	39983.37
658.88	39962.31
659.03	40067.63
659.17	39648.68
659.31	40023.16
659.46	39311.64
659.60	40046.57
659.74	39154.82
659.89	38976.94
660.03	38944.17
660.17	39653.36
660.32	38845.87
660.46	39583.14
660.60	38850.55
660.74	39295.25
660.89	39220.36
661.03	38782.68
661.17	39206.31
661.32	39089.29
661.46	39489.52
661.60	39103.33
661.74	38698.42
661.89	38925.45
662.03	38712.46
662.17	38623.52
662.31	39063.54
662.46	38773.31
662.60	37998.60
662.74	38450.32
662.88	38309.89
663.03	38274.78
663.17	38040.73
663.31	37738.80
663.45	38141.37
663.60	38562.67
663.74	38511.17
663.88	38141.37
664.02	37528.15
664.17	38539.26
664.31	37841.78
664.45	37661.56
664.59	38017.32
664.73	37792.63
664.88	37801.99
665.02	37312.82
665.16	37773.91
665.30	37668.58
665.44	37333.89
665.59	36800.24
665.73	37017.91
665.87	36917.27
666.01	37141.96
666.15	37195.79
666.29	37041.32
666.44	37361.97
666.58	37057.70
666.72	36353.20
666.86	36912.59
667.00	36629.38
667.14	37067.06
667.28	37116.22
667.43	36758.11
667.57	37062.38
667.71	36854.08
667.85	37214.52
667.99	36928.97
668.13	36409.37
668.27	36503.00
668.41	36222.13
668.56	36147.23
668.70	36098.08
668.84	36203.41
668.98	35974.03
669.12	36210.43
669.26	35945.95
669.40	36175.32
669.54	36266.60
669.68	36350.86
669.82	36168.30
669.96	35477.84
670.10	35398.26
670.25	35665.08
670.39	35587.85
670.53	35519.97
670.67	35311.66
670.81	35222.72
670.95	35697.85
671.09	35414.65
671.23	34871.64
671.37	35056.54
671.51	35175.91
671.65	35248.47
671.79	34871.64
671.93	35101.01
672.07	34778.02
672.21	34330.98
672.35	34497.16
672.49	34731.21
672.63	34742.91
672.77	34071.18
672.91	34270.12
673.05	34436.30
673.19	34347.36
673.33	34181.18
673.47	34054.79
673.61	33916.70
673.75	34099.26
673.89	33963.51
674.03	33373.70
674.17	33596.05
674.31	33139.65
674.45	33577.33
674.59	33240.29
674.73	33556.26
674.87	32999.21
675.01	32701.96
675.15	32826.01
675.29	32804.95
675.43	32985.17
675.56	32737.07
675.70	32498.34
675.84	32393.01
675.98	31800.86
676.12	32627.07
676.26	32643.45
676.40	32320.46
676.54	32287.69
676.68	32081.72
676.82	31386.58
676.96	32098.11
677.10	32371.95
677.23	32046.62
677.37	31470.84
677.51	31765.75
677.65	31751.71
677.79	31215.72
677.93	31321.05
678.07	31185.30
678.21	30925.50
678.34	30761.66
678.48	31014.44
678.62	30792.09
678.76	30632.93
678.90	30675.06
679.04	30445.69
679.18	30923.16
679.31	30277.17
679.45	29968.22
679.59	30108.65
679.73	30139.08
679.87	29902.68
680.00	30347.39
680.14	29914.39
680.28	29802.04
680.42	29764.59
680.56	29165.42
680.70	29266.06
680.83	29305.85
680.97	29397.13
681.11	29200.52
681.25	28744.12
681.39	28954.77
681.52	29017.96
681.66	28336.87
681.80	28540.49
681.94	27924.93
682.07	28601.35
682.21	28091.11
682.35	28158.99
682.49	27969.40
682.62	28032.60
682.76	27988.13
682.90	27725.99
683.04	27740.03
683.17	27889.82
683.31	27697.90
683.45	27498.95
683.59	27517.68
683.72	27145.53
683.86	27082.34
684.00	26972.33
684.13	26848.29
684.27	26707.85
684.41	26590.83
684.55	26639.98
684.68	26384.86
684.82	26277.19
684.96	26469.12
685.09	26607.21
685.23	26363.79
685.37	26527.63
685.50	26700.83
685.64	26368.48
685.78	26115.70
685.91	26169.53
686.05	25556.31
686.19	25296.51
686.32	25338.64
686.46	25221.61
686.60	24982.88
686.73	25392.47
686.87	24912.66
687.01	25167.78
687.14	24865.85
687.28	24634.14
687.42	24994.58
687.55	24577.97
687.69	24872.87
687.82	24702.01
687.96	24229.23
688.10	24580.31
688.23	24231.57
688.37	24460.94
688.50	24411.79
688.64	24231.57
688.78	24027.94
688.91	23625.37
689.05	23744.73
689.18	23583.24
689.32	23358.55
689.46	22939.59
689.59	23175.98
689.73	23360.89
689.86	23559.83
690.00	23236.84
690.13	23140.88
690.27	22918.53
690.41	23075.34
690.54	22576.81
690.68	22803.84
690.81	22230.41
690.95	22340.41
691.08	22286.58
691.22	22309.99
691.35	22204.66
691.49	22356.80
691.62	22265.52
691.76	21830.18
691.89	21649.96
692.03	21565.70
692.16	21628.89
692.30	21647.61
692.43	21654.64
692.57	21509.52
692.70	21216.96
692.84	21301.22
692.97	20601.40
693.11	21135.04
693.24	20690.34
693.38	20760.55
693.51	20561.61
693.65	20568.63
693.78	20360.32
693.92	20149.67
694.05	20100.52
694.19	20208.19
694.32	20325.21
694.45	20585.01
694.59	20067.75
694.72	20219.89
694.86	19791.57
694.99	19660.50
695.13	19494.32
695.26	19454.53
695.39	19283.67
695.53	19260.27
695.66	19487.30
695.80	19087.07
695.93	19084.73
696.07	18967.70
696.20	18972.38
696.33	18656.41
696.47	18663.43
696.60	18651.73
696.73	18597.90
696.87	18633.00
697.00	18698.54
697.14	18345.12
697.27	18099.36
697.40	18164.90
697.54	18221.07
697.67	18106.38
697.80	18122.77
697.94	17738.92
698.07	17696.79
698.21	17774.03
698.34	17781.05
698.47	17521.25
698.61	16875.26
698.74	17280.18
698.87	17053.14
699.01	16762.92
699.14	17179.53
699.27	16830.79
699.40	16996.97
699.54	17034.42
699.67	16922.07
699.80	16879.94
699.94	16638.87
700.07	16809.73
700.20	16673.98
700.34	16327.58
700.47	16528.86
700.60	16786.32
700.73	16521.84
700.87	16109.91
701.00	15920.32
701.13	15756.49
701.26	15805.64
701.40	15871.17
701.53	15859.47
701.66	15887.56
701.79	15545.84
701.93	15241.57
702.06	15314.13
702.19	15119.86
702.32	15386.68
702.46	15290.72
702.59	15129.22
702.72	15365.62
702.85	15145.61
702.99	15136.24
703.12	14979.43
703.25	14918.57
703.38	14752.40
703.51	14750.06
703.65	14572.18
703.78	14368.55
703.91	14471.53
704.04	14005.77
704.17	14193.01
704.31	14122.79
704.44	14054.92
704.57	14214.07
704.70	13951.93
704.83	13963.64
704.96	13848.95
705.10	13675.75
705.23	13813.84
>>>>>End Processed Spectral Data<<<<<
