SpectraSuite Data File
++++++++++++++++++++++++++++++++++++
Date: Fri Oct 25 11:34:03 EDT 2013
User: price-jones
Dark Spectrum Present: No
Reference Spectrum Present: No
Number of Sampled Component Spectra: 1
Spectrometers: USB2+H05261
Integration Time (usec): 100000 (USB2+H05261)
Spectra Averaged: 1 (USB2+H05261)
Boxcar Smoothing: 0 (USB2+H05261)
Correct for Electrical Dark: No (USB2+H05261)
Strobe/Lamp Enabled: No (USB2+H05261)
Correct for Detector Non-linearity: No (USB2+H05261)
Correct for Stray Light: No (USB2+H05261)
Number of Pixels in Processed Spectrum: 2048
>>>>>Begin Processed Spectral Data<<<<<
365.73	276.18
365.92	276.18
366.12	276.18
366.32	234.05
366.52	205.97
366.72	252.78
366.91	95.96
367.11	208.31
367.31	159.16
367.51	58.51
367.70	189.58
367.90	245.76
368.10	215.33
368.30	191.92
368.49	117.03
368.69	196.60
368.89	177.88
369.09	156.82
369.28	182.56
369.48	238.73
369.68	140.43
369.87	212.99
370.07	287.89
370.27	297.25
370.47	337.04
370.66	475.13
370.86	498.53
371.06	573.43
371.25	587.47
371.45	550.03
371.65	528.96
371.84	526.62
372.04	552.37
372.24	592.16
372.44	601.52
372.63	587.47
372.83	564.07
373.03	568.75
373.22	554.71
373.42	645.99
373.62	627.26
373.81	606.20
374.01	641.31
374.21	730.25
374.40	674.07
374.60	608.54
374.79	627.26
374.99	617.90
375.19	636.63
375.38	683.44
375.58	650.67
375.78	685.78
375.97	615.56
376.17	713.86
376.37	617.90
376.56	667.05
376.76	667.05
376.95	634.29
377.15	692.80
377.35	638.97
377.54	704.50
377.74	678.76
377.93	669.39
378.13	713.86
378.33	739.61
378.52	713.86
378.72	599.18
378.91	772.38
379.11	786.42
379.31	723.23
379.50	730.25
379.70	685.78
379.89	695.14
380.09	739.61
380.28	655.35
380.48	681.10
380.68	704.50
380.87	709.18
381.07	753.65
381.26	779.40
381.46	734.93
381.65	734.93
381.85	793.44
382.04	779.40
382.24	720.88
382.43	702.16
382.63	774.72
382.83	730.25
383.02	823.87
383.22	770.04
383.41	896.43
383.61	730.25
383.80	856.64
384.00	770.04
384.19	793.44
384.39	816.85
384.58	851.96
384.78	842.59
384.97	816.85
385.17	858.98
385.36	795.78
385.56	854.30
385.75	816.85
385.95	882.38
386.14	849.61
386.34	870.68
386.53	814.51
386.72	835.57
386.92	873.02
387.11	861.32
387.31	884.72
387.50	791.10
387.70	905.79
387.89	830.89
388.09	891.74
388.28	812.17
388.48	987.71
388.67	957.28
388.86	968.98
389.06	866.00
389.25	966.64
389.45	891.74
389.64	1015.79
389.84	959.62
390.03	968.98
390.22	964.30
390.42	961.96
390.61	964.30
390.81	954.94
391.00	997.07
391.19	1008.77
391.39	1015.79
391.58	905.79
391.78	1083.67
391.97	1046.22
392.16	952.60
392.36	1018.13
392.55	1043.88
392.75	1036.86
392.94	1067.28
393.13	992.39
393.33	1018.13
393.52	1008.77
393.71	1158.57
393.91	1078.99
394.10	1057.92
394.29	1027.50
394.49	1146.86
394.68	1071.97
394.88	1097.71
395.07	1083.67
395.26	1144.52
395.46	1116.44
395.65	1163.25
395.84	1184.31
396.04	1284.95
396.23	1188.99
396.42	1095.37
396.62	1186.65
396.81	1210.06
397.00	1170.27
397.19	1214.74
397.39	1128.14
397.58	1212.40
397.77	1289.64
397.97	1167.93
398.16	1158.57
398.35	1261.55
398.55	1196.01
398.74	1291.98
398.93	1273.25
399.12	1261.55
399.32	1327.08
399.51	1320.06
399.70	1380.92
399.90	1303.68
400.09	1320.06
400.28	1392.62
400.47	1359.85
400.67	1397.30
400.86	1376.24
401.05	1430.07
401.24	1444.11
401.44	1526.03
401.63	1455.81
401.82	1558.80
402.01	1420.71
402.21	1406.66
402.40	1497.94
402.59	1486.24
402.78	1432.41
402.97	1453.47
403.17	1483.90
403.36	1488.58
403.55	1500.28
403.74	1579.86
403.93	1643.06
404.13	1624.33
404.32	1624.33
404.51	1568.16
404.70	1596.25
404.89	1497.94
405.09	1699.23
405.28	1629.01
405.47	1621.99
405.66	1696.89
405.85	1760.08
406.05	1727.32
406.24	1682.85
406.43	1713.27
406.62	1799.87
406.81	1844.34
407.00	1678.16
407.20	1741.36
407.39	1811.57
407.58	1937.96
407.77	1937.96
407.96	1937.96
408.15	1877.11
408.34	1898.17
408.54	1853.70
408.73	1954.35
408.92	1839.66
409.11	1937.96
409.30	1923.92
409.49	1954.35
409.68	1942.64
409.87	1886.47
410.07	2069.03
410.26	2073.71
410.45	2059.67
410.64	1970.73
410.83	2106.48
411.02	2106.48
411.21	2204.78
411.40	2071.37
411.59	2125.21
411.78	2073.71
411.98	2127.55
412.17	2214.15
412.36	2214.15
412.55	2342.88
412.74	2324.15
412.93	2317.13
413.12	2232.87
413.31	2406.07
413.50	2420.11
413.69	2382.67
413.88	2473.95
414.07	2530.12
414.26	2548.84
414.45	2417.77
414.64	2504.37
414.83	2537.14
415.02	2679.91
415.22	2623.74
415.41	2682.25
415.60	2541.82
415.79	2686.94
415.98	2738.43
416.17	2686.94
416.36	2651.83
416.55	2771.19
416.74	2736.09
416.93	2726.72
417.12	2778.22
417.31	2885.88
417.50	2848.43
417.69	2984.18
417.88	2911.63
418.07	3009.93
418.26	2836.73
418.45	2895.24
418.64	3021.63
418.83	2965.46
419.02	3012.27
419.21	3169.09
419.39	2991.20
419.58	2916.31
419.77	3042.70
419.96	3126.96
420.15	3199.51
420.34	3087.17
420.53	3152.70
420.72	3222.92
420.91	3297.81
421.10	3201.85
421.29	3267.39
421.48	3190.15
421.67	3173.77
421.86	3290.79
422.05	3290.79
422.24	3335.26
422.43	3377.39
422.61	3300.16
422.80	3356.33
422.99	3300.16
423.18	3391.44
423.37	3424.20
423.56	3445.27
423.75	3314.20
423.94	3393.78
424.13	3148.02
424.32	3283.77
424.50	3480.38
424.69	3428.88
424.88	3482.72
425.07	3382.07
425.26	3344.63
425.45	3309.52
425.64	3365.69
425.83	3384.41
426.01	3508.46
426.20	3368.03
426.39	3426.54
426.58	3421.86
426.77	3489.74
426.96	3485.06
427.15	3494.42
427.33	3513.14
427.52	3440.59
427.71	3494.42
427.90	3480.38
428.09	3611.45
428.28	3613.79
428.46	3651.24
428.65	3637.19
428.84	3726.13
429.03	3644.21
429.22	3634.85
429.40	3801.03
429.59	3810.39
429.78	3534.21
429.97	3574.00
430.16	3625.49
430.34	3794.01
430.53	3812.73
430.72	3808.05
430.91	3838.48
431.10	3950.82
431.28	3925.08
431.47	3822.09
431.66	3934.44
431.85	3798.69
432.03	3960.19
432.22	3934.44
432.41	4032.74
432.60	4105.30
432.79	4166.15
432.97	3974.23
433.16	3953.16
433.35	4007.00
433.54	4065.51
433.72	4086.58
433.91	4189.56
434.10	4145.09
434.28	4114.66
434.47	4189.56
434.66	4243.39
434.85	4379.14
435.03	4337.01
435.22	4219.99
435.41	4477.44
435.59	4243.39
435.78	4409.57
435.97	4341.69
436.16	4430.63
436.34	4217.65
436.53	4505.53
436.72	4503.19
436.90	4348.72
437.09	4482.13
437.28	4531.28
437.46	4367.44
437.65	4486.81
437.84	4582.77
438.02	4493.83
438.21	4531.28
438.40	4418.93
438.58	4634.26
438.77	4688.09
438.96	4688.09
439.14	4718.52
439.33	4774.69
439.52	4774.69
439.70	4781.71
439.89	5020.45
440.08	4844.91
440.26	4940.87
440.45	5076.62
440.63	5104.71
440.82	4954.91
441.01	4992.36
441.19	5104.71
441.38	5006.41
441.57	5153.86
441.75	5123.43
441.94	5270.89
442.12	5331.74
442.31	5397.28
442.50	5280.25
442.68	5294.29
442.87	5071.94
443.05	5458.13
443.24	5619.63
443.43	5434.72
443.61	5540.05
443.80	5481.53
443.98	5511.96
444.17	5247.48
444.35	5481.53
444.54	5537.71
444.73	5378.55
444.91	5516.64
445.10	5427.70
445.28	5537.71
445.47	5500.26
445.65	5612.60
445.84	5638.35
446.02	5570.48
446.21	5720.27
446.39	5469.83
446.58	5678.14
446.77	5589.20
446.95	5430.04
447.14	5633.67
447.32	5738.99
447.51	5544.73
447.69	5535.37
447.88	5741.33
448.06	5572.82
448.25	5621.97
448.43	5748.36
448.62	5771.76
448.80	5563.45
448.99	5799.85
449.17	5853.68
449.36	5701.54
449.54	5767.08
449.73	5973.05
449.91	5944.96
450.10	5877.09
450.28	6141.57
450.46	6071.35
450.65	5951.98
450.83	6001.13
451.02	6057.31
451.20	5916.87
451.39	6181.35
451.57	6008.16
451.76	6022.20
451.94	6179.01
452.13	6193.06
452.31	6150.93
452.49	6057.31
452.68	6183.70
452.86	6141.57
453.05	6258.59
453.23	6232.85
453.42	6239.87
453.60	6160.29
453.78	6291.36
453.97	6267.95
454.15	6239.87
454.34	6314.77
454.52	6506.69
454.70	6366.26
454.89	6581.59
455.07	6513.71
455.26	6593.29
455.44	6527.75
455.62	6574.56
455.81	6670.53
455.99	6476.26
456.17	6473.92
456.36	6658.82
456.54	6715.00
456.73	6679.89
456.91	6836.70
457.09	6839.05
457.28	7035.65
457.46	6682.23
457.64	6895.22
457.83	6874.15
458.01	6810.96
458.19	7246.30
458.38	7045.01
458.56	7115.23
458.74	6995.86
458.93	7028.63
459.11	7005.22
459.29	7042.67
459.48	7176.08
459.66	7108.21
459.84	7295.45
460.03	7328.22
460.21	7281.41
460.39	7332.90
460.57	7288.43
460.76	7328.22
460.94	7403.11
461.12	7325.88
461.31	7335.24
461.49	7293.11
461.67	7342.26
461.85	7637.17
462.04	7447.58
462.22	7950.80
462.40	7674.62
462.59	7756.54
462.77	7634.83
462.95	7630.15
463.13	7651.21
463.32	7875.90
463.50	7812.71
463.68	7578.65
463.86	7763.56
464.05	7763.56
464.23	7784.62
464.41	8070.17
464.59	7550.57
464.78	8084.21
464.96	7946.12
465.14	7698.02
465.32	7742.49
465.50	7887.61
465.69	7967.18
465.87	8025.70
466.05	8063.15
466.23	8147.40
466.41	8086.55
466.60	8081.87
466.78	8091.23
466.96	8070.17
467.14	8168.47
467.32	8060.80
467.51	8142.72
467.69	7978.89
467.87	8222.30
468.05	8224.64
468.23	8290.18
468.41	8271.45
468.60	8238.69
468.78	8308.90
468.96	8315.92
469.14	8339.33
469.32	8486.78
469.50	8334.65
469.69	8564.02
469.87	8514.87
470.05	8599.13
470.23	8643.60
470.41	8641.26
470.59	8755.94
470.77	8538.27
470.95	8709.13
471.14	8837.86
471.32	8631.90
471.50	9020.42
471.68	8950.21
471.86	8931.48
472.04	9001.70
472.22	9202.99
472.40	8833.18
472.58	9118.73
472.77	9076.60
472.95	8973.61
473.13	9366.82
473.31	9146.81
473.49	9298.95
473.67	9303.63
473.85	9334.06
474.03	9451.08
474.21	9554.07
474.39	9563.43
474.57	9671.09
474.75	9715.56
474.93	9895.78
475.12	9757.69
475.30	9949.62
475.48	9923.87
475.66	10010.47
475.84	10087.71
476.02	9984.73
476.20	9947.28
476.38	10239.84
476.56	10448.15
476.74	10373.25
476.92	10354.53
477.10	10373.25
477.28	10497.30
477.46	10721.99
477.64	10644.76
477.82	10677.52
478.00	10998.18
478.18	10850.72
478.36	10850.72
478.54	11103.50
478.72	10932.64
478.90	11353.94
479.08	11375.00
479.26	11393.73
479.44	11538.84
479.62	11747.15
479.80	11707.36
479.98	11639.48
480.16	12030.35
480.34	11957.80
480.52	12140.36
480.70	12138.02
480.88	12102.91
481.06	12243.34
481.24	12276.11
481.41	12409.52
481.59	12461.01
481.77	12664.64
481.95	12858.90
482.13	12945.50
482.31	12896.35
482.49	13109.34
482.67	13277.86
482.85	13280.20
483.03	13277.86
483.21	13305.95
483.39	13502.55
483.57	13427.65
483.74	13708.52
483.92	13682.77
484.10	13645.32
484.28	13933.21
484.46	14396.64
484.64	14450.47
484.82	14223.44
485.00	14366.21
485.18	14555.79
485.35	14782.82
485.53	14869.42
485.71	15000.49
485.89	15028.58
486.07	15044.96
486.25	15103.48
486.43	15480.30
486.61	15414.77
486.78	15492.01
486.96	15660.52
487.14	15658.18
487.32	15962.45
487.50	16046.71
487.68	16205.87
487.85	16350.98
488.03	16554.61
488.21	16734.83
488.39	16606.10
488.57	16842.50
488.75	16833.13
488.92	17233.36
489.10	17128.04
489.28	17193.58
489.46	17263.79
489.64	17341.03
489.81	17731.90
489.99	17806.80
490.17	17788.07
490.35	18338.10
490.53	18211.71
490.70	18391.93
490.88	18204.69
491.06	18429.38
491.24	18562.79
491.41	18813.23
491.59	18546.40
491.77	18862.38
491.95	19087.07
492.13	19204.10
492.30	19201.76
492.48	19269.63
492.66	19850.08
492.84	19403.04
493.01	19814.98
493.19	19789.23
493.37	19936.68
493.54	20194.14
493.72	20325.21
493.90	20180.10
494.08	20456.28
494.25	20652.89
494.43	20685.65
494.61	20959.50
494.79	21537.61
494.96	20828.43
495.14	21085.89
495.32	21233.34
495.49	21544.63
495.67	21469.73
495.85	21369.09
496.02	21759.96
496.20	21867.63
496.38	21956.57
496.55	22082.95
496.73	22363.82
496.91	22572.13
497.09	22836.61
497.26	22628.30
497.44	22544.04
497.62	22714.90
497.79	23087.04
497.97	22965.34
498.14	23262.58
498.32	23276.63
498.50	23248.54
498.67	23601.96
498.85	23295.35
499.03	23758.78
499.20	23826.65
499.38	23997.51
499.56	23934.32
499.73	23999.85
499.91	23843.04
500.08	24552.22
500.26	24364.98
500.44	24159.01
500.61	24297.10
500.79	24362.64
500.97	24374.34
501.14	25067.14
501.32	25039.05
501.49	24533.50
501.67	25064.80
501.84	25034.37
502.02	25193.53
502.20	24985.22
502.37	25139.69
502.55	25167.78
502.72	25729.51
502.90	25546.95
503.07	25671.00
503.25	25525.88
503.43	25586.74
503.60	25940.16
503.78	26199.96
503.95	26078.25
504.13	26279.54
504.30	26331.03
504.48	25874.62
504.65	26242.09
504.83	26352.09
505.01	26799.13
505.18	26686.79
505.36	26588.49
505.53	26813.18
505.71	26960.63
505.88	27449.80
506.06	26665.72
506.23	27213.41
506.41	26639.98
506.58	27136.17
506.76	27124.47
506.93	28046.64
507.11	27819.61
507.28	27545.76
507.46	27667.47
507.63	27644.07
507.81	27735.35
507.98	27857.06
508.16	27814.93
508.33	28243.24
508.50	28444.53
508.68	28189.41
508.85	28795.61
509.03	28332.18
509.20	28467.94
509.38	29156.05
509.55	28545.17
509.73	28950.09
509.90	28912.64
510.08	28709.01
510.25	29184.14
510.42	29336.27
510.60	29235.63
510.77	29425.22
510.95	29427.56
511.12	29413.51
511.30	29546.92
511.47	29860.55
511.64	29453.30
511.82	29867.58
511.99	30190.57
512.17	29958.86
512.34	29717.78
512.51	30162.48
512.69	30331.00
512.86	30799.11
513.04	30539.31
513.21	30539.31
513.38	30520.59
513.56	31005.08
513.73	30747.62
513.90	30654.00
514.08	30738.26
514.25	31168.91
514.43	31288.28
514.60	31124.44
514.77	31026.14
514.95	31131.47
515.12	31101.04
515.29	31136.15
515.47	31412.33
515.64	31498.93
515.81	31798.52
515.99	31407.65
516.16	31756.39
516.33	31934.27
516.51	31889.80
516.68	31995.12
516.85	32039.59
517.03	32020.87
517.20	31957.67
517.37	32105.13
517.54	32058.32
517.72	32046.62
517.89	32706.65
518.06	32673.88
518.24	32498.34
518.41	32416.42
518.58	32680.90
518.75	32196.41
518.93	32638.77
519.10	32678.56
519.27	32931.34
519.45	32849.42
519.62	32959.42
519.79	33259.01
519.96	33228.59
520.14	33455.62
520.31	33251.99
520.48	33598.39
520.65	33415.83
520.83	33696.69
521.00	33762.23
521.17	33790.31
521.34	33802.02
521.52	33694.35
521.69	33823.08
521.86	33991.60
522.03	33694.35
522.20	34239.70
522.38	34506.52
522.55	34550.99
522.72	34190.55
522.89	34260.76
523.07	34951.22
523.24	34855.26
523.41	34845.90
523.58	34408.22
523.75	34927.81
523.92	34845.90
524.10	34555.67
524.27	34712.49
524.44	35360.81
524.61	35061.22
524.78	35269.53
524.96	35447.41
525.13	35330.39
525.30	35512.95
525.47	35711.89
525.64	35674.45
525.81	35665.08
525.98	35747.00
526.16	35555.08
526.33	35828.92
526.50	35882.75
526.67	35842.96
526.84	35887.43
527.01	35882.75
527.18	36161.28
527.36	36542.78
527.53	36044.25
527.70	36507.68
527.87	36542.78
528.04	36591.94
528.21	36783.86
528.38	36594.28
528.55	36964.08
528.72	36362.56
528.89	37254.31
529.07	36444.48
529.24	36921.95
529.41	36907.91
529.58	36851.73
529.75	36907.91
529.92	36849.39
530.09	36912.59
530.26	36931.31
530.43	37148.98
530.60	36900.89
530.77	37022.59
530.94	37235.58
531.11	37191.11
531.28	37258.99
531.46	37383.04
531.63	37319.84
531.80	37666.24
531.97	37553.90
532.14	37811.35
532.31	37666.24
532.48	37977.53
532.65	37764.54
532.82	37806.67
532.99	38106.26
533.16	37680.28
533.33	38230.31
533.50	37909.66
533.67	38328.61
533.84	37900.29
534.01	38202.22
534.18	38082.86
534.35	38656.29
534.52	38527.56
534.69	38506.49
534.86	38490.11
535.03	38490.11
535.20	39000.35
535.37	38815.44
535.54	38607.14
535.71	38813.10
535.88	38843.53
536.05	38555.64
536.22	39402.92
536.38	39229.72
536.55	38888.00
536.72	39349.09
536.89	38930.13
537.06	39236.74
537.23	39718.89
537.40	39016.73
537.57	39028.43
537.74	39531.65
537.91	40009.12
538.08	39688.46
538.25	39585.48
538.42	39629.95
538.59	39945.92
538.75	39288.23
538.92	40055.93
539.09	39438.03
539.26	39793.79
539.43	39700.17
539.60	40201.04
539.77	39981.03
539.94	40182.32
540.11	40100.40
540.28	39943.58
540.44	39899.11
540.61	40107.42
540.78	40297.00
540.95	39777.40
541.12	40573.19
541.29	40128.48
541.46	40245.51
541.62	40449.14
541.79	40811.92
541.96	40334.45
542.13	39805.49
542.30	40177.64
542.47	40947.67
542.63	40587.23
542.80	40844.69
542.97	41170.02
543.14	41029.59
543.31	40994.48
543.48	41247.26
543.64	41626.43
543.81	41017.89
543.98	41247.26
544.15	41137.26
544.32	41570.25
544.48	41537.49
544.65	41556.21
544.82	41642.81
544.99	41425.14
545.16	41766.86
545.32	41701.32
545.49	41811.33
545.66	41762.18
545.83	41785.58
546.00	42267.73
546.16	41607.70
546.33	41612.38
546.50	41872.18
546.67	41757.50
546.83	41511.74
547.00	42323.91
547.17	41998.57
547.34	42057.09
547.50	41942.40
547.67	42026.66
547.84	42218.58
548.00	42508.81
548.17	42593.07
548.34	42131.98
548.51	42932.45
548.67	42012.62
548.84	42747.54
549.01	42249.01
549.18	42412.85
549.34	42756.91
549.51	42904.36
549.68	43136.07
549.84	42679.67
550.01	42976.92
550.18	42499.45
550.34	42719.46
550.51	43131.39
550.68	42953.51
550.84	42305.18
551.01	43248.42
551.18	42529.87
551.34	42550.94
551.51	43576.09
551.68	43049.47
551.84	42883.30
552.01	43133.73
552.18	43271.82
552.34	43379.49
552.51	43463.75
552.68	43065.86
552.84	43248.42
553.01	43765.68
553.18	43643.97
553.34	43222.67
553.51	43161.82
553.67	43519.92
553.84	43625.25
554.01	43716.53
554.17	43845.26
554.34	43756.32
554.51	43927.17
554.67	43929.51
554.84	43667.37
555.00	43817.17
555.17	43590.14
555.33	43716.53
555.50	43604.18
555.67	44091.01
555.83	43999.73
556.00	44215.06
556.16	44458.48
556.33	44287.62
556.50	43819.51
556.66	43985.69
556.83	44201.02
556.99	44282.94
557.16	44561.46
557.32	43985.69
557.49	44421.03
557.65	43889.73
557.82	44308.68
557.98	44278.25
558.15	44172.93
558.32	44477.20
558.48	43964.62
558.65	44882.11
558.81	44563.80
558.98	44797.85
559.14	44322.72
559.31	44327.41
559.47	44580.18
559.64	44449.11
559.80	44516.99
559.97	45247.24
560.13	44325.07
560.30	44161.23
560.46	44844.66
560.63	44804.88
560.79	44769.77
560.96	45258.94
561.12	45001.48
561.29	45144.25
561.45	45001.48
561.61	44942.97
561.78	44769.77
561.94	45043.61
562.11	44980.42
562.27	44882.11
562.44	44818.92
562.60	44849.35
562.77	44966.37
562.93	45205.11
563.10	45179.36
563.26	44978.07
563.42	45415.76
563.59	45228.51
563.75	45092.76
563.92	45102.12
564.08	45144.25
564.24	45607.68
564.41	44940.63
564.57	45301.07
564.74	45120.85
564.90	45420.44
565.07	45326.81
565.23	45308.09
565.39	45294.05
565.56	45448.52
565.72	45294.05
565.88	45759.81
566.05	45502.35
566.21	45371.28
566.38	45352.56
566.54	45661.51
566.70	45354.90
566.87	45460.23
567.03	45528.10
567.19	45684.92
567.36	45736.41
567.52	45331.50
567.68	45986.85
567.85	45900.25
568.01	45984.51
568.17	45832.37
568.34	45588.95
568.50	45897.91
568.66	45392.35
568.83	45773.86
568.99	45876.84
569.15	46012.59
569.32	45755.13
569.48	46089.83
569.64	46073.45
569.81	45918.97
569.97	45755.13
570.13	46209.20
570.30	46050.04
570.46	45666.19
570.62	46038.34
570.78	45818.33
570.95	45652.15
571.11	46265.37
571.27	45425.12
571.43	45642.79
571.60	45872.16
571.76	45890.88
571.92	45579.59
572.09	45947.06
572.25	45904.93
572.41	45951.74
572.57	45808.96
572.74	46522.83
572.90	45811.31
573.06	46066.42
573.22	45930.67
573.38	46490.06
573.55	46319.20
573.71	46574.32
573.87	46195.15
574.03	46557.94
574.20	46754.54
574.36	46195.15
574.52	46398.78
574.68	46251.33
574.84	45979.82
575.01	46148.34
575.17	46103.87
575.33	46480.70
575.49	46087.49
575.65	46490.06
575.82	46148.34
575.98	45996.21
576.14	46511.13
576.30	46419.84
576.46	46370.69
576.62	46354.31
576.79	46256.01
576.95	46291.12
577.11	46485.38
577.27	45921.31
577.43	46312.18
577.59	46312.18
577.75	46267.71
577.92	45762.15
578.08	46464.32
578.24	46298.14
578.40	46457.29
578.56	46604.75
578.72	46019.61
578.88	46417.50
579.04	46295.80
579.21	46272.39
579.37	46330.90
579.53	46412.82
579.69	46204.52
579.85	46080.47
580.01	46841.14
580.17	45911.95
580.33	46438.57
580.49	46241.96
580.65	46532.19
580.82	46312.18
580.98	45914.29
581.14	46328.56
581.30	46260.69
581.46	46138.98
581.62	46169.41
581.78	46113.23
581.94	46487.72
582.10	46784.97
582.26	46576.66
582.42	46492.40
582.58	46316.86
582.74	46466.66
582.90	46511.13
583.06	46918.38
583.22	46136.64
583.38	46602.41
583.54	46454.95
583.70	46663.26
583.86	46335.59
584.02	46623.47
584.18	46803.69
584.34	46728.80
584.50	46773.27
584.66	46787.31
584.82	46866.89
584.98	46733.48
585.14	46674.96
585.30	46525.17
585.46	46815.40
585.62	46515.81
585.78	46787.31
585.94	46410.48
586.10	46784.97
586.26	46370.69
586.42	46859.87
586.58	46726.46
586.74	46562.62
586.90	46677.30
587.06	47007.32
587.22	46873.91
587.38	46848.16
587.54	47236.69
587.70	46862.21
587.86	46974.55
588.02	46415.16
588.18	46974.55
588.34	46677.30
588.49	46513.47
588.65	46623.47
588.81	46733.48
588.97	46972.21
589.13	46681.98
589.29	46691.35
589.45	47075.19
589.61	46883.27
589.77	46770.93
589.93	46508.79
590.08	46981.57
590.24	46965.19
590.40	47091.58
590.56	47292.86
590.72	47297.55
590.88	46749.86
591.04	46597.73
591.20	47114.98
591.35	47241.37
591.51	47440.32
591.67	47482.45
591.83	47522.24
591.99	47159.45
592.15	47332.65
592.31	47086.90
592.46	47143.07
592.62	47070.51
592.78	47674.37
592.94	47407.55
593.10	47379.46
593.26	47096.26
593.41	47569.05
593.57	47470.75
593.73	47498.83
593.89	47559.69
594.05	47519.90
594.20	47395.85
594.36	47601.82
594.52	47192.22
594.68	47047.11
594.84	47180.52
594.99	47646.29
595.15	47320.95
595.31	47653.31
595.47	47555.00
595.62	47620.54
595.78	47374.78
595.94	47409.89
596.10	47199.24
596.25	47601.82
596.41	47405.21
596.57	47342.02
596.73	47931.83
596.88	47423.93
597.04	47459.04
597.20	47718.84
597.36	47246.05
597.51	47339.68
597.67	47192.22
597.83	47262.44
597.99	47405.21
598.14	47559.69
598.30	47437.98
598.46	47091.58
598.61	47503.51
598.77	47384.15
598.93	47463.72
599.09	47496.49
599.24	48009.07
599.40	47363.08
599.56	47665.01
599.71	47913.11
599.87	47786.72
600.03	47973.96
600.18	47732.89
600.34	47498.83
600.50	47737.57
600.65	47461.38
600.81	48172.91
600.97	47772.67
601.12	47742.25
601.28	47318.61
601.44	47611.18
601.59	47522.24
601.75	47625.22
601.91	47597.13
602.06	47601.82
602.22	47665.01
602.37	47779.70
602.53	47533.94
602.69	47559.69
602.84	47356.06
603.00	47503.51
603.16	47452.02
603.31	47330.31
603.47	47482.45
603.62	47587.77
603.78	47707.14
603.94	47555.00
604.09	47473.09
604.25	47683.73
604.40	47814.80
604.56	47061.15
604.71	47550.32
604.87	47487.13
605.03	47639.26
605.18	47117.32
605.34	47526.92
605.49	47360.74
605.65	47955.24
605.80	47402.87
605.96	47531.60
606.12	47030.72
606.27	47632.24
606.43	47433.30
606.58	47536.28
606.74	47433.30
606.89	47480.11
607.05	47639.26
607.20	47372.44
607.36	47358.40
607.51	47072.85
607.67	47428.62
607.82	47232.01
607.98	47393.51
608.13	47194.56
608.29	47641.60
608.44	47206.26
608.60	46794.33
608.75	47414.57
608.91	47346.70
609.06	46672.62
609.22	46782.63
609.37	47058.81
609.53	47288.18
609.68	47220.31
609.84	47161.79
609.99	47318.61
610.15	47454.36
610.30	47159.45
610.46	47194.56
610.61	46939.44
610.76	47433.30
610.92	47264.78
611.07	46801.35
611.23	47126.69
611.38	47437.98
611.54	47255.42
611.69	47391.17
611.84	47564.37
612.00	47281.16
612.15	46820.08
612.31	47442.66
612.46	47040.09
612.62	47065.83
612.77	46897.31
612.92	46749.86
613.08	47285.84
613.23	46993.28
613.39	46843.48
613.54	46887.95
613.69	47370.10
613.85	47028.38
614.00	46815.40
614.15	47068.17
614.31	46724.11
614.46	46810.71
614.62	46747.52
614.77	47290.52
614.92	46981.57
615.08	46887.95
615.23	46862.21
615.38	47133.71
615.54	46958.17
615.69	46988.60
615.84	46714.75
616.00	47159.45
616.15	46911.36
616.30	46958.17
616.46	47026.04
616.61	46848.16
616.76	46522.83
616.92	46483.04
617.07	46747.52
617.22	46506.44
617.37	46424.53
617.53	46735.82
617.68	46417.50
617.83	46061.74
617.99	46717.09
618.14	46850.50
618.29	46218.56
618.45	46143.66
618.60	46284.09
618.75	46047.70
618.90	46122.60
619.06	46239.62
619.21	46351.97
619.36	46993.28
619.51	46284.09
619.67	45965.78
619.82	45954.08
619.97	46248.99
620.12	46174.09
620.28	46153.02
620.43	46536.87
620.58	46328.56
620.73	46464.32
620.89	46377.72
621.04	46583.68
621.19	45904.93
621.34	46260.69
621.49	45961.10
621.65	46036.00
621.80	46632.83
621.95	46089.83
622.10	45893.22
622.25	46370.69
622.41	46012.59
622.56	45759.81
622.71	45933.01
622.86	45890.88
623.01	45989.19
623.16	45532.78
623.32	45808.96
623.47	45797.26
623.62	45673.21
623.77	46028.98
623.92	45544.48
624.07	45668.53
624.23	45925.99
624.38	45874.50
624.53	46021.95
624.68	45764.49
624.83	45228.51
624.98	45523.42
625.13	45078.72
625.29	45478.95
625.44	45656.83
625.59	45453.20
625.74	45296.39
625.89	45329.16
626.04	45291.71
626.19	45584.27
626.34	45612.36
626.49	45165.32
626.65	44961.69
626.80	44954.67
626.95	45179.36
627.10	44968.71
627.25	45198.09
627.40	45095.10
627.55	45064.67
627.70	45284.68
627.85	45120.85
628.00	45289.37
628.15	45097.44
628.30	44671.46
628.45	44526.35
628.60	44811.90
628.76	44940.63
628.91	45006.16
629.06	44545.08
629.21	45247.24
629.36	44311.02
629.51	44776.79
629.66	45062.33
629.81	44889.13
629.96	44947.65
630.11	44722.96
630.26	44863.39
630.41	44928.92
630.56	44816.58
630.71	45076.38
630.86	44570.82
631.01	44470.18
631.16	44779.13
631.31	44481.88
631.46	44470.18
631.61	44814.24
631.76	44715.93
631.91	44837.64
632.06	44781.47
632.21	44828.28
632.36	44861.05
632.51	44037.18
632.66	44718.28
632.81	44261.87
632.96	44538.05
633.10	44353.15
633.25	43866.32
633.40	44348.47
633.55	44814.24
633.70	44538.05
633.85	43924.83
634.00	43892.07
634.15	44168.25
634.30	44140.16
634.45	44027.82
634.60	44301.66
634.75	44289.96
634.90	44147.18
635.05	44463.16
635.19	43917.81
635.34	43952.92
635.49	43990.37
635.64	44116.76
635.79	44182.29
635.94	44161.23
636.09	44074.63
636.24	43915.47
636.39	43744.61
636.53	43791.42
636.68	43892.07
636.83	43475.45
636.98	43440.34
637.13	43454.39
637.28	43379.49
637.43	43358.42
637.57	43283.53
637.72	43225.01
637.87	43627.59
638.02	43557.37
638.17	43210.97
638.32	42887.98
638.46	43292.89
638.61	43367.79
638.76	43306.93
638.91	43405.23
639.06	43138.41
639.20	42927.77
639.35	42883.30
639.50	43037.77
639.65	43374.81
639.80	43367.79
639.94	43423.96
640.09	43700.14
640.24	43278.85
640.39	42962.87
640.54	42433.91
640.68	43070.54
640.83	42969.90
640.98	42988.62
641.13	42934.79
641.27	43428.64
641.42	42759.25
641.57	42983.94
641.72	43225.01
641.86	42983.94
642.01	42836.48
642.16	42319.23
642.31	42333.27
642.45	42738.18
642.60	42316.89
642.75	42876.27
642.90	42836.48
643.04	42279.44
643.19	42506.47
643.34	42312.20
643.48	42204.54
643.63	42579.03
643.78	42618.81
643.93	42787.33
644.07	42782.65
644.22	42485.40
644.37	42618.81
644.51	42632.86
644.66	42410.51
644.81	41996.23
644.95	42499.45
645.10	42469.02
645.25	42382.42
645.39	42190.50
645.54	42298.16
645.69	41720.05
645.83	42244.33
645.98	42127.30
646.13	41764.52
646.27	42092.19
646.42	41668.56
646.57	41921.34
646.71	41825.37
646.86	42494.77
647.00	41907.29
647.15	42192.84
647.30	42003.25
647.44	42012.62
647.59	42021.98
647.74	41514.08
647.88	41727.07
648.03	42129.64
648.17	42307.52
648.32	42115.60
648.47	41684.94
648.61	41507.06
648.76	41581.96
648.90	41614.72
649.05	41544.51
649.20	41596.00
649.34	41698.98
649.49	42073.47
649.63	41663.88
649.78	41979.85
649.92	41493.02
650.07	42129.64
650.21	42141.35
650.36	41900.27
650.51	41603.02
650.65	42029.00
650.80	41713.03
650.94	41624.09
651.09	41371.31
651.23	41296.41
651.38	41223.86
651.52	41137.26
651.67	41062.36
651.81	41221.52
651.96	41422.80
652.10	40760.43
652.25	40900.86
652.39	40804.90
652.54	41195.77
652.68	40961.72
652.83	40912.56
652.97	41301.09
653.12	41172.36
653.26	40994.48
653.41	41057.68
653.55	41113.85
653.70	41102.15
653.84	41273.01
653.99	41191.09
654.13	41326.84
654.27	40741.71
654.42	41303.43
654.56	40418.71
654.71	40535.74
654.85	40699.58
655.00	40884.48
655.14	40620.00
655.29	41045.97
655.43	40912.56
655.57	40669.15
655.72	40484.25
655.86	40509.99
656.01	40264.24
656.15	40348.50
656.30	40121.46
656.44	40472.54
656.58	40484.25
656.73	40399.99
656.87	39845.28
657.01	40102.74
657.16	40222.11
657.30	40493.61
657.45	40203.38
657.59	39997.41
657.73	39817.19
657.88	39945.92
658.02	40446.80
658.16	40404.67
658.31	40079.33
658.45	40072.31
658.60	39676.76
658.74	40044.23
658.88	40004.44
659.03	40102.74
659.17	39660.38
659.31	39445.05
659.46	39477.82
659.60	39744.64
659.74	39438.03
659.89	39496.54
660.03	38721.82
660.17	39550.37
660.32	39136.10
660.46	39077.58
660.60	39136.10
660.74	39157.16
660.89	39260.15
661.03	39028.43
661.17	38976.94
661.32	38707.78
661.46	39187.59
661.60	39108.01
661.74	38684.37
661.89	38941.83
662.03	38906.73
662.17	38693.74
662.31	38677.35
662.46	38583.73
662.60	38621.18
662.74	38150.73
662.88	38096.90
663.03	38557.99
663.17	38300.53
663.31	38176.48
663.45	38246.69
663.60	38679.69
663.74	38288.82
663.88	38190.52
664.02	37961.15
664.17	38543.94
664.31	38024.34
664.45	37886.25
664.59	37811.35
664.73	37883.91
664.88	37773.91
665.02	37691.99
665.16	37518.79
665.30	37912.00
665.44	37750.50
665.59	37804.33
665.73	37284.73
665.87	36879.82
666.01	37127.92
666.15	37514.11
666.29	36669.17
666.44	37542.19
666.58	37464.96
666.72	36713.64
666.86	37090.47
667.00	37148.98
667.14	36917.27
667.28	36788.54
667.43	36762.79
667.57	37013.23
667.71	36849.39
667.85	37010.89
667.99	36863.44
668.13	36727.69
668.27	36397.67
668.41	36439.80
668.56	35950.63
668.70	36016.16
668.84	36332.14
668.98	36100.42
669.12	36362.56
669.26	36062.97
669.40	36070.00
669.54	35779.77
669.68	35557.42
669.82	35543.38
669.96	35093.99
670.10	35711.89
670.25	35639.34
670.39	35943.61
670.53	35576.14
670.67	35363.15
670.81	35714.23
670.95	35414.65
671.09	35138.46
671.23	35255.49
671.37	35321.02
671.51	34815.47
671.65	35140.80
671.79	34897.39
671.93	34972.28
672.07	34731.21
672.21	34927.81
672.35	34607.16
672.49	34464.39
672.63	34635.25
672.77	34396.51
672.91	34735.89
673.05	34120.33
673.19	34401.19
673.33	34335.66
673.47	34417.58
673.61	34036.07
673.75	33394.76
673.89	33809.04
674.03	33757.55
674.17	33851.17
674.31	33153.69
674.45	33656.90
674.59	33549.24
674.73	33511.79
674.87	33584.35
675.01	32741.75
675.15	33036.66
675.29	32882.19
675.43	32800.27
675.56	33207.52
675.70	32627.07
675.84	32697.28
675.98	31711.92
676.12	32439.82
676.26	32421.10
676.40	32144.92
676.54	31854.69
676.68	32055.98
676.82	31871.07
676.96	31882.78
677.10	32105.13
677.23	31894.48
677.37	31850.01
677.51	31931.93
677.65	31536.38
677.79	31639.36
677.93	31569.15
678.07	31040.18
678.21	31194.66
678.34	30864.64
678.48	30607.19
678.62	30747.62
678.76	30728.89
678.90	30721.87
679.04	30836.56
679.18	30672.72
679.31	30160.14
679.45	30515.90
679.59	29675.65
679.73	30221.00
679.87	30064.18
680.00	29855.87
680.14	30153.12
680.28	29799.70
680.42	29380.74
680.56	29193.50
680.70	29261.38
680.83	29195.84
680.97	29209.89
681.11	29336.27
681.25	28748.80
681.39	28884.55
681.52	28891.57
681.66	28390.70
681.80	28278.35
681.94	27976.42
682.07	28730.08
682.21	28016.21
682.35	28325.16
682.49	28053.66
682.62	28046.64
682.76	27981.10
682.90	27931.95
683.04	27960.04
683.17	27927.27
683.31	27384.27
683.45	27126.81
683.59	27129.15
683.72	27101.06
683.86	27000.42
684.00	27304.69
684.13	27311.71
684.27	27276.60
684.41	26551.04
684.55	26939.57
684.68	26773.39
684.82	26604.87
684.96	26464.44
685.09	26419.97
685.23	26473.80
685.37	26675.09
685.50	26656.36
685.64	26551.04
685.78	26206.98
685.91	25921.43
686.05	25577.37
686.19	25671.00
686.32	25429.92
686.46	24947.77
686.60	24917.34
686.73	25242.68
686.87	24959.47
687.01	25153.74
687.14	24889.26
687.28	25193.53
687.42	25158.42
687.55	24517.11
687.69	24755.85
687.82	24203.48
687.96	24407.11
688.10	24350.93
688.23	24505.41
688.37	24290.08
688.50	24395.40
688.64	24297.10
688.78	24114.54
688.91	24025.60
689.05	23793.89
689.18	23426.42
689.32	23290.67
689.46	23260.24
689.59	23187.69
689.73	23520.04
689.86	23597.28
690.00	23187.69
690.13	23175.98
690.27	23105.77
690.41	23175.98
690.54	22340.41
690.68	22972.36
690.81	22089.98
690.95	22256.15
691.08	22349.78
691.22	22143.81
691.35	22092.32
691.49	22331.05
691.62	22185.94
691.76	21944.86
691.89	22089.98
692.03	21694.43
692.16	21678.04
692.30	21514.20
692.43	21591.44
692.57	21411.22
692.70	21343.35
692.84	20999.29
692.97	20751.19
693.11	20980.56
693.24	20690.34
693.38	20947.79
693.51	20521.82
693.65	20648.21
693.78	20329.89
693.92	20271.38
694.05	20046.69
694.19	20016.26
694.32	20233.93
694.45	20613.10
694.59	20613.10
694.72	20285.42
694.86	20018.60
694.99	19573.90
695.13	19632.41
695.26	19325.80
695.39	19243.88
695.53	19442.83
695.66	19445.17
695.80	19105.79
695.93	19344.53
696.07	19145.58
696.20	18492.57
696.33	18480.87
696.47	18523.00
696.60	18637.69
696.73	18789.82
696.87	19042.60
697.00	18658.75
697.14	18855.36
697.27	18207.03
697.40	18143.83
697.54	18164.90
697.67	18228.09
697.80	18005.74
697.94	18024.47
698.07	17799.77
698.21	17626.57
698.34	17703.81
698.47	17785.73
698.61	16868.24
698.74	17156.13
698.87	17043.78
699.01	17364.43
699.14	17160.81
699.27	17121.02
699.40	16952.50
699.54	16800.37
699.67	16807.39
699.80	16697.38
699.94	16744.19
700.07	16812.07
700.20	16425.88
700.34	16315.87
700.47	16545.25
700.60	16549.93
700.73	16643.55
700.87	16191.83
701.00	16039.69
701.13	15946.07
701.26	15871.17
701.40	16009.26
701.53	15793.94
701.66	15536.48
701.79	15709.68
701.93	15229.87
702.06	15171.35
702.19	15234.55
702.32	15466.26
702.46	15332.85
702.59	15250.93
702.72	15470.94
702.85	15126.88
702.99	14998.15
703.12	14808.57
703.25	14817.93
703.38	14511.32
703.51	14640.05
703.65	14508.98
703.78	14312.38
703.91	14335.78
704.04	14305.35
704.17	14246.84
704.31	14148.54
704.44	14087.68
704.57	13968.32
704.70	14008.11
704.83	14026.83
704.96	14017.47
705.10	13715.54
705.23	13582.13
>>>>>End Processed Spectral Data<<<<<
