SpectraSuite Data File
++++++++++++++++++++++++++++++++++++
Date: Fri Oct 25 11:33:41 EDT 2013
User: price-jones
Dark Spectrum Present: No
Reference Spectrum Present: No
Number of Sampled Component Spectra: 1
Spectrometers: USB2+H05261
Integration Time (usec): 100000 (USB2+H05261)
Spectra Averaged: 1 (USB2+H05261)
Boxcar Smoothing: 0 (USB2+H05261)
Correct for Electrical Dark: No (USB2+H05261)
Strobe/Lamp Enabled: No (USB2+H05261)
Correct for Detector Non-linearity: No (USB2+H05261)
Correct for Stray Light: No (USB2+H05261)
Number of Pixels in Processed Spectrum: 2048
>>>>>Begin Processed Spectral Data<<<<<
365.73	271.50
365.92	271.50
366.12	271.50
366.32	194.26
366.52	100.64
366.72	187.24
366.91	163.84
367.11	140.43
367.31	205.97
367.51	220.01
367.70	170.86
367.90	161.50
368.10	135.75
368.30	191.92
368.49	147.45
368.69	198.95
368.89	217.67
369.09	182.56
369.28	182.56
369.48	149.79
369.68	180.22
369.87	173.20
370.07	245.76
370.27	299.59
370.47	332.36
370.66	514.92
370.86	489.17
371.06	526.62
371.25	636.63
371.45	550.03
371.65	575.77
371.84	566.41
372.04	615.56
372.24	531.30
372.44	468.11
372.63	585.13
372.83	601.52
373.03	601.52
373.22	622.58
373.42	564.07
373.62	636.63
373.81	557.05
374.01	617.90
374.21	617.90
374.40	685.78
374.60	622.58
374.79	648.33
374.99	617.90
375.19	615.56
375.38	615.56
375.58	667.05
375.78	664.71
375.97	678.76
376.17	737.27
376.37	671.73
376.56	617.90
376.76	650.67
376.95	688.12
377.15	699.82
377.35	709.18
377.54	692.80
377.74	739.61
377.93	697.48
378.13	709.18
378.33	683.44
378.52	716.20
378.72	720.88
378.91	676.41
379.11	641.31
379.31	716.20
379.50	713.86
379.70	739.61
379.89	713.86
380.09	716.20
380.28	821.53
380.48	777.06
380.68	664.71
380.87	720.88
381.07	741.95
381.26	767.70
381.46	807.48
381.65	713.86
381.85	816.85
382.04	755.99
382.24	725.57
382.43	772.38
382.63	763.01
382.83	751.31
383.02	807.48
383.22	821.53
383.41	791.10
383.61	772.38
383.80	873.02
384.00	854.30
384.19	767.70
384.39	917.49
384.58	798.12
384.78	800.46
384.97	851.96
385.17	786.42
385.36	896.43
385.56	882.38
385.75	826.21
385.95	788.76
386.14	844.93
386.34	844.93
386.53	793.44
386.72	842.59
386.92	863.66
387.11	835.57
387.31	875.36
387.50	880.04
387.70	814.51
387.89	870.68
388.09	802.80
388.28	917.49
388.48	968.98
388.67	903.45
388.86	912.81
389.06	1015.79
389.25	917.49
389.45	983.02
389.64	922.17
389.84	966.64
390.03	973.66
390.22	1011.11
390.42	987.71
390.61	1027.50
390.81	997.07
391.00	1013.45
391.19	947.92
391.39	994.73
391.58	1100.05
391.78	997.07
391.97	1083.67
392.16	968.98
392.36	999.41
392.55	1034.52
392.75	1109.41
392.94	1062.60
393.13	1074.31
393.33	1188.99
393.52	1071.97
393.71	1139.84
393.91	1060.26
394.10	1057.92
394.29	1032.18
394.49	1130.48
394.68	1109.41
394.88	1130.48
395.07	1093.03
395.26	1174.95
395.46	1203.04
395.65	1158.57
395.84	1170.27
396.04	1247.51
396.23	1181.97
396.42	1217.08
396.62	1193.67
396.81	1254.53
397.00	1238.14
397.19	1146.86
397.39	1179.63
397.58	1397.30
397.77	1329.42
397.97	1226.44
398.16	1299.00
398.35	1235.80
398.55	1217.08
398.74	1287.29
398.93	1217.08
399.12	1345.81
399.32	1306.02
399.51	1289.64
399.70	1296.66
399.90	1345.81
400.09	1390.28
400.28	1418.36
400.47	1341.13
400.67	1380.92
400.86	1359.85
401.05	1455.81
401.24	1390.28
401.44	1437.09
401.63	1364.53
401.82	1441.77
402.01	1362.19
402.21	1495.60
402.40	1420.71
402.59	1483.90
402.78	1629.01
402.97	1530.71
403.17	1591.56
403.36	1533.05
403.55	1603.27
403.74	1565.82
403.93	1556.46
404.13	1621.99
404.32	1638.38
404.51	1645.40
404.70	1612.63
404.89	1547.09
405.09	1689.87
405.28	1703.91
405.47	1579.86
405.66	1696.89
405.85	1720.29
406.05	1675.82
406.24	1769.44
406.43	1823.28
406.62	1741.36
406.81	1727.32
407.00	1755.40
407.20	1856.04
407.39	1732.00
407.58	1942.64
407.77	1937.96
407.96	1895.83
408.15	1837.32
408.34	1856.04
408.54	2001.16
408.73	1935.62
408.92	1820.94
409.11	1982.43
409.30	2010.52
409.49	1952.01
409.68	2036.27
409.87	1984.77
410.07	1987.11
410.26	2036.27
410.45	2073.71
410.64	2071.37
410.83	2193.08
411.02	2062.01
411.21	2179.04
411.40	2129.89
411.59	2256.28
411.78	2202.44
411.98	2228.19
412.17	2200.10
412.36	2200.10
412.55	2331.17
412.74	2438.84
412.93	2342.88
413.12	2326.49
413.31	2408.41
413.50	2335.85
413.69	2361.60
413.88	2506.71
414.07	2506.71
414.26	2581.61
414.45	2429.48
414.64	2637.78
414.83	2534.80
415.02	2588.63
415.22	2726.72
415.41	2722.04
415.60	2541.82
415.79	2703.32
415.98	2722.04
416.17	2689.28
416.36	2897.58
416.55	2787.58
416.74	2789.92
416.93	2810.98
417.12	2843.75
417.31	2799.28
417.50	2913.97
417.69	3045.04
417.88	2967.80
418.07	2956.10
418.26	3002.91
418.45	2946.73
418.64	3110.57
418.83	2986.52
419.02	3030.99
419.21	3141.00
419.39	2998.23
419.58	3126.96
419.77	3148.02
419.96	3246.32
420.15	3251.00
420.34	3066.10
420.53	3148.02
420.72	3325.90
420.91	3318.88
421.10	3274.41
421.29	3309.52
421.48	3187.81
421.67	3365.69
421.86	3272.07
422.05	3300.16
422.24	3283.77
422.43	3337.60
422.61	3440.59
422.80	3351.65
422.99	3339.94
423.18	3307.18
423.37	3400.80
423.56	3318.88
423.75	3389.10
423.94	3400.80
424.13	3159.72
424.32	3356.33
424.50	3337.60
424.69	3536.55
424.88	3583.36
425.07	3421.86
425.26	3346.97
425.45	3414.84
425.64	3487.40
425.83	3506.12
426.01	3520.17
426.20	3438.25
426.39	3456.97
426.58	3412.50
426.77	3391.44
426.96	3653.58
427.15	3487.40
427.33	3534.21
427.52	3492.08
427.71	3625.49
427.90	3616.13
428.09	3609.11
428.28	3733.15
428.46	3707.41
428.65	3641.87
428.84	3644.21
429.03	3864.22
429.22	3721.45
429.40	3803.37
429.59	3756.56
429.78	3705.07
429.97	3569.32
430.16	3850.18
430.34	3864.22
430.53	3955.51
430.72	3871.25
430.91	4011.68
431.10	3885.29
431.28	3974.23
431.47	4072.53
431.66	3896.99
431.85	4002.32
432.03	4023.38
432.22	4091.26
432.41	4138.07
432.60	4142.75
432.79	4051.47
432.97	4081.89
433.16	4124.02
433.35	4112.32
433.54	4238.71
433.72	4318.29
433.91	4227.01
434.10	4234.03
434.28	4098.28
434.47	4248.07
434.66	4301.90
434.85	4393.19
435.03	4465.74
435.22	4337.01
435.41	4472.76
435.59	4393.19
435.78	4409.57
435.97	4540.64
436.16	4435.32
436.34	4489.15
436.53	4409.57
436.72	4493.83
436.90	4500.85
437.09	4601.49
437.28	4430.63
437.46	4636.60
437.65	4596.81
437.84	4688.09
438.02	4608.51
438.21	4587.45
438.40	4629.58
438.58	4720.86
438.77	4784.06
438.96	4849.59
439.14	4856.61
439.33	4844.91
439.52	5008.75
439.70	4999.38
439.89	5100.03
440.08	5123.43
440.26	4898.74
440.45	5062.58
440.63	5041.51
440.82	5315.36
441.01	5125.77
441.19	5151.52
441.38	5242.80
441.57	5331.74
441.75	5334.08
441.94	5373.87
442.12	5404.30
442.31	5444.09
442.50	5444.09
442.68	5301.31
442.87	5362.17
443.05	5465.15
443.24	5446.43
443.43	5549.41
443.61	5547.07
443.80	5893.47
443.98	5446.43
444.17	5526.00
444.35	5544.73
444.54	5636.01
444.73	5631.33
444.91	5666.44
445.10	5624.31
445.28	5682.82
445.47	5568.13
445.65	5734.31
445.84	5731.97
446.02	5659.42
446.21	5708.57
446.39	5638.35
446.58	5858.36
446.77	5561.11
446.95	5603.24
447.14	5844.32
447.32	5795.17
447.51	5806.87
447.69	5565.79
447.88	5781.12
448.06	5804.53
448.25	5706.23
448.43	5830.27
448.62	5937.94
448.80	5734.31
448.99	5921.56
449.17	5877.09
449.36	5905.17
449.54	6029.22
449.73	5970.71
449.91	6113.48
450.10	6054.97
450.28	6059.65
450.46	6183.70
450.65	6228.17
450.83	6141.57
451.02	6097.10
451.20	6232.85
451.39	6118.16
451.57	6282.00
451.76	6132.20
451.94	6171.99
452.13	6342.85
452.31	6314.77
452.49	6071.35
452.68	6504.35
452.86	6455.20
453.05	6483.28
453.23	6574.56
453.42	6363.92
453.60	6490.31
453.78	6326.47
453.97	6284.34
454.15	6431.79
454.34	6417.75
454.52	6637.76
454.70	6633.08
454.89	6438.81
455.07	6614.35
455.26	6670.53
455.44	6700.95
455.62	6736.06
455.81	6743.08
455.99	6846.07
456.17	6754.79
456.36	6640.10
456.54	6881.18
456.73	6925.65
456.91	7049.69
457.09	6942.03
457.28	7241.62
457.46	6892.88
457.64	7138.63
457.83	6825.00
458.01	6855.43
458.19	7260.34
458.38	7091.82
458.56	7166.72
458.74	7197.15
458.93	7185.44
459.11	7293.11
459.29	7155.02
459.48	7246.30
459.66	7138.63
459.84	7611.42
460.03	7597.38
460.21	7293.11
460.39	7412.48
460.57	7461.63
460.76	7487.37
460.94	7431.20
461.12	7463.97
461.31	7449.93
461.49	7508.44
461.67	7662.91
461.85	7662.91
462.04	7705.04
462.22	7964.84
462.40	7789.30
462.59	7875.90
462.77	7651.21
462.95	7758.88
463.13	7737.81
463.32	7950.80
463.50	7878.24
463.68	7887.61
463.86	8025.70
464.05	7927.39
464.23	8039.74
464.41	7927.39
464.59	7798.66
464.78	8112.30
464.96	8016.33
465.14	7932.08
465.32	8124.00
465.50	8219.96
465.69	7988.25
465.87	7925.05
466.05	8016.33
466.23	8159.11
466.41	8355.71
466.60	8367.42
466.78	8203.58
466.96	8168.47
467.14	8269.11
467.32	8219.96
467.51	8559.34
467.69	8259.75
467.87	8180.17
468.05	8716.16
468.23	8278.47
468.41	8313.58
468.60	8575.72
468.78	8372.10
468.96	8355.71
469.14	8627.21
469.32	8592.11
469.50	8383.80
469.69	8744.24
469.87	8685.73
470.05	8727.86
470.23	8994.68
470.41	8755.94
470.59	8854.25
470.77	8746.58
470.95	8720.84
471.14	8915.10
471.32	8898.72
471.50	9202.99
471.68	9043.83
471.86	9245.12
472.04	8959.57
472.22	9352.78
472.40	9259.16
472.58	9214.69
472.77	9249.80
472.95	9280.22
473.13	9741.31
473.31	9476.83
473.49	9249.80
473.67	9289.59
473.85	9685.14
474.03	9741.31
474.21	9893.44
474.39	9776.42
474.57	9884.08
474.75	9778.76
474.93	10134.52
475.12	9961.32
475.30	9980.04
475.48	10001.11
475.66	10232.82
475.84	10207.08
476.02	10125.16
476.20	10310.06
476.38	10389.64
476.56	10663.48
476.74	10689.23
476.92	10569.86
477.10	10581.56
477.28	10773.49
477.46	10927.96
477.64	10696.25
477.82	11040.31
478.00	11009.88
478.18	11049.67
478.36	11166.70
478.54	11293.08
478.72	11454.58
478.90	11400.75
479.08	11669.91
479.26	11595.01
479.44	11583.31
479.62	11747.15
479.80	11674.59
479.98	11829.07
480.16	12320.58
480.34	12187.17
480.52	12360.37
480.70	12056.10
480.88	12056.10
481.06	12596.76
481.24	12489.10
481.41	12629.53
481.59	12739.54
481.77	12844.86
481.95	12737.20
482.13	13111.68
482.31	12772.30
482.49	13338.71
482.67	13301.26
482.85	13635.96
483.03	13486.17
483.21	13525.96
483.39	13823.20
483.57	13851.29
483.74	13874.70
483.92	14064.28
484.10	13970.66
484.28	14471.53
484.46	14295.99
484.64	14885.81
484.82	14518.34
485.00	14766.44
485.18	14597.92
485.35	15073.05
485.53	14864.74
485.71	15040.28
485.89	15513.07
486.07	15438.17
486.25	15712.02
486.43	15751.81
486.61	15854.79
486.78	15901.60
486.96	15742.44
487.14	16248.00
487.32	16278.43
487.50	16362.69
487.68	16519.50
487.85	16381.41
488.03	16760.58
488.21	17018.04
488.39	17088.25
488.57	16931.44
488.75	17205.28
488.92	17371.46
489.10	17394.86
489.28	17275.49
489.46	17682.75
489.64	17879.35
489.81	18314.69
489.99	18216.39
490.17	18312.35
490.35	18410.65
490.53	18457.46
490.70	18635.35
490.88	18537.04
491.06	19136.22
491.24	18792.16
491.41	19138.56
491.59	19281.33
491.77	19260.27
491.95	19325.80
492.13	19559.86
492.30	19796.25
492.48	19669.86
492.66	19592.62
492.84	20121.59
493.01	19866.47
493.19	20142.65
493.37	20182.44
493.54	20119.24
493.72	20500.75
493.90	20758.21
494.08	21015.67
494.25	20720.76
494.43	20926.73
494.61	21254.40
494.79	21106.95
494.96	21247.38
495.14	21846.56
495.32	22169.55
495.49	21979.97
495.67	21661.66
495.85	22045.51
496.02	22073.59
496.20	22244.45
496.38	22480.85
496.55	22522.98
496.73	22904.48
496.91	22654.05
497.09	22759.37
497.26	22616.60
497.44	22923.21
497.62	22916.19
497.79	23578.56
497.97	23318.76
498.14	23616.01
498.32	23501.32
498.50	23775.16
498.67	24107.52
498.85	24041.98
499.03	23828.99
499.20	24407.11
499.38	24486.68
499.56	24257.31
499.73	24514.77
499.91	24905.64
500.08	25015.65
500.26	24542.86
500.44	24744.14
500.61	24865.85
500.79	24861.17
500.97	24954.79
501.14	25603.12
501.32	25170.12
501.49	25331.62
501.67	25551.63
501.84	25397.15
502.02	25699.08
502.20	25584.40
502.37	25851.22
502.55	25355.02
502.72	26118.04
502.90	25921.43
503.07	25933.14
503.25	26319.32
503.43	26267.83
503.60	26862.33
503.78	26726.58
503.95	26494.86
504.13	26529.97
504.30	26562.74
504.48	26810.84
504.65	26724.24
504.83	27007.44
505.01	27222.77
505.18	27140.85
505.36	27690.88
505.53	27597.26
505.71	27578.53
505.88	27611.30
506.06	27477.89
506.23	27730.67
506.41	27723.65
506.58	27910.89
506.76	27835.99
506.93	27974.08
507.11	28006.85
507.28	28072.39
507.46	28297.08
507.63	28266.65
507.81	28329.84
507.98	28449.21
508.16	28416.44
508.33	28638.80
508.50	28701.99
508.68	29029.66
508.85	28610.71
509.03	28779.23
509.20	29219.25
509.38	29490.75
509.55	29481.39
509.73	29156.05
509.90	29626.50
510.08	29385.43
510.25	29628.84
510.42	29921.41
510.60	29958.86
510.77	30202.27
510.95	30478.46
511.12	29783.32
511.30	29926.09
511.47	30071.20
511.64	30045.46
511.82	30356.75
511.99	30293.55
512.17	30373.13
512.34	30513.56
512.51	31061.25
512.69	30766.34
512.86	31236.79
513.04	30920.82
513.21	31187.64
513.38	30649.32
513.56	31248.49
513.73	31222.75
513.90	31695.53
514.08	30834.22
514.25	31229.77
514.43	31580.85
514.60	31777.45
514.77	31981.08
514.95	31817.24
515.12	31779.79
515.29	31468.50
515.47	31889.80
515.64	31913.20
515.81	31714.26
515.99	32114.49
516.16	32306.41
516.33	32196.41
516.51	32496.00
516.68	32348.54
516.85	32608.34
517.03	32538.13
517.20	32868.14
517.37	32725.37
517.54	32627.07
517.72	32861.12
517.89	32856.44
518.06	33200.50
518.24	33251.99
518.41	32751.12
518.58	33127.94
518.75	32938.36
518.93	33378.38
519.10	33216.88
519.27	33202.84
519.45	33589.03
519.62	34110.97
519.79	33692.01
519.96	33947.13
520.14	34293.53
520.31	33991.60
520.48	34354.38
520.65	33874.57
520.83	34752.27
521.00	34483.11
521.17	34258.42
521.34	34352.04
521.52	34593.12
521.69	34192.89
521.86	35241.45
522.03	34749.93
522.20	34719.51
522.38	35147.82
522.55	35168.89
522.72	35192.30
522.89	34969.94
523.07	35723.60
523.24	35416.99
523.41	35227.40
523.58	35124.42
523.75	36079.36
523.92	35363.15
524.10	35421.67
524.27	35501.25
524.44	35768.07
524.61	36109.78
524.78	35620.61
524.96	36280.64
525.13	36180.00
525.30	36545.12
525.47	36549.81
525.64	35665.08
525.81	36189.36
525.98	36613.00
526.16	36318.09
526.33	36472.57
526.50	36999.19
526.67	36278.30
526.84	36723.01
527.01	36769.82
527.18	36898.55
527.36	36521.72
527.53	37022.59
527.70	37163.03
527.87	36830.67
528.04	36999.19
528.21	36875.14
528.38	37163.03
528.55	37404.10
528.72	37214.52
528.89	37109.19
529.07	36783.86
529.24	37198.13
529.41	37432.19
529.58	37858.17
529.75	37013.23
529.92	37172.39
530.09	38291.16
530.26	38080.52
530.43	38295.85
530.60	37752.84
530.77	37549.21
530.94	38103.92
531.11	37675.60
531.28	38408.19
531.46	38014.98
531.63	38148.39
531.80	38202.22
531.97	38586.07
532.14	38234.99
532.31	38546.28
532.48	38696.08
532.65	38593.09
532.82	38391.81
532.99	38646.93
533.16	38281.80
533.33	38909.07
533.50	39248.44
533.67	38675.01
533.84	38918.43
534.01	38827.15
534.18	38909.07
534.35	38988.64
534.52	39180.57
534.69	39459.09
534.86	39213.34
535.03	39318.66
535.20	39639.31
535.37	39363.13
535.54	39746.98
535.71	39718.89
535.88	39934.22
536.05	39821.87
536.22	39578.46
536.38	39484.84
536.55	39421.64
536.72	39995.07
536.89	39847.62
537.06	39798.47
537.23	40165.93
537.40	39674.42
537.57	39990.39
537.74	40102.74
537.91	39739.96
538.08	40076.99
538.25	39746.98
538.42	40217.43
538.59	40308.71
538.75	40236.15
538.92	40603.61
539.09	40531.06
539.26	40645.74
539.43	40739.36
539.60	40620.00
539.77	40268.92
539.94	40154.23
540.11	40652.76
540.28	40744.05
540.44	41106.83
540.61	40758.09
540.78	40423.39
540.95	40996.82
541.12	40666.81
541.29	40863.41
541.46	41111.51
541.62	40828.30
541.79	41703.67
541.96	40985.12
542.13	40903.20
542.30	41521.10
542.47	41448.55
542.63	41380.67
542.80	41659.20
542.97	41572.60
543.14	41626.43
543.31	42000.91
543.48	42087.51
543.64	42277.10
543.81	41977.51
543.98	42115.60
544.15	41904.95
544.32	41996.23
544.48	42473.70
544.65	42560.30
544.82	42501.79
544.99	42181.13
545.16	42113.26
545.32	42450.30
545.49	42520.51
545.66	42890.32
545.83	42492.43
546.00	43035.43
546.16	42674.99
546.33	42609.45
546.50	42457.32
546.67	42644.56
546.83	42284.12
547.00	42792.01
547.17	42674.99
547.34	42693.71
547.50	42784.99
547.67	43014.37
547.84	42902.02
548.00	43072.88
548.17	43374.81
548.34	43529.28
548.51	43557.37
548.67	43438.00
548.84	43384.17
549.01	43339.70
549.18	43328.00
549.34	43260.12
549.51	43260.12
549.68	44002.07
549.84	43990.37
550.01	43531.62
550.18	43473.11
550.34	43505.88
550.51	43732.91
550.68	43929.51
550.84	43552.69
551.01	43709.50
551.18	43381.83
551.34	43742.27
551.51	44245.49
551.68	44123.78
551.84	43920.15
552.01	43814.83
552.18	44182.29
552.34	43924.83
552.51	44465.50
552.68	43714.19
552.84	44203.36
553.01	44135.48
553.18	43936.54
553.34	44397.62
553.51	44526.35
553.67	44116.76
553.84	44320.38
554.01	44847.00
554.17	44219.74
554.34	44631.68
554.51	44280.60
554.67	44676.15
554.84	44666.78
555.00	44479.54
555.17	44479.54
555.33	45008.50
555.50	44685.51
555.67	44868.07
555.83	44737.00
556.00	44870.41
556.16	45258.94
556.33	44954.67
556.50	45216.81
556.66	45223.83
556.83	45076.38
556.99	45083.40
557.16	45139.57
557.32	45020.20
557.49	45310.43
557.65	45083.40
557.82	45055.31
557.98	45057.65
558.15	44996.80
558.32	45467.25
558.48	44804.88
558.65	45088.08
558.81	45668.53
558.98	44893.82
559.14	45272.98
559.31	45240.21
559.47	45270.64
559.64	45275.32
559.80	45736.41
559.97	46143.66
560.13	45095.10
560.30	45331.50
560.46	45261.28
560.63	45860.46
560.79	45689.60
560.96	45755.13
561.12	45900.25
561.29	45556.19
561.45	45633.42
561.61	45631.08
561.78	45722.37
561.94	45593.64
562.11	45500.01
562.27	45624.06
562.44	45830.03
562.60	45837.05
562.77	46162.39
562.93	45464.91
563.10	45743.43
563.26	45867.48
563.42	46319.20
563.59	46279.41
563.75	46003.23
563.92	46036.00
564.08	45771.52
564.24	46120.26
564.41	45993.87
564.57	46454.95
564.74	46021.95
564.90	46017.27
565.07	45872.16
565.23	45888.54
565.39	45904.93
565.56	46195.15
565.72	46078.13
565.88	46637.51
566.05	46298.14
566.21	46227.92
566.38	46204.52
566.54	46597.73
566.70	46389.42
566.87	46447.93
567.03	46115.58
567.19	46763.90
567.36	46469.00
567.52	46321.54
567.68	46932.42
567.85	46450.27
568.01	46586.02
568.17	45736.41
568.34	47056.47
568.50	46492.40
568.66	46101.53
568.83	46368.35
568.99	46686.67
569.15	46941.78
569.32	46506.44
569.48	46274.73
569.64	47096.26
569.81	46665.60
569.97	46997.96
570.13	46827.10
570.30	46628.15
570.46	46457.29
570.62	46953.49
570.78	46604.75
570.95	46513.47
571.11	46515.81
571.27	46476.02
571.43	46944.12
571.60	46742.84
571.76	46419.84
571.92	46696.03
572.09	46492.40
572.25	46597.73
572.41	46319.20
572.57	46892.63
572.74	47061.15
572.90	46918.38
573.06	46759.22
573.22	47100.94
573.38	47234.35
573.55	46740.50
573.71	47494.15
573.87	47140.73
574.03	47103.28
574.20	46923.06
574.36	46770.93
574.52	46958.17
574.68	47569.05
574.84	47224.99
575.01	46948.81
575.17	47012.00
575.33	47171.16
575.49	46817.74
575.65	46965.19
575.82	47180.52
575.98	46843.48
576.14	47437.98
576.30	47407.55
576.46	47377.12
576.62	47402.87
576.79	47042.43
576.95	46487.72
577.11	46775.61
577.27	47283.50
577.43	47274.14
577.59	47386.49
577.75	47124.35
577.92	46735.82
578.08	47124.35
578.24	46974.55
578.40	47489.47
578.56	47180.52
578.72	46951.15
578.88	47515.22
579.04	46946.47
579.21	46927.74
579.37	47210.95
579.53	47299.89
579.69	47264.78
579.85	47206.26
580.01	47061.15
580.17	46951.15
580.33	47447.34
580.49	47459.04
580.65	47044.77
580.82	47777.36
580.98	47019.02
581.14	47019.02
581.30	47814.80
581.46	47000.30
581.62	47292.86
581.78	47079.88
581.94	47412.23
582.10	47267.12
582.26	47107.96
582.42	47189.88
582.58	47440.32
582.74	47304.57
582.90	47203.92
583.06	47435.64
583.22	47199.24
583.38	47349.04
583.54	47391.17
583.70	47585.43
583.86	47618.20
584.02	47320.95
584.18	47297.55
584.34	47711.82
584.50	47531.60
584.66	47845.23
584.82	47196.90
584.98	47854.59
585.14	47580.75
585.30	47264.78
585.46	47590.11
585.62	46958.17
585.78	47688.42
585.94	46962.85
586.10	47758.63
586.26	47306.91
586.42	47524.58
586.58	47501.17
586.74	47262.44
586.90	47463.72
587.06	47426.28
587.22	47505.85
587.38	47442.66
587.54	47931.83
587.70	47529.26
587.86	47283.50
588.02	47423.93
588.18	47536.28
588.34	47255.42
588.49	47416.91
588.65	47440.32
588.81	47428.62
588.97	47739.91
589.13	47578.41
589.29	47648.63
589.45	47931.83
589.61	47447.34
589.77	47786.72
589.93	47414.57
590.08	47943.53
590.24	47709.48
590.40	48086.31
590.56	47915.45
590.72	47620.54
590.88	47646.29
591.04	47477.77
591.20	48074.60
591.35	47751.61
591.51	48311.00
591.67	48231.42
591.83	48074.60
591.99	47931.83
592.15	47625.22
592.31	47742.25
592.46	47543.30
592.62	48083.97
592.78	48039.50
592.94	48151.84
593.10	47995.03
593.26	48383.55
593.41	48250.14
593.57	48083.97
593.73	48367.17
593.89	48694.85
594.05	48392.92
594.20	48245.46
594.36	48451.43
594.52	48456.11
594.68	48072.26
594.84	47625.22
594.99	48360.15
595.15	48034.81
595.31	48051.20
595.47	48039.50
595.62	48006.73
595.78	48105.03
595.94	48186.95
596.10	48203.33
596.25	48065.24
596.41	48463.13
596.57	47835.87
596.73	48325.04
596.88	48318.02
597.04	48442.07
597.20	48158.86
597.36	48247.80
597.51	48605.91
597.67	47711.82
597.83	48048.86
597.99	48254.82
598.14	48673.78
598.30	48318.02
598.46	47859.27
598.61	48287.59
598.77	48437.39
598.93	48385.89
599.09	48446.75
599.24	48861.02
599.40	48147.16
599.56	48292.27
599.71	48516.96
599.87	48669.10
600.03	48804.85
600.18	48589.52
600.34	48458.45
600.50	48638.67
600.65	48205.67
600.81	48556.75
600.97	48926.56
601.12	48666.76
601.28	48589.52
601.44	48336.74
601.59	48411.64
601.75	48327.38
601.91	48673.78
602.06	48116.73
602.22	48643.35
602.37	48357.81
602.53	48135.46
602.69	48662.08
602.84	48236.10
603.00	48325.04
603.16	48053.54
603.31	48516.96
603.47	48458.45
603.62	48051.20
603.78	48545.05
603.94	48538.03
604.09	48385.89
604.25	48186.95
604.40	48392.92
604.56	48430.36
604.71	48484.20
604.87	48023.11
605.03	47873.32
605.18	48421.00
605.34	48655.06
605.49	48306.32
605.65	48596.54
605.80	48275.89
605.96	48119.07
606.12	48493.56
606.27	48186.95
606.43	48311.00
606.58	48477.18
606.74	48090.99
606.89	48147.16
607.05	48458.45
607.20	48783.79
607.36	48245.46
607.51	48479.52
607.67	48205.67
607.82	47915.45
607.98	47580.75
608.13	48163.54
608.29	47941.19
608.44	48200.99
608.60	48224.40
608.75	48516.96
608.91	48177.59
609.06	48130.78
609.22	48184.61
609.37	48341.42
609.53	48105.03
609.68	47899.06
609.84	48081.63
609.99	48285.25
610.15	47966.94
610.30	48041.84
610.46	47753.95
610.61	48311.00
610.76	48135.46
610.92	47695.44
611.07	47955.24
611.23	47669.69
611.38	47632.24
611.54	48060.56
611.69	48224.40
611.84	48303.98
612.00	47821.83
612.15	47885.02
612.31	47901.40
612.46	47433.30
612.62	47966.94
612.77	47566.71
612.92	47604.16
613.08	47615.86
613.23	47828.85
613.39	47405.21
613.54	47346.70
613.69	47805.44
613.85	47739.91
614.00	47526.92
614.15	47735.23
614.31	47627.56
614.46	47833.53
614.62	47374.78
614.77	47711.82
614.92	47276.48
615.08	47533.94
615.23	47772.67
615.38	47573.73
615.54	47501.17
615.69	47838.21
615.84	47700.12
616.00	47793.74
616.15	47592.45
616.30	47613.52
616.46	47552.66
616.61	47599.47
616.76	47793.74
616.92	47206.26
617.07	47559.69
617.22	47136.05
617.37	47159.45
617.53	47428.62
617.68	47220.31
617.83	47393.51
617.99	47744.59
618.14	47730.54
618.29	47138.39
618.45	46967.53
618.60	47536.28
618.75	47068.17
618.90	47009.66
619.06	47391.17
619.21	47267.12
619.36	47566.71
619.51	46927.74
619.67	47229.67
619.82	47119.66
619.97	47445.00
620.12	47042.43
620.28	47173.50
620.43	46789.65
620.58	47070.51
620.73	46866.89
620.89	47033.07
621.04	47133.71
621.19	47173.50
621.34	46791.99
621.49	46754.54
621.65	46869.23
621.80	47035.41
621.95	46976.89
622.10	47171.16
622.25	46775.61
622.41	46976.89
622.56	47140.73
622.71	46663.26
622.86	47224.99
623.01	46693.69
623.16	46265.37
623.32	46637.51
623.47	46745.18
623.62	46342.61
623.77	46628.15
623.92	46618.79
624.07	46635.17
624.23	46997.96
624.38	46291.12
624.53	46373.03
624.68	46197.49
624.83	46504.10
624.98	46286.43
625.13	45872.16
625.29	46363.67
625.44	46321.54
625.59	46082.81
625.74	46316.86
625.89	46183.45
626.04	46007.91
626.19	46007.91
626.34	46010.25
626.49	45612.36
626.65	45853.44
626.80	46131.96
626.95	45724.71
627.10	45408.73
627.25	46302.82
627.40	46326.22
627.55	45698.96
627.70	45914.29
627.85	46066.42
628.00	46546.23
628.15	45942.38
628.30	45591.30
628.45	45492.99
628.60	45670.87
628.76	45633.42
628.91	45492.99
629.06	45481.29
629.21	45511.72
629.36	45434.48
629.51	45434.48
629.66	46113.23
629.81	45703.64
629.96	46059.40
630.11	45858.12
630.26	45670.87
630.41	45357.24
630.56	45198.09
630.71	45378.31
630.86	45265.96
631.01	45181.70
631.16	45120.85
631.31	45137.23
631.46	45628.74
631.61	45605.34
631.76	45607.68
631.91	45155.96
632.06	45350.22
632.21	45240.21
632.36	45766.84
632.51	44910.20
632.66	45521.08
632.81	45670.87
632.96	45354.90
633.10	44945.31
633.25	45151.27
633.40	45350.22
633.55	45390.01
633.70	45062.33
633.85	44889.13
634.00	44847.00
634.15	44729.98
634.30	44648.06
634.45	45006.16
634.60	44889.13
634.75	45237.87
634.90	44858.71
635.05	45097.44
635.19	45045.95
635.34	44954.67
635.49	44657.42
635.64	44671.46
635.79	44765.09
635.94	44779.13
636.09	44694.87
636.24	44701.89
636.39	44531.03
636.53	44559.12
636.68	44428.05
636.83	44266.55
636.98	44257.19
637.13	44320.38
637.28	44240.81
637.43	44039.52
637.57	44374.22
637.72	44081.65
637.87	44280.60
638.02	44287.62
638.17	44451.45
638.32	44243.15
638.46	44149.53
638.61	43749.29
638.76	44409.32
638.91	44072.29
639.06	43779.72
639.20	43842.92
639.35	43852.28
639.50	43559.71
639.65	44107.40
639.80	44135.48
639.94	44275.91
640.09	44018.46
640.24	43931.86
640.39	43590.14
640.54	43679.08
640.68	43784.40
640.83	43882.70
640.98	43372.47
641.13	43477.79
641.27	44069.95
641.42	43775.04
641.57	43370.13
641.72	43976.33
641.86	43372.47
642.01	43278.85
642.16	43409.92
642.31	43349.06
642.45	43632.27
642.60	43220.33
642.75	43365.45
642.90	43608.86
643.04	43573.75
643.19	43646.31
643.34	43166.50
643.48	43028.41
643.63	43161.82
643.78	43215.65
643.93	43524.60
644.07	43559.71
644.22	43346.72
644.37	43246.08
644.51	43552.69
644.66	43117.35
644.81	43068.20
644.95	43168.84
645.10	43171.18
645.25	43091.60
645.39	42911.38
645.54	42473.70
645.69	42513.49
645.83	43215.65
645.98	42689.03
646.13	42693.71
646.27	42759.25
646.42	42637.54
646.57	42946.49
646.71	43222.67
646.86	42698.39
647.00	42852.87
647.15	43093.94
647.30	43236.72
647.44	42747.54
647.59	42651.58
647.74	42272.42
647.88	43239.06
648.03	42586.05
648.17	43105.65
648.32	42857.55
648.47	43122.03
648.61	42876.27
648.76	41867.50
648.90	42658.60
649.05	42541.58
649.20	42139.00
649.34	42747.54
649.49	42356.67
649.63	42464.34
649.78	42433.91
649.92	42286.46
650.07	42906.70
650.21	42478.38
650.36	42155.39
650.51	42260.71
650.65	42122.62
650.80	42696.05
650.94	42258.37
651.09	41979.85
651.23	41701.32
651.38	42274.76
651.52	41787.92
651.67	42117.94
651.81	42363.70
651.96	42146.03
652.10	41773.88
652.25	41724.73
652.39	41816.01
652.54	41862.82
652.68	41818.35
652.83	41862.82
652.97	42253.69
653.12	41954.10
653.26	41399.40
653.41	41783.24
653.55	41691.96
653.70	42281.78
653.84	41933.04
653.99	41607.70
654.13	41645.15
654.27	41724.73
654.42	41869.84
654.56	41528.13
654.71	41462.59
654.85	41586.64
655.00	41507.06
655.14	41820.69
655.29	41624.09
655.43	41773.88
655.57	41392.37
655.72	41109.17
655.86	41294.07
656.01	41315.14
656.15	41010.87
656.30	41383.01
656.44	41226.20
656.58	40830.65
656.73	41013.21
656.87	41006.19
657.01	40921.93
657.16	41677.92
657.30	41155.98
657.45	41233.22
657.59	40989.80
657.73	40264.24
657.88	41020.23
658.02	41207.47
658.16	40973.42
658.31	41090.44
658.45	40809.58
658.60	40601.27
658.74	40666.81
658.88	41003.85
659.03	40238.49
659.17	40711.28
659.31	40271.26
659.46	40285.30
659.60	40762.77
659.74	40467.86
659.89	39945.92
660.03	40208.06
660.17	40509.99
660.32	40259.55
660.46	40294.66
660.60	40238.49
660.74	39859.32
660.89	39683.78
661.03	39658.04
661.17	39697.83
661.32	39515.26
661.46	39784.43
661.60	39597.18
661.74	39739.96
661.89	39971.67
662.03	39754.00
662.17	39423.98
662.31	39220.36
662.46	40004.44
662.60	39440.37
662.74	39154.82
662.88	39182.91
663.03	39220.36
663.17	39117.37
663.31	38862.26
663.45	38958.22
663.60	39379.51
663.74	39100.99
663.88	38918.43
664.02	38742.89
664.17	39147.80
664.31	38628.20
664.45	38602.46
664.59	38628.20
664.73	38471.39
664.88	38363.72
665.02	38621.18
665.16	38478.41
665.30	38918.43
665.44	38522.88
665.59	38368.40
665.73	38291.16
665.87	37734.12
666.01	37764.54
666.15	38029.02
666.29	37886.25
666.44	38396.49
666.58	38136.69
666.72	37661.56
666.86	37865.19
667.00	37647.52
667.14	37722.41
667.28	37394.74
667.43	37207.50
667.57	37832.42
667.71	37724.75
667.85	37825.40
667.99	37392.40
668.13	37893.27
668.27	37102.17
668.41	37338.57
668.56	36657.47
668.70	37053.02
668.84	36687.90
668.98	36767.48
669.12	36500.65
669.26	37102.17
669.40	37235.58
669.54	36760.45
669.68	36954.72
669.82	36559.17
669.96	36371.92
670.10	36079.36
670.25	36268.94
670.39	36128.51
670.53	36362.56
670.67	36259.58
670.81	36570.87
670.95	36414.05
671.09	35842.96
671.23	35709.55
671.37	35732.96
671.51	36114.47
671.65	35807.86
671.79	35615.93
671.93	35709.55
672.07	35768.07
672.21	36006.80
672.35	35473.16
672.49	35323.36
672.63	35426.35
672.77	34941.86
672.91	35323.36
673.05	34892.71
673.19	34972.28
673.33	34745.25
673.47	34771.00
673.61	34644.61
673.75	34902.07
673.89	34691.42
674.03	34363.75
674.17	34157.78
674.31	34134.37
674.45	34117.99
674.59	34274.80
674.73	33708.40
674.87	33895.64
675.01	33848.83
675.15	33722.44
675.29	33354.97
675.43	33582.01
675.56	33905.00
675.70	33530.51
675.84	33195.82
675.98	32428.12
676.12	33530.51
676.26	33684.99
676.40	33074.11
676.54	32514.72
676.68	32809.63
676.82	32280.67
676.96	32821.33
677.10	32503.02
677.23	32704.31
677.37	32708.99
677.51	32261.94
677.65	32065.34
677.79	32011.51
677.93	32414.08
678.07	31819.58
678.21	31819.58
678.34	31732.98
678.48	31620.64
678.62	31421.69
678.76	31365.52
678.90	31517.65
679.04	31391.26
679.18	31395.95
679.31	30892.73
679.45	30864.64
679.59	30492.50
679.73	30740.60
679.87	30785.07
680.00	30644.63
680.14	30471.43
680.28	30363.77
680.42	30279.51
680.56	30242.06
680.70	29851.19
680.83	29659.27
680.97	29848.85
681.11	30188.23
681.25	29659.27
681.39	29455.64
681.52	29600.76
681.66	29160.73
681.80	29308.19
681.94	28510.07
682.07	28629.43
682.21	28636.45
682.35	28432.83
682.49	28739.44
682.62	28608.37
682.76	29156.05
682.90	28767.52
683.04	28496.02
683.17	28547.51
683.31	28095.79
683.45	27971.74
683.59	27803.22
683.72	27697.90
683.86	27840.67
684.00	27714.28
684.13	27665.13
684.27	27564.49
684.41	27367.88
684.55	26991.06
684.68	27295.33
684.82	27087.02
684.96	27005.10
685.09	27096.38
685.23	27424.06
685.37	27522.36
685.50	27037.87
685.64	26834.24
685.78	26661.04
685.91	26761.69
686.05	26419.97
686.19	25865.26
686.32	25965.90
686.46	25802.07
686.60	25570.35
686.73	26001.01
686.87	25937.82
687.01	25462.69
687.14	25750.57
687.28	25514.18
687.42	25383.11
687.55	25287.15
687.69	25516.52
687.82	24828.40
687.96	24861.17
688.10	25184.16
688.23	25015.65
688.37	24980.54
688.50	25085.86
688.64	24554.56
688.78	24470.30
688.91	24266.67
689.05	24678.61
689.18	24198.80
689.32	23466.21
689.46	23513.02
689.59	23798.57
689.73	24364.98
689.86	24095.82
690.00	23601.96
690.13	23541.11
690.27	23440.47
690.41	23660.48
690.54	23154.92
690.68	23213.43
690.81	22834.27
690.95	22567.45
691.08	22843.63
691.22	22902.14
691.35	22464.46
691.49	23012.15
691.62	22696.17
691.76	22342.75
691.89	22267.86
692.03	21738.90
692.16	21844.22
692.30	21986.99
692.43	21781.03
692.57	21661.66
692.70	21722.51
692.84	21783.37
692.97	21415.90
693.11	21380.79
693.24	21502.50
693.38	21301.22
693.51	21060.14
693.65	21228.66
693.78	20985.24
693.92	20823.75
694.05	20688.00
694.19	20790.98
694.32	20709.06
694.45	20858.85
694.59	20418.83
694.72	20587.35
694.86	20414.15
694.99	20243.29
695.13	20156.69
695.26	20032.65
695.39	19826.68
695.53	19639.44
695.66	19784.55
695.80	19360.91
695.93	19609.01
696.07	19356.23
696.20	18988.77
696.33	19389.00
696.47	19016.85
696.60	19192.39
696.73	19070.68
696.87	18953.66
697.00	18979.40
697.14	18824.93
697.27	18607.26
697.40	18771.10
697.54	18530.02
697.67	18492.57
697.80	18221.07
697.94	18253.84
698.07	18394.27
698.21	18054.89
698.34	18464.49
698.47	17977.65
698.61	17455.72
698.74	17502.53
698.87	17577.42
699.01	17549.34
699.14	17575.08
699.27	17355.07
699.40	17624.23
699.54	17132.72
699.67	17088.25
699.80	17146.76
699.94	17071.87
700.07	16966.54
700.20	16725.47
700.34	16772.28
700.47	16762.92
700.60	16645.89
700.73	16734.83
700.87	16325.24
701.00	16212.89
701.13	16215.23
701.26	16107.57
701.40	16299.49
701.53	15983.52
701.66	16224.59
701.79	16032.67
701.93	15690.95
702.06	15569.24
702.19	15452.22
702.32	15761.17
702.46	15733.08
702.59	15826.70
702.72	15709.68
702.85	15276.68
702.99	15515.41
703.12	15159.65
703.25	14810.91
703.38	14677.50
703.51	15077.73
703.65	14796.87
703.78	14689.20
703.91	14422.38
704.04	14422.38
704.17	14691.54
704.31	14661.12
704.44	14424.72
704.57	14382.59
704.70	14061.94
704.83	14197.69
704.96	14251.52
705.10	14324.08
705.23	13806.82
>>>>>End Processed Spectral Data<<<<<
