SpectraSuite Data File
++++++++++++++++++++++++++++++++++++
Date: Fri Oct 25 10:47:24 EDT 2013
User: price-jones
Dark Spectrum Present: No
Reference Spectrum Present: No
Number of Sampled Component Spectra: 1
Spectrometers: USB2+H05261
Integration Time (usec): 100000 (USB2+H05261)
Spectra Averaged: 1 (USB2+H05261)
Boxcar Smoothing: 0 (USB2+H05261)
Correct for Electrical Dark: No (USB2+H05261)
Strobe/Lamp Enabled: No (USB2+H05261)
Correct for Detector Non-linearity: No (USB2+H05261)
Correct for Stray Light: No (USB2+H05261)
Number of Pixels in Processed Spectrum: 2048
>>>>>Begin Processed Spectral Data<<<<<
365.73	119.37
365.92	119.37
366.12	119.37
366.32	60.85
366.52	14.04
366.72	56.17
366.91	37.45
367.11	79.58
367.31	11.70
367.51	42.13
367.70	107.66
367.90	72.56
368.10	0.00
368.30	42.13
368.49	25.75
368.69	126.39
368.89	46.81
369.09	51.49
369.28	63.19
369.48	46.81
369.68	98.30
369.87	119.37
370.07	53.83
370.27	138.09
370.47	180.22
370.66	358.10
370.86	444.70
371.06	428.32
371.25	449.38
371.45	428.32
371.65	376.83
371.84	461.09
372.04	430.66
372.24	386.19
372.44	526.62
372.63	416.62
372.83	512.58
373.03	496.19
373.22	479.81
373.42	528.96
373.62	526.62
373.81	564.07
374.01	521.94
374.21	528.96
374.40	477.47
374.60	638.97
374.79	514.92
374.99	437.68
375.19	547.69
375.38	557.05
375.58	587.47
375.78	624.92
375.97	617.90
376.17	669.39
376.37	540.66
376.56	524.28
376.76	615.56
376.95	589.82
377.15	629.60
377.35	678.76
377.54	645.99
377.74	622.58
377.93	631.94
378.13	557.05
378.33	683.44
378.52	723.23
378.72	657.69
378.91	631.94
379.11	601.52
379.31	610.88
379.50	606.20
379.70	695.14
379.89	657.69
380.09	664.71
380.28	641.31
380.48	688.12
380.68	667.05
380.87	655.35
381.07	608.54
381.26	779.40
381.46	716.20
381.65	678.76
381.85	709.18
382.04	716.20
382.24	681.10
382.43	660.03
382.63	667.05
382.83	702.16
383.02	695.14
383.22	821.53
383.41	777.06
383.61	631.94
383.80	770.04
384.00	667.05
384.19	706.84
384.39	716.20
384.58	716.20
384.78	798.12
384.97	800.46
385.17	786.42
385.36	758.33
385.56	730.25
385.75	737.27
385.95	863.66
386.14	854.30
386.34	854.30
386.53	753.65
386.72	744.29
386.92	765.36
387.11	821.53
387.31	828.55
387.50	840.25
387.70	777.06
387.89	856.64
388.09	856.64
388.28	798.12
388.48	835.57
388.67	854.30
388.86	858.98
389.06	929.19
389.25	940.90
389.45	903.45
389.64	950.26
389.84	952.60
390.03	929.19
390.22	957.28
390.42	908.13
390.61	880.04
390.81	870.68
391.00	938.55
391.19	947.92
391.39	910.47
391.58	954.94
391.78	926.85
391.97	1006.43
392.16	978.34
392.36	1053.24
392.55	957.28
392.75	952.60
392.94	926.85
393.13	1046.22
393.33	964.30
393.52	964.30
393.71	1036.86
393.91	1022.81
394.10	999.41
394.29	1025.15
394.49	1095.37
394.68	1135.16
394.88	1095.37
395.07	1088.35
395.26	1158.57
395.46	1144.52
395.65	1095.37
395.84	1116.44
396.04	1214.74
396.23	1125.80
396.42	1118.78
396.62	1118.78
396.81	1116.44
397.00	1184.31
397.19	1149.20
397.39	1191.33
397.58	1231.12
397.77	1188.99
397.97	1273.25
398.16	1357.51
398.35	1359.85
398.55	1282.61
398.74	1359.85
398.93	1254.53
399.12	1336.45
399.32	1334.11
399.51	1348.15
399.70	1387.94
399.90	1306.02
400.09	1406.66
400.28	1427.73
400.47	1446.45
400.67	1516.67
400.86	1444.11
401.05	1453.47
401.24	1345.81
401.44	1451.13
401.63	1521.35
401.82	1495.60
402.01	1397.30
402.21	1589.22
402.40	1591.56
402.59	1591.56
402.78	1465.18
402.97	1497.94
403.17	1521.35
403.36	1572.84
403.55	1664.12
403.74	1556.46
403.93	1696.89
404.13	1591.56
404.32	1607.95
404.51	1647.74
404.70	1703.91
404.89	1699.23
405.09	1788.17
405.28	1734.34
405.47	1820.94
405.66	1722.63
405.85	1804.55
406.05	1781.15
406.24	1839.66
406.43	1902.86
406.62	1820.94
406.81	1884.13
407.00	1849.02
407.20	1844.34
407.39	1788.17
407.58	1928.60
407.77	1891.15
407.96	1921.58
408.15	1977.75
408.34	2001.16
408.54	1989.46
408.73	1940.30
408.92	1989.46
409.11	2113.50
409.30	1996.48
409.49	1984.77
409.68	1935.62
409.87	2050.31
410.07	2165.00
410.26	2097.12
410.45	2148.61
410.64	2188.40
410.83	2263.30
411.02	2300.75
411.21	2284.36
411.40	2237.55
411.59	2326.49
411.78	2321.81
411.98	2270.32
412.17	2361.60
412.36	2385.01
412.55	2333.51
412.74	2403.73
412.93	2389.69
413.12	2345.22
413.31	2551.18
413.50	2516.08
413.69	2469.27
413.88	2600.34
414.07	2518.42
414.26	2736.09
414.45	2696.30
414.64	2668.21
414.83	2633.10
415.02	2677.57
415.22	2635.44
415.41	2731.41
415.60	2759.49
415.79	2951.42
415.98	2846.09
416.17	2759.49
416.36	2836.73
416.55	2853.11
416.74	2892.90
416.93	2815.66
417.12	2850.77
417.31	3014.61
417.50	2946.73
417.69	3084.83
417.88	2960.78
418.07	2944.39
418.26	2958.44
418.45	3084.83
418.64	3318.88
418.83	3190.15
419.02	3117.59
419.21	3311.86
419.39	3192.49
419.58	3180.79
419.77	3239.30
419.96	3243.98
420.15	3391.44
420.34	3382.07
420.53	3295.47
420.72	3417.18
420.91	3342.28
421.10	3382.07
421.29	3410.16
421.48	3382.07
421.67	3442.93
421.86	3318.88
422.05	3442.93
422.24	3297.81
422.43	3489.74
422.61	3475.70
422.80	3365.69
422.99	3461.65
423.18	3716.77
423.37	3737.84
423.56	3485.06
423.75	3438.25
423.94	3384.41
424.13	3286.11
424.32	3440.59
424.50	3531.87
424.69	3564.64
424.88	3522.51
425.07	3396.12
425.26	3421.86
425.45	3611.45
425.64	3482.72
425.83	3555.27
426.01	3557.61
426.20	3475.70
426.39	3574.00
426.58	3611.45
426.77	3595.06
426.96	3662.94
427.15	3597.40
427.33	3721.45
427.52	3707.41
427.71	3672.30
427.90	3590.38
428.09	3808.05
428.28	3684.00
428.46	3698.05
428.65	3815.07
428.84	3744.86
429.03	3983.59
429.22	3686.34
429.40	3777.62
429.59	3824.44
429.78	3672.30
429.97	3531.87
430.16	3875.93
430.34	3744.86
430.53	3995.29
430.72	4002.32
430.91	3908.69
431.10	4035.08
431.28	3997.64
431.47	3985.93
431.66	4121.68
431.85	4021.04
432.03	4184.88
432.22	4353.40
432.41	4154.45
432.60	4252.75
432.79	4217.65
432.97	4421.27
433.16	4252.75
433.35	4117.00
433.54	4215.30
433.72	4252.75
433.91	4294.88
434.10	4250.41
434.28	4248.07
434.47	4531.28
434.66	4365.10
434.85	4456.38
435.03	4559.36
435.22	4440.00
435.41	4685.75
435.59	4594.47
435.78	4587.45
435.97	4512.55
436.16	4458.72
436.34	4592.13
436.53	4716.18
436.72	4660.01
436.90	4512.55
437.09	4718.52
437.28	4484.47
437.46	4667.03
437.65	4664.69
437.84	4702.14
438.02	4648.30
438.21	4739.58
438.40	4812.14
438.58	4938.53
438.77	4959.60
438.96	4844.91
439.14	4990.02
439.33	5046.20
439.52	4992.36
439.70	4875.34
439.89	5104.71
440.08	5153.86
440.26	5254.50
440.45	5181.95
440.63	5095.35
440.82	5322.38
441.01	5334.08
441.19	5441.75
441.38	5331.74
441.57	5511.96
441.75	5518.98
441.94	5727.29
442.12	5678.14
442.31	5682.82
442.50	5603.24
442.68	5507.28
442.87	5537.71
443.05	5717.93
443.24	5806.87
443.43	5746.02
443.61	5741.33
443.80	5863.04
443.98	5785.80
444.17	5589.20
444.35	5839.64
444.54	6076.03
444.73	5907.51
444.91	5966.03
445.10	6019.86
445.28	5846.66
445.47	5689.84
445.65	5729.63
445.84	5935.60
446.02	5753.04
446.21	5874.74
446.39	5909.85
446.58	5774.10
446.77	5933.26
446.95	5795.17
447.14	6069.01
447.32	6066.67
447.51	5954.32
447.69	5996.45
447.88	5870.06
448.06	6040.92
448.25	5975.39
448.43	6047.94
448.62	6083.05
448.80	6012.84
448.99	6036.24
449.17	6143.91
449.36	6038.58
449.54	6064.33
449.73	6282.00
449.91	6443.49
450.10	6502.01
450.28	6429.45
450.46	6403.71
450.65	6483.28
450.83	6476.26
451.02	6333.49
451.20	6590.95
451.39	6579.25
451.57	6382.64
451.76	6494.99
451.94	6445.84
452.13	6497.33
452.31	6494.99
452.49	6492.65
452.68	6537.12
452.86	6527.75
453.05	6434.13
453.23	6689.25
453.42	6527.75
453.60	6539.46
453.78	6661.16
453.97	6546.48
454.15	6675.21
454.34	6525.41
454.52	6759.47
454.70	6827.34
454.89	6942.03
455.07	6775.85
455.26	6722.02
455.44	7005.22
455.62	6885.86
455.81	7033.31
455.99	6963.09
456.17	6862.45
456.36	6855.43
456.54	7222.89
456.73	7194.81
456.91	7164.38
457.09	7180.76
457.28	7225.23
457.46	7183.10
457.64	7321.20
457.83	7293.11
458.01	7227.57
458.19	7377.37
458.38	7307.15
458.56	7428.86
458.74	7288.43
458.93	7447.58
459.11	7414.82
459.29	7353.96
459.48	7566.95
459.66	7337.58
459.84	7611.42
460.03	7751.85
460.21	7393.75
460.39	7550.57
460.57	7707.38
460.76	7831.43
460.94	7871.22
461.12	7705.04
461.31	7688.66
461.49	7686.32
461.67	7791.64
461.85	7990.59
462.04	7686.32
462.22	8341.67
462.40	7854.84
462.59	7836.11
462.77	7927.39
462.95	7962.50
463.13	8112.30
463.32	7995.27
463.50	8222.30
463.68	8013.99
463.86	8231.66
464.05	8093.57
464.23	7866.54
464.41	8119.32
464.59	7950.80
464.78	8414.23
464.96	8201.24
465.14	8159.11
465.32	8468.06
465.50	8493.80
465.69	8365.07
465.87	8290.18
466.05	8369.76
466.23	8217.62
466.41	8407.20
466.60	8470.40
466.78	8393.16
466.96	8458.70
467.14	8196.56
467.32	8580.40
467.51	8613.17
467.69	8327.63
467.87	8432.95
468.05	8699.77
468.23	8608.49
468.41	8709.13
468.60	8547.64
468.78	8671.68
468.96	8585.08
469.14	8894.04
469.32	8910.42
469.50	8608.49
469.69	8842.54
469.87	9001.70
470.05	9013.40
470.23	8959.57
470.41	8926.80
470.59	8933.82
470.77	8931.48
470.95	9013.40
471.14	9383.21
471.32	9013.40
471.50	9284.91
471.68	9212.35
471.86	9591.52
472.04	9341.08
472.22	9533.00
472.40	9254.48
472.58	9231.07
472.77	9490.87
472.95	9589.17
473.13	9774.08
473.31	9547.05
473.49	9430.02
473.67	9720.24
473.85	9699.18
474.03	10008.13
474.21	9912.17
474.39	9954.30
474.57	10052.60
474.75	10050.26
474.93	10167.29
475.12	10230.48
475.30	10143.88
475.48	10122.82
475.66	10312.40
475.84	10310.06
476.02	10513.69
476.20	10441.13
476.38	10532.41
476.56	10672.84
476.74	10665.82
476.92	10691.57
477.10	10780.51
477.28	10918.60
477.46	10824.98
477.64	10960.73
477.82	11197.12
478.00	11365.64
478.18	11541.18
478.36	11344.58
478.54	11353.94
478.72	11695.66
478.90	11569.27
479.08	11934.39
479.26	12009.29
479.44	12191.85
479.62	12046.74
479.80	11929.71
479.98	12266.75
480.16	12351.01
480.34	12236.32
480.52	12451.65
480.70	12659.96
480.88	12409.52
481.06	12449.31
481.24	12533.57
481.41	13004.02
481.59	13144.45
481.77	13006.36
481.95	12896.35
482.13	13123.38
482.31	13219.35
482.49	13341.05
482.67	13544.68
482.85	13654.69
483.03	13858.31
483.21	13893.42
483.39	13909.80
483.57	13851.29
483.74	14118.11
483.92	14387.27
484.10	14188.33
484.28	14750.06
484.46	14682.18
484.64	15169.01
484.82	14813.25
485.00	14679.84
485.18	15321.15
485.35	15169.01
485.53	14930.28
485.71	15166.67
485.89	15428.81
486.07	15077.73
486.25	15262.63
486.43	15583.29
486.61	15887.56
486.78	16201.19
486.96	15765.85
487.14	16250.34
487.32	16336.94
487.50	16517.16
487.68	16657.59
487.85	16791.00
488.03	16898.67
488.21	17200.60
488.39	17156.13
488.57	17216.98
488.75	17233.36
488.92	17495.50
489.10	17767.01
489.28	17514.23
489.46	17963.61
489.64	17830.20
489.81	18370.86
489.99	18197.67
490.17	18888.12
490.35	18490.23
490.53	18588.53
490.70	18750.03
490.88	18677.48
491.06	19005.15
491.24	18853.02
491.41	18883.44
491.59	19208.78
491.77	19108.13
491.95	19571.56
492.13	19466.24
492.30	19964.77
492.48	19943.70
492.66	19899.23
492.84	19939.02
493.01	20304.15
493.19	19957.75
493.37	20170.74
493.54	20458.62
493.72	21090.57
493.90	20896.30
494.08	21186.53
494.25	21106.95
494.43	21724.85
494.61	21500.16
494.79	21465.05
494.96	21371.43
495.14	21558.67
495.32	21748.26
495.49	22141.47
495.67	21881.67
495.85	22148.49
496.02	22113.38
496.20	22249.13
496.38	22504.25
496.55	22614.26
496.73	23281.31
496.91	22775.75
497.09	22953.63
497.26	22871.72
497.44	22895.12
497.62	23323.44
497.79	23353.87
497.97	23061.30
498.14	23400.68
498.32	23864.10
498.50	23721.33
498.67	24109.86
498.85	23964.75
499.03	23761.12
499.20	24285.40
499.38	24322.85
499.56	24301.78
499.73	24425.83
499.91	24622.44
500.08	24865.85
500.26	24500.73
500.44	24739.46
500.61	24542.86
500.79	24533.50
500.97	25261.40
501.14	25198.21
501.32	25432.26
501.49	25263.74
501.67	25343.32
501.84	25366.73
502.02	25591.42
502.20	25612.48
502.37	25935.48
502.55	26141.44
502.72	26160.17
502.90	26040.80
503.07	26024.42
503.25	26221.02
503.43	25795.04
503.60	26218.68
503.78	26239.75
503.95	25900.37
504.13	26192.94
504.30	26553.38
504.48	26426.99
504.65	26857.65
504.83	26822.54
505.01	27026.17
505.18	27037.87
505.36	27262.56
505.53	27047.23
505.71	27491.93
505.88	27475.55
506.06	27325.75
506.23	27716.62
506.41	27304.69
506.58	27852.38
506.76	27943.66
506.93	27946.00
507.11	27964.72
507.28	27892.16
507.46	27887.48
507.63	28023.23
507.81	28266.65
507.98	27606.62
508.16	28222.18
508.33	28250.27
508.50	28367.29
508.68	28622.41
508.85	28819.02
509.03	28891.57
509.20	28692.63
509.38	29109.24
509.55	29120.95
509.73	29116.26
509.90	29170.10
510.08	29069.45
510.25	28996.90
510.42	29502.45
510.60	29525.86
510.77	29605.44
510.95	29890.98
511.12	29373.72
511.30	29493.09
511.47	30237.38
511.64	29975.24
511.82	30115.67
511.99	29841.83
512.17	30724.21
512.34	30003.33
512.51	30513.56
512.69	30684.42
512.86	30661.02
513.04	30532.29
513.21	30766.34
513.38	30569.74
513.56	30780.39
513.73	30415.26
513.90	30937.20
514.08	30646.97
514.25	31220.41
514.43	31019.12
514.60	31197.00
514.77	30869.33
514.95	31475.52
515.12	31307.01
515.29	31250.83
515.47	31302.32
515.64	31744.69
515.81	31459.14
515.99	32013.85
516.16	31772.77
516.33	31672.13
516.51	31590.21
516.68	31873.42
516.85	31424.03
517.03	31756.39
517.20	31969.38
517.37	32151.94
517.54	32191.73
517.72	32130.87
517.89	31974.06
518.06	32378.97
518.24	32318.12
518.41	32411.74
518.58	32507.70
518.75	32648.13
518.93	32919.63
519.10	33111.56
519.27	33055.39
519.45	32907.93
519.62	33378.38
519.79	33097.52
519.96	33275.40
520.14	33546.90
520.31	32987.51
520.48	33771.59
520.65	33638.18
520.83	33727.12
521.00	33734.14
521.17	33787.97
521.34	33827.76
521.52	33816.06
521.69	33949.47
521.86	34321.62
522.03	34003.30
522.20	33926.07
522.38	34354.38
522.55	34349.70
522.72	34246.72
522.89	34394.17
523.07	34658.65
523.24	34665.67
523.41	34829.51
523.58	34260.76
523.75	34855.26
523.92	34876.32
524.10	35164.21
524.27	35096.33
524.44	35112.72
524.61	35159.53
524.78	35433.37
524.96	34913.77
525.13	35246.13
525.30	35683.81
525.47	35660.40
525.64	35360.81
525.81	35536.35
525.98	35873.39
526.16	35147.82
526.33	35281.24
526.50	35599.55
526.67	35660.40
526.84	35583.16
527.01	35737.64
527.18	35655.72
527.36	35995.10
527.53	36245.54
527.70	36182.34
527.87	35896.80
528.04	36147.23
528.21	36086.38
528.38	36189.36
528.55	36423.42
528.72	36224.47
528.89	36844.71
529.07	36484.27
529.24	36449.16
529.41	36428.10
529.58	36388.31
529.75	36500.65
529.92	36678.54
530.09	36739.39
530.26	36833.01
530.43	36737.05
530.60	36732.37
530.77	36769.82
530.94	37214.52
531.11	36973.44
531.28	37003.87
531.46	37144.30
531.63	36912.59
531.80	37319.84
531.97	37228.56
532.14	37296.44
532.31	37242.60
532.48	37523.47
532.65	37654.54
532.82	37675.60
532.99	37411.12
533.16	37532.83
533.33	37640.50
533.50	38029.02
533.67	37310.48
533.84	37600.71
534.01	38029.02
534.18	37989.24
534.35	38387.13
534.52	37919.02
534.69	38059.45
534.86	38447.98
535.03	38141.37
535.20	38602.46
535.37	38410.53
535.54	38073.49
535.71	38768.63
535.88	38689.06
536.05	38707.78
536.22	38525.22
536.38	38785.02
536.55	38801.40
536.72	38377.76
536.89	38579.05
537.06	38506.49
537.23	38813.10
537.40	39201.63
537.57	38955.88
537.74	38941.83
537.91	39192.27
538.08	39110.35
538.25	39243.76
538.42	38815.44
538.59	39370.15
538.75	38649.27
538.92	39402.92
539.09	39159.50
539.26	39718.89
539.43	38965.24
539.60	39686.12
539.77	39182.91
539.94	39105.67
540.11	39225.04
540.28	39648.68
540.44	39543.35
540.61	39278.87
540.78	39241.42
540.95	39180.57
541.12	39503.56
541.29	39639.31
541.46	39821.87
541.62	39735.27
541.79	40259.55
541.96	39831.24
542.13	39728.25
542.30	39688.46
542.47	39892.09
542.63	40130.83
542.80	40072.31
542.97	40416.37
543.14	40659.79
543.31	40676.17
543.48	40395.31
543.64	41085.76
543.81	40762.77
543.98	40950.01
544.15	40481.91
544.32	41064.70
544.48	41038.95
544.65	40673.83
544.82	40996.82
544.99	40507.65
545.16	41116.19
545.32	40767.45
545.49	41172.36
545.66	40711.28
545.83	40919.59
546.00	41076.40
546.16	40711.28
546.33	40987.46
546.50	40575.53
546.67	41170.02
546.83	40809.58
547.00	41434.50
547.17	40987.46
547.34	41043.63
547.50	41467.27
547.67	41968.15
547.84	41233.22
548.00	41998.57
548.17	41773.88
548.34	41865.16
548.51	41546.85
548.67	41713.03
548.84	42087.51
549.01	41717.71
549.18	41268.33
549.34	41823.03
549.51	41916.65
549.68	42230.29
549.84	41790.27
550.01	42220.92
550.18	41652.17
550.34	42085.17
550.51	41780.90
550.68	41989.21
550.84	41425.14
551.01	42075.81
551.18	41876.86
551.34	42167.09
551.51	42209.22
551.68	42113.26
551.84	42387.10
552.01	42241.99
552.18	42515.83
552.34	42213.90
552.51	42274.76
552.68	42630.52
552.84	42770.95
553.01	42777.97
553.18	42618.81
553.34	42920.74
553.51	42106.24
553.67	42377.74
553.84	42714.78
554.01	42951.17
554.17	42787.33
554.34	42997.98
554.51	42483.06
554.67	43049.47
554.84	42822.44
555.00	43117.35
555.17	42450.30
555.33	43138.41
555.50	42913.72
555.67	42721.80
555.83	43318.64
556.00	43079.90
556.16	43484.81
556.33	43124.37
556.50	42604.77
556.66	43519.92
556.83	42932.45
556.99	43255.44
557.16	43243.74
557.32	43742.27
557.49	43454.39
557.65	42974.58
557.82	43227.35
557.98	43021.39
558.15	43065.86
558.32	43735.25
558.48	43416.94
558.65	43552.69
558.81	43447.36
558.98	43395.87
559.14	43398.21
559.31	43304.59
559.47	43538.65
559.64	43494.18
559.80	43641.63
559.97	43311.61
560.13	43124.37
560.30	43358.42
560.46	43421.62
560.63	43650.99
560.79	43459.07
560.96	43976.33
561.12	43510.56
561.29	43803.13
561.45	43812.49
561.61	43688.44
561.78	43952.92
561.94	43428.64
562.11	43849.94
562.27	43414.60
562.44	43634.61
562.60	43952.92
562.77	43873.34
562.93	43786.74
563.10	43878.02
563.26	43786.74
563.42	43772.70
563.59	43646.31
563.75	44179.95
563.92	43807.81
564.08	43997.39
564.24	44292.30
564.41	44292.30
564.57	43840.57
564.74	43889.73
564.90	44292.30
565.07	44013.77
565.23	44027.82
565.39	43826.53
565.56	44299.32
565.72	43978.67
565.88	43971.64
566.05	43927.17
566.21	43749.29
566.38	43910.79
566.54	43985.69
566.70	43917.81
566.87	44154.21
567.03	44278.25
567.19	44486.56
567.36	44065.27
567.52	44254.85
567.68	44395.28
567.85	43871.00
568.01	44034.84
568.17	44154.21
568.34	44306.34
568.50	44044.20
568.66	44011.43
568.83	44327.41
568.99	43782.06
569.15	44086.33
569.32	44105.06
569.48	43716.53
569.64	44760.40
569.81	44687.85
569.97	44481.88
570.13	44369.54
570.30	44201.02
570.46	44165.91
570.62	44130.80
570.78	44098.03
570.95	44018.46
571.11	44626.99
571.27	44308.68
571.43	43901.43
571.60	44385.92
571.76	44313.36
571.92	44533.37
572.09	44116.76
572.25	44156.55
572.41	44582.52
572.57	44531.03
572.74	44650.40
572.90	44428.05
573.06	44512.31
573.22	44355.49
573.38	44172.93
573.55	44404.64
573.71	44694.87
573.87	44797.85
574.03	44432.73
574.20	44608.27
574.36	44385.92
574.52	44786.15
574.68	44505.29
574.84	44744.02
575.01	44626.99
575.17	44198.68
575.33	44135.48
575.49	44727.64
575.65	44772.11
575.82	44863.39
575.98	44566.14
576.14	44643.38
576.30	44898.50
576.46	44715.93
576.62	44729.98
576.79	44472.52
576.95	44311.02
577.11	44453.79
577.27	44404.64
577.43	44741.68
577.59	44477.20
577.75	44399.96
577.92	44268.89
578.08	44390.60
578.24	44374.22
578.40	44282.94
578.56	44839.98
578.72	44254.85
578.88	44472.52
579.04	44711.25
579.21	44718.28
579.37	44882.11
579.53	44570.82
579.69	44612.95
579.85	44589.55
580.01	44486.56
580.17	44725.30
580.33	44718.28
580.49	44928.92
580.65	45092.76
580.82	44830.62
580.98	44514.65
581.14	44629.34
581.30	44839.98
581.46	44360.17
581.62	44619.97
581.78	44161.23
581.94	45017.86
582.10	44512.31
582.26	44655.08
582.42	44414.01
582.58	45038.93
582.74	44559.12
582.90	44940.63
583.06	44762.75
583.22	44708.91
583.38	44921.90
583.54	44753.38
583.70	44947.65
583.86	44486.56
584.02	44498.26
584.18	44512.31
584.34	44708.91
584.50	44463.16
584.66	44957.01
584.82	44582.52
584.98	45219.15
585.14	44605.93
585.30	44739.34
585.46	44591.89
585.62	44210.38
585.78	44765.09
585.94	44612.95
586.10	44657.42
586.26	44509.97
586.42	44856.37
586.58	45085.74
586.74	44818.92
586.90	44825.94
587.06	44758.06
587.22	44741.68
587.38	44795.51
587.54	45240.21
587.70	44938.29
587.86	44500.61
588.02	44500.61
588.18	45179.36
588.34	44481.88
588.49	44739.34
588.65	44030.16
588.81	44294.64
588.97	44210.38
589.13	44804.88
589.29	44556.78
589.45	44694.87
589.61	44460.82
589.77	44938.29
589.93	44933.60
590.08	45223.83
590.24	45031.91
590.40	45027.23
590.56	45427.46
590.72	44954.67
590.88	44954.67
591.04	45244.90
591.20	45247.24
591.35	45064.67
591.51	45329.16
591.67	44828.28
591.83	44926.58
591.99	44907.86
592.15	44914.88
592.31	44898.50
592.46	45038.93
592.62	44966.37
592.78	44699.55
592.94	45069.36
593.10	44928.92
593.26	44844.66
593.41	45205.11
593.57	44928.92
593.73	44971.05
593.89	45455.54
594.05	45043.61
594.20	44755.72
594.36	45170.00
594.52	45469.59
594.68	45078.72
594.84	45153.62
594.99	45516.40
595.15	44891.48
595.31	44935.95
595.47	45322.13
595.62	44996.80
595.78	44994.46
595.94	44765.09
596.10	45064.67
596.25	45287.03
596.41	45024.89
596.57	44938.29
596.73	45394.69
596.88	44664.44
597.04	45165.32
597.20	45544.48
597.36	45483.63
597.51	45539.80
597.67	45556.19
597.83	45312.77
597.99	45523.42
598.14	45900.25
598.30	45326.81
598.46	44751.04
598.61	45191.06
598.77	44652.74
598.93	45015.52
599.09	44940.63
599.24	45434.48
599.40	45544.48
599.56	45949.40
599.71	45617.04
599.87	45804.28
600.03	45050.63
600.18	45352.56
600.34	45177.02
600.50	45280.00
600.65	45170.00
600.81	45593.64
600.97	45722.37
601.12	45729.39
601.28	45539.80
601.44	45160.64
601.59	45640.45
601.75	45148.93
601.91	45359.58
602.06	44947.65
602.22	44947.65
602.37	45015.52
602.53	45193.40
602.69	44842.32
602.84	45291.71
603.00	44935.95
603.16	44996.80
603.31	44942.97
603.47	44893.82
603.62	45130.21
603.78	45380.65
603.94	45516.40
604.09	45233.19
604.25	45298.73
604.40	45219.15
604.56	45088.08
604.71	45343.20
604.87	45179.36
605.03	45345.54
605.18	44896.16
605.34	45570.23
605.49	45141.91
605.65	45010.84
605.80	45373.63
605.96	45172.34
606.12	45270.64
606.27	45191.06
606.43	45666.19
606.58	44931.26
606.74	45237.87
606.89	44814.24
607.05	45216.81
607.20	45165.32
607.36	45319.79
607.51	44985.10
607.67	44893.82
607.82	45223.83
607.98	45092.76
608.13	44872.75
608.29	44961.69
608.44	44516.99
608.60	44423.37
608.75	44491.24
608.91	44982.76
609.06	44528.69
609.22	44797.85
609.37	44418.69
609.53	45127.87
609.68	44910.20
609.84	44842.32
609.99	44863.39
610.15	44847.00
610.30	44385.92
610.46	43966.96
610.61	44442.09
610.76	44421.03
610.92	44430.39
611.07	44210.38
611.23	44610.61
611.38	44378.90
611.54	44301.66
611.69	44378.90
611.84	44715.93
612.00	44399.96
612.15	44589.55
612.31	44514.65
612.46	44306.34
612.62	44809.56
612.77	44406.98
612.92	44528.69
613.08	44119.10
613.23	44215.06
613.39	44421.03
613.54	44170.59
613.69	44048.88
613.85	43866.32
614.00	44245.49
614.15	44772.11
614.31	44509.97
614.46	44554.44
614.62	44533.37
614.77	44418.69
614.92	44294.64
615.08	44222.08
615.23	44245.49
615.38	44114.42
615.54	43672.06
615.69	43969.30
615.84	43320.98
616.00	43880.36
616.15	44053.56
616.30	44240.81
616.46	43868.66
616.61	43800.79
616.76	43744.61
616.92	43863.98
617.07	43206.29
617.22	43810.15
617.37	43636.95
617.53	43529.28
617.68	43709.50
617.83	43473.11
617.99	44257.19
618.14	43768.02
618.29	43887.39
618.45	43445.02
618.60	43658.01
618.75	43590.14
618.90	43576.09
619.06	43400.55
619.21	43248.42
619.36	43723.55
619.51	43332.68
619.67	43433.32
619.82	43718.87
619.97	43959.94
620.12	43346.72
620.28	43044.79
620.43	43395.87
620.58	43166.50
620.73	43470.77
620.89	43344.38
621.04	43590.14
621.19	42880.95
621.34	43145.44
621.49	43196.93
621.65	43232.04
621.80	43569.07
621.95	43342.04
622.10	42838.83
622.25	42920.74
622.41	42557.96
622.56	42857.55
622.71	43068.20
622.86	43150.12
623.01	43077.56
623.16	43405.23
623.32	42934.79
623.47	43236.72
623.62	43299.91
623.77	42431.57
623.92	43054.15
624.07	43150.12
624.23	42546.26
624.38	42572.00
624.53	42731.16
624.68	42768.61
624.83	43026.07
624.98	42735.84
625.13	42777.97
625.29	42639.88
625.44	42742.86
625.59	42066.45
625.74	42520.51
625.89	41996.23
626.04	41921.34
626.19	42047.72
626.34	42534.56
626.49	42314.55
626.65	42265.39
626.80	42717.12
626.95	41869.84
627.10	42003.25
627.25	42314.55
627.40	42080.49
627.55	41907.29
627.70	41750.48
627.85	41907.29
628.00	41949.42
628.15	42431.57
628.30	42199.86
628.45	42085.17
628.60	41759.84
628.76	42005.59
628.91	42141.35
629.06	41841.76
629.21	41933.04
629.36	41792.61
629.51	41584.30
629.66	41420.46
629.81	41656.85
629.96	41560.89
630.11	42146.03
630.26	42263.05
630.41	42127.30
630.56	41434.50
630.71	41944.74
630.86	41993.89
631.01	40844.69
631.16	41415.78
631.31	41270.67
631.46	41132.57
631.61	41441.53
631.76	41294.07
631.91	41333.86
632.06	41113.85
632.21	41137.26
632.36	41940.06
632.51	41069.38
632.66	41130.23
632.81	41085.76
632.96	41186.41
633.10	41137.26
633.25	40938.31
633.40	41331.52
633.55	41345.56
633.70	40868.09
633.85	40779.15
634.00	41228.54
634.15	41001.50
634.30	40720.64
634.45	40957.03
634.60	40828.30
634.75	40907.88
634.90	40851.71
635.05	40655.11
635.19	40950.01
635.34	40978.10
635.49	40973.42
635.64	40603.61
635.79	40704.26
635.94	40872.78
636.09	40245.51
636.24	40549.78
636.39	40643.40
636.53	40233.81
636.68	40390.62
636.83	40074.65
636.98	40692.55
637.13	40226.79
637.28	40526.38
637.43	40631.70
637.57	40858.73
637.72	40561.48
637.87	40423.39
638.02	40540.42
638.17	40196.36
638.32	39782.09
638.46	40055.93
638.61	40133.17
638.76	39882.73
638.91	40297.00
639.06	40055.93
639.20	40107.42
639.35	40184.66
639.50	40374.24
639.65	40348.50
639.80	40098.06
639.94	39892.09
640.09	39917.84
640.24	40065.29
640.39	39625.27
640.54	39908.47
640.68	39945.92
640.83	39929.54
640.98	39716.55
641.13	39423.98
641.27	39901.45
641.42	39590.16
641.57	39779.74
641.72	39840.60
641.86	39454.41
642.01	39248.44
642.16	39358.45
642.31	39218.02
642.45	39267.17
642.60	39281.21
642.75	39721.23
642.90	39297.59
643.04	39129.08
643.19	39264.83
643.34	39225.04
643.48	39091.63
643.63	39548.03
643.78	39576.12
643.93	39124.40
644.07	38892.68
644.22	38918.43
644.37	38735.87
644.51	39159.50
644.66	38820.13
644.81	39019.07
644.95	39515.26
645.10	39384.19
645.25	39423.98
645.39	39325.68
645.54	39335.04
645.69	38883.32
645.83	38965.24
645.98	38857.57
646.13	38899.70
646.27	38614.16
646.42	39079.92
646.57	39220.36
646.71	39049.50
646.86	38883.32
647.00	38962.90
647.15	39152.48
647.30	39000.35
647.44	38653.95
647.59	38948.85
647.74	38604.80
647.88	38347.34
648.03	38614.16
648.17	38703.10
648.32	38658.63
648.47	38450.32
648.61	38345.00
648.76	38703.10
648.90	38455.00
649.05	38672.67
649.20	38569.69
649.34	38340.32
649.49	38337.98
649.63	38293.50
649.78	38333.29
649.92	38408.19
650.07	38742.89
650.21	38202.22
650.36	38321.59
650.51	37935.40
650.65	38440.96
650.80	38628.20
650.94	38759.27
651.09	38403.51
651.23	38340.32
651.38	38141.37
651.52	37790.29
651.67	38337.98
651.81	37890.93
651.96	37577.30
652.10	38120.31
652.25	37713.05
652.39	38092.22
652.54	37563.26
652.68	38167.12
652.83	37750.50
652.97	38277.12
653.12	37502.40
653.26	37680.28
653.41	38251.38
653.55	37720.07
653.70	37703.69
653.84	37694.33
653.99	37762.20
654.13	37558.58
654.27	37799.65
654.42	37083.45
654.56	37813.70
654.71	37668.58
654.85	37390.06
655.00	37439.21
655.14	37266.01
655.29	37205.16
655.43	37425.17
655.57	36943.02
655.72	36973.44
655.86	36823.65
656.01	37174.73
656.15	36964.08
656.30	36786.20
656.44	36987.49
656.58	36919.61
656.73	36563.85
656.87	36886.84
657.01	37055.36
657.16	36833.01
657.30	36584.91
657.45	36666.83
657.59	36718.32
657.73	36692.58
657.88	36950.04
658.02	36343.84
658.16	36830.67
658.31	36837.69
658.45	36547.47
658.60	36840.03
658.74	36999.19
658.88	36872.80
659.03	36598.96
659.17	36570.87
659.31	36746.41
659.46	36470.23
659.60	36315.75
659.74	35990.42
659.89	36245.54
660.03	36161.28
660.17	36261.92
660.32	36306.39
660.46	36254.90
660.60	36285.33
660.74	36172.98
660.89	36346.18
661.03	35489.54
661.17	35852.33
661.32	35227.40
661.46	35459.12
661.60	35468.48
661.74	35578.48
661.89	35400.60
662.03	35929.56
662.17	35632.32
662.31	35426.35
662.46	35601.89
662.60	35950.63
662.74	35021.44
662.88	35019.10
663.03	35161.87
663.17	35606.57
663.31	34873.98
663.45	35257.83
663.60	35019.10
663.74	35194.64
663.88	35014.41
664.02	35040.16
664.17	35372.52
664.31	34602.48
664.45	34668.02
664.59	34822.49
664.73	34726.53
664.88	34675.04
665.02	34309.91
665.16	34696.10
665.30	34656.31
665.44	34387.15
665.59	34155.44
665.73	34295.87
665.87	34038.41
666.01	34291.19
666.15	34136.71
666.29	34007.98
666.44	33956.49
666.58	34319.28
666.72	34218.63
666.86	34256.08
667.00	34106.29
667.14	33942.45
667.28	33741.16
667.43	33734.14
667.57	34110.97
667.71	33366.68
667.85	33715.42
667.99	33797.34
668.13	33315.19
668.27	33610.09
668.41	33706.05
668.56	33350.29
668.70	33303.48
668.84	33170.07
668.98	33048.36
669.12	33450.94
669.26	33420.51
669.40	33338.59
669.54	32889.21
669.68	33055.39
669.82	33123.26
669.96	32704.31
670.10	32762.82
670.25	33008.58
670.39	33181.77
670.53	32720.69
670.67	32528.77
670.81	32802.61
670.95	32430.46
671.09	33139.65
671.23	32636.43
671.37	32694.94
671.51	32407.06
671.65	32355.57
671.79	32273.65
671.93	32362.59
672.07	32538.13
672.21	32095.77
672.35	31906.18
672.49	32128.53
672.63	32093.43
672.77	31662.77
672.91	31597.23
673.05	31770.43
673.19	31833.63
673.33	31585.53
673.47	31421.69
673.61	31356.16
673.75	31468.50
673.89	30852.94
674.03	30941.88
674.17	30745.28
674.31	31037.84
674.45	30857.62
674.59	31168.91
674.73	31241.47
674.87	30773.36
675.01	30712.51
675.15	30689.10
675.29	30939.54
675.43	30527.61
675.56	30445.69
675.70	30600.16
675.84	30403.56
675.98	29209.89
676.12	30022.05
676.26	30298.23
676.40	29745.87
676.54	29883.96
676.68	29666.29
676.82	29151.37
676.96	29427.56
677.10	29457.98
677.23	29500.11
677.37	29249.67
677.51	29591.39
677.65	29266.06
677.79	28905.62
677.93	28992.22
678.07	28624.75
678.21	28882.21
678.34	28662.20
678.48	28379.00
678.62	28559.22
678.76	28723.05
678.90	28222.18
679.04	28315.80
679.18	28322.82
679.31	28004.51
679.45	28173.03
679.59	27482.57
679.73	27758.75
679.87	27770.46
680.00	27859.40
680.14	27730.67
680.28	27307.03
680.42	27351.50
680.56	27477.89
680.70	27417.04
680.83	27241.50
680.97	27087.02
681.11	26642.32
681.25	26754.66
681.39	27033.19
681.52	26930.20
681.66	26822.54
681.80	26635.30
681.94	26565.08
682.07	26466.78
682.21	26174.21
682.35	26375.50
682.49	26555.72
682.62	26218.68
682.76	26319.32
682.90	26059.52
683.04	25921.43
683.17	25926.11
683.31	26096.97
683.45	26237.41
683.59	25462.69
683.72	25465.03
683.86	25062.46
684.00	25015.65
684.13	25474.39
684.27	25633.55
684.41	25090.54
684.55	24996.92
684.68	25081.18
684.82	24765.21
684.96	24812.02
685.09	24692.65
685.23	24343.91
685.37	24322.85
685.50	24374.34
685.64	24503.07
685.78	24493.71
685.91	24212.84
686.05	24229.23
686.19	23812.61
686.32	23789.20
686.46	23882.83
686.60	23183.01
686.73	23442.81
686.87	23487.28
687.01	23175.98
687.14	23112.79
687.28	22991.08
687.42	23089.38
687.55	23105.77
687.69	22895.12
687.82	22941.93
687.96	22920.87
688.10	22677.45
688.23	22813.20
688.37	22366.16
688.50	22036.14
688.64	22429.35
688.78	22251.47
688.91	22122.74
689.05	22370.84
689.18	21977.63
689.32	21781.03
689.46	21954.22
689.59	22068.91
689.73	21944.86
689.86	21577.40
690.00	21553.99
690.13	21839.54
690.27	21624.21
690.41	21371.43
690.54	21120.99
690.68	21216.96
690.81	21156.10
690.95	21099.93
691.08	20950.14
691.22	20978.22
691.35	20978.22
691.49	20842.47
691.62	20793.32
691.76	20947.79
691.89	20688.00
692.03	20470.33
692.16	20072.43
692.30	20372.02
692.43	20428.20
692.57	19946.05
692.70	20119.24
692.84	20152.01
692.97	19791.57
693.11	19419.42
693.24	19637.09
693.38	19754.12
693.51	19344.53
693.65	19594.96
693.78	19431.13
693.92	19154.94
694.05	19370.27
694.19	19098.77
694.32	19154.94
694.45	19236.86
694.59	18733.65
694.72	18946.64
694.86	18878.76
694.99	18719.60
695.13	18602.58
695.26	18476.19
695.39	18260.86
695.53	18148.51
695.66	18359.16
695.80	18246.82
695.93	18066.60
696.07	18073.62
696.20	17860.63
696.33	17912.12
696.47	17951.91
696.60	17877.01
696.73	17869.99
696.87	17626.57
697.00	17755.30
697.14	17579.76
697.27	17649.98
697.40	17612.53
697.54	17125.70
697.67	17270.81
697.80	17289.54
697.94	17303.58
698.07	16982.93
698.21	17188.89
698.34	17034.42
698.47	16837.81
698.61	16294.81
698.74	16500.78
698.87	16755.90
699.01	16475.03
699.14	16278.43
699.27	16432.90
699.40	16348.64
699.54	16458.65
699.67	16056.08
699.80	15946.07
699.94	16140.33
700.07	15922.66
700.20	16037.35
700.34	15990.54
700.47	15557.54
700.60	15950.75
700.73	15845.43
700.87	15580.95
701.00	15370.30
701.13	15630.10
701.26	15456.90
701.40	15367.96
701.53	15309.44
701.66	15164.33
701.79	15124.54
701.93	14927.94
702.06	14939.64
702.19	14743.03
702.32	15040.28
702.46	14743.03
702.59	14672.82
702.72	14569.83
702.85	14663.46
702.99	14670.48
703.12	14785.16
703.25	14480.89
703.38	14427.06
703.51	14270.25
703.65	14188.33
703.78	14340.46
703.91	14207.05
704.04	14270.25
704.17	14071.30
704.31	13757.67
704.44	13298.92
704.57	13465.10
704.70	13329.35
704.83	13713.20
704.96	13720.22
705.10	13565.74
705.23	13680.43
>>>>>End Processed Spectral Data<<<<<
