SpectraSuite Data File
++++++++++++++++++++++++++++++++++++
Date: Fri Oct 25 10:48:29 EDT 2013
User: price-jones
Dark Spectrum Present: No
Reference Spectrum Present: No
Number of Sampled Component Spectra: 1
Spectrometers: USB2+H05261
Integration Time (usec): 100000 (USB2+H05261)
Spectra Averaged: 1 (USB2+H05261)
Boxcar Smoothing: 0 (USB2+H05261)
Correct for Electrical Dark: No (USB2+H05261)
Strobe/Lamp Enabled: No (USB2+H05261)
Correct for Detector Non-linearity: No (USB2+H05261)
Correct for Stray Light: No (USB2+H05261)
Number of Pixels in Processed Spectrum: 2048
>>>>>Begin Processed Spectral Data<<<<<
365.73	58.51
365.92	58.51
366.12	58.51
366.32	72.56
366.52	0.00
366.72	14.04
366.91	100.64
367.11	16.38
367.31	0.00
367.51	18.72
367.70	23.41
367.90	35.11
368.10	58.51
368.30	25.75
368.49	53.83
368.69	25.75
368.89	16.38
369.09	28.09
369.28	88.94
369.48	114.69
369.68	63.19
369.87	117.03
370.07	110.01
370.27	105.32
370.47	266.82
370.66	411.93
370.86	477.47
371.06	512.58
371.25	521.94
371.45	510.24
371.65	456.40
371.84	507.90
372.04	526.62
372.24	547.69
372.44	472.79
372.63	486.83
372.83	573.43
373.03	526.62
373.22	528.96
373.42	564.07
373.62	582.79
373.81	512.58
374.01	566.41
374.21	629.60
374.40	585.13
374.60	608.54
374.79	517.26
374.99	582.79
375.19	596.84
375.38	592.16
375.58	582.79
375.78	645.99
375.97	631.94
376.17	678.76
376.37	575.77
376.56	613.22
376.76	622.58
376.95	674.07
377.15	629.60
377.35	676.41
377.54	641.31
377.74	697.48
377.93	641.31
378.13	685.78
378.33	692.80
378.52	627.26
378.72	702.16
378.91	660.03
379.11	657.69
379.31	683.44
379.50	655.35
379.70	732.59
379.89	697.48
380.09	798.12
380.28	723.23
380.48	739.61
380.68	631.94
380.87	702.16
381.07	737.27
381.26	718.54
381.46	688.12
381.65	751.31
381.85	767.70
382.04	657.69
382.24	739.61
382.43	739.61
382.63	753.65
382.83	739.61
383.02	748.97
383.22	711.52
383.41	657.69
383.61	788.76
383.80	805.14
384.00	720.88
384.19	725.57
384.39	800.46
384.58	814.51
384.78	821.53
384.97	847.27
385.17	795.78
385.36	840.25
385.56	837.91
385.75	751.31
385.95	884.72
386.14	898.77
386.34	854.30
386.53	854.30
386.72	842.59
386.92	924.51
387.11	882.38
387.31	910.47
387.50	929.19
387.70	926.85
387.89	966.64
388.09	922.17
388.28	950.26
388.48	835.57
388.67	870.68
388.86	952.60
389.06	929.19
389.25	1025.15
389.45	1013.45
389.64	1001.75
389.84	1041.54
390.03	1041.54
390.22	966.64
390.42	1062.60
390.61	1008.77
390.81	990.05
391.00	1025.15
391.19	1060.26
391.39	1069.62
391.58	1158.57
391.78	1055.58
391.97	1104.73
392.16	1039.20
392.36	1109.41
392.55	1046.22
392.75	1067.28
392.94	1078.99
393.13	947.92
393.33	966.64
393.52	1100.05
393.71	1137.50
393.91	1174.95
394.10	1109.41
394.29	1198.35
394.49	1118.78
394.68	1296.66
394.88	1221.76
395.07	1249.85
395.26	1151.54
395.46	1224.10
395.65	1359.85
395.84	1231.12
396.04	1329.42
396.23	1268.57
396.42	1224.10
396.62	1369.21
396.81	1263.89
397.00	1282.61
397.19	1355.17
397.39	1256.87
397.58	1465.18
397.77	1364.53
397.97	1310.70
398.16	1409.00
398.35	1439.43
398.55	1439.43
398.74	1444.11
398.93	1591.56
399.12	1521.35
399.32	1547.09
399.51	1455.81
399.70	1680.50
399.90	1647.74
400.09	1549.43
400.28	1636.03
400.47	1696.89
400.67	1626.67
400.86	1717.95
401.05	1701.57
401.24	1706.25
401.44	1696.89
401.63	1802.21
401.82	1713.27
402.01	1610.29
402.21	1844.34
402.40	1748.38
402.59	1762.42
402.78	1708.59
402.97	1863.07
403.17	1837.32
403.36	1916.90
403.55	1877.11
403.74	1856.04
403.93	1944.99
404.13	1982.43
404.32	1909.88
404.51	1949.67
404.70	1928.60
404.89	1867.75
405.09	2118.18
405.28	1902.86
405.47	2038.61
405.66	2120.53
405.85	2092.44
406.05	1975.41
406.24	2036.27
406.43	2059.67
406.62	2153.29
406.81	2153.29
407.00	2172.02
407.20	2092.44
407.39	2019.88
407.58	2157.97
407.77	2127.55
407.96	2218.83
408.15	2265.64
408.34	2223.51
408.54	2277.34
408.73	2319.47
408.92	2427.14
409.11	2291.38
409.30	2417.77
409.49	2289.04
409.68	2298.41
409.87	2293.72
410.07	2462.24
410.26	2340.54
410.45	2359.26
410.64	2553.52
410.83	2583.95
411.02	2541.82
411.21	2593.31
411.40	2630.76
411.59	2562.89
411.78	2654.17
411.98	2590.97
412.17	2590.97
412.36	2654.17
412.55	2750.13
412.74	2675.23
412.93	2820.35
413.12	2768.85
413.31	2923.33
413.50	2750.13
413.69	2813.32
413.88	3089.51
414.07	2855.45
414.26	2932.69
414.45	3014.61
414.64	3070.78
414.83	3000.57
415.02	3030.99
415.22	3187.81
415.41	3054.40
415.60	3213.56
415.79	3293.13
415.98	3215.90
416.17	3293.13
416.36	3276.75
416.55	3155.04
416.74	3335.26
416.93	3375.05
417.12	3311.86
417.31	3297.81
417.50	3419.52
417.69	3548.25
417.88	3529.53
418.07	3419.52
418.26	3431.23
418.45	3452.29
418.64	3529.53
418.83	3548.25
419.02	3602.08
419.21	3644.21
419.39	3648.90
419.58	3566.98
419.77	3578.68
419.96	3545.91
420.15	3679.32
420.34	3756.56
420.53	3784.65
420.72	3918.06
420.91	3864.22
421.10	3896.99
421.29	3896.99
421.48	3861.88
421.67	3845.50
421.86	3899.33
422.05	3936.78
422.24	3808.05
422.43	3826.78
422.61	3995.29
422.80	3805.71
422.99	3857.20
423.18	3918.06
423.37	3908.69
423.56	3880.61
423.75	4023.38
423.94	3836.14
424.13	3829.12
424.32	3894.65
424.50	4102.96
424.69	4014.02
424.88	4105.30
425.07	3920.40
425.26	3964.87
425.45	3878.27
425.64	3936.78
425.83	4004.66
426.01	3999.98
426.20	4138.07
426.39	4056.15
426.58	4072.53
426.77	4025.72
426.96	4018.70
427.15	4149.77
427.33	4107.64
427.52	4142.75
427.71	3990.61
427.90	4119.34
428.09	4161.47
428.28	4131.05
428.46	4161.47
428.65	4152.11
428.84	4444.68
429.03	4297.22
429.22	4297.22
429.40	4159.13
429.59	4112.32
429.78	4042.11
429.97	4081.89
430.16	4126.36
430.34	4147.43
430.53	4224.67
430.72	4252.75
430.91	4264.46
431.10	4325.31
431.28	4617.88
431.47	4709.16
431.66	4643.62
431.85	4498.51
432.03	4650.64
432.22	4772.35
432.41	4685.75
432.60	4697.46
432.79	4650.64
432.97	4858.95
433.16	4784.06
433.35	4767.67
433.54	4840.23
433.72	4744.27
433.91	4688.09
434.10	4940.87
434.28	4947.89
434.47	4898.74
434.66	4858.95
434.85	4901.08
435.03	4858.95
435.22	4957.25
435.41	5158.54
435.59	5064.92
435.78	5146.84
435.97	5205.35
436.16	5401.96
436.34	5228.76
436.53	5195.99
436.72	5221.74
436.90	5165.56
437.09	5296.63
437.28	5214.71
437.46	5259.18
437.65	5088.32
437.84	5329.40
438.02	5397.28
438.21	5121.09
438.40	5172.58
438.58	5434.72
438.77	5416.00
438.96	5446.43
439.14	5607.92
439.33	5722.61
439.52	5673.46
439.70	5715.59
439.89	5722.61
440.08	5724.95
440.26	5792.83
440.45	5837.30
440.63	5921.56
440.82	5968.37
441.01	5968.37
441.19	6040.92
441.38	6169.65
441.57	6097.10
441.75	6242.21
441.94	6335.83
442.12	6181.35
442.31	6340.51
442.50	6389.66
442.68	6443.49
442.87	6399.02
443.05	6314.77
443.24	6574.56
443.43	6544.14
443.61	6656.48
443.80	6745.42
443.98	6450.52
444.17	6296.04
444.35	6684.57
444.54	6466.90
444.73	6619.04
444.91	6490.31
445.10	6619.04
445.28	6583.93
445.47	6438.81
445.65	6389.66
445.84	6654.14
446.02	6576.91
446.21	6502.01
446.39	6604.99
446.58	6651.80
446.77	6621.38
446.95	6459.88
447.14	6724.36
447.32	6874.15
447.51	6752.45
447.69	6771.17
447.88	6759.47
448.06	6588.61
448.25	6651.80
448.43	6825.00
448.62	6743.08
448.80	6857.77
448.99	6956.07
449.17	6918.62
449.36	6991.18
449.54	7232.26
449.73	6998.20
449.91	7080.12
450.10	7136.29
450.28	7211.19
450.46	7194.81
450.65	7375.03
450.83	7232.26
451.02	7157.36
451.20	7246.30
451.39	7190.13
451.57	7377.37
451.76	7194.81
451.94	7365.67
452.13	7332.90
452.31	7323.54
452.49	7218.21
452.68	7344.60
452.86	7552.91
453.05	7190.13
453.23	7541.21
453.42	7300.13
453.60	7117.57
453.78	7578.65
453.97	7456.95
454.15	7386.73
454.34	7520.14
454.52	7478.01
454.70	7733.13
454.89	7681.64
455.07	7581.00
455.26	7730.79
455.44	7686.32
455.62	7918.03
455.81	7822.07
455.99	7901.65
456.17	7981.23
456.36	7768.24
456.54	7981.23
456.73	7974.21
456.91	8168.47
457.09	7978.89
457.28	8257.41
457.46	7981.23
457.64	7981.23
457.83	8205.92
458.01	8145.06
458.19	8187.19
458.38	8081.87
458.56	8318.26
458.74	8444.65
458.93	8381.46
459.11	8430.61
459.29	8210.60
459.48	8315.92
459.66	8154.43
459.84	8365.07
460.03	8634.24
460.21	8521.89
460.39	8449.33
460.57	8594.45
460.76	8753.60
460.94	8601.47
461.12	8617.85
461.31	8805.10
461.49	8739.56
461.67	8629.56
461.85	9130.43
462.04	8929.14
462.22	9380.87
462.40	9102.34
462.59	8947.87
462.77	9069.58
462.95	8966.59
463.13	8830.84
463.32	8908.08
463.50	8823.82
463.68	9027.45
463.86	8952.55
464.05	8868.29
464.23	8877.65
464.41	9135.11
464.59	8741.90
464.78	9277.88
464.96	9371.50
465.14	9041.49
465.32	9275.54
465.50	9423.00
465.69	9186.60
465.87	9350.44
466.05	9303.63
466.23	9188.94
466.41	9366.82
466.60	9408.95
466.78	9254.48
466.96	9312.99
467.14	9500.23
467.32	9394.91
467.51	9486.19
467.69	9301.29
467.87	9624.28
468.05	9399.59
468.23	9490.87
468.41	9657.05
468.60	9495.55
468.78	9563.43
468.96	9589.17
469.14	9738.97
469.32	9692.16
469.50	9308.31
469.69	9734.29
469.87	9788.12
470.05	9884.08
470.23	10129.84
470.41	9942.60
470.59	10038.56
470.77	9989.41
470.95	9921.53
471.14	10286.65
471.32	10253.89
471.50	10401.34
471.68	10319.42
471.86	10422.41
472.04	10478.58
472.22	10438.79
472.40	10256.23
472.58	10406.02
472.77	10654.12
472.95	10801.57
473.13	11026.26
473.31	10480.92
473.49	10452.83
473.67	10892.85
473.85	10806.25
474.03	11084.78
474.21	10932.64
474.39	11206.48
474.57	11080.10
474.75	11157.33
474.93	11236.91
475.12	11197.12
475.30	11339.90
475.48	11307.13
475.66	11447.56
475.84	11225.21
476.02	11520.12
476.20	11463.94
476.38	11674.59
476.56	11929.71
476.74	11693.32
476.92	11786.94
477.10	11903.96
477.28	12161.42
477.46	11992.90
477.64	12236.32
477.82	12287.81
478.00	12631.87
478.18	12571.02
478.36	12716.13
478.54	12877.63
478.72	12720.81
478.90	12964.23
479.08	13233.39
479.26	13392.55
479.44	13128.06
479.62	13060.19
479.80	13406.59
479.98	13441.70
480.16	13916.83
480.34	13642.98
480.52	13853.63
480.70	13865.33
480.88	13752.99
481.06	13951.93
481.24	14288.97
481.41	14258.54
481.59	14480.89
481.77	14530.05
481.95	14740.69
482.13	14780.48
482.31	14782.82
482.49	15000.49
482.67	14817.93
482.85	15084.75
483.03	15613.71
483.21	15297.74
483.39	15314.13
483.57	15592.65
483.74	15765.85
483.92	15885.22
484.10	15630.10
484.28	16105.23
484.46	16299.49
484.64	16631.85
484.82	16336.94
485.00	16245.66
485.18	16676.32
485.35	16755.90
485.53	16250.34
485.71	16442.26
485.89	16641.21
486.07	16596.74
486.25	16769.94
486.43	17069.53
486.61	17228.68
486.78	17355.07
486.96	17394.86
487.14	17713.17
487.32	17855.95
487.50	18429.38
487.68	18345.12
487.85	18523.00
488.03	18855.36
488.21	19192.39
488.39	18897.49
488.57	18838.97
488.75	19009.83
488.92	19122.18
489.10	19665.18
489.28	19541.13
489.46	19796.25
489.64	19843.06
489.81	20147.33
489.99	20465.64
490.17	20379.04
490.35	20652.89
490.53	20690.34
490.70	20725.44
490.88	20807.36
491.06	21125.68
491.24	20755.87
491.41	20905.66
491.59	21057.80
491.77	20917.37
491.95	21504.84
492.13	21586.76
492.30	22092.32
492.48	21881.67
492.66	21851.24
492.84	22071.25
493.01	22118.06
493.19	22490.21
493.37	22586.17
493.54	22532.34
493.72	22881.08
493.90	23101.09
494.08	22916.19
494.25	23491.96
494.43	23129.17
494.61	23709.63
494.79	23903.89
494.96	23398.34
495.14	23543.45
495.32	23971.77
495.49	23995.17
495.67	24360.30
495.85	24226.89
496.02	24437.53
496.20	24837.76
496.38	24428.17
496.55	24610.73
496.73	25598.44
496.91	25144.38
497.09	25214.59
497.26	25439.28
497.44	25369.07
497.62	25355.02
497.79	25441.62
497.97	25355.02
498.14	25582.06
498.32	25846.54
498.50	25996.33
498.67	26429.33
498.85	26380.18
499.03	26445.71
499.20	26422.31
499.38	26742.96
499.56	26462.10
499.73	26637.64
499.91	26845.94
500.08	27328.10
500.26	26843.60
500.44	26717.22
500.61	26991.06
500.79	26782.75
500.97	27311.71
501.14	27428.74
501.32	27428.74
501.49	27566.83
501.67	27122.13
501.84	27620.66
502.02	27669.81
502.20	27604.28
502.37	28299.42
502.55	28203.46
502.72	28280.69
502.90	28402.40
503.07	28533.47
503.25	28423.47
503.43	28503.04
503.60	28386.02
503.78	28472.62
503.95	28512.41
504.13	28992.22
504.30	28851.78
504.48	29195.84
504.65	29097.54
504.83	29060.09
505.01	29420.53
505.18	29329.25
505.36	29741.19
505.53	29640.54
505.71	29998.65
505.88	30068.86
506.06	30089.93
506.23	29977.58
506.41	29692.04
506.58	29956.52
506.76	30171.85
506.93	30239.72
507.11	30471.43
507.28	30459.73
507.46	30398.88
507.63	30183.55
507.81	30677.40
507.98	30518.25
508.16	30661.02
508.33	31257.85
508.50	30909.11
508.68	31424.03
508.85	31239.13
509.03	31779.79
509.20	31517.65
509.38	31395.95
509.55	31580.85
509.73	31597.23
509.90	31534.04
510.08	32004.49
510.25	31683.83
510.42	31945.97
510.60	31873.42
510.77	32165.98
510.95	32734.73
511.12	32224.50
511.30	32589.62
511.47	32598.98
511.64	32587.28
511.82	32701.96
511.99	32350.88
512.17	32992.19
512.34	32891.55
512.51	33017.94
512.69	33249.65
512.86	33156.03
513.04	33537.54
513.21	33415.83
513.38	33240.29
513.56	33525.83
513.73	33413.49
513.90	33530.51
514.08	33359.66
514.25	33617.11
514.43	33883.94
514.60	33464.98
514.77	33645.20
514.95	33958.83
515.12	33916.70
515.29	34136.71
515.47	34235.02
515.64	34602.48
515.81	34319.28
515.99	34080.54
516.16	34532.26
516.33	33764.57
516.51	34401.19
516.68	33783.29
516.85	34136.71
517.03	33940.11
517.20	34616.52
517.37	34302.89
517.54	34705.46
517.72	34820.15
517.89	34658.65
518.06	34756.96
518.24	34478.43
518.41	34864.62
518.58	35051.86
518.75	34761.64
518.93	34845.90
519.10	35206.34
519.27	35655.72
519.45	35646.36
519.62	35805.52
519.79	36032.55
519.96	36107.44
520.14	36133.19
520.31	35714.23
520.48	36243.20
520.65	35985.74
520.83	36357.88
521.00	36250.22
521.17	36025.53
521.34	36465.55
521.52	36306.39
521.69	36842.37
521.86	37179.41
522.03	36755.77
522.20	36512.36
522.38	37078.77
522.55	36858.76
522.72	36765.14
522.89	36765.14
523.07	37258.99
523.24	36889.18
523.41	37450.91
523.58	37488.36
523.75	37806.67
523.92	37228.56
524.10	37551.56
524.27	37574.96
524.44	37832.42
524.61	37745.82
524.78	38150.73
524.96	37797.31
525.13	38024.34
525.30	38639.90
525.47	38300.53
525.64	38160.09
525.81	37825.40
525.98	38267.76
526.16	37837.10
526.33	38029.02
526.50	38412.87
526.67	37881.57
526.84	38033.71
527.01	37780.93
527.18	38227.97
527.36	38670.33
527.53	39213.34
527.70	39164.18
527.87	38995.67
528.04	39084.61
528.21	38983.96
528.38	38778.00
528.55	39318.66
528.72	39503.56
528.89	39339.72
529.07	39557.39
529.24	39171.21
529.41	39374.83
529.58	39150.14
529.75	39225.04
529.92	39517.60
530.09	39491.86
530.26	39934.22
530.43	39688.46
530.60	39510.58
530.77	39847.62
530.94	40156.57
531.11	39800.81
531.28	39543.35
531.46	40067.63
531.63	40266.58
531.80	40048.91
531.97	39990.39
532.14	40086.36
532.31	39559.73
532.48	39931.88
532.65	40034.86
532.82	40088.70
532.99	40376.58
533.16	40446.80
533.33	40835.33
533.50	40587.23
533.67	40367.22
533.84	40517.01
534.01	40790.86
534.18	40769.79
534.35	41165.34
534.52	40788.52
534.69	40669.15
534.86	41109.17
535.03	40554.46
535.20	41570.25
535.37	41195.77
535.54	41509.40
535.71	41301.09
535.88	41535.15
536.05	41233.22
536.22	41357.27
536.38	41074.06
536.55	41265.99
536.72	41198.11
536.89	41312.80
537.06	41446.21
537.23	41759.84
537.40	41397.06
537.57	41406.42
537.74	41752.82
537.91	41949.42
538.08	41890.91
538.25	41596.00
538.42	41886.23
538.59	42375.40
538.75	41504.72
538.92	41982.19
539.09	41624.09
539.26	41916.65
539.43	42080.49
539.60	42117.94
539.77	42064.11
539.94	42237.31
540.11	41530.47
540.28	42380.08
540.44	41780.90
540.61	42059.43
540.78	42274.76
540.95	42237.31
541.12	42326.25
541.29	42415.19
541.46	42148.37
541.62	42476.04
541.79	42726.48
541.96	42319.23
542.13	42326.25
542.30	42637.54
542.47	42433.91
542.63	42960.53
542.80	43166.50
542.97	43028.41
543.14	42990.96
543.31	43107.99
543.48	42925.42
543.64	43948.24
543.81	43597.16
543.98	43199.27
544.15	43154.80
544.32	43545.67
544.48	43510.56
544.65	43859.30
544.82	43681.42
544.99	43515.24
545.16	43302.25
545.32	43236.72
545.49	43540.99
545.66	43461.41
545.83	43969.30
546.00	44201.02
546.16	43721.21
546.33	43852.28
546.50	43522.26
546.67	43735.25
546.83	43585.46
547.00	43599.50
547.17	43564.39
547.34	43896.75
547.50	44395.28
547.67	44289.96
547.84	44451.45
548.00	44617.63
548.17	44390.60
548.34	44289.96
548.51	44472.52
548.67	44435.07
548.84	44561.46
549.01	44430.39
549.18	44449.11
549.34	44767.43
549.51	44765.09
549.68	44690.19
549.84	44729.98
550.01	45036.59
550.18	44502.95
550.34	44744.02
550.51	44617.63
550.68	44308.68
550.84	44495.92
551.01	44671.46
551.18	44568.48
551.34	44481.88
551.51	44711.25
551.68	44622.31
551.84	45048.29
552.01	44605.93
552.18	44961.69
552.34	44481.88
552.51	45134.89
552.68	45144.25
552.84	45188.72
553.01	45401.71
553.18	45343.20
553.34	45099.78
553.51	45347.88
553.67	45275.32
553.84	45132.55
554.01	45624.06
554.17	45059.99
554.34	45663.85
554.51	45549.17
554.67	45443.84
554.84	45455.54
555.00	45469.59
555.17	45390.01
555.33	45537.46
555.50	45820.67
555.67	45532.78
555.83	45619.38
556.00	45713.00
556.16	46113.23
556.33	45495.33
556.50	45443.84
556.66	45918.97
556.83	45820.67
556.99	45663.85
557.16	45364.26
557.32	45722.37
557.49	45954.08
557.65	45336.18
557.82	45940.04
557.98	46164.73
558.15	45949.40
558.32	45907.27
558.48	45628.74
558.65	45867.48
558.81	45780.88
558.98	45757.47
559.14	46010.25
559.31	45617.04
559.47	45815.99
559.64	46316.86
559.80	46007.91
559.97	46305.16
560.13	46188.13
560.30	45610.02
560.46	46113.23
560.63	45984.51
560.79	45944.72
560.96	45954.08
561.12	46089.83
561.29	46241.96
561.45	45911.95
561.61	45799.60
561.78	46047.70
561.94	46202.18
562.11	46417.50
562.27	46038.34
562.44	46031.32
562.60	46429.21
562.77	46520.49
562.93	46071.10
563.10	46321.54
563.26	46059.40
563.42	46623.47
563.59	46267.71
563.75	46087.49
563.92	46300.48
564.08	46410.48
564.24	46791.99
564.41	46340.27
564.57	46497.08
564.74	46412.82
564.90	46094.51
565.07	46543.89
565.23	46239.62
565.39	46651.56
565.56	46691.35
565.72	46099.19
565.88	45977.48
566.05	46485.38
566.21	46412.82
566.38	46731.14
566.54	46960.51
566.70	46766.24
566.87	46808.37
567.03	46562.62
567.19	46791.99
567.36	46319.20
567.52	46342.61
567.68	46553.26
567.85	46230.26
568.01	46167.07
568.17	46176.43
568.34	46623.47
568.50	46267.71
568.66	46499.42
568.83	46492.40
568.99	46230.26
569.15	46665.60
569.32	46588.36
569.48	46419.84
569.64	46672.62
569.81	47143.07
569.97	46351.97
570.13	46483.04
570.30	46300.48
570.46	46218.56
570.62	45907.27
570.78	46279.41
570.95	46571.98
571.11	47012.00
571.27	46356.65
571.43	46511.13
571.60	46754.54
571.76	46483.04
571.92	46948.81
572.09	46817.74
572.25	46595.38
572.41	46787.31
572.57	46689.01
572.74	47208.61
572.90	46962.85
573.06	47009.66
573.22	47056.47
573.38	46646.88
573.55	46763.90
573.71	47257.76
573.87	46742.84
574.03	46518.15
574.20	46693.69
574.36	46817.74
574.52	47210.95
574.68	46831.78
574.84	46693.69
575.01	46902.00
575.17	46761.56
575.33	46581.34
575.49	46653.90
575.65	47084.56
575.82	47058.81
575.98	47016.68
576.14	47014.34
576.30	46925.40
576.46	46852.84
576.62	46740.50
576.79	46770.93
576.95	46319.20
577.11	46534.53
577.27	47166.48
577.43	47061.15
577.59	46667.94
577.75	46801.35
577.92	46316.86
578.08	46330.90
578.24	46597.73
578.40	46913.70
578.56	46777.95
578.72	46944.12
578.88	46911.36
579.04	46883.27
579.21	46787.31
579.37	47096.26
579.53	46941.78
579.69	46377.72
579.85	46909.02
580.01	47185.20
580.17	46759.22
580.33	46997.96
580.49	47044.77
580.65	46848.16
580.82	47182.86
580.98	46616.45
581.14	46948.81
581.30	47288.18
581.46	46859.87
581.62	47122.01
581.78	46937.10
581.94	47063.49
582.10	47147.75
582.26	47278.82
582.42	47103.28
582.58	47033.07
582.74	46838.80
582.90	46911.36
583.06	47222.65
583.22	47063.49
583.38	47007.32
583.54	46897.31
583.70	46969.87
583.86	46941.78
584.02	46939.44
584.18	46740.50
584.34	47096.26
584.50	47253.08
584.66	47374.78
584.82	46253.67
584.98	46873.91
585.14	47374.78
585.30	46934.76
585.46	47072.85
585.62	46923.06
585.78	46883.27
585.94	46827.10
586.10	46721.77
586.26	46660.92
586.42	46803.69
586.58	46810.71
586.74	46763.90
586.90	46859.87
587.06	46829.44
587.22	47339.68
587.38	46773.27
587.54	47075.19
587.70	46934.76
587.86	47138.39
588.02	46796.67
588.18	47044.77
588.34	46810.71
588.49	46485.38
588.65	46595.38
588.81	46265.37
588.97	46639.86
589.13	47012.00
589.29	46525.17
589.45	46569.64
589.61	46937.10
589.77	47323.29
589.93	46981.57
590.08	47054.13
590.24	47171.16
590.40	46953.49
590.56	47325.63
590.72	47466.06
590.88	46689.01
591.04	46897.31
591.20	47091.58
591.35	47421.59
591.51	47281.16
591.67	47058.81
591.83	47330.31
591.99	47171.16
592.15	46993.28
592.31	47407.55
592.46	47182.86
592.62	47068.17
592.78	47061.15
592.94	47182.86
593.10	47173.50
593.26	47353.72
593.41	47044.77
593.57	47110.30
593.73	46983.91
593.89	46974.55
594.05	47150.09
594.20	46988.60
594.36	47503.51
594.52	47079.88
594.68	47114.98
594.84	46738.16
594.99	47426.28
595.15	46883.27
595.31	47459.04
595.47	47365.42
595.62	47140.73
595.78	47145.41
595.94	47524.58
596.10	47629.90
596.25	47716.50
596.41	47545.64
596.57	47250.74
596.73	47564.37
596.88	47054.13
597.04	47152.43
597.20	46820.08
597.36	47264.78
597.51	47503.51
597.67	47068.17
597.83	47334.99
597.99	46920.72
598.14	47379.46
598.30	47278.82
598.46	46939.44
598.61	47138.39
598.77	47267.12
598.93	47138.39
599.09	46906.68
599.24	47838.21
599.40	47196.90
599.56	47072.85
599.71	47091.58
599.87	47227.33
600.03	47353.72
600.18	47199.24
600.34	47288.18
600.50	47194.56
600.65	46979.23
600.81	47428.62
600.97	47683.73
601.12	47622.88
601.28	47222.65
601.44	47253.08
601.59	47260.10
601.75	47227.33
601.91	46770.93
602.06	47154.77
602.22	47283.50
602.37	46878.59
602.53	47154.77
602.69	47627.56
602.84	47229.67
603.00	47229.67
603.16	47585.43
603.31	46728.80
603.47	46717.09
603.62	46939.44
603.78	47496.49
603.94	47285.84
604.09	47536.28
604.25	47189.88
604.40	47168.82
604.56	47061.15
604.71	47061.15
604.87	46883.27
605.03	46794.33
605.18	46799.01
605.34	46733.48
605.49	47159.45
605.65	47021.36
605.80	47192.22
605.96	47093.92
606.12	47402.87
606.27	47206.26
606.43	46841.14
606.58	46983.91
606.74	46866.89
606.89	46738.16
607.05	47192.22
607.20	47199.24
607.36	47180.52
607.51	47440.32
607.67	46768.58
607.82	47086.90
607.98	46953.49
608.13	46749.86
608.29	46656.24
608.44	46703.05
608.60	46457.29
608.75	46649.22
608.91	46476.02
609.06	47009.66
609.22	47026.04
609.37	46527.51
609.53	46653.90
609.68	46815.40
609.84	46363.67
609.99	46384.74
610.15	46511.13
610.30	46618.79
610.46	46426.87
610.61	46586.02
610.76	46550.91
610.92	46277.07
611.07	46508.79
611.23	46096.85
611.38	46555.60
611.54	45928.33
611.69	46686.67
611.84	46358.99
612.00	46408.14
612.15	45911.95
612.31	46831.78
612.46	45930.67
612.62	46560.28
612.77	46295.80
612.92	46466.66
613.08	46108.55
613.23	46216.22
613.39	46106.21
613.54	45748.11
613.69	45851.09
613.85	45923.65
614.00	46660.92
614.15	46146.00
614.31	46230.26
614.46	46394.10
614.62	45890.88
614.77	46061.74
614.92	46099.19
615.08	46096.85
615.23	45778.54
615.38	45825.35
615.54	45872.16
615.69	45633.42
615.84	45556.19
616.00	45799.60
616.15	45907.27
616.30	45696.62
616.46	45366.60
616.61	45535.12
616.76	45696.62
616.92	45560.87
617.07	45478.95
617.22	45581.93
617.37	45949.40
617.53	45652.15
617.68	45944.72
617.83	45626.40
617.99	45811.31
618.14	45783.22
618.29	45310.43
618.45	45595.98
618.60	45680.24
618.75	45148.93
618.90	45450.86
619.06	45848.75
619.21	45368.94
619.36	45228.51
619.51	45146.59
619.67	45298.73
619.82	45237.87
619.97	45411.07
620.12	45006.16
620.28	44652.74
620.43	44786.15
620.58	45514.06
620.73	45109.14
620.89	45045.95
621.04	45474.27
621.19	45071.70
621.34	44626.99
621.49	44605.93
621.65	45006.16
621.80	45212.13
621.95	44399.96
622.10	45254.26
622.25	44708.91
622.41	45160.64
622.56	44851.69
622.71	44989.78
622.86	44856.37
623.01	44769.77
623.16	44540.39
623.32	45010.84
623.47	44474.86
623.62	45076.38
623.77	44392.94
623.92	44577.84
624.07	44715.93
624.23	44294.64
624.38	44149.53
624.53	44388.26
624.68	44212.72
624.83	44332.09
624.98	44676.15
625.13	44245.49
625.29	43863.98
625.44	44563.80
625.59	44275.91
625.74	44133.14
625.89	43931.86
626.04	43753.97
626.19	44388.26
626.34	44418.69
626.49	44502.95
626.65	44032.50
626.80	44062.93
626.95	43810.15
627.10	43761.00
627.25	43880.36
627.40	43503.54
627.55	43131.39
627.70	43405.23
627.85	43086.92
628.00	43421.62
628.15	43929.51
628.30	43721.21
628.45	43758.66
628.60	43641.63
628.76	43899.09
628.91	42988.62
629.06	43531.62
629.21	43276.51
629.36	43248.42
629.51	43171.18
629.66	43391.19
629.81	43358.42
629.96	43332.68
630.11	43320.98
630.26	43323.32
630.41	42988.62
630.56	43323.32
630.71	43150.12
630.86	43351.40
631.01	42995.64
631.16	43477.79
631.31	42593.07
631.46	42457.32
631.61	42689.03
631.76	43098.62
631.91	43117.35
632.06	43042.45
632.21	42932.45
632.36	43264.80
632.51	42967.55
632.66	42801.38
632.81	42555.62
632.96	42590.73
633.10	42457.32
633.25	42597.75
633.40	42473.70
633.55	42646.90
633.70	42515.83
633.85	42766.27
634.00	42674.99
634.15	42635.20
634.30	42534.56
634.45	42389.44
634.60	42651.58
634.75	42670.31
634.90	42389.44
635.05	42356.67
635.19	42700.73
635.34	42543.92
635.49	42326.25
635.64	42082.83
635.79	42253.69
635.94	42089.85
636.09	42520.51
636.24	42153.05
636.39	41956.44
636.53	41991.55
636.68	42131.98
636.83	41865.16
636.98	42506.47
637.13	42136.66
637.28	42061.77
637.43	42068.79
637.57	42384.76
637.72	42639.88
637.87	41956.44
638.02	42429.23
638.17	42171.77
638.32	41818.35
638.46	41790.27
638.61	42012.62
638.76	41333.86
638.91	41785.58
639.06	41846.44
639.20	41954.10
639.35	41897.93
639.50	41696.64
639.65	41944.74
639.80	41860.48
639.94	41460.25
640.09	41806.65
640.24	41565.57
640.39	41258.96
640.54	41464.93
640.68	41233.22
640.83	41420.46
640.98	41242.58
641.13	41621.75
641.27	41305.77
641.42	41333.86
641.57	41530.47
641.72	41471.95
641.86	40809.58
642.01	41031.93
642.16	40788.52
642.31	40491.27
642.45	41518.76
642.60	40690.21
642.75	40552.12
642.90	40779.15
643.04	41158.32
643.19	40910.22
643.34	41242.58
643.48	40842.35
643.63	41165.34
643.78	40687.87
643.93	40687.87
644.07	40900.86
644.22	40357.86
644.37	40514.67
644.51	39875.71
644.66	40907.88
644.81	40734.68
644.95	41144.28
645.10	41085.76
645.25	40893.84
645.39	41265.99
645.54	40601.27
645.69	39997.41
645.83	40231.47
645.98	40332.11
646.13	40453.82
646.27	40652.76
646.42	40325.09
646.57	40292.32
646.71	40421.05
646.86	40692.55
647.00	40641.06
647.15	40289.98
647.30	40821.28
647.44	40086.36
647.59	40474.88
647.74	40051.25
647.88	40046.57
648.03	40208.06
648.17	40175.30
648.32	39679.10
648.47	39849.96
648.61	39999.76
648.76	39856.98
648.90	39948.26
649.05	39934.22
649.20	39873.37
649.34	39920.18
649.49	39669.74
649.63	39768.04
649.78	39599.52
649.92	39452.07
650.07	39899.11
650.21	39487.18
650.36	39777.40
650.51	39562.08
650.65	40013.80
650.80	39969.33
650.94	39756.34
651.09	39796.13
651.23	39512.92
651.38	39522.29
651.52	39255.46
651.67	39398.24
651.81	39288.23
651.96	39283.55
652.10	39711.87
652.25	39203.97
652.39	39255.46
652.54	39416.96
652.68	39660.38
652.83	39117.37
652.97	39414.62
653.12	39257.81
653.26	39643.99
653.41	38705.44
653.55	38934.81
653.70	39100.99
653.84	39264.83
653.99	39208.65
654.13	38649.27
654.27	38609.48
654.42	38651.61
654.56	39323.34
654.71	39194.61
654.85	38913.75
655.00	39075.24
655.14	38792.04
655.29	38424.57
655.43	38333.29
655.57	37921.36
655.72	38326.27
655.86	38071.15
656.01	38113.28
656.15	37926.04
656.30	38485.43
656.44	38429.26
656.58	37930.72
656.73	38232.65
656.87	37963.49
657.01	38349.68
657.16	37773.91
657.30	38223.29
657.45	37923.70
657.59	38157.75
657.73	38244.35
657.88	38113.28
658.02	38447.98
658.16	37968.17
658.31	38213.93
658.45	38075.84
658.60	38457.34
658.74	38213.93
658.88	38146.05
659.03	37853.48
659.17	37640.50
659.31	37502.40
659.46	37794.97
659.60	37638.15
659.74	37797.31
659.89	37287.07
660.03	37799.65
660.17	38029.02
660.32	37628.79
660.46	37783.27
660.60	37577.30
660.74	37673.26
660.89	37610.07
661.03	37401.76
661.17	37329.20
661.32	36921.95
661.46	37076.43
661.60	36989.83
661.74	37387.72
661.89	37415.80
662.03	37109.19
662.17	37083.45
662.31	36769.82
662.46	37216.86
662.60	36954.72
662.74	37008.55
662.88	37120.90
663.03	36781.52
663.17	36818.97
663.31	36355.54
663.45	37315.16
663.60	36364.90
663.74	36346.18
663.88	36308.73
664.02	36327.45
664.17	36491.29
664.31	35903.82
664.45	35985.74
664.59	35985.74
664.73	36404.69
664.88	36341.50
665.02	35660.40
665.16	36018.50
665.30	35840.62
665.44	35943.61
665.59	35615.93
665.73	35723.60
665.87	35470.82
666.01	35899.14
666.15	35388.90
666.29	35440.39
666.44	35442.73
666.58	35306.98
666.72	35388.90
666.86	35606.57
667.00	35683.81
667.14	35314.00
667.28	35290.60
667.43	34721.85
667.57	35229.74
667.71	34775.68
667.85	34899.73
667.99	34960.58
668.13	34735.89
668.27	34607.16
668.41	35199.32
668.56	34483.11
668.70	34689.08
668.84	34703.12
668.98	34389.49
669.12	34452.69
669.26	34457.37
669.40	34181.18
669.54	34363.75
669.68	34010.32
669.82	34040.75
669.96	33958.83
670.10	33968.19
670.25	33827.76
670.39	34604.82
670.53	33979.90
670.67	34036.07
670.81	33951.81
670.95	33860.53
671.09	33722.44
671.23	33853.51
671.37	33670.95
671.51	33254.33
671.65	33118.58
671.79	33022.62
671.93	33404.13
672.07	33188.80
672.21	33214.54
672.35	32870.48
672.49	33326.89
672.63	33092.83
672.77	33179.43
672.91	33015.60
673.05	32835.38
673.19	32877.51
673.33	32833.04
673.47	32400.04
673.61	32535.79
673.75	32327.48
673.89	32158.96
674.03	31990.44
674.17	31941.29
674.31	32208.11
674.45	31864.05
674.59	32149.60
674.73	32336.84
674.87	32072.36
675.01	31997.46
675.15	32130.87
675.29	31800.86
675.43	31651.06
675.56	31604.25
675.70	31578.51
675.84	31494.25
675.98	30216.32
676.12	30859.96
676.26	30969.97
676.40	30675.06
676.54	30766.34
676.68	30829.54
676.82	30448.03
676.96	30480.80
677.10	30490.16
677.23	30267.81
677.37	30209.29
677.51	30426.96
677.65	30412.92
677.79	30038.44
677.93	29993.97
678.07	29783.32
678.21	29799.70
678.34	29514.16
678.48	29713.10
678.62	29638.20
678.76	29392.45
678.90	29340.96
679.04	29137.33
679.18	29511.81
679.31	29352.66
679.45	28615.39
679.59	28982.85
679.73	28676.24
679.87	28882.21
680.00	29048.39
680.14	28601.35
680.28	28297.08
680.42	28411.76
680.56	28465.60
680.70	28203.46
680.83	28409.42
680.97	28018.55
681.11	28091.11
681.25	28037.28
681.39	27747.05
681.52	27725.99
681.66	27922.59
681.80	27498.95
681.94	27751.73
682.07	27173.62
682.21	27438.10
682.35	27161.92
682.49	26939.57
682.62	27164.26
682.76	27080.00
682.90	27047.23
683.04	27122.13
683.17	26698.49
683.31	26654.02
683.45	26611.89
683.59	26382.52
683.72	26305.28
683.86	25998.67
684.00	25996.33
684.13	26082.93
684.27	26003.35
684.41	25956.54
684.55	25773.98
684.68	25523.54
684.82	25720.15
684.96	25839.51
685.09	25696.74
685.23	25331.62
685.37	25310.55
685.50	25713.13
685.64	25392.47
685.78	25123.31
685.91	25252.04
686.05	25053.09
686.19	24624.78
686.32	24430.51
686.46	24437.53
686.60	24297.10
686.73	24245.61
686.87	24065.39
687.01	24037.30
687.14	23571.54
687.28	23545.79
687.42	23601.96
687.55	23300.03
687.69	23627.71
687.82	23543.45
687.96	23702.61
688.10	23400.68
688.23	23548.13
688.37	23065.98
688.50	22946.61
688.64	22972.36
688.78	22979.38
688.91	22522.98
689.05	22878.74
689.18	22951.29
689.32	22522.98
689.46	22625.96
689.59	22988.74
689.73	22632.98
689.86	22335.73
690.00	22387.22
690.13	22647.02
690.27	22036.14
690.41	22504.25
690.54	21783.37
690.68	21757.62
690.81	21869.97
690.95	21649.96
691.08	21415.90
691.22	21598.46
691.35	21397.18
691.49	21301.22
691.62	21479.10
691.76	21364.41
691.89	21664.00
692.03	21092.91
692.16	21074.18
692.30	20821.41
692.43	20826.09
692.57	20561.61
692.70	20517.14
692.84	20875.24
692.97	20615.44
693.11	20706.72
693.24	20458.62
693.38	20201.16
693.51	20067.75
693.65	20273.72
693.78	20320.53
693.92	19971.79
694.05	20018.60
694.19	19854.76
694.32	19927.32
694.45	19805.61
694.59	19536.45
694.72	19384.32
694.86	19330.48
694.99	19330.48
695.13	19089.41
695.26	19143.24
695.39	18752.37
695.53	19087.07
695.66	19215.80
695.80	19115.16
695.93	18640.03
696.07	18792.16
696.20	18867.06
696.33	18775.78
696.47	18490.23
696.60	18384.91
696.73	18335.76
696.87	18202.35
697.00	18459.81
697.14	18143.83
697.27	18101.70
697.40	17947.23
697.54	17902.76
697.67	17570.40
697.80	17619.55
697.94	17661.68
698.07	17577.42
698.21	17390.18
698.34	17525.93
698.47	17326.99
698.61	17106.98
698.74	17245.07
698.87	17039.10
699.01	16877.60
699.14	16706.74
699.27	16683.34
699.40	16877.60
699.54	16531.20
699.67	16524.18
699.80	16840.15
699.94	16594.40
700.07	16479.71
700.20	16573.33
700.34	16091.18
700.47	16320.56
700.60	16444.60
700.73	16283.11
700.87	16269.06
701.00	16023.31
701.13	15803.30
701.26	15807.98
701.40	15868.83
701.53	15700.31
701.66	15777.55
701.79	15513.07
701.93	15438.17
702.06	15382.00
702.19	15660.52
702.32	15356.25
702.46	15080.07
702.59	15241.57
702.72	15101.14
702.85	15272.00
702.99	15527.11
703.12	15110.50
703.25	15110.50
703.38	15019.22
703.51	14883.47
703.65	14970.07
703.78	14661.12
703.91	14590.90
704.04	14368.55
704.17	14600.26
704.31	14253.86
704.44	14303.01
704.57	14031.51
704.70	14214.07
704.83	14396.64
704.96	14115.77
705.10	14277.27
705.23	14024.49
>>>>>End Processed Spectral Data<<<<<
