SpectraSuite Data File
++++++++++++++++++++++++++++++++++++
Date: Fri Oct 25 10:44:27 EDT 2013
User: price-jones
Dark Spectrum Present: No
Reference Spectrum Present: No
Number of Sampled Component Spectra: 1
Spectrometers: USB2+H05261
Integration Time (usec): 100000 (USB2+H05261)
Spectra Averaged: 1 (USB2+H05261)
Boxcar Smoothing: 0 (USB2+H05261)
Correct for Electrical Dark: No (USB2+H05261)
Strobe/Lamp Enabled: No (USB2+H05261)
Correct for Detector Non-linearity: No (USB2+H05261)
Correct for Stray Light: No (USB2+H05261)
Number of Pixels in Processed Spectrum: 2048
>>>>>Begin Processed Spectral Data<<<<<
365.73	102.98
365.92	102.98
366.12	102.98
366.32	35.11
366.52	25.75
366.72	35.11
366.91	0.00
367.11	67.88
367.31	0.00
367.51	0.00
367.70	0.00
367.90	18.72
368.10	60.85
368.30	53.83
368.49	53.83
368.69	0.00
368.89	0.00
369.09	0.00
369.28	51.49
369.48	0.00
369.68	77.24
369.87	100.64
370.07	53.83
370.27	100.64
370.47	161.50
370.66	451.72
370.86	451.72
371.06	451.72
371.25	463.43
371.45	482.15
371.65	505.56
371.84	428.32
372.04	517.26
372.24	533.64
372.44	465.77
372.63	503.22
372.83	568.75
373.03	493.85
373.22	465.77
373.42	545.34
373.62	533.64
373.81	566.41
374.01	603.86
374.21	554.71
374.40	521.94
374.60	589.82
374.79	587.47
374.99	622.58
375.19	664.71
375.38	638.97
375.58	606.20
375.78	650.67
375.97	587.47
376.17	624.92
376.37	594.50
376.56	770.04
376.76	603.86
376.95	615.56
377.15	585.13
377.35	631.94
377.54	636.63
377.74	655.35
377.93	592.16
378.13	697.48
378.33	645.99
378.52	631.94
378.72	608.54
378.91	662.37
379.11	617.90
379.31	648.33
379.50	688.12
379.70	662.37
379.89	683.44
380.09	840.25
380.28	774.72
380.48	664.71
380.68	685.78
380.87	711.52
381.07	681.10
381.26	706.84
381.46	760.67
381.65	650.67
381.85	627.26
382.04	718.54
382.24	629.60
382.43	699.82
382.63	739.61
382.83	751.31
383.02	699.82
383.22	774.72
383.41	699.82
383.61	730.25
383.80	744.29
384.00	758.33
384.19	791.10
384.39	844.93
384.58	856.64
384.78	873.02
384.97	830.89
385.17	802.80
385.36	748.97
385.56	854.30
385.75	835.57
385.95	828.55
386.14	915.15
386.34	807.48
386.53	889.40
386.72	870.68
386.92	954.94
387.11	901.11
387.31	915.15
387.50	866.00
387.70	854.30
387.89	847.27
388.09	837.91
388.28	931.53
388.48	884.72
388.67	959.62
388.86	950.26
389.06	980.68
389.25	1076.65
389.45	990.05
389.64	1034.52
389.84	1097.71
390.03	1015.79
390.22	1146.86
390.42	1032.18
390.61	1043.88
390.81	1018.13
391.00	1097.71
391.19	1039.20
391.39	1172.61
391.58	1064.94
391.78	1062.60
391.97	1128.14
392.16	1086.01
392.36	1102.39
392.55	1013.45
392.75	1074.31
392.94	992.39
393.13	1048.56
393.33	976.00
393.52	1062.60
393.71	1062.60
393.91	1053.24
394.10	1086.01
394.29	1177.29
394.49	1158.57
394.68	1238.14
394.88	1299.00
395.07	1228.78
395.26	1362.19
395.46	1355.17
395.65	1306.02
395.84	1235.80
396.04	1299.00
396.23	1217.08
396.42	1153.88
396.62	1071.97
396.81	1315.38
397.00	1268.57
397.19	1233.46
397.39	1327.08
397.58	1371.55
397.77	1418.36
397.97	1427.73
398.16	1495.60
398.35	1533.05
398.55	1495.60
398.74	1455.81
398.93	1617.31
399.12	1490.92
399.32	1533.05
399.51	1645.40
399.70	1579.86
399.90	1540.07
400.09	1598.59
400.28	1675.82
400.47	1701.57
400.67	1739.02
400.86	1673.48
401.05	1640.72
401.24	1722.63
401.44	1837.32
401.63	1776.47
401.82	1776.47
402.01	1804.55
402.21	1809.23
402.40	1764.76
402.59	1703.91
402.78	1739.02
402.97	1797.53
403.17	1865.41
403.36	1921.58
403.55	1799.87
403.74	1895.83
403.93	1884.13
404.13	1977.75
404.32	1856.04
404.51	1937.96
404.70	2026.90
404.89	1959.03
405.09	1991.80
405.28	1963.71
405.47	1912.22
405.66	1949.67
405.85	2085.42
406.05	2073.71
406.24	2024.56
406.43	2062.01
406.62	2162.66
406.81	2230.53
407.00	2092.44
407.20	2059.67
407.39	2153.29
407.58	2289.04
407.77	2246.91
407.96	2246.91
408.15	2256.28
408.34	2204.78
408.54	2244.57
408.73	2324.15
408.92	2333.51
409.11	2328.83
409.30	2403.73
409.49	2239.89
409.68	2389.69
409.87	2321.81
410.07	2338.20
410.26	2450.54
410.45	2560.55
410.64	2553.52
410.83	2553.52
411.02	2588.63
411.21	2747.79
411.40	2647.15
411.59	2630.76
411.78	2677.57
411.98	2619.06
412.17	2745.45
412.36	2775.88
412.55	2834.39
412.74	2745.45
412.93	2738.43
413.12	2785.24
413.31	2930.35
413.50	2895.24
413.69	2857.79
413.88	2953.76
414.07	3028.65
414.26	3049.72
414.45	3070.78
414.64	3000.57
414.83	3105.89
415.02	3054.40
415.22	3089.51
415.41	3258.03
415.60	3211.22
415.79	3143.34
415.98	3361.01
416.17	3297.81
416.36	3300.16
416.55	3290.79
416.74	3440.59
416.93	3300.16
417.12	3311.86
417.31	3311.86
417.50	3377.39
417.69	3611.45
417.88	3545.91
418.07	3541.23
418.26	3538.89
418.45	3555.27
418.64	3744.86
418.83	3637.19
419.02	3618.47
419.21	3723.79
419.39	3634.85
419.58	3627.83
419.77	3679.32
419.96	3716.77
420.15	3819.75
420.34	3777.62
420.53	3939.12
420.72	3868.91
420.91	3852.52
421.10	3927.42
421.29	3967.21
421.48	3829.12
421.67	3922.74
421.86	3988.27
422.05	3918.06
422.24	3948.48
422.43	4037.42
422.61	3927.42
422.80	3983.59
422.99	4039.76
423.18	4030.40
423.37	4065.51
423.56	3948.48
423.75	4074.87
423.94	3967.21
424.13	3728.47
424.32	3852.52
424.50	4131.05
424.69	4067.85
424.88	4074.87
425.07	4135.73
425.26	4032.74
425.45	3943.80
425.64	4021.04
425.83	4142.75
426.01	4255.09
426.20	3962.53
426.39	4112.32
426.58	4056.15
426.77	3904.01
426.96	4133.39
427.15	4119.34
427.33	4177.86
427.52	4060.83
427.71	4241.05
427.90	4369.78
428.09	4376.80
428.28	4196.58
428.46	4290.20
428.65	4294.88
428.84	4367.44
429.03	4355.74
429.22	4269.14
429.40	4088.92
429.59	4126.36
429.78	4077.21
429.97	4039.76
430.16	4140.41
430.34	4138.07
430.53	4248.07
430.72	4250.41
430.91	4381.48
431.10	4358.08
431.28	4732.56
431.47	4772.35
431.66	4737.24
431.85	4613.20
432.03	4723.20
432.22	4716.18
432.41	4671.71
432.60	4798.10
432.79	4854.27
432.97	4908.10
433.16	4826.18
433.35	4777.03
433.54	4727.88
433.72	4765.33
433.91	4638.94
434.10	4793.42
434.28	4905.76
434.47	4973.64
434.66	4975.98
434.85	5097.69
435.03	5074.28
435.22	5069.60
435.41	5355.15
435.59	5188.97
435.78	5348.12
435.97	5252.16
436.16	5256.84
436.34	5291.95
436.53	5575.16
436.72	5467.49
436.90	5233.44
437.09	5240.46
437.28	5275.57
437.46	5387.91
437.65	5261.52
437.84	5296.63
438.02	5266.21
438.21	5373.87
438.40	5305.99
438.58	5394.93
438.77	5549.41
438.96	5481.53
439.14	5640.69
439.33	5729.63
439.52	5654.73
439.70	5762.40
439.89	5893.47
440.08	5830.27
440.26	5909.85
440.45	5837.30
440.63	6104.12
440.82	6080.71
441.01	6078.37
441.19	6232.85
441.38	6237.53
441.57	6237.53
441.75	6406.05
441.94	6555.84
442.12	6413.07
442.31	6490.31
442.50	6534.78
442.68	6394.34
442.87	6506.69
443.05	6506.69
443.24	6672.87
443.43	6722.02
443.61	6792.23
443.80	6827.34
443.98	6665.85
444.17	6497.33
444.35	6820.32
444.54	6817.98
444.73	6719.68
444.91	6675.21
445.10	6766.49
445.28	6530.09
445.47	6604.99
445.65	6754.79
445.84	6715.00
446.02	6726.70
446.21	6731.38
446.39	6707.98
446.58	6810.96
446.77	6827.34
446.95	6682.23
447.14	6803.94
447.32	7094.16
447.51	6904.58
447.69	6829.68
447.88	6949.05
448.06	6743.08
448.25	6902.24
448.43	6829.68
448.62	6888.20
448.80	6846.07
448.99	7066.08
449.17	7162.04
449.36	6977.14
449.54	7122.25
449.73	7260.34
449.91	7379.71
450.10	7185.44
450.28	7424.18
450.46	7569.29
450.65	7389.07
450.83	7419.50
451.02	7274.38
451.20	7499.08
451.39	7386.73
451.57	7419.50
451.76	7396.09
451.94	7372.69
452.13	7714.41
452.31	7325.88
452.49	7311.83
452.68	7197.15
452.86	7307.15
453.05	7522.48
453.23	7398.43
453.42	7496.74
453.60	7506.10
453.78	7754.19
453.97	7578.65
454.15	7674.62
454.34	7611.42
454.52	7688.66
454.70	7665.25
454.89	7695.68
455.07	7824.41
455.26	7761.22
455.44	7847.82
455.62	7742.49
455.81	7948.46
455.99	7955.48
456.17	8128.68
456.36	8107.62
456.54	8173.15
456.73	8243.37
456.91	8285.50
457.09	8149.75
457.28	8428.27
457.46	8067.83
457.64	8313.58
457.83	8067.83
458.01	8131.02
458.19	8498.49
458.38	8299.54
458.56	8489.12
458.74	8463.38
458.93	8528.91
459.11	8507.85
459.29	8496.14
459.48	8421.25
459.66	8566.36
459.84	8538.27
460.03	8634.24
460.21	8629.56
460.39	8631.90
460.57	8887.01
460.76	8744.24
460.94	9057.87
461.12	8819.14
461.31	9046.17
461.49	9018.08
461.67	8739.56
461.85	9249.80
462.04	9020.42
462.22	9151.49
462.40	9259.16
462.59	8999.36
462.77	9142.13
462.95	9146.81
463.13	9233.41
463.32	9212.35
463.50	9153.84
463.68	9268.52
463.86	9158.52
464.05	9139.79
464.23	9013.40
464.41	9167.88
464.59	9071.92
464.78	9544.70
464.96	9430.02
465.14	9411.29
465.32	9043.83
465.50	9483.85
465.69	9469.81
465.87	9378.53
466.05	9516.62
466.23	9252.14
466.41	9500.23
466.60	9584.49
466.78	9404.27
466.96	9411.29
467.14	9647.69
467.32	9437.04
467.51	9734.29
467.69	9582.15
467.87	9619.60
468.05	9827.91
468.23	9614.92
468.41	9516.62
468.60	9949.62
468.78	9804.50
468.96	9790.46
469.14	9905.15
469.32	10106.43
469.50	9696.84
469.69	9973.02
469.87	9958.98
470.05	9944.94
470.23	10153.24
470.41	10022.17
470.59	10134.52
470.77	10019.83
470.95	10221.12
471.14	10464.54
471.32	10361.55
471.50	10541.77
471.68	10567.52
471.86	10693.91
472.04	10476.24
472.22	10586.24
472.40	10651.78
472.58	10555.82
472.77	10724.33
472.95	10654.12
473.13	11138.61
473.31	10644.76
473.49	10775.83
473.67	10714.97
473.85	11068.39
474.03	11372.66
474.21	11087.12
474.39	11365.64
474.57	11410.11
474.75	11253.30
474.93	11367.98
475.12	11520.12
475.30	11208.83
475.48	11206.48
475.66	11344.58
475.84	11690.98
476.02	11709.70
476.20	11683.95
476.38	11950.78
476.56	11964.82
476.74	12035.03
476.92	12032.69
477.10	12100.57
477.28	12615.49
477.46	12311.22
477.64	12512.50
477.82	12723.15
478.00	12903.37
478.18	12926.78
478.36	13032.10
478.54	13149.13
478.72	12947.84
478.90	13163.17
479.08	13287.22
479.26	13483.83
479.44	13701.50
479.62	13542.34
479.80	13518.93
479.98	13706.18
480.16	13930.87
480.34	13940.23
480.52	14033.85
480.70	14029.17
480.88	13928.53
481.06	14317.06
481.24	14197.69
481.41	14721.97
481.59	14745.38
481.77	14668.14
481.95	14843.68
482.13	14862.40
482.31	15094.11
482.49	15323.49
482.67	15145.61
482.85	15400.72
483.03	15552.86
483.21	15538.82
483.39	15810.32
483.57	15772.87
483.74	15950.75
483.92	15908.62
484.10	15894.58
484.28	16229.27
484.46	16659.93
484.64	16842.50
484.82	16414.18
485.00	16620.14
485.18	16720.79
485.35	16830.79
485.53	16278.43
485.71	16629.51
485.89	16898.67
486.07	16856.54
486.25	16800.37
486.43	17465.08
486.61	17235.70
486.78	17605.51
486.96	18129.79
487.14	17919.14
487.32	18075.96
487.50	18530.02
487.68	18654.07
487.85	18623.64
488.03	19016.85
488.21	19007.49
488.39	18820.25
488.57	19197.07
488.75	19367.93
488.92	19688.59
489.10	19798.59
489.28	19800.93
489.46	20376.70
489.64	20123.93
489.81	20886.94
489.99	20903.32
490.17	20486.71
490.35	20870.56
490.53	20666.93
490.70	21043.76
490.88	20781.62
491.06	21090.57
491.24	21120.99
491.41	21120.99
491.59	21359.73
491.77	21528.25
491.95	21441.65
492.13	21970.61
492.30	22099.34
492.48	22202.32
492.66	22384.88
492.84	22422.33
493.01	22501.91
493.19	22565.10
493.37	22724.26
493.54	22803.84
493.72	23115.13
493.90	23178.33
494.08	23454.51
494.25	23503.66
494.43	23805.59
494.61	23859.42
494.79	23950.70
494.96	24065.39
495.14	24177.73
495.32	23931.98
495.49	24247.95
495.67	24458.60
495.85	24603.71
496.02	24545.20
496.20	25048.41
496.38	25003.94
496.55	25017.99
496.73	25776.32
496.91	25420.56
497.09	25542.27
497.26	25764.62
497.44	25551.63
497.62	25631.21
497.79	26092.29
497.97	25729.51
498.14	26061.87
498.32	25872.28
498.50	25979.95
498.67	26567.42
498.85	26668.06
499.03	26932.54
499.20	27007.44
499.38	27072.98
499.56	27215.75
499.73	27227.45
499.91	26888.07
500.08	26740.62
500.26	27051.91
500.44	27075.32
500.61	27344.48
500.79	27438.10
500.97	27166.60
501.14	28070.04
501.32	27583.21
501.49	27796.20
501.67	27852.38
501.84	28077.07
502.02	27859.40
502.20	28320.48
502.37	28652.84
502.55	28376.66
502.72	28538.15
502.90	28718.37
503.07	28566.24
503.25	28903.28
503.43	28648.16
503.60	28591.98
503.78	28528.79
503.95	28844.76
504.13	28940.72
504.30	29359.68
504.48	29383.09
504.65	29254.36
504.83	29446.28
505.01	29912.05
505.18	29556.28
505.36	30284.19
505.53	30181.21
505.71	30022.05
505.88	30588.46
506.06	30150.78
506.23	30075.88
506.41	30162.48
506.58	30731.23
506.76	30230.36
506.93	30499.52
507.11	30583.78
507.28	30862.30
507.46	30284.19
507.63	30831.88
507.81	30824.86
507.98	30771.02
508.16	31126.78
508.33	31222.75
508.50	31714.26
508.68	31693.19
508.85	32266.63
509.03	31887.46
509.20	31655.75
509.38	31924.91
509.55	32011.51
509.73	31948.31
509.90	32137.90
510.08	31442.76
510.25	32053.64
510.42	32041.93
510.60	32268.97
510.77	32856.44
510.95	32708.99
511.12	32790.91
511.30	32577.92
511.47	33139.65
511.64	32910.27
511.82	33039.00
511.99	32907.93
512.17	32884.53
512.34	33219.22
512.51	33289.44
512.69	33156.03
512.86	33415.83
513.04	33752.87
513.21	33331.57
513.38	33544.56
513.56	33376.04
513.73	33497.75
513.90	33912.02
514.08	33570.30
514.25	33677.97
514.43	33799.68
514.60	33776.27
514.77	34195.23
514.95	34249.06
515.12	34490.13
515.29	34338.00
515.47	34689.08
515.64	34558.01
515.81	34164.80
515.99	34085.22
516.16	34448.00
516.33	34132.03
516.51	34143.74
516.68	33479.02
516.85	33818.40
517.03	34125.01
517.20	34338.00
517.37	34937.18
517.54	35356.13
517.72	34759.30
517.89	34600.14
518.06	34462.05
518.24	34583.76
518.41	35021.44
518.58	35573.80
518.75	34909.09
518.93	35742.32
519.10	35807.86
519.27	35934.24
519.45	35845.30
519.62	36016.16
519.79	36182.34
519.96	36140.21
520.14	36456.18
520.31	35849.99
520.48	36203.41
520.65	36182.34
520.83	37001.53
521.00	36910.25
521.17	36266.60
521.34	36758.11
521.52	36692.58
521.69	37029.62
521.86	37043.66
522.03	37273.03
522.20	37481.34
522.38	36645.77
522.55	37364.31
522.72	37462.61
522.89	37198.13
523.07	37570.28
523.24	37380.70
523.41	37621.77
523.58	37483.68
523.75	37977.53
523.92	38232.65
524.10	37722.41
524.27	38295.85
524.44	38225.63
524.61	38209.25
524.78	38146.05
524.96	38424.57
525.13	38359.04
525.30	38384.79
525.47	38925.45
525.64	38572.03
525.81	38197.54
525.98	38293.50
526.16	38103.92
526.33	37816.04
526.50	38206.90
526.67	38054.77
526.84	38057.11
527.01	37794.97
527.18	38136.69
527.36	38988.64
527.53	38766.29
527.70	39236.74
527.87	38962.90
528.04	38906.73
528.21	39274.19
528.38	39346.75
528.55	39402.92
528.72	39842.94
528.89	39959.97
529.07	39770.38
529.24	38761.61
529.41	39384.19
529.58	39379.51
529.75	39688.46
529.92	39981.03
530.09	39978.69
530.26	40076.99
530.43	40112.10
530.60	40032.52
530.77	39824.22
530.94	40390.62
531.11	39931.88
531.28	40170.61
531.46	40371.90
531.63	40512.33
531.80	40268.92
531.97	40271.26
532.14	40236.15
532.31	39906.13
532.48	39604.20
532.65	40584.89
532.82	40711.28
532.99	40746.39
533.16	39990.39
533.33	40844.69
533.50	40715.96
533.67	40985.12
533.84	40842.35
534.01	40769.79
534.18	40652.76
534.35	41144.28
534.52	41055.34
534.69	41151.30
534.86	41172.36
535.03	41097.47
535.20	41556.21
535.37	41783.24
535.54	41801.97
535.71	41799.63
535.88	41598.34
536.05	41490.68
536.22	41401.74
536.38	41406.42
536.55	41380.67
536.72	41549.19
536.89	41209.81
537.06	41881.55
537.23	41497.70
537.40	41698.98
537.57	41787.92
537.74	41867.50
537.91	42029.00
538.08	42141.35
538.25	41691.96
538.42	41792.61
538.59	42195.18
538.75	41291.73
538.92	41591.32
539.09	42265.39
539.26	42377.74
539.43	41916.65
539.60	42251.35
539.77	41876.86
539.94	41942.40
540.11	41963.46
540.28	42309.86
540.44	42389.44
540.61	42349.65
540.78	42415.19
540.95	42061.77
541.12	42373.06
541.29	42059.43
541.46	42241.99
541.62	42471.36
541.79	42829.46
541.96	42359.02
542.13	43098.62
542.30	42953.51
542.47	42822.44
542.63	42616.47
542.80	42813.08
542.97	43316.29
543.14	43220.33
543.31	43065.86
543.48	43601.84
543.64	44048.88
543.81	43646.31
543.98	43674.40
544.15	43414.60
544.32	43393.53
544.48	43728.23
544.65	43339.70
544.82	43239.06
544.99	43828.87
545.16	43896.75
545.32	43714.19
545.49	44238.47
545.66	43908.45
545.83	44039.52
546.00	43775.04
546.16	43945.90
546.33	43686.10
546.50	43636.95
546.67	43924.83
546.83	43466.09
547.00	43814.83
547.17	43636.95
547.34	44149.53
547.50	44282.94
547.67	44093.35
547.84	44240.81
548.00	44308.68
548.17	44591.89
548.34	44296.98
548.51	44538.05
548.67	44395.28
548.84	44706.57
549.01	44587.21
549.18	44416.35
549.34	44425.71
549.51	44828.28
549.68	44793.17
549.84	44505.29
550.01	44563.80
550.18	44294.64
550.34	44699.55
550.51	44673.81
550.68	44882.11
550.84	44807.22
551.01	44652.74
551.18	44725.30
551.34	44779.13
551.51	44802.53
551.68	44781.47
551.84	45090.42
552.01	44706.57
552.18	45078.72
552.34	44856.37
552.51	45233.19
552.68	44797.85
552.84	45446.18
553.01	45474.27
553.18	44992.12
553.34	45474.27
553.51	44755.72
553.67	45272.98
553.84	45570.23
554.01	45148.93
554.17	45750.45
554.34	45635.77
554.51	45408.73
554.67	45298.73
554.84	45242.56
555.00	45553.85
555.17	45230.85
555.33	45411.07
555.50	45205.11
555.67	44973.39
555.83	45408.73
556.00	45586.61
556.16	45925.99
556.33	45343.20
556.50	45155.96
556.66	45851.09
556.83	45539.80
556.99	45727.05
557.16	45865.14
557.32	45940.04
557.49	45897.91
557.65	45663.85
557.82	45925.99
557.98	45918.97
558.15	46014.93
558.32	45560.87
558.48	45439.16
558.65	45684.92
558.81	45661.51
558.98	45806.62
559.14	45722.37
559.31	45876.84
559.47	45972.80
559.64	45610.02
559.80	46216.22
559.97	46005.57
560.13	45869.82
560.30	45930.67
560.46	45862.80
560.63	46265.37
560.79	46366.01
560.96	46366.01
561.12	46258.35
561.29	46160.05
561.45	45832.37
561.61	46036.00
561.78	46000.89
561.94	46047.70
562.11	46426.87
562.27	46148.34
562.44	46153.02
562.60	46424.53
562.77	46370.69
562.93	46316.86
563.10	46197.49
563.26	45989.19
563.42	46305.16
563.59	45935.35
563.75	46117.92
563.92	46337.93
564.08	46356.65
564.24	46415.16
564.41	46256.01
564.57	46253.67
564.74	46302.82
564.90	46417.50
565.07	46553.26
565.23	46445.59
565.39	46211.54
565.56	45993.87
565.72	46281.75
565.88	46026.63
566.05	46120.26
566.21	46497.08
566.38	46497.08
566.54	46333.24
566.70	46569.64
566.87	46562.62
567.03	46550.91
567.19	47178.18
567.36	46946.47
567.52	45986.85
567.68	46579.00
567.85	45918.97
568.01	46703.05
568.17	46146.00
568.34	46555.60
568.50	46476.02
568.66	46426.87
568.83	46894.97
568.99	46209.20
569.15	46277.07
569.32	46684.33
569.48	46326.22
569.64	47030.72
569.81	46965.19
569.97	46583.68
570.13	46679.64
570.30	46429.21
570.46	46323.88
570.62	46157.70
570.78	46492.40
570.95	46040.68
571.11	46663.26
571.27	46366.01
571.43	46305.16
571.60	46445.59
571.76	46527.51
571.92	46642.20
572.09	46354.31
572.25	46593.04
572.41	46387.08
572.57	46714.75
572.74	47246.05
572.90	46415.16
573.06	46377.72
573.22	46749.86
573.38	46677.30
573.55	46141.32
573.71	46887.95
573.87	46593.04
574.03	46532.19
574.20	46473.68
574.36	46738.16
574.52	46855.18
574.68	46824.76
574.84	46464.32
575.01	46356.65
575.17	46038.34
575.33	46401.12
575.49	46286.43
575.65	46775.61
575.82	47012.00
575.98	46384.74
576.14	47145.41
576.30	46663.26
576.46	46813.05
576.62	46424.53
576.79	46703.05
576.95	46373.03
577.11	46738.16
577.27	46862.21
577.43	46789.65
577.59	46827.10
577.75	46560.28
577.92	46504.10
578.08	46403.46
578.24	46373.03
578.40	46515.81
578.56	46398.78
578.72	46454.95
578.88	46766.24
579.04	47033.07
579.21	46389.42
579.37	46253.67
579.53	46801.35
579.69	46527.51
579.85	46419.84
580.01	46972.21
580.17	46700.71
580.33	47056.47
580.49	46796.67
580.65	46724.11
580.82	46579.00
580.98	46621.13
581.14	46560.28
581.30	46887.95
581.46	46885.61
581.62	47222.65
581.78	46714.75
581.94	47136.05
582.10	46609.43
582.26	46927.74
582.42	46560.28
582.58	46824.76
582.74	46754.54
582.90	46979.23
583.06	46714.75
583.22	46948.81
583.38	46806.03
583.54	46822.42
583.70	46986.25
583.86	46642.20
584.02	46513.47
584.18	47332.65
584.34	46674.96
584.50	46990.94
584.66	46906.68
584.82	47042.43
584.98	46838.80
585.14	47229.67
585.30	46595.38
585.46	46843.48
585.62	46712.41
585.78	46930.08
585.94	46401.12
586.10	46670.28
586.26	46955.83
586.42	46820.08
586.58	47166.48
586.74	46932.42
586.90	46763.90
587.06	46817.74
587.22	47199.24
587.38	46625.81
587.54	46766.24
587.70	46979.23
587.86	46965.19
588.02	46852.84
588.18	46740.50
588.34	46518.15
588.49	46321.54
588.65	45925.99
588.81	46031.32
588.97	46155.36
589.13	46396.44
589.29	46483.04
589.45	46787.31
589.61	46850.50
589.77	46728.80
589.93	46733.48
590.08	46791.99
590.24	46791.99
590.40	46974.55
590.56	47089.24
590.72	47224.99
590.88	47093.92
591.04	46937.10
591.20	47187.54
591.35	47114.98
591.51	47316.27
591.67	47056.47
591.83	46665.60
591.99	46894.97
592.15	47152.43
592.31	46684.33
592.46	46836.46
592.62	46609.43
592.78	46843.48
592.94	47093.92
593.10	46674.96
593.26	47430.96
593.41	46621.13
593.57	46829.44
593.73	47353.72
593.89	46986.25
594.05	47175.84
594.20	46859.87
594.36	47168.82
594.52	46691.35
594.68	46579.00
594.84	46773.27
594.99	47547.98
595.15	46969.87
595.31	46923.06
595.47	46630.49
595.62	47028.38
595.78	47112.64
595.94	47248.39
596.10	46916.04
596.25	47566.71
596.41	47185.20
596.57	47037.75
596.73	47077.54
596.88	46869.23
597.04	46988.60
597.20	46902.00
597.36	46885.61
597.51	47054.13
597.67	47166.48
597.83	46857.52
597.99	46937.10
598.14	46955.83
598.30	47009.66
598.46	47000.30
598.61	47220.31
598.77	46576.66
598.93	47002.64
599.09	47058.81
599.24	47379.46
599.40	47199.24
599.56	47400.53
599.71	46986.25
599.87	47454.36
600.03	46913.70
600.18	47129.03
600.34	47084.56
600.50	47040.09
600.65	46806.03
600.81	47271.80
600.97	46658.58
601.12	47615.86
601.28	47093.92
601.44	46780.29
601.59	47133.71
601.75	46906.68
601.91	46476.02
602.06	46902.00
602.22	46618.79
602.37	46794.33
602.53	46784.97
602.69	46892.63
602.84	46869.23
603.00	46937.10
603.16	47194.56
603.31	46607.09
603.47	46710.07
603.62	46714.75
603.78	46733.48
603.94	46766.24
604.09	47152.43
604.25	47180.52
604.40	46780.29
604.56	47093.92
604.71	46911.36
604.87	46742.84
605.03	46583.68
605.18	46543.89
605.34	46946.47
605.49	46459.63
605.65	47070.51
605.80	47175.84
605.96	46911.36
606.12	46932.42
606.27	47037.75
606.43	46745.18
606.58	46691.35
606.74	46646.88
606.89	47304.57
607.05	46656.24
607.20	46836.46
607.36	46534.53
607.51	46801.35
607.67	46637.51
607.82	46443.25
607.98	46665.60
608.13	46344.95
608.29	46520.49
608.44	46117.92
608.60	46101.53
608.75	46576.66
608.91	46337.93
609.06	46206.86
609.22	46459.63
609.37	46361.33
609.53	46611.77
609.68	46337.93
609.84	46010.25
609.99	46710.07
610.15	46358.99
610.30	46160.05
610.46	46227.92
610.61	46476.02
610.76	46143.66
610.92	46494.74
611.07	46511.13
611.23	46553.26
611.38	46415.16
611.54	45708.32
611.69	46323.88
611.84	46066.42
612.00	46288.77
612.15	45902.59
612.31	46377.72
612.46	45942.38
612.62	46064.08
612.77	46358.99
612.92	46213.88
613.08	45621.72
613.23	46213.88
613.39	46003.23
613.54	45670.87
613.69	46131.96
613.85	45858.12
614.00	46181.11
614.15	45773.86
614.31	46129.62
614.46	46078.13
614.62	46087.49
614.77	46021.95
614.92	45464.91
615.08	45743.43
615.23	45467.25
615.38	45717.68
615.54	45251.92
615.69	45521.08
615.84	45799.60
616.00	45408.73
616.15	45698.96
616.30	45443.84
616.46	45221.49
616.61	45474.27
616.76	45523.42
616.92	45123.19
617.07	45099.78
617.22	44964.03
617.37	45340.86
617.53	45471.93
617.68	45483.63
617.83	45490.65
617.99	45425.12
618.14	45446.18
618.29	45436.82
618.45	44985.10
618.60	45034.25
618.75	44861.05
618.90	45177.02
619.06	45270.64
619.21	45174.68
619.36	45464.91
619.51	45322.13
619.67	44786.15
619.82	45303.41
619.97	45345.54
620.12	45125.53
620.28	44552.10
620.43	44690.19
620.58	45256.60
620.73	44776.79
620.89	45057.65
621.04	44734.66
621.19	44619.97
621.34	45354.90
621.49	44357.83
621.65	44257.19
621.80	44648.06
621.95	44493.58
622.10	44573.16
622.25	44273.57
622.41	43892.07
622.56	44222.08
622.71	44414.01
622.86	44472.52
623.01	44360.17
623.16	44098.03
623.32	44332.09
623.47	44502.95
623.62	44126.12
623.77	44053.56
623.92	44189.31
624.07	44062.93
624.23	44172.93
624.38	44083.99
624.53	44142.50
624.68	43943.56
624.83	43955.26
624.98	43873.34
625.13	43985.69
625.29	43988.03
625.44	43746.95
625.59	43948.24
625.74	43278.85
625.89	43800.79
626.04	43529.28
626.19	43650.99
626.34	43674.40
626.49	43636.95
626.65	43487.15
626.80	44186.97
626.95	43620.56
627.10	43246.08
627.25	43505.88
627.40	43173.52
627.55	43049.47
627.70	43136.07
627.85	42593.07
628.00	43524.60
628.15	43393.53
628.30	43159.48
628.45	43555.03
628.60	43332.68
628.76	43573.75
628.91	43379.49
629.06	43264.80
629.21	43297.57
629.36	43105.65
629.51	42787.33
629.66	42618.81
629.81	42562.64
629.96	43227.35
630.11	43182.88
630.26	43056.50
630.41	43089.26
630.56	43091.60
630.71	42859.89
630.86	42726.48
631.01	42710.10
631.16	42646.90
631.31	42555.62
631.46	42354.33
631.61	42820.10
631.76	42799.04
631.91	42602.43
632.06	42717.12
632.21	42934.79
632.36	42880.95
632.51	42354.33
632.66	42330.93
632.81	42143.69
632.96	42576.69
633.10	42323.91
633.25	42286.46
633.40	42852.87
633.55	42855.21
633.70	42454.98
633.85	42000.91
634.00	42431.57
634.15	42220.92
634.30	42167.09
634.45	41968.15
634.60	42061.77
634.75	42344.97
634.90	42295.82
635.05	41937.72
635.19	41986.87
635.34	42054.75
635.49	41977.51
635.64	41947.08
635.79	41823.03
635.94	41979.85
636.09	42405.83
636.24	41233.22
636.39	41476.63
636.53	41514.08
636.68	41490.68
636.83	41837.08
636.98	41661.54
637.13	41549.19
637.28	41682.60
637.43	42106.24
637.57	41804.31
637.72	41759.84
637.87	41567.91
638.02	41551.53
638.17	41813.67
638.32	41546.85
638.46	41879.21
638.61	41434.50
638.76	41476.63
638.91	41617.07
639.06	41151.30
639.20	41230.88
639.35	41289.39
639.50	41766.86
639.65	41991.55
639.80	41876.86
639.94	41324.50
640.09	41226.20
640.24	41062.36
640.39	40652.76
640.54	40669.15
640.68	41390.03
640.83	40912.56
640.98	40329.77
641.13	40566.16
641.27	41060.02
641.42	41249.60
641.57	40863.41
641.72	40921.93
641.86	40734.68
642.01	40811.92
642.16	40903.20
642.31	40811.92
642.45	40638.72
642.60	40336.79
642.75	40884.48
642.90	40502.97
643.04	41069.38
643.19	41022.57
643.34	40842.35
643.48	40439.78
643.63	40439.78
643.78	40446.80
643.93	40128.48
644.07	40149.55
644.22	40486.59
644.37	40126.14
644.51	40397.65
644.66	40802.56
644.81	40566.16
644.95	40648.08
645.10	40800.22
645.25	40430.41
645.39	40329.77
645.54	40247.85
645.69	39988.05
645.83	40215.08
645.98	40327.43
646.13	40371.90
646.27	40236.15
646.42	39840.60
646.57	39938.90
646.71	39789.11
646.86	40179.98
647.00	40215.08
647.15	40100.40
647.30	39929.54
647.44	39477.82
647.59	39615.91
647.74	39742.30
647.88	39971.67
648.03	39597.18
648.17	39974.01
648.32	39505.90
648.47	39445.05
648.61	39419.30
648.76	39878.05
648.90	39353.77
649.05	39276.53
649.20	39353.77
649.34	39290.57
649.49	39374.83
649.63	39180.57
649.78	39175.89
649.92	39501.22
650.07	39274.19
650.21	39105.67
650.36	39194.61
650.51	39253.12
650.65	39667.40
650.80	39597.18
650.94	39428.66
651.09	39468.45
651.23	39093.97
651.38	39189.93
651.52	39159.50
651.67	38885.66
651.81	39276.53
651.96	38902.04
652.10	39201.63
652.25	38602.46
652.39	38960.56
652.54	39051.84
652.68	39007.37
652.83	39306.96
652.97	39196.95
653.12	38485.43
653.26	38780.34
653.41	38944.17
653.55	39091.63
653.70	38600.12
653.84	38948.85
653.99	38756.93
654.13	38609.48
654.27	38693.74
654.42	38698.42
654.56	38319.25
654.71	38548.62
654.85	38513.52
655.00	38532.24
655.14	37986.89
655.29	38337.98
655.43	37937.74
655.57	38307.55
655.72	37811.35
655.86	37766.88
656.01	37563.26
656.15	37750.50
656.30	37563.26
656.44	37986.89
656.58	37876.89
656.73	37443.89
656.87	37750.50
657.01	37991.58
657.16	37954.13
657.30	37996.26
657.45	37720.07
657.59	37738.80
657.73	37675.60
657.88	37996.26
658.02	37773.91
658.16	37897.95
658.31	38036.05
658.45	37357.29
658.60	37912.00
658.74	37518.79
658.88	38031.36
659.03	37670.92
659.17	37741.14
659.31	37757.52
659.46	36910.25
659.60	37605.39
659.74	37387.72
659.89	37053.02
660.03	37254.31
660.17	36910.25
660.32	37076.43
660.46	37130.26
660.60	37022.59
660.74	37001.53
660.89	37308.14
661.03	36725.35
661.17	36816.63
661.32	36737.05
661.46	36968.76
661.60	36739.39
661.74	36730.03
661.89	37099.83
662.03	36531.08
662.17	36790.88
662.31	36346.18
662.46	36692.58
662.60	36643.43
662.74	36437.46
662.88	36119.15
663.03	36184.68
663.17	35817.22
663.31	35651.04
663.45	36205.75
663.60	35990.42
663.74	35803.17
663.88	35936.59
664.02	35959.99
664.17	36282.98
664.31	35775.09
664.45	35796.15
664.59	35466.14
664.73	35700.19
664.88	35723.60
665.02	35484.86
665.16	35852.33
665.30	35721.26
665.44	35775.09
665.59	35236.77
665.73	35306.98
665.87	35311.66
666.01	35328.05
666.15	35232.08
666.29	35126.76
666.44	35271.87
666.58	35330.39
666.72	35180.59
666.86	34983.99
667.00	34972.28
667.14	34897.39
667.28	34700.78
667.43	34665.67
667.57	34962.92
667.71	34438.64
667.85	34157.78
667.99	34277.15
668.13	34277.15
668.27	34410.56
668.41	34361.40
668.56	34202.25
668.70	34139.05
668.84	34211.61
668.98	34043.09
669.12	33825.42
669.26	33862.87
669.40	33649.88
669.54	33558.60
669.68	34043.09
669.82	33799.68
669.96	33556.26
670.10	33422.85
670.25	33584.35
670.39	33532.86
670.53	33469.66
670.67	33280.08
670.81	33394.76
670.95	33336.25
671.09	33401.79
671.23	33495.41
671.37	33305.82
671.51	33144.33
671.65	33139.65
671.79	32594.30
671.93	32634.09
672.07	33062.41
672.21	32622.39
672.35	32781.54
672.49	32903.25
672.63	33109.22
672.77	32526.42
672.91	32865.80
673.05	32737.07
673.19	32208.11
673.33	32435.14
673.47	32217.47
673.61	31899.16
673.75	31620.64
673.89	31519.99
674.03	31742.35
674.17	31393.61
674.31	32170.66
674.45	31562.12
674.59	32137.90
674.73	31765.75
674.87	31491.91
675.01	31494.25
675.15	31475.52
675.29	31384.24
675.43	31702.56
675.56	31026.14
675.70	31075.29
675.84	31260.20
675.98	30340.36
676.12	31075.29
676.26	31037.84
676.40	30630.59
676.54	30941.88
676.68	30242.06
676.82	30150.78
676.96	30794.43
677.10	30424.62
677.23	29874.60
677.37	30068.86
677.51	29727.14
677.65	29806.72
677.79	29308.19
677.93	29766.93
678.07	29516.50
678.21	29514.16
678.34	29315.21
678.48	29146.69
678.62	29259.04
678.76	28577.94
678.90	28678.58
679.04	28657.52
679.18	28774.55
679.31	28765.18
679.45	28512.41
679.59	28252.61
679.73	28226.86
679.87	28360.27
680.00	27828.97
680.14	28098.13
680.28	28437.51
680.42	28182.39
680.56	28304.10
680.70	27878.12
680.83	28056.00
680.97	27990.47
681.11	27791.52
681.25	27522.36
681.39	27927.27
681.52	27707.26
681.66	27435.76
681.80	27583.21
681.94	27300.01
682.07	27117.45
682.21	27075.32
682.35	26867.01
682.49	26852.97
682.62	27234.47
682.76	26483.16
682.90	26721.90
683.04	26405.92
683.17	26270.17
683.31	25912.07
683.45	26274.85
683.59	26029.10
683.72	26064.21
683.86	25909.73
684.00	26075.91
684.13	26033.78
684.27	25769.30
684.41	25507.16
684.55	25142.03
684.68	25488.43
684.82	25132.67
684.96	25413.54
685.09	25092.88
685.23	25338.64
685.37	25097.56
685.50	25167.78
685.64	24720.74
685.78	24470.30
685.91	24514.77
686.05	24390.72
686.19	24374.34
686.32	24247.95
686.46	23805.59
686.60	23597.28
686.73	23676.86
686.87	23321.10
687.01	23356.21
687.14	23009.81
687.28	23508.34
687.42	22946.61
687.55	23910.91
687.69	23349.18
687.82	23208.75
687.96	23239.18
688.10	23239.18
688.23	23016.83
688.37	22728.94
688.50	22656.39
688.64	22562.76
688.78	23080.02
688.91	22684.47
689.05	22670.43
689.18	22686.81
689.32	22012.74
689.46	22078.27
689.59	22515.95
689.73	22274.88
689.86	22087.64
690.00	22249.13
690.13	22305.31
690.27	21769.32
690.41	21823.16
690.54	21682.72
690.68	21626.55
690.81	21582.08
690.95	21429.94
691.08	21607.83
691.22	21242.70
691.35	21209.93
691.49	21350.37
691.62	21757.62
691.76	21172.49
691.89	20540.54
692.03	20835.45
692.16	21022.69
692.30	20533.52
692.43	20198.82
692.57	20285.42
692.70	20475.01
692.84	20313.51
692.97	20428.20
693.11	20107.54
693.24	20212.87
693.38	19941.36
693.51	19843.06
693.65	20365.00
693.78	20030.30
693.92	20053.71
694.05	19976.47
694.19	19639.44
694.32	19623.05
694.45	19489.64
694.59	19243.88
694.72	19145.58
694.86	19358.57
694.99	18829.61
695.13	18965.36
695.26	18640.03
695.39	18930.25
695.53	18906.85
695.66	18623.64
695.80	18857.70
695.93	18710.24
696.07	18712.58
696.20	18459.81
696.33	18415.34
696.47	18150.85
696.60	18359.16
696.73	18200.01
696.87	18022.12
697.00	18195.32
697.14	17970.63
697.27	18024.47
697.40	17912.12
697.54	17635.94
697.67	17734.24
697.80	17610.19
697.94	17425.29
698.07	17125.70
698.21	17516.57
698.34	17268.47
698.47	17205.28
698.61	16783.98
698.74	16753.55
698.87	16767.60
699.01	16547.59
699.14	16411.84
699.27	16580.36
699.40	16496.10
699.54	16500.78
699.67	16269.06
699.80	16262.04
699.94	16271.40
700.07	16255.02
700.20	16140.33
700.34	16189.49
700.47	15941.39
700.60	16203.53
700.73	16035.01
700.87	16044.37
701.00	16060.76
701.13	15782.23
701.26	15704.99
701.40	15545.84
701.53	15393.70
701.66	15819.68
701.79	15281.36
701.93	15222.84
702.06	15393.70
702.19	15112.84
702.32	15087.09
702.46	15066.03
702.59	15131.56
702.72	15101.14
702.85	14932.62
702.99	15056.67
703.12	14846.02
703.25	14736.01
703.38	14471.53
703.51	14438.76
703.65	14391.95
703.78	14539.41
703.91	14464.51
704.04	14176.62
704.17	14272.59
704.31	14218.75
704.44	13848.95
704.57	13951.93
704.70	13816.18
704.83	14225.78
704.96	14193.01
705.10	13888.74
705.23	13884.06
>>>>>End Processed Spectral Data<<<<<
