SpectraSuite Data File
++++++++++++++++++++++++++++++++++++
Date: Fri Oct 25 11:34:46 EDT 2013
User: price-jones
Dark Spectrum Present: No
Reference Spectrum Present: No
Number of Sampled Component Spectra: 1
Spectrometers: USB2+H05261
Integration Time (usec): 100000 (USB2+H05261)
Spectra Averaged: 1 (USB2+H05261)
Boxcar Smoothing: 0 (USB2+H05261)
Correct for Electrical Dark: No (USB2+H05261)
Strobe/Lamp Enabled: No (USB2+H05261)
Correct for Detector Non-linearity: No (USB2+H05261)
Correct for Stray Light: No (USB2+H05261)
Number of Pixels in Processed Spectrum: 2048
>>>>>Begin Processed Spectral Data<<<<<
365.73	278.52
365.92	278.52
366.12	278.52
366.32	163.84
366.52	173.20
366.72	173.20
366.91	196.60
367.11	173.20
367.31	131.07
367.51	168.52
367.70	182.56
367.90	163.84
368.10	152.13
368.30	205.97
368.49	177.88
368.69	194.26
368.89	257.46
369.09	154.48
369.28	224.69
369.48	182.56
369.68	227.03
369.87	292.57
370.07	203.63
370.27	353.42
370.47	381.51
370.66	472.79
370.86	554.71
371.06	507.90
371.25	634.29
371.45	547.69
371.65	564.07
371.84	580.45
372.04	566.41
372.24	552.37
372.44	540.66
372.63	671.73
372.83	543.00
373.03	627.26
373.22	587.47
373.42	575.77
373.62	561.73
373.81	601.52
374.01	662.37
374.21	645.99
374.40	594.50
374.60	648.33
374.79	615.56
374.99	613.22
375.19	627.26
375.38	627.26
375.58	629.60
375.78	653.01
375.97	702.16
376.17	730.25
376.37	695.14
376.56	683.44
376.76	617.90
376.95	699.82
377.15	627.26
377.35	678.76
377.54	725.57
377.74	676.41
377.93	727.91
378.13	793.44
378.33	765.36
378.52	718.54
378.72	770.04
378.91	723.23
379.11	676.41
379.31	741.95
379.50	709.18
379.70	692.80
379.89	748.97
380.09	765.36
380.28	748.97
380.48	664.71
380.68	667.05
380.87	793.44
381.07	734.93
381.26	763.01
381.46	809.83
381.65	723.23
381.85	753.65
382.04	753.65
382.24	685.78
382.43	699.82
382.63	755.99
382.83	828.55
383.02	840.25
383.22	861.32
383.41	720.88
383.61	758.33
383.80	849.61
384.00	723.23
384.19	772.38
384.39	877.70
384.58	807.48
384.78	835.57
384.97	798.12
385.17	807.48
385.36	915.15
385.56	800.46
385.75	814.51
385.95	802.80
386.14	807.48
386.34	800.46
386.53	861.32
386.72	823.87
386.92	784.08
387.11	814.51
387.31	931.53
387.50	854.30
387.70	861.32
387.89	812.17
388.09	866.00
388.28	915.15
388.48	924.51
388.67	891.74
388.86	912.81
389.06	894.08
389.25	1029.84
389.45	835.57
389.64	922.17
389.84	959.62
390.03	891.74
390.22	936.21
390.42	957.28
390.61	957.28
390.81	971.32
391.00	936.21
391.19	976.00
391.39	1060.26
391.58	919.83
391.78	1029.84
391.97	1053.24
392.16	940.90
392.36	985.37
392.55	1008.77
392.75	1132.82
392.94	992.39
393.13	1018.13
393.33	997.07
393.52	964.30
393.71	1050.90
393.91	987.71
394.10	1036.86
394.29	997.07
394.49	1018.13
394.68	1013.45
394.88	1102.39
395.07	1062.60
395.26	1151.54
395.46	1158.57
395.65	1100.05
395.84	1083.67
396.04	1167.93
396.23	1146.86
396.42	1142.18
396.62	1170.27
396.81	1139.84
397.00	1118.78
397.19	1186.65
397.39	1245.16
397.58	1172.61
397.77	1174.95
397.97	1179.63
398.16	1242.82
398.35	1217.08
398.55	1207.72
398.74	1270.91
398.93	1296.66
399.12	1245.16
399.32	1324.74
399.51	1310.70
399.70	1357.51
399.90	1299.00
400.09	1287.29
400.28	1256.87
400.47	1357.51
400.67	1357.51
400.86	1291.98
401.05	1348.15
401.24	1317.72
401.44	1268.57
401.63	1458.15
401.82	1394.96
402.01	1310.70
402.21	1418.36
402.40	1441.77
402.59	1411.34
402.78	1437.09
402.97	1446.45
403.17	1462.83
403.36	1458.15
403.55	1488.58
403.74	1451.13
403.93	1540.07
404.13	1530.71
404.32	1430.07
404.51	1570.50
404.70	1586.88
404.89	1533.05
405.09	1643.06
405.28	1455.81
405.47	1558.80
405.66	1717.95
405.85	1680.50
406.05	1710.93
406.24	1645.40
406.43	1664.12
406.62	1736.68
406.81	1675.82
407.00	1715.61
407.20	1626.67
407.39	1682.85
407.58	1799.87
407.77	1727.32
407.96	1811.57
408.15	1748.38
408.34	1774.13
408.54	1947.33
408.73	1895.83
408.92	1877.11
409.11	1795.19
409.30	1811.57
409.49	1984.77
409.68	1839.66
409.87	1895.83
410.07	1874.77
410.26	2033.93
410.45	1977.75
410.64	2008.18
410.83	2029.24
411.02	2073.71
411.21	2083.08
411.40	2122.87
411.59	2080.74
411.78	2108.82
411.98	2132.23
412.17	2197.76
412.36	2148.61
412.55	2225.85
412.74	2242.23
412.93	2179.04
413.12	2165.00
413.31	2319.47
413.50	2242.23
413.69	2244.57
413.88	2377.98
414.07	2380.32
414.26	2303.09
414.45	2361.60
414.64	2368.62
414.83	2368.62
415.02	2363.94
415.22	2459.90
415.41	2478.63
415.60	2466.92
415.79	2499.69
415.98	2544.16
416.17	2581.61
416.36	2581.61
416.55	2733.75
416.74	2649.49
416.93	2700.98
417.12	2752.47
417.31	2766.51
417.50	2722.04
417.69	2829.71
417.88	2768.85
418.07	2693.96
418.26	2857.79
418.45	2796.94
418.64	2944.39
418.83	2818.00
419.02	2951.42
419.21	2967.80
419.39	2979.50
419.58	2963.12
419.77	2899.92
419.96	2963.12
420.15	2972.48
420.34	3045.04
420.53	3026.31
420.72	2993.55
420.91	3082.49
421.10	3089.51
421.29	3033.33
421.48	3143.34
421.67	3089.51
421.86	3061.42
422.05	3066.10
422.24	3033.33
422.43	3197.17
422.61	3143.34
422.80	3197.17
422.99	3150.36
423.18	3232.28
423.37	3119.93
423.56	3363.35
423.75	3148.02
423.94	3234.62
424.13	3023.97
424.32	3141.00
424.50	3267.39
424.69	3323.56
424.88	3286.11
425.07	3243.98
425.26	3197.17
425.45	3286.11
425.64	3218.24
425.83	3136.32
426.01	3337.60
426.20	3239.30
426.39	3384.41
426.58	3218.24
426.77	3206.53
426.96	3288.45
427.15	3384.41
427.33	3426.54
427.52	3346.97
427.71	3442.93
427.90	3368.03
428.09	3447.61
428.28	3559.95
428.46	3543.57
428.65	3417.18
428.84	3515.48
429.03	3569.32
429.22	3475.70
429.40	3564.64
429.59	3623.15
429.78	3499.10
429.97	3513.14
430.16	3707.41
430.34	3641.87
430.53	3606.77
430.72	3698.05
430.91	3545.91
431.10	3637.19
431.28	3777.62
431.47	3651.24
431.66	3829.12
431.85	3658.26
432.03	3861.88
432.22	3866.56
432.41	3880.61
432.60	3843.16
432.79	3894.65
432.97	4002.32
433.16	3971.89
433.35	3878.27
433.54	3976.57
433.72	4035.08
433.91	3850.18
434.10	4072.53
434.28	3943.80
434.47	4039.76
434.66	3985.93
434.85	4119.34
435.03	4018.70
435.22	4109.98
435.41	4287.86
435.59	4140.41
435.78	4145.09
435.97	4306.59
436.16	4088.92
436.34	4140.41
436.53	4208.28
436.72	4409.57
436.90	4152.11
437.09	4255.09
437.28	4177.86
437.46	4315.95
437.65	4409.57
437.84	4294.88
438.02	4290.20
438.21	4360.42
438.40	4334.67
438.58	4397.87
438.77	4559.36
438.96	4351.06
439.14	4542.98
439.33	4634.26
439.52	4503.19
439.70	4695.11
439.89	4739.58
440.08	4777.03
440.26	4746.61
440.45	4891.72
440.63	4645.96
440.82	4819.16
441.01	4873.00
441.19	4922.15
441.38	5191.31
441.57	4945.55
441.75	4894.06
441.94	5102.37
442.12	5034.49
442.31	5100.03
442.50	5149.18
442.68	5135.14
442.87	5097.69
443.05	5172.58
443.24	5233.44
443.43	5146.84
443.61	5280.25
443.80	5528.35
443.98	5235.78
444.17	4966.62
444.35	5153.86
444.54	5291.95
444.73	5242.80
444.91	5404.30
445.10	5387.91
445.28	5284.93
445.47	5275.57
445.65	5308.34
445.84	5577.50
446.02	5439.40
446.21	5305.99
446.39	5287.27
446.58	5434.72
446.77	5439.40
446.95	5291.95
447.14	5275.57
447.32	5366.85
447.51	5331.74
447.69	5210.03
447.88	5490.90
448.06	5467.49
448.25	5490.90
448.43	5540.05
448.62	5427.70
448.80	5509.62
448.99	5596.22
449.17	5551.75
449.36	5451.11
449.54	5701.54
449.73	5750.70
449.91	5701.54
450.10	5596.22
450.28	5818.57
450.46	5774.10
450.65	5816.23
450.83	5694.52
451.02	5856.02
451.20	5731.97
451.39	5907.51
451.57	5809.21
451.76	5806.87
451.94	6024.54
452.13	5799.85
452.31	6104.12
452.49	5680.48
452.68	5895.81
452.86	6052.63
453.05	5961.34
453.23	6094.76
453.42	5834.96
453.60	5881.77
453.78	6251.57
453.97	6017.52
454.15	6118.16
454.34	6015.18
454.52	6104.12
454.70	6036.24
454.89	6370.94
455.07	6239.87
455.26	6115.82
455.44	6303.06
455.62	6380.30
455.81	6207.10
455.99	6417.75
456.17	6434.13
456.36	6303.06
456.54	6291.36
456.73	6567.54
456.91	6644.78
457.09	6506.69
457.28	6623.72
457.46	6736.06
457.64	6754.79
457.83	6504.35
458.01	6518.39
458.19	6986.50
458.38	6497.33
458.56	6796.92
458.74	6731.38
458.93	6665.85
459.11	6787.55
459.29	6612.01
459.48	6860.11
459.66	6888.20
459.84	6965.43
460.03	7056.72
460.21	7047.35
460.39	6925.65
460.57	7021.61
460.76	6993.52
460.94	7173.74
461.12	7124.59
461.31	7138.63
461.49	7180.76
461.67	6920.96
461.85	7030.97
462.04	7133.95
462.22	7269.70
462.40	7407.80
462.59	7243.96
462.77	7220.55
462.95	7314.17
463.13	7360.98
463.32	7405.46
463.50	7431.20
463.68	7410.14
463.86	7513.12
464.05	7372.69
464.23	7449.93
464.41	7747.17
464.59	7300.13
464.78	7683.98
464.96	7529.50
465.14	7332.90
465.32	7609.08
465.50	7744.83
465.69	7578.65
465.87	7613.76
466.05	7676.96
466.23	7620.78
466.41	7721.43
466.60	7803.35
466.78	7534.18
466.96	7793.98
467.14	7716.75
467.32	7852.50
467.51	7754.19
467.69	7789.30
467.87	8039.74
468.05	7824.41
468.23	7880.58
468.41	7911.01
468.60	8009.31
468.78	8219.96
468.96	7824.41
469.14	8030.38
469.32	8156.77
469.50	8091.23
469.69	8037.40
469.87	8226.98
470.05	8264.43
470.23	8184.85
470.41	8353.37
470.59	8334.65
470.77	8318.26
470.95	8318.26
471.14	8510.19
471.32	8238.69
471.50	8549.98
471.68	8292.52
471.86	8617.85
472.04	8650.62
472.22	8868.29
472.40	8547.64
472.58	8779.35
472.77	8727.86
472.95	8835.52
473.13	9083.62
473.31	8809.78
473.49	8896.38
473.67	8870.63
473.85	8917.44
474.03	9104.68
474.21	9130.43
474.39	9434.70
474.57	9341.08
474.75	9434.70
474.93	9383.21
475.12	9406.61
475.30	9521.30
475.48	9549.39
475.66	9582.15
475.84	9617.26
476.02	9530.66
476.20	9970.68
476.38	9767.06
476.56	10083.03
476.74	10061.96
476.92	10216.44
477.10	9958.98
477.28	10190.69
477.46	9750.67
477.64	10097.07
477.82	10300.70
478.00	10684.55
478.18	10258.57
478.36	10256.23
478.54	10511.35
478.72	10569.86
478.90	11002.86
479.08	10860.09
479.26	10899.87
479.44	10993.50
479.62	11033.29
479.80	11049.67
479.98	11047.33
480.16	11627.78
480.34	11417.13
480.52	11454.58
480.70	11571.61
480.88	11417.13
481.06	11779.92
481.24	11674.59
481.41	11712.04
481.59	12088.87
481.77	11955.46
481.95	12187.17
482.13	11960.14
482.31	12196.53
482.49	12437.61
482.67	12444.63
482.85	12674.00
483.03	12695.07
483.21	13109.34
483.39	12952.52
483.57	12901.03
483.74	13020.40
483.92	13219.35
484.10	13242.75
484.28	13298.92
484.46	13467.44
484.64	13804.48
484.82	13532.98
485.00	14017.47
485.18	14045.55
485.35	13958.96
485.53	14256.20
485.71	14050.24
485.89	14665.80
486.07	14574.52
486.25	14480.89
486.43	14471.53
486.61	14817.93
486.78	14675.16
486.96	14691.54
487.14	15204.12
487.32	15117.52
487.50	15515.41
487.68	15225.18
487.85	15475.62
488.03	15793.94
488.21	15625.42
488.39	15789.25
488.57	16032.67
488.75	16011.60
488.92	16219.91
489.10	16313.53
489.28	16278.43
489.46	16779.30
489.64	16559.29
489.81	17081.23
489.99	17235.70
490.17	17078.89
490.35	17338.69
490.53	17371.46
490.70	17415.93
490.88	17474.44
491.06	17444.01
491.24	17905.10
491.41	17898.08
491.59	18024.47
491.77	17947.23
491.95	17942.55
492.13	18223.41
492.30	18726.63
492.48	18511.30
492.66	18473.85
492.84	18630.66
493.01	18848.33
493.19	19115.16
493.37	19000.47
493.54	19215.80
493.72	19491.98
493.90	19295.38
494.08	19634.75
494.25	19527.09
494.43	19417.08
494.61	19936.68
494.79	20210.53
494.96	20060.73
495.14	20119.24
495.32	20765.23
495.49	20496.07
495.67	20409.47
495.85	20652.89
496.02	20577.99
496.20	20837.79
496.38	21142.06
496.55	20669.27
496.73	21439.31
496.91	21516.54
497.09	21446.33
497.26	21455.69
497.44	21322.28
497.62	21635.91
497.79	22127.42
497.97	21893.37
498.14	22260.84
498.32	22534.68
498.50	22169.55
498.67	22431.69
498.85	22284.24
499.03	22625.96
499.20	22618.94
499.38	22427.01
499.56	23009.81
499.73	22932.57
499.91	22984.06
500.08	23201.73
500.26	23077.68
500.44	23054.28
500.61	23271.95
500.79	23300.03
500.97	23718.99
501.14	23681.54
501.32	23969.43
501.49	23646.43
501.67	23768.14
501.84	24163.69
502.02	23761.12
502.20	24074.75
502.37	23920.28
502.55	24011.56
502.72	24369.66
502.90	24250.29
503.07	24187.10
503.25	24542.86
503.43	24563.92
503.60	24561.58
503.78	24655.20
503.95	24994.58
504.13	24999.26
504.30	25142.03
504.48	25062.46
504.65	25310.55
504.83	25450.99
505.01	25399.49
505.18	25565.67
505.36	25701.42
505.53	25518.86
505.71	25745.89
505.88	25565.67
506.06	25708.44
506.23	25949.52
506.41	25837.17
506.58	26001.01
506.76	26199.96
506.93	26497.20
507.11	26295.92
507.28	26199.96
507.46	26225.70
507.63	26728.92
507.81	26878.71
507.98	26536.99
508.16	26794.45
508.33	26813.18
508.50	26658.70
508.68	27248.52
508.85	27012.12
509.03	27122.13
509.20	27278.94
509.38	27459.16
509.55	27304.69
509.73	27381.93
509.90	27365.54
510.08	27421.72
510.25	27983.44
510.42	27929.61
510.60	28130.90
510.77	28123.88
510.95	28048.98
511.12	28313.46
511.30	28276.01
511.47	28189.41
511.64	28336.87
511.82	28559.22
511.99	28587.30
512.17	28833.06
512.34	28467.94
512.51	28828.38
512.69	29244.99
512.86	28748.80
513.04	29076.48
513.21	29113.92
513.38	28933.70
513.56	29207.55
513.73	29254.36
513.90	29237.97
514.08	29198.18
514.25	29326.91
514.43	29535.22
514.60	29565.65
514.77	29806.72
514.95	29675.65
515.12	29675.65
515.29	29507.13
515.47	30143.76
515.64	30150.78
515.81	30024.39
515.99	30284.19
516.16	30141.42
516.33	30543.99
516.51	30525.27
516.68	30333.34
516.85	30487.82
517.03	30696.13
517.20	30562.72
517.37	30707.83
517.54	30780.39
517.72	30710.17
517.89	30984.01
518.06	31122.10
518.24	31023.80
518.41	30838.90
518.58	31367.86
518.75	30869.33
518.93	31091.68
519.10	31037.84
519.27	31791.50
519.45	31049.55
519.62	31412.33
519.79	31868.73
519.96	31498.93
520.14	31803.20
520.31	31821.92
520.48	32004.49
520.65	31695.53
520.83	32240.88
521.00	32257.26
521.17	32278.33
521.34	32367.27
521.52	32287.69
521.69	32444.51
521.86	32339.18
522.03	32762.82
522.20	32603.66
522.38	32905.59
522.55	32933.68
522.72	32982.83
522.89	32795.59
523.07	33432.21
523.24	32828.35
523.41	33462.64
523.58	33261.35
523.75	33294.12
523.92	33408.81
524.10	33392.42
524.27	33345.61
524.44	33741.16
524.61	33731.80
524.78	33956.49
524.96	33539.88
525.13	34169.48
525.30	34150.76
525.47	34363.75
525.64	33589.03
525.81	34188.21
525.98	33682.65
526.16	34153.10
526.33	34209.27
526.50	34455.03
526.67	34176.50
526.84	34061.82
527.01	33982.24
527.18	34342.68
527.36	34569.71
527.53	34464.39
527.70	34710.14
527.87	34696.10
528.04	35012.07
528.21	34948.88
528.38	34455.03
528.55	35243.79
528.72	35007.39
528.89	34864.62
529.07	35072.93
529.24	34836.53
529.41	35290.60
529.58	35257.83
529.75	35180.59
529.92	35658.06
530.09	35503.59
530.26	35208.68
530.43	36009.14
530.60	35531.67
530.77	35583.16
530.94	35548.06
531.11	35475.50
531.28	35793.81
531.46	35555.08
531.63	35714.23
531.80	35878.07
531.97	35662.74
532.14	36168.30
532.31	36177.66
532.48	36306.39
532.65	36053.61
532.82	36229.15
532.99	36149.57
533.16	36084.04
533.33	36350.86
533.50	36458.52
533.67	36627.04
533.84	36266.60
534.01	36388.31
534.18	36425.76
534.35	36732.37
534.52	36823.65
534.69	36872.80
534.86	37020.25
535.03	36680.88
535.20	36849.39
535.37	36964.08
535.54	36753.43
535.71	37202.82
535.88	37324.52
536.05	37357.29
536.22	37221.54
536.38	37390.06
536.55	37207.50
536.72	37106.85
536.89	37289.42
537.06	37673.26
537.23	37567.94
537.40	37565.60
537.57	37270.69
537.74	37504.74
537.91	37677.94
538.08	37661.56
538.25	37261.33
538.42	37780.93
538.59	37691.99
538.75	37986.89
538.92	38204.56
539.09	38499.47
539.26	38195.20
539.43	38349.68
539.60	38171.80
539.77	37874.55
539.94	38576.71
540.11	38600.12
540.28	37930.72
540.44	38555.64
540.61	38398.83
540.78	38630.54
540.95	38897.36
541.12	38242.01
541.29	38520.54
541.46	38447.98
541.62	39033.11
541.79	38770.97
541.96	38494.79
542.13	38684.37
542.30	38574.37
542.47	38803.74
542.63	39082.27
542.80	39131.42
542.97	39302.28
543.14	39290.57
543.31	39222.70
543.48	38913.75
543.64	39566.76
543.81	39587.82
543.98	39459.09
544.15	39756.34
544.32	39550.37
544.48	40004.44
544.65	39758.68
544.82	39819.53
544.99	39789.11
545.16	39693.15
545.32	40039.54
545.49	40142.53
545.66	40404.67
545.83	40055.93
546.00	40137.85
546.16	39861.66
546.33	40044.23
546.50	39899.11
546.67	40488.93
546.83	40112.10
547.00	39861.66
547.17	40018.48
547.34	40371.90
547.50	40781.49
547.67	40444.46
547.84	40273.60
548.00	40116.78
548.17	41167.68
548.34	40828.30
548.51	40603.61
548.67	40893.84
548.84	40531.06
549.01	40680.85
549.18	40264.24
549.34	41198.11
549.51	40964.06
549.68	40655.11
549.84	40322.75
550.01	40896.18
550.18	40603.61
550.34	41067.04
550.51	40896.18
550.68	40964.06
550.84	40978.10
551.01	41113.85
551.18	41111.51
551.34	41050.66
551.51	41074.06
551.68	41298.75
551.84	41523.44
552.01	41102.15
552.18	41523.44
552.34	41207.47
552.51	41481.31
552.68	41013.21
552.84	41481.31
553.01	41591.32
553.18	41509.40
553.34	41511.74
553.51	41418.12
553.67	41837.08
553.84	41780.90
554.01	41661.54
554.17	41476.63
554.34	41926.02
554.51	42057.09
554.67	42101.56
554.84	42260.71
555.00	41720.05
555.17	41603.02
555.33	42380.08
555.50	41706.01
555.67	42185.82
555.83	42047.72
556.00	41996.23
556.16	42164.75
556.33	42646.90
556.50	42419.87
556.66	42672.65
556.83	42047.72
556.99	42480.72
557.16	42635.20
557.32	42550.94
557.49	42649.24
557.65	42124.96
557.82	42595.41
557.98	42775.63
558.15	42272.42
558.32	42513.49
558.48	42213.90
558.65	42471.36
558.81	42733.50
558.98	42728.82
559.14	42684.35
559.31	42394.12
559.47	42604.77
559.64	42770.95
559.80	42522.85
559.97	42714.78
560.13	42553.28
560.30	42953.51
560.46	42988.62
560.63	43061.18
560.79	43264.80
560.96	42967.55
561.12	42780.31
561.29	43175.86
561.45	42974.58
561.61	42904.36
561.78	42934.79
561.94	42815.42
562.11	43412.26
562.27	42983.94
562.44	43194.59
562.60	43548.01
562.77	43229.69
562.93	43304.59
563.10	43391.19
563.26	43047.13
563.42	43494.18
563.59	43173.52
563.75	43363.11
563.92	43342.04
564.08	43871.00
564.24	43379.49
564.41	42955.85
564.57	43042.45
564.74	43566.73
564.90	43145.44
565.07	43381.83
565.23	43306.93
565.39	43288.21
565.56	43749.29
565.72	43220.33
565.88	43246.08
566.05	43756.32
566.21	43428.64
566.38	43842.92
566.54	43779.72
566.70	43533.96
566.87	43913.13
567.03	43597.16
567.19	43948.24
567.36	43454.39
567.52	43540.99
567.68	43770.36
567.85	43856.96
568.01	44081.65
568.17	43531.62
568.34	43761.00
568.50	43917.81
568.66	43768.02
568.83	43756.32
568.99	43655.67
569.15	44018.46
569.32	43557.37
569.48	43784.40
569.64	43929.51
569.81	43861.64
569.97	44229.10
570.13	44212.72
570.30	43782.06
570.46	44479.54
570.62	44060.58
570.78	43906.11
570.95	44053.56
571.11	44573.16
571.27	43920.15
571.43	44105.06
571.60	43931.86
571.76	44027.82
571.92	44093.35
572.09	44395.28
572.25	44093.35
572.41	44130.80
572.57	44119.10
572.74	44552.10
572.90	43871.00
573.06	44257.19
573.22	44266.55
573.38	43990.37
573.55	44194.00
573.71	44601.25
573.87	44425.71
574.03	44275.91
574.20	44491.24
574.36	44137.82
574.52	44573.16
574.68	44519.33
574.84	44545.08
575.01	44582.52
575.17	44596.57
575.33	44477.20
575.49	44154.21
575.65	44414.01
575.82	44540.39
575.98	44285.28
576.14	44561.46
576.30	44519.33
576.46	44746.36
576.62	44463.16
576.79	44662.10
576.95	44172.93
577.11	43655.67
577.27	44238.47
577.43	44591.89
577.59	44343.79
577.75	44388.26
577.92	43889.73
578.08	44435.07
578.24	44442.09
578.40	44507.63
578.56	44229.10
578.72	44533.37
578.88	44549.76
579.04	44463.16
579.21	44254.85
579.37	44425.71
579.53	44465.50
579.69	44346.13
579.85	44610.61
580.01	44477.20
580.17	44598.91
580.33	44699.55
580.49	44570.82
580.65	44694.87
580.82	44563.80
580.98	44493.58
581.14	44397.62
581.30	44500.61
581.46	44488.90
581.62	44612.95
581.78	44357.83
581.94	44811.90
582.10	44194.00
582.26	44580.18
582.42	44638.70
582.58	44479.54
582.74	44648.06
582.90	44524.01
583.06	44959.35
583.22	44629.34
583.38	44718.28
583.54	44315.70
583.70	44734.66
583.86	44931.26
584.02	44519.33
584.18	45057.65
584.34	44648.06
584.50	44783.81
584.66	44645.72
584.82	44521.67
584.98	44758.06
585.14	45202.77
585.30	44254.85
585.46	44502.95
585.62	44648.06
585.78	44748.70
585.94	44694.87
586.10	44329.75
586.26	44531.03
586.42	44385.92
586.58	44830.62
586.74	44516.99
586.90	44524.01
587.06	44804.88
587.22	44769.77
587.38	44868.07
587.54	44954.67
587.70	44797.85
587.86	45272.98
588.02	44617.63
588.18	44832.96
588.34	44825.94
588.49	45083.40
588.65	44598.91
588.81	44921.90
588.97	45158.30
589.13	44856.37
589.29	45170.00
589.45	44907.86
589.61	45078.72
589.77	45022.54
589.93	44814.24
590.08	44767.43
590.24	44966.37
590.40	45347.88
590.56	45074.04
590.72	45092.76
590.88	45235.53
591.04	45158.30
591.20	45303.41
591.35	45301.07
591.51	45415.76
591.67	45312.77
591.83	45500.01
591.99	45301.07
592.15	44957.01
592.31	44786.15
592.46	45193.40
592.62	44811.90
592.78	45511.72
592.94	45308.09
593.10	45497.67
593.26	45701.30
593.41	45617.04
593.57	45478.95
593.73	45460.23
593.89	45780.88
594.05	45708.32
594.20	45373.63
594.36	46028.98
594.52	45385.33
594.68	45427.46
594.84	45462.57
594.99	45603.00
595.15	45542.14
595.31	45326.81
595.47	45600.66
595.62	45619.38
595.78	45050.63
595.94	45551.51
596.10	45380.65
596.25	45205.11
596.41	45673.21
596.57	45305.75
596.73	45790.24
596.88	45588.95
597.04	45411.07
597.20	45635.77
597.36	45399.37
597.51	45792.58
597.67	45902.59
597.83	45485.97
597.99	45317.45
598.14	45287.03
598.30	45478.95
598.46	45275.32
598.61	45556.19
598.77	45532.78
598.93	45308.09
599.09	45830.03
599.24	45357.24
599.40	45511.72
599.56	45539.80
599.71	45839.39
599.87	46101.53
600.03	45947.06
600.18	45790.24
600.34	45296.39
600.50	45619.38
600.65	45457.88
600.81	45750.45
600.97	45350.22
601.12	45666.19
601.28	45698.96
601.44	45628.74
601.59	45530.44
601.75	45815.99
601.91	45954.08
602.06	45748.11
602.22	46157.70
602.37	45944.72
602.53	45586.61
602.69	45586.61
602.84	44994.46
603.00	45603.00
603.16	45523.42
603.31	45551.51
603.47	45869.82
603.62	45675.55
603.78	45724.71
603.94	45663.85
604.09	45666.19
604.25	45715.34
604.40	45680.24
604.56	45511.72
604.71	45900.25
604.87	45237.87
605.03	45567.89
605.18	45525.76
605.34	45698.96
605.49	45375.97
605.65	45811.31
605.80	45333.84
605.96	45151.27
606.12	45179.36
606.27	45572.57
606.43	45450.86
606.58	45563.21
606.74	45200.43
606.89	45682.58
607.05	45925.99
607.20	45862.80
607.36	45364.26
607.51	45605.34
607.67	45366.60
607.82	45174.68
607.98	45551.51
608.13	45549.17
608.29	44966.37
608.44	45338.52
608.60	45242.56
608.75	45502.35
608.91	45312.77
609.06	45397.03
609.22	45853.44
609.37	45078.72
609.53	45677.90
609.68	45560.87
609.84	45261.28
609.99	45034.25
610.15	45481.29
610.30	45254.26
610.46	45181.70
610.61	45177.02
610.76	45708.32
610.92	45535.12
611.07	45076.38
611.23	44884.45
611.38	44935.95
611.54	45394.69
611.69	45441.50
611.84	45263.62
612.00	44987.44
612.15	45071.70
612.31	45270.64
612.46	44790.83
612.62	44973.39
612.77	44839.98
612.92	45488.31
613.08	44870.41
613.23	45272.98
613.39	44694.87
613.54	44751.04
613.69	44872.75
613.85	44919.56
614.00	44727.64
614.15	45654.49
614.31	44147.18
614.46	44683.17
614.62	44814.24
614.77	44722.96
614.92	44973.39
615.08	44814.24
615.23	44865.73
615.38	45041.27
615.54	44842.32
615.69	45162.98
615.84	44877.43
616.00	44811.90
616.15	44666.78
616.30	45013.18
616.46	44776.79
616.61	44942.97
616.76	44626.99
616.92	44594.23
617.07	44449.11
617.22	44533.37
617.37	43812.49
617.53	44713.59
617.68	44371.88
617.83	44224.42
617.99	44233.78
618.14	45083.40
618.29	44430.39
618.45	44446.77
618.60	44126.12
618.75	44170.59
618.90	44252.51
619.06	44343.79
619.21	44360.17
619.36	44659.76
619.51	44004.41
619.67	44011.43
619.82	44116.76
619.97	44521.67
620.12	44339.11
620.28	44570.82
620.43	44584.86
620.58	44250.17
620.73	44470.18
620.89	44711.25
621.04	44252.51
621.19	44222.08
621.34	44144.84
621.49	44018.46
621.65	44086.33
621.80	44341.45
621.95	44231.44
622.10	44112.08
622.25	43906.11
622.41	44156.55
622.56	44285.28
622.71	43639.29
622.86	44114.42
623.01	44076.97
623.16	43849.94
623.32	43826.53
623.47	43838.23
623.62	43697.80
623.77	43938.88
623.92	44011.43
624.07	43908.45
624.23	43875.68
624.38	44105.06
624.53	43906.11
624.68	43168.84
624.83	43772.70
624.98	43702.48
625.13	43419.28
625.29	43557.37
625.44	43746.95
625.59	43674.40
625.74	43466.09
625.89	42953.51
626.04	43239.06
626.19	43227.35
626.34	43335.02
626.49	43187.56
626.65	43386.51
626.80	43311.61
626.95	42990.96
627.10	42871.59
627.25	42997.98
627.40	42944.15
627.55	42649.24
627.70	43009.68
627.85	43168.84
628.00	42604.77
628.15	42841.17
628.30	42667.97
628.45	42930.11
628.60	43068.20
628.76	42845.85
628.91	42761.59
629.06	42560.30
629.21	42506.47
629.36	42351.99
629.51	42635.20
629.66	43199.27
629.81	42965.21
629.96	43051.81
630.11	42707.76
630.26	42951.17
630.41	42600.09
630.56	42696.05
630.71	42359.02
630.86	42293.48
631.01	42827.12
631.16	42277.10
631.31	42237.31
631.46	42204.54
631.61	42993.30
631.76	42305.18
631.91	42696.05
632.06	43215.65
632.21	42560.30
632.36	42801.38
632.51	41977.51
632.66	42492.43
632.81	41996.23
632.96	42279.44
633.10	42305.18
633.25	42101.56
633.40	42550.94
633.55	42674.99
633.70	42234.97
633.85	41933.04
634.00	42047.72
634.15	41851.12
634.30	42148.37
634.45	41902.61
634.60	41944.74
634.75	42181.13
634.90	42021.98
635.05	42129.64
635.19	41897.93
635.34	41823.03
635.49	41972.83
635.64	42564.98
635.79	42120.28
635.94	41713.03
636.09	42206.88
636.24	41942.40
636.39	41373.65
636.53	41546.85
636.68	41776.22
636.83	41373.65
636.98	41820.69
637.13	41408.76
637.28	41619.41
637.43	41816.01
637.57	41635.79
637.72	41015.55
637.87	41509.40
638.02	41670.90
638.17	41694.30
638.32	41275.35
638.46	41446.21
638.61	40823.62
638.76	41296.41
638.91	41425.14
639.06	41221.52
639.20	40783.83
639.35	41280.03
639.50	41287.05
639.65	41371.31
639.80	41584.30
639.94	41577.28
640.09	41167.68
640.24	41216.83
640.39	40959.38
640.54	40669.15
640.68	41144.28
640.83	41172.36
640.98	40896.18
641.13	40636.38
641.27	40973.42
641.42	40779.15
641.57	41174.70
641.72	41050.66
641.86	40947.67
642.01	40547.44
642.16	40620.00
642.31	40390.62
642.45	41155.98
642.60	40678.51
642.75	40439.78
642.90	41029.59
643.04	40807.24
643.19	40828.30
643.34	40194.02
643.48	40142.53
643.63	40507.65
643.78	40369.56
643.93	40587.23
644.07	40772.13
644.22	40730.00
644.37	40367.22
644.51	40535.74
644.66	40580.21
644.81	40739.36
644.95	40535.74
645.10	40121.46
645.25	40032.52
645.39	40046.57
645.54	40231.47
645.69	39866.34
645.83	40072.31
645.98	39793.79
646.13	40128.48
646.27	40004.44
646.42	39751.66
646.57	40568.51
646.71	40404.67
646.86	40353.18
647.00	40439.78
647.15	40285.30
647.30	40135.51
647.44	40076.99
647.59	39955.29
647.74	40016.14
647.88	39639.31
648.03	40011.46
648.17	40289.98
648.32	40114.44
648.47	40292.32
648.61	39728.25
648.76	39969.33
648.90	39681.44
649.05	39847.62
649.20	39901.45
649.34	40156.57
649.49	39995.07
649.63	39821.87
649.78	39920.18
649.92	39674.42
650.07	40346.15
650.21	39725.91
650.36	39807.83
650.51	39330.36
650.65	39679.10
650.80	39505.90
650.94	39658.04
651.09	39580.80
651.23	39218.02
651.38	38728.84
651.52	39143.12
651.67	39290.57
651.81	39267.17
651.96	39381.85
652.10	39246.10
652.25	39054.18
652.39	38904.38
652.54	39304.62
652.68	39241.42
652.83	39182.91
652.97	39236.74
653.12	38986.30
653.26	39122.05
653.41	39131.42
653.55	39206.31
653.70	39115.03
653.84	39522.29
653.99	38866.94
654.13	39313.98
654.27	38909.07
654.42	39016.73
654.56	38572.03
654.71	39328.02
654.85	39229.72
655.00	38728.84
655.14	38843.53
655.29	38721.82
655.43	39084.61
655.57	38902.04
655.72	38270.10
655.86	38799.06
656.01	38726.50
656.15	38307.55
656.30	38167.12
656.44	38190.52
656.58	38382.45
656.73	38866.94
656.87	38199.88
657.01	38543.94
657.16	38562.67
657.30	38150.73
657.45	38539.26
657.59	38036.05
657.73	37933.06
657.88	38302.87
658.02	38651.61
658.16	38349.68
658.31	37935.40
658.45	38321.59
658.60	37989.24
658.74	38380.10
658.88	38469.04
659.03	37991.58
659.17	37778.59
659.31	37893.27
659.46	37607.73
659.60	38010.30
659.74	37612.41
659.89	37427.51
660.03	37226.22
660.17	37603.05
660.32	37846.46
660.46	37422.83
660.60	37528.15
660.74	37617.09
660.89	37352.61
661.03	37539.85
661.17	36685.56
661.32	37317.50
661.46	37230.90
661.60	37020.25
661.74	36989.83
661.89	37027.28
662.03	37296.44
662.17	36863.44
662.31	36982.80
662.46	37106.85
662.60	36648.11
662.74	36484.27
662.88	35929.56
663.03	36332.14
663.17	36364.90
663.31	36369.58
663.45	36584.91
663.60	36421.08
663.74	36451.50
663.88	35997.44
664.02	36172.98
664.17	36484.27
664.31	35875.73
664.45	36142.55
664.59	36016.16
664.73	36055.95
664.88	35952.97
665.02	35927.22
665.16	35857.01
665.30	35697.85
665.44	35941.27
665.59	35587.85
665.73	35431.03
665.87	35187.61
666.01	35475.50
666.15	35302.30
666.29	35379.54
666.44	35503.59
666.58	35278.89
666.72	35054.20
666.86	35529.33
667.00	35030.80
667.14	35314.00
667.28	34974.63
667.43	35023.78
667.57	35257.83
667.71	35285.92
667.85	35452.09
667.99	35005.05
668.13	34579.07
668.27	34586.10
668.41	34873.98
668.56	34363.75
668.70	34588.44
668.84	34520.56
668.98	34256.08
669.12	34398.85
669.26	34267.78
669.40	34089.90
669.54	34220.97
669.68	34366.09
669.82	34153.10
669.96	33944.79
670.10	33659.24
670.25	33624.14
670.39	33699.03
670.53	33823.08
670.67	33776.27
670.81	33799.68
670.95	33738.82
671.09	33565.62
671.23	33776.27
671.37	33647.54
671.51	33015.60
671.65	33439.23
671.79	33464.98
671.93	33614.77
672.07	33551.58
672.21	33149.01
672.35	32713.67
672.49	32833.04
672.63	33024.96
672.77	32730.05
672.91	33146.67
673.05	32594.30
673.19	32793.25
673.33	32397.70
673.47	32491.32
673.61	32229.18
673.75	31915.54
673.89	32074.70
674.03	31915.54
674.17	31854.69
674.31	31742.35
674.45	31903.84
674.59	31641.70
674.73	31688.51
674.87	31339.77
675.01	31426.37
675.15	31578.51
675.29	31292.96
675.43	31253.17
675.56	31800.86
675.70	31168.91
675.84	31063.59
675.98	30015.03
676.12	30471.43
676.26	31009.76
676.40	30412.92
676.54	30857.62
676.68	30576.76
676.82	30211.64
676.96	30370.79
677.10	30033.75
677.23	30436.33
677.37	30185.89
677.51	30244.40
677.65	30075.88
677.79	29818.42
677.93	29893.32
678.07	29834.81
678.21	29392.45
678.34	29228.61
678.48	29523.52
678.62	29539.90
678.76	29116.26
678.90	28819.02
679.04	29198.18
679.18	29191.16
679.31	28999.24
679.45	28903.28
679.59	28833.06
679.73	28648.16
679.87	28800.29
680.00	28765.18
680.14	28325.16
680.28	28222.18
680.42	28318.14
680.56	28166.01
680.70	27758.75
680.83	27871.10
680.97	27894.50
681.11	27983.44
681.25	27564.49
681.39	27440.44
681.52	27662.79
681.66	27138.51
681.80	26759.34
681.94	26705.51
682.07	26892.76
682.21	27021.48
682.35	26682.11
682.49	26658.70
682.62	26700.83
682.76	26649.34
682.90	26707.85
683.04	26632.96
683.17	26637.64
683.31	26239.75
683.45	25935.48
683.59	25823.13
683.72	25858.24
683.86	25642.91
684.00	25586.74
684.13	25837.17
684.27	25832.49
684.41	25472.05
684.55	25617.16
684.68	25539.93
684.82	24907.98
684.96	24758.19
685.09	25240.34
685.23	24879.89
685.37	25287.15
685.50	25392.47
685.64	24603.71
685.78	24652.86
685.91	24762.87
686.05	24105.18
686.19	24020.92
686.32	24175.39
686.46	23667.50
686.60	23964.75
686.73	23917.93
686.87	23515.36
687.01	23819.63
687.14	23899.21
687.28	23728.35
687.42	23398.34
687.55	23548.13
687.69	23531.75
687.82	23154.92
687.96	22977.04
688.10	23342.16
688.23	23360.89
688.37	23407.70
688.50	23215.77
688.64	22895.12
688.78	22824.90
688.91	22553.40
689.05	22658.73
689.18	22544.04
689.32	22457.44
689.46	22621.28
689.59	22139.13
689.73	21912.10
689.86	22359.14
690.00	22480.85
690.13	22132.11
690.27	21654.64
690.41	21825.50
690.54	21308.24
690.68	21743.58
690.81	21589.10
690.95	21153.76
691.08	20954.82
691.22	21266.11
691.35	21315.26
691.49	21106.95
691.62	20847.15
691.76	20505.43
691.89	20620.12
692.03	20608.42
692.16	20411.81
692.30	20269.04
692.43	20732.47
692.57	20215.21
692.70	20283.08
692.84	20182.44
692.97	19946.05
693.11	19880.51
693.24	19761.14
693.38	19819.66
693.51	19571.56
693.65	19445.17
693.78	19227.50
693.92	19283.67
694.05	18986.43
694.19	18857.70
694.32	19342.19
694.45	19351.55
694.59	19344.53
694.72	19440.49
694.86	18841.31
694.99	18735.99
695.13	18539.38
695.26	18588.53
695.39	18429.38
695.53	18448.10
695.66	18232.77
695.80	17984.68
695.93	18239.79
696.07	18148.51
696.20	17795.09
696.33	17804.46
696.47	17736.58
696.60	17621.89
696.73	17621.89
696.87	17603.17
697.00	17692.11
697.14	17759.98
697.27	17397.20
697.40	17298.90
697.54	17303.58
697.67	17043.78
697.80	17174.85
697.94	17078.89
698.07	17095.27
698.21	16870.58
698.34	16491.41
698.47	16638.87
698.61	16521.84
698.74	16400.13
698.87	16280.77
699.01	16159.06
699.14	16266.72
699.27	16098.20
699.40	16170.76
699.54	16027.99
699.67	16077.14
699.80	15934.37
699.94	15861.81
700.07	15866.49
700.20	15758.83
700.34	15496.69
700.47	15625.42
700.60	15529.45
700.73	15878.19
700.87	15339.87
701.00	15131.56
701.13	15056.67
701.26	15042.62
701.40	15126.88
701.53	14995.81
701.66	14974.75
701.79	14913.89
701.93	14679.84
702.06	14291.31
702.19	14445.79
702.32	14415.36
702.46	14714.95
702.59	14532.39
702.72	14445.79
702.85	14525.36
702.99	14075.98
703.12	14197.69
703.25	14136.84
703.38	13989.38
703.51	14066.62
703.65	13965.98
703.78	13547.02
703.91	13642.98
704.04	13479.15
704.17	13458.08
704.31	13694.47
704.44	13406.59
704.57	13378.50
704.70	13348.08
704.83	13022.74
704.96	13254.45
705.10	13001.68
705.23	13170.19
>>>>>End Processed Spectral Data<<<<<
