SpectraSuite Data File
++++++++++++++++++++++++++++++++++++
Date: Fri Oct 25 11:34:20 EDT 2013
User: price-jones
Dark Spectrum Present: No
Reference Spectrum Present: No
Number of Sampled Component Spectra: 1
Spectrometers: USB2+H05261
Integration Time (usec): 100000 (USB2+H05261)
Spectra Averaged: 1 (USB2+H05261)
Boxcar Smoothing: 0 (USB2+H05261)
Correct for Electrical Dark: No (USB2+H05261)
Strobe/Lamp Enabled: No (USB2+H05261)
Correct for Detector Non-linearity: No (USB2+H05261)
Correct for Stray Light: No (USB2+H05261)
Number of Pixels in Processed Spectrum: 2048
>>>>>Begin Processed Spectral Data<<<<<
365.73	367.46
365.92	367.46
366.12	367.46
366.32	278.52
366.52	114.69
366.72	152.13
366.91	173.20
367.11	196.60
367.31	173.20
367.51	147.45
367.70	217.67
367.90	135.75
368.10	173.20
368.30	187.24
368.49	140.43
368.69	175.54
368.89	220.01
369.09	234.05
369.28	175.54
369.48	182.56
369.68	220.01
369.87	248.10
370.07	262.14
370.27	245.76
370.47	278.52
370.66	528.96
370.86	444.70
371.06	519.60
371.25	526.62
371.45	545.34
371.65	620.24
371.84	519.60
372.04	557.05
372.24	589.82
372.44	554.71
372.63	547.69
372.83	613.22
373.03	587.47
373.22	587.47
373.42	655.35
373.62	638.97
373.81	634.29
374.01	624.92
374.21	648.33
374.40	624.92
374.60	629.60
374.79	617.90
374.99	669.39
375.19	587.47
375.38	706.84
375.58	697.48
375.78	662.37
375.97	676.41
376.17	617.90
376.37	638.97
376.56	674.07
376.76	685.78
376.95	744.29
377.15	587.47
377.35	664.71
377.54	674.07
377.74	765.36
377.93	720.88
378.13	723.23
378.33	734.93
378.52	746.63
378.72	734.93
378.91	784.08
379.11	777.06
379.31	739.61
379.50	720.88
379.70	720.88
379.89	819.19
380.09	664.71
380.28	669.39
380.48	767.70
380.68	826.21
380.87	655.35
381.07	718.54
381.26	786.42
381.46	631.94
381.65	711.52
381.85	713.86
382.04	791.10
382.24	734.93
382.43	753.65
382.63	741.95
382.83	777.06
383.02	798.12
383.22	847.27
383.41	821.53
383.61	732.59
383.80	781.74
384.00	676.41
384.19	744.29
384.39	805.14
384.58	814.51
384.78	788.76
384.97	823.87
385.17	767.70
385.36	840.25
385.56	826.21
385.75	800.46
385.95	842.59
386.14	772.38
386.34	807.48
386.53	784.08
386.72	774.72
386.92	880.04
387.11	849.61
387.31	875.36
387.50	933.87
387.70	849.61
387.89	856.64
388.09	889.40
388.28	821.53
388.48	980.68
388.67	903.45
388.86	856.64
389.06	884.72
389.25	912.81
389.45	917.49
389.64	987.71
389.84	947.92
390.03	954.94
390.22	854.30
390.42	933.87
390.61	1025.15
390.81	901.11
391.00	1006.43
391.19	1090.69
391.39	992.39
391.58	997.07
391.78	1018.13
391.97	994.73
392.16	1062.60
392.36	1036.86
392.55	1093.03
392.75	1022.81
392.94	992.39
393.13	1029.84
393.33	1004.09
393.52	1107.07
393.71	1071.97
393.91	1025.15
394.10	1027.50
394.29	1039.20
394.49	1097.71
394.68	1102.39
394.88	1130.48
395.07	1104.73
395.26	1062.60
395.46	1043.88
395.65	1095.37
395.84	1102.39
396.04	1238.14
396.23	1219.42
396.42	1174.95
396.62	1181.97
396.81	1135.16
397.00	1109.41
397.19	1214.74
397.39	1172.61
397.58	1289.64
397.77	1214.74
397.97	1238.14
398.16	1277.93
398.35	1287.29
398.55	1266.23
398.74	1282.61
398.93	1294.32
399.12	1268.57
399.32	1245.16
399.51	1261.55
399.70	1329.42
399.90	1378.58
400.09	1334.11
400.28	1357.51
400.47	1448.79
400.67	1366.87
400.86	1462.83
401.05	1371.55
401.24	1437.09
401.44	1437.09
401.63	1355.17
401.82	1418.36
402.01	1516.67
402.21	1420.71
402.40	1446.45
402.59	1385.60
402.78	1383.26
402.97	1362.19
403.17	1444.11
403.36	1500.28
403.55	1476.88
403.74	1528.37
403.93	1554.12
404.13	1572.84
404.32	1570.50
404.51	1668.80
404.70	1490.92
404.89	1544.75
405.09	1643.06
405.28	1682.85
405.47	1542.41
405.66	1668.80
405.85	1666.46
406.05	1603.27
406.24	1748.38
406.43	1654.76
406.62	1732.00
406.81	1900.52
407.00	1657.10
407.20	1743.70
407.39	1795.19
407.58	1792.85
407.77	1717.95
407.96	1823.28
408.15	1774.13
408.34	1769.44
408.54	1888.81
408.73	1907.54
408.92	1907.54
409.11	1949.67
409.30	1942.64
409.49	1998.82
409.68	1879.45
409.87	1961.37
410.07	2104.14
410.26	2099.46
410.45	2050.31
410.64	2005.84
410.83	2010.52
411.02	2064.35
411.21	2101.80
411.40	2019.88
411.59	2062.01
411.78	2132.23
411.98	2045.63
412.17	2157.97
412.36	2209.47
412.55	2148.61
412.74	2258.62
412.93	2279.68
413.12	2293.72
413.31	2473.95
413.50	2359.26
413.69	2284.36
413.88	2413.09
414.07	2413.09
414.26	2319.47
414.45	2471.61
414.64	2441.18
414.83	2574.59
415.02	2520.76
415.22	2616.72
415.41	2574.59
415.60	2586.29
415.79	2546.50
415.98	2731.41
416.17	2640.12
416.36	2614.38
416.55	2738.43
416.74	2757.15
416.93	2658.85
417.12	2813.32
417.31	2841.41
417.50	2754.81
417.69	2874.18
417.88	2862.48
418.07	2888.22
418.26	2738.43
418.45	2939.71
418.64	3045.04
418.83	2897.58
419.02	2928.01
419.21	3049.72
419.39	3131.64
419.58	2949.08
419.77	3052.06
419.96	2965.46
420.15	3059.08
420.34	3047.38
420.53	3105.89
420.72	3166.74
420.91	3162.06
421.10	3101.21
421.29	3166.74
421.48	3131.64
421.67	3162.06
421.86	3197.17
422.05	3232.28
422.24	3110.57
422.43	3311.86
422.61	3206.53
422.80	3358.67
422.99	3346.97
423.18	3318.88
423.37	3382.07
423.56	3314.20
423.75	3311.86
423.94	3197.17
424.13	3122.27
424.32	3110.57
424.50	3403.14
424.69	3358.67
424.88	3438.25
425.07	3300.16
425.26	3211.22
425.45	3246.32
425.64	3286.11
425.83	3368.03
426.01	3300.16
426.20	3459.31
426.39	3485.06
426.58	3339.94
426.77	3356.33
426.96	3419.52
427.15	3438.25
427.33	3487.40
427.52	3566.98
427.71	3473.36
427.90	3492.08
428.09	3550.59
428.28	3721.45
428.46	3499.10
428.65	3468.67
428.84	3555.27
429.03	3672.30
429.22	3639.53
429.40	3665.28
429.59	3667.62
429.78	3597.40
429.97	3480.38
430.16	3604.42
430.34	3637.19
430.53	3672.30
430.72	3679.32
430.91	3733.15
431.10	3665.28
431.28	3941.46
431.47	3934.44
431.66	3836.14
431.85	3871.25
432.03	3847.84
432.22	4042.11
432.41	3887.63
432.60	3932.10
432.79	3978.91
432.97	4063.17
433.16	3915.72
433.35	4028.06
433.54	4056.15
433.72	4004.66
433.91	3953.16
434.10	4011.68
434.28	4049.13
434.47	3962.53
434.66	4252.75
434.85	4271.48
435.03	4194.24
435.22	4109.98
435.41	4285.52
435.59	4299.56
435.78	4173.18
435.97	4273.82
436.16	4255.09
436.34	4231.69
436.53	4327.65
436.72	4423.61
436.90	4269.14
437.09	4397.87
437.28	4304.25
437.46	4334.67
437.65	4435.32
437.84	4444.68
438.02	4409.57
438.21	4627.24
438.40	4348.72
438.58	4615.54
438.77	4559.36
438.96	4662.35
439.14	4727.88
439.33	4725.54
439.52	4678.73
439.70	4730.22
439.89	4877.68
440.08	4823.84
440.26	4945.55
440.45	4812.14
440.63	5029.81
440.82	4926.83
441.01	4959.60
441.19	4964.28
441.38	5011.09
441.57	5158.54
441.75	5093.01
441.94	5275.57
442.12	5233.44
442.31	5219.39
442.50	5228.76
442.68	5219.39
442.87	5364.51
443.05	5413.66
443.24	5320.04
443.43	5416.00
443.61	5540.05
443.80	5472.17
443.98	5282.59
444.17	5287.27
444.35	5371.53
444.54	5554.09
444.73	5394.93
444.91	5401.96
445.10	5430.04
445.28	5493.24
445.47	5373.87
445.65	5497.92
445.84	5469.83
446.02	5380.89
446.21	5472.17
446.39	5380.89
446.58	5528.35
446.77	5621.97
446.95	5427.70
447.14	5483.88
447.32	5680.48
447.51	5584.52
447.69	5514.30
447.88	5619.63
448.06	5551.75
448.25	5647.71
448.43	5561.11
448.62	5643.03
448.80	5540.05
448.99	5528.35
449.17	5694.52
449.36	5746.02
449.54	5757.72
449.73	5928.58
449.91	5898.15
450.10	5799.85
450.28	5942.62
450.46	5802.19
450.65	5905.17
450.83	5846.66
451.02	5841.98
451.20	5949.64
451.39	5947.30
451.57	5980.07
451.76	5944.96
451.94	5991.77
452.13	6335.83
452.31	6181.35
452.49	5930.92
452.68	6069.01
452.86	6101.78
453.05	6111.14
453.23	6216.46
453.42	6129.86
453.60	6017.52
453.78	6153.27
453.97	6033.90
454.15	6176.67
454.34	6106.46
454.52	6375.62
454.70	6480.94
454.89	6399.02
455.07	6307.74
455.26	6462.22
455.44	6438.81
455.62	6520.73
455.81	6534.78
455.99	6586.27
456.17	6539.46
456.36	6551.16
456.54	6604.99
456.73	6675.21
456.91	6825.00
457.09	6850.75
457.28	6839.05
457.46	6661.16
457.64	6913.94
457.83	6825.00
458.01	6871.81
458.19	7042.67
458.38	6897.56
458.56	7012.24
458.74	7028.63
458.93	7016.93
459.11	6951.39
459.29	6869.47
459.48	6974.80
459.66	6988.84
459.84	7314.17
460.03	7094.16
460.21	7185.44
460.39	7201.83
460.57	7332.90
460.76	7091.82
460.94	7208.85
461.12	7255.66
461.31	7232.26
461.49	7262.68
461.67	7276.73
461.85	7396.09
462.04	7435.88
462.22	7793.98
462.40	7461.63
462.59	7466.31
462.77	7595.04
462.95	7627.81
463.13	7529.50
463.32	7595.04
463.50	7627.81
463.68	7651.21
463.86	7878.24
464.05	7442.90
464.23	7412.48
464.41	7798.66
464.59	7545.89
464.78	8028.04
464.96	7768.24
465.14	7637.17
465.32	7768.24
465.50	7819.73
465.69	7936.76
465.87	7868.88
466.05	7868.88
466.23	8070.17
466.41	8032.72
466.60	8128.68
466.78	7817.39
466.96	7960.16
467.14	7768.24
467.32	7918.03
467.51	8051.44
467.69	7939.10
467.87	7941.44
468.05	8140.38
468.23	8004.63
468.41	8184.85
468.60	7915.69
468.78	8234.00
468.96	8138.04
469.14	8285.50
469.32	8198.90
469.50	7999.95
469.69	8372.10
469.87	8517.21
470.05	8404.86
470.23	8512.53
470.41	8470.40
470.59	8643.60
470.77	8477.42
470.95	8549.98
471.14	8751.26
471.32	8517.21
471.50	8760.63
471.68	8702.11
471.86	8667.00
472.04	8865.95
472.22	9088.30
472.40	8688.07
472.58	9006.38
472.77	9022.77
472.95	9048.51
473.13	9249.80
473.31	9135.11
473.49	8987.66
473.67	9233.41
473.85	9170.22
474.03	9437.04
474.21	9296.61
474.39	9425.34
474.57	9497.89
474.75	9694.50
474.93	9600.88
475.12	9638.33
475.30	9832.59
475.48	9369.16
475.66	9652.37
475.84	9832.59
476.02	10054.94
476.20	9848.97
476.38	9804.50
476.56	10153.24
476.74	10092.39
476.92	10064.30
477.10	10246.87
477.28	10326.44
477.46	10436.45
477.64	10406.02
477.82	10616.67
478.00	10616.67
478.18	10731.36
478.36	10860.09
478.54	10972.43
478.72	10871.79
478.90	11178.40
479.08	11169.04
479.26	11171.38
479.44	11117.54
479.62	11346.92
479.80	11515.44
479.98	11662.89
480.16	11868.86
480.34	11571.61
480.52	12035.03
480.70	11960.14
480.88	11634.80
481.06	12152.06
481.24	12025.67
481.41	12280.79
481.59	12381.43
481.77	12446.97
481.95	12381.43
482.13	12559.31
482.31	12411.86
482.49	13071.89
482.67	12945.50
482.85	12961.89
483.03	13184.24
483.21	13114.02
483.39	13107.00
483.57	13128.06
483.74	13444.04
483.92	13518.93
484.10	13497.87
484.28	13907.46
484.46	13998.74
484.64	14136.84
484.82	14183.65
485.00	14108.75
485.18	14197.69
485.35	14569.83
485.53	14424.72
485.71	14679.84
485.89	14970.07
486.07	14768.78
486.25	15138.58
486.43	14991.13
486.61	15213.48
486.78	15300.08
486.96	15133.90
487.14	15583.29
487.32	15585.63
487.50	15541.16
487.68	15616.05
487.85	15983.52
488.03	16348.64
488.21	16627.17
488.39	16278.43
488.57	16348.64
488.75	16376.73
488.92	16554.61
489.10	16994.63
489.28	16858.88
489.46	17114.00
489.64	16903.35
489.81	17490.82
489.99	17373.80
490.17	17390.18
490.35	17701.47
490.53	17682.75
490.70	17965.95
490.88	17818.50
491.06	18080.64
491.24	18335.76
491.41	18478.53
491.59	18412.99
491.77	18530.02
491.95	18970.04
492.13	19040.26
492.30	18719.60
492.48	18752.37
492.66	19229.84
492.84	19208.78
493.01	19168.99
493.19	19360.91
493.37	19351.55
493.54	19836.04
493.72	19957.75
493.90	20072.43
494.08	20051.37
494.25	20247.97
494.43	20407.13
494.61	20271.38
494.79	20482.03
494.96	20250.32
495.14	20666.93
495.32	21095.25
495.49	20903.32
495.67	21071.84
495.85	21383.13
496.02	21418.24
496.20	21497.82
496.38	21769.32
496.55	21788.05
496.73	22150.83
496.91	21855.92
497.09	22164.87
497.26	22047.85
497.44	22579.15
497.62	22429.35
497.79	22342.75
497.97	22483.19
498.14	22586.17
498.32	22864.69
498.50	22745.33
498.67	23293.01
498.85	23159.60
499.03	23058.96
499.20	23360.89
499.38	23534.09
499.56	23527.06
499.73	23417.06
499.91	23623.03
500.08	23999.85
500.26	23831.33
500.44	23976.45
500.61	23903.89
500.79	23786.86
500.97	24133.26
501.14	24603.71
501.32	24334.55
501.49	24435.19
501.67	24362.64
501.84	24353.27
502.02	24690.31
502.20	24669.25
502.37	24575.62
502.55	24641.16
502.72	24706.70
502.90	25017.99
503.07	24835.42
503.25	25301.19
503.43	24910.32
503.60	25378.43
503.78	25450.99
503.95	25294.17
504.13	25298.85
504.30	26214.00
504.48	25680.36
504.65	25703.76
504.83	25923.77
505.01	26155.49
505.18	25942.50
505.36	26204.64
505.53	25982.29
505.71	26389.54
505.88	26438.69
506.06	26125.06
506.23	26778.07
506.41	26586.15
506.58	26389.54
506.76	26679.77
506.93	26995.74
507.11	27091.70
507.28	26969.99
507.46	27178.30
507.63	27510.66
507.81	27225.11
507.98	27108.08
508.16	27407.67
508.33	27611.30
508.50	27793.86
508.68	27470.87
508.85	27625.34
509.03	27864.08
509.20	27885.14
509.38	28402.40
509.55	28011.53
509.73	27948.34
509.90	28285.37
510.08	28458.57
510.25	28467.94
510.42	28268.99
510.60	28802.63
510.77	29027.32
510.95	29132.65
511.12	28842.42
511.30	29085.84
511.47	29067.11
511.64	28971.15
511.82	29139.67
511.99	28926.68
512.17	29483.73
512.34	29294.14
512.51	29731.83
512.69	29935.45
512.86	29483.73
513.04	29654.59
513.21	29993.97
513.38	30068.86
513.56	29928.43
513.73	30525.27
513.90	29839.49
514.08	29984.60
514.25	30335.68
514.43	30693.79
514.60	30412.92
514.77	30548.67
514.95	30431.65
515.12	30307.60
515.29	30731.23
515.47	30813.15
515.64	30815.49
515.81	30731.23
515.99	31187.64
516.16	31274.24
516.33	31061.25
516.51	31412.33
516.68	31337.43
516.85	31562.12
517.03	31454.46
517.20	31461.48
517.37	31468.50
517.54	31527.02
517.72	31688.51
517.89	31658.09
518.06	31576.17
518.24	31669.79
518.41	31597.23
518.58	31828.95
518.75	32142.58
518.93	32219.81
519.10	32095.77
519.27	31796.18
519.45	32100.45
519.62	32465.57
519.79	32573.24
519.96	32491.32
520.14	32872.82
520.31	32446.85
520.48	33001.55
520.65	32807.29
520.83	33188.80
521.00	33043.68
521.17	33408.81
521.34	32994.53
521.52	32966.45
521.69	33535.20
521.86	33205.18
522.03	33486.04
522.20	33757.55
522.38	34082.88
522.55	33567.96
522.72	33825.42
522.89	33928.41
523.07	34239.70
523.24	33600.73
523.41	34064.16
523.58	34066.50
523.75	34000.96
523.92	34277.15
524.10	34384.81
524.27	34307.57
524.44	34398.85
524.61	34742.91
524.78	34511.20
524.96	34756.96
525.13	34778.02
525.30	35171.23
525.47	34831.85
525.64	34754.61
525.81	34876.32
525.98	35194.64
526.16	34829.51
526.33	35019.10
526.50	35431.03
526.67	35314.00
526.84	35138.46
527.01	35290.60
527.18	34974.63
527.36	35473.16
527.53	35456.78
527.70	35861.69
527.87	35814.88
528.04	35468.48
528.21	36212.77
528.38	35531.67
528.55	35924.88
528.72	35585.50
528.89	35775.09
529.07	36072.34
529.24	35545.72
529.41	36343.84
529.58	36280.64
529.75	36252.56
529.92	36545.12
530.09	36687.90
530.26	36105.10
530.43	36636.41
530.60	35882.75
530.77	36175.32
530.94	36645.77
531.11	36247.88
531.28	36470.23
531.46	36573.21
531.63	36610.66
531.80	36704.28
531.97	36718.32
532.14	37158.34
532.31	37181.75
532.48	37301.12
532.65	37174.73
532.82	37207.50
532.99	37483.68
533.16	37263.67
533.33	37329.20
533.50	37640.50
533.67	37567.94
533.84	37368.99
534.01	37516.45
534.18	37591.34
534.35	37656.88
534.52	37518.79
534.69	37813.70
534.86	38078.18
535.03	37872.21
535.20	37963.49
535.37	38080.52
535.54	38176.48
535.71	37907.32
535.88	38195.20
536.05	38132.01
536.22	38361.38
536.38	38124.99
536.55	38312.23
536.72	38457.34
536.89	38227.97
537.06	38490.11
537.23	38705.44
537.40	38567.35
537.57	38546.28
537.74	38417.55
537.91	38529.90
538.08	39016.73
538.25	38373.08
538.42	38597.77
538.59	38897.36
538.75	38899.70
538.92	38827.15
539.09	39026.09
539.26	38841.19
539.43	38988.64
539.60	39175.89
539.77	39138.44
539.94	39318.66
540.11	39288.23
540.28	39849.96
540.44	39124.40
540.61	39208.65
540.78	39129.08
540.95	39674.42
541.12	39112.69
541.29	39423.98
541.46	39643.99
541.62	39679.10
541.79	39927.20
541.96	39405.26
542.13	38967.58
542.30	39941.24
542.47	40062.95
542.63	39894.43
542.80	40402.33
542.97	40552.12
543.14	40203.38
543.31	40151.89
543.48	39938.90
543.64	40582.55
543.81	40694.89
543.98	40278.28
544.15	40594.25
544.32	40517.01
544.48	40842.35
544.65	40624.68
544.82	40505.31
544.99	40318.07
545.16	40641.06
545.32	40612.98
545.49	40910.22
545.66	41567.91
545.83	40875.12
546.00	41116.19
546.16	41139.60
546.33	40690.21
546.50	40821.28
546.67	41315.14
546.83	40858.73
547.00	40961.72
547.17	41031.93
547.34	41118.53
547.50	41361.95
547.67	41642.81
547.84	41640.47
548.00	41174.70
548.17	41551.53
548.34	41720.05
548.51	41720.05
548.67	41652.17
548.84	41736.43
549.01	41635.79
549.18	41588.98
549.34	41968.15
549.51	41706.01
549.68	41727.07
549.84	41724.73
550.01	41776.22
550.18	41694.30
550.34	42148.37
550.51	42614.13
550.68	42019.64
550.84	41947.08
551.01	42178.79
551.18	41876.86
551.34	42029.00
551.51	42146.03
551.68	42445.62
551.84	42160.07
552.01	42471.36
552.18	42244.33
552.34	42478.38
552.51	43110.33
552.68	42403.49
552.84	42323.91
553.01	42955.85
553.18	42616.47
553.34	42560.30
553.51	42555.62
553.67	42541.58
553.84	42979.26
554.01	42796.70
554.17	42649.24
554.34	42473.70
554.51	43203.95
554.67	43374.81
554.84	42913.72
555.00	42990.96
555.17	42852.87
555.33	43166.50
555.50	43250.76
555.67	43091.60
555.83	43313.95
556.00	43414.60
556.16	43761.00
556.33	43007.34
556.50	43531.62
556.66	43416.94
556.83	43449.70
556.99	43391.19
557.16	43552.69
557.32	43735.25
557.49	43505.88
557.65	43445.02
557.82	43648.65
557.98	43812.49
558.15	43438.00
558.32	43683.76
558.48	43381.83
558.65	43810.15
558.81	43267.14
558.98	43447.36
559.14	43934.20
559.31	43789.08
559.47	43381.83
559.64	43749.29
559.80	43814.83
559.97	43782.06
560.13	43536.30
560.30	43758.66
560.46	43859.30
560.63	44048.88
560.79	44266.55
560.96	44322.72
561.12	44107.40
561.29	44252.51
561.45	44301.66
561.61	44282.94
561.78	44184.63
561.94	44107.40
562.11	44247.83
562.27	44196.34
562.44	44186.97
562.60	44327.41
562.77	44156.55
562.93	44149.53
563.10	44320.38
563.26	44451.45
563.42	44830.62
563.59	44130.80
563.75	44212.72
563.92	44182.29
564.08	44652.74
564.24	44648.06
564.41	44451.45
564.57	44561.46
564.74	44011.43
564.90	44882.11
565.07	44156.55
565.23	44718.28
565.39	44697.21
565.56	44959.35
565.72	44444.43
565.88	44760.40
566.05	44573.16
566.21	44605.93
566.38	44638.70
566.54	44580.18
566.70	44289.96
566.87	44552.10
567.03	44385.92
567.19	44823.60
567.36	44669.12
567.52	44626.99
567.68	45207.45
567.85	44994.46
568.01	45069.36
568.17	44329.75
568.34	45099.78
568.50	44809.56
568.66	44858.71
568.83	45008.50
568.99	45155.96
569.15	44996.80
569.32	44839.98
569.48	45088.08
569.64	45221.49
569.81	45186.38
569.97	44975.73
570.13	45057.65
570.30	44865.73
570.46	45275.32
570.62	45116.17
570.78	45263.62
570.95	45144.25
571.11	45490.65
571.27	44961.69
571.43	45181.70
571.60	44957.01
571.76	45127.87
571.92	45059.99
572.09	45109.14
572.25	45179.36
572.41	45092.76
572.57	45570.23
572.74	45830.03
572.90	44996.80
573.06	45443.84
573.22	45022.54
573.38	45392.35
573.55	45439.16
573.71	46021.95
573.87	45537.46
574.03	45109.14
574.20	45336.18
574.36	45446.18
574.52	45785.56
574.68	45277.66
574.84	45420.44
575.01	45343.20
575.17	45544.48
575.33	45397.03
575.49	45015.52
575.65	45008.50
575.82	45607.68
575.98	44973.39
576.14	45282.34
576.30	45771.52
576.46	45605.34
576.62	45584.27
576.79	45432.14
576.95	45029.57
577.11	45088.08
577.27	45521.08
577.43	45586.61
577.59	45556.19
577.75	45329.16
577.92	45420.44
578.08	45167.66
578.24	45352.56
578.40	45380.65
578.56	45790.24
578.72	45481.29
578.88	45603.00
579.04	45315.11
579.21	45261.28
579.37	45481.29
579.53	45745.77
579.69	45549.17
579.85	45656.83
580.01	45769.18
580.17	45443.84
580.33	45708.32
580.49	45574.91
580.65	45593.64
580.82	45652.15
580.98	45352.56
581.14	45352.56
581.30	45757.47
581.46	45581.93
581.62	45663.85
581.78	45610.02
581.94	45696.62
582.10	45654.49
582.26	45518.74
582.42	45687.26
582.58	45434.48
582.74	45855.78
582.90	45769.18
583.06	46031.32
583.22	45343.20
583.38	45603.00
583.54	45780.88
583.70	45872.16
583.86	45996.21
584.02	45661.51
584.18	46314.52
584.34	45689.60
584.50	45993.87
584.66	46272.39
584.82	45825.35
584.98	45923.65
585.14	45914.29
585.30	45785.56
585.46	45787.90
585.62	46155.36
585.78	45771.52
585.94	45511.72
586.10	45975.14
586.26	45717.68
586.42	45413.41
586.58	45755.13
586.74	46234.94
586.90	45382.99
587.06	45331.50
587.22	45993.87
587.38	45263.62
587.54	46265.37
587.70	45956.42
587.86	45801.94
588.02	46129.62
588.18	46026.63
588.34	45837.05
588.49	45815.99
588.65	45591.30
588.81	45961.10
588.97	45963.44
589.13	45811.31
589.29	45979.82
589.45	46045.36
589.61	45883.86
589.77	45921.31
589.93	46344.95
590.08	46286.43
590.24	46248.99
590.40	46270.05
590.56	46155.36
590.72	46162.39
590.88	45773.86
591.04	46237.28
591.20	45996.21
591.35	46410.48
591.51	46316.86
591.67	46586.02
591.83	46742.84
591.99	45956.42
592.15	46085.15
592.31	46075.79
592.46	46080.47
592.62	46286.43
592.78	46335.59
592.94	46546.23
593.10	46417.50
593.26	46787.31
593.41	46141.32
593.57	46440.91
593.73	46340.27
593.89	46749.86
594.05	46838.80
594.20	46476.02
594.36	46834.12
594.52	46532.19
594.68	46515.81
594.84	46218.56
594.99	46684.33
595.15	46225.58
595.31	46330.90
595.47	46387.08
595.62	46457.29
595.78	46543.89
595.94	46525.17
596.10	46457.29
596.25	46597.73
596.41	46548.57
596.57	46380.06
596.73	46497.08
596.88	46611.77
597.04	46396.44
597.20	46686.67
597.36	46623.47
597.51	46625.81
597.67	46272.39
597.83	46174.09
597.99	46646.88
598.14	46604.75
598.30	46782.63
598.46	46651.56
598.61	46791.99
598.77	46576.66
598.93	46270.05
599.09	46646.88
599.24	47037.75
599.40	46518.15
599.56	46499.42
599.71	47065.83
599.87	47061.15
600.03	46644.54
600.18	46803.69
600.34	46738.16
600.50	46665.60
600.65	46740.50
600.81	47110.30
600.97	46862.21
601.12	47110.30
601.28	46747.52
601.44	46590.70
601.59	46789.65
601.75	46274.73
601.91	46866.89
602.06	46681.98
602.22	46721.77
602.37	46892.63
602.53	47004.98
602.69	46628.15
602.84	46464.32
603.00	46291.12
603.16	47000.30
603.31	46948.81
603.47	46529.85
603.62	46841.14
603.78	46878.59
603.94	46789.65
604.09	46719.43
604.25	46485.38
604.40	46136.64
604.56	46546.23
604.71	47070.51
604.87	46604.75
605.03	46681.98
605.18	46263.03
605.34	46696.03
605.49	46532.19
605.65	46576.66
605.80	46621.13
605.96	46405.80
606.12	47061.15
606.27	46667.94
606.43	46328.56
606.58	46918.38
606.74	46410.48
606.89	46827.10
607.05	46550.91
607.20	46487.72
607.36	46330.90
607.51	46358.99
607.67	46527.51
607.82	46469.00
607.98	46380.06
608.13	46513.47
608.29	46529.85
608.44	46422.19
608.60	46445.59
608.75	46806.03
608.91	46501.76
609.06	46185.79
609.22	46349.63
609.37	46429.21
609.53	46604.75
609.68	46330.90
609.84	46696.03
609.99	46127.28
610.15	46546.23
610.30	46305.16
610.46	46026.63
610.61	46204.52
610.76	46543.89
610.92	46417.50
611.07	45977.48
611.23	46232.60
611.38	46630.49
611.54	46300.48
611.69	46590.70
611.84	46164.73
612.00	46094.51
612.15	46202.18
612.31	46146.00
612.46	45897.91
612.62	45883.86
612.77	46033.66
612.92	46188.13
613.08	46045.36
613.23	46272.39
613.39	45750.45
613.54	45862.80
613.69	45731.73
613.85	45656.83
614.00	46195.15
614.15	46389.42
614.31	45830.03
614.46	45837.05
614.62	46010.25
614.77	45612.36
614.92	46307.50
615.08	45595.98
615.23	46195.15
615.38	45947.06
615.54	46134.30
615.69	46319.20
615.84	45930.67
616.00	46131.96
616.15	46263.03
616.30	46209.20
616.46	46094.51
616.61	45902.59
616.76	45610.02
616.92	45502.35
617.07	45717.68
617.22	45837.05
617.37	45539.80
617.53	45925.99
617.68	45750.45
617.83	45579.59
617.99	46454.95
618.14	45748.11
618.29	45413.41
618.45	45216.81
618.60	45315.11
618.75	45675.55
618.90	45577.25
619.06	45530.44
619.21	45558.53
619.36	45773.86
619.51	45373.63
619.67	44744.02
619.82	45223.83
619.97	45722.37
620.12	45242.56
620.28	45371.28
620.43	45380.65
620.58	45467.25
620.73	45514.06
620.89	45572.57
621.04	45380.65
621.19	45233.19
621.34	45048.29
621.49	45055.31
621.65	45280.00
621.80	45684.92
621.95	44940.63
622.10	45078.72
622.25	45268.30
622.41	44994.46
622.56	44973.39
622.71	45237.87
622.86	45148.93
623.01	45153.62
623.16	45181.70
623.32	44982.76
623.47	44959.35
623.62	45090.42
623.77	44985.10
623.92	45230.85
624.07	45067.02
624.23	45074.04
624.38	45209.79
624.53	44722.96
624.68	44479.54
624.83	44875.09
624.98	44816.58
625.13	44364.85
625.29	44856.37
625.44	44748.70
625.59	44598.91
625.74	44776.79
625.89	44392.94
626.04	44495.92
626.19	44500.61
626.34	44814.24
626.49	44643.38
626.65	43875.68
626.80	44194.00
626.95	44514.65
627.10	44100.37
627.25	44210.38
627.40	44446.77
627.55	44172.93
627.70	44236.12
627.85	44460.82
628.00	44231.44
628.15	44390.60
628.30	43545.67
628.45	44268.89
628.60	43653.33
628.76	43962.28
628.91	43515.24
629.06	43573.75
629.21	44037.18
629.36	43896.75
629.51	43952.92
629.66	43756.32
629.81	43917.81
629.96	43899.09
630.11	43861.64
630.26	43517.58
630.41	43863.98
630.56	43519.92
630.71	43763.34
630.86	44083.99
631.01	43643.97
631.16	43269.48
631.31	43515.24
631.46	43531.62
631.61	43962.28
631.76	43847.60
631.91	43793.76
632.06	44046.54
632.21	44023.14
632.36	44196.34
632.51	43173.52
632.66	43627.59
632.81	43157.14
632.96	43330.34
633.10	43262.46
633.25	43531.62
633.40	43447.36
633.55	43632.27
633.70	43805.47
633.85	43194.59
634.00	42909.04
634.15	43255.44
634.30	43377.15
634.45	43129.05
634.60	42876.27
634.75	43363.11
634.90	43002.66
635.05	43299.91
635.19	43241.40
635.34	43147.78
635.49	42611.79
635.64	42412.85
635.79	43285.87
635.94	42754.57
636.09	43295.23
636.24	42707.76
636.39	43236.72
636.53	43232.04
636.68	42569.66
636.83	42639.88
636.98	42810.74
637.13	42452.64
637.28	42344.97
637.43	42564.98
637.57	42799.04
637.72	42333.27
637.87	42740.52
638.02	42436.25
638.17	42660.94
638.32	42244.33
638.46	42466.68
638.61	42473.70
638.76	42263.05
638.91	42450.30
639.06	42232.63
639.20	42150.71
639.35	42197.52
639.50	42204.54
639.65	42136.66
639.80	42443.27
639.94	42583.71
640.09	42408.17
640.24	42162.41
640.39	42075.81
640.54	41874.52
640.68	42141.35
640.83	42124.96
640.98	42258.37
641.13	42050.06
641.27	42139.00
641.42	42148.37
641.57	42401.14
641.72	41862.82
641.86	41909.63
642.01	41930.70
642.16	41626.43
642.31	41617.07
642.45	41930.70
642.60	41544.51
642.75	41528.13
642.90	41820.69
643.04	42293.48
643.19	41818.35
643.34	41759.84
643.48	41216.83
643.63	41439.18
643.78	41745.80
643.93	41876.86
644.07	41916.65
644.22	41577.28
644.37	41832.39
644.51	41741.11
644.66	41319.82
644.81	41532.81
644.95	41654.51
645.10	41427.48
645.25	41490.68
645.39	41357.27
645.54	41322.16
645.69	41258.96
645.83	41226.20
645.98	41015.55
646.13	41013.21
646.27	41181.73
646.42	40914.90
646.57	41631.11
646.71	41500.04
646.86	41486.00
647.00	41305.77
647.15	41125.55
647.30	41181.73
647.44	40858.73
647.59	40835.33
647.74	41273.01
647.88	41221.52
648.03	41350.24
648.17	41127.89
648.32	40671.49
648.47	41123.21
648.61	40498.29
648.76	40809.58
648.90	40919.59
649.05	41088.10
649.20	40884.48
649.34	40699.58
649.49	40968.74
649.63	40720.64
649.78	40664.47
649.92	40903.20
650.07	41090.44
650.21	41017.89
650.36	41069.38
650.51	40912.56
650.65	40708.94
650.80	40509.99
650.94	40666.81
651.09	40699.58
651.23	40250.19
651.38	40357.86
651.52	40156.57
651.67	40271.26
651.81	40474.88
651.96	40369.56
652.10	40105.08
652.25	40123.80
652.39	40069.97
652.54	40449.14
652.68	40308.71
652.83	40416.37
652.97	40509.99
653.12	40154.23
653.26	39990.39
653.41	39917.84
653.55	40245.51
653.70	39828.90
653.84	39992.73
653.99	40004.44
654.13	40055.93
654.27	40184.66
654.42	40392.97
654.56	39873.37
654.71	40224.45
654.85	40123.80
655.00	39941.24
655.14	40013.80
655.29	40013.80
655.43	40151.89
655.57	39627.61
655.72	39290.57
655.86	39508.24
656.01	39262.49
656.15	39381.85
656.30	39665.06
656.44	39889.75
656.58	39826.56
656.73	39508.24
656.87	39646.33
657.01	38920.77
657.16	39543.35
657.30	39594.84
657.45	39117.37
657.59	39140.78
657.73	39241.42
657.88	39175.89
658.02	39515.26
658.16	39353.77
658.31	39262.49
658.45	39194.61
658.60	39365.47
658.74	39232.06
658.88	39208.65
659.03	39009.71
659.17	38948.85
659.31	38637.56
659.46	38742.89
659.60	39054.18
659.74	38817.78
659.89	38326.27
660.03	38209.25
660.17	38675.01
660.32	38246.69
660.46	38429.26
660.60	38342.66
660.74	38279.46
660.89	38705.44
661.03	38340.32
661.17	38352.02
661.32	38433.94
661.46	38153.07
661.60	38005.62
661.74	37874.55
661.89	38450.32
662.03	38361.38
662.17	38106.26
662.31	37886.25
662.46	37757.52
662.60	37663.90
662.74	37713.05
662.88	37516.45
663.03	36861.10
663.17	37226.22
663.31	37221.54
663.45	37542.19
663.60	37748.16
663.74	37727.10
663.88	37860.51
664.02	37097.49
664.17	37661.56
664.31	36999.19
664.45	37027.28
664.59	37057.70
664.73	37148.98
664.88	36830.67
665.02	36596.62
665.16	36627.04
665.30	37010.89
665.44	37186.43
665.59	36563.85
665.73	36577.89
665.87	36161.28
666.01	36418.74
666.15	36624.70
666.29	36526.40
666.44	37036.64
666.58	36664.49
666.72	35847.64
666.86	36070.00
667.00	36362.56
667.14	36224.47
667.28	36257.24
667.43	35948.29
667.57	36374.27
667.71	36212.77
667.85	36257.24
667.99	35943.61
668.13	35901.48
668.27	35580.82
668.41	35594.87
668.56	35271.87
668.70	35395.92
668.84	35143.14
668.98	35306.98
669.12	35101.01
669.26	35379.54
669.40	35196.98
669.54	35473.16
669.68	34813.13
669.82	35168.89
669.96	34815.47
670.10	34738.23
670.25	34916.11
670.39	34991.01
670.53	35302.30
670.67	34562.69
670.81	34934.84
670.95	34389.49
671.09	34485.45
671.23	34080.54
671.37	34565.03
671.51	34375.45
671.65	33907.34
671.79	34029.05
671.93	34384.81
672.07	34586.10
672.21	33968.19
672.35	33722.44
672.49	34075.86
672.63	33846.49
672.77	33900.32
672.91	34031.39
673.05	33369.02
673.19	33163.05
673.33	33638.18
673.47	33228.59
673.61	32868.14
673.75	33167.73
673.89	33202.84
674.03	32760.48
674.17	32505.36
674.31	32758.14
674.45	32795.59
674.59	32598.98
674.73	32788.56
674.87	32275.99
675.01	32278.33
675.15	32044.27
675.29	31967.04
675.43	32128.53
675.56	32549.83
675.70	32521.74
675.84	32165.98
675.98	31246.15
676.12	32107.47
676.26	31683.83
676.40	31639.36
676.54	31358.50
676.68	31524.68
676.82	31531.70
676.96	31421.69
677.10	31285.94
677.23	31243.81
677.37	30897.41
677.51	30991.03
677.65	30824.86
677.79	30733.57
677.93	30611.87
678.07	30740.60
678.21	30445.69
678.34	30125.04
678.48	30176.53
678.62	30230.36
678.76	30361.43
678.90	29769.27
679.04	30054.82
679.18	30323.98
679.31	29654.59
679.45	29394.79
679.59	29649.91
679.73	29502.45
679.87	29453.30
680.00	29326.91
680.14	29043.71
680.28	29069.45
680.42	29247.33
680.56	28844.76
680.70	28706.67
680.83	28650.50
680.97	28577.94
681.11	28734.76
681.25	28348.57
681.39	28247.93
681.52	28371.97
681.66	27674.49
681.80	27697.90
681.94	27604.28
682.07	27695.56
682.21	27676.83
682.35	27407.67
682.49	27517.68
682.62	27461.51
682.76	27688.54
682.90	27358.52
683.04	26859.99
683.17	27386.61
683.31	27110.43
683.45	26551.04
683.59	26677.43
683.72	26457.42
683.86	26799.13
684.00	26518.27
684.13	26490.18
684.27	26417.63
684.41	26277.19
684.55	26195.28
684.68	26291.24
684.82	25392.47
684.96	25979.95
685.09	26012.71
685.23	25944.84
685.37	25895.69
685.50	25757.60
685.64	25823.13
685.78	25535.24
685.91	25439.28
686.05	25188.85
686.19	24844.79
686.32	24875.21
686.46	24823.72
686.60	24650.52
686.73	24788.61
686.87	24671.59
687.01	24702.01
687.14	24503.07
687.28	24531.15
687.42	24620.10
687.55	24063.05
687.69	24105.18
687.82	23990.49
687.96	23714.31
688.10	24058.37
688.23	23976.45
688.37	23782.18
688.50	23913.25
688.64	23524.72
688.78	23630.05
688.91	23545.79
689.05	23452.17
689.18	23051.94
689.32	22890.44
689.46	22412.97
689.59	22864.69
689.73	22923.21
689.86	23220.45
690.00	22970.02
690.13	22684.47
690.27	22480.85
690.41	22520.63
690.54	22038.48
690.68	22302.96
690.81	21998.70
690.95	21825.50
691.08	22031.46
691.22	21633.57
691.35	21720.17
691.49	21790.39
691.62	21755.28
691.76	21326.96
691.89	21317.60
692.03	21097.59
692.16	20699.70
692.30	21116.31
692.43	20952.48
692.57	20819.07
692.70	20629.48
692.84	21025.03
692.97	20559.27
693.11	20531.18
693.24	20294.79
693.38	20329.89
693.51	20252.66
693.65	20081.80
693.78	19726.04
693.92	19803.27
694.05	19667.52
694.19	19873.49
694.32	19807.95
694.45	20018.60
694.59	19590.28
694.72	19758.80
694.86	19639.44
694.99	19396.02
695.13	19164.31
695.26	19016.85
695.39	18616.62
695.53	18963.02
695.66	19131.54
695.80	18693.86
695.93	18647.05
696.07	18560.45
696.20	18424.70
696.33	18256.18
696.47	18230.43
696.60	17984.68
696.73	18317.03
696.87	18141.49
697.00	17989.36
697.14	17774.03
697.27	17830.20
697.40	17631.26
697.54	18075.96
697.67	17584.44
697.80	17640.62
697.94	17717.86
698.07	17605.51
698.21	17207.62
698.34	17341.03
698.47	17252.09
698.61	16858.88
698.74	16954.84
698.87	16624.83
699.01	16657.59
699.14	16779.30
699.27	16903.35
699.40	16376.73
699.54	16540.57
699.67	16430.56
699.80	16374.39
699.94	16437.58
700.07	16201.19
700.20	16498.44
700.34	15875.85
700.47	16255.02
700.60	16299.49
700.73	15917.98
700.87	15917.98
701.00	15337.53
701.13	15365.62
701.26	15543.50
701.40	15405.41
701.53	15328.17
701.66	15487.32
701.79	15197.10
701.93	14970.07
702.06	14899.85
702.19	15215.82
702.32	15246.25
702.46	14883.47
702.59	15042.62
702.72	14925.60
702.85	14787.50
702.99	14768.78
703.12	14314.72
703.25	14438.76
703.38	14431.74
703.51	14305.35
703.65	14221.10
703.78	14317.06
703.91	14178.97
704.04	13947.25
704.17	13884.06
704.31	13762.35
704.44	13799.80
704.57	13846.61
704.70	13610.22
704.83	13532.98
704.96	13547.02
705.10	13472.12
705.23	13518.93
>>>>>End Processed Spectral Data<<<<<
