SpectraSuite Data File
++++++++++++++++++++++++++++++++++++
Date: Fri Oct 25 10:48:35 EDT 2013
User: price-jones
Dark Spectrum Present: No
Reference Spectrum Present: No
Number of Sampled Component Spectra: 1
Spectrometers: USB2+H05261
Integration Time (usec): 100000 (USB2+H05261)
Spectra Averaged: 1 (USB2+H05261)
Boxcar Smoothing: 0 (USB2+H05261)
Correct for Electrical Dark: No (USB2+H05261)
Strobe/Lamp Enabled: No (USB2+H05261)
Correct for Detector Non-linearity: No (USB2+H05261)
Correct for Stray Light: No (USB2+H05261)
Number of Pixels in Processed Spectrum: 2048
>>>>>Begin Processed Spectral Data<<<<<
365.73	124.05
365.92	124.05
366.12	124.05
366.32	53.83
366.52	16.38
366.72	46.81
366.91	0.00
367.11	0.00
367.31	74.90
367.51	84.26
367.70	56.17
367.90	63.19
368.10	25.75
368.30	67.88
368.49	39.79
368.69	58.51
368.89	18.72
369.09	0.00
369.28	107.66
369.48	58.51
369.68	159.16
369.87	86.60
370.07	119.37
370.27	128.73
370.47	234.05
370.66	386.19
370.86	535.98
371.06	491.51
371.25	456.40
371.45	528.96
371.65	500.87
371.84	397.89
372.04	545.34
372.24	545.34
372.44	507.90
372.63	608.54
372.83	521.94
373.03	606.20
373.22	507.90
373.42	535.98
373.62	615.56
373.81	540.66
374.01	660.03
374.21	594.50
374.40	634.29
374.60	634.29
374.79	533.64
374.99	636.63
375.19	615.56
375.38	627.26
375.58	664.71
375.78	655.35
375.97	699.82
376.17	676.41
376.37	648.33
376.56	678.76
376.76	667.05
376.95	603.86
377.15	690.46
377.35	648.33
377.54	669.39
377.74	662.37
377.93	669.39
378.13	784.08
378.33	732.59
378.52	688.12
378.72	699.82
378.91	716.20
379.11	629.60
379.31	624.92
379.50	709.18
379.70	667.05
379.89	784.08
380.09	760.67
380.28	777.06
380.48	812.17
380.68	671.73
380.87	727.91
381.07	734.93
381.26	781.74
381.46	702.16
381.65	791.10
381.85	688.12
382.04	718.54
382.24	751.31
382.43	727.91
382.63	760.67
382.83	732.59
383.02	697.48
383.22	734.93
383.41	760.67
383.61	770.04
383.80	777.06
384.00	880.04
384.19	856.64
384.39	861.32
384.58	877.70
384.78	786.42
384.97	884.72
385.17	851.96
385.36	821.53
385.56	816.85
385.75	877.70
385.95	863.66
386.14	931.53
386.34	898.77
386.53	866.00
386.72	844.93
386.92	912.81
387.11	912.81
387.31	875.36
387.50	931.53
387.70	919.83
387.89	1015.79
388.09	931.53
388.28	933.87
388.48	961.96
388.67	1018.13
388.86	933.87
389.06	1011.11
389.25	987.71
389.45	1062.60
389.64	1050.90
389.84	1057.92
390.03	1153.88
390.22	1032.18
390.42	1036.86
390.61	1071.97
390.81	1062.60
391.00	1046.22
391.19	1104.73
391.39	1095.37
391.58	1170.27
391.78	1121.12
391.97	1142.18
392.16	1121.12
392.36	1088.35
392.55	1053.24
392.75	1114.10
392.94	990.05
393.13	1074.31
393.33	1090.69
393.52	1114.10
393.71	1128.14
393.91	1167.93
394.10	1172.61
394.29	1193.67
394.49	1240.48
394.68	1245.16
394.88	1327.08
395.07	1329.42
395.26	1313.04
395.46	1416.02
395.65	1207.72
395.84	1266.23
396.04	1284.95
396.23	1284.95
396.42	1205.38
396.62	1315.38
396.81	1317.72
397.00	1207.72
397.19	1303.68
397.39	1413.68
397.58	1378.58
397.77	1465.18
397.97	1511.99
398.16	1533.05
398.35	1563.48
398.55	1441.77
398.74	1570.50
398.93	1682.85
399.12	1586.88
399.32	1652.42
399.51	1579.86
399.70	1621.99
399.90	1682.85
400.09	1624.33
400.28	1739.02
400.47	1631.35
400.67	1678.16
400.86	1750.72
401.05	1746.04
401.24	1689.87
401.44	1811.57
401.63	1834.98
401.82	1872.43
402.01	1762.42
402.21	1764.76
402.40	1809.23
402.59	1823.28
402.78	1851.36
402.97	1776.47
403.17	1877.11
403.36	1963.71
403.55	1926.26
403.74	1905.20
403.93	1980.09
404.13	2001.16
404.32	2038.61
404.51	1905.20
404.70	1947.33
404.89	2066.69
405.09	2087.76
405.28	2001.16
405.47	2071.37
405.66	2012.86
405.85	2073.71
406.05	2160.31
406.24	2017.54
406.43	2148.61
406.62	2218.83
406.81	2328.83
407.00	2113.50
407.20	2157.97
407.39	2169.68
407.58	2317.13
407.77	2403.73
407.96	2370.96
408.15	2284.36
408.34	2413.09
408.54	2450.54
408.73	2417.77
408.92	2319.47
409.11	2359.26
409.30	2485.65
409.49	2319.47
409.68	2401.39
409.87	2396.71
410.07	2363.94
410.26	2525.44
410.45	2462.24
410.64	2637.78
410.83	2640.12
411.02	2612.04
411.21	2682.25
411.40	2649.49
411.59	2785.24
411.78	2672.89
411.98	2740.77
412.17	2738.43
412.36	2860.13
412.55	2892.90
412.74	2925.67
412.93	2869.50
413.12	2815.66
413.31	3030.99
413.50	2836.73
413.69	3005.25
413.88	3096.53
414.07	3030.99
414.26	3091.85
414.45	3185.47
414.64	3164.40
414.83	3082.49
415.02	3077.80
415.22	3136.32
415.41	3220.58
415.60	3417.18
415.79	3227.60
415.98	3365.69
416.17	3346.97
416.36	3379.73
416.55	3396.12
416.74	3356.33
416.93	3407.82
417.12	3398.46
417.31	3492.08
417.50	3419.52
417.69	3712.09
417.88	3559.95
418.07	3578.68
418.26	3620.81
418.45	3698.05
418.64	3693.37
418.83	3737.84
419.02	3840.82
419.21	3616.13
419.39	3779.97
419.58	3712.09
419.77	3658.26
419.96	3803.37
420.15	3859.54
420.34	3686.34
420.53	3953.16
420.72	3967.21
420.91	3948.48
421.10	4028.06
421.29	4128.70
421.48	4074.87
421.67	3941.46
421.86	3946.14
422.05	3901.67
422.24	3990.61
422.43	4007.00
422.61	4004.66
422.80	4007.00
422.99	4018.70
423.18	4187.22
423.37	4243.39
423.56	4084.23
423.75	4093.60
423.94	4030.40
424.13	3852.52
424.32	3964.87
424.50	4100.62
424.69	4280.84
424.88	4180.20
425.07	4046.79
425.26	3936.78
425.45	4084.23
425.64	4074.87
425.83	4086.58
426.01	4201.26
426.20	4210.62
426.39	4264.46
426.58	4032.74
426.77	4018.70
426.96	4156.79
427.15	4163.81
427.33	4266.80
427.52	4154.45
427.71	4449.36
427.90	4294.88
428.09	4444.68
428.28	4306.59
428.46	4351.06
428.65	4278.50
428.84	4458.72
429.03	4360.42
429.22	4320.63
429.40	4397.87
429.59	4367.44
429.78	4114.66
429.97	3955.51
430.16	4191.90
430.34	4365.10
430.53	4304.25
430.72	4353.40
430.91	4393.19
431.10	4538.30
431.28	4709.16
431.47	4645.96
431.66	4791.08
431.85	4770.01
432.03	4870.65
432.22	4833.21
432.41	4868.31
432.60	4830.87
432.79	4908.10
432.97	4891.72
433.16	4943.21
433.35	4849.59
433.54	4894.06
433.72	4858.95
433.91	4947.89
434.10	4985.34
434.28	5020.45
434.47	4929.17
434.66	5109.39
434.85	5111.73
435.03	5100.03
435.22	5242.80
435.41	5165.56
435.59	5345.78
435.78	5336.42
435.97	5289.61
436.16	5371.53
436.34	5486.22
436.53	5490.90
436.72	5423.02
436.90	5369.19
437.09	5434.72
437.28	5289.61
437.46	5385.57
437.65	5441.75
437.84	5261.52
438.02	5355.15
438.21	5392.59
438.40	5481.53
438.58	5554.09
438.77	5462.81
438.96	5621.97
439.14	5706.23
439.33	5886.45
439.52	5959.00
439.70	5860.70
439.89	5853.68
440.08	6005.81
440.26	5959.00
440.45	5975.39
440.63	6001.13
440.82	6272.64
441.01	6193.06
441.19	6207.10
441.38	6244.55
441.57	6471.58
441.75	6480.94
441.94	6368.60
442.12	6640.10
442.31	6516.05
442.50	6612.01
442.68	6628.40
442.87	6546.48
443.05	6527.75
443.24	6614.35
443.43	6494.99
443.61	6829.68
443.80	6899.90
443.98	6691.59
444.17	6527.75
444.35	6745.42
444.54	6628.40
444.73	6848.41
444.91	6745.42
445.10	6801.60
445.28	6707.98
445.47	6546.48
445.65	6686.91
445.84	6918.62
446.02	7035.65
446.21	6724.36
446.39	6794.58
446.58	6965.43
446.77	6937.35
446.95	6808.62
447.14	6911.60
447.32	7080.12
447.51	6860.11
447.69	6913.94
447.88	7124.59
448.06	6839.05
448.25	6892.88
448.43	7094.16
448.62	6977.14
448.80	6991.18
448.99	7157.36
449.17	7089.48
449.36	7026.29
449.54	7314.17
449.73	7375.03
449.91	7485.03
450.10	7360.98
450.28	7506.10
450.46	7440.56
450.65	7639.51
450.83	7417.16
451.02	7424.18
451.20	7492.05
451.39	7609.08
451.57	7461.63
451.76	7478.01
451.94	7452.27
452.13	7552.91
452.31	7543.55
452.49	7445.24
452.68	7536.52
452.86	7602.06
453.05	7461.63
453.23	7634.83
453.42	7534.18
453.60	7744.83
453.78	7784.62
453.97	7744.83
454.15	7618.44
454.34	7613.76
454.52	7754.19
454.70	7805.69
454.89	7878.24
455.07	7960.16
455.26	7934.42
455.44	8182.51
455.62	8116.98
455.81	8222.30
455.99	8245.71
456.17	8276.13
456.36	8180.17
456.54	8421.25
456.73	8091.23
456.91	8594.45
457.09	8416.57
457.28	8638.92
457.46	8336.99
457.64	8482.10
457.83	8362.73
458.01	8332.31
458.19	8470.40
458.38	8376.78
458.56	8489.12
458.74	8524.23
458.93	8561.68
459.11	8589.77
459.29	8599.13
459.48	8793.39
459.66	8512.53
459.84	8767.65
460.03	8683.39
460.21	8784.03
460.39	8774.67
460.57	8777.01
460.76	8938.51
460.94	8957.23
461.12	8865.95
461.31	9198.31
461.49	8990.00
461.67	8940.85
461.85	9170.22
462.04	9081.28
462.22	9518.96
462.40	9282.56
462.59	9062.55
462.77	9111.71
462.95	9273.20
463.13	9116.39
463.32	9502.58
463.50	9509.60
463.68	9301.29
463.86	9385.55
464.05	9263.84
464.23	9437.04
464.41	9458.10
464.59	9383.21
464.78	9610.24
464.96	9537.68
465.14	9369.16
465.32	9603.22
465.50	9624.28
465.69	9544.70
465.87	9593.86
466.05	9652.37
466.23	9369.16
466.41	9643.01
466.60	9586.83
466.78	9638.33
466.96	9582.15
467.14	9596.20
467.32	9940.26
467.51	9907.49
467.69	9659.39
467.87	9867.70
468.05	9930.89
468.23	9781.10
468.41	9764.72
468.60	9872.38
468.78	10047.92
468.96	9980.04
469.14	10108.77
469.32	10225.80
469.50	9949.62
469.69	10274.95
469.87	10167.29
470.05	10068.98
470.23	10141.54
470.41	10183.67
470.59	10272.61
470.77	10209.42
470.95	10136.86
471.14	10593.26
471.32	10352.19
471.50	10616.67
471.68	10476.24
471.86	10902.22
472.04	10885.83
472.22	10878.81
472.40	10736.04
472.58	10759.44
472.77	10768.80
472.95	10986.47
473.13	11279.04
473.31	11052.01
473.49	11061.37
473.67	10848.38
473.85	11040.31
474.03	11330.53
474.21	11346.92
474.39	11592.67
474.57	11358.62
474.75	11485.01
474.93	11679.27
475.12	11740.13
475.30	11791.62
475.48	11573.95
475.66	11885.24
475.84	11700.34
476.02	12028.01
476.20	12020.99
476.38	12273.77
476.56	12388.46
476.74	12175.47
476.92	12397.82
477.10	12147.38
477.28	12500.80
477.46	12554.63
477.64	12706.77
477.82	12978.27
478.00	12980.61
478.18	12938.48
478.36	13202.96
478.54	13004.02
478.72	13149.13
478.90	13521.27
479.08	13694.47
479.26	13610.22
479.44	13717.88
479.62	13717.88
479.80	14071.30
479.98	13886.40
480.16	14246.84
480.34	14267.91
480.52	14244.50
480.70	14272.59
480.88	14317.06
481.06	14443.45
481.24	14579.20
481.41	14586.22
481.59	14848.36
481.77	15068.37
481.95	15033.26
482.13	15023.90
482.31	14993.47
482.49	15260.29
482.67	15353.91
482.85	15611.37
483.03	15749.46
483.21	15882.88
483.39	16304.17
483.57	15726.06
483.74	16201.19
483.92	16322.90
484.10	16327.58
484.28	16486.73
484.46	16617.80
484.64	16608.44
484.82	16713.77
485.00	16781.64
485.18	16950.16
485.35	16922.07
485.53	16608.44
485.71	16568.65
485.89	17006.33
486.07	16819.09
486.25	17312.94
486.43	17432.31
486.61	17570.40
486.78	17652.32
486.96	18223.41
487.14	18265.54
487.32	18279.58
487.50	18630.66
487.68	19040.26
487.85	19082.39
488.03	19281.33
488.21	19421.77
488.39	19391.34
488.57	19477.94
488.75	19545.81
488.92	19704.97
489.10	20081.80
489.28	20163.72
489.46	20365.00
489.64	20264.36
489.81	20973.54
489.99	20760.55
490.17	20898.64
490.35	21500.16
490.53	21177.17
490.70	21333.98
490.88	21219.30
491.06	21799.75
491.24	21366.75
491.41	21586.76
491.59	21579.74
491.77	21626.55
491.95	21687.40
492.13	22104.02
492.30	22328.71
492.48	22265.52
492.66	22459.78
492.84	22548.72
493.01	22831.93
493.19	22867.03
493.37	22721.92
493.54	23173.64
493.72	23578.56
493.90	23468.55
494.08	23772.82
494.25	24034.96
494.43	24011.56
494.61	24442.21
494.79	23955.38
494.96	24196.46
495.14	24240.93
495.32	24510.09
495.49	24634.14
495.67	24842.45
495.85	25120.97
496.02	25055.43
496.20	25521.20
496.38	25254.38
496.55	25647.59
496.73	25851.22
496.91	25659.29
497.09	25895.69
497.26	26103.99
497.44	26029.10
497.62	26132.08
497.79	26448.05
497.97	25846.54
498.14	26532.31
498.32	26544.02
498.50	26508.91
498.67	26590.83
498.85	26920.84
499.03	27342.14
499.20	27232.13
499.38	27410.01
499.56	27215.75
499.73	27365.54
499.91	27573.85
500.08	27688.54
500.26	27388.95
500.44	27587.89
500.61	27779.82
500.79	27452.14
500.97	27604.28
501.14	27992.81
501.32	28285.37
501.49	28093.45
501.67	28121.54
501.84	28549.85
502.02	28177.71
502.20	28699.65
502.37	28854.12
502.55	28823.70
502.72	28521.77
502.90	29305.85
503.07	28854.12
503.25	29146.69
503.43	29041.37
503.60	29425.22
503.78	29149.03
503.95	29247.33
504.13	29799.70
504.30	29673.31
504.48	29132.65
504.65	29771.61
504.83	30045.46
505.01	30387.18
505.18	30536.97
505.36	30548.67
505.53	30401.22
505.71	30756.98
505.88	30888.05
506.06	30808.47
506.23	30782.73
506.41	30508.88
506.58	30745.28
506.76	30597.82
506.93	31215.72
507.11	31065.93
507.28	31035.50
507.46	30955.93
507.63	30974.65
507.81	31538.72
507.98	31456.80
508.16	31585.53
508.33	31772.77
508.50	31744.69
508.68	31700.22
508.85	32112.15
509.03	32107.47
509.20	32273.65
509.38	32133.21
509.55	32238.54
509.73	32163.64
509.90	32257.26
510.08	32446.85
510.25	32547.49
510.42	32734.73
510.60	32882.19
510.77	32746.44
510.95	33291.78
511.12	33207.52
511.30	33336.25
511.47	33684.99
511.64	33766.91
511.82	33649.88
511.99	33467.32
512.17	33261.35
512.34	33439.23
512.51	33902.66
512.69	33631.16
512.86	33874.57
513.04	34120.33
513.21	33736.48
513.38	33752.87
513.56	33991.60
513.73	33748.18
513.90	34054.79
514.08	33659.24
514.25	34464.39
514.43	34487.79
514.60	34780.36
514.77	34504.18
514.95	34820.15
515.12	34410.56
515.29	34801.43
515.47	34958.24
515.64	35524.65
515.81	34766.32
515.99	35311.66
516.16	35021.44
516.33	34918.45
516.51	34576.73
516.68	34382.47
516.85	34424.60
517.03	34660.99
517.20	34953.56
517.37	35063.57
517.54	35674.45
517.72	35035.48
517.89	34927.81
518.06	35213.36
518.24	34855.26
518.41	35686.15
518.58	35454.44
518.75	35592.53
518.93	35945.95
519.10	36093.40
519.27	36151.91
519.45	36212.77
519.62	36624.70
519.79	36212.77
519.96	36758.11
520.14	36603.64
520.31	36353.20
520.48	36879.82
520.65	37029.62
520.83	37113.87
521.00	37132.60
521.17	37057.70
521.34	37102.17
521.52	37455.59
521.69	37481.34
521.86	37493.04
522.03	37443.89
522.20	37544.53
522.38	37443.89
522.55	37165.37
522.72	37495.38
522.89	37755.18
523.07	37469.64
523.24	37420.48
523.41	38188.18
523.58	38260.74
523.75	38447.98
523.92	38665.65
524.10	38686.71
524.27	38555.64
524.44	38838.85
524.61	38485.43
524.78	38806.08
524.96	39023.75
525.13	39082.27
525.30	39152.48
525.47	39360.79
525.64	38651.61
525.81	38873.96
525.98	39033.11
526.16	38326.27
526.33	38153.07
526.50	38845.87
526.67	38492.45
526.84	38579.05
527.01	38466.70
527.18	38799.06
527.36	39321.00
527.53	39559.73
527.70	39704.85
527.87	39758.68
528.04	39482.50
528.21	39845.28
528.38	39988.05
528.55	40238.49
528.72	40280.62
528.89	40055.93
529.07	40189.34
529.24	40084.01
529.41	40208.06
529.58	40002.10
529.75	40460.84
529.92	40076.99
530.09	40275.94
530.26	40268.92
530.43	40509.99
530.60	40308.71
530.77	40844.69
530.94	40924.27
531.11	41020.23
531.28	40678.51
531.46	40830.65
531.63	40732.34
531.80	40840.01
531.97	40832.99
532.14	41106.83
532.31	40002.10
532.48	40844.69
532.65	41214.49
532.82	40837.67
532.99	41181.73
533.16	41090.44
533.33	41490.68
533.50	41256.62
533.67	41392.37
533.84	41261.30
534.01	41516.42
534.18	41645.15
534.35	41624.09
534.52	41315.14
534.69	41787.92
534.86	42213.90
535.03	41464.93
535.20	42071.13
535.37	42380.08
535.54	42227.95
535.71	42052.41
535.88	42185.82
536.05	41605.36
536.22	42225.60
536.38	42043.04
536.55	42309.86
536.72	42096.88
536.89	41621.75
537.06	41972.83
537.23	42347.31
537.40	42370.72
537.57	42391.78
537.74	42649.24
537.91	42955.85
538.08	42845.85
538.25	42036.02
538.42	42300.50
538.59	43173.52
538.75	42082.83
538.92	42588.39
539.09	43012.02
539.26	42447.96
539.43	42483.06
539.60	42527.53
539.77	42845.85
539.94	42799.04
540.11	42401.14
540.28	42312.20
540.44	42878.61
540.61	42866.91
540.78	42731.16
540.95	43110.33
541.12	43030.75
541.29	42913.72
541.46	42887.98
541.62	42866.91
541.79	43150.12
541.96	43040.11
542.13	43400.55
542.30	43468.43
542.47	43641.63
542.63	43105.65
542.80	43466.09
542.97	44292.30
543.14	44311.02
543.31	43718.87
543.48	43721.21
543.64	44552.10
543.81	45022.54
543.98	44091.01
544.15	43892.07
544.32	44219.74
544.48	44655.08
544.65	44395.28
544.82	44273.57
544.99	43800.79
545.16	44463.16
545.32	44196.34
545.49	44896.16
545.66	44311.02
545.83	44362.51
546.00	44701.89
546.16	44282.94
546.33	44301.66
546.50	44575.50
546.67	44215.06
546.83	44648.06
547.00	44315.70
547.17	44526.35
547.34	43955.26
547.50	44184.63
547.67	44753.38
547.84	44718.28
548.00	44680.83
548.17	45088.08
548.34	44753.38
548.51	45291.71
548.67	45123.19
548.84	45581.93
549.01	45010.84
549.18	44722.96
549.34	45336.18
549.51	45277.66
549.68	45397.03
549.84	45282.34
550.01	45394.69
550.18	45139.57
550.34	45188.72
550.51	45134.89
550.68	45450.86
550.84	44994.46
551.01	45869.82
551.18	45359.58
551.34	45645.13
551.51	45570.23
551.68	45680.24
551.84	45865.14
552.01	45478.95
552.18	45310.43
552.34	45230.85
552.51	45886.20
552.68	45394.69
552.84	45581.93
553.01	46075.79
553.18	45937.69
553.34	45743.43
553.51	45492.99
553.67	45612.36
553.84	46176.43
554.01	45652.15
554.17	46316.86
554.34	46588.36
554.51	46335.59
554.67	46300.48
554.84	46010.25
555.00	46199.83
555.17	46045.36
555.33	46284.09
555.50	45851.09
555.67	45940.04
555.83	46211.54
556.00	46279.41
556.16	46461.97
556.33	46759.22
556.50	46532.19
556.66	46106.21
556.83	46340.27
556.99	46562.62
557.16	46375.37
557.32	46831.78
557.49	46520.49
557.65	46366.01
557.82	46085.15
557.98	46356.65
558.15	46038.34
558.32	46728.80
558.48	46232.60
558.65	46876.25
558.81	46476.02
558.98	46590.70
559.14	46068.76
559.31	46653.90
559.47	46155.36
559.64	46431.55
559.80	46550.91
559.97	46431.55
560.13	46326.22
560.30	46902.00
560.46	46670.28
560.63	46719.43
560.79	46990.94
560.96	46763.90
561.12	46609.43
561.29	46712.41
561.45	46749.86
561.61	47201.58
561.78	46920.72
561.94	46569.64
562.11	47051.79
562.27	46679.64
562.44	47100.94
562.60	47065.83
562.77	47208.61
562.93	46930.08
563.10	47047.11
563.26	46478.36
563.42	47042.43
563.59	46763.90
563.75	47143.07
563.92	46897.31
564.08	46799.01
564.24	47126.69
564.41	47019.02
564.57	47030.72
564.74	47428.62
564.90	47140.73
565.07	46628.15
565.23	47213.29
565.39	46820.08
565.56	47316.27
565.72	46951.15
565.88	46836.46
566.05	47114.98
566.21	47126.69
566.38	47154.77
566.54	46972.21
566.70	47466.06
566.87	47185.20
567.03	47051.79
567.19	47824.17
567.36	47260.10
567.52	47042.43
567.68	47187.54
567.85	46824.76
568.01	47220.31
568.17	46684.33
568.34	47522.24
568.50	46850.50
568.66	47320.95
568.83	47035.41
568.99	47236.69
569.15	47164.14
569.32	47316.27
569.48	47274.14
569.64	47325.63
569.81	47227.33
569.97	47049.45
570.13	47468.40
570.30	46852.84
570.46	46700.71
570.62	47033.07
570.78	46717.09
570.95	47002.64
571.11	47164.14
571.27	47281.16
571.43	46941.78
571.60	47405.21
571.76	47196.90
571.92	47234.35
572.09	47381.80
572.25	47166.48
572.41	47398.19
572.57	47283.50
572.74	47672.03
572.90	47316.27
573.06	47342.02
573.22	47276.48
573.38	47562.03
573.55	47056.47
573.71	47416.91
573.87	47402.87
574.03	47255.42
574.20	47416.91
574.36	47222.65
574.52	47503.51
574.68	47625.22
574.84	47262.44
575.01	47538.62
575.17	47105.62
575.33	47007.32
575.49	47232.01
575.65	47709.48
575.82	47587.77
575.98	47440.32
576.14	47742.25
576.30	47590.11
576.46	47040.09
576.62	47161.79
576.79	47072.85
576.95	47241.37
577.11	47388.83
577.27	47477.77
577.43	47419.25
577.59	47152.43
577.75	47557.35
577.92	47250.74
578.08	46656.24
578.24	47131.37
578.40	47201.58
578.56	47014.34
578.72	47379.46
578.88	47660.33
579.04	47468.40
579.21	47496.49
579.37	47356.06
579.53	47309.25
579.69	47318.61
579.85	47765.65
580.01	47400.53
580.17	47278.82
580.33	47814.80
580.49	47779.70
580.65	47437.98
580.82	47232.01
580.98	47634.58
581.14	46731.14
581.30	47515.22
581.46	47295.21
581.62	47931.83
581.78	47313.93
581.94	47648.63
582.10	47573.73
582.26	47702.46
582.42	47400.53
582.58	47540.96
582.74	47524.58
582.90	47297.55
583.06	47587.77
583.22	47482.45
583.38	47997.37
583.54	47590.11
583.70	47510.53
583.86	47384.15
584.02	47540.96
584.18	47849.91
584.34	47547.98
584.50	47763.31
584.66	47114.98
584.82	47505.85
584.98	47234.35
585.14	47304.57
585.30	47278.82
585.46	47337.33
585.62	47077.54
585.78	47180.52
585.94	46976.89
586.10	46850.50
586.26	47119.66
586.42	47681.39
586.58	47522.24
586.74	47899.06
586.90	47753.95
587.06	47606.50
587.22	47878.00
587.38	47093.92
587.54	47863.96
587.70	47723.52
587.86	47435.64
588.02	47360.74
588.18	47709.48
588.34	47012.00
588.49	47023.70
588.65	47129.03
588.81	46525.17
588.97	46838.80
589.13	46869.23
589.29	46787.31
589.45	46887.95
589.61	47536.28
589.77	47449.68
589.93	47536.28
590.08	47735.23
590.24	47791.40
590.40	48025.45
590.56	47875.66
590.72	47332.65
590.88	47199.24
591.04	47224.99
591.20	47997.37
591.35	47915.45
591.51	47892.04
591.67	47370.10
591.83	47239.03
591.99	47742.25
592.15	47093.92
592.31	47831.19
592.46	47667.35
592.62	47428.62
592.78	47728.20
592.94	47915.45
593.10	47353.72
593.26	47775.02
593.41	47243.71
593.57	47178.18
593.73	47421.59
593.89	47325.63
594.05	47576.07
594.20	47360.74
594.36	47807.78
594.52	47601.82
594.68	47594.79
594.84	47737.57
594.99	47641.60
595.15	47318.61
595.31	47430.96
595.47	47533.94
595.62	47339.68
595.78	47639.26
595.94	48030.13
596.10	48250.14
596.25	48081.63
596.41	47901.40
596.57	47622.88
596.73	47662.67
596.88	46953.49
597.04	47585.43
597.20	47793.74
597.36	47569.05
597.51	47739.91
597.67	47721.18
597.83	47988.00
597.99	47398.19
598.14	47250.74
598.30	47927.15
598.46	47950.56
598.61	47655.65
598.77	47594.79
598.93	47697.78
599.09	47810.12
599.24	47805.44
599.40	47943.53
599.56	47702.46
599.71	47859.27
599.87	48236.10
600.03	47732.89
600.18	47824.17
600.34	47447.34
600.50	47711.82
600.65	47463.72
600.81	47611.18
600.97	47983.32
601.12	47924.81
601.28	48128.44
601.44	48074.60
601.59	47826.51
601.75	47393.51
601.91	47400.53
602.06	47601.82
602.22	47751.61
602.37	47456.70
602.53	47676.71
602.69	47807.78
602.84	47482.45
603.00	47302.23
603.16	47377.12
603.31	47435.64
603.47	47292.86
603.62	47349.04
603.78	47379.46
603.94	47721.18
604.09	47931.83
604.25	47742.25
604.40	47625.22
604.56	47437.98
604.71	47672.03
604.87	47325.63
605.03	47384.15
605.18	46897.31
605.34	47545.64
605.49	46887.95
605.65	47325.63
605.80	48034.81
605.96	47739.91
606.12	47641.60
606.27	47676.71
606.43	47370.10
606.58	47782.04
606.74	47234.35
606.89	47515.22
607.05	47325.63
607.20	47327.97
607.36	47782.04
607.51	48215.04
607.67	47447.34
607.82	47189.88
607.98	47452.02
608.13	47309.25
608.29	47496.49
608.44	47295.21
608.60	46873.91
608.75	47061.15
608.91	46967.53
609.06	47196.90
609.22	46843.48
609.37	46646.88
609.53	47232.01
609.68	47498.83
609.84	47194.56
609.99	47203.92
610.15	46939.44
610.30	46775.61
610.46	46653.90
610.61	47161.79
610.76	47674.37
610.92	47138.39
611.07	46869.23
611.23	47037.75
611.38	46490.06
611.54	46719.43
611.69	47117.32
611.84	47030.72
612.00	46962.85
612.15	46993.28
612.31	46382.40
612.46	46904.34
612.62	46749.86
612.77	46560.28
612.92	47058.81
613.08	46845.82
613.23	46553.26
613.39	46529.85
613.54	46223.24
613.69	46305.16
613.85	46195.15
614.00	46234.94
614.15	46965.19
614.31	46527.51
614.46	47171.16
614.62	46660.92
614.77	46293.46
614.92	46696.03
615.08	46199.83
615.23	46288.77
615.38	46471.34
615.54	46033.66
615.69	46153.02
615.84	46052.38
616.00	46408.14
616.15	46363.67
616.30	46522.83
616.46	45963.44
616.61	46007.91
616.76	46106.21
616.92	46256.01
617.07	45916.63
617.22	45918.97
617.37	46045.36
617.53	46438.57
617.68	45989.19
617.83	45839.39
617.99	45998.55
618.14	45851.09
618.29	46258.35
618.45	45914.29
618.60	46071.10
618.75	45652.15
618.90	45923.65
619.06	45741.09
619.21	45827.69
619.36	46129.62
619.51	45949.40
619.67	45544.48
619.82	45942.38
619.97	46174.09
620.12	45642.79
620.28	45645.13
620.43	45509.38
620.58	45551.51
620.73	45462.57
620.89	45921.31
621.04	45617.04
621.19	45308.09
621.34	45289.37
621.49	45256.60
621.65	45244.90
621.80	45453.20
621.95	44804.88
622.10	45064.67
622.25	45495.33
622.41	45144.25
622.56	44804.88
622.71	45268.30
622.86	45240.21
623.01	45408.73
623.16	45167.66
623.32	44975.73
623.47	45291.71
623.62	44961.69
623.77	44980.42
623.92	44821.26
624.07	44825.94
624.23	44987.44
624.38	44949.99
624.53	45254.26
624.68	45226.17
624.83	44825.94
624.98	44994.46
625.13	44430.39
625.29	44968.71
625.44	44598.91
625.59	44531.03
625.74	44390.60
625.89	44018.46
626.04	44299.32
626.19	44236.12
626.34	44748.70
626.49	44524.01
626.65	44091.01
626.80	44650.40
626.95	44081.65
627.10	44697.21
627.25	44048.88
627.40	43746.95
627.55	43564.39
627.70	43674.40
627.85	43793.76
628.00	44467.84
628.15	44336.77
628.30	44191.65
628.45	44446.77
628.60	44048.88
628.76	44311.02
628.91	43962.28
629.06	44072.29
629.21	43613.54
629.36	43456.73
629.51	43768.02
629.66	43793.76
629.81	43276.51
629.96	43533.96
630.11	43643.97
630.26	43889.73
630.41	43732.91
630.56	43934.20
630.71	43798.44
630.86	43714.19
631.01	43660.35
631.16	43423.96
631.31	43232.04
631.46	43215.65
631.61	43129.05
631.76	43732.91
631.91	43456.73
632.06	43508.22
632.21	43709.50
632.36	43552.69
632.51	43274.16
632.66	43412.26
632.81	43150.12
632.96	43386.51
633.10	42920.74
633.25	42569.66
633.40	42878.61
633.55	43089.26
633.70	43381.83
633.85	43140.75
634.00	43203.95
634.15	43047.13
634.30	42859.89
634.45	42700.73
634.60	43026.07
634.75	42864.57
634.90	42810.74
635.05	42777.97
635.19	42955.85
635.34	42972.24
635.49	42740.52
635.64	43042.45
635.79	42160.07
635.94	42768.61
636.09	42979.26
636.24	42497.11
636.39	42424.55
636.53	42698.39
636.68	42277.10
636.83	42527.53
636.98	42850.53
637.13	42019.64
637.28	43007.34
637.43	42866.91
637.57	42494.77
637.72	42230.29
637.87	42220.92
638.02	42326.25
638.17	42300.50
638.32	42066.45
638.46	42036.02
638.61	41935.38
638.76	42134.32
638.91	42361.36
639.06	41801.97
639.20	41940.06
639.35	42246.67
639.50	41825.37
639.65	42256.03
639.80	42230.29
639.94	42155.39
640.09	41436.84
640.24	42141.35
640.39	41523.44
640.54	41706.01
640.68	41998.57
640.83	41858.14
640.98	41511.74
641.13	41106.83
641.27	41724.73
641.42	41469.61
641.57	41872.18
641.72	41921.34
641.86	41495.36
642.01	41368.97
642.16	41364.29
642.31	40980.44
642.45	41427.48
642.60	41464.93
642.75	41331.52
642.90	41525.78
643.04	41258.96
643.19	41034.27
643.34	41237.90
643.48	41013.21
643.63	41612.38
643.78	41174.70
643.93	41099.81
644.07	40781.49
644.22	40811.92
644.37	40870.43
644.51	40950.01
644.66	40975.76
644.81	41029.59
644.95	40786.18
645.10	40889.16
645.25	41205.13
645.39	41610.04
645.54	41558.55
645.69	41024.91
645.83	40797.88
645.98	41036.61
646.13	40725.32
646.27	40636.38
646.42	40540.42
646.57	40561.48
646.71	40634.04
646.86	40559.14
647.00	41179.39
647.15	40891.50
647.30	40725.32
647.44	40196.36
647.59	40662.13
647.74	40318.07
647.88	40201.04
648.03	40425.73
648.17	40285.30
648.32	40130.83
648.47	40435.10
648.61	39978.69
648.76	40739.36
648.90	40158.91
649.05	40208.06
649.20	39901.45
649.34	40568.51
649.49	39903.79
649.63	40006.78
649.78	40617.66
649.92	40034.86
650.07	40240.83
650.21	39969.33
650.36	39903.79
650.51	39821.87
650.65	40313.39
650.80	40526.38
650.94	40067.63
651.09	39873.37
651.23	39847.62
651.38	39702.51
651.52	39840.60
651.67	39557.39
651.81	39571.44
651.96	39435.69
652.10	39800.81
652.25	39639.31
652.39	39342.06
652.54	39920.18
652.68	39578.46
652.83	39842.94
652.97	39721.23
653.12	39564.42
653.26	39351.43
653.41	39346.75
653.55	39311.64
653.70	39386.54
653.84	39749.32
653.99	39426.32
654.13	39098.65
654.27	39557.39
654.42	39529.31
654.56	39084.61
654.71	39344.41
654.85	39297.59
655.00	38944.17
655.14	39143.12
655.29	38787.36
655.43	39295.25
655.57	38752.25
655.72	38452.66
655.86	38232.65
656.01	38525.22
656.15	38005.62
656.30	38227.97
656.44	38267.76
656.58	38412.87
656.73	38548.62
656.87	38665.65
657.01	38459.68
657.16	37825.40
657.30	37956.47
657.45	37783.27
657.59	38520.54
657.73	38209.25
657.88	38810.76
658.02	38534.58
658.16	38583.73
658.31	38417.55
658.45	38438.62
658.60	38155.41
658.74	38476.07
658.88	38476.07
659.03	38391.81
659.17	37991.58
659.31	38124.99
659.46	37846.46
659.60	37806.67
659.74	37769.22
659.89	37832.42
660.03	38478.41
660.17	37816.04
660.32	37748.16
660.46	38183.50
660.60	37727.10
660.74	37706.03
660.89	37654.54
661.03	37308.14
661.17	37675.60
661.32	37205.16
661.46	37422.83
661.60	37270.69
661.74	37050.68
661.89	37383.04
662.03	37359.63
662.17	37542.19
662.31	36945.36
662.46	36870.46
662.60	37766.88
662.74	37242.60
662.88	37294.10
663.03	36739.39
663.17	36975.78
663.31	36568.53
663.45	36933.65
663.60	36964.08
663.74	36355.54
663.88	36781.52
664.02	36699.60
664.17	36601.30
664.31	36545.12
664.45	36381.29
664.59	36264.26
664.73	36306.39
664.88	36392.99
665.02	35906.16
665.16	36425.76
665.30	36182.34
665.44	36479.59
665.59	35641.68
665.73	35683.81
665.87	35814.88
666.01	35957.65
666.15	35913.18
666.29	35849.99
666.44	35725.94
666.58	35358.47
666.72	35786.79
666.86	35590.19
667.00	35704.87
667.14	35627.63
667.28	35585.50
667.43	35426.35
667.57	35072.93
667.71	34712.49
667.85	35381.88
667.99	34630.57
668.13	35030.80
668.27	34550.99
668.41	34946.54
668.56	34649.29
668.70	34653.97
668.84	35049.52
668.98	34967.60
669.12	34806.11
669.26	34981.65
669.40	34305.23
669.54	34483.11
669.68	34391.83
669.82	34036.07
669.96	34059.48
670.10	34274.80
670.25	34445.66
670.39	34625.89
670.53	34000.96
670.67	34000.96
670.81	34473.75
670.95	34038.41
671.09	34117.99
671.23	33979.90
671.37	34153.10
671.51	34096.92
671.65	33769.25
671.79	33406.47
671.93	33432.21
672.07	33605.41
672.21	33586.69
672.35	33008.58
672.49	33242.63
672.63	33352.63
672.77	33350.29
672.91	32826.01
673.05	32680.90
673.19	33310.50
673.33	33366.68
673.47	32594.30
673.61	32364.93
673.75	32882.19
673.89	32311.10
674.03	31821.92
674.17	32135.56
674.31	32458.55
674.45	32247.90
674.59	32196.41
674.73	32149.60
674.87	32170.66
675.01	32149.60
675.15	31625.32
675.29	32292.37
675.43	31674.47
675.56	31707.24
675.70	31501.27
675.84	31751.71
675.98	30834.22
676.12	31325.73
676.26	31632.34
676.40	31159.55
676.54	31152.53
676.68	31136.15
676.82	30932.52
676.96	30548.67
677.10	30611.87
677.23	30808.47
677.37	30597.82
677.51	30534.63
677.65	30281.85
677.79	30127.38
677.93	30532.29
678.07	30082.91
678.21	30059.50
678.34	30064.18
678.48	29837.15
678.62	29844.17
678.76	30054.82
678.90	29645.23
679.04	29687.36
679.18	29701.40
679.31	29326.91
679.45	29542.24
679.59	29118.60
679.73	28952.43
679.87	28952.43
680.00	29146.69
680.14	29118.60
680.28	28907.96
680.42	28376.66
680.56	28311.12
680.70	28655.18
680.83	28067.70
680.97	27971.74
681.11	27716.62
681.25	27805.56
681.39	27964.72
681.52	28046.64
681.66	28027.92
681.80	28053.66
681.94	27688.54
682.07	27770.46
682.21	27541.08
682.35	27349.16
682.49	27569.17
682.62	27529.38
682.76	27182.98
682.90	27267.24
683.04	27152.55
683.17	26934.88
683.31	26698.49
683.45	27131.49
683.59	26764.03
683.72	26796.79
683.86	26417.63
684.00	26221.02
684.13	26228.04
684.27	26122.72
684.41	26363.79
684.55	25699.08
684.68	25530.56
684.82	25769.30
684.96	25935.48
685.09	25607.80
685.23	25762.28
685.37	25680.36
685.50	25366.73
685.64	25308.21
685.78	24945.43
685.91	25142.03
686.05	25324.60
686.19	25022.67
686.32	25062.46
686.46	24659.88
686.60	24114.54
686.73	24163.69
686.87	24119.22
687.01	23901.55
687.14	23796.23
687.28	23934.32
687.42	23489.62
687.55	23353.87
687.69	23489.62
687.82	23655.79
687.96	23693.24
688.10	23711.97
688.23	23349.18
688.37	23262.58
688.50	23278.97
688.64	23042.57
688.78	22862.35
688.91	22684.47
689.05	22874.06
689.18	22885.76
689.32	22403.61
689.46	22738.30
689.59	22834.27
689.73	23070.66
689.86	22927.89
690.00	22768.73
690.13	22527.66
690.27	22560.42
690.41	22375.52
690.54	21996.35
690.68	21942.52
690.81	21972.95
690.95	21755.28
691.08	21572.72
691.22	21771.66
691.35	21654.64
691.49	21628.89
691.62	21820.81
691.76	21596.12
691.89	22010.40
692.03	21205.25
692.16	21521.23
692.30	21378.45
692.43	21015.67
692.57	20739.49
692.70	20828.43
692.84	20828.43
692.97	20786.30
693.11	20341.60
693.24	20294.79
693.38	20161.37
693.51	20140.31
693.65	20194.14
693.78	20149.67
693.92	20402.45
694.05	19782.21
694.19	19889.87
694.32	19854.76
694.45	20095.84
694.59	19843.06
694.72	19716.67
694.86	19669.86
694.99	19260.27
695.13	19307.08
695.26	19386.66
695.39	18773.44
695.53	19105.79
695.66	19112.81
695.80	19131.54
695.93	19019.19
696.07	18883.44
696.20	18712.58
696.33	18977.06
696.47	18553.43
696.60	18541.72
696.73	18427.04
696.87	18218.73
697.00	18228.09
697.14	18223.41
697.27	18001.06
697.40	18258.52
697.54	18523.00
697.67	17778.71
697.80	17806.80
697.94	17811.48
698.07	17809.14
698.21	17350.39
698.34	17547.00
698.47	17497.84
698.61	17350.39
698.74	17322.30
698.87	17109.32
699.01	16788.66
699.14	16968.88
699.27	16765.26
699.40	17245.07
699.54	16468.01
699.67	16924.41
699.80	16886.97
699.94	16835.47
700.07	16856.54
700.20	16449.28
700.34	16446.94
700.47	16748.87
700.60	16325.24
700.73	16664.61
700.87	16137.99
701.00	15974.16
701.13	16156.72
701.26	15882.88
701.40	15709.68
701.53	15772.87
701.66	15545.84
701.79	16044.37
701.93	15545.84
702.06	15475.62
702.19	15386.68
702.32	15676.91
702.46	15510.73
702.59	15353.91
702.72	15091.77
702.85	15309.44
702.99	15384.34
703.12	15389.02
703.25	15019.22
703.38	15023.90
703.51	14799.21
703.65	14862.40
703.78	14775.80
703.91	14829.63
704.04	14717.29
704.17	14473.87
704.31	14417.70
704.44	14157.90
704.57	14359.19
704.70	14305.35
704.83	14064.28
704.96	14239.82
705.10	14167.26
705.23	14101.73
>>>>>End Processed Spectral Data<<<<<
