SpectraSuite Data File
++++++++++++++++++++++++++++++++++++
Date: Fri Oct 25 11:34:06 EDT 2013
User: price-jones
Dark Spectrum Present: No
Reference Spectrum Present: No
Number of Sampled Component Spectra: 1
Spectrometers: USB2+H05261
Integration Time (usec): 100000 (USB2+H05261)
Spectra Averaged: 1 (USB2+H05261)
Boxcar Smoothing: 0 (USB2+H05261)
Correct for Electrical Dark: No (USB2+H05261)
Strobe/Lamp Enabled: No (USB2+H05261)
Correct for Detector Non-linearity: No (USB2+H05261)
Correct for Stray Light: No (USB2+H05261)
Number of Pixels in Processed Spectrum: 2048
>>>>>Begin Processed Spectral Data<<<<<
365.73	297.25
365.92	297.25
366.12	297.25
366.32	135.75
366.52	182.56
366.72	196.60
366.91	250.44
367.11	154.48
367.31	117.03
367.51	168.52
367.70	128.73
367.90	238.73
368.10	145.11
368.30	177.88
368.49	198.95
368.69	252.78
368.89	215.33
369.09	163.84
369.28	198.95
369.48	170.86
369.68	177.88
369.87	203.63
370.07	262.14
370.27	280.86
370.47	332.36
370.66	521.94
370.86	550.03
371.06	554.71
371.25	498.53
371.45	535.98
371.65	566.41
371.84	484.49
372.04	533.64
372.24	564.07
372.44	561.73
372.63	554.71
372.83	568.75
373.03	559.39
373.22	512.58
373.42	559.39
373.62	624.92
373.81	629.60
374.01	671.73
374.21	678.76
374.40	678.76
374.60	624.92
374.79	631.94
374.99	564.07
375.19	634.29
375.38	634.29
375.58	702.16
375.78	603.86
375.97	669.39
376.17	770.04
376.37	704.50
376.56	645.99
376.76	622.58
376.95	674.07
377.15	737.27
377.35	669.39
377.54	671.73
377.74	699.82
377.93	697.48
378.13	641.31
378.33	653.01
378.52	720.88
378.72	610.88
378.91	664.71
379.11	671.73
379.31	629.60
379.50	737.27
379.70	767.70
379.89	645.99
380.09	702.16
380.28	657.69
380.48	739.61
380.68	660.03
380.87	678.76
381.07	777.06
381.26	709.18
381.46	814.51
381.65	795.78
381.85	772.38
382.04	753.65
382.24	767.70
382.43	695.14
382.63	737.27
382.83	800.46
383.02	816.85
383.22	809.83
383.41	748.97
383.61	760.67
383.80	802.80
384.00	802.80
384.19	765.36
384.39	856.64
384.58	802.80
384.78	842.59
384.97	894.08
385.17	800.46
385.36	821.53
385.56	779.40
385.75	805.14
385.95	856.64
386.14	772.38
386.34	706.84
386.53	830.89
386.72	877.70
386.92	910.47
387.11	903.45
387.31	966.64
387.50	901.11
387.70	973.66
387.89	821.53
388.09	929.19
388.28	940.90
388.48	945.58
388.67	961.96
388.86	908.13
389.06	997.07
389.25	961.96
389.45	1013.45
389.64	863.66
389.84	933.87
390.03	926.85
390.22	917.49
390.42	971.32
390.61	971.32
390.81	903.45
391.00	924.51
391.19	1055.58
391.39	931.53
391.58	1022.81
391.78	973.66
391.97	1100.05
392.16	997.07
392.36	1041.54
392.55	1027.50
392.75	959.62
392.94	1015.79
393.13	1025.15
393.33	1069.62
393.52	994.73
393.71	1116.44
393.91	1095.37
394.10	1034.52
394.29	1163.25
394.49	1128.14
394.68	1153.88
394.88	1130.48
395.07	1109.41
395.26	1156.22
395.46	1228.78
395.65	1249.85
395.84	1163.25
396.04	1163.25
396.23	1245.16
396.42	1156.22
396.62	1294.32
396.81	1137.50
397.00	1196.01
397.19	1170.27
397.39	1128.14
397.58	1242.82
397.77	1146.86
397.97	1245.16
398.16	1163.25
398.35	1313.04
398.55	1205.38
398.74	1245.16
398.93	1331.76
399.12	1252.19
399.32	1317.72
399.51	1252.19
399.70	1310.70
399.90	1317.72
400.09	1315.38
400.28	1331.76
400.47	1336.45
400.67	1355.17
400.86	1329.42
401.05	1366.87
401.24	1362.19
401.44	1453.47
401.63	1418.36
401.82	1397.30
402.01	1451.13
402.21	1469.86
402.40	1446.45
402.59	1474.54
402.78	1481.56
402.97	1490.92
403.17	1474.54
403.36	1582.20
403.55	1530.71
403.74	1563.48
403.93	1502.62
404.13	1645.40
404.32	1582.20
404.51	1617.31
404.70	1596.25
404.89	1614.97
405.09	1692.21
405.28	1661.78
405.47	1621.99
405.66	1722.63
405.85	1671.14
406.05	1600.93
406.24	1701.57
406.43	1701.57
406.62	1717.95
406.81	1657.10
407.00	1708.59
407.20	1652.42
407.39	1727.32
407.58	1856.04
407.77	1858.39
407.96	1799.87
408.15	1734.34
408.34	1839.66
408.54	1867.75
408.73	1870.09
408.92	1846.68
409.11	1900.52
409.30	1933.28
409.49	1834.98
409.68	2045.63
409.87	1930.94
410.07	2038.61
410.26	2052.65
410.45	2118.18
410.64	1980.09
410.83	1973.07
411.02	2090.10
411.21	2094.78
411.40	2078.40
411.59	2188.40
411.78	2134.57
411.98	2115.84
412.17	2242.23
412.36	2174.36
412.55	2415.43
412.74	2319.47
412.93	2225.85
413.12	2354.58
413.31	2286.70
413.50	2326.49
413.69	2228.19
413.88	2408.41
414.07	2499.69
414.26	2408.41
414.45	2485.65
414.64	2476.29
414.83	2537.14
415.02	2626.08
415.22	2644.81
415.41	2626.08
415.60	2668.21
415.79	2672.89
415.98	2640.12
416.17	2738.43
416.36	2743.11
416.55	2698.64
416.74	2623.74
416.93	2818.00
417.12	2672.89
417.31	2803.96
417.50	2771.19
417.69	2998.23
417.88	2899.92
418.07	2775.88
418.26	2829.71
418.45	3030.99
418.64	3152.70
418.83	3012.27
419.02	2972.48
419.21	3021.63
419.39	3005.25
419.58	3014.61
419.77	2984.18
419.96	3176.11
420.15	3063.76
420.34	3171.43
420.53	3035.67
420.72	3262.71
420.91	3164.40
421.10	3148.02
421.29	3269.73
421.48	3241.64
421.67	3318.88
421.86	3227.60
422.05	3206.53
422.24	3286.11
422.43	3318.88
422.61	3302.50
422.80	3290.79
422.99	3262.71
423.18	3316.54
423.37	3480.38
423.56	3478.04
423.75	3295.47
423.94	3241.64
424.13	3119.93
424.32	3215.90
424.50	3342.28
424.69	3403.14
424.88	3574.00
425.07	3218.24
425.26	3325.90
425.45	3494.42
425.64	3356.33
425.83	3410.16
426.01	3361.01
426.20	3492.08
426.39	3487.40
426.58	3449.95
426.77	3372.71
426.96	3684.00
427.15	3459.31
427.33	3489.74
427.52	3342.28
427.71	3564.64
427.90	3508.46
428.09	3676.98
428.28	3613.79
428.46	3648.90
428.65	3599.74
428.84	3644.21
429.03	3784.65
429.22	3527.19
429.40	3726.13
429.59	3639.53
429.78	3735.50
429.97	3552.93
430.16	3714.43
430.34	3609.11
430.53	3836.14
430.72	3684.00
430.91	3871.25
431.10	3805.71
431.28	3829.12
431.47	3967.21
431.66	3929.76
431.85	3873.59
432.03	4014.02
432.22	4035.08
432.41	3950.82
432.60	3974.23
432.79	4025.72
432.97	4030.40
433.16	3992.95
433.35	4100.62
433.54	4070.19
433.72	4063.17
433.91	3997.64
434.10	4145.09
434.28	4100.62
434.47	4173.18
434.66	4276.16
434.85	4205.94
435.03	4329.99
435.22	4227.01
435.41	4451.70
435.59	4290.20
435.78	4308.93
435.97	4283.18
436.16	4374.46
436.34	4329.99
436.53	4257.43
436.72	4498.51
436.90	4301.90
437.09	4440.00
437.28	4341.69
437.46	4491.49
437.65	4383.82
437.84	4489.15
438.02	4456.38
438.21	4561.70
438.40	4306.59
438.58	4671.71
438.77	4709.16
438.96	4608.51
439.14	4704.48
439.33	4688.09
439.52	4966.62
439.70	4830.87
439.89	4961.94
440.08	4968.96
440.26	4802.78
440.45	4891.72
440.63	4985.34
440.82	4985.34
441.01	4940.87
441.19	5130.45
441.38	5172.58
441.57	5100.03
441.75	5238.12
441.94	5268.55
442.12	5298.97
442.31	5348.12
442.50	5298.97
442.68	5345.78
442.87	5401.96
443.05	5383.23
443.24	5563.45
443.43	5343.44
443.61	5465.15
443.80	5640.69
443.98	5378.55
444.17	5022.79
444.35	5352.81
444.54	5589.20
444.73	5394.93
444.91	5570.48
445.10	5542.39
445.28	5518.98
445.47	5561.11
445.65	5437.06
445.84	5764.74
446.02	5673.46
446.21	5474.51
446.39	5575.16
446.58	5621.97
446.77	5605.58
446.95	5465.15
447.14	5563.45
447.32	5526.00
447.51	5643.03
447.69	5497.92
447.88	5593.88
448.06	5717.93
448.25	5540.05
448.43	5797.51
448.62	5619.63
448.80	5610.26
448.99	5720.27
449.17	5797.51
449.36	5708.57
449.54	5895.81
449.73	5921.56
449.91	5984.75
450.10	5982.41
450.28	5968.37
450.46	6061.99
450.65	5949.64
450.83	6050.28
451.02	5926.24
451.20	6115.82
451.39	6179.01
451.57	5935.60
451.76	6001.13
451.94	6050.28
452.13	6183.70
452.31	6136.88
452.49	6157.95
452.68	6190.72
452.86	6054.97
453.05	6293.70
453.23	6218.80
453.42	6422.43
453.60	6246.89
453.78	6363.92
453.97	6197.74
454.15	6146.25
454.34	6279.66
454.52	6277.32
454.70	6429.45
454.89	6506.69
455.07	6558.18
455.26	6588.61
455.44	6736.06
455.62	6553.50
455.81	6431.79
455.99	6715.00
456.17	6670.53
456.36	6675.21
456.54	6724.36
456.73	6822.66
456.91	6913.94
457.09	6841.39
457.28	7070.76
457.46	7052.03
457.64	6970.12
457.83	6911.60
458.01	6722.02
458.19	7091.82
458.38	6808.62
458.56	7119.91
458.74	7129.27
458.93	7000.54
459.11	7075.44
459.29	7094.16
459.48	7091.82
459.66	7063.74
459.84	7220.55
460.03	7452.27
460.21	7162.04
460.39	7218.21
460.57	7248.64
460.76	7286.09
460.94	7353.96
461.12	7180.76
461.31	7250.98
461.49	7485.03
461.67	7353.96
461.85	7559.93
462.04	7400.77
462.22	7880.58
462.40	7466.31
462.59	7487.37
462.77	7382.05
462.95	7403.11
463.13	7482.69
463.32	7693.34
463.50	7634.83
463.68	7765.90
463.86	7929.74
464.05	7693.34
464.23	7564.61
464.41	7728.45
464.59	7651.21
464.78	7918.03
464.96	8070.17
465.14	7705.04
465.32	7990.59
465.50	8035.06
465.69	7997.61
465.87	7960.16
466.05	7896.97
466.23	8109.96
466.41	8028.04
466.60	8145.06
466.78	7840.79
466.96	7939.10
467.14	8065.49
467.32	8091.23
467.51	8051.44
467.69	7864.20
467.87	8035.06
468.05	8056.12
468.23	8116.98
468.41	7992.93
468.60	8234.00
468.78	8362.73
468.96	8465.72
469.14	8358.05
469.32	8503.17
469.50	8306.56
469.69	8568.70
469.87	8592.11
470.05	8472.74
470.23	8667.00
470.41	8578.06
470.59	8812.12
470.77	8477.42
470.95	8685.73
471.14	8877.65
471.32	8723.18
471.50	9039.15
471.68	8800.41
471.86	9013.40
472.04	8933.82
472.22	9301.29
472.40	8819.14
472.58	9078.94
472.77	9071.92
472.95	9132.77
473.13	9607.90
473.31	9039.15
473.49	9205.33
473.67	9268.52
473.85	9301.29
474.03	9441.72
474.21	9530.66
474.39	9476.83
474.57	9771.74
474.75	9659.39
474.93	9762.37
475.12	9703.86
475.30	9867.70
475.48	9858.34
475.66	9771.74
475.84	9905.15
476.02	9984.73
476.20	10017.49
476.38	10167.29
476.56	10286.65
476.74	10289.00
476.92	10298.36
477.10	10305.38
477.28	10281.97
477.46	10377.94
477.64	10586.24
477.82	10775.83
478.00	10988.82
478.18	10759.44
478.36	10993.50
478.54	11133.93
478.72	11002.86
478.90	11463.94
479.08	11351.60
479.26	11407.77
479.44	11503.73
479.62	11648.85
479.80	11672.25
479.98	11669.91
480.16	12086.53
480.34	11754.17
480.52	12025.67
480.70	12044.40
480.88	11578.63
481.06	12053.76
481.24	12060.78
481.41	12163.76
481.59	12692.73
481.77	12521.87
481.95	12503.14
482.13	12432.93
482.31	12800.39
482.49	12854.22
482.67	12835.50
482.85	13224.03
483.03	13308.29
483.21	13446.38
483.39	13645.32
483.57	13462.76
483.74	13748.31
483.92	13694.47
484.10	13673.41
484.28	13958.96
484.46	14169.60
484.64	14305.35
484.82	14083.00
485.00	14406.00
485.18	14635.37
485.35	14911.55
485.53	14754.74
485.71	15035.60
485.89	15112.84
486.07	14953.68
486.25	15070.71
486.43	15360.94
486.61	15241.57
486.78	15602.01
486.96	15344.55
487.14	15978.84
487.32	15719.04
487.50	15880.53
487.68	16060.76
487.85	16119.27
488.03	16304.17
488.21	16915.05
488.39	16463.33
488.57	16996.97
488.75	16652.91
488.92	17116.34
489.10	17172.51
489.28	17043.78
489.46	17362.09
489.64	17537.63
489.81	18045.53
489.99	17640.62
490.17	18005.74
490.35	18075.96
490.53	18136.81
490.70	18047.87
490.88	18157.88
491.06	18148.51
491.24	18565.13
491.41	18633.00
491.59	18621.30
491.77	18930.25
491.95	19042.60
492.13	19396.02
492.30	19330.48
492.48	19318.78
492.66	19499.00
492.84	19669.86
493.01	19709.65
493.19	19548.15
493.37	19791.57
493.54	19789.23
493.72	20397.77
493.90	20407.13
494.08	20334.57
494.25	20622.46
494.43	20765.23
494.61	20725.44
494.79	20765.23
494.96	20641.18
495.14	20971.20
495.32	21174.83
495.49	21399.52
495.67	21462.71
495.85	21774.00
496.02	21736.56
496.20	21722.51
496.38	21958.91
496.55	21713.15
496.73	22450.42
496.91	22288.92
497.09	22118.06
497.26	22696.17
497.44	22331.05
497.62	22778.09
497.79	23012.15
497.97	22710.22
498.14	22913.84
498.32	23185.35
498.50	23068.32
498.67	23487.28
498.85	23543.45
499.03	23653.45
499.20	23880.49
499.38	23204.07
499.56	23709.63
499.73	23917.93
499.91	24187.10
500.08	24341.57
500.26	24084.11
500.44	23850.06
500.61	24346.25
500.79	24442.21
500.97	24432.85
501.14	24556.90
501.32	24650.52
501.49	24847.13
501.67	24842.45
501.84	25069.48
502.02	24982.88
502.20	25273.10
502.37	25083.52
502.55	25165.44
502.72	25336.30
502.90	25577.37
503.07	25558.65
503.25	25408.86
503.43	25310.55
503.60	25788.02
503.78	25905.05
503.95	25748.23
504.13	26029.10
504.30	25998.67
504.48	26080.59
504.65	26309.96
504.83	26487.84
505.01	26520.61
505.18	26836.58
505.36	26799.13
505.53	26878.71
505.71	26703.17
505.88	26911.48
506.06	26909.14
506.23	26909.14
506.41	27068.30
506.58	26962.97
506.76	27236.81
506.93	27709.60
507.11	27630.02
507.28	27585.55
507.46	27711.94
507.63	27845.35
507.81	27831.31
507.98	27847.69
508.16	28056.00
508.33	28105.15
508.50	28121.54
508.68	28177.71
508.85	28552.20
509.03	28407.08
509.20	28163.67
509.38	28589.64
509.55	28713.69
509.73	28231.54
509.90	28762.84
510.08	28641.14
510.25	28716.03
510.42	28643.48
510.60	28861.15
510.77	29062.43
510.95	29462.66
511.12	29181.80
511.30	29284.78
511.47	29420.53
511.64	29380.74
511.82	29558.63
511.99	29645.23
512.17	30071.20
512.34	29523.52
512.51	29811.40
512.69	29759.91
512.86	30127.38
513.04	30017.37
513.21	30256.11
513.38	30644.63
513.56	30417.60
513.73	30356.75
513.90	30829.54
514.08	30597.82
514.25	30801.45
514.43	30878.69
514.60	31101.04
514.77	30962.95
514.95	30895.07
515.12	30925.50
515.29	30899.75
515.47	31438.08
515.64	31440.42
515.81	31124.44
515.99	31482.55
516.16	31613.62
516.33	31330.41
516.51	31576.17
516.68	31391.26
516.85	31527.02
517.03	31964.70
517.20	31967.04
517.37	32149.60
517.54	32013.85
517.72	32222.16
517.89	31892.14
518.06	31889.80
518.24	32327.48
518.41	32116.83
518.58	32613.02
518.75	32390.67
518.93	32503.02
519.10	32601.32
519.27	32460.89
519.45	32697.28
519.62	32463.23
519.79	32753.46
519.96	32884.53
520.14	33017.94
520.31	32912.61
520.48	33186.46
520.65	33345.61
520.83	33715.42
521.00	33954.15
521.17	33883.94
521.34	33787.97
521.52	34146.08
521.69	33858.19
521.86	34054.79
522.03	33738.82
522.20	34213.95
522.38	34244.38
522.55	34284.17
522.72	34347.36
522.89	34485.45
523.07	34637.59
523.24	34476.09
523.41	34672.70
523.58	34593.12
523.75	34398.85
523.92	34335.66
524.10	34623.54
524.27	34927.81
524.44	35035.48
524.61	35042.50
524.78	35290.60
524.96	34864.62
525.13	35367.84
525.30	35754.02
525.47	35484.86
525.64	35262.51
525.81	35637.00
525.98	35765.73
526.16	35393.58
526.33	35859.35
526.50	36062.97
526.67	35751.68
526.84	35924.88
527.01	36098.08
527.18	35695.51
527.36	35931.90
527.53	36233.83
527.70	36385.97
527.87	36371.92
528.04	36079.36
528.21	36423.42
528.38	36371.92
528.55	36336.82
528.72	36196.38
528.89	36151.91
529.07	35920.20
529.24	36540.44
529.41	36870.46
529.58	36910.25
529.75	36624.70
529.92	36779.18
530.09	36980.46
530.26	36978.12
530.43	36910.25
530.60	36985.15
530.77	36465.55
530.94	37223.88
531.11	36655.13
531.28	37099.83
531.46	36891.52
531.63	37607.73
531.80	37567.94
531.97	37490.70
532.14	37502.40
532.31	37345.59
532.48	37830.08
532.65	38298.19
532.82	37120.90
532.99	37715.39
533.16	37411.12
533.33	37518.79
533.50	38286.48
533.67	38010.30
533.84	37352.61
534.01	38012.64
534.18	38249.03
534.35	38368.40
534.52	38473.73
534.69	38260.74
534.86	38206.90
535.03	38906.73
535.20	39044.82
535.37	38359.04
535.54	38738.21
535.71	38932.47
535.88	38696.08
536.05	38974.60
536.22	38829.49
536.38	38684.37
536.55	38932.47
536.72	38424.57
536.89	39002.69
537.06	38934.81
537.23	38838.85
537.40	39185.25
537.57	39199.29
537.74	38703.10
537.91	39306.96
538.08	39084.61
538.25	38967.58
538.42	39529.31
538.59	39615.91
538.75	39246.10
538.92	39529.31
539.09	39585.48
539.26	39686.12
539.43	39365.47
539.60	39889.75
539.77	39777.40
539.94	40388.28
540.11	39978.69
540.28	39683.78
540.44	40025.50
540.61	39985.71
540.78	39751.66
540.95	40016.14
541.12	39758.68
541.29	40009.12
541.46	39974.01
541.62	40603.61
541.79	40790.86
541.96	40011.46
542.13	40292.32
542.30	40205.72
542.47	40444.46
542.63	40641.06
542.80	40556.80
542.97	40554.46
543.14	40996.82
543.31	40488.93
543.48	40423.39
543.64	41387.69
543.81	41127.89
543.98	41251.94
544.15	40910.22
544.32	41352.58
544.48	41474.29
544.65	41687.28
544.82	41460.25
544.99	41118.53
545.16	41088.10
545.32	41256.62
545.49	41734.09
545.66	41841.76
545.83	41427.48
546.00	41617.07
546.16	41785.58
546.33	41780.90
546.50	41544.51
546.67	42061.77
546.83	41401.74
547.00	41418.12
547.17	41684.94
547.34	42110.92
547.50	42054.75
547.67	42220.92
547.84	41858.14
548.00	42281.78
548.17	42728.82
548.34	42642.22
548.51	42447.96
548.67	42553.28
548.84	42267.73
549.01	42471.36
549.18	42380.08
549.34	42637.54
549.51	42719.46
549.68	42644.56
549.84	42579.03
550.01	42705.41
550.18	42679.67
550.34	42443.27
550.51	42831.80
550.68	42941.81
550.84	42576.69
551.01	42787.33
551.18	42169.43
551.34	42871.59
551.51	43257.78
551.68	42983.94
551.84	43065.86
552.01	42763.93
552.18	43297.57
552.34	43171.18
552.51	42876.27
552.68	42948.83
552.84	42920.74
553.01	43613.54
553.18	43253.10
553.34	43208.63
553.51	43285.87
553.67	43133.73
553.84	43185.22
554.01	43487.15
554.17	43360.76
554.34	43543.33
554.51	43344.38
554.67	43522.26
554.84	43627.59
555.00	43220.33
555.17	43761.00
555.33	43452.05
555.50	43498.86
555.67	43863.98
555.83	44086.33
556.00	43878.02
556.16	44409.32
556.33	44109.74
556.50	43903.77
556.66	43784.40
556.83	43988.03
556.99	44172.93
557.16	44318.04
557.32	44404.64
557.49	44392.94
557.65	43725.89
557.82	44406.98
557.98	44144.84
558.15	43812.49
558.32	44109.74
558.48	44179.95
558.65	44296.98
558.81	44563.80
558.98	44385.92
559.14	44374.22
559.31	44135.48
559.47	43632.27
559.64	44336.77
559.80	44112.08
559.97	44708.91
560.13	44416.35
560.30	44467.84
560.46	44538.05
560.63	44781.47
560.79	44559.12
560.96	44809.56
561.12	44800.19
561.29	44692.53
561.45	44648.06
561.61	44760.40
561.78	44814.24
561.94	44968.71
562.11	45123.19
562.27	44835.30
562.44	44816.58
562.60	44877.43
562.77	44896.16
562.93	44795.51
563.10	44540.39
563.26	44978.07
563.42	45481.29
563.59	44704.23
563.75	44987.44
563.92	44919.56
564.08	45139.57
564.24	45216.81
564.41	44975.73
564.57	44947.65
564.74	45059.99
564.90	45282.34
565.07	45235.53
565.23	44964.03
565.39	45277.66
565.56	45235.53
565.72	45160.64
565.88	45387.67
566.05	45155.96
566.21	45200.43
566.38	45345.54
566.54	45436.82
566.70	45455.54
566.87	45310.43
567.03	45186.38
567.19	45670.87
567.36	45165.32
567.52	45542.14
567.68	45748.11
567.85	45577.25
568.01	45535.12
568.17	45251.92
568.34	45713.00
568.50	45474.27
568.66	45492.99
568.83	45558.53
568.99	45521.08
569.15	45621.72
569.32	45418.10
569.48	45813.65
569.64	45598.32
569.81	46375.37
569.97	45404.05
570.13	46358.99
570.30	45347.88
570.46	45783.22
570.62	45610.02
570.78	45745.77
570.95	45434.48
571.11	46096.85
571.27	45324.47
571.43	45979.82
571.60	45724.71
571.76	45525.76
571.92	45457.88
572.09	45333.84
572.25	45485.97
572.41	45682.58
572.57	45766.84
572.74	46466.66
572.90	45673.21
573.06	46028.98
573.22	46110.89
573.38	45989.19
573.55	45930.67
573.71	46300.48
573.87	46277.07
574.03	46391.76
574.20	46263.03
574.36	46010.25
574.52	46160.05
574.68	45755.13
574.84	46347.29
575.01	46017.27
575.17	46143.66
575.33	45935.35
575.49	45675.55
575.65	46363.67
575.82	46206.86
575.98	46101.53
576.14	45848.75
576.30	46117.92
576.46	45904.93
576.62	46202.18
576.79	46080.47
576.95	46028.98
577.11	45734.07
577.27	46064.08
577.43	46199.83
577.59	45666.19
577.75	45776.20
577.92	45661.51
578.08	46251.33
578.24	46307.50
578.40	46349.63
578.56	46213.88
578.72	46089.83
578.88	46143.66
579.04	46412.82
579.21	46218.56
579.37	46167.07
579.53	46408.14
579.69	46122.60
579.85	45984.51
580.01	46061.74
580.17	46220.90
580.33	46483.04
580.49	46387.08
580.65	46550.91
580.82	46499.42
580.98	46033.66
581.14	46059.40
581.30	46073.45
581.46	46539.21
581.62	46284.09
581.78	46323.88
581.94	46487.72
582.10	46153.02
582.26	46167.07
582.42	46230.26
582.58	46344.95
582.74	46300.48
582.90	46134.30
583.06	46286.43
583.22	46382.40
583.38	46635.17
583.54	46646.88
583.70	46036.00
583.86	46445.59
584.02	46349.63
584.18	46777.95
584.34	46380.06
584.50	46623.47
584.66	46380.06
584.82	46309.84
584.98	46593.04
585.14	47026.04
585.30	46330.90
585.46	46347.29
585.62	46050.04
585.78	46513.47
585.94	46195.15
586.10	46284.09
586.26	46263.03
586.42	46092.17
586.58	46621.13
586.74	46499.42
586.90	46387.08
587.06	46473.68
587.22	46817.74
587.38	46342.61
587.54	46696.03
587.70	46803.69
587.86	46543.89
588.02	46384.74
588.18	46071.10
588.34	46520.49
588.49	46394.10
588.65	46712.41
588.81	46518.15
588.97	46651.56
589.13	46696.03
589.29	46307.50
589.45	46817.74
589.61	46593.04
589.77	46885.61
589.93	46543.89
590.08	46962.85
590.24	46965.19
590.40	46941.78
590.56	47026.04
590.72	46990.94
590.88	46337.93
591.04	46766.24
591.20	47248.39
591.35	47079.88
591.51	47370.10
591.67	46838.80
591.83	47239.03
591.99	46745.18
592.15	46749.86
592.31	46885.61
592.46	46644.54
592.62	46981.57
592.78	47229.67
592.94	47433.30
593.10	47407.55
593.26	47019.02
593.41	47405.21
593.57	47208.61
593.73	47077.54
593.89	47215.63
594.05	47398.19
594.20	47239.03
594.36	47615.86
594.52	47540.96
594.68	47538.62
594.84	47360.74
594.99	47611.18
595.15	46845.82
595.31	46887.95
595.47	47564.37
595.62	47114.98
595.78	47143.07
595.94	47316.27
596.10	47224.99
596.25	47278.82
596.41	47180.52
596.57	46960.51
596.73	47667.35
596.88	46990.94
597.04	47014.34
597.20	47147.75
597.36	46838.80
597.51	47093.92
597.67	47152.43
597.83	47241.37
597.99	47056.47
598.14	47175.84
598.30	47246.05
598.46	46981.57
598.61	47674.37
598.77	47526.92
598.93	47344.36
599.09	47107.96
599.24	47749.27
599.40	47334.99
599.56	47641.60
599.71	47735.23
599.87	48128.44
600.03	47566.71
600.18	47339.68
600.34	47388.83
600.50	47618.20
600.65	47262.44
600.81	47585.43
600.97	47517.56
601.12	47201.58
601.28	47028.38
601.44	47187.54
601.59	47559.69
601.75	47224.99
601.91	47452.02
602.06	47299.89
602.22	47232.01
602.37	47227.33
602.53	47402.87
602.69	47679.05
602.84	46902.00
603.00	46997.96
603.16	47210.95
603.31	47597.13
603.47	47414.57
603.62	47096.26
603.78	47484.79
603.94	47281.16
604.09	47370.10
604.25	47154.77
604.40	47517.56
604.56	47402.87
604.71	47194.56
604.87	47070.51
605.03	47140.73
605.18	47393.51
605.34	47271.80
605.49	47243.71
605.65	47353.72
605.80	46843.48
605.96	47150.09
606.12	47047.11
606.27	47473.09
606.43	47051.79
606.58	47248.39
606.74	47332.65
606.89	47290.52
607.05	47271.80
607.20	47103.28
607.36	47206.26
607.51	47138.39
607.67	47269.46
607.82	46639.86
607.98	47079.88
608.13	47585.43
608.29	46731.14
608.44	47217.97
608.60	46948.81
608.75	47285.84
608.91	47159.45
609.06	47012.00
609.22	46990.94
609.37	47037.75
609.53	47124.35
609.68	47590.11
609.84	47299.89
609.99	47089.24
610.15	47180.52
610.30	47271.80
610.46	46857.52
610.61	47222.65
610.76	47079.88
610.92	46859.87
611.07	47353.72
611.23	46665.60
611.38	46738.16
611.54	47313.93
611.69	46801.35
611.84	47356.06
612.00	46937.10
612.15	46756.88
612.31	47100.94
612.46	46450.27
612.62	46703.05
612.77	46941.78
612.92	47269.46
613.08	46515.81
613.23	46829.44
613.39	46639.86
613.54	46681.98
613.69	46838.80
613.85	46663.26
614.00	46810.71
614.15	47063.49
614.31	46522.83
614.46	46710.07
614.62	46436.23
614.77	46405.80
614.92	46686.67
615.08	46419.84
615.23	47234.35
615.38	46609.43
615.54	46419.84
615.69	46728.80
615.84	46394.10
616.00	46951.15
616.15	46859.87
616.30	46857.52
616.46	46183.45
616.61	46410.48
616.76	46670.28
616.92	45944.72
617.07	46862.21
617.22	46670.28
617.37	46270.05
617.53	46417.50
617.68	46169.41
617.83	45837.05
617.99	46588.36
618.14	46611.77
618.29	46263.03
618.45	46237.28
618.60	46333.24
618.75	45811.31
618.90	46358.99
619.06	46031.32
619.21	45808.96
619.36	46216.22
619.51	46052.38
619.67	45874.50
619.82	46094.51
619.97	46054.72
620.12	46073.45
620.28	45773.86
620.43	46181.11
620.58	46312.18
620.73	46014.93
620.89	46396.44
621.04	46089.83
621.19	45989.19
621.34	45811.31
621.49	45888.54
621.65	46057.06
621.80	46143.66
621.95	45799.60
622.10	45914.29
622.25	45542.14
622.41	45467.25
622.56	46092.17
622.71	45736.41
622.86	45904.93
623.01	46220.90
623.16	45361.92
623.32	46087.49
623.47	45619.38
623.62	45544.48
623.77	45918.97
623.92	46019.61
624.07	46094.51
624.23	45326.81
624.38	46033.66
624.53	45242.56
624.68	45282.34
624.83	45177.02
624.98	45727.05
625.13	44914.88
625.29	45071.70
625.44	45481.29
625.59	45352.56
625.74	45195.74
625.89	44821.26
626.04	45478.95
626.19	45322.13
626.34	45378.31
626.49	44638.70
626.65	44945.31
626.80	45013.18
626.95	44664.44
627.10	44598.91
627.25	44767.43
627.40	45291.71
627.55	44554.44
627.70	45001.48
627.85	45308.09
628.00	45078.72
628.15	44975.73
628.30	44451.45
628.45	44535.71
628.60	44484.22
628.76	44542.74
628.91	44938.29
629.06	44514.65
629.21	44638.70
629.36	44184.63
629.51	44966.37
629.66	44762.75
629.81	44851.69
629.96	44357.83
630.11	44741.68
630.26	44128.46
630.41	44339.11
630.56	44296.98
630.71	44435.07
630.86	44505.29
631.01	44357.83
631.16	44229.10
631.31	44107.40
631.46	44346.13
631.61	44638.70
631.76	44273.57
631.91	43962.28
632.06	44500.61
632.21	44552.10
632.36	44341.45
632.51	43859.30
632.66	44425.71
632.81	44198.68
632.96	44154.21
633.10	44079.31
633.25	44669.12
633.40	44016.11
633.55	44130.80
633.70	43885.04
633.85	43922.49
634.00	43899.09
634.15	43948.24
634.30	43782.06
634.45	43608.86
634.60	43819.51
634.75	43730.57
634.90	44006.75
635.05	43702.48
635.19	43838.23
635.34	43487.15
635.49	43704.82
635.64	43915.47
635.79	44086.33
635.94	43559.71
636.09	43952.92
636.24	44140.16
636.39	43569.07
636.53	43538.65
636.68	43409.92
636.83	43580.78
636.98	43103.31
637.13	43091.60
637.28	43283.53
637.43	43306.93
637.57	43604.18
637.72	43056.50
637.87	43430.98
638.02	42983.94
638.17	43271.82
638.32	42831.80
638.46	42864.57
638.61	42892.66
638.76	42890.32
638.91	43199.27
639.06	42770.95
639.20	42836.48
639.35	42616.47
639.50	42845.85
639.65	42850.53
639.80	43021.39
639.94	42979.26
640.09	43152.46
640.24	42871.59
640.39	42646.90
640.54	42494.77
640.68	43065.86
640.83	42988.62
640.98	42705.41
641.13	42440.93
641.27	43086.92
641.42	42412.85
641.57	42548.60
641.72	42892.66
641.86	42616.47
642.01	42075.81
642.16	42354.33
642.31	41968.15
642.45	42696.05
642.60	41975.17
642.75	42171.77
642.90	42328.59
643.04	42267.73
643.19	42146.03
643.34	42333.27
643.48	41338.54
643.63	41942.40
643.78	42504.13
643.93	42403.49
644.07	42642.22
644.22	42525.19
644.37	42101.56
644.51	42810.74
644.66	42213.90
644.81	42270.08
644.95	42066.45
645.10	42328.59
645.25	41926.02
645.39	41743.45
645.54	41926.02
645.69	40987.46
645.83	41579.62
645.98	41893.25
646.13	41869.84
646.27	41574.94
646.42	41752.82
646.57	41530.47
646.71	41521.10
646.86	42181.13
647.00	42108.58
647.15	41776.22
647.30	41670.90
647.44	41888.57
647.59	41214.49
647.74	41902.61
647.88	41984.53
648.03	41645.15
648.17	41940.06
648.32	41806.65
648.47	41855.80
648.61	41247.26
648.76	41446.21
648.90	41263.64
649.05	41394.71
649.20	41727.07
649.34	41675.58
649.49	41441.53
649.63	41380.67
649.78	41607.70
649.92	41392.37
650.07	42017.30
650.21	41474.29
650.36	41684.94
650.51	41333.86
650.65	42024.32
650.80	41153.64
650.94	41481.31
651.09	41268.33
651.23	40582.55
651.38	40680.85
651.52	40886.82
651.67	40940.65
651.81	41067.04
651.96	40811.92
652.10	40561.48
652.25	40575.53
652.39	41055.34
652.54	41141.94
652.68	40844.69
652.83	40744.05
652.97	41050.66
653.12	40559.14
653.26	40734.68
653.41	40498.29
653.55	40886.82
653.70	40776.81
653.84	41041.29
653.99	41340.88
654.13	40210.40
654.27	40442.12
654.42	40065.29
654.56	40304.02
654.71	40657.45
654.85	40912.56
655.00	40552.12
655.14	40694.89
655.29	40832.99
655.43	40428.07
655.57	40182.32
655.72	40315.73
655.86	40163.59
656.01	40715.96
656.15	40198.70
656.30	39636.97
656.44	40329.77
656.58	40282.96
656.73	40254.87
656.87	39861.66
657.01	40051.25
657.16	39866.34
657.30	40484.25
657.45	40128.48
657.59	39931.88
657.73	39800.81
657.88	40147.21
658.02	40009.12
658.16	39962.31
658.31	40355.52
658.45	40128.48
658.60	39976.35
658.74	39400.58
658.88	39599.52
659.03	40006.78
659.17	39321.00
659.31	38906.73
659.46	39721.23
659.60	39714.21
659.74	39522.29
659.89	39484.84
660.03	39026.09
660.17	39196.95
660.32	39264.83
660.46	38972.26
660.60	39091.63
660.74	39215.68
660.89	39239.08
661.03	38733.53
661.17	38593.09
661.32	39084.61
661.46	39203.97
661.60	38852.89
661.74	38630.54
661.89	38866.94
662.03	38815.44
662.17	38396.49
662.31	38487.77
662.46	38672.67
662.60	38024.34
662.74	38658.63
662.88	38480.75
663.03	38082.86
663.17	37804.33
663.31	37823.06
663.45	38408.19
663.60	37923.70
663.74	38209.25
663.88	38511.17
664.02	38087.54
664.17	38239.67
664.31	37619.43
664.45	37310.48
664.59	37656.88
664.73	37694.33
664.88	37600.71
665.02	37532.83
665.16	37610.07
665.30	37420.48
665.44	37413.46
665.59	37010.89
665.73	36945.36
665.87	37092.81
666.01	37127.92
666.15	36809.61
666.29	37237.92
666.44	37340.91
666.58	36907.91
666.72	36631.72
666.86	36638.75
667.00	36648.11
667.14	36467.89
667.28	36851.73
667.43	36400.01
667.57	36945.36
667.71	37003.87
667.85	36886.84
667.99	36481.93
668.13	36477.25
668.27	36182.34
668.41	36210.43
668.56	35344.43
668.70	35695.51
668.84	35995.10
668.98	35672.10
669.12	36004.46
669.26	36023.19
669.40	36013.82
669.54	35936.59
669.68	35613.59
669.82	35480.18
669.96	35557.42
670.10	35365.49
670.25	35316.34
670.39	35367.84
670.53	35276.55
670.67	35023.78
670.81	35625.29
670.95	35407.62
671.09	35232.08
671.23	35028.46
671.37	35002.71
671.51	34628.23
671.65	34738.23
671.79	34871.64
671.93	35098.67
672.07	34902.07
672.21	34801.43
672.35	34443.32
672.49	34492.47
672.63	34583.76
672.77	34089.90
672.91	34696.10
673.05	34529.92
673.19	33895.64
673.33	33612.43
673.47	33905.00
673.61	33837.12
673.75	33544.56
673.89	33434.55
674.03	33572.64
674.17	33235.61
674.31	33345.61
674.45	33577.33
674.59	33406.47
674.73	33179.43
674.87	32964.10
675.01	32926.66
675.15	33006.23
675.29	32545.15
675.43	32753.46
675.56	32807.29
675.70	32559.19
675.84	32584.94
675.98	31868.73
676.12	32280.67
676.26	32130.87
676.40	32367.27
676.54	31952.99
676.68	32086.40
676.82	31541.06
676.96	31660.43
677.10	31857.03
677.23	32123.85
677.37	31585.53
677.51	31627.66
677.65	31508.29
677.79	31339.77
677.93	31393.61
678.07	31487.23
678.21	30913.80
678.34	30452.71
678.48	30312.28
678.62	30459.73
678.76	30469.09
678.90	30335.68
679.04	30501.86
679.18	30403.56
679.31	30263.13
679.45	30160.14
679.59	29926.09
679.73	30019.71
679.87	29982.26
680.00	29362.02
680.14	30302.92
680.28	29951.84
680.42	29647.57
680.56	29624.16
680.70	29418.19
680.83	29350.32
680.97	29457.98
681.11	29411.17
681.25	28746.46
681.39	28346.23
681.52	28774.55
681.66	28545.17
681.80	28470.28
681.94	28451.55
682.07	28273.67
682.21	28079.41
682.35	28210.48
682.49	28133.24
682.62	28215.16
682.76	28027.92
682.90	28102.81
683.04	27599.60
683.17	27646.41
683.31	27569.17
683.45	27211.07
683.59	26885.73
683.72	26728.92
683.86	27084.68
684.00	26967.65
684.13	26937.23
684.27	26785.09
684.41	26326.35
684.55	26600.19
684.68	26553.38
684.82	26448.05
684.96	26476.14
685.09	25773.98
685.23	26494.86
685.37	26635.30
685.50	26375.50
685.64	26141.44
685.78	25991.65
685.91	26082.93
686.05	25149.06
686.19	25226.29
686.32	25287.15
686.46	24828.40
686.60	25202.89
686.73	24882.24
686.87	25212.25
687.01	25200.55
687.14	25027.35
687.28	24985.22
687.42	24952.45
687.55	24744.14
687.69	24566.26
687.82	24159.01
687.96	24650.52
688.10	24271.36
688.23	24210.50
688.37	24163.69
688.50	24189.44
688.64	24156.67
688.78	23711.97
688.91	23784.52
689.05	23618.35
689.18	23447.49
689.32	23096.41
689.46	23023.85
689.59	22815.54
689.73	23508.34
689.86	23737.71
690.00	23260.24
690.13	23374.93
690.27	22913.84
690.41	23145.56
690.54	22331.05
690.68	22450.42
690.81	22054.87
690.95	22324.03
691.08	22368.50
691.22	22239.77
691.35	21947.20
691.49	22260.84
691.62	22001.04
691.76	21734.21
691.89	21591.44
692.03	21425.26
692.16	21270.79
692.30	21549.31
692.43	21408.88
692.57	21018.01
692.70	21219.30
692.84	21041.42
692.97	20751.19
693.11	20655.23
693.24	21205.25
693.38	20788.64
693.51	20746.51
693.65	20627.14
693.78	20257.34
693.92	20163.72
694.05	20058.39
694.19	20170.74
694.32	20336.91
694.45	19943.70
694.59	20451.60
694.72	20187.12
694.86	19625.39
694.99	19632.41
695.13	19445.17
695.26	19597.31
695.39	19400.70
695.53	19206.44
695.66	19550.49
695.80	19021.53
695.93	19283.67
696.07	19016.85
696.20	18658.75
696.33	18490.23
696.47	18270.22
696.60	18485.55
696.73	18597.90
696.87	18410.65
697.00	18651.73
697.14	17788.07
697.27	17881.69
697.40	18204.69
697.54	17963.61
697.67	18092.34
697.80	18001.06
697.94	17851.27
698.07	17687.43
698.21	17701.47
698.34	17738.92
698.47	17912.12
698.61	16856.54
698.74	17104.64
698.87	17200.60
699.01	17006.33
699.14	16943.14
699.27	17022.72
699.40	16879.94
699.54	16727.81
699.67	16753.55
699.80	16716.11
699.94	16468.01
700.07	16379.07
700.20	16311.19
700.34	16215.23
700.47	16166.08
700.60	16755.90
700.73	16116.93
700.87	15983.52
701.00	15786.91
701.13	15955.43
701.26	16121.61
701.40	15639.46
701.53	15433.49
701.66	15613.71
701.79	15438.17
701.93	15159.65
702.06	15323.49
702.19	15227.53
702.32	15243.91
702.46	15164.33
702.59	15353.91
702.72	15276.68
702.85	15005.17
702.99	14974.75
703.12	14677.50
703.25	14494.94
703.38	14469.19
703.51	14684.52
703.65	14443.45
703.78	14314.72
703.91	14335.78
704.04	14003.43
704.17	14176.62
704.31	13961.30
704.44	14155.56
704.57	14010.45
704.70	14174.28
704.83	14075.98
704.96	13886.40
705.10	13495.53
705.23	13509.57
>>>>>End Processed Spectral Data<<<<<
