SpectraSuite Data File
++++++++++++++++++++++++++++++++++++
Date: Fri Oct 25 10:47:49 EDT 2013
User: price-jones
Dark Spectrum Present: No
Reference Spectrum Present: No
Number of Sampled Component Spectra: 1
Spectrometers: USB2+H05261
Integration Time (usec): 100000 (USB2+H05261)
Spectra Averaged: 1 (USB2+H05261)
Boxcar Smoothing: 0 (USB2+H05261)
Correct for Electrical Dark: No (USB2+H05261)
Strobe/Lamp Enabled: No (USB2+H05261)
Correct for Detector Non-linearity: No (USB2+H05261)
Correct for Stray Light: No (USB2+H05261)
Number of Pixels in Processed Spectrum: 2048
>>>>>Begin Processed Spectral Data<<<<<
365.73	154.48
365.92	154.48
366.12	154.48
366.32	149.79
366.52	117.03
366.72	117.03
366.91	0.00
367.11	0.00
367.31	28.09
367.51	63.19
367.70	67.88
367.90	74.90
368.10	70.22
368.30	23.41
368.49	4.68
368.69	51.49
368.89	60.85
369.09	28.09
369.28	32.77
369.48	32.77
369.68	88.94
369.87	140.43
370.07	77.24
370.27	140.43
370.47	198.95
370.66	423.64
370.86	376.83
371.06	407.25
371.25	458.74
371.45	477.47
371.65	507.90
371.84	475.13
372.04	519.60
372.24	461.09
372.44	510.24
372.63	477.47
372.83	514.92
373.03	528.96
373.22	482.15
373.42	442.36
373.62	512.58
373.81	528.96
374.01	601.52
374.21	482.15
374.40	634.29
374.60	573.43
374.79	622.58
374.99	526.62
375.19	554.71
375.38	594.50
375.58	561.73
375.78	615.56
375.97	608.54
376.17	578.11
376.37	535.98
376.56	557.05
376.76	559.39
376.95	634.29
377.15	587.47
377.35	613.22
377.54	606.20
377.74	596.84
377.93	627.26
378.13	645.99
378.33	688.12
378.52	641.31
378.72	645.99
378.91	620.24
379.11	645.99
379.31	638.97
379.50	564.07
379.70	653.01
379.89	741.95
380.09	725.57
380.28	629.60
380.48	681.10
380.68	638.97
380.87	608.54
381.07	634.29
381.26	681.10
381.46	606.20
381.65	732.59
381.85	765.36
382.04	716.20
382.24	685.78
382.43	744.29
382.63	695.14
382.83	702.16
383.02	727.91
383.22	779.40
383.41	725.57
383.61	662.37
383.80	774.72
384.00	709.18
384.19	786.42
384.39	802.80
384.58	734.93
384.78	800.46
384.97	781.74
385.17	690.46
385.36	779.40
385.56	746.63
385.75	732.59
385.95	816.85
386.14	788.76
386.34	763.01
386.53	777.06
386.72	837.91
386.92	910.47
387.11	837.91
387.31	763.01
387.50	826.21
387.70	730.25
387.89	858.98
388.09	823.87
388.28	795.78
388.48	788.76
388.67	861.32
388.86	835.57
389.06	847.27
389.25	851.96
389.45	889.40
389.64	954.94
389.84	912.81
390.03	842.59
390.22	957.28
390.42	961.96
390.61	945.58
390.81	940.90
391.00	983.02
391.19	924.51
391.39	938.55
391.58	908.13
391.78	1015.79
391.97	966.64
392.16	1034.52
392.36	1015.79
392.55	924.51
392.75	1020.47
392.94	966.64
393.13	957.28
393.33	990.05
393.52	978.34
393.71	1078.99
393.91	1088.35
394.10	1128.14
394.29	1043.88
394.49	1039.20
394.68	1055.58
394.88	1062.60
395.07	1076.65
395.26	1137.50
395.46	1153.88
395.65	1137.50
395.84	1118.78
396.04	1198.35
396.23	1186.65
396.42	1118.78
396.62	1135.16
396.81	1160.91
397.00	1203.04
397.19	1156.22
397.39	1224.10
397.58	1242.82
397.77	1219.42
397.97	1111.75
398.16	1308.36
398.35	1320.06
398.55	1268.57
398.74	1357.51
398.93	1362.19
399.12	1376.24
399.32	1315.38
399.51	1390.28
399.70	1437.09
399.90	1324.74
400.09	1385.60
400.28	1420.71
400.47	1404.32
400.67	1483.90
400.86	1404.32
401.05	1437.09
401.24	1497.94
401.44	1394.96
401.63	1638.38
401.82	1537.73
402.01	1479.22
402.21	1416.02
402.40	1570.50
402.59	1500.28
402.78	1444.11
402.97	1537.73
403.17	1526.03
403.36	1488.58
403.55	1636.03
403.74	1774.13
403.93	1694.55
404.13	1565.82
404.32	1666.46
404.51	1713.27
404.70	1664.12
404.89	1551.78
405.09	1739.02
405.28	1682.85
405.47	1739.02
405.66	1739.02
405.85	1774.13
406.05	1846.68
406.24	1783.49
406.43	1717.95
406.62	1895.83
406.81	1813.92
407.00	1802.21
407.20	1827.96
407.39	1783.49
407.58	1849.02
407.77	1884.13
407.96	1977.75
408.15	1916.90
408.34	1937.96
408.54	1851.36
408.73	2066.69
408.92	2001.16
409.11	1916.90
409.30	2040.95
409.49	1916.90
409.68	2083.08
409.87	1980.09
410.07	2146.27
410.26	2127.55
410.45	2160.31
410.64	2160.31
410.83	2176.70
411.02	2190.74
411.21	2284.36
411.40	2246.91
411.59	2272.66
411.78	2246.91
411.98	2319.47
412.17	2282.02
412.36	2389.69
412.55	2466.92
412.74	2637.78
412.93	2452.88
413.12	2459.90
413.31	2581.61
413.50	2518.42
413.69	2597.99
413.88	2602.68
414.07	2555.86
414.26	2523.10
414.45	2731.41
414.64	2698.64
414.83	2682.25
415.02	2698.64
415.22	2768.85
415.41	2705.66
415.60	2792.26
415.79	2815.66
415.98	2892.90
416.17	2829.71
416.36	2832.05
416.55	2984.18
416.74	2885.88
416.93	2984.18
417.12	2909.29
417.31	2920.99
417.50	3098.87
417.69	3094.19
417.88	2998.23
418.07	3052.06
418.26	3059.08
418.45	3054.40
418.64	3087.17
418.83	3267.39
419.02	3045.04
419.21	3258.03
419.39	3169.09
419.58	3173.77
419.77	3063.76
419.96	3265.05
420.15	3295.47
420.34	3255.69
420.53	3421.86
420.72	3396.12
420.91	3403.14
421.10	3571.66
421.29	3489.74
421.48	3405.48
421.67	3363.35
421.86	3414.84
422.05	3531.87
422.24	3461.65
422.43	3524.85
422.61	3447.61
422.80	3576.34
422.99	3658.26
423.18	3716.77
423.37	3566.98
423.56	3517.83
423.75	3536.55
423.94	3454.63
424.13	3248.66
424.32	3405.48
424.50	3541.23
424.69	3548.25
424.88	3602.08
425.07	3536.55
425.26	3501.44
425.45	3679.32
425.64	3597.40
425.83	3592.72
426.01	3541.23
426.20	3712.09
426.39	3684.00
426.58	3552.93
426.77	3534.21
426.96	3569.32
427.15	3660.60
427.33	3744.86
427.52	3754.22
427.71	3695.71
427.90	3751.88
428.09	3716.77
428.28	3765.92
428.46	3873.59
428.65	3829.12
428.84	3925.08
429.03	3918.06
429.22	3719.11
429.40	3768.26
429.59	3861.88
429.78	3653.58
429.97	3672.30
430.16	3763.58
430.34	3885.29
430.53	3894.65
430.72	3918.06
430.91	3878.27
431.10	3990.61
431.28	4117.00
431.47	4131.05
431.66	4234.03
431.85	4074.87
432.03	4121.68
432.22	4276.16
432.41	4245.73
432.60	4227.01
432.79	4318.29
432.97	4301.90
433.16	4203.60
433.35	4262.12
433.54	4175.52
433.72	4154.45
433.91	4222.33
434.10	4266.80
434.28	4355.74
434.47	4372.12
434.66	4360.42
434.85	4552.34
435.03	4430.63
435.22	4477.44
435.41	4676.39
435.59	4454.04
435.78	4723.20
435.97	4648.30
436.16	4552.34
436.34	4631.92
436.53	4690.43
436.72	4767.67
436.90	4652.98
437.09	4664.69
437.28	4657.67
437.46	4613.20
437.65	4652.98
437.84	4699.80
438.02	4807.46
438.21	4800.44
438.40	4758.31
438.58	4882.36
438.77	4957.25
438.96	4894.06
439.14	5057.90
439.33	5032.15
439.52	5121.09
439.70	5102.37
439.89	5121.09
440.08	5254.50
440.26	5238.12
440.45	5228.76
440.63	5144.50
440.82	5376.21
441.01	5376.21
441.19	5453.45
441.38	5668.78
441.57	5530.69
441.75	5432.38
441.94	5643.03
442.12	5694.52
442.31	5713.25
442.50	5661.76
442.68	5540.05
442.87	5593.88
443.05	5748.36
443.24	5895.81
443.43	5832.62
443.61	5806.87
443.80	5891.13
443.98	5701.54
444.17	5558.77
444.35	5788.14
444.54	5853.68
444.73	5851.34
444.91	5930.92
445.10	6015.18
445.28	5809.21
445.47	5748.36
445.65	5734.31
445.84	5937.94
446.02	5998.79
446.21	5832.62
446.39	5949.64
446.58	6134.54
446.77	6164.97
446.95	5886.45
447.14	6214.12
447.32	6015.18
447.51	5954.32
447.69	6003.47
447.88	5926.24
448.06	5968.37
448.25	5912.19
448.43	6022.20
448.62	5994.11
448.80	6029.22
448.99	6209.44
449.17	6071.35
449.36	6129.86
449.54	6370.94
449.73	6349.87
449.91	6443.49
450.10	6333.49
450.28	6438.81
450.46	6448.18
450.65	6413.07
450.83	6438.81
451.02	6408.39
451.20	6464.56
451.39	6354.55
451.57	6506.69
451.76	6307.74
451.94	6312.42
452.13	6511.37
452.31	6576.91
452.49	6354.55
452.68	6597.97
452.86	6675.21
453.05	6459.88
453.23	6506.69
453.42	6537.12
453.60	6455.20
453.78	6738.40
453.97	6665.85
454.15	6626.06
454.34	6560.52
454.52	6761.81
454.70	6881.18
454.89	6834.36
455.07	6813.30
455.26	6902.24
455.44	6932.67
455.62	7023.95
455.81	6956.07
455.99	6942.03
456.17	7019.27
456.36	7133.95
456.54	7061.40
456.73	7194.81
456.91	7201.83
457.09	7185.44
457.28	7445.24
457.46	7089.48
457.64	7349.28
457.83	7304.81
458.01	7297.79
458.19	7463.97
458.38	7456.95
458.56	7616.10
458.74	7438.22
458.93	7470.99
459.11	7407.80
459.29	7468.65
459.48	7431.20
459.66	7452.27
459.84	7761.22
460.03	7719.09
460.21	7602.06
460.39	7723.77
460.57	7630.15
460.76	7751.85
460.94	7693.34
461.12	7878.24
461.31	7709.72
461.49	7845.48
461.67	7721.43
461.85	7932.08
462.04	7948.46
462.22	8472.74
462.40	7946.12
462.59	8046.76
462.77	7999.95
462.95	8088.89
463.13	7988.25
463.32	7878.24
463.50	8140.38
463.68	8255.07
463.86	8250.39
464.05	8173.15
464.23	8119.32
464.41	8189.53
464.59	8032.72
464.78	8479.76
464.96	8332.31
465.14	8248.05
465.32	8465.72
465.50	8545.30
465.69	8348.69
465.87	8362.73
466.05	8334.65
466.23	8278.47
466.41	8493.80
466.60	8493.80
466.78	8201.24
466.96	8423.59
467.14	8379.12
467.32	8306.56
467.51	8638.92
467.69	8351.03
467.87	8528.91
468.05	8734.88
468.23	8645.94
468.41	8533.59
468.60	8568.70
468.78	8786.37
468.96	8552.32
469.14	8875.31
469.32	8833.18
469.50	8636.58
469.69	8844.88
469.87	8800.41
470.05	8877.65
470.23	8842.54
470.41	8709.13
470.59	9137.45
470.77	9083.62
470.95	8912.76
471.14	9390.23
471.32	9067.24
471.50	9200.65
471.68	9301.29
471.86	9406.61
472.04	9509.60
472.22	9621.94
472.40	9373.85
472.58	9469.81
472.77	9650.03
472.95	9504.92
473.13	9867.70
473.31	9540.02
473.49	9699.18
473.67	9703.86
473.85	9703.86
474.03	9947.28
474.21	10071.33
474.39	10141.54
474.57	10087.71
474.75	9947.28
474.93	10106.43
475.12	10078.35
475.30	10448.15
475.48	10410.70
475.66	10417.72
475.84	10277.29
476.02	10251.55
476.20	10532.41
476.38	10457.51
476.56	10717.31
476.74	10792.21
476.92	10675.18
477.10	10611.99
477.28	10944.34
477.46	11215.85
477.64	11000.52
477.82	11126.91
478.00	11384.37
478.18	11517.78
478.36	11433.52
478.54	11480.33
478.72	11637.14
478.90	11758.85
479.08	11941.41
479.26	12112.27
479.44	12013.97
479.62	12081.85
479.80	12006.95
479.98	12201.21
480.16	12496.12
480.34	12528.89
480.52	12299.52
480.70	12578.04
480.88	12241.00
481.06	12486.76
481.24	12634.21
481.41	12863.58
481.59	12938.48
481.77	13219.35
481.95	13259.13
482.13	13341.05
482.31	13259.13
482.49	13563.40
482.67	13853.63
482.85	13593.83
483.03	14029.17
483.21	13895.76
483.39	13968.32
483.57	14017.47
483.74	14125.13
483.92	14239.82
484.10	14370.89
484.28	14288.97
484.46	14862.40
484.64	14815.59
484.82	14555.79
485.00	14789.85
485.18	15229.87
485.35	15150.29
485.53	14883.47
485.71	15145.61
485.89	15295.40
486.07	15318.81
486.25	15496.69
486.43	15496.69
486.61	15854.79
486.78	16053.73
486.96	16049.05
487.14	16107.57
487.32	16093.52
487.50	16355.66
487.68	16741.85
487.85	16858.88
488.03	17027.40
488.21	16992.29
488.39	17106.98
488.57	16812.07
488.75	17390.18
488.92	17689.77
489.10	17624.23
489.28	18129.79
489.46	17949.57
489.64	17832.54
489.81	18284.26
489.99	18265.54
490.17	18658.75
490.35	18429.38
490.53	18637.69
490.70	18604.92
490.88	18876.42
491.06	19194.73
491.24	19358.57
491.41	19084.73
491.59	19555.18
491.77	19332.82
491.95	19562.20
492.13	19983.49
492.30	19838.38
492.48	20280.74
492.66	20121.59
492.84	20147.33
493.01	20563.95
493.19	20287.76
493.37	20444.58
493.54	20367.34
493.72	20870.56
493.90	20755.87
494.08	21156.10
494.25	21352.71
494.43	21207.59
494.61	21696.77
494.79	21633.57
494.96	21303.56
495.14	21572.72
495.32	21790.39
495.49	21774.00
495.67	22199.98
495.85	22146.15
496.02	22349.78
496.20	22382.54
496.38	22359.14
496.55	22480.85
496.73	22986.40
496.91	22778.09
497.09	22855.33
497.26	22845.97
497.44	22974.70
497.62	23190.03
497.79	23604.30
497.97	23227.48
498.14	23747.08
498.32	23215.77
498.50	23871.12
498.67	23941.34
498.85	23702.61
499.03	23946.02
499.20	24175.39
499.38	24496.05
499.56	24421.15
499.73	24346.25
499.91	24858.83
500.08	24716.06
500.26	24500.73
500.44	24814.36
500.61	24645.84
500.79	24613.07
500.97	24924.36
501.14	25411.20
501.32	25289.49
501.49	25376.09
501.67	25324.60
501.84	25156.08
502.02	25785.68
502.20	25645.25
502.37	25895.69
502.55	25741.21
502.72	25743.55
502.90	26221.02
503.07	26026.76
503.25	26195.28
503.43	25965.90
503.60	26237.41
503.78	26473.80
503.95	26118.04
504.13	26328.69
504.30	26682.11
504.48	26733.60
504.65	26855.31
504.83	26874.03
505.01	26972.33
505.18	26998.08
505.36	27459.16
505.53	27365.54
505.71	27573.85
505.88	27831.31
506.06	27615.98
506.23	27412.35
506.41	27431.08
506.58	27229.79
506.76	27903.87
506.93	28397.72
507.11	27913.23
507.28	27833.65
507.46	27840.67
507.63	28032.60
507.81	28280.69
507.98	27821.95
508.16	28414.10
508.33	28240.90
508.50	28641.14
508.68	28861.15
508.85	29219.25
509.03	28570.92
509.20	29008.60
509.38	28765.18
509.55	29427.56
509.73	29303.51
509.90	29177.12
510.08	29436.92
510.25	29195.84
510.42	29448.62
510.60	29230.95
510.77	29617.14
510.95	30148.44
511.12	29441.60
511.30	29729.48
511.47	29865.24
511.64	30199.93
511.82	30288.87
511.99	30146.10
512.17	30167.16
512.34	29958.86
512.51	30398.88
512.69	30361.43
512.86	30565.06
513.04	30972.31
513.21	30597.82
513.38	30927.84
513.56	30590.80
513.73	30668.04
513.90	30848.26
514.08	30937.20
514.25	30850.60
514.43	30948.90
514.60	30941.88
514.77	31353.82
514.95	31592.55
515.12	31524.68
515.29	31295.30
515.47	31889.80
515.64	31660.43
515.81	31615.96
515.99	31962.36
516.16	31534.04
516.33	32119.17
516.51	31517.65
516.68	31192.32
516.85	31452.12
517.03	31814.90
517.20	31931.93
517.37	32079.38
517.54	32119.17
517.72	32165.98
517.89	32385.99
518.06	32334.50
518.24	32158.96
518.41	32322.80
518.58	32158.96
518.75	32903.25
518.93	32776.86
519.10	32716.01
519.27	32776.86
519.45	33139.65
519.62	33198.16
519.79	32929.00
519.96	33373.70
520.14	33429.87
520.31	33172.41
520.48	33846.49
520.65	33331.57
520.83	33593.71
521.00	33862.87
521.17	33919.04
521.34	33701.37
521.52	33942.45
521.69	33839.47
521.86	33989.26
522.03	33982.24
522.20	34089.90
522.38	34157.78
522.55	34602.48
522.72	34415.24
522.89	34480.77
523.07	34785.04
523.24	34115.65
523.41	34738.23
523.58	34712.49
523.75	35363.15
523.92	34962.92
524.10	35028.46
524.27	35152.51
524.44	34958.24
524.61	35402.94
524.78	35115.06
524.96	35381.88
525.13	35028.46
525.30	35562.10
525.47	35709.55
525.64	35637.00
525.81	36058.29
525.98	35447.41
526.16	35000.37
526.33	35321.02
526.50	35847.64
526.67	35931.90
526.84	35463.80
527.01	35482.52
527.18	35875.73
527.36	35842.96
527.53	35990.42
527.70	36327.45
527.87	36315.75
528.04	36533.42
528.21	36034.89
528.38	36107.44
528.55	36575.55
528.72	36187.02
528.89	36833.01
529.07	36657.47
529.24	36458.52
529.41	36818.97
529.58	36526.40
529.75	36793.22
529.92	36746.41
530.09	36886.84
530.26	37268.35
530.43	36795.56
530.60	36954.72
530.77	37120.90
530.94	37181.75
531.11	37111.53
531.28	37635.81
531.46	37186.43
531.63	37682.62
531.80	37647.52
531.97	37191.11
532.14	37542.19
532.31	37577.30
532.48	37301.12
532.65	37907.32
532.82	37769.22
532.99	37961.15
533.16	37280.05
533.33	37563.26
533.50	38124.99
533.67	37797.31
533.84	37345.59
534.01	38113.28
534.18	37890.93
534.35	38525.22
534.52	38333.29
534.69	38150.73
534.86	38487.77
535.03	38052.43
535.20	38403.51
535.37	38607.14
535.54	38766.29
535.71	38607.14
535.88	38796.72
536.05	38742.89
536.22	38675.01
536.38	38586.07
536.55	38270.10
536.72	38375.42
536.89	38473.73
537.06	38632.88
537.23	38651.61
537.40	38438.62
537.57	38806.08
537.74	38810.76
537.91	39157.16
538.08	38696.08
538.25	38799.06
538.42	39199.29
538.59	39203.97
538.75	38789.70
538.92	39161.84
539.09	39423.98
539.26	39196.95
539.43	39440.37
539.60	39658.04
539.77	39524.63
539.94	40060.61
540.11	39384.19
540.28	39360.79
540.44	39779.74
540.61	39498.88
540.78	39285.89
540.95	39821.87
541.12	39363.13
541.29	39379.51
541.46	39487.18
541.62	39702.51
541.79	40149.55
541.96	39625.27
542.13	39552.71
542.30	40353.18
542.47	39985.71
542.63	40154.23
542.80	40519.35
542.97	40893.84
543.14	40938.31
543.31	40748.73
543.48	40624.68
543.64	40744.05
543.81	40781.49
543.98	40325.09
544.15	40545.10
544.32	41036.61
544.48	41200.45
544.65	41127.89
544.82	41045.97
544.99	40493.61
545.16	41015.55
545.32	40568.51
545.49	41137.26
545.66	40837.67
545.83	41329.18
546.00	41434.50
546.16	40900.86
546.33	41258.96
546.50	40584.89
546.67	41284.71
546.83	40376.58
547.00	41251.94
547.17	40954.69
547.34	40725.32
547.50	41696.64
547.67	41762.18
547.84	41818.35
548.00	42064.11
548.17	41551.53
548.34	41804.31
548.51	41808.99
548.67	41633.45
548.84	41684.94
549.01	41546.85
549.18	41544.51
549.34	42043.04
549.51	41806.65
549.68	41930.70
549.84	42316.89
550.01	42099.22
550.18	41652.17
550.34	42059.43
550.51	41600.68
550.68	41869.84
550.84	41701.32
551.01	42232.63
551.18	41928.36
551.34	41841.76
551.51	42443.27
551.68	42719.46
551.84	42391.78
552.01	42457.32
552.18	42033.68
552.34	42017.30
552.51	42302.84
552.68	42906.70
552.84	42454.98
553.01	42646.90
553.18	42560.30
553.34	42117.94
553.51	42433.91
553.67	42890.32
553.84	42677.33
554.01	42885.64
554.17	42859.89
554.34	43342.04
554.51	43150.12
554.67	43227.35
554.84	43297.57
555.00	42710.10
555.17	42913.72
555.33	42649.24
555.50	43250.76
555.67	43107.99
555.83	43145.44
556.00	43318.64
556.16	43199.27
556.33	43173.52
556.50	43356.08
556.66	43166.50
556.83	42969.90
556.99	43255.44
557.16	43468.43
557.32	42939.47
557.49	43606.52
557.65	42965.21
557.82	43145.44
557.98	43136.07
558.15	43337.36
558.32	43522.26
558.48	43290.55
558.65	43599.50
558.81	43744.61
558.98	43316.29
559.14	43107.99
559.31	43306.93
559.47	43395.87
559.64	43508.22
559.80	43686.10
559.97	43899.09
560.13	43613.54
560.30	43512.90
560.46	43480.13
560.63	43501.20
560.79	43763.34
560.96	44081.65
561.12	43819.51
561.29	43611.20
561.45	43690.78
561.61	43318.64
561.78	43964.62
561.94	43775.04
562.11	43964.62
562.27	43477.79
562.44	43643.97
562.60	43950.58
562.77	44254.85
562.93	43805.47
563.10	43763.34
563.26	43629.93
563.42	43746.95
563.59	43770.36
563.75	43941.22
563.92	44046.54
564.08	44264.21
564.24	44177.61
564.41	44320.38
564.57	43817.17
564.74	44126.12
564.90	43826.53
565.07	43938.88
565.23	43922.49
565.39	43973.98
565.56	44156.55
565.72	44079.31
565.88	44315.70
566.05	43779.72
566.21	44048.88
566.38	44027.82
566.54	44222.08
566.70	44301.66
566.87	44526.35
567.03	44069.95
567.19	44779.13
567.36	44713.59
567.52	44130.80
567.68	44271.23
567.85	44465.50
568.01	44161.23
568.17	44165.91
568.34	44584.86
568.50	44168.25
568.66	43957.60
568.83	44385.92
568.99	44067.61
569.15	44465.50
569.32	44486.56
569.48	43812.49
569.64	44472.52
569.81	44634.02
569.97	44397.62
570.13	44526.35
570.30	44294.64
570.46	44392.94
570.62	44381.24
570.78	44184.63
570.95	44535.71
571.11	44608.27
571.27	44311.02
571.43	44212.72
571.60	44914.88
571.76	44201.02
571.92	44472.52
572.09	44219.74
572.25	44069.95
572.41	44322.72
572.57	44987.44
572.74	44891.48
572.90	44821.26
573.06	44479.54
573.22	44275.91
573.38	44713.59
573.55	44428.05
573.71	44774.45
573.87	44652.74
574.03	44264.21
574.20	44847.00
574.36	44161.23
574.52	44507.63
574.68	44662.10
574.84	44737.00
575.01	44418.69
575.17	44531.03
575.33	44769.77
575.49	44603.59
575.65	45099.78
575.82	44428.05
575.98	44559.12
576.14	45209.79
576.30	44783.81
576.46	44715.93
576.62	44610.61
576.79	44744.02
576.95	44282.94
577.11	44552.10
577.27	44605.93
577.43	44772.11
577.59	44521.67
577.75	44732.32
577.92	44392.94
578.08	44301.66
578.24	44357.83
578.40	44582.52
578.56	44706.57
578.72	44722.96
578.88	44858.71
579.04	44994.46
579.21	44453.79
579.37	44470.18
579.53	44369.54
579.69	44465.50
579.85	45022.54
580.01	44701.89
580.17	44830.62
580.33	44891.48
580.49	44849.35
580.65	44657.42
580.82	44505.29
580.98	44919.56
581.14	44439.75
581.30	44687.85
581.46	44971.05
581.62	45076.38
581.78	44870.41
581.94	45186.38
582.10	44439.75
582.26	44666.78
582.42	44491.24
582.58	44617.63
582.74	44844.66
582.90	44472.52
583.06	44896.16
583.22	45303.41
583.38	45113.83
583.54	44713.59
583.70	44788.49
583.86	44641.04
584.02	44191.65
584.18	44802.53
584.34	44760.40
584.50	45031.91
584.66	44732.32
584.82	44680.83
584.98	45345.54
585.14	45062.33
585.30	44701.89
585.46	44758.06
585.62	44797.85
585.78	44704.23
585.94	44678.49
586.10	44392.94
586.26	44641.04
586.42	44814.24
586.58	45102.12
586.74	44744.02
586.90	44538.05
587.06	44776.79
587.22	45109.14
587.38	44797.85
587.54	45116.17
587.70	44753.38
587.86	44516.99
588.02	44774.45
588.18	45041.27
588.34	44685.51
588.49	44521.67
588.65	44341.45
588.81	44451.45
588.97	44521.67
589.13	44797.85
589.29	44767.43
589.45	44762.75
589.61	45048.29
589.77	44985.10
589.93	45256.60
590.08	45067.02
590.24	45148.93
590.40	44854.03
590.56	45471.93
590.72	45233.19
590.88	45125.53
591.04	45102.12
591.20	45191.06
591.35	45263.62
591.51	45380.65
591.67	44631.68
591.83	45219.15
591.99	45289.37
592.15	45048.29
592.31	45123.19
592.46	44980.42
592.62	45207.45
592.78	45294.05
592.94	45467.25
593.10	45076.38
593.26	45317.45
593.41	45509.38
593.57	45099.78
593.73	44713.59
593.89	45303.41
594.05	44715.93
594.20	44861.05
594.36	45338.52
594.52	45109.14
594.68	44839.98
594.84	45165.32
594.99	45249.58
595.15	44898.50
595.31	44928.92
595.47	45170.00
595.62	45514.06
595.78	45457.88
595.94	45329.16
596.10	45546.82
596.25	45174.68
596.41	45247.24
596.57	45216.81
596.73	45502.35
596.88	44685.51
597.04	45399.37
597.20	45167.66
597.36	45294.05
597.51	45574.91
597.67	45572.57
597.83	45680.24
597.99	45647.47
598.14	45324.47
598.30	45359.58
598.46	45160.64
598.61	45144.25
598.77	44973.39
598.93	45177.02
599.09	44971.05
599.24	45713.00
599.40	45436.82
599.56	45165.32
599.71	45158.30
599.87	45287.03
600.03	45272.98
600.18	45425.12
600.34	45272.98
600.50	45462.57
600.65	45750.45
600.81	45439.16
600.97	45937.69
601.12	46256.01
601.28	45425.12
601.44	45514.06
601.59	45272.98
601.75	45272.98
601.91	45132.55
602.06	44903.18
602.22	45549.17
602.37	44982.76
602.53	45158.30
602.69	45811.31
602.84	45062.33
603.00	45476.61
603.16	45013.18
603.31	45371.28
603.47	45455.54
603.62	45226.17
603.78	45392.35
603.94	45394.69
604.09	45521.08
604.25	45621.72
604.40	45310.43
604.56	45345.54
604.71	45474.27
604.87	45062.33
605.03	44980.42
605.18	45139.57
605.34	44760.40
605.49	45095.10
605.65	45235.53
605.80	45326.81
605.96	45633.42
606.12	44933.60
606.27	45787.90
606.43	45020.20
606.58	45331.50
606.74	45359.58
606.89	44980.42
607.05	44938.29
607.20	45317.45
607.36	45415.76
607.51	45415.76
607.67	45418.10
607.82	44868.07
607.98	45315.11
608.13	44509.97
608.29	45083.40
608.44	44460.82
608.60	44744.02
608.75	44500.61
608.91	44933.60
609.06	44659.76
609.22	45242.56
609.37	44797.85
609.53	44896.16
609.68	44568.48
609.84	44975.73
609.99	45006.16
610.15	44870.41
610.30	44491.24
610.46	44182.29
610.61	44809.56
610.76	44367.20
610.92	44545.08
611.07	44725.30
611.23	44751.04
611.38	44655.08
611.54	44428.05
611.69	44128.46
611.84	44706.57
612.00	44540.39
612.15	44835.30
612.31	44837.64
612.46	44751.04
612.62	45031.91
612.77	44655.08
612.92	44823.60
613.08	44542.74
613.23	44514.65
613.39	44470.18
613.54	44004.41
613.69	44006.75
613.85	44257.19
614.00	44753.38
614.15	44528.69
614.31	44706.57
614.46	45045.95
614.62	44240.81
614.77	44224.42
614.92	44556.78
615.08	44121.44
615.23	44048.88
615.38	44135.48
615.54	43992.71
615.69	44058.24
615.84	43587.80
616.00	44453.79
616.15	44095.69
616.30	44236.12
616.46	43800.79
616.61	43913.13
616.76	44091.01
616.92	43992.71
617.07	43658.01
617.22	43494.18
617.37	43683.76
617.53	43761.00
617.68	43700.14
617.83	43866.32
617.99	44079.31
618.14	44189.31
618.29	43482.47
618.45	43770.36
618.60	43920.15
618.75	43885.04
618.90	43660.35
619.06	43842.92
619.21	43690.78
619.36	43501.20
619.51	43222.67
619.67	43220.33
619.82	43529.28
619.97	43718.87
620.12	43276.51
620.28	42869.25
620.43	43171.18
620.58	43625.25
620.73	43304.59
620.89	43456.73
621.04	43330.34
621.19	43606.52
621.34	43185.22
621.49	43503.54
621.65	42696.05
621.80	43330.34
621.95	43000.32
622.10	43276.51
622.25	42880.95
622.41	43075.22
622.56	42829.46
622.71	43585.46
622.86	43122.03
623.01	43328.00
623.16	43306.93
623.32	43351.40
623.47	43241.40
623.62	42962.87
623.77	42887.98
623.92	42997.98
624.07	42740.52
624.23	42927.77
624.38	42969.90
624.53	42696.05
624.68	42962.87
624.83	42784.99
624.98	42696.05
625.13	42679.67
625.29	42541.58
625.44	42642.22
625.59	42251.35
625.74	42199.86
625.89	41961.12
626.04	42087.51
626.19	42129.64
626.34	42710.10
626.49	42628.18
626.65	42024.32
626.80	42674.99
626.95	42335.61
627.10	42017.30
627.25	42094.53
627.40	41867.50
627.55	41394.71
627.70	41652.17
627.85	41890.91
628.00	42026.66
628.15	42040.70
628.30	41731.75
628.45	41956.44
628.60	42124.96
628.76	42204.54
628.91	42082.83
629.06	42050.06
629.21	41911.97
629.36	41493.02
629.51	42014.96
629.66	41933.04
629.81	41783.24
629.96	41469.61
630.11	41799.63
630.26	41661.54
630.41	41851.12
630.56	41605.36
630.71	42029.00
630.86	41694.30
631.01	41188.75
631.16	41844.10
631.31	41085.76
631.46	41207.47
631.61	41558.55
631.76	41511.74
631.91	41738.77
632.06	41324.50
632.21	41551.53
632.36	41221.52
632.51	41280.03
632.66	41598.34
632.81	41170.02
632.96	41041.29
633.10	40957.03
633.25	41380.67
633.40	40898.52
633.55	41460.25
633.70	41357.27
633.85	40793.20
634.00	41432.16
634.15	41132.57
634.30	40907.88
634.45	41095.13
634.60	41031.93
634.75	41074.06
634.90	40751.07
635.05	41008.53
635.19	40605.95
635.34	41134.92
635.49	41160.66
635.64	40655.11
635.79	40793.20
635.94	40676.17
636.09	40755.75
636.24	40397.65
636.39	40608.29
636.53	40624.68
636.68	40371.90
636.83	40116.78
636.98	40814.26
637.13	39866.34
637.28	40383.60
637.43	40631.70
637.57	40407.01
637.72	40542.76
637.87	40460.84
638.02	40397.65
638.17	40278.28
638.32	40390.62
638.46	40292.32
638.61	40287.64
638.76	40224.45
638.91	40201.04
639.06	40362.54
639.20	40299.34
639.35	40308.71
639.50	40072.31
639.65	40531.06
639.80	40395.31
639.94	40215.08
640.09	40121.46
640.24	39810.17
640.39	39894.43
640.54	40044.23
640.68	39784.43
640.83	40215.08
640.98	40020.82
641.13	40074.65
641.27	40091.04
641.42	39966.99
641.57	39934.22
641.72	39901.45
641.86	39737.62
642.01	39253.12
642.16	39473.13
642.31	39201.63
642.45	39674.42
642.60	39407.60
642.75	39138.44
642.90	39512.92
643.04	39512.92
643.19	38829.49
643.34	39426.32
643.48	39562.08
643.63	38960.56
643.78	39253.12
643.93	38932.47
644.07	39131.42
644.22	39222.70
644.37	39063.54
644.51	38653.95
644.66	39084.61
644.81	39421.64
644.95	39707.19
645.10	39079.92
645.25	39728.25
645.39	39377.17
645.54	39765.70
645.69	39447.39
645.83	38672.67
645.98	38925.45
646.13	39178.23
646.27	39143.12
646.42	38778.00
646.57	38639.90
646.71	39100.99
646.86	38876.30
647.00	38967.58
647.15	39449.73
647.30	39157.16
647.44	38944.17
647.59	38602.46
647.74	38422.23
647.88	38581.39
648.03	38373.08
648.17	38761.61
648.32	38595.43
648.47	38557.99
648.61	38796.72
648.76	38733.53
648.90	38761.61
649.05	38761.61
649.20	38665.65
649.34	38951.20
649.49	38162.43
649.63	38389.47
649.78	38667.99
649.92	38160.09
650.07	38405.85
650.21	38089.88
650.36	38132.01
650.51	37993.92
650.65	38759.27
650.80	38487.77
650.94	38604.80
651.09	38525.22
651.23	38057.11
651.38	38209.25
651.52	38120.31
651.67	37722.41
651.81	38092.22
651.96	38026.68
652.10	37860.51
652.25	37589.00
652.39	37666.24
652.54	38106.26
652.68	37926.04
652.83	38103.92
652.97	38314.57
653.12	37804.33
653.26	37614.75
653.41	37703.69
653.55	38057.11
653.70	37853.48
653.84	37701.35
653.99	37954.13
654.13	37656.88
654.27	37642.84
654.42	37553.90
654.56	37848.80
654.71	37687.31
654.85	37663.90
655.00	37305.80
655.14	37535.17
655.29	37366.65
655.43	37118.56
655.57	37029.62
655.72	37331.54
655.86	37305.80
656.01	37095.15
656.15	37172.39
656.30	37266.01
656.44	37361.97
656.58	37254.31
656.73	36575.55
656.87	36795.56
657.01	36563.85
657.16	37022.59
657.30	36968.76
657.45	36884.50
657.59	36528.74
657.73	36467.89
657.88	36961.74
658.02	36353.20
658.16	36554.49
658.31	36891.52
658.45	36790.88
658.60	36999.19
658.74	36823.65
658.88	36758.11
659.03	36268.94
659.17	36697.26
659.31	36779.18
659.46	36383.63
659.60	36091.06
659.74	36456.18
659.89	35697.85
660.03	36102.76
660.17	36453.84
660.32	36362.56
660.46	36383.63
660.60	36891.52
660.74	36212.77
660.89	36519.38
661.03	36084.04
661.17	35910.84
661.32	35655.72
661.46	36168.30
661.60	35318.68
661.74	35981.06
661.89	35627.63
662.03	35674.45
662.17	35873.39
662.31	35637.00
662.46	35604.23
662.60	35758.70
662.74	35779.77
662.88	35711.89
663.03	35606.57
663.17	35697.85
663.31	35421.67
663.45	35335.07
663.60	34993.35
663.74	35145.48
663.88	35337.41
664.02	35033.14
664.17	35192.30
664.31	34761.64
664.45	34850.58
664.59	34810.79
664.73	35117.40
664.88	35438.05
665.02	34543.97
665.16	34981.65
665.30	34859.94
665.44	33982.24
665.59	34082.88
665.73	34518.22
665.87	34125.01
666.01	34206.93
666.15	34284.17
666.29	34265.44
666.44	34476.09
666.58	34176.50
666.72	34265.44
666.86	34548.65
667.00	34265.44
667.14	33897.98
667.28	33668.61
667.43	33879.25
667.57	33727.12
667.71	33696.69
667.85	33926.07
667.99	33834.78
668.13	33387.74
668.27	33598.39
668.41	34064.16
668.56	33223.90
668.70	33706.05
668.84	33282.42
668.98	33179.43
669.12	33324.55
669.26	33259.01
669.40	33214.54
669.54	33017.94
669.68	33280.08
669.82	33251.99
669.96	32788.56
670.10	32697.28
670.25	32481.95
670.39	32933.68
670.53	32786.22
670.67	32577.92
670.81	32421.10
670.95	32959.42
671.09	32929.00
671.23	32753.46
671.37	32975.81
671.51	32451.53
671.65	32065.34
671.79	32297.05
671.93	32367.27
672.07	32224.50
672.21	32498.34
672.35	32236.20
672.49	32055.98
672.63	32065.34
672.77	31775.11
672.91	31723.62
673.05	31962.36
673.19	31702.56
673.33	31426.37
673.47	31426.37
673.61	31079.97
673.75	31253.17
673.89	30864.64
674.03	30934.86
674.17	31005.08
674.31	31426.37
674.45	30780.39
674.59	31115.08
674.73	31042.53
674.87	31171.25
675.01	30904.43
675.15	30967.63
675.29	30764.00
675.43	30749.96
675.56	30455.05
675.70	30426.96
675.84	30354.41
675.98	29085.84
676.12	30436.33
676.26	30284.19
676.40	29958.86
676.54	29832.47
676.68	30068.86
676.82	29656.93
676.96	29710.76
677.10	29530.54
677.23	29280.10
677.37	29542.24
677.51	29411.17
677.65	29280.10
677.79	29017.96
677.93	28999.24
678.07	29099.88
678.21	28645.82
678.34	28659.86
678.48	28545.17
678.62	28699.65
678.76	28400.06
678.90	28650.50
679.04	28467.94
679.18	28170.69
679.31	28112.17
679.45	28034.94
679.59	27983.44
679.73	27868.76
679.87	27817.27
680.00	27831.31
680.14	28016.21
680.28	27489.59
680.42	27709.60
680.56	27585.55
680.70	27522.36
680.83	27592.58
680.97	27122.13
681.11	26810.84
681.25	26766.37
681.39	27180.64
681.52	26764.03
681.66	26698.49
681.80	26993.40
681.94	26773.39
682.07	26799.13
682.21	26527.63
682.35	26375.50
682.49	26380.18
682.62	25811.43
682.76	26054.84
682.90	25909.73
683.04	25888.67
683.17	25898.03
683.31	25996.33
683.45	25996.33
683.59	25509.50
683.72	25249.70
683.86	25050.75
684.00	25064.80
684.13	25551.63
684.27	25326.94
684.41	25319.92
684.55	25097.56
684.68	24774.57
684.82	25046.07
684.96	24929.05
685.09	24615.41
685.23	24657.54
685.37	24807.34
685.50	24589.67
685.64	24617.75
685.78	24269.01
685.91	24561.58
686.05	23824.31
686.19	23676.86
686.32	23798.57
686.46	23854.74
686.60	23398.34
686.73	23487.28
686.87	23168.96
687.01	23283.65
687.14	23314.08
687.28	23140.88
687.42	22965.34
687.55	22899.80
687.69	23075.34
687.82	23119.81
687.96	22862.35
688.10	22869.37
688.23	22698.52
688.37	22167.21
688.50	22202.32
688.64	22691.49
688.78	22443.40
688.91	22298.28
689.05	21958.91
689.18	21898.05
689.32	21706.13
689.46	22111.04
689.59	21851.24
689.73	21977.63
689.86	21692.08
690.00	21570.38
690.13	21818.47
690.27	21696.77
690.41	21731.87
690.54	21207.59
690.68	21088.23
690.81	20982.90
690.95	21106.95
691.08	20872.90
691.22	20744.17
691.35	20655.23
691.49	21071.84
691.62	20659.91
691.76	20793.32
691.89	20723.10
692.03	20528.84
692.16	20339.26
692.30	20180.10
692.43	20313.51
692.57	20568.63
692.70	20278.40
692.84	19983.49
692.97	19824.34
693.11	19953.07
693.24	19688.59
693.38	19744.76
693.51	19812.63
693.65	19719.01
693.78	19337.51
693.92	19756.46
694.05	19234.52
694.19	19515.39
694.32	18902.17
694.45	19133.88
694.59	19007.49
694.72	19005.15
694.86	18803.86
694.99	18768.76
695.13	18548.75
695.26	18466.83
695.39	18263.20
695.53	18499.59
695.66	18455.12
695.80	18068.94
695.93	18469.17
696.07	18403.63
696.20	18225.75
696.33	18150.85
696.47	18242.14
696.60	18225.75
696.73	17970.63
696.87	17621.89
697.00	17741.26
697.14	17554.02
697.27	17881.69
697.40	17596.15
697.54	17666.36
697.67	17348.05
697.80	17284.86
697.94	17151.45
698.07	16898.67
698.21	17074.21
698.34	17008.67
698.47	16989.95
698.61	16650.57
698.74	16688.02
698.87	16477.37
699.01	16699.72
699.14	16421.20
699.27	16259.70
699.40	16147.36
699.54	16383.75
699.67	16009.26
699.80	16100.55
699.94	15985.86
700.07	16161.40
700.20	16056.08
700.34	15978.84
700.47	15896.92
700.60	15854.79
700.73	15845.43
700.87	15653.50
701.00	15513.07
701.13	15372.64
701.26	15264.97
701.40	15569.24
701.53	15545.84
701.66	15389.02
701.79	15419.45
701.93	14963.04
702.06	14743.03
702.19	15030.92
702.32	15033.26
702.46	14902.19
702.59	14771.12
702.72	15042.62
702.85	14740.69
702.99	14560.47
703.12	14972.41
703.25	14513.66
703.38	14668.14
703.51	14497.28
703.65	14176.62
703.78	14200.03
703.91	14038.53
704.04	14050.24
704.17	14047.90
704.31	13980.02
704.44	13717.88
704.57	13647.66
704.70	13682.77
704.83	13823.20
704.96	13722.56
705.10	13820.86
705.23	13593.83
>>>>>End Processed Spectral Data<<<<<
