SpectraSuite Data File
++++++++++++++++++++++++++++++++++++
Date: Fri Oct 25 11:33:20 EDT 2013
User: price-jones
Dark Spectrum Present: No
Reference Spectrum Present: No
Number of Sampled Component Spectra: 1
Spectrometers: USB2+H05261
Integration Time (usec): 100000 (USB2+H05261)
Spectra Averaged: 1 (USB2+H05261)
Boxcar Smoothing: 0 (USB2+H05261)
Correct for Electrical Dark: No (USB2+H05261)
Strobe/Lamp Enabled: No (USB2+H05261)
Correct for Detector Non-linearity: No (USB2+H05261)
Correct for Stray Light: No (USB2+H05261)
Number of Pixels in Processed Spectrum: 2048
>>>>>Begin Processed Spectral Data<<<<<
365.73	304.27
365.92	304.27
366.12	304.27
366.32	196.60
366.52	198.95
366.72	152.13
366.91	166.18
367.11	210.65
367.31	161.50
367.51	156.82
367.70	231.71
367.90	231.71
368.10	175.54
368.30	175.54
368.49	114.69
368.69	154.48
368.89	126.39
369.09	159.16
369.28	259.80
369.48	196.60
369.68	205.97
369.87	222.35
370.07	248.10
370.27	229.37
370.47	271.50
370.66	470.45
370.86	526.62
371.06	573.43
371.25	571.09
371.45	514.92
371.65	566.41
371.84	648.33
372.04	613.22
372.24	578.11
372.44	575.77
372.63	594.50
372.83	610.88
373.03	592.16
373.22	615.56
373.42	669.39
373.62	655.35
373.81	660.03
374.01	655.35
374.21	615.56
374.40	664.71
374.60	622.58
374.79	585.13
374.99	667.05
375.19	711.52
375.38	692.80
375.58	730.25
375.78	660.03
375.97	657.69
376.17	741.95
376.37	655.35
376.56	704.50
376.76	653.01
376.95	660.03
377.15	723.23
377.35	674.07
377.54	610.88
377.74	730.25
377.93	690.46
378.13	688.12
378.33	725.57
378.52	770.04
378.72	671.73
378.91	793.44
379.11	758.33
379.31	718.54
379.50	631.94
379.70	695.14
379.89	755.99
380.09	772.38
380.28	664.71
380.48	681.10
380.68	774.72
380.87	723.23
381.07	660.03
381.26	753.65
381.46	781.74
381.65	784.08
381.85	763.01
382.04	716.20
382.24	866.00
382.43	793.44
382.63	786.42
382.83	819.19
383.02	781.74
383.22	805.14
383.41	755.99
383.61	844.93
383.80	805.14
384.00	849.61
384.19	826.21
384.39	915.15
384.58	802.80
384.78	814.51
384.97	896.43
385.17	826.21
385.36	819.19
385.56	816.85
385.75	802.80
385.95	901.11
386.14	861.32
386.34	835.57
386.53	795.78
386.72	842.59
386.92	961.96
387.11	915.15
387.31	849.61
387.50	901.11
387.70	945.58
387.89	908.13
388.09	943.24
388.28	931.53
388.48	922.17
388.67	971.32
388.86	875.36
389.06	961.96
389.25	912.81
389.45	910.47
389.64	1001.75
389.84	1041.54
390.03	968.98
390.22	1032.18
390.42	983.02
390.61	964.30
390.81	994.73
391.00	1032.18
391.19	990.05
391.39	936.21
391.58	1071.97
391.78	997.07
391.97	1013.45
392.16	976.00
392.36	966.64
392.55	1004.09
392.75	1100.05
392.94	1048.56
393.13	1053.24
393.33	1078.99
393.52	1090.69
393.71	1121.12
393.91	1128.14
394.10	1088.35
394.29	1128.14
394.49	1048.56
394.68	1078.99
394.88	1048.56
395.07	1163.25
395.26	1181.97
395.46	1104.73
395.65	1158.57
395.84	1153.88
396.04	1299.00
396.23	1205.38
396.42	1188.99
396.62	1252.19
396.81	1207.72
397.00	1240.48
397.19	1200.69
397.39	1238.14
397.58	1214.74
397.77	1233.46
397.97	1331.76
398.16	1245.16
398.35	1177.29
398.55	1301.34
398.74	1289.64
398.93	1369.21
399.12	1371.55
399.32	1273.25
399.51	1280.27
399.70	1380.92
399.90	1331.76
400.09	1401.98
400.28	1486.24
400.47	1413.68
400.67	1390.28
400.86	1317.72
401.05	1460.49
401.24	1406.66
401.44	1394.96
401.63	1476.88
401.82	1420.71
402.01	1490.92
402.21	1460.49
402.40	1483.90
402.59	1547.09
402.78	1516.67
402.97	1570.50
403.17	1523.69
403.36	1535.39
403.55	1710.93
403.74	1582.20
403.93	1528.37
404.13	1659.44
404.32	1643.06
404.51	1586.88
404.70	1554.12
404.89	1685.19
405.09	1790.51
405.28	1575.18
405.47	1666.46
405.66	1657.10
405.85	1809.23
406.05	1678.16
406.24	1720.29
406.43	1813.92
406.62	1797.53
406.81	1856.04
407.00	1825.62
407.20	1797.53
407.39	1874.77
407.58	1785.83
407.77	1865.41
407.96	1867.75
408.15	1973.07
408.34	1914.56
408.54	1877.11
408.73	1996.48
408.92	1998.82
409.11	1944.99
409.30	1987.11
409.49	1991.80
409.68	2029.24
409.87	2062.01
410.07	2003.50
410.26	2108.82
410.45	2071.37
410.64	2033.93
410.83	2062.01
411.02	2127.55
411.21	2228.19
411.40	2146.27
411.59	2223.51
411.78	2148.61
411.98	2207.13
412.17	2324.15
412.36	2298.41
412.55	2284.36
412.74	2331.17
412.93	2410.75
413.12	2340.54
413.31	2476.29
413.50	2427.14
413.69	2377.98
413.88	2541.82
414.07	2492.67
414.26	2417.77
414.45	2530.12
414.64	2588.63
414.83	2665.87
415.02	2565.23
415.22	2649.49
415.41	2600.34
415.60	2724.38
415.79	2810.98
415.98	2649.49
416.17	2766.51
416.36	2640.12
416.55	2822.69
416.74	2871.84
416.93	2747.79
417.12	2794.60
417.31	2785.24
417.50	2937.37
417.69	3045.04
417.88	2895.24
418.07	2904.60
418.26	2991.20
418.45	3059.08
418.64	3068.44
418.83	2965.46
419.02	3054.40
419.21	3030.99
419.39	3138.66
419.58	3073.12
419.77	3094.19
419.96	3112.91
420.15	3180.79
420.34	3220.58
420.53	3309.52
420.72	3234.62
420.91	3309.52
421.10	3344.63
421.29	3269.73
421.48	3267.39
421.67	3349.31
421.86	3251.00
422.05	3295.47
422.24	3279.09
422.43	3461.65
422.61	3386.76
422.80	3379.73
422.99	3576.34
423.18	3496.76
423.37	3452.29
423.56	3407.82
423.75	3384.41
423.94	3471.01
424.13	3087.17
424.32	3253.34
424.50	3454.63
424.69	3578.68
424.88	3487.40
425.07	3351.65
425.26	3396.12
425.45	3487.40
425.64	3515.48
425.83	3393.78
426.01	3559.95
426.20	3609.11
426.39	3651.24
426.58	3435.91
426.77	3480.38
426.96	3667.62
427.15	3592.72
427.33	3597.40
427.52	3520.17
427.71	3686.34
427.90	3714.43
428.09	3641.87
428.28	3726.13
428.46	3686.34
428.65	3768.26
428.84	3831.46
429.03	3899.33
429.22	3712.09
429.40	3676.98
429.59	3854.86
429.78	3688.68
429.97	3714.43
430.16	3667.62
430.34	3882.95
430.53	3885.29
430.72	4025.72
430.91	3922.74
431.10	3887.63
431.28	3866.56
431.47	4105.30
431.66	3920.40
431.85	3922.74
432.03	4060.83
432.22	4091.26
432.41	4198.92
432.60	4093.60
432.79	4250.41
432.97	4219.99
433.16	4161.47
433.35	4196.58
433.54	4128.70
433.72	4203.60
433.91	4145.09
434.10	4248.07
434.28	4257.43
434.47	4222.33
434.66	4234.03
434.85	4255.09
435.03	4428.29
435.22	4367.44
435.41	4348.72
435.59	4411.91
435.78	4311.27
435.97	4425.95
436.16	4362.76
436.34	4444.68
436.53	4505.53
436.72	4475.10
436.90	4479.79
437.09	4386.16
437.28	4397.87
437.46	4521.92
437.65	4514.89
437.84	4809.80
438.02	4641.28
438.21	4617.88
438.40	4683.41
438.58	4767.67
438.77	4774.69
438.96	4704.48
439.14	4718.52
439.33	4814.48
439.52	4791.08
439.70	4917.47
439.89	5022.79
440.08	5114.07
440.26	5046.20
440.45	5165.56
440.63	5172.58
440.82	5200.67
441.01	5259.18
441.19	5053.22
441.38	5305.99
441.57	5277.91
441.75	5219.39
441.94	5425.36
442.12	5523.66
442.31	5488.56
442.50	5540.05
442.68	5416.00
442.87	5364.51
443.05	5345.78
443.24	5633.67
443.43	5511.96
443.61	5617.29
443.80	5762.40
443.98	5523.66
444.17	5401.96
444.35	5570.48
444.54	5647.71
444.73	5654.73
444.91	5689.84
445.10	5596.22
445.28	5823.25
445.47	5645.37
445.65	5631.33
445.84	5727.29
446.02	5860.70
446.21	5743.67
446.39	5685.16
446.58	5893.47
446.77	5834.96
446.95	5849.00
447.14	5687.50
447.32	5909.85
447.51	5729.63
447.69	5654.73
447.88	5858.36
448.06	5898.15
448.25	5844.32
448.43	5767.08
448.62	5919.21
448.80	5724.95
448.99	5944.96
449.17	5886.45
449.36	5933.26
449.54	5909.85
449.73	6253.91
449.91	6228.17
450.10	6083.05
450.28	6251.57
450.46	6183.70
450.65	6115.82
450.83	6155.61
451.02	6111.14
451.20	6382.64
451.39	6246.89
451.57	6303.06
451.76	6087.73
451.94	6242.21
452.13	6146.25
452.31	6363.92
452.49	6272.64
452.68	6471.58
452.86	6270.30
453.05	6392.00
453.23	6504.35
453.42	6492.65
453.60	6373.28
453.78	6459.88
453.97	6455.20
454.15	6457.54
454.34	6469.24
454.52	6672.87
454.70	6506.69
454.89	6537.12
455.07	6754.79
455.26	6551.16
455.44	6712.66
455.62	6794.58
455.81	6729.04
455.99	6902.24
456.17	6904.58
456.36	6860.11
456.54	6834.36
456.73	6885.86
456.91	7129.27
457.09	7049.69
457.28	7077.78
457.46	6995.86
457.64	7180.76
457.83	7279.07
458.01	6963.09
458.19	7384.39
458.38	7232.26
458.56	7382.05
458.74	7360.98
458.93	7239.28
459.11	7225.23
459.29	7248.64
459.48	7260.34
459.66	7414.82
459.84	7314.17
460.03	7552.91
460.21	7524.82
460.39	7461.63
460.57	7602.06
460.76	7487.37
460.94	7630.15
461.12	7639.51
461.31	7683.98
461.49	7527.16
461.67	7485.03
461.85	7915.69
462.04	7665.25
462.22	8248.05
462.40	7815.05
462.59	7885.26
462.77	7826.75
462.95	7859.52
463.13	7939.10
463.32	7784.62
463.50	8023.36
463.68	8042.08
463.86	8009.31
464.05	7918.03
464.23	7988.25
464.41	8021.02
464.59	7789.30
464.78	8168.47
464.96	7985.91
465.14	8109.96
465.32	8013.99
465.50	8124.00
465.69	8430.61
465.87	8208.26
466.05	8243.37
466.23	8334.65
466.41	8461.04
466.60	8372.10
466.78	8292.52
466.96	8416.57
467.14	8215.28
467.32	8248.05
467.51	8596.79
467.69	8425.93
467.87	8358.05
468.05	8568.70
468.23	8351.03
468.41	8322.94
468.60	8528.91
468.78	8475.08
468.96	8594.45
469.14	8678.71
469.32	8777.01
469.50	8465.72
469.69	8582.74
469.87	8727.86
470.05	8830.84
470.23	8940.85
470.41	8762.97
470.59	8898.72
470.77	8847.22
470.95	8816.80
471.14	9057.87
471.32	8788.71
471.50	9198.31
471.68	8959.57
471.86	9188.94
472.04	9181.92
472.22	9273.20
472.40	9081.28
472.58	9352.78
472.77	9408.95
472.95	9537.68
473.13	9926.21
473.31	9331.72
473.49	9362.14
473.67	9626.62
473.85	9675.77
474.03	9998.77
474.21	9867.70
474.39	9771.74
474.57	9872.38
474.75	10134.52
474.93	10078.35
475.12	9947.28
475.30	10092.39
475.48	10190.69
475.66	10066.64
475.84	9947.28
476.02	10345.17
476.20	10335.81
476.38	10595.61
476.56	10775.83
476.74	10590.92
476.92	10553.48
477.10	10567.52
477.28	10693.91
477.46	10621.35
477.64	11063.71
477.82	11178.40
478.00	11403.09
478.18	11140.95
478.36	11190.10
478.54	11391.39
478.72	11384.37
478.90	11667.57
479.08	11606.72
479.26	11646.51
479.44	11620.76
479.62	11761.19
479.80	12088.87
479.98	11988.22
480.16	12372.07
480.34	12320.58
480.52	12486.76
480.70	12428.24
480.88	12320.58
481.06	12276.11
481.24	12453.99
481.41	12774.64
481.59	12807.41
481.77	12992.31
481.95	12875.29
482.13	13287.22
482.31	13135.09
482.49	13408.93
482.67	13235.73
482.85	13523.62
483.03	13607.87
483.21	13757.67
483.39	14061.94
483.57	13804.48
483.74	13989.38
483.92	14043.21
484.10	14148.54
484.28	14513.66
484.46	14647.07
484.64	14937.30
484.82	14499.62
485.00	14759.42
485.18	15035.60
485.35	15201.78
485.53	15257.95
485.71	15353.91
485.89	15396.04
486.07	15433.49
486.25	15728.40
486.43	15777.55
486.61	15878.19
486.78	15950.75
486.96	15971.82
487.14	16313.53
487.32	16166.08
487.50	16507.80
487.68	16533.54
487.85	16762.92
488.03	17083.57
488.21	17224.00
488.39	17158.47
488.57	17170.17
488.75	17413.59
488.92	17652.32
489.10	17638.28
489.28	17710.83
489.46	17893.40
489.64	17982.34
489.81	18265.54
489.99	18408.31
490.17	18647.05
490.35	18387.25
490.53	18471.51
490.70	18609.60
490.88	18817.91
491.06	19000.47
491.24	19218.14
491.41	19370.27
491.59	19288.35
491.77	19073.03
491.95	19690.93
492.13	19515.39
492.30	19906.26
492.48	19864.13
492.66	19829.02
492.84	20009.24
493.01	20400.11
493.19	20341.60
493.37	20381.38
493.54	20556.93
493.72	20971.20
493.90	20765.23
494.08	20805.02
494.25	21144.40
494.43	21029.71
494.61	21558.67
494.79	21350.37
494.96	21645.27
495.14	21666.34
495.32	22010.40
495.49	21989.33
495.67	22082.95
495.85	22359.14
496.02	22139.13
496.20	22317.01
496.38	22888.10
496.55	22640.00
496.73	23119.81
496.91	22710.22
497.09	23208.75
497.26	22731.28
497.44	23232.16
497.62	23129.17
497.79	23569.19
497.97	23126.83
498.14	23821.97
498.32	23669.84
498.50	23929.64
498.67	24027.94
498.85	24095.82
499.03	24259.65
499.20	24285.40
499.38	24540.52
499.56	24379.02
499.73	24858.83
499.91	24907.98
500.08	25046.07
500.26	24936.07
500.44	25151.40
500.61	24809.68
500.79	24879.89
500.97	25308.21
501.14	25727.17
501.32	25729.51
501.49	25319.92
501.67	25685.04
501.84	25998.67
502.02	25773.98
502.20	25923.77
502.37	25778.66
502.55	26136.76
502.72	26410.60
502.90	26562.74
503.07	26033.78
503.25	26647.00
503.43	26167.19
503.60	26654.02
503.78	26609.55
503.95	26721.90
504.13	27065.96
504.30	26969.99
504.48	26686.79
504.65	26820.20
504.83	27421.72
505.01	27632.36
505.18	27021.48
505.36	27777.48
505.53	27665.13
505.71	27594.92
505.88	27496.61
506.06	27573.85
506.23	27747.05
506.41	27847.69
506.58	27880.46
506.76	28180.05
506.93	28297.08
507.11	28463.25
507.28	28364.95
507.46	28645.82
507.63	28725.39
507.81	28837.74
507.98	28599.01
508.16	28730.08
508.33	28484.32
508.50	29415.85
508.68	29071.79
508.85	29350.32
509.03	29453.30
509.20	29408.83
509.38	29504.79
509.55	29713.10
509.73	29685.01
509.90	29624.16
510.08	29619.48
510.25	29575.01
510.42	29977.58
510.60	30235.04
510.77	30410.58
510.95	30171.85
511.12	30167.16
511.30	30218.66
511.47	30635.27
511.64	30155.46
511.82	30497.18
511.99	30768.68
512.17	30649.32
512.34	30672.72
512.51	31051.89
512.69	31166.57
512.86	31157.21
513.04	31482.55
513.21	30911.46
513.38	31307.01
513.56	31761.07
513.73	31218.07
513.90	31047.21
514.08	31325.73
514.25	31622.98
514.43	31969.38
514.60	31871.07
514.77	31880.44
514.95	32135.56
515.12	31866.39
515.29	31917.89
515.47	32376.63
515.64	32238.54
515.81	32198.75
515.99	32772.18
516.16	32573.24
516.33	32697.28
516.51	32936.02
516.68	32762.82
516.85	32449.19
517.03	32973.47
517.20	32924.32
517.37	32828.35
517.54	33085.81
517.72	33202.84
517.89	33146.67
518.06	33060.07
518.24	33053.05
518.41	33397.10
518.58	33450.94
518.75	33298.80
518.93	33729.46
519.10	34071.18
519.27	33790.31
519.45	33881.60
519.62	34349.70
519.79	34396.51
519.96	33818.40
520.14	34529.92
520.31	34073.52
520.48	34150.76
520.65	34328.64
520.83	34696.10
521.00	34827.17
521.17	34424.60
521.34	34506.52
521.52	34946.54
521.69	34836.53
521.86	34972.28
522.03	35211.02
522.20	35278.89
522.38	35323.36
522.55	35185.27
522.72	35192.30
522.89	35409.96
523.07	35892.12
523.24	35442.73
523.41	35543.38
523.58	35634.66
523.75	35786.79
523.92	35543.38
524.10	35606.57
524.27	36158.94
524.44	36240.86
524.61	35962.33
524.78	36037.23
524.96	35971.69
525.13	36364.90
525.30	36392.99
525.47	36526.40
525.64	36084.04
525.81	36685.56
525.98	36861.10
526.16	36643.43
526.33	36577.89
526.50	37289.42
526.67	36692.58
526.84	36828.33
527.01	36821.31
527.18	37109.19
527.36	37078.77
527.53	36938.33
527.70	37574.96
527.87	37436.87
528.04	37380.70
528.21	37565.60
528.38	37296.44
528.55	37794.97
528.72	37872.21
528.89	37666.24
529.07	37610.07
529.24	37453.25
529.41	37558.58
529.58	37818.38
529.75	37670.92
529.92	38036.05
530.09	37624.11
530.26	37909.66
530.43	38183.50
530.60	37844.12
530.77	37993.92
530.94	38455.00
531.11	37895.61
531.28	38520.54
531.46	38452.66
531.63	38572.03
531.80	38321.59
531.97	38557.99
532.14	38787.36
532.31	38766.29
532.48	39145.46
532.65	39129.08
532.82	38852.89
532.99	39213.34
533.16	38789.70
533.33	39079.92
533.50	39250.78
533.67	39192.27
533.84	38761.61
534.01	39269.51
534.18	39079.92
534.35	39868.69
534.52	39215.68
534.69	40065.29
534.86	39543.35
535.03	39625.27
535.20	39508.24
535.37	39655.70
535.54	39636.97
535.71	39899.11
535.88	40002.10
536.05	40371.90
536.22	39957.63
536.38	39899.11
536.55	39697.83
536.72	39995.07
536.89	39718.89
537.06	40313.39
537.23	40318.07
537.40	39981.03
537.57	40182.32
537.74	40114.44
537.91	40435.10
538.08	40692.55
538.25	40140.19
538.42	40636.38
538.59	40781.49
538.75	40605.95
538.92	41085.76
539.09	40928.95
539.26	40591.91
539.43	40769.79
539.60	40921.93
539.77	41226.20
539.94	41233.22
540.11	41174.70
540.28	41179.39
540.44	41193.43
540.61	41216.83
540.78	41305.77
540.95	41223.86
541.12	41090.44
541.29	41137.26
541.46	41490.68
541.62	41053.00
541.79	42064.11
541.96	41120.87
542.13	41572.60
542.30	41780.90
542.47	41818.35
542.63	41727.07
542.80	41991.55
542.97	42588.39
543.14	42354.33
543.31	41989.21
543.48	42202.20
543.64	42534.56
543.81	42644.56
543.98	42534.56
544.15	42335.61
544.32	42843.51
544.48	42581.37
544.65	42536.90
544.82	42916.06
544.99	42368.38
545.16	42763.93
545.32	42370.72
545.49	42883.30
545.66	43182.88
545.83	42904.36
546.00	42988.62
546.16	43407.58
546.33	42782.65
546.50	42679.67
546.67	43161.82
546.83	42260.71
547.00	42981.60
547.17	42974.58
547.34	43271.82
547.50	43360.76
547.67	43412.26
547.84	43641.63
548.00	43562.05
548.17	43400.55
548.34	43952.92
548.51	44032.50
548.67	43676.74
548.84	43653.33
549.01	43496.52
549.18	43505.88
549.34	43711.84
549.51	43978.67
549.68	44137.82
549.84	43751.63
550.01	43728.23
550.18	43552.69
550.34	43601.84
550.51	44252.51
550.68	44334.43
550.84	43433.32
551.01	44554.44
551.18	43833.55
551.34	44009.09
551.51	44224.42
551.68	44165.91
551.84	44348.47
552.01	44336.77
552.18	44552.10
552.34	44194.00
552.51	44760.40
552.68	44444.43
552.84	44495.92
553.01	44538.05
553.18	44765.09
553.34	44526.35
553.51	44657.42
553.67	44509.97
553.84	44896.16
554.01	45097.44
554.17	44704.23
554.34	44851.69
554.51	44350.81
554.67	44673.81
554.84	45268.30
555.00	44837.64
555.17	44898.50
555.33	44858.71
555.50	45191.06
555.67	45069.36
555.83	45057.65
556.00	45104.46
556.16	45567.89
556.33	44910.20
556.50	45174.68
556.66	45265.96
556.83	44980.42
556.99	45481.29
557.16	45523.42
557.32	45408.73
557.49	45738.75
557.65	45081.06
557.82	45670.87
557.98	45366.60
558.15	45799.60
558.32	45834.71
558.48	45743.43
558.65	45603.00
558.81	45790.24
558.98	45392.35
559.14	45317.45
559.31	45741.09
559.47	45420.44
559.64	45481.29
559.80	45801.94
559.97	46251.33
560.13	45881.52
560.30	46078.13
560.46	46064.08
560.63	46033.66
560.79	46155.36
560.96	46202.18
561.12	45717.68
561.29	45951.74
561.45	46401.12
561.61	45827.69
561.78	46323.88
561.94	46012.59
562.11	45935.35
562.27	46237.28
562.44	46424.53
562.60	46354.31
562.77	46115.58
562.93	45993.87
563.10	46747.52
563.26	46344.95
563.42	46770.93
563.59	46239.62
563.75	46351.97
563.92	46361.33
564.08	46333.24
564.24	46085.15
564.41	46368.35
564.57	46417.50
564.74	46401.12
564.90	46445.59
565.07	46333.24
565.23	46469.00
565.39	46579.00
565.56	46281.75
565.72	46487.72
565.88	46712.41
566.05	46263.03
566.21	46602.41
566.38	46775.61
566.54	46618.79
566.70	46761.56
566.87	46787.31
567.03	46677.30
567.19	46862.21
567.36	46429.21
567.52	46752.20
567.68	46806.03
567.85	46838.80
568.01	47049.45
568.17	47012.00
568.34	47210.95
568.50	46932.42
568.66	46628.15
568.83	46850.50
568.99	46689.01
569.15	47044.77
569.32	47089.24
569.48	46710.07
569.64	47086.90
569.81	47189.88
569.97	46967.53
570.13	46852.84
570.30	46986.25
570.46	46925.40
570.62	46918.38
570.78	47297.55
570.95	47012.00
571.11	47175.84
571.27	47079.88
571.43	46583.68
571.60	46930.08
571.76	47007.32
571.92	47089.24
572.09	46817.74
572.25	46913.70
572.41	46799.01
572.57	47192.22
572.74	47463.72
572.90	47131.37
573.06	47505.85
573.22	47433.30
573.38	47629.90
573.55	47618.20
573.71	47751.61
573.87	47334.99
574.03	47316.27
574.20	47690.76
574.36	47435.64
574.52	47681.39
574.68	47227.33
574.84	47407.55
575.01	47569.05
575.17	47274.14
575.33	47433.30
575.49	47220.31
575.65	47180.52
575.82	47353.72
575.98	47285.84
576.14	47529.26
576.30	47515.22
576.46	47463.72
576.62	47419.25
576.79	47194.56
576.95	47250.74
577.11	47079.88
577.27	47056.47
577.43	47470.75
577.59	47531.60
577.75	47276.48
577.92	47082.22
578.08	47529.26
578.24	47592.45
578.40	47489.47
578.56	47386.49
578.72	47540.96
578.88	47526.92
579.04	47665.01
579.21	47770.33
579.37	47557.35
579.53	47498.83
579.69	47288.18
579.85	47613.52
580.01	47711.82
580.17	47524.58
580.33	47445.00
580.49	47938.85
580.65	47707.14
580.82	47264.78
580.98	47084.56
581.14	47253.08
581.30	47594.79
581.46	47587.77
581.62	47367.76
581.78	47686.07
581.94	47079.88
582.10	47447.34
582.26	48184.61
582.42	47367.76
582.58	47349.04
582.74	47573.73
582.90	48027.79
583.06	47655.65
583.22	47709.48
583.38	47775.02
583.54	47657.99
583.70	47679.05
583.86	48027.79
584.02	47592.45
584.18	47779.70
584.34	47948.21
584.50	47985.66
584.66	47601.82
584.82	47908.43
584.98	48205.67
585.14	47784.38
585.30	47510.53
585.46	47351.38
585.62	47501.17
585.78	48067.58
585.94	47470.75
586.10	47398.19
586.26	47557.35
586.42	47419.25
586.58	47903.74
586.74	47461.38
586.90	47702.46
587.06	47618.20
587.22	47812.46
587.38	47856.93
587.54	47723.52
587.70	48135.46
587.86	48140.14
588.02	47590.11
588.18	48046.52
588.34	47896.72
588.49	47889.70
588.65	47681.39
588.81	47892.04
588.97	47936.51
589.13	48158.86
589.29	47622.88
589.45	48296.95
589.61	47929.49
589.77	47978.64
589.93	48053.54
590.08	48371.85
590.24	48144.82
590.40	48320.36
590.56	48495.90
590.72	48245.46
590.88	47814.80
591.04	47824.17
591.20	48353.13
591.35	48175.25
591.51	48339.08
591.67	48355.47
591.83	48523.99
591.99	48060.56
592.15	48151.84
592.31	47941.19
592.46	48350.79
592.62	48458.45
592.78	48355.47
592.94	48538.03
593.10	48247.80
593.26	48287.59
593.41	48484.20
593.57	48114.39
593.73	48090.99
593.89	49106.78
594.05	48568.46
594.20	48671.44
594.36	48629.31
594.52	48371.85
594.68	48346.11
594.84	48458.45
594.99	49116.14
595.15	48472.49
595.31	48708.89
595.47	48121.41
595.62	48947.62
595.78	48603.56
595.94	48739.32
596.10	48158.86
596.25	48818.89
596.41	48676.12
596.57	48285.25
596.73	48650.38
596.88	48687.82
597.04	48701.87
597.20	48484.20
597.36	48327.38
597.51	48236.10
597.67	48039.50
597.83	48533.35
597.99	48552.07
598.14	48404.62
598.30	48531.01
598.46	48729.95
598.61	48863.36
598.77	48231.42
598.93	48746.34
599.09	48495.90
599.24	48886.77
599.40	48783.79
599.56	48676.12
599.71	49081.03
599.87	48870.39
600.03	48907.83
600.18	48872.73
600.34	48531.01
600.50	48451.43
600.65	48718.25
600.81	48779.10
600.97	48987.41
601.12	48788.47
601.28	48451.43
601.44	48629.31
601.59	48296.95
601.75	48788.47
601.91	49097.42
602.06	48374.19
602.22	48685.48
602.37	48502.92
602.53	48711.23
602.69	49118.48
602.84	48451.43
603.00	48507.60
603.16	48729.95
603.31	48563.78
603.47	48584.84
603.62	48910.17
603.78	49003.80
603.94	48610.59
604.09	48779.10
604.25	48790.81
604.40	48535.69
604.56	48985.07
604.71	48877.41
604.87	48533.35
605.03	48137.80
605.18	48519.31
605.34	49167.63
605.49	48601.22
605.65	48638.67
605.80	48329.72
605.96	48245.46
606.12	48650.38
606.27	48751.02
606.43	48432.71
606.58	48687.82
606.74	48781.45
606.89	48465.47
607.05	48804.85
607.20	48729.95
607.36	48758.04
607.51	48486.54
607.67	48643.35
607.82	48217.38
607.98	48493.56
608.13	48449.09
608.29	48493.56
608.44	48664.42
608.60	48896.13
608.75	48643.35
608.91	48421.00
609.06	48208.01
609.22	48882.09
609.37	48608.25
609.53	48577.82
609.68	48409.30
609.84	48233.76
609.99	48292.27
610.15	48341.42
610.30	48596.54
610.46	47847.57
610.61	48374.19
610.76	48472.49
610.92	48189.29
611.07	48364.83
611.23	48203.33
611.38	48156.52
611.54	48332.06
611.69	48301.64
611.84	48421.00
612.00	48245.46
612.15	48149.50
612.31	47882.68
612.46	48044.18
612.62	48362.49
612.77	48135.46
612.92	48259.51
613.08	48318.02
613.23	47854.59
613.39	47887.36
613.54	47709.48
613.69	47854.59
613.85	48451.43
614.00	48053.54
614.15	48058.22
614.31	47800.76
614.46	47885.02
614.62	48247.80
614.77	47969.28
614.92	47704.80
615.08	48142.48
615.23	48025.45
615.38	47952.90
615.54	47831.19
615.69	48051.20
615.84	47948.21
616.00	48083.97
616.15	47669.69
616.30	48088.65
616.46	47437.98
616.61	47767.99
616.76	47908.43
616.92	47686.07
617.07	48313.34
617.22	47648.63
617.37	47250.74
617.53	47819.49
617.68	47922.47
617.83	47718.84
617.99	48072.26
618.14	47842.89
618.29	47295.21
618.45	47812.46
618.60	47456.70
618.75	47124.35
618.90	47342.02
619.06	47767.99
619.21	47725.86
619.36	47627.56
619.51	47423.93
619.67	47318.61
619.82	47320.95
619.97	47583.09
620.12	47512.88
620.28	47217.97
620.43	47400.53
620.58	47573.73
620.73	47632.24
620.89	47643.94
621.04	47683.73
621.19	47395.85
621.34	47524.58
621.49	46843.48
621.65	47533.94
621.80	47320.95
621.95	47171.16
622.10	47035.41
622.25	47278.82
622.41	46988.60
622.56	47037.75
622.71	47442.66
622.86	46848.16
623.01	46820.08
623.16	47114.98
623.32	47112.64
623.47	47426.28
623.62	46726.46
623.77	47538.62
623.92	46852.84
624.07	47075.19
624.23	47016.68
624.38	46897.31
624.53	46820.08
624.68	46859.87
624.83	46845.82
624.98	46925.40
625.13	46295.80
625.29	46548.57
625.44	46909.02
625.59	46447.93
625.74	46742.84
625.89	46583.68
626.04	46274.73
626.19	46784.97
626.34	46670.28
626.49	46267.71
626.65	46197.49
626.80	46089.83
626.95	46356.65
627.10	46188.13
627.25	46714.75
627.40	46595.38
627.55	46443.25
627.70	46412.82
627.85	46600.07
628.00	46349.63
628.15	46405.80
628.30	46012.59
628.45	45876.84
628.60	45474.27
628.76	45900.25
628.91	45933.01
629.06	45268.30
629.21	45965.78
629.36	45823.01
629.51	46040.68
629.66	45975.14
629.81	46003.23
629.96	45986.85
630.11	45893.22
630.26	45811.31
630.41	46160.05
630.56	45769.18
630.71	46417.50
630.86	46043.02
631.01	45511.72
631.16	45598.32
631.31	46176.43
631.46	45640.45
631.61	45918.97
631.76	46026.63
631.91	45216.81
632.06	46043.02
632.21	45890.88
632.36	45944.72
632.51	45230.85
632.66	45415.76
632.81	45532.78
632.96	45813.65
633.10	45088.08
633.25	45303.41
633.40	45893.22
633.55	45799.60
633.70	45291.71
633.85	45397.03
634.00	45069.36
634.15	45411.07
634.30	45006.16
634.45	44832.96
634.60	45167.66
634.75	45120.85
634.90	45113.83
635.05	45165.32
635.19	44800.19
635.34	45680.24
635.49	45050.63
635.64	45221.49
635.79	44928.92
635.94	45312.77
636.09	45083.40
636.24	45144.25
636.39	45059.99
636.53	44858.71
636.68	45177.02
636.83	44266.55
636.98	44926.58
637.13	44416.35
637.28	44676.15
637.43	44502.95
637.57	44329.75
637.72	44280.60
637.87	44486.56
638.02	44638.70
638.17	44844.66
638.32	44446.77
638.46	44601.25
638.61	44186.97
638.76	44144.84
638.91	44362.51
639.06	44334.43
639.20	43992.71
639.35	44502.95
639.50	43889.73
639.65	44690.19
639.80	44587.21
639.94	44388.26
640.09	44119.10
640.24	44465.50
640.39	44112.08
640.54	44051.22
640.68	44245.49
640.83	44500.61
640.98	43866.32
641.13	43985.69
641.27	44123.78
641.42	43992.71
641.57	43990.37
641.72	43868.66
641.86	43969.30
642.01	43695.46
642.16	44203.36
642.31	43302.25
642.45	43697.80
642.60	43648.65
642.75	43721.21
642.90	44018.46
643.04	44037.18
643.19	44081.65
643.34	43454.39
643.48	43505.88
643.63	43503.54
643.78	43679.08
643.93	44105.06
644.07	43777.38
644.22	44020.80
644.37	43505.88
644.51	43683.76
644.66	43622.90
644.81	43641.63
644.95	43636.95
645.10	43428.64
645.25	43082.24
645.39	43346.72
645.54	43346.72
645.69	42792.01
645.83	42890.32
645.98	43297.57
646.13	43398.21
646.27	43042.45
646.42	43065.86
646.57	43398.21
646.71	43192.25
646.86	43576.09
647.00	43489.49
647.15	43222.67
647.30	43253.10
647.44	42768.61
647.59	42660.94
647.74	42890.32
647.88	43180.54
648.03	43093.94
648.17	43613.54
648.32	42941.81
648.47	42859.89
648.61	42714.78
648.76	43084.58
648.90	42813.08
649.05	42731.16
649.20	42962.87
649.34	42630.52
649.49	42997.98
649.63	43192.25
649.78	42951.17
649.92	42829.46
650.07	43208.63
650.21	43241.40
650.36	42628.18
650.51	42574.34
650.65	42773.29
650.80	43033.09
650.94	42628.18
651.09	42768.61
651.23	42211.56
651.38	42300.50
651.52	42146.03
651.67	42153.05
651.81	42314.55
651.96	42770.95
652.10	41944.74
652.25	42007.94
652.39	42199.86
652.54	42183.48
652.68	42649.24
652.83	42389.44
652.97	42071.13
653.12	42162.41
653.26	42094.53
653.41	42618.81
653.55	42019.64
653.70	42251.35
653.84	41916.65
653.99	42012.62
654.13	41874.52
654.27	41897.93
654.42	42621.16
654.56	41942.40
654.71	41832.39
654.85	42019.64
655.00	42061.77
655.14	41652.17
655.29	42220.92
655.43	42246.67
655.57	41888.57
655.72	41455.57
655.86	41326.84
656.01	41673.24
656.15	41411.10
656.30	41694.30
656.44	41572.60
656.58	41521.10
656.73	41808.99
656.87	41390.03
657.01	41324.50
657.16	41624.09
657.30	41923.68
657.45	41495.36
657.59	40957.03
657.73	41275.35
657.88	41429.82
658.02	41514.08
658.16	41247.26
658.31	41263.64
658.45	41053.00
658.60	41284.71
658.74	40957.03
658.88	40835.33
659.03	40669.15
659.17	40783.83
659.31	41013.21
659.46	41347.90
659.60	41219.17
659.74	40598.93
659.89	40278.28
660.03	40474.88
660.17	40680.85
660.32	40390.62
660.46	40383.60
660.60	40362.54
660.74	40556.80
660.89	40755.75
661.03	40137.85
661.17	40098.06
661.32	40217.43
661.46	40498.29
661.60	39817.19
661.74	40231.47
661.89	39793.79
662.03	40175.30
662.17	40102.74
662.31	40076.99
662.46	39917.84
662.60	39522.29
662.74	39531.65
662.88	39395.90
663.03	39388.88
663.17	39030.77
663.31	39363.13
663.45	39679.10
663.60	39583.14
663.74	39377.17
663.88	39112.69
664.02	39058.86
664.17	39398.24
664.31	39180.57
664.45	38946.51
664.59	38850.55
664.73	38852.89
664.88	39157.16
665.02	38836.51
665.16	38717.14
665.30	38803.74
665.44	38377.76
665.59	38525.22
665.73	38515.86
665.87	37832.42
666.01	38450.32
666.15	38773.31
666.29	38232.65
666.44	38667.99
666.58	38478.41
666.72	38057.11
666.86	37930.72
667.00	38005.62
667.14	38160.09
667.28	37266.01
667.43	38071.15
667.57	38363.72
667.71	37830.08
667.85	37909.66
667.99	38150.73
668.13	37624.11
668.27	37378.36
668.41	37581.98
668.56	37132.60
668.70	37237.92
668.84	37043.66
668.98	36842.37
669.12	37109.19
669.26	36959.40
669.40	37104.51
669.54	37399.42
669.68	37006.21
669.82	37158.34
669.96	36507.68
670.10	36463.21
670.25	36449.16
670.39	36425.76
670.53	36823.65
670.67	36683.22
670.81	36730.03
670.95	36495.97
671.09	36374.27
671.23	35995.10
671.37	36535.76
671.51	36484.27
671.65	35871.05
671.79	36088.72
671.93	36226.81
672.07	35899.14
672.21	35641.68
672.35	35693.17
672.49	35754.02
672.63	35721.26
672.77	35435.71
672.91	35901.48
673.05	35819.56
673.19	35484.86
673.33	35145.48
673.47	34962.92
673.61	34972.28
673.75	34710.14
673.89	34525.24
674.03	34808.45
674.17	34801.43
674.31	34689.08
674.45	34497.16
674.59	34389.49
674.73	34466.73
674.87	34352.04
675.01	33865.21
675.15	34029.05
675.29	33874.57
675.43	33558.60
675.56	34314.59
675.70	33879.25
675.84	33734.14
675.98	32692.60
676.12	33748.18
676.26	33986.92
676.40	33146.67
676.54	33151.35
676.68	32907.93
676.82	32737.07
676.96	33301.14
677.10	33235.61
677.23	32659.84
677.37	32521.74
677.51	33041.34
677.65	32666.86
677.79	32161.30
677.93	32634.09
678.07	32046.62
678.21	32016.19
678.34	31648.72
678.48	31421.69
678.62	31838.31
678.76	31828.95
678.90	31831.29
679.04	31417.01
679.18	31866.39
679.31	31290.62
679.45	31370.20
679.59	31033.16
679.73	31030.82
679.87	31349.14
680.00	30965.29
680.14	31255.51
680.28	30323.98
680.42	30529.95
680.56	30300.58
680.70	30473.78
680.83	30249.08
680.97	29912.05
681.11	30352.07
681.25	29926.09
681.39	29790.34
681.52	29722.46
681.66	29542.24
681.80	29132.65
681.94	29032.00
682.07	28992.22
682.21	29092.86
682.35	28692.63
682.49	29228.61
682.62	28996.90
682.76	28891.57
682.90	28765.18
683.04	28884.55
683.17	28535.81
683.31	28510.07
683.45	28261.97
683.59	28091.11
683.72	27873.44
683.86	28336.87
684.00	27882.80
684.13	28299.42
684.27	27679.18
684.41	27761.09
684.55	28208.14
684.68	27730.67
684.82	27253.20
684.96	27159.58
685.09	27234.47
685.23	27384.27
685.37	27578.53
685.50	27428.74
685.64	26981.70
685.78	26808.50
685.91	26764.03
686.05	26195.28
686.19	26185.91
686.32	26148.46
686.46	25785.68
686.60	25886.32
686.73	26003.35
686.87	25717.81
687.01	26349.75
687.14	25902.71
687.28	25891.01
687.42	25387.79
687.55	25453.33
687.69	25312.89
687.82	25495.46
687.96	24987.56
688.10	25476.73
688.23	25249.70
688.37	24774.57
688.50	25303.53
688.64	25242.68
688.78	24746.48
688.91	24697.33
689.05	24463.28
689.18	24467.96
689.32	23939.00
689.46	23761.12
689.59	24453.92
689.73	24161.35
689.86	24364.98
690.00	24276.04
690.13	23983.47
690.27	23683.88
690.41	23531.75
690.54	23527.06
690.68	23679.20
690.81	23351.52
690.95	22981.72
691.08	23379.61
691.22	22778.09
691.35	22785.12
691.49	23269.61
691.62	22803.84
691.76	22663.41
691.89	22321.69
692.03	22148.49
692.16	22092.32
692.30	22136.79
692.43	22099.34
692.57	21970.61
692.70	22029.12
692.84	21532.93
692.97	21528.25
693.11	21862.94
693.24	21778.68
693.38	21324.62
693.51	21373.77
693.65	21324.62
693.78	21195.89
693.92	21067.16
694.05	20910.35
694.19	20912.69
694.32	20634.16
694.45	21090.57
694.59	20706.72
694.72	21013.33
694.86	20535.86
694.99	20327.55
695.13	20276.06
695.26	20152.01
695.39	20287.76
695.53	20144.99
695.66	20144.99
695.80	19824.34
695.93	19929.66
696.07	19571.56
696.20	19358.57
696.33	19049.62
696.47	18911.53
696.60	19222.82
696.73	19424.11
696.87	19201.76
697.00	19058.98
697.14	19084.73
697.27	18565.13
697.40	19042.60
697.54	18745.35
697.67	18459.81
697.80	18546.40
697.94	18478.53
698.07	18333.42
698.21	18237.45
698.34	18349.80
698.47	18216.39
698.61	17748.28
698.74	17741.26
698.87	17827.86
699.01	17834.88
699.14	17628.92
699.27	17820.84
699.40	17729.56
699.54	17444.01
699.67	17481.46
699.80	17394.86
699.94	17240.39
700.07	17022.72
700.20	16975.91
700.34	16910.37
700.47	16720.79
700.60	16938.46
700.73	17151.45
700.87	16486.73
701.00	16641.21
701.13	16603.76
701.26	16561.63
701.40	16280.77
701.53	16184.80
701.66	16156.72
701.79	16123.95
701.93	15826.70
702.06	15758.83
702.19	15768.19
702.32	15800.96
702.46	15875.85
702.59	15737.76
702.72	15716.70
702.85	15447.54
702.99	15428.81
703.12	15332.85
703.25	15475.62
703.38	15288.38
703.51	15286.04
703.65	14855.38
703.78	14775.80
703.91	14813.25
704.04	14373.23
704.17	14431.74
704.31	15049.64
704.44	14693.88
704.57	14333.44
704.70	14253.86
704.83	14497.28
704.96	14160.24
705.10	14043.21
705.23	13982.36
>>>>>End Processed Spectral Data<<<<<
