SpectraSuite Data File
++++++++++++++++++++++++++++++++++++
Date: Fri Oct 25 10:44:02 EDT 2013
User: price-jones
Dark Spectrum Present: No
Reference Spectrum Present: No
Number of Sampled Component Spectra: 1
Spectrometers: USB2+H05261
Integration Time (usec): 100000 (USB2+H05261)
Spectra Averaged: 1 (USB2+H05261)
Boxcar Smoothing: 0 (USB2+H05261)
Correct for Electrical Dark: No (USB2+H05261)
Strobe/Lamp Enabled: No (USB2+H05261)
Correct for Detector Non-linearity: No (USB2+H05261)
Correct for Stray Light: No (USB2+H05261)
Number of Pixels in Processed Spectrum: 2048
>>>>>Begin Processed Spectral Data<<<<<
365.73	138.09
365.92	138.09
366.12	138.09
366.32	84.26
366.52	98.30
366.72	0.00
366.91	91.28
367.11	0.00
367.31	0.00
367.51	42.13
367.70	23.41
367.90	35.11
368.10	2.34
368.30	9.36
368.49	7.02
368.69	67.88
368.89	23.41
369.09	18.72
369.28	124.05
369.48	0.00
369.68	63.19
369.87	112.35
370.07	30.43
370.27	114.69
370.47	163.84
370.66	411.93
370.86	374.49
371.06	498.53
371.25	461.09
371.45	379.17
371.65	454.06
371.84	500.87
372.04	444.70
372.24	430.66
372.44	477.47
372.63	402.57
372.83	505.56
373.03	580.45
373.22	521.94
373.42	564.07
373.62	533.64
373.81	561.73
374.01	526.62
374.21	641.31
374.40	615.56
374.60	615.56
374.79	566.41
374.99	608.54
375.19	503.22
375.38	606.20
375.58	594.50
375.78	585.13
375.97	641.31
376.17	674.07
376.37	664.71
376.56	645.99
376.76	596.84
376.95	664.71
377.15	667.05
377.35	645.99
377.54	681.10
377.74	655.35
377.93	695.14
378.13	636.63
378.33	683.44
378.52	636.63
378.72	697.48
378.91	709.18
379.11	545.34
379.31	727.91
379.50	746.63
379.70	690.46
379.89	662.37
380.09	723.23
380.28	669.39
380.48	737.27
380.68	727.91
380.87	702.16
381.07	727.91
381.26	676.41
381.46	748.97
381.65	671.73
381.85	643.65
382.04	772.38
382.24	763.01
382.43	615.56
382.63	671.73
382.83	697.48
383.02	770.04
383.22	706.84
383.41	727.91
383.61	716.20
383.80	807.48
384.00	819.19
384.19	837.91
384.39	809.83
384.58	854.30
384.78	891.74
384.97	849.61
385.17	821.53
385.36	821.53
385.56	833.23
385.75	830.89
385.95	805.14
386.14	760.67
386.34	835.57
386.53	842.59
386.72	915.15
386.92	863.66
387.11	866.00
387.31	929.19
387.50	854.30
387.70	840.25
387.89	922.17
388.09	938.55
388.28	873.02
388.48	898.77
388.67	950.26
388.86	992.39
389.06	964.30
389.25	1029.84
389.45	1006.43
389.64	980.68
389.84	1064.94
390.03	990.05
390.22	985.37
390.42	1111.75
390.61	992.39
390.81	1018.13
391.00	1076.65
391.19	1198.35
391.39	1165.59
391.58	1015.79
391.78	992.39
391.97	1121.12
392.16	1095.37
392.36	1046.22
392.55	1088.35
392.75	1008.77
392.94	1004.09
393.13	954.94
393.33	1034.52
393.52	1081.33
393.71	1111.75
393.91	1128.14
394.10	1139.84
394.29	1203.04
394.49	1252.19
394.68	1221.76
394.88	1238.14
395.07	1338.79
395.26	1355.17
395.46	1284.95
395.65	1284.95
395.84	1315.38
396.04	1273.25
396.23	1174.95
396.42	1210.06
396.62	1270.91
396.81	1263.89
397.00	1238.14
397.19	1296.66
397.39	1387.94
397.58	1420.71
397.77	1409.00
397.97	1533.05
398.16	1448.79
398.35	1556.46
398.55	1614.97
398.74	1540.07
398.93	1572.84
399.12	1577.52
399.32	1589.22
399.51	1636.03
399.70	1600.93
399.90	1612.63
400.09	1652.42
400.28	1675.82
400.47	1589.22
400.67	1748.38
400.86	1673.48
401.05	1755.40
401.24	1813.92
401.44	1809.23
401.63	1858.39
401.82	1823.28
402.01	1729.66
402.21	1820.94
402.40	1811.57
402.59	1722.63
402.78	1813.92
402.97	1797.53
403.17	1956.69
403.36	1851.36
403.55	1937.96
403.74	1865.41
403.93	1898.17
404.13	1886.47
404.32	1905.20
404.51	1895.83
404.70	2031.58
404.89	2017.54
405.09	2052.65
405.28	1959.03
405.47	2062.01
405.66	2073.71
405.85	2066.69
406.05	2115.84
406.24	1994.14
406.43	2047.97
406.62	2242.23
406.81	2253.94
407.00	2190.74
407.20	2115.84
407.39	2165.00
407.58	2197.76
407.77	2293.72
407.96	2160.31
408.15	2277.34
408.34	2307.77
408.54	2455.22
408.73	2326.49
408.92	2464.58
409.11	2427.14
409.30	2431.82
409.49	2359.26
409.68	2253.94
409.87	2377.98
410.07	2476.29
410.26	2340.54
410.45	2485.65
410.64	2555.86
410.83	2569.91
411.02	2593.31
411.21	2696.30
411.40	2565.23
411.59	2759.49
411.78	2715.02
411.98	2792.26
412.17	2869.50
412.36	2818.00
412.55	2801.62
412.74	2836.73
412.93	2780.56
413.12	2743.11
413.31	2904.60
413.50	2960.78
413.69	3005.25
413.88	3108.23
414.07	3047.38
414.26	3047.38
414.45	3110.57
414.64	2960.78
414.83	3234.62
415.02	3112.91
415.22	3126.96
415.41	3290.79
415.60	3353.99
415.79	3421.86
415.98	3314.20
416.17	3386.76
416.36	3330.58
416.55	3389.10
416.74	3407.82
416.93	3386.76
417.12	3574.00
417.31	3501.44
417.50	3480.38
417.69	3548.25
417.88	3590.38
418.07	3588.04
418.26	3634.85
418.45	3452.29
418.64	3775.28
418.83	3637.19
419.02	3599.74
419.21	3637.19
419.39	3758.90
419.58	3714.43
419.77	3574.00
419.96	3749.54
420.15	3822.09
420.34	3805.71
420.53	3885.29
420.72	4023.38
420.91	3885.29
421.10	3978.91
421.29	4025.72
421.48	3950.82
421.67	4252.75
421.86	3995.29
422.05	4051.47
422.24	3887.63
422.43	3960.19
422.61	4002.32
422.80	4063.17
422.99	4140.41
423.18	3983.59
423.37	3990.61
423.56	4177.86
423.75	4166.15
423.94	4124.02
424.13	3927.42
424.32	3953.16
424.50	4203.60
424.69	4135.73
424.88	4091.26
425.07	4067.85
425.26	3953.16
425.45	4166.15
425.64	3999.98
425.83	4119.34
426.01	4119.34
426.20	4140.41
426.39	4173.18
426.58	4119.34
426.77	4056.15
426.96	4189.56
427.15	4060.83
427.33	4229.35
427.52	4217.65
427.71	4297.22
427.90	4311.27
428.09	4437.66
428.28	4294.88
428.46	4322.97
428.65	4276.16
428.84	4353.40
429.03	4339.35
429.22	4351.06
429.40	4311.27
429.59	4159.13
429.78	4117.00
429.97	3892.31
430.16	4119.34
430.34	4217.65
430.53	4222.33
430.72	4386.16
430.91	4374.46
431.10	4608.51
431.28	4727.88
431.47	4788.74
431.66	4903.42
431.85	4652.98
432.03	4882.36
432.22	4849.59
432.41	4779.37
432.60	4706.82
432.79	4833.21
432.97	4903.42
433.16	4849.59
433.35	4814.48
433.54	4863.63
433.72	4924.49
433.91	4898.74
434.10	4882.36
434.28	4936.19
434.47	5076.62
434.66	5313.02
434.85	5327.06
435.03	5097.69
435.22	5125.77
435.41	5198.33
435.59	5135.14
435.78	5308.34
435.97	5329.40
436.16	5303.65
436.34	5394.93
436.53	5430.04
436.72	5371.53
436.90	5298.97
437.09	5455.79
437.28	5411.32
437.46	5390.25
437.65	5238.12
437.84	5404.30
438.02	5472.17
438.21	5387.91
438.40	5123.43
438.58	5521.32
438.77	5589.20
438.96	5621.97
439.14	5846.66
439.33	5776.44
439.52	5802.19
439.70	5851.34
439.89	5893.47
440.08	5858.36
440.26	5806.87
440.45	5874.74
440.63	6076.03
440.82	6101.78
441.01	6153.27
441.19	6340.51
441.38	6399.02
441.57	6246.89
441.75	6438.81
441.94	6417.75
442.12	6581.59
442.31	6691.59
442.50	6623.72
442.68	6588.61
442.87	6502.01
443.05	6583.93
443.24	6691.59
443.43	6476.26
443.61	6703.29
443.80	6801.60
443.98	6626.06
444.17	6478.60
444.35	6626.06
444.54	6846.07
444.73	6733.72
444.91	6747.76
445.10	6808.62
445.28	6719.68
445.47	6628.40
445.65	6705.63
445.84	6752.45
446.02	6878.83
446.21	6829.68
446.39	6794.58
446.58	6874.15
446.77	7030.97
446.95	6789.89
447.14	7012.24
447.32	6991.18
447.51	6883.52
447.69	6754.79
447.88	6885.86
448.06	7016.93
448.25	6949.05
448.43	7030.97
448.62	7119.91
448.80	6738.40
448.99	7126.93
449.17	7091.82
449.36	7037.99
449.54	7283.75
449.73	7293.11
449.91	7403.11
450.10	7403.11
450.28	7576.31
450.46	7595.04
450.65	7323.54
450.83	7470.99
451.02	7576.31
451.20	7492.05
451.39	7330.56
451.57	7445.24
451.76	7541.21
451.94	7557.59
452.13	7630.15
452.31	7473.33
452.49	7342.26
452.68	7360.98
452.86	7555.25
453.05	7632.49
453.23	7534.18
453.42	7740.15
453.60	7730.79
453.78	7571.63
453.97	7733.13
454.15	7765.90
454.34	7672.28
454.52	7761.22
454.70	7784.62
454.89	7868.88
455.07	7779.94
455.26	7868.88
455.44	8133.36
455.62	7976.55
455.81	8154.43
455.99	8140.38
456.17	7999.95
456.36	8318.26
456.54	8023.36
456.73	8292.52
456.91	8472.74
457.09	8503.17
457.28	8774.67
457.46	8278.47
457.64	8545.30
457.83	8437.63
458.01	8224.64
458.19	8617.85
458.38	8542.96
458.56	8638.92
458.74	8667.00
458.93	8526.57
459.11	8528.91
459.29	8538.27
459.48	8629.56
459.66	8681.05
459.84	8454.02
460.03	8737.22
460.21	8894.04
460.39	8667.00
460.57	8805.10
460.76	8695.09
460.94	8954.89
461.12	8847.22
461.31	8802.75
461.49	8947.87
461.67	8985.32
461.85	9261.50
462.04	9233.41
462.22	9652.37
462.40	9376.19
462.59	9296.61
462.77	9200.65
462.95	9383.21
463.13	9329.38
463.32	9060.21
463.50	9348.10
463.68	9343.42
463.86	9320.01
464.05	9305.97
464.23	9167.88
464.41	9371.50
464.59	9207.67
464.78	9619.60
464.96	9282.56
465.14	9441.72
465.32	9394.91
465.50	9605.56
465.69	9619.60
465.87	9338.74
466.05	9441.72
466.23	9427.68
466.41	9502.58
466.60	9699.18
466.78	9680.46
466.96	9610.24
467.14	9596.20
467.32	9783.44
467.51	9944.94
467.69	9481.51
467.87	9848.97
468.05	9900.47
468.23	9951.96
468.41	9954.30
468.60	9909.83
468.78	9994.09
468.96	9933.23
469.14	10064.30
469.32	10040.90
469.50	9703.86
469.69	9963.66
469.87	10375.59
470.05	10132.18
470.23	10134.52
470.41	10260.91
470.59	10228.14
470.77	10289.00
470.95	10214.10
471.14	10471.56
471.32	10328.78
471.50	10780.51
471.68	10743.06
471.86	10654.12
472.04	10724.33
472.22	11220.53
472.40	10452.83
472.58	10801.57
472.77	10827.32
472.95	11066.05
473.13	11323.51
473.31	10892.85
473.49	11016.90
473.67	11066.05
473.85	11187.76
474.03	11199.46
474.21	11494.37
474.39	11346.92
474.57	11393.73
474.75	11669.91
474.93	11735.45
475.12	11407.77
475.30	11669.91
475.48	11712.04
475.66	11730.76
475.84	11630.12
476.02	11932.05
476.20	11932.05
476.38	11910.99
476.56	12243.34
476.74	12168.45
476.92	12325.26
477.10	12374.41
477.28	12409.52
477.46	12589.74
477.64	12732.51
477.82	12915.08
478.00	13132.75
478.18	12952.52
478.36	13170.19
478.54	13116.36
478.72	13043.81
478.90	13273.18
479.08	13598.51
479.26	13371.48
479.44	13708.52
479.62	13586.81
479.80	13764.69
479.98	13982.36
480.16	14272.59
480.34	13998.74
480.52	14272.59
480.70	14434.08
480.88	14441.11
481.06	14342.80
481.24	14672.82
481.41	14810.91
481.59	14930.28
481.77	14965.39
481.95	15035.60
482.13	15059.01
482.31	15239.23
482.49	15508.39
482.67	15377.32
482.85	15506.05
483.03	15592.65
483.21	15611.37
483.39	15971.82
483.57	15887.56
483.74	16444.60
483.92	16105.23
484.10	16086.50
484.28	16482.05
484.46	16395.45
484.64	17003.99
484.82	16779.30
485.00	16807.39
485.18	16856.54
485.35	16877.60
485.53	16690.36
485.71	16758.24
485.89	16943.14
486.07	17109.32
486.25	17231.02
486.43	17315.28
486.61	17572.74
486.78	17954.25
486.96	17649.98
487.14	18286.61
487.32	18204.69
487.50	18607.26
487.68	18829.61
487.85	18642.37
488.03	19166.65
488.21	19232.18
488.39	19023.87
488.57	19180.69
488.75	19154.94
488.92	19917.96
489.10	20030.30
489.28	19960.09
489.46	20517.14
489.64	20411.81
489.81	20524.16
489.99	20732.47
490.17	20716.08
490.35	20954.82
490.53	20924.39
490.70	21277.81
490.88	21113.97
491.06	21575.06
491.24	21577.40
491.41	21518.89
491.59	21837.20
491.77	21537.61
491.95	21956.57
492.13	22040.82
492.30	22188.28
492.48	22487.87
492.66	22679.79
492.84	22436.38
493.01	22806.18
493.19	22679.79
493.37	23065.98
493.54	22852.99
493.72	23208.75
493.90	23178.33
494.08	24002.19
494.25	23971.77
494.43	24049.00
494.61	24173.05
494.79	24402.43
494.96	24224.54
495.14	24156.67
495.32	24673.93
495.49	24517.11
495.67	24830.74
495.85	24788.61
496.02	25149.06
496.20	25450.99
496.38	24971.18
496.55	25385.45
496.73	25823.13
496.91	25900.37
497.09	25771.64
497.26	25912.07
497.44	25734.19
497.62	26075.91
497.79	26368.48
497.97	25956.54
498.14	26174.21
498.32	25968.24
498.50	26740.62
498.67	26824.88
498.85	26972.33
499.03	26883.39
499.20	27056.59
499.38	27218.09
499.56	27391.29
499.73	27332.78
499.91	27517.68
500.08	27522.36
500.26	27115.11
500.44	27573.85
500.61	27501.29
500.79	27395.97
500.97	28182.39
501.14	28095.79
501.32	27756.41
501.49	28219.84
501.67	28308.78
501.84	28238.56
502.02	28725.39
502.20	28463.25
502.37	28610.71
502.55	28706.67
502.72	28980.51
502.90	29139.67
503.07	28765.18
503.25	29116.26
503.43	28840.08
503.60	29118.60
503.78	29055.41
503.95	29167.76
504.13	29266.06
504.30	29565.65
504.48	29546.92
504.65	29876.94
504.83	29694.38
505.01	30155.46
505.18	29783.32
505.36	30441.01
505.53	30508.88
505.71	30445.69
505.88	30881.03
506.06	30167.16
506.23	30560.37
506.41	30424.62
506.58	30930.18
506.76	30700.81
506.93	31175.94
507.11	30876.35
507.28	31124.44
507.46	30824.86
507.63	30918.48
507.81	31194.66
507.98	31012.10
508.16	31353.82
508.33	31445.10
508.50	31723.62
508.68	31496.59
508.85	31964.70
509.03	31854.69
509.20	31901.50
509.38	32114.49
509.55	32224.50
509.73	32264.28
509.90	32360.25
510.08	32243.22
510.25	32390.67
510.42	32907.93
510.60	32844.74
510.77	32746.44
510.95	33003.89
511.12	32933.68
511.30	33687.33
511.47	33212.20
511.64	32938.36
511.82	33436.89
511.99	32692.60
512.17	33464.98
512.34	33195.82
512.51	33483.70
512.69	33848.83
512.86	33567.96
513.04	33954.15
513.21	33827.76
513.38	33902.66
513.56	33675.63
513.73	33729.46
513.90	33926.07
514.08	34057.14
514.25	33914.36
514.43	34106.29
514.60	34223.31
514.77	34396.51
514.95	34623.54
515.12	34635.25
515.29	34635.25
515.47	35117.40
515.64	34857.60
515.81	34796.74
515.99	35026.12
516.16	34735.89
516.33	34536.94
516.51	34185.86
516.68	34195.23
516.85	34459.71
517.03	34763.98
517.20	34508.86
517.37	35285.92
517.54	35381.88
517.72	35559.76
517.89	34852.92
518.06	34799.08
518.24	34918.45
518.41	35241.45
518.58	35498.91
518.75	35108.04
518.93	35693.17
519.10	35831.26
519.27	35793.81
519.45	36336.82
519.62	36348.52
519.79	36086.38
519.96	36493.63
520.14	36556.83
520.31	36224.47
520.48	36217.45
520.65	36348.52
520.83	37132.60
521.00	36926.63
521.17	37048.34
521.34	37038.98
521.52	36950.04
521.69	36996.85
521.86	37090.47
522.03	37207.50
522.20	37427.51
522.38	37471.98
522.55	36919.61
522.72	37329.20
522.89	37247.29
523.07	37441.55
523.24	37586.66
523.41	38043.07
523.58	38218.61
523.75	38438.62
523.92	38103.92
524.10	38225.63
524.27	38352.02
524.44	38663.31
524.61	38450.32
524.78	38352.02
524.96	38698.42
525.13	38824.81
525.30	38546.28
525.47	38492.45
525.64	38906.73
525.81	38693.74
525.98	38316.91
526.16	38586.07
526.33	38129.67
526.50	38457.34
526.67	38199.88
526.84	38036.05
527.01	38794.38
527.18	38518.20
527.36	39000.35
527.53	39480.16
527.70	39421.64
527.87	39374.83
528.04	39349.09
528.21	39175.89
528.38	39391.22
528.55	39964.65
528.72	40285.30
528.89	39737.62
529.07	39604.20
529.24	39377.17
529.41	40271.26
529.58	39950.60
529.75	39716.55
529.92	40203.38
530.09	40250.19
530.26	40287.64
530.43	40313.39
530.60	40292.32
530.77	40203.38
530.94	40390.62
531.11	40329.77
531.28	40531.06
531.46	40535.74
531.63	40980.44
531.80	40390.62
531.97	40472.54
532.14	40645.74
532.31	39899.11
532.48	40371.90
532.65	40388.28
532.82	40748.73
532.99	40861.07
533.16	40725.32
533.33	41298.75
533.50	41069.38
533.67	41043.63
533.84	41116.19
534.01	41095.13
534.18	41322.16
534.35	41521.10
534.52	41111.51
534.69	41493.02
534.86	41265.99
535.03	41572.60
535.20	42103.90
535.37	41916.65
535.54	41787.92
535.71	41881.55
535.88	41717.71
536.05	41319.82
536.22	41759.84
536.38	41481.31
536.55	41811.33
536.72	41757.50
536.89	41387.69
537.06	42122.62
537.23	42031.34
537.40	42237.31
537.57	42087.51
537.74	42462.00
537.91	42309.86
538.08	42342.63
538.25	41986.87
538.42	42150.71
538.59	42405.83
538.75	41839.42
538.92	42497.11
539.09	42005.59
539.26	42450.30
539.43	42431.57
539.60	42237.31
539.77	42485.40
539.94	42061.77
540.11	42342.63
540.28	42349.65
540.44	42646.90
540.61	42464.34
540.78	42576.69
540.95	42515.83
541.12	42284.12
541.29	42628.18
541.46	42689.03
541.62	42777.97
541.79	42848.19
541.96	43028.41
542.13	42824.78
542.30	43112.67
542.47	42721.80
542.63	42756.91
542.80	42958.19
542.97	43222.67
543.14	43379.49
543.31	43913.13
543.48	43753.97
543.64	44210.38
543.81	43873.34
543.98	43751.63
544.15	43543.33
544.32	43981.01
544.48	44421.03
544.65	43999.73
544.82	43992.71
544.99	43878.02
545.16	43810.15
545.32	43934.20
545.49	44320.38
545.66	44751.04
545.83	44514.65
546.00	44411.67
546.16	44095.69
546.33	44238.47
546.50	43388.85
546.67	43913.13
546.83	43735.25
547.00	44512.31
547.17	44165.91
547.34	44165.91
547.50	44072.29
547.67	44626.99
547.84	43969.30
548.00	44472.52
548.17	44854.03
548.34	44533.37
548.51	44662.10
548.67	44690.19
548.84	44980.42
549.01	44699.55
549.18	44411.67
549.34	45200.43
549.51	44926.58
549.68	45174.68
549.84	44715.93
550.01	45216.81
550.18	44596.57
550.34	44935.95
550.51	44891.48
550.68	45006.16
550.84	44676.15
551.01	45106.80
551.18	45230.85
551.34	45120.85
551.51	45258.94
551.68	45235.53
551.84	45514.06
552.01	45415.76
552.18	45535.12
552.34	44809.56
552.51	45476.61
552.68	45443.84
552.84	45542.14
553.01	45418.10
553.18	45322.13
553.34	45521.08
553.51	45284.68
553.67	45467.25
553.84	45436.82
554.01	45605.34
554.17	45748.11
554.34	46085.15
554.51	45975.14
554.67	45949.40
554.84	45876.84
555.00	45560.87
555.17	45310.43
555.33	45958.76
555.50	45909.61
555.67	45523.42
555.83	45516.40
556.00	45736.41
556.16	46220.90
556.33	45703.64
556.50	45490.65
556.66	45883.86
556.83	45820.67
556.99	45794.92
557.16	46127.28
557.32	45544.48
557.49	45787.90
557.65	46202.18
557.82	45872.16
557.98	46567.30
558.15	45588.95
558.32	46061.74
558.48	45476.61
558.65	45780.88
558.81	45757.47
558.98	46176.43
559.14	45705.98
559.31	45839.39
559.47	45848.75
559.64	46155.36
559.80	45928.33
559.97	46232.60
560.13	45883.86
560.30	46178.77
560.46	46286.43
560.63	46199.83
560.79	46478.36
560.96	46630.49
561.12	46248.99
561.29	46412.82
561.45	46564.96
561.61	46459.63
561.78	46335.59
561.94	46052.38
562.11	46028.98
562.27	46113.23
562.44	46021.95
562.60	46724.11
562.77	46436.23
562.93	46181.11
563.10	46630.49
563.26	46108.55
563.42	46602.41
563.59	46342.61
563.75	46136.64
563.92	46672.62
564.08	46520.49
564.24	46733.48
564.41	46681.98
564.57	46803.69
564.74	46618.79
564.90	46429.21
565.07	46700.71
565.23	46422.19
565.39	46653.90
565.56	46707.73
565.72	46433.89
565.88	46445.59
566.05	46569.64
566.21	46391.76
566.38	46347.29
566.54	46670.28
566.70	46653.90
566.87	46724.11
567.03	46684.33
567.19	46873.91
567.36	47002.64
567.52	46838.80
567.68	46873.91
567.85	46424.53
568.01	47159.45
568.17	46490.06
568.34	46925.40
568.50	46918.38
568.66	46581.34
568.83	46712.41
568.99	46218.56
569.15	46543.89
569.32	46534.53
569.48	46796.67
569.64	46829.44
569.81	46663.26
569.97	46663.26
570.13	46494.74
570.30	46766.24
570.46	46150.68
570.62	46270.05
570.78	46707.73
570.95	46309.84
571.11	46794.33
571.27	46684.33
571.43	46782.63
571.60	46436.23
571.76	46756.88
571.92	46967.53
572.09	46962.85
572.25	46892.63
572.41	46761.56
572.57	47058.81
572.74	47084.56
572.90	46480.70
573.06	47171.16
573.22	46960.51
573.38	47143.07
573.55	46784.97
573.71	47157.11
573.87	46735.82
574.03	46745.18
574.20	46904.34
574.36	46712.41
574.52	46866.89
574.68	46782.63
574.84	47112.64
575.01	46461.97
575.17	46667.94
575.33	46670.28
575.49	46684.33
575.65	46724.11
575.82	46855.18
575.98	46377.72
576.14	46763.90
576.30	46934.76
576.46	46918.38
576.62	46738.16
576.79	47035.41
576.95	46740.50
577.11	46515.81
577.27	47227.33
577.43	46628.15
577.59	46555.60
577.75	46511.13
577.92	46274.73
578.08	46504.10
578.24	46660.92
578.40	46555.60
578.56	46834.12
578.72	47248.39
578.88	46909.02
579.04	47098.60
579.21	46806.03
579.37	47030.72
579.53	47070.51
579.69	46770.93
579.85	47093.92
580.01	46927.74
580.17	47103.28
580.33	46962.85
580.49	47023.70
580.65	47014.34
580.82	46810.71
580.98	47012.00
581.14	46817.74
581.30	46784.97
581.46	46845.82
581.62	46866.89
581.78	47133.71
581.94	47550.32
582.10	46990.94
582.26	47098.60
582.42	46990.94
582.58	47037.75
582.74	47047.11
582.90	47070.51
583.06	47304.57
583.22	46939.44
583.38	47494.15
583.54	47051.79
583.70	46796.67
583.86	47360.74
584.02	47215.63
584.18	47054.13
584.34	46981.57
584.50	47346.70
584.66	46852.84
584.82	46721.77
584.98	47468.40
585.14	47161.79
585.30	46684.33
585.46	46499.42
585.62	46794.33
585.78	46658.58
585.94	46988.60
586.10	47330.31
586.26	46897.31
586.42	47262.44
586.58	47430.96
586.74	47253.08
586.90	46923.06
587.06	46850.50
587.22	47002.64
587.38	46880.93
587.54	47138.39
587.70	47004.98
587.86	47072.85
588.02	46827.10
588.18	46941.78
588.34	46459.63
588.49	46246.65
588.65	45993.87
588.81	46562.62
588.97	46967.53
589.13	46438.57
589.29	46026.63
589.45	46733.48
589.61	46644.54
589.77	47012.00
589.93	46918.38
590.08	47063.49
590.24	47491.81
590.40	46997.96
590.56	47122.01
590.72	46871.57
590.88	46602.41
591.04	47040.09
591.20	47269.46
591.35	46614.11
591.51	47407.55
591.67	47201.58
591.83	47077.54
591.99	47292.86
592.15	47154.77
592.31	47140.73
592.46	47131.37
592.62	47330.31
592.78	47131.37
592.94	47416.91
593.10	47334.99
593.26	47470.75
593.41	47253.08
593.57	47119.66
593.73	47243.71
593.89	46855.18
594.05	46955.83
594.20	47334.99
594.36	47091.58
594.52	47159.45
594.68	46930.08
594.84	46810.71
594.99	47391.17
595.15	47241.37
595.31	47154.77
595.47	46836.46
595.62	46932.42
595.78	47136.05
595.94	47007.32
596.10	47379.46
596.25	47409.89
596.41	46946.47
596.57	47428.62
596.73	47250.74
596.88	47056.47
597.04	47185.20
597.20	47004.98
597.36	47220.31
597.51	47222.65
597.67	46974.55
597.83	47510.53
597.99	47337.33
598.14	46717.09
598.30	46838.80
598.46	47203.92
598.61	47215.63
598.77	46890.29
598.93	47009.66
599.09	47206.26
599.24	47728.20
599.40	46815.40
599.56	47332.65
599.71	46810.71
599.87	47150.09
600.03	47096.26
600.18	47180.52
600.34	47283.50
600.50	47026.04
600.65	46913.70
600.81	47159.45
600.97	46995.62
601.12	47086.90
601.28	47159.45
601.44	46824.76
601.59	47000.30
601.75	47000.30
601.91	46754.54
602.06	46756.88
602.22	47161.79
602.37	47182.86
602.53	47292.86
602.69	47330.31
602.84	47028.38
603.00	47260.10
603.16	47232.01
603.31	47215.63
603.47	47065.83
603.62	47164.14
603.78	46904.34
603.94	47309.25
604.09	47456.70
604.25	47117.32
604.40	46981.57
604.56	46784.97
604.71	47168.82
604.87	46953.49
605.03	46824.76
605.18	47140.73
605.34	46976.89
605.49	46726.46
605.65	46909.02
605.80	47014.34
605.96	46866.89
606.12	47063.49
606.27	47569.05
606.43	46951.15
606.58	47000.30
606.74	47051.79
606.89	46763.90
607.05	46597.73
607.20	46850.50
607.36	46808.37
607.51	47075.19
607.67	46934.76
607.82	46546.23
607.98	46660.92
608.13	46740.50
608.29	46934.76
608.44	46518.15
608.60	46469.00
608.75	46672.62
608.91	46492.40
609.06	46340.27
609.22	47049.45
609.37	46286.43
609.53	46815.40
609.68	46410.48
609.84	46344.95
609.99	46342.61
610.15	45918.97
610.30	45951.74
610.46	46164.73
610.61	46146.00
610.76	46642.20
610.92	46630.49
611.07	46553.26
611.23	46651.56
611.38	46398.78
611.54	46557.94
611.69	46202.18
611.84	46363.67
612.00	45963.44
612.15	46066.42
612.31	46176.43
612.46	46078.13
612.62	46113.23
612.77	46202.18
612.92	46527.51
613.08	46181.11
613.23	46113.23
613.39	46101.53
613.54	45490.65
613.69	45830.03
613.85	45448.52
614.00	45801.94
614.15	46419.84
614.31	45933.01
614.46	46265.37
614.62	46068.76
614.77	45982.16
614.92	46150.68
615.08	45783.22
615.23	45450.86
615.38	45778.54
615.54	45771.52
615.69	45715.34
615.84	45703.64
616.00	45645.13
616.15	45457.88
616.30	45759.81
616.46	45371.28
616.61	45184.04
616.76	45425.12
616.92	45036.59
617.07	45062.33
617.22	45509.38
617.37	45495.33
617.53	45570.23
617.68	45830.03
617.83	45673.21
617.99	45539.80
618.14	45504.70
618.29	45188.72
618.45	45057.65
618.60	45579.59
618.75	44891.48
618.90	44765.09
619.06	45256.60
619.21	45228.51
619.36	45544.48
619.51	45237.87
619.67	45251.92
619.82	44973.39
619.97	45455.54
620.12	44811.90
620.28	44634.02
620.43	44949.99
620.58	44952.33
620.73	44949.99
620.89	44755.72
621.04	45287.03
621.19	45045.95
621.34	45329.16
621.49	45078.72
621.65	44362.51
621.80	44617.63
621.95	44456.14
622.10	44528.69
622.25	44355.49
622.41	44151.87
622.56	44861.05
622.71	44931.26
622.86	44856.37
623.01	44861.05
623.16	44783.81
623.32	44397.62
623.47	44601.25
623.62	44428.05
623.77	44385.92
623.92	44795.51
624.07	44547.42
624.23	44158.89
624.38	44280.60
624.53	43957.60
624.68	44465.50
624.83	44336.77
624.98	44016.11
625.13	43573.75
625.29	43899.09
625.44	43819.51
625.59	44151.87
625.74	43643.97
625.89	43721.21
626.04	43739.93
626.19	43634.61
626.34	43943.56
626.49	43831.21
626.65	43737.59
626.80	43955.26
626.95	44062.93
627.10	43395.87
627.25	43700.14
627.40	43089.26
627.55	42904.36
627.70	43283.53
627.85	43276.51
628.00	43367.79
628.15	43906.11
628.30	43166.50
628.45	43466.09
628.60	43409.92
628.76	43728.23
628.91	43302.25
629.06	42969.90
629.21	42927.77
629.36	42820.10
629.51	42808.40
629.66	42925.42
629.81	43122.03
629.96	43030.75
630.11	43152.46
630.26	43171.18
630.41	42876.27
630.56	43056.50
630.71	43152.46
630.86	42843.51
631.01	43124.37
631.16	42754.57
631.31	42567.32
631.46	42756.91
631.61	42719.46
631.76	42719.46
631.91	42913.72
632.06	42944.15
632.21	42899.68
632.36	43112.67
632.51	42333.27
632.66	42593.07
632.81	41986.87
632.96	42735.84
633.10	42572.00
633.25	42515.83
633.40	42710.10
633.55	42541.58
633.70	42698.39
633.85	42209.22
634.00	42403.49
634.15	42581.37
634.30	41909.63
634.45	42286.46
634.60	42099.22
634.75	42237.31
634.90	42045.38
635.05	42094.53
635.19	41797.29
635.34	42021.98
635.49	42230.29
635.64	42029.00
635.79	42031.34
635.94	42045.38
636.09	42071.13
636.24	42169.43
636.39	41516.42
636.53	42026.66
636.68	41755.16
636.83	41579.62
636.98	41640.47
637.13	41448.55
637.28	42148.37
637.43	41986.87
637.57	41844.10
637.72	41895.59
637.87	41827.71
638.02	41682.60
638.17	41287.05
638.32	41621.75
638.46	41694.30
638.61	41942.40
638.76	41621.75
638.91	41436.84
639.06	41200.45
639.20	41764.52
639.35	41649.83
639.50	41186.41
639.65	41205.13
639.80	41446.21
639.94	40928.95
640.09	41553.87
640.24	41003.85
640.39	40559.14
640.54	41319.82
640.68	41008.53
640.83	41003.85
640.98	40767.45
641.13	41055.34
641.27	40926.61
641.42	41195.77
641.57	41027.25
641.72	41181.73
641.86	41106.83
642.01	40959.38
642.16	40722.98
642.31	40549.78
642.45	40612.98
642.60	40552.12
642.75	40439.78
642.90	40865.75
643.04	40781.49
643.19	40355.52
643.34	40659.79
643.48	40538.08
643.63	40664.47
643.78	40566.16
643.93	40245.51
644.07	40308.71
644.22	40378.92
644.37	39913.16
644.51	40928.95
644.66	40285.30
644.81	41003.85
644.95	40512.33
645.10	40231.47
645.25	39894.43
645.39	40357.86
645.54	40053.59
645.69	40446.80
645.83	40477.22
645.98	40114.44
646.13	39798.47
646.27	40301.68
646.42	40364.88
646.57	39746.98
646.71	39807.83
646.86	39966.99
647.00	40376.58
647.15	40163.59
647.30	40208.06
647.44	39934.22
647.59	39672.08
647.74	39702.51
647.88	39840.60
648.03	39639.31
648.17	40168.27
648.32	39487.18
648.47	39742.30
648.61	39412.28
648.76	39709.53
648.90	39587.82
649.05	40088.70
649.20	39908.47
649.34	39522.29
649.49	39428.66
649.63	39379.51
649.78	39438.03
649.92	39503.56
650.07	39688.46
650.21	39557.39
650.36	39192.27
650.51	39232.06
650.65	40147.21
650.80	39934.22
650.94	39697.83
651.09	39454.41
651.23	39445.05
651.38	39442.71
651.52	39166.52
651.67	39159.50
651.81	38885.66
651.96	39119.71
652.10	38801.40
652.25	39288.23
652.39	39325.68
652.54	38981.62
652.68	39093.97
652.83	39445.05
652.97	38871.62
653.12	38820.13
653.26	38438.62
653.41	38525.22
653.55	38354.36
653.70	38864.60
653.84	38920.77
653.99	38639.90
654.13	38607.14
654.27	38363.72
654.42	38501.81
654.56	38380.10
654.71	38766.29
654.85	38445.64
655.00	38656.29
655.14	38328.61
655.29	38176.48
655.43	37996.26
655.57	38007.96
655.72	37361.97
655.86	38078.18
656.01	37769.22
656.15	37422.83
656.30	38066.47
656.44	37493.04
656.58	38082.86
656.73	37736.46
656.87	37764.54
657.01	37832.42
657.16	38298.19
657.30	37656.88
657.45	37488.36
657.59	37818.38
657.73	37783.27
657.88	37656.88
658.02	37661.56
658.16	38220.95
658.31	38223.29
658.45	37834.76
658.60	37923.70
658.74	38000.94
658.88	37371.33
659.03	37773.91
659.17	37509.43
659.31	37193.45
659.46	37317.50
659.60	37453.25
659.74	37565.60
659.89	37024.93
660.03	37111.53
660.17	37076.43
660.32	37518.79
660.46	37645.18
660.60	37216.86
660.74	36673.85
660.89	37188.77
661.03	36746.41
661.17	36549.81
661.32	36730.03
661.46	36952.38
661.60	36891.52
661.74	36917.27
661.89	37074.09
662.03	36615.34
662.17	36465.55
662.31	36617.68
662.46	36907.91
662.60	36671.51
662.74	36486.61
662.88	36378.95
663.03	35927.22
663.17	36500.65
663.31	35967.01
663.45	36341.50
663.60	36233.83
663.74	35859.35
663.88	36226.81
664.02	35681.47
664.17	36067.66
664.31	35817.22
664.45	35791.47
664.59	35730.62
664.73	35761.05
664.88	35924.88
665.02	35536.35
665.16	35665.08
665.30	35826.58
665.44	35508.27
665.59	35438.05
665.73	35091.65
665.87	35585.50
666.01	35314.00
666.15	35555.08
666.29	35421.67
666.44	35353.79
666.58	34712.49
666.72	34958.24
666.86	34864.62
667.00	34635.25
667.14	34586.10
667.28	35028.46
667.43	34864.62
667.57	34918.45
667.71	34733.55
667.85	34141.39
667.99	34773.34
668.13	34485.45
668.27	34822.49
668.41	34735.89
668.56	34281.83
668.70	34483.11
668.84	34080.54
668.98	34103.95
669.12	33518.81
669.26	33977.56
669.40	34373.11
669.54	33778.61
669.68	33823.08
669.82	33713.08
669.96	33715.42
670.10	32961.76
670.25	33668.61
670.39	33546.90
670.53	33406.47
670.67	33448.60
670.81	33284.76
670.95	33219.22
671.09	33614.77
671.23	33188.80
671.37	33237.95
671.51	32868.14
671.65	32858.78
671.79	32762.82
671.93	32847.08
672.07	32811.97
672.21	33064.75
672.35	32872.82
672.49	32727.71
672.63	32833.04
672.77	32783.88
672.91	33116.24
673.05	32486.64
673.19	32458.55
673.33	32292.37
673.47	32121.51
673.61	32247.90
673.75	32182.37
673.89	32037.25
674.03	31831.29
674.17	31901.50
674.31	31887.46
674.45	31686.17
674.59	31618.30
674.73	31709.58
674.87	31707.24
675.01	31393.61
675.15	31351.48
675.29	31417.01
675.43	31154.87
675.56	31496.59
675.70	31168.91
675.84	31117.42
675.98	30621.23
676.12	30548.67
676.26	30780.39
676.40	31260.20
676.54	30890.39
676.68	31321.05
676.82	30272.49
676.96	30675.06
677.10	30199.93
677.23	30274.83
677.37	29816.08
677.51	30249.08
677.65	29937.79
677.79	29575.01
677.93	29572.67
678.07	29607.78
678.21	29263.72
678.34	29144.35
678.48	28989.88
678.62	29378.40
678.76	28926.68
678.90	29022.64
679.04	28573.26
679.18	28723.05
679.31	28800.29
679.45	28725.39
679.59	28355.59
679.73	28257.29
679.87	28425.81
680.00	28091.11
680.14	28257.29
680.28	28044.30
680.42	28638.80
680.56	28180.05
680.70	27786.84
680.83	27894.50
680.97	27798.54
681.11	28030.26
681.25	27395.97
681.39	27812.59
681.52	27360.86
681.66	27353.84
681.80	27477.89
681.94	27590.24
682.07	27276.60
682.21	26909.14
682.35	26801.47
682.49	26733.60
682.62	27051.91
682.76	26527.63
682.90	26492.52
683.04	26644.66
683.17	26396.56
683.31	26333.37
683.45	26120.38
683.59	26075.91
683.72	26181.23
683.86	26185.91
684.00	26040.80
684.13	26022.08
684.27	25872.28
684.41	25617.16
684.55	25317.57
684.68	25453.33
684.82	25270.76
684.96	25558.65
685.09	25350.34
685.23	25057.78
685.37	25312.89
685.50	25149.06
685.64	25153.74
685.78	24994.58
685.91	24615.41
686.05	24456.26
686.19	24201.14
686.32	24070.07
686.46	24044.32
686.60	23903.89
686.73	23838.36
686.87	23346.84
687.01	23372.59
687.14	23281.31
687.28	23428.76
687.42	23087.04
687.55	23552.81
687.69	23536.43
687.82	22974.70
687.96	23234.50
688.10	23220.45
688.23	22614.26
688.37	22981.72
688.50	22946.61
688.64	23033.21
688.78	22930.23
688.91	22434.03
689.05	22696.17
689.18	22501.91
689.32	22267.86
689.46	22438.72
689.59	22480.85
689.73	22483.19
689.86	22211.68
690.00	22396.59
690.13	22017.42
690.27	21727.19
690.41	21752.94
690.54	21252.06
690.68	21270.79
690.81	21703.79
690.95	21668.68
691.08	21425.26
691.22	21231.00
691.35	21315.26
691.49	21387.82
691.62	21118.65
691.76	21193.55
691.89	21308.24
692.03	21055.46
692.16	20844.81
692.30	20388.41
692.43	20531.18
692.57	20458.62
692.70	20102.86
692.84	20486.71
692.97	20009.24
693.11	20538.20
693.24	20049.03
693.38	19831.36
693.51	19999.88
693.65	20215.21
693.78	20002.22
693.92	19976.47
694.05	19721.35
694.19	19548.15
694.32	19374.95
694.45	19426.45
694.59	19484.96
694.72	19239.20
694.86	19077.71
694.99	18855.36
695.13	18946.64
695.26	19124.52
695.39	18590.88
695.53	18925.57
695.66	19091.75
695.80	18838.97
695.93	18525.34
696.07	18602.58
696.20	18841.31
696.33	18614.28
696.47	18026.81
696.60	18434.06
696.73	18113.41
696.87	18134.47
697.00	17991.70
697.14	18090.00
697.27	17706.15
697.40	17984.68
697.54	17493.16
697.67	17362.09
697.80	17310.60
697.94	17448.69
698.07	17149.11
698.21	17214.64
698.34	17453.37
698.47	17350.39
698.61	16877.60
698.74	16940.80
698.87	16879.94
699.01	16741.85
699.14	16386.09
699.27	16542.91
699.40	16402.47
699.54	16615.46
699.67	16212.89
699.80	16472.69
699.94	16285.45
700.07	16594.40
700.20	16350.98
700.34	16163.74
700.47	16149.70
700.60	16180.12
700.73	15906.28
700.87	16421.20
701.00	15840.75
701.13	15548.18
701.26	15611.37
701.40	15697.97
701.53	15510.73
701.66	15599.67
701.79	15403.07
701.93	15173.69
702.06	15314.13
702.19	15101.14
702.32	15201.78
702.46	15016.88
702.59	15049.64
702.72	14853.04
702.85	14689.20
702.99	14773.46
703.12	14801.55
703.25	14775.80
703.38	14441.11
703.51	14548.77
703.65	14658.78
703.78	14382.59
703.91	14272.59
704.04	14047.90
704.17	13965.98
704.31	14214.07
704.44	14085.34
704.57	14178.97
704.70	13776.39
704.83	13891.08
704.96	13813.84
705.10	14064.28
705.23	14183.65
>>>>>End Processed Spectral Data<<<<<
