SpectraSuite Data File
++++++++++++++++++++++++++++++++++++
Date: Fri Oct 25 10:47:39 EDT 2013
User: price-jones
Dark Spectrum Present: No
Reference Spectrum Present: No
Number of Sampled Component Spectra: 1
Spectrometers: USB2+H05261
Integration Time (usec): 100000 (USB2+H05261)
Spectra Averaged: 1 (USB2+H05261)
Boxcar Smoothing: 0 (USB2+H05261)
Correct for Electrical Dark: No (USB2+H05261)
Strobe/Lamp Enabled: No (USB2+H05261)
Correct for Detector Non-linearity: No (USB2+H05261)
Correct for Stray Light: No (USB2+H05261)
Number of Pixels in Processed Spectrum: 2048
>>>>>Begin Processed Spectral Data<<<<<
365.73	93.62
365.92	93.62
366.12	93.62
366.32	72.56
366.52	21.06
366.72	86.60
366.91	2.34
367.11	9.36
367.31	23.41
367.51	2.34
367.70	86.60
367.90	35.11
368.10	9.36
368.30	65.54
368.49	7.02
368.69	102.98
368.89	49.15
369.09	25.75
369.28	79.58
369.48	53.83
369.68	86.60
369.87	72.56
370.07	105.32
370.27	138.09
370.47	126.39
370.66	367.46
370.86	423.64
371.06	519.60
371.25	528.96
371.45	458.74
371.65	566.41
371.84	463.43
372.04	482.15
372.24	437.68
372.44	489.17
372.63	475.13
372.83	552.37
373.03	533.64
373.22	414.27
373.42	477.47
373.62	465.77
373.81	580.45
374.01	524.28
374.21	624.92
374.40	491.51
374.60	554.71
374.79	547.69
374.99	613.22
375.19	514.92
375.38	573.43
375.58	566.41
375.78	528.96
375.97	533.64
376.17	587.47
376.37	547.69
376.56	620.24
376.76	671.73
376.95	571.09
377.15	566.41
377.35	596.84
377.54	587.47
377.74	627.26
377.93	599.18
378.13	634.29
378.33	653.01
378.52	624.92
378.72	667.05
378.91	585.13
379.11	575.77
379.31	620.24
379.50	645.99
379.70	685.78
379.89	671.73
380.09	683.44
380.28	648.33
380.48	596.84
380.68	681.10
380.87	702.16
381.07	716.20
381.26	596.84
381.46	727.91
381.65	716.20
381.85	697.48
382.04	690.46
382.24	739.61
382.43	702.16
382.63	655.35
382.83	664.71
383.02	702.16
383.22	819.19
383.41	711.52
383.61	730.25
383.80	746.63
384.00	671.73
384.19	746.63
384.39	763.01
384.58	791.10
384.78	777.06
384.97	814.51
385.17	809.83
385.36	795.78
385.56	744.29
385.75	727.91
385.95	751.31
386.14	807.48
386.34	816.85
386.53	828.55
386.72	725.57
386.92	760.67
387.11	772.38
387.31	816.85
387.50	788.76
387.70	798.12
387.89	875.36
388.09	821.53
388.28	772.38
388.48	777.06
388.67	807.48
388.86	870.68
389.06	917.49
389.25	882.38
389.45	891.74
389.64	943.24
389.84	943.24
390.03	966.64
390.22	898.77
390.42	903.45
390.61	908.13
390.81	891.74
391.00	908.13
391.19	952.60
391.39	999.41
391.58	990.05
391.78	985.37
391.97	992.39
392.16	887.06
392.36	1025.15
392.55	1025.15
392.75	990.05
392.94	931.53
393.13	987.71
393.33	940.90
393.52	877.70
393.71	1041.54
393.91	1053.24
394.10	1029.84
394.29	1114.10
394.49	1083.67
394.68	1214.74
394.88	1114.10
395.07	1158.57
395.26	1200.69
395.46	1153.88
395.65	1174.95
395.84	1165.59
396.04	1123.46
396.23	1121.12
396.42	1097.71
396.62	1170.27
396.81	1172.61
397.00	1184.31
397.19	1284.95
397.39	1249.85
397.58	1273.25
397.77	1366.87
397.97	1301.34
398.16	1310.70
398.35	1329.42
398.55	1334.11
398.74	1287.29
398.93	1451.13
399.12	1348.15
399.32	1268.57
399.51	1366.87
399.70	1425.39
399.90	1313.04
400.09	1530.71
400.28	1476.88
400.47	1362.19
400.67	1500.28
400.86	1504.96
401.05	1441.77
401.24	1444.11
401.44	1554.12
401.63	1540.07
401.82	1453.47
402.01	1502.62
402.21	1643.06
402.40	1516.67
402.59	1610.29
402.78	1460.49
402.97	1593.90
403.17	1654.76
403.36	1629.01
403.55	1621.99
403.74	1675.82
403.93	1654.76
404.13	1584.54
404.32	1685.19
404.51	1673.48
404.70	1762.42
404.89	1757.74
405.09	1837.32
405.28	1795.19
405.47	1694.55
405.66	1914.56
405.85	1888.81
406.05	1846.68
406.24	1799.87
406.43	1834.98
406.62	1856.04
406.81	1991.80
407.00	1956.69
407.20	1891.15
407.39	1846.68
407.58	1909.88
407.77	1916.90
407.96	1942.64
408.15	1895.83
408.34	1970.73
408.54	2045.63
408.73	2106.48
408.92	2040.95
409.11	2078.40
409.30	2078.40
409.49	2078.40
409.68	2052.65
409.87	2076.06
410.07	2157.97
410.26	2148.61
410.45	2221.17
410.64	2303.09
410.83	2165.00
411.02	2312.45
411.21	2230.53
411.40	2286.70
411.59	2352.24
411.78	2230.53
411.98	2342.88
412.17	2375.64
412.36	2324.15
412.55	2396.71
412.74	2605.02
412.93	2509.05
413.12	2497.35
413.31	2658.85
413.50	2527.78
413.69	2539.48
413.88	2665.87
414.07	2537.14
414.26	2656.51
414.45	2672.89
414.64	2658.85
414.83	2600.34
415.02	2705.66
415.22	2787.58
415.41	2916.31
415.60	2768.85
415.79	2796.94
415.98	3047.38
416.17	2958.44
416.36	2846.09
416.55	2846.09
416.74	2984.18
416.93	2916.31
417.12	2935.03
417.31	3080.14
417.50	2967.80
417.69	3136.32
417.88	3103.55
418.07	3122.27
418.26	3166.74
418.45	3080.14
418.64	3243.98
418.83	3229.94
419.02	3248.66
419.21	3262.71
419.39	3157.38
419.58	3070.78
419.77	3133.98
419.96	3330.58
420.15	3314.20
420.34	3283.77
420.53	3513.14
420.72	3522.51
420.91	3377.39
421.10	3358.67
421.29	3407.82
421.48	3478.04
421.67	3482.72
421.86	3349.31
422.05	3564.64
422.24	3471.01
422.43	3431.23
422.61	3613.79
422.80	3625.49
422.99	3632.51
423.18	3627.83
423.37	3674.64
423.56	3597.40
423.75	3669.96
423.94	3473.36
424.13	3337.60
424.32	3529.53
424.50	3679.32
424.69	3609.11
424.88	3644.21
425.07	3644.21
425.26	3454.63
425.45	3559.95
425.64	3684.00
425.83	3564.64
426.01	3609.11
426.20	3768.26
426.39	3508.46
426.58	3707.41
426.77	3609.11
426.96	3740.18
427.15	3630.17
427.33	3646.55
427.52	3805.71
427.71	3698.05
427.90	3742.52
428.09	3854.86
428.28	3777.62
428.46	3693.37
428.65	3906.35
428.84	3953.16
429.03	3833.80
429.22	3714.43
429.40	3768.26
429.59	3868.91
429.78	3705.07
429.97	3667.62
430.16	3815.07
430.34	3864.22
430.53	3878.27
430.72	4004.66
430.91	3906.35
431.10	3845.50
431.28	4170.83
431.47	4196.58
431.66	4210.62
431.85	4203.60
432.03	4131.05
432.22	4227.01
432.41	4276.16
432.60	4182.54
432.79	4098.28
432.97	4327.65
433.16	4355.74
433.35	4175.52
433.54	4248.07
433.72	4369.78
433.91	4421.27
434.10	4311.27
434.28	4344.03
434.47	4435.32
434.66	4440.00
434.85	4278.50
435.03	4442.34
435.22	4622.56
435.41	4720.86
435.59	4540.64
435.78	4636.60
435.97	4699.80
436.16	4617.88
436.34	4669.37
436.53	4744.27
436.72	4692.77
436.90	4557.02
437.09	4643.62
437.28	4676.39
437.46	4746.61
437.65	4636.60
437.84	4821.50
438.02	4847.25
438.21	4786.40
438.40	4753.63
438.58	4875.34
438.77	4926.83
438.96	5069.60
439.14	5076.62
439.33	5050.88
439.52	5165.56
439.70	5233.44
439.89	5191.31
440.08	5212.37
440.26	5369.19
440.45	5320.04
440.63	5287.27
440.82	5460.47
441.01	5453.45
441.19	5357.49
441.38	5568.13
441.57	5493.24
441.75	5734.31
441.94	5753.04
442.12	5724.95
442.31	5877.09
442.50	5827.93
442.68	5722.61
442.87	5549.41
443.05	5619.63
443.24	5795.17
443.43	5898.15
443.61	5856.02
443.80	6012.84
443.98	5724.95
444.17	5689.84
444.35	5928.58
444.54	5968.37
444.73	5926.24
444.91	5907.51
445.10	5944.96
445.28	5849.00
445.47	5874.74
445.65	5816.23
445.84	5977.73
446.02	6080.71
446.21	6033.90
446.39	5977.73
446.58	6139.23
446.77	6186.04
446.95	5998.79
447.14	6008.16
447.32	6223.48
447.51	6244.55
447.69	6207.10
447.88	6277.32
448.06	6207.10
448.25	6033.90
448.43	6029.22
448.62	6054.97
448.80	6094.76
448.99	6179.01
449.17	6263.27
449.36	6043.26
449.54	6324.13
449.73	6274.98
449.91	6279.66
450.10	6415.41
450.28	6483.28
450.46	6450.52
450.65	6569.88
450.83	6574.56
451.02	6492.65
451.20	6637.76
451.39	6434.13
451.57	6520.73
451.76	6504.35
451.94	6759.47
452.13	6869.47
452.31	6541.80
452.49	6469.24
452.68	6567.54
452.86	6651.80
453.05	6644.78
453.23	6548.82
453.42	6626.06
453.60	6502.01
453.78	6672.87
453.97	6792.23
454.15	6778.19
454.34	6724.36
454.52	6787.55
454.70	6909.26
454.89	6813.30
455.07	6794.58
455.26	6984.16
455.44	6869.47
455.62	6888.20
455.81	7012.24
455.99	7133.95
456.17	7061.40
456.36	7035.65
456.54	7159.70
456.73	7117.57
456.91	7410.14
457.09	7232.26
457.28	7637.17
457.46	7267.36
457.64	7445.24
457.83	7302.47
458.01	7220.55
458.19	7602.06
458.38	7351.62
458.56	7419.50
458.74	7576.31
458.93	7517.80
459.11	7470.99
459.29	7573.97
459.48	7763.56
459.66	7508.44
459.84	7541.21
460.03	7655.89
460.21	7616.10
460.39	7714.41
460.57	7655.89
460.76	7967.18
460.94	7948.46
461.12	7978.89
461.31	7953.14
461.49	7733.13
461.67	7770.58
461.85	7927.39
462.04	7932.08
462.22	8367.42
462.40	8297.20
462.59	8107.62
462.77	8210.60
462.95	8039.74
463.13	8241.03
463.32	8177.83
463.50	8259.75
463.68	8201.24
463.86	8255.07
464.05	8234.00
464.23	8386.14
464.41	8264.43
464.59	8231.66
464.78	8341.67
464.96	8367.42
465.14	8566.36
465.32	8386.14
465.50	8498.49
465.69	8596.79
465.87	8437.63
466.05	8287.84
466.23	8388.48
466.41	8411.89
466.60	8472.74
466.78	8430.61
466.96	8355.71
467.14	8505.51
467.32	8718.50
467.51	8685.73
467.69	8409.54
467.87	8512.53
468.05	8760.63
468.23	8788.71
468.41	8791.05
468.60	8835.52
468.78	8837.86
468.96	8727.86
469.14	8865.95
469.32	9032.13
469.50	8819.14
469.69	9055.53
469.87	9057.87
470.05	8950.21
470.23	9020.42
470.41	8917.44
470.59	9022.77
470.77	8940.85
470.95	9186.60
471.14	9453.42
471.32	9144.47
471.50	9605.56
471.68	9493.21
471.86	9390.23
472.04	9554.07
472.22	9621.94
472.40	9312.99
472.58	9579.81
472.77	9591.52
472.95	9729.61
473.13	9914.51
473.31	9832.59
473.49	9507.26
473.67	9792.80
473.85	9839.61
474.03	10127.50
474.21	10001.11
474.39	10052.60
474.57	10181.33
474.75	10214.10
474.93	10183.67
475.12	10178.99
475.30	10431.77
475.48	10399.00
475.66	10352.19
475.84	10366.23
476.02	10232.82
476.20	10485.60
476.38	10630.71
476.56	10572.20
476.74	10757.10
476.92	10839.02
477.10	10984.13
477.28	11197.12
477.46	10979.45
477.64	11351.60
477.82	11536.50
478.00	11559.91
478.18	11599.70
478.36	11604.38
478.54	11597.35
478.72	11548.20
478.90	11815.02
479.08	12285.47
479.26	11922.69
479.44	12053.76
479.62	12308.88
479.80	12439.95
479.98	12306.54
480.16	12641.23
480.34	12463.35
480.52	12741.88
480.70	12772.30
480.88	12561.66
481.06	12723.15
481.24	13153.81
481.41	13177.22
481.59	13235.73
481.77	13345.73
481.95	13472.12
482.13	13219.35
482.31	13376.16
482.49	13914.48
482.67	13703.84
482.85	13923.85
483.03	14104.07
483.21	14118.11
483.39	14019.81
483.57	14153.22
483.74	14171.94
483.92	14391.95
484.10	14314.72
484.28	14485.58
484.46	14757.08
484.64	15023.90
484.82	14717.29
485.00	15225.18
485.18	15316.47
485.35	15335.19
485.53	15197.10
485.71	14963.04
485.89	15576.27
486.07	15267.31
486.25	15655.84
486.43	15810.32
486.61	16044.37
486.78	16039.69
486.96	15943.73
487.14	16360.34
487.32	16395.45
487.50	16636.53
487.68	16718.45
487.85	17039.10
488.03	17291.88
488.21	17156.13
488.39	17193.58
488.57	17535.29
488.75	17338.69
488.92	17605.51
489.10	17769.35
489.28	17982.34
489.46	18178.94
489.64	18001.06
489.81	18523.00
489.99	18434.06
490.17	18635.35
490.35	18953.66
490.53	18824.93
490.70	19218.14
490.88	18930.25
491.06	19452.19
491.24	19356.23
491.41	19108.13
491.59	19295.38
491.77	19398.36
491.95	19569.22
492.13	19917.96
492.30	20311.17
492.48	20109.88
492.66	20205.84
492.84	20266.70
493.01	20662.25
493.19	20283.08
493.37	20673.95
493.54	20779.28
493.72	21088.23
493.90	21310.58
494.08	21081.21
494.25	21621.87
494.43	21362.07
494.61	21848.90
494.79	21472.07
494.96	21729.53
495.14	21659.32
495.32	21869.97
495.49	22005.72
495.67	21832.52
495.85	22796.82
496.02	22389.56
496.20	22628.30
496.38	22618.94
496.55	22974.70
496.73	23229.82
496.91	23075.34
497.09	23068.32
497.26	23365.57
497.44	23178.33
497.62	23168.96
497.79	23810.27
497.97	23311.74
498.14	23683.88
498.32	24053.69
498.50	24329.87
498.67	24395.40
498.85	24212.84
499.03	24467.96
499.20	24166.03
499.38	24346.25
499.56	24517.11
499.73	24526.47
499.91	24460.94
500.08	24627.12
500.26	24594.35
500.44	24989.90
500.61	24823.72
500.79	25076.50
500.97	24982.88
501.14	25521.20
501.32	25617.16
501.49	25008.62
501.67	25570.35
501.84	25816.11
502.02	25869.94
502.20	25781.00
502.37	26199.96
502.55	25867.60
502.72	25956.54
502.90	26015.05
503.07	26096.97
503.25	26434.01
503.43	26504.23
503.60	26529.97
503.78	26686.79
503.95	26602.53
504.13	26618.91
504.30	26965.31
504.48	26958.29
504.65	27007.44
504.83	27047.23
505.01	27496.61
505.18	27175.96
505.36	27395.97
505.53	27660.45
505.71	27770.46
505.88	27494.27
506.06	27590.24
506.23	27604.28
506.41	27349.16
506.58	28151.96
506.76	28222.18
506.93	28311.12
507.11	28011.53
507.28	28208.14
507.46	28311.12
507.63	28163.67
507.81	28144.94
507.98	28676.24
508.16	28554.54
508.33	28657.52
508.50	28648.16
508.68	29134.99
508.85	29233.29
509.03	28828.38
509.20	29191.16
509.38	29263.72
509.55	29518.84
509.73	29343.30
509.90	29319.89
510.08	29109.24
510.25	29528.20
510.42	29425.22
510.60	30015.03
510.77	29848.85
510.95	30026.73
511.12	29935.45
511.30	30162.48
511.47	30431.65
511.64	30167.16
511.82	30611.87
511.99	30363.77
512.17	30834.22
512.34	30689.10
512.51	30775.70
512.69	31012.10
512.86	31077.63
513.04	31248.49
513.21	30794.43
513.38	30749.96
513.56	31461.48
513.73	31028.48
513.90	31012.10
514.08	30866.98
514.25	31344.45
514.43	31414.67
514.60	31365.52
514.77	31515.31
514.95	31449.78
515.12	31686.17
515.29	31435.74
515.47	31819.58
515.64	32184.71
515.81	32121.51
515.99	32088.74
516.16	31913.20
516.33	31924.91
516.51	32053.64
516.68	31819.58
516.85	31873.42
517.03	32048.96
517.20	31922.57
517.37	32514.72
517.54	32341.52
517.72	32105.13
517.89	32414.08
518.06	32456.21
518.24	32580.26
518.41	32048.96
518.58	32692.60
518.75	33027.30
518.93	32762.82
519.10	33127.94
519.27	33090.49
519.45	33212.20
519.62	33844.15
519.79	33380.72
519.96	33312.84
520.14	33734.14
520.31	33474.34
520.48	33823.08
520.65	33486.04
520.83	33982.24
521.00	33935.43
521.17	34211.61
521.34	33956.49
521.52	34373.11
521.69	34281.83
521.86	34483.11
522.03	34586.10
522.20	34558.01
522.38	34478.43
522.55	34782.70
522.72	34525.24
522.89	34668.02
523.07	35180.59
523.24	34373.11
523.41	34731.21
523.58	34588.44
523.75	34951.22
523.92	35077.61
524.10	35098.67
524.27	35255.49
524.44	35433.37
524.61	35314.00
524.78	35454.44
524.96	35452.09
525.13	36196.38
525.30	35803.17
525.47	35608.91
525.64	35871.05
525.81	35859.35
525.98	36058.29
526.16	35583.16
526.33	35662.74
526.50	35927.22
526.67	35739.98
526.84	35805.52
527.01	35707.21
527.18	36226.81
527.36	36360.22
527.53	36514.70
527.70	36889.18
527.87	36259.58
528.04	36596.62
528.21	36458.52
528.38	36624.70
528.55	36875.14
528.72	36526.40
528.89	36692.58
529.07	36573.21
529.24	36833.01
529.41	37125.58
529.58	36947.70
529.75	37071.75
529.92	36896.20
530.09	36947.70
530.26	37270.69
530.43	37031.96
530.60	37193.45
530.77	37359.63
530.94	37591.34
531.11	37312.82
531.28	37467.30
531.46	37460.27
531.63	37593.68
531.80	37584.32
531.97	37984.55
532.14	37764.54
532.31	37453.25
532.48	37490.70
532.65	37914.34
532.82	37806.67
532.99	38122.65
533.16	37542.19
533.33	38115.62
533.50	38141.37
533.67	38251.38
533.84	37897.95
534.01	38225.63
534.18	38157.75
534.35	38469.04
534.52	37900.29
534.69	38623.52
534.86	38834.17
535.03	38565.01
535.20	38597.77
535.37	38981.62
535.54	38918.43
535.71	38600.12
535.88	38497.13
536.05	38880.98
536.22	38880.98
536.38	38703.10
536.55	38768.63
536.72	38899.70
536.89	38703.10
537.06	38373.08
537.23	39012.05
537.40	38717.14
537.57	38824.81
537.74	39484.84
537.91	39566.76
538.08	39040.14
538.25	39299.94
538.42	39569.10
538.59	39281.21
538.75	38602.46
538.92	39562.08
539.09	39580.80
539.26	39592.50
539.43	39454.41
539.60	39463.77
539.77	39178.23
539.94	40013.80
540.11	39861.66
540.28	39770.38
540.44	39566.76
540.61	39632.29
540.78	39515.26
540.95	40105.08
541.12	39962.31
541.29	40074.65
541.46	39606.55
541.62	40292.32
541.79	40456.16
541.96	40189.34
542.13	40161.25
542.30	40402.33
542.47	40465.52
542.63	40002.10
542.80	40931.29
542.97	40772.13
543.14	40856.39
543.31	40507.65
543.48	41462.59
543.64	41099.81
543.81	41123.21
543.98	40650.42
544.15	40648.08
544.32	41275.35
544.48	41226.20
544.65	41146.62
544.82	41270.67
544.99	40811.92
545.16	41352.58
545.32	41158.32
545.49	41301.09
545.66	41521.10
545.83	41287.05
546.00	41354.93
546.16	41340.88
546.33	41207.47
546.50	41003.85
546.67	41359.61
546.83	41436.84
547.00	41387.69
547.17	41469.61
547.34	41804.31
547.50	41923.68
547.67	41511.74
547.84	41769.20
548.00	41982.19
548.17	41858.14
548.34	42110.92
548.51	42127.30
548.67	41750.48
548.84	41853.46
549.01	41972.83
549.18	41792.61
549.34	41933.04
549.51	41965.81
549.68	42483.06
549.84	42052.41
550.01	42513.49
550.18	42131.98
550.34	42274.76
550.51	42656.26
550.68	41897.93
550.84	41560.89
551.01	42520.51
551.18	42614.13
551.34	42391.78
551.51	42497.11
551.68	42529.87
551.84	42368.38
552.01	42742.86
552.18	42197.52
552.34	42777.97
552.51	42656.26
552.68	42382.42
552.84	42981.60
553.01	42871.59
553.18	42408.17
553.34	42960.53
553.51	42557.96
553.67	42672.65
553.84	42834.14
554.01	43318.64
554.17	43084.58
554.34	43227.35
554.51	43107.99
554.67	42997.98
554.84	43208.63
555.00	43129.05
555.17	43051.81
555.33	43157.14
555.50	42965.21
555.67	43386.51
555.83	43292.89
556.00	43241.40
556.16	43587.80
556.33	43765.68
556.50	43318.64
556.66	43927.17
556.83	43014.37
556.99	43512.90
557.16	43636.95
557.32	43339.70
557.49	43276.51
557.65	43225.01
557.82	43199.27
557.98	43433.32
558.15	43241.40
558.32	43526.94
558.48	43782.06
558.65	43924.83
558.81	43531.62
558.98	43271.82
559.14	43601.84
559.31	44025.48
559.47	43601.84
559.64	44126.12
559.80	44051.22
559.97	43985.69
560.13	43594.82
560.30	43992.71
560.46	43707.16
560.63	43913.13
560.79	43770.36
560.96	44020.80
561.12	43655.67
561.29	43819.51
561.45	43798.44
561.61	43906.11
561.78	43571.41
561.94	43828.87
562.11	44039.52
562.27	43803.13
562.44	43988.03
562.60	44154.21
562.77	44222.08
562.93	44123.78
563.10	44004.41
563.26	43746.95
563.42	43999.73
563.59	43732.91
563.75	44378.90
563.92	44027.82
564.08	44519.33
564.24	44605.93
564.41	43927.17
564.57	44168.25
564.74	44128.46
564.90	44142.50
565.07	44123.78
565.23	44196.34
565.39	44311.02
565.56	44711.25
565.72	44006.75
565.88	44376.56
566.05	44226.76
566.21	44488.90
566.38	44212.72
566.54	44142.50
566.70	44226.76
566.87	44339.11
567.03	44486.56
567.19	44711.25
567.36	44542.74
567.52	44067.61
567.68	44619.97
567.85	44657.42
568.01	44652.74
568.17	44308.68
568.34	44615.29
568.50	44205.70
568.66	44041.86
568.83	44708.91
568.99	44252.51
569.15	44296.98
569.32	44243.15
569.48	44240.81
569.64	44978.07
569.81	44460.82
569.97	44411.67
570.13	44786.15
570.30	43973.98
570.46	44130.80
570.62	44301.66
570.78	44301.66
570.95	44421.03
571.11	44680.83
571.27	44655.08
571.43	44512.31
571.60	44800.19
571.76	44502.95
571.92	44491.24
572.09	44313.36
572.25	44509.97
572.41	44493.58
572.57	44774.45
572.74	45139.57
572.90	44765.09
573.06	44802.53
573.22	45106.80
573.38	44533.37
573.55	44446.77
573.71	45188.72
573.87	44828.28
574.03	44076.97
574.20	44580.18
574.36	44500.61
574.52	44779.13
574.68	44687.85
574.84	44856.37
575.01	44945.31
575.17	44596.57
575.33	44772.11
575.49	44772.11
575.65	44645.72
575.82	44715.93
575.98	44678.49
576.14	45368.94
576.30	44903.18
576.46	44605.93
576.62	44622.31
576.79	44505.29
576.95	44409.32
577.11	44793.17
577.27	44624.65
577.43	44910.20
577.59	44582.52
577.75	44926.58
577.92	44542.74
578.08	44629.34
578.24	44608.27
578.40	44921.90
578.56	44807.22
578.72	45095.10
578.88	44858.71
579.04	44741.68
579.21	44741.68
579.37	44505.29
579.53	44935.95
579.69	44538.05
579.85	44961.69
580.01	44994.46
580.17	45024.89
580.33	45083.40
580.49	44928.92
580.65	45305.75
580.82	45207.45
580.98	44828.28
581.14	44802.53
581.30	45635.77
581.46	44964.03
581.62	45001.48
581.78	44774.45
581.94	45118.51
582.10	45165.32
582.26	45170.00
582.42	44886.79
582.58	45041.27
582.74	45008.50
582.90	44957.01
583.06	44905.52
583.22	45092.76
583.38	45059.99
583.54	44907.86
583.70	44755.72
583.86	44533.37
584.02	44559.12
584.18	44985.10
584.34	44884.45
584.50	44776.79
584.66	45038.93
584.82	45223.83
584.98	45191.06
585.14	44783.81
585.30	44940.63
585.46	44811.90
585.62	44722.96
585.78	44758.06
585.94	44879.77
586.10	44285.28
586.26	45179.36
586.42	44912.54
586.58	45146.59
586.74	45174.68
586.90	45010.84
587.06	45078.72
587.22	45359.58
587.38	44502.95
587.54	44987.44
587.70	45422.78
587.86	44938.29
588.02	45256.60
588.18	45069.36
588.34	44931.26
588.49	44762.75
588.65	44907.86
588.81	44767.43
588.97	45155.96
589.13	44729.98
589.29	44732.32
589.45	44758.06
589.61	45521.08
589.77	45057.65
589.93	44893.82
590.08	45542.14
590.24	45542.14
590.40	45130.21
590.56	45233.19
590.72	45338.52
590.88	45193.40
591.04	45502.35
591.20	44907.86
591.35	45455.54
591.51	45925.99
591.67	45514.06
591.83	45251.92
591.99	45287.03
592.15	45090.42
592.31	45172.34
592.46	45111.49
592.62	45160.64
592.78	45200.43
592.94	45390.01
593.10	45380.65
593.26	45408.73
593.41	45443.84
593.57	45170.00
593.73	45343.20
593.89	45464.91
594.05	45184.04
594.20	45146.59
594.36	45310.43
594.52	45478.95
594.68	45516.40
594.84	45579.59
594.99	45532.78
595.15	45230.85
595.31	45357.24
595.47	45921.31
595.62	45301.07
595.78	45350.22
595.94	45415.76
596.10	45397.03
596.25	45457.88
596.41	45378.31
596.57	45432.14
596.73	45659.17
596.88	45067.02
597.04	45368.94
597.20	45312.77
597.36	45453.20
597.51	45715.34
597.67	45530.44
597.83	45298.73
597.99	45502.35
598.14	45455.54
598.30	45446.18
598.46	45027.23
598.61	45556.19
598.77	45027.23
598.93	45471.93
599.09	45427.46
599.24	45837.05
599.40	45420.44
599.56	45642.79
599.71	45490.65
599.87	46021.95
600.03	45336.18
600.18	45455.54
600.34	45570.23
600.50	45476.61
600.65	45123.19
600.81	45954.08
600.97	45399.37
601.12	45729.39
601.28	45722.37
601.44	45144.25
601.59	45296.39
601.75	44989.78
601.91	45504.70
602.06	45270.64
602.22	45595.98
602.37	45371.28
602.53	45408.73
602.69	45872.16
602.84	45701.30
603.00	45052.97
603.16	45228.51
603.31	45617.04
603.47	45207.45
603.62	45081.06
603.78	45535.12
603.94	45654.49
604.09	45247.24
604.25	45481.29
604.40	45481.29
604.56	45474.27
604.71	45221.49
604.87	45736.41
605.03	45179.36
605.18	45200.43
605.34	45413.41
605.49	45209.79
605.65	45329.16
605.80	45647.47
605.96	45305.75
606.12	45422.78
606.27	45558.53
606.43	45631.08
606.58	45394.69
606.74	44842.32
606.89	45127.87
607.05	45500.01
607.20	45495.33
607.36	45078.72
607.51	45595.98
607.67	45130.21
607.82	45294.05
607.98	45392.35
608.13	44832.96
608.29	45125.53
608.44	44807.22
608.60	44446.77
608.75	44987.44
608.91	44755.72
609.06	44863.39
609.22	45354.90
609.37	44945.31
609.53	44610.61
609.68	45092.76
609.84	45006.16
609.99	44690.19
610.15	44957.01
610.30	44683.17
610.46	44392.94
610.61	44685.51
610.76	44622.31
610.92	45193.40
611.07	44711.25
611.23	44715.93
611.38	44760.40
611.54	44177.61
611.69	44376.56
611.84	44472.52
612.00	44650.40
612.15	44334.43
612.31	44973.39
612.46	44741.68
612.62	44804.88
612.77	44533.37
612.92	44919.56
613.08	44907.86
613.23	44631.68
613.39	44259.53
613.54	44168.25
613.69	44589.55
613.85	44423.37
614.00	44886.79
614.15	44622.31
614.31	44552.10
614.46	44397.62
614.62	44217.40
614.77	44304.00
614.92	44329.75
615.08	44676.15
615.23	44278.25
615.38	43679.08
615.54	43700.14
615.69	44189.31
615.84	44072.29
616.00	43992.71
616.15	44205.70
616.30	44175.27
616.46	43765.68
616.61	43782.06
616.76	44247.83
616.92	43648.65
617.07	43615.88
617.22	43800.79
617.37	43927.17
617.53	44179.95
617.68	44140.16
617.83	43807.81
617.99	44098.03
618.14	43875.68
618.29	43990.37
618.45	43849.94
618.60	43910.79
618.75	44154.21
618.90	44060.58
619.06	43753.97
619.21	43618.22
619.36	43721.21
619.51	43721.21
619.67	43856.96
619.82	43805.47
619.97	43784.40
620.12	43805.47
620.28	43564.39
620.43	43990.37
620.58	43386.51
620.73	43791.42
620.89	43594.82
621.04	43543.33
621.19	43826.53
621.34	43487.15
621.49	43765.68
621.65	43225.01
621.80	43510.56
621.95	43538.65
622.10	43466.09
622.25	42995.64
622.41	42965.21
622.56	43246.08
622.71	43180.54
622.86	43210.97
623.01	43133.73
623.16	43255.44
623.32	43283.53
623.47	43391.19
623.62	43288.21
623.77	43145.44
623.92	43072.88
624.07	42686.69
624.23	42658.60
624.38	42745.20
624.53	42447.96
624.68	42997.98
624.83	42869.25
624.98	42548.60
625.13	42759.25
625.29	42440.93
625.44	42728.82
625.59	42440.93
625.74	42356.67
625.89	42293.48
626.04	42260.71
626.19	42419.87
626.34	42574.34
626.49	42265.39
626.65	42766.27
626.80	43098.62
626.95	42155.39
627.10	42120.28
627.25	42120.28
627.40	42164.75
627.55	41911.97
627.70	42000.91
627.85	42454.98
628.00	42007.94
628.15	42497.11
628.30	42017.30
628.45	42677.33
628.60	42387.10
628.76	42260.71
628.91	42330.93
629.06	41965.81
629.21	42080.49
629.36	41832.39
629.51	41790.27
629.66	41869.84
629.81	41771.54
629.96	41862.82
630.11	42314.55
630.26	41710.69
630.41	42305.18
630.56	41940.06
630.71	41839.42
630.86	41841.76
631.01	41551.53
631.16	41823.03
631.31	41834.74
631.46	41219.17
631.61	41666.22
631.76	41331.52
631.91	41661.54
632.06	41689.62
632.21	41654.51
632.36	41851.12
632.51	41607.70
632.66	41715.37
632.81	41324.50
632.96	41450.89
633.10	40865.75
633.25	40884.48
633.40	41226.20
633.55	41614.72
633.70	41270.67
633.85	41158.32
634.00	41329.18
634.15	41013.21
634.30	41251.94
634.45	41120.87
634.60	40849.37
634.75	41160.66
634.90	41045.97
635.05	40982.78
635.19	41146.62
635.34	40811.92
635.49	41247.26
635.64	40725.32
635.79	40744.05
635.94	40914.90
636.09	41296.41
636.24	40713.62
636.39	40245.51
636.53	40687.87
636.68	40392.97
636.83	40680.85
636.98	41333.86
637.13	40704.26
637.28	40769.79
637.43	40872.78
637.57	40708.94
637.72	40727.66
637.87	40835.33
638.02	40172.96
638.17	40233.81
638.32	40568.51
638.46	40367.22
638.61	40381.26
638.76	40203.38
638.91	39948.26
639.06	40484.25
639.20	40158.91
639.35	40559.14
639.50	40191.68
639.65	40718.30
639.80	40203.38
639.94	40545.10
640.09	40371.90
640.24	39803.15
640.39	39988.05
640.54	40079.33
640.68	39995.07
640.83	39966.99
640.98	39915.50
641.13	39789.11
641.27	40102.74
641.42	39676.76
641.57	40039.54
641.72	40009.12
641.86	39629.95
642.01	39838.26
642.16	39742.30
642.31	39522.29
642.45	39861.66
642.60	39180.57
642.75	39445.05
642.90	39388.88
643.04	39515.26
643.19	39255.46
643.34	39777.40
643.48	39875.71
643.63	39449.73
643.78	39709.53
643.93	39377.17
644.07	38913.75
644.22	39466.11
644.37	39150.14
644.51	39241.42
644.66	39122.05
644.81	39463.77
644.95	39400.58
645.10	39487.18
645.25	39615.91
645.39	39826.56
645.54	39423.98
645.69	39564.42
645.83	39019.07
645.98	39140.78
646.13	39243.76
646.27	39297.59
646.42	38962.90
646.57	39405.26
646.71	39009.71
646.86	39131.42
647.00	38930.13
647.15	39168.87
647.30	38775.66
647.44	39028.43
647.59	38817.78
647.74	39171.21
647.88	38792.04
648.03	38653.95
648.17	39210.99
648.32	38480.75
648.47	38808.42
648.61	38522.88
648.76	38726.50
648.90	38644.59
649.05	38717.14
649.20	38953.54
649.34	39047.16
649.49	38141.37
649.63	38700.76
649.78	38457.34
649.92	38342.66
650.07	38415.21
650.21	38340.32
650.36	38473.73
650.51	38543.94
650.65	38920.77
650.80	38691.40
650.94	38932.47
651.09	38295.85
651.23	38553.30
651.38	38293.50
651.52	38115.62
651.67	38183.50
651.81	37858.17
651.96	37912.00
652.10	38124.99
652.25	37759.86
652.39	38227.97
652.54	37972.85
652.68	38515.86
652.83	38232.65
652.97	38162.43
653.12	37968.17
653.26	37965.83
653.41	38117.96
653.55	37661.56
653.70	37488.36
653.84	37937.74
653.99	37780.93
654.13	37392.40
654.27	37773.91
654.42	37488.36
654.56	37675.60
654.71	37827.74
654.85	37453.25
655.00	38057.11
655.14	37509.43
655.29	37291.76
655.43	37624.11
655.57	37640.50
655.72	36978.12
655.86	37097.49
656.01	37193.45
656.15	37156.00
656.30	37198.13
656.44	37303.46
656.58	37153.66
656.73	36844.71
656.87	36769.82
657.01	37200.47
657.16	37254.31
657.30	36844.71
657.45	36538.10
657.59	36776.84
657.73	37174.73
657.88	37380.70
658.02	37008.55
658.16	36636.41
658.31	37242.60
658.45	37240.26
658.60	36627.04
658.74	36847.05
658.88	37141.96
659.03	36446.82
659.17	36463.21
659.31	36514.70
659.46	36287.67
659.60	36086.38
659.74	36510.02
659.89	36245.54
660.03	36402.35
660.17	36409.37
660.32	36175.32
660.46	36608.32
660.60	36369.58
660.74	36346.18
660.89	36189.36
661.03	36194.04
661.17	35807.86
661.32	35756.36
661.46	35800.83
661.60	35690.83
661.74	35873.39
661.89	35835.94
662.03	35747.00
662.17	35695.51
662.31	35419.33
662.46	35906.16
662.60	35772.75
662.74	35456.78
662.88	35777.43
663.03	35239.11
663.17	35548.06
663.31	35267.19
663.45	35686.15
663.60	35260.17
663.74	35005.05
663.88	35070.59
664.02	35201.66
664.17	35283.58
664.31	35119.74
664.45	35234.42
664.59	35292.94
664.73	35115.06
664.88	35145.48
665.02	34644.61
665.16	35241.45
665.30	34733.55
665.44	34541.63
665.59	34033.73
665.73	34693.76
665.87	34197.57
666.01	34724.19
666.15	34487.79
666.29	34164.80
666.44	34581.42
666.58	34684.40
666.72	34230.33
666.86	34405.88
667.00	34333.32
667.14	34047.77
667.28	34167.14
667.43	33839.47
667.57	33921.38
667.71	33460.30
667.85	33954.15
667.99	33661.58
668.13	33500.09
668.27	33401.79
668.41	33921.38
668.56	33113.90
668.70	33528.17
668.84	33762.23
668.98	33404.13
669.12	33383.06
669.26	33474.34
669.40	33294.12
669.54	32982.83
669.68	33359.66
669.82	33146.67
669.96	33205.18
670.10	32753.46
670.25	32898.57
670.39	32730.05
670.53	32865.80
670.67	32432.80
670.81	32936.02
670.95	32870.48
671.09	32769.84
671.23	32685.58
671.37	32720.69
671.51	32481.95
671.65	32297.05
671.79	32070.02
671.93	32336.84
672.07	32456.21
672.21	32411.74
672.35	31803.20
672.49	32252.58
672.63	32203.43
672.77	32165.98
672.91	31957.67
673.05	32011.51
673.19	31901.50
673.33	31601.91
673.47	31630.00
673.61	31419.35
673.75	31222.75
673.89	31159.55
674.03	31152.53
674.17	31178.28
674.31	30829.54
674.45	30874.01
674.59	31187.64
674.73	31152.53
674.87	30749.96
675.01	31215.72
675.15	30923.16
675.29	31005.08
675.43	30733.57
675.56	30738.26
675.70	30433.99
675.84	30293.55
675.98	29603.10
676.12	30300.58
676.26	30192.91
676.40	29883.96
676.54	30073.54
676.68	30251.42
676.82	29411.17
676.96	29544.58
677.10	29319.89
677.23	29441.60
677.37	29591.39
677.51	29347.98
677.65	29324.57
677.79	28947.75
677.93	28973.49
678.07	28882.21
678.21	28711.35
678.34	28685.61
678.48	28826.04
678.62	28669.22
678.76	28591.98
678.90	28493.68
679.04	28479.64
679.18	28568.58
679.31	27981.10
679.45	28137.92
679.59	27992.81
679.73	27997.49
679.87	28032.60
680.00	27927.27
680.14	27658.11
680.28	27562.15
680.42	27412.35
680.56	27538.74
680.70	27424.06
680.83	27241.50
680.97	27206.39
681.11	26993.40
681.25	26974.67
681.39	27234.47
681.52	27065.96
681.66	27002.76
681.80	26649.34
681.94	26876.37
682.07	26576.78
682.21	26199.96
682.35	26232.72
682.49	26710.19
682.62	25982.29
682.76	26288.90
682.90	25991.65
683.04	26087.61
683.17	25853.56
683.31	26026.76
683.45	26066.55
683.59	25387.79
683.72	25443.96
683.86	25631.21
684.00	25230.98
684.13	25036.71
684.27	25233.32
684.41	25502.48
684.55	25289.49
684.68	25057.78
684.82	24833.08
684.96	24807.34
685.09	24641.16
685.23	24482.00
685.37	24805.00
685.50	24449.24
685.64	24397.74
685.78	24432.85
685.91	24526.47
686.05	24367.32
686.19	23985.81
686.32	24109.86
686.46	23590.26
686.60	23545.79
686.73	23459.19
686.87	23087.04
687.01	23403.02
687.14	23386.63
687.28	23283.65
687.42	23295.35
687.55	22745.33
687.69	23445.15
687.82	23094.07
687.96	22913.84
688.10	22824.90
688.23	22576.81
688.37	22279.56
688.50	22265.52
688.64	22443.40
688.78	22401.27
688.91	22232.75
689.05	22541.70
689.18	22033.80
689.32	21678.04
689.46	22134.45
689.59	21921.46
689.73	21933.16
689.86	21572.72
690.00	21687.40
690.13	22092.32
690.27	21699.11
690.41	21823.16
690.54	21259.09
690.68	21200.57
690.81	20826.09
690.95	21146.74
691.08	21130.36
691.22	21071.84
691.35	20985.24
691.49	20954.82
691.62	21048.44
691.76	20809.70
691.89	20690.34
692.03	20877.58
692.16	20432.88
692.30	20449.26
692.43	20276.06
692.57	20346.28
692.70	20428.20
692.84	20147.33
692.97	19943.70
693.11	19978.81
693.24	19901.58
693.38	19772.85
693.51	19529.43
693.65	19609.01
693.78	19733.06
693.92	19197.07
694.05	19454.53
694.19	19239.20
694.32	19164.31
694.45	18829.61
694.59	18963.02
694.72	19150.26
694.86	19037.92
694.99	18909.19
695.13	18586.19
695.26	18611.94
695.39	18230.43
695.53	18263.20
695.66	18422.36
695.80	18359.16
695.93	18405.97
696.07	18270.22
696.20	18387.25
696.33	18249.16
696.47	18059.57
696.60	17778.71
696.73	17975.31
696.87	17827.86
697.00	17961.27
697.14	17701.47
697.27	17806.80
697.40	17528.27
697.54	17394.86
697.67	17282.52
697.80	17406.56
697.94	17242.73
698.07	17291.88
698.21	17104.64
698.34	17022.72
698.47	17128.04
698.61	16835.47
698.74	16650.57
698.87	16549.93
699.01	16545.25
699.14	16145.02
699.27	16154.38
699.40	16521.84
699.54	16088.84
699.67	16133.31
699.80	16121.61
699.94	15964.79
700.07	15985.86
700.20	16205.87
700.34	15960.11
700.47	15784.57
700.60	15978.84
700.73	15985.86
700.87	15620.74
701.00	15499.03
701.13	15597.33
701.26	15520.09
701.40	15534.14
701.53	15250.93
701.66	15267.31
701.79	15351.57
701.93	14958.36
702.06	14951.34
702.19	15030.92
702.32	14944.32
702.46	14752.40
702.59	14782.82
702.72	14916.23
702.85	14703.25
702.99	14965.39
703.12	14590.90
703.25	14642.39
703.38	14408.34
703.51	14312.38
703.65	14443.45
703.78	14319.40
703.91	14153.22
704.04	14237.48
704.17	13881.72
704.31	13989.38
704.44	13537.66
704.57	13462.76
704.70	13682.77
704.83	13495.53
704.96	13771.71
705.10	14005.77
705.23	13902.78
>>>>>End Processed Spectral Data<<<<<
