SpectraSuite Data File
++++++++++++++++++++++++++++++++++++
Date: Fri Oct 25 10:44:43 EDT 2013
User: price-jones
Dark Spectrum Present: No
Reference Spectrum Present: No
Number of Sampled Component Spectra: 1
Spectrometers: USB2+H05261
Integration Time (usec): 100000 (USB2+H05261)
Spectra Averaged: 1 (USB2+H05261)
Boxcar Smoothing: 0 (USB2+H05261)
Correct for Electrical Dark: No (USB2+H05261)
Strobe/Lamp Enabled: No (USB2+H05261)
Correct for Detector Non-linearity: No (USB2+H05261)
Correct for Stray Light: No (USB2+H05261)
Number of Pixels in Processed Spectrum: 2048
>>>>>Begin Processed Spectral Data<<<<<
365.73	110.01
365.92	110.01
366.12	110.01
366.32	0.00
366.52	65.54
366.72	107.66
366.91	0.00
367.11	0.00
367.31	35.11
367.51	39.79
367.70	30.43
367.90	81.92
368.10	53.83
368.30	37.45
368.49	9.36
368.69	23.41
368.89	60.85
369.09	88.94
369.28	58.51
369.48	35.11
369.68	70.22
369.87	56.17
370.07	77.24
370.27	145.11
370.47	152.13
370.66	374.49
370.86	437.68
371.06	456.40
371.25	514.92
371.45	472.79
371.65	465.77
371.84	463.43
372.04	484.49
372.24	477.47
372.44	624.92
372.63	374.49
372.83	514.92
373.03	477.47
373.22	496.19
373.42	503.22
373.62	475.13
373.81	571.09
374.01	564.07
374.21	505.56
374.40	547.69
374.60	606.20
374.79	606.20
374.99	507.90
375.19	575.77
375.38	526.62
375.58	477.47
375.78	589.82
375.97	580.45
376.17	660.03
376.37	587.47
376.56	505.56
376.76	559.39
376.95	573.43
377.15	601.52
377.35	543.00
377.54	608.54
377.74	552.37
377.93	557.05
378.13	638.97
378.33	678.76
378.52	692.80
378.72	692.80
378.91	688.12
379.11	566.41
379.31	624.92
379.50	627.26
379.70	627.26
379.89	669.39
380.09	610.88
380.28	631.94
380.48	636.63
380.68	664.71
380.87	599.18
381.07	634.29
381.26	685.78
381.46	720.88
381.65	578.11
381.85	653.01
382.04	653.01
382.24	592.16
382.43	645.99
382.63	617.90
382.83	690.46
383.02	760.67
383.22	683.44
383.41	711.52
383.61	697.48
383.80	697.48
384.00	746.63
384.19	814.51
384.39	814.51
384.58	779.40
384.78	770.04
384.97	725.57
385.17	744.29
385.36	739.61
385.56	816.85
385.75	763.01
385.95	690.46
386.14	779.40
386.34	741.95
386.53	748.97
386.72	795.78
386.92	798.12
387.11	868.34
387.31	718.54
387.50	807.48
387.70	779.40
387.89	837.91
388.09	809.83
388.28	866.00
388.48	798.12
388.67	898.77
388.86	842.59
389.06	826.21
389.25	788.76
389.45	922.17
389.64	851.96
389.84	896.43
390.03	816.85
390.22	1006.43
390.42	919.83
390.61	884.72
390.81	919.83
391.00	868.34
391.19	1043.88
391.39	957.28
391.58	952.60
391.78	997.07
391.97	973.66
392.16	1029.84
392.36	990.05
392.55	1015.79
392.75	901.11
392.94	905.79
393.13	903.45
393.33	1018.13
393.52	1001.75
393.71	1057.92
393.91	1055.58
394.10	1015.79
394.29	1081.33
394.49	1043.88
394.68	1090.69
394.88	1114.10
395.07	1125.80
395.26	1081.33
395.46	1165.59
395.65	1100.05
395.84	1116.44
396.04	1198.35
396.23	1100.05
396.42	1086.01
396.62	1039.20
396.81	1184.31
397.00	1130.48
397.19	1191.33
397.39	1130.48
397.58	1177.29
397.77	1214.74
397.97	1153.88
398.16	1268.57
398.35	1231.12
398.55	1198.35
398.74	1249.85
398.93	1341.13
399.12	1282.61
399.32	1364.53
399.51	1331.76
399.70	1343.47
399.90	1383.26
400.09	1282.61
400.28	1460.49
400.47	1394.96
400.67	1577.52
400.86	1425.39
401.05	1565.82
401.24	1416.02
401.44	1593.90
401.63	1540.07
401.82	1547.09
402.01	1392.62
402.21	1523.69
402.40	1568.16
402.59	1504.96
402.78	1558.80
402.97	1547.09
403.17	1647.74
403.36	1483.90
403.55	1664.12
403.74	1664.12
403.93	1797.53
404.13	1722.63
404.32	1666.46
404.51	1755.40
404.70	1556.46
404.89	1561.14
405.09	1804.55
405.28	1717.95
405.47	1746.04
405.66	1685.19
405.85	1842.00
406.05	1811.57
406.24	1706.25
406.43	1818.60
406.62	1844.34
406.81	1750.72
407.00	1830.30
407.20	1734.34
407.39	1881.79
407.58	1792.85
407.77	1959.03
407.96	2010.52
408.15	1909.88
408.34	1884.13
408.54	2022.22
408.73	1982.43
408.92	1987.11
409.11	2001.16
409.30	2045.63
409.49	2080.74
409.68	2033.93
409.87	2015.20
410.07	2050.31
410.26	2104.14
410.45	2167.34
410.64	2139.25
410.83	2118.18
411.02	2253.94
411.21	2118.18
411.40	2162.66
411.59	2214.15
411.78	2265.64
411.98	2246.91
412.17	2300.75
412.36	2321.81
412.55	2363.94
412.74	2403.73
412.93	2429.48
413.12	2544.16
413.31	2476.29
413.50	2555.86
413.69	2532.46
413.88	2588.63
414.07	2562.89
414.26	2661.19
414.45	2548.84
414.64	2661.19
414.83	2672.89
415.02	2647.15
415.22	2771.19
415.41	2775.88
415.60	2834.39
415.79	2789.92
415.98	2881.20
416.17	2818.00
416.36	2848.43
416.55	2789.92
416.74	2935.03
416.93	2942.05
417.12	2953.76
417.31	2981.84
417.50	2925.67
417.69	3077.80
417.88	3073.12
418.07	2951.42
418.26	3126.96
418.45	3077.80
418.64	3225.26
418.83	3267.39
419.02	3159.72
419.21	3157.38
419.39	3192.49
419.58	3152.70
419.77	3356.33
419.96	3318.88
420.15	3183.13
420.34	3330.58
420.53	3232.28
420.72	3330.58
420.91	3349.31
421.10	3389.10
421.29	3368.03
421.48	3375.05
421.67	3492.08
421.86	3538.89
422.05	3515.48
422.24	3309.52
422.43	3471.01
422.61	3482.72
422.80	3496.76
422.99	3562.30
423.18	3574.00
423.37	3595.06
423.56	3581.02
423.75	3386.76
423.94	3492.08
424.13	3396.12
424.32	3503.78
424.50	3503.78
424.69	3662.94
424.88	3665.28
425.07	3501.44
425.26	3574.00
425.45	3527.19
425.64	3471.01
425.83	3611.45
426.01	3585.70
426.20	3527.19
426.39	3616.13
426.58	3508.46
426.77	3550.59
426.96	3597.40
427.15	3529.53
427.33	3569.32
427.52	3686.34
427.71	3815.07
427.90	3557.61
428.09	3861.88
428.28	3728.47
428.46	3758.90
428.65	3721.45
428.84	3988.27
429.03	3824.44
429.22	3791.67
429.40	3812.73
429.59	3866.56
429.78	3543.57
429.97	3651.24
430.16	3794.01
430.34	3735.50
430.53	3847.84
430.72	3873.59
430.91	3824.44
431.10	3810.39
431.28	4119.34
431.47	4224.67
431.66	4156.79
431.85	4081.89
432.03	4107.64
432.22	4238.71
432.41	4177.86
432.60	4278.50
432.79	4159.13
432.97	4337.01
433.16	4374.46
433.35	4229.35
433.54	4255.09
433.72	4201.26
433.91	4351.06
434.10	4386.16
434.28	4461.06
434.47	4353.40
434.66	4526.60
434.85	4475.10
435.03	4519.57
435.22	4414.25
435.41	4697.46
435.59	4535.96
435.78	4454.04
435.97	4627.24
436.16	4601.49
436.34	4528.94
436.53	4678.73
436.72	4594.47
436.90	4671.71
437.09	4695.11
437.28	4685.75
437.46	4711.50
437.65	4718.52
437.84	4727.88
438.02	4636.60
438.21	4674.05
438.40	4690.43
438.58	4690.43
438.77	4847.25
438.96	4940.87
439.14	5011.09
439.33	5090.67
439.52	4973.64
439.70	5085.98
439.89	5184.29
440.08	5116.41
440.26	5013.43
440.45	5097.69
440.63	5303.65
440.82	5310.68
441.01	5390.25
441.19	5327.06
441.38	5420.68
441.57	5420.68
441.75	5420.68
441.94	5738.99
442.12	5568.13
442.31	5736.65
442.50	5614.95
442.68	5657.07
442.87	5736.65
443.05	5687.50
443.24	5729.63
443.43	5628.99
443.61	5781.12
443.80	6031.56
443.98	5636.01
444.17	5645.37
444.35	5898.15
444.54	5891.13
444.73	5792.83
444.91	5902.83
445.10	5900.49
445.28	5687.50
445.47	5757.72
445.65	5865.38
445.84	5717.93
446.02	5823.25
446.21	5834.96
446.39	5907.51
446.58	5980.07
446.77	5959.00
446.95	5823.25
447.14	5980.07
447.32	5984.75
447.51	5884.11
447.69	5987.09
447.88	6031.56
448.06	5963.68
448.25	6064.33
448.43	6083.05
448.62	6073.69
448.80	5923.90
448.99	6104.12
449.17	6169.65
449.36	6209.44
449.54	6258.59
449.73	6160.29
449.91	6296.04
450.10	6277.32
450.28	6361.58
450.46	6450.52
450.65	6361.58
450.83	6579.25
451.02	6239.87
451.20	6394.34
451.39	6473.92
451.57	6366.26
451.76	6445.84
451.94	6457.54
452.13	6518.39
452.31	6314.77
452.49	6331.15
452.68	6530.09
452.86	6457.54
453.05	6700.95
453.23	6630.74
453.42	6668.19
453.60	6581.59
453.78	6588.61
453.97	6647.12
454.15	6846.07
454.34	6675.21
454.52	6719.68
454.70	6773.51
454.89	6773.51
455.07	6839.05
455.26	7019.27
455.44	6925.65
455.62	6869.47
455.81	6993.52
455.99	7007.56
456.17	7028.63
456.36	6974.80
456.54	7087.14
456.73	7054.37
456.91	7229.91
457.09	7407.80
457.28	7438.22
457.46	7400.77
457.64	7356.30
457.83	7250.98
458.01	7288.43
458.19	7344.60
458.38	7431.20
458.56	7368.01
458.74	7625.47
458.93	7571.63
459.11	7445.24
459.29	7375.03
459.48	7386.73
459.66	7569.29
459.84	7604.40
460.03	7719.09
460.21	7506.10
460.39	7562.27
460.57	7557.59
460.76	7728.45
460.94	7709.72
461.12	7845.48
461.31	7709.72
461.49	7688.66
461.67	7793.98
461.85	7889.95
462.04	7719.09
462.22	7971.86
462.40	8060.80
462.59	8032.72
462.77	7903.99
462.95	7932.08
463.13	7985.91
463.32	7817.39
463.50	8124.00
463.68	8252.73
463.86	8107.62
464.05	7943.78
464.23	7934.42
464.41	8121.66
464.59	8004.63
464.78	8297.20
464.96	8095.91
465.14	8161.45
465.32	8400.18
465.50	8425.93
465.69	8404.86
465.87	8411.89
466.05	8351.03
466.23	8205.92
466.41	8372.10
466.60	8432.95
466.78	8367.42
466.96	8620.19
467.14	8477.42
467.32	8667.00
467.51	8667.00
467.69	8355.71
467.87	8524.23
468.05	8718.50
468.23	8554.66
468.41	8655.30
468.60	8744.24
468.78	8730.20
468.96	8840.20
469.14	8732.54
469.32	8676.37
469.50	8585.08
469.69	8837.86
469.87	9097.66
470.05	8858.93
470.23	9050.85
470.41	8849.57
470.59	9067.24
470.77	8877.65
470.95	9055.53
471.14	9210.01
471.32	8990.00
471.50	9219.37
471.68	9226.39
471.86	9256.82
472.04	9315.33
472.22	9626.62
472.40	9312.99
472.58	9254.48
472.77	9497.89
472.95	9612.58
473.13	9736.63
473.31	9390.23
473.49	9673.43
473.67	9661.73
473.85	9659.39
474.03	9879.40
474.21	10019.83
474.39	9891.10
474.57	10076.01
474.75	9935.57
474.93	10218.78
475.12	10064.30
475.30	10242.18
475.48	10141.54
475.66	10242.18
475.84	10214.10
476.02	10438.79
476.20	10120.48
476.38	10665.82
476.56	10705.61
476.74	10619.01
476.92	10731.36
477.10	10649.44
477.28	11033.29
477.46	11009.88
477.64	11122.23
477.82	10930.30
478.00	11328.19
478.18	11384.37
478.36	11332.87
478.54	11695.66
478.72	11447.56
478.90	11667.57
479.08	11852.47
479.26	11824.39
479.44	11969.50
479.62	11899.28
479.80	12058.44
479.98	12109.93
480.16	12404.84
480.34	12343.99
480.52	12517.18
480.70	12692.73
480.88	12456.33
481.06	12666.98
481.24	12798.05
481.41	12788.69
481.59	13327.01
481.77	13076.57
481.95	13221.69
482.13	13111.68
482.31	13167.85
482.49	13547.02
482.67	13488.51
482.85	13954.27
483.03	13851.29
483.21	13958.96
483.39	13830.23
483.57	14099.39
483.74	14071.30
483.92	14417.70
484.10	14185.99
484.28	14197.69
484.46	14609.62
484.64	14984.11
484.82	14633.03
485.00	14778.14
485.18	15194.76
485.35	15248.59
485.53	14888.15
485.71	15007.52
485.89	15414.77
486.07	15227.53
486.25	15335.19
486.43	15646.48
486.61	15669.89
486.78	15707.34
486.96	16011.60
487.14	16449.28
487.32	16631.85
487.50	16339.28
487.68	16315.87
487.85	16690.36
488.03	16933.78
488.21	16893.99
488.39	17310.60
488.57	17174.85
488.75	17069.53
488.92	17528.27
489.10	17425.29
489.28	17776.37
489.46	18003.40
489.64	17940.21
489.81	18300.65
489.99	18412.99
490.17	18466.83
490.35	18855.36
490.53	18918.55
490.70	18761.73
490.88	18970.04
491.06	19101.11
491.24	19019.19
491.41	19194.73
491.59	18799.18
491.77	19360.91
491.95	19482.62
492.13	19676.88
492.30	19868.81
492.48	19807.95
492.66	20046.69
492.84	20039.67
493.01	20154.35
493.19	20304.15
493.37	20643.52
493.54	20547.56
493.72	20512.46
493.90	20678.63
494.08	20760.55
494.25	21142.06
494.43	21010.99
494.61	21413.56
494.79	21516.54
494.96	21394.84
495.14	21418.24
495.32	21451.01
495.49	21640.59
495.67	21757.62
495.85	22370.84
496.02	22277.22
496.20	22380.20
496.38	22445.74
496.55	22382.54
496.73	23222.80
496.91	22869.37
497.09	23007.47
497.26	23019.17
497.44	22789.80
497.62	22813.20
497.79	23227.48
497.97	23632.39
498.14	23543.45
498.32	23419.40
498.50	23604.30
498.67	23896.87
498.85	24065.39
499.03	24308.80
499.20	24278.38
499.38	24439.87
499.56	24292.42
499.73	24276.04
499.91	24556.90
500.08	24807.34
500.26	24369.66
500.44	24744.14
500.61	24584.99
500.79	24709.04
500.97	24959.47
501.14	25085.86
501.32	25238.00
501.49	25153.74
501.67	25172.46
501.84	25687.38
502.02	25113.95
502.20	25724.83
502.37	25757.60
502.55	25668.66
502.72	26122.72
502.90	25879.30
503.07	25846.54
503.25	25769.30
503.43	25839.51
503.60	26345.07
503.78	26218.68
503.95	25797.38
504.13	26539.33
504.30	26497.20
504.48	26242.09
504.65	26625.93
504.83	26787.43
505.01	26911.48
505.18	26960.63
505.36	27281.28
505.53	27274.26
505.71	27435.76
505.88	27503.64
506.06	27304.69
506.23	27292.99
506.41	27538.74
506.58	27531.72
506.76	27665.13
506.93	27887.48
507.11	27810.25
507.28	28109.83
507.46	27693.22
507.63	27910.89
507.81	28112.17
507.98	27613.64
508.16	28011.53
508.33	28751.14
508.50	28325.16
508.68	28720.71
508.85	28723.05
509.03	28648.16
509.20	28786.25
509.38	28842.42
509.55	28877.53
509.73	29001.58
509.90	29268.40
510.08	28957.11
510.25	29191.16
510.42	29221.59
510.60	29350.32
510.77	29523.52
510.95	30015.03
511.12	29642.88
511.30	29633.52
511.47	30061.84
511.64	30040.78
511.82	30125.04
511.99	29795.02
512.17	30087.59
512.34	29900.34
512.51	30443.35
512.69	30347.39
512.86	30347.39
513.04	30345.05
513.21	31084.65
513.38	30333.34
513.56	30335.68
513.73	30389.52
513.90	30778.04
514.08	30590.80
514.25	30644.63
514.43	31056.57
514.60	30991.03
514.77	31318.71
514.95	31459.14
515.12	31271.90
515.29	31133.81
515.47	31590.21
515.64	31585.53
515.81	31435.74
515.99	31400.63
516.16	31597.23
516.33	31562.12
516.51	31866.39
516.68	31728.30
516.85	31393.61
517.03	31934.27
517.20	31630.00
517.37	31793.84
517.54	32533.45
517.72	31913.20
517.89	31784.48
518.06	32229.18
518.24	32100.45
518.41	32320.46
518.58	32320.46
518.75	32339.18
518.93	32739.41
519.10	32287.69
519.27	32643.45
519.45	32769.84
519.62	32737.07
519.79	32776.86
519.96	33146.67
520.14	33310.50
520.31	32943.04
520.48	33057.73
520.65	33053.05
520.83	33441.57
521.00	33694.35
521.17	33764.57
521.34	33661.58
521.52	33694.35
521.69	34031.39
521.86	33673.29
522.03	33717.76
522.20	33764.57
522.38	34314.59
522.55	34141.39
522.72	34583.76
522.89	34352.04
523.07	34438.64
523.24	34368.43
523.41	34668.02
523.58	34349.70
523.75	34843.56
523.92	35150.17
524.10	34920.79
524.27	35302.30
524.44	34693.76
524.61	35164.21
524.78	35306.98
524.96	35082.29
525.13	35463.80
525.30	35103.35
525.47	35145.48
525.64	35419.33
525.81	34934.84
525.98	35445.07
526.16	35487.20
526.33	34864.62
526.50	35456.78
526.67	35178.25
526.84	35189.95
527.01	35314.00
527.18	35206.34
527.36	36041.91
527.53	35522.31
527.70	36100.42
527.87	35974.03
528.04	36070.00
528.21	36018.50
528.38	35934.24
528.55	36474.91
528.72	36453.84
528.89	36107.44
529.07	36395.33
529.24	36093.40
529.41	36648.11
529.58	36533.42
529.75	37060.04
529.92	36779.18
530.09	37034.30
530.26	36533.42
530.43	36629.38
530.60	37038.98
530.77	36704.28
530.94	37050.68
531.11	37067.06
531.28	37067.06
531.46	37095.15
531.63	37055.36
531.80	37261.33
531.97	37095.15
532.14	36945.36
532.31	37078.77
532.48	36964.08
532.65	37404.10
532.82	37118.56
532.99	37593.68
533.16	37483.68
533.33	37514.11
533.50	38253.72
533.67	37874.55
533.84	37600.71
534.01	37647.52
534.18	37624.11
534.35	37865.19
534.52	37764.54
534.69	38253.72
534.86	38141.37
535.03	37970.51
535.20	38443.30
535.37	38810.76
535.54	38637.56
535.71	38155.41
535.88	38370.74
536.05	38356.70
536.22	38419.89
536.38	38419.89
536.55	38778.00
536.72	38466.70
536.89	38218.61
537.06	38443.30
537.23	38801.40
537.40	38778.00
537.57	38600.12
537.74	38375.42
537.91	39374.83
538.08	38827.15
538.25	38726.50
538.42	38976.94
538.59	38892.68
538.75	38724.16
538.92	38660.97
539.09	39075.24
539.26	39058.86
539.43	39012.05
539.60	39180.57
539.77	38808.42
539.94	38885.66
540.11	39292.91
540.28	39225.04
540.44	39330.36
540.61	39290.57
540.78	39498.88
540.95	39508.24
541.12	39480.16
541.29	39510.58
541.46	39625.27
541.62	39618.25
541.79	39489.52
541.96	39171.21
542.13	39625.27
542.30	39831.24
542.47	39313.98
542.63	39936.56
542.80	40009.12
542.97	40201.04
543.14	40451.48
543.31	40308.71
543.48	40505.31
543.64	40851.71
543.81	40659.79
543.98	40404.67
544.15	40500.63
544.32	40304.02
544.48	40840.01
544.65	40601.27
544.82	40547.44
544.99	40706.60
545.16	40762.77
545.32	40027.84
545.49	40842.35
545.66	41186.41
545.83	40832.99
546.00	41387.69
546.16	40942.99
546.33	41202.79
546.50	40737.02
546.67	41359.61
546.83	40514.67
547.00	40954.69
547.17	41013.21
547.34	41081.08
547.50	41003.85
547.67	41574.94
547.84	41270.67
548.00	41462.59
548.17	41619.41
548.34	41085.76
548.51	41291.73
548.67	41418.12
548.84	41593.66
549.01	41221.52
549.18	41607.70
549.34	41598.34
549.51	41869.84
549.68	41701.32
549.84	41904.95
550.01	41914.31
550.18	41818.35
550.34	41972.83
550.51	41701.32
550.68	41823.03
550.84	41427.48
551.01	41834.74
551.18	41837.08
551.34	41900.27
551.51	41825.37
551.68	42038.36
551.84	41944.74
552.01	41860.48
552.18	42005.59
552.34	41954.10
552.51	42054.75
552.68	41757.50
552.84	42167.09
553.01	42249.01
553.18	42356.67
553.34	42054.75
553.51	42031.34
553.67	42117.94
553.84	42653.92
554.01	42609.45
554.17	42590.73
554.34	42167.09
554.51	42784.99
554.67	42815.42
554.84	42775.63
555.00	42686.69
555.17	42300.50
555.33	42445.62
555.50	42569.66
555.67	42749.88
555.83	42824.78
556.00	42801.38
556.16	42941.81
556.33	42904.36
556.50	42726.48
556.66	43100.97
556.83	42817.76
556.99	42979.26
557.16	42976.92
557.32	42869.25
557.49	43407.58
557.65	42632.86
557.82	42822.44
557.98	42916.06
558.15	43140.75
558.32	43070.54
558.48	43082.24
558.65	42967.55
558.81	42897.34
558.98	42974.58
559.14	42948.83
559.31	43150.12
559.47	43241.40
559.64	43622.90
559.80	43517.58
559.97	43328.00
560.13	43105.65
560.30	43370.13
560.46	42927.77
560.63	43187.56
560.79	43323.32
560.96	43721.21
561.12	43110.33
561.29	43601.84
561.45	43555.03
561.61	43115.01
561.78	43501.20
561.94	43255.44
562.11	43370.13
562.27	43613.54
562.44	43653.33
562.60	43775.04
562.77	43569.07
562.93	43454.39
563.10	43545.67
563.26	43342.04
563.42	43725.89
563.59	43405.23
563.75	43423.96
563.92	43636.95
564.08	43269.48
564.24	43690.78
564.41	43875.68
564.57	43531.62
564.74	43653.33
564.90	43498.86
565.07	43910.79
565.23	43824.19
565.39	43875.68
565.56	43540.99
565.72	43737.59
565.88	44151.87
566.05	43681.42
566.21	43585.46
566.38	43552.69
566.54	43800.79
566.70	44048.88
566.87	44479.54
567.03	43618.22
567.19	44456.14
567.36	44062.93
567.52	43845.26
567.68	44142.50
567.85	44217.40
568.01	43770.36
568.17	44027.82
568.34	44336.77
568.50	43503.54
568.66	44060.58
568.83	44039.52
568.99	43566.73
569.15	43686.10
569.32	44100.37
569.48	44013.77
569.64	44039.52
569.81	43995.05
569.97	44247.83
570.13	44210.38
570.30	44095.69
570.46	43863.98
570.62	43466.09
570.78	43971.64
570.95	43697.80
571.11	43924.83
571.27	43793.76
571.43	44268.89
571.60	44170.59
571.76	43540.99
571.92	44435.07
572.09	43924.83
572.25	44025.48
572.41	44051.22
572.57	44542.74
572.74	44357.83
572.90	44332.09
573.06	44554.44
573.22	43952.92
573.38	43990.37
573.55	44100.37
573.71	44584.86
573.87	44081.65
574.03	43505.88
574.20	44378.90
574.36	43924.83
574.52	44243.15
574.68	44381.24
574.84	44463.16
575.01	44130.80
575.17	44102.71
575.33	44069.95
575.49	44203.36
575.65	44481.88
575.82	44458.48
575.98	44009.09
576.14	44151.87
576.30	44659.76
576.46	44406.98
576.62	44041.86
576.79	44205.70
576.95	43976.33
577.11	44575.50
577.27	44079.31
577.43	44301.66
577.59	44123.78
577.75	44329.75
577.92	43402.89
578.08	44107.40
578.24	43686.10
578.40	44093.35
578.56	43796.10
578.72	44404.64
578.88	44563.80
579.04	44325.07
579.21	44154.21
579.37	44292.30
579.53	44390.60
579.69	44144.84
579.85	44334.43
580.01	44650.40
580.17	44685.51
580.33	44210.38
580.49	44250.17
580.65	44601.25
580.82	44332.09
580.98	44708.91
581.14	44648.06
581.30	44825.94
581.46	44589.55
581.62	44203.36
581.78	44217.40
581.94	44257.19
582.10	44350.81
582.26	44252.51
582.42	44257.19
582.58	44133.14
582.74	44556.78
582.90	44650.40
583.06	44460.82
583.22	44409.32
583.38	44619.97
583.54	44816.58
583.70	44474.86
583.86	44449.11
584.02	44411.67
584.18	44339.11
584.34	44870.41
584.50	44734.66
584.66	44259.53
584.82	44161.23
584.98	44910.20
585.14	44392.94
585.30	44194.00
585.46	44615.29
585.62	44357.83
585.78	44325.07
585.94	44170.59
586.10	44327.41
586.26	44067.61
586.42	44067.61
586.58	44486.56
586.74	44322.72
586.90	44107.40
587.06	43957.60
587.22	44535.71
587.38	43730.57
587.54	44868.07
587.70	44397.62
587.86	44608.27
588.02	44720.62
588.18	44381.24
588.34	44399.96
588.49	44177.61
588.65	43957.60
588.81	44027.82
588.97	44385.92
589.13	44058.24
589.29	44313.36
589.45	44212.72
589.61	44388.26
589.77	44392.94
589.93	44388.26
590.08	44697.21
590.24	44526.35
590.40	44545.08
590.56	45008.50
590.72	44601.25
590.88	44598.91
591.04	44818.92
591.20	45141.91
591.35	44985.10
591.51	44753.38
591.67	44629.34
591.83	44985.10
591.99	44580.18
592.15	44854.03
592.31	44435.07
592.46	44287.62
592.62	44854.03
592.78	45059.99
592.94	44437.41
593.10	44566.14
593.26	44509.97
593.41	44657.42
593.57	44397.62
593.73	44311.02
593.89	45055.31
594.05	44830.62
594.20	44870.41
594.36	45052.97
594.52	44673.81
594.68	44772.11
594.84	44315.70
594.99	44748.70
595.15	44587.21
595.31	45092.76
595.47	45181.70
595.62	44493.58
595.78	45038.93
595.94	44722.96
596.10	44722.96
596.25	45013.18
596.41	45340.86
596.57	45069.36
596.73	45003.82
596.88	44671.46
597.04	45017.86
597.20	44676.15
597.36	44912.54
597.51	44755.72
597.67	44949.99
597.83	44587.21
597.99	44472.52
598.14	44720.62
598.30	44973.39
598.46	44587.21
598.61	44776.79
598.77	44968.71
598.93	44442.09
599.09	44545.08
599.24	45420.44
599.40	45291.71
599.56	45076.38
599.71	45141.91
599.87	45081.06
600.03	45090.42
600.18	44753.38
600.34	44835.30
600.50	44577.84
600.65	44713.59
600.81	44982.76
600.97	44971.05
601.12	44821.26
601.28	45289.37
601.44	44474.86
601.59	44795.51
601.75	44385.92
601.91	44528.69
602.06	44498.26
602.22	44655.08
602.37	44727.64
602.53	45038.93
602.69	44954.67
602.84	45174.68
603.00	45116.17
603.16	44612.95
603.31	44619.97
603.47	44561.46
603.62	44748.70
603.78	44596.57
603.94	44912.54
604.09	45076.38
604.25	44961.69
604.40	44870.41
604.56	44713.59
604.71	44713.59
604.87	44570.82
605.03	44940.63
605.18	44533.37
605.34	44542.74
605.49	44715.93
605.65	44392.94
605.80	44875.09
605.96	44744.02
606.12	44964.03
606.27	45242.56
606.43	44744.02
606.58	44631.68
606.74	44343.79
606.89	44442.09
607.05	44734.66
607.20	44863.39
607.36	44608.27
607.51	44549.76
607.67	44734.66
607.82	44797.85
607.98	44914.88
608.13	44442.09
608.29	44648.06
608.44	44449.11
608.60	44076.97
608.75	44086.33
608.91	44348.47
609.06	44037.18
609.22	44793.17
609.37	43807.81
609.53	44477.20
609.68	44334.43
609.84	44252.51
609.99	44584.86
610.15	44500.61
610.30	44151.87
610.46	44074.63
610.61	44334.43
610.76	44170.59
610.92	44296.98
611.07	44311.02
611.23	44168.25
611.38	44339.11
611.54	44062.93
611.69	44147.18
611.84	44020.80
612.00	43908.45
612.15	43576.09
612.31	44306.34
612.46	43931.86
612.62	44081.65
612.77	43943.56
612.92	44421.03
613.08	43924.83
613.23	44086.33
613.39	43929.51
613.54	43363.11
613.69	43826.53
613.85	43995.05
614.00	44048.88
614.15	44383.58
614.31	43707.16
614.46	44376.56
614.62	43952.92
614.77	43761.00
614.92	43650.99
615.08	44027.82
615.23	43669.72
615.38	43880.36
615.54	43442.68
615.69	43735.25
615.84	43772.70
616.00	43702.48
616.15	42974.58
616.30	43768.02
616.46	43084.58
616.61	43192.25
616.76	43931.86
616.92	43007.34
617.07	43089.26
617.22	43009.68
617.37	43316.29
617.53	43445.02
617.68	43143.09
617.83	43250.76
617.99	43232.04
618.14	43576.09
618.29	42820.10
618.45	43079.90
618.60	43405.23
618.75	43323.32
618.90	43166.50
619.06	43833.55
619.21	43562.05
619.36	43779.72
619.51	43105.65
619.67	42677.33
619.82	43255.44
619.97	43435.66
620.12	43042.45
620.28	42895.00
620.43	42356.67
620.58	42955.85
620.73	42513.49
620.89	42480.72
621.04	43210.97
621.19	42983.94
621.34	42958.19
621.49	43051.81
621.65	42611.79
621.80	42604.77
621.95	42588.39
622.10	42803.72
622.25	42075.81
622.41	42188.16
622.56	42607.11
622.71	42927.77
622.86	42611.79
623.01	42876.27
623.16	42714.78
623.32	42382.42
623.47	42625.84
623.62	42288.80
623.77	42293.48
623.92	42522.85
624.07	42227.95
624.23	42410.51
624.38	42525.19
624.53	42127.30
624.68	42553.28
624.83	41778.56
624.98	41947.08
625.13	42087.51
625.29	42150.71
625.44	42333.27
625.59	41773.88
625.74	41600.68
625.89	41539.83
626.04	42017.30
626.19	42092.19
626.34	42167.09
626.49	42085.17
626.65	42478.38
626.80	42314.55
626.95	41879.21
627.10	41818.35
627.25	42272.42
627.40	41755.16
627.55	41600.68
627.70	41251.94
627.85	41769.20
628.00	41457.91
628.15	41359.61
628.30	41443.87
628.45	41392.37
628.60	41794.95
628.76	41425.14
628.91	41556.21
629.06	41003.85
629.21	41453.23
629.36	41354.93
629.51	41546.85
629.66	41251.94
629.81	40711.28
629.96	41291.73
630.11	41443.87
630.26	41584.30
630.41	41497.70
630.56	41542.17
630.71	41605.36
630.86	41390.03
631.01	41045.97
631.16	41064.70
631.31	40722.98
631.46	40601.27
631.61	40872.78
631.76	40882.14
631.91	40987.46
632.06	40994.48
632.21	41418.12
632.36	41490.68
632.51	40730.00
632.66	40889.16
632.81	40318.07
632.96	40830.65
633.10	40980.44
633.25	40748.73
633.40	40807.24
633.55	40655.11
633.70	40524.04
633.85	40685.53
634.00	40589.57
634.15	40486.59
634.30	41170.02
634.45	40371.90
634.60	40685.53
634.75	40493.61
634.90	40432.75
635.05	40208.06
635.19	39903.79
635.34	40495.95
635.49	40334.45
635.64	40238.49
635.79	40332.11
635.94	40521.69
636.09	40156.57
636.24	40231.47
636.39	39915.50
636.53	39992.73
636.68	39742.30
636.83	40289.98
636.98	40067.63
637.13	39882.73
637.28	40006.78
637.43	40163.59
637.57	40233.81
637.72	39969.33
637.87	39510.58
638.02	40383.60
638.17	39959.97
638.32	40034.86
638.46	39833.58
638.61	39999.76
638.76	39344.41
638.91	40196.36
639.06	39810.17
639.20	39955.29
639.35	40430.41
639.50	39672.08
639.65	39744.64
639.80	39936.56
639.94	39683.78
640.09	39744.64
640.24	39421.64
640.39	39030.77
640.54	39433.35
640.68	39318.66
640.83	39316.32
640.98	39431.01
641.13	39232.06
641.27	39648.68
641.42	39227.38
641.57	39292.91
641.72	39533.99
641.86	39040.14
642.01	38766.29
642.16	39152.48
642.31	38864.60
642.45	39239.08
642.60	38988.64
642.75	38719.48
642.90	38990.98
643.04	38637.56
643.19	38651.61
643.34	38909.07
643.48	38455.00
643.63	39103.33
643.78	38281.80
643.93	38639.90
644.07	38466.70
644.22	38637.56
644.37	38520.54
644.51	38717.14
644.66	38714.80
644.81	38330.95
644.95	39276.53
645.10	38890.34
645.25	38745.23
645.39	38897.36
645.54	38918.43
645.69	38822.47
645.83	38246.69
645.98	38473.73
646.13	38600.12
646.27	38323.93
646.42	38637.56
646.57	38834.17
646.71	38595.43
646.86	38583.73
647.00	39110.35
647.15	38717.14
647.30	38550.96
647.44	37890.93
647.59	38071.15
647.74	38213.93
647.88	38370.74
648.03	38244.35
648.17	38368.40
648.32	37996.26
648.47	37975.19
648.61	37954.13
648.76	38251.38
648.90	38352.02
649.05	37926.04
649.20	38132.01
649.34	37996.26
649.49	38052.43
649.63	37942.42
649.78	37869.87
649.92	37912.00
650.07	38550.96
650.21	37509.43
650.36	37991.58
650.51	37621.77
650.65	38117.96
650.80	37804.33
650.94	38075.84
651.09	37642.84
651.23	37841.78
651.38	37785.61
651.52	37670.92
651.67	37579.64
651.81	37146.64
651.96	37666.24
652.10	37638.15
652.25	37464.96
652.39	37109.19
652.54	37720.07
652.68	37731.78
652.83	37518.79
652.97	37729.44
653.12	37191.11
653.26	37481.34
653.41	37603.05
653.55	37027.28
653.70	36882.16
653.84	37450.91
653.99	37486.02
654.13	37263.67
654.27	37354.95
654.42	37127.92
654.56	36802.58
654.71	37247.29
654.85	37038.98
655.00	37123.24
655.14	36580.23
655.29	36671.51
655.43	36879.82
655.57	36566.19
655.72	36718.32
655.86	36374.27
656.01	36708.96
656.15	36266.60
656.30	36781.52
656.44	36755.77
656.58	36318.09
656.73	36928.97
656.87	36699.60
657.01	36692.58
657.16	36526.40
657.30	36540.44
657.45	36510.02
657.59	36517.04
657.73	36542.78
657.88	36776.84
658.02	36711.30
658.16	36732.37
658.31	36456.18
658.45	36549.81
658.60	36109.78
658.74	36556.83
658.88	36133.19
659.03	36006.80
659.17	36128.51
659.31	36055.95
659.46	35709.55
659.60	35541.03
659.74	36350.86
659.89	35728.28
660.03	35739.98
660.17	35721.26
660.32	35505.93
660.46	35812.54
660.60	35838.28
660.74	35358.47
660.89	35714.23
661.03	35477.84
661.17	35770.41
661.32	35288.26
661.46	35250.81
661.60	35487.20
661.74	35517.63
661.89	35388.90
662.03	35276.55
662.17	35536.35
662.31	34958.24
662.46	35526.99
662.60	35416.99
662.74	35196.98
662.88	35007.39
663.03	34665.67
663.17	34728.87
663.31	34625.89
663.45	34440.98
663.60	34639.93
663.74	34525.24
663.88	34448.00
664.02	34251.40
664.17	34787.38
664.31	34583.76
664.45	34410.56
664.59	34820.15
664.73	34394.17
664.88	34387.15
665.02	33972.88
665.16	34403.53
665.30	34361.40
665.44	34213.95
665.59	34073.52
665.73	33542.22
665.87	34015.01
666.01	33542.22
666.15	33661.58
666.29	34206.93
666.44	34012.66
666.58	33415.83
666.72	33525.83
666.86	33778.61
667.00	33907.34
667.14	33708.40
667.28	33312.84
667.43	33326.89
667.57	33649.88
667.71	32849.42
667.85	33345.61
667.99	33472.00
668.13	33394.76
668.27	32952.40
668.41	33469.66
668.56	32802.61
668.70	33008.58
668.84	33340.93
668.98	32877.51
669.12	32882.19
669.26	32374.29
669.40	32498.34
669.54	32631.75
669.68	33125.60
669.82	32652.81
669.96	32561.53
670.10	32041.93
670.25	32503.02
670.39	32584.94
670.53	31945.97
670.67	32027.89
670.81	32364.93
670.95	32437.48
671.09	32275.99
671.23	31901.50
671.37	32147.26
671.51	32151.94
671.65	31777.45
671.79	31206.36
671.93	31590.21
672.07	31534.04
672.21	32189.39
672.35	31529.36
672.49	31498.93
672.63	31519.99
672.77	31374.88
672.91	31508.29
673.05	31129.12
673.19	31297.64
673.33	31096.36
673.47	31103.38
673.61	30700.81
673.75	30359.09
673.89	30911.46
674.03	30876.35
674.17	30700.81
674.31	30562.72
674.45	30466.75
674.59	30270.15
674.73	30752.30
674.87	30462.07
675.01	30045.46
675.15	30225.68
675.29	30651.66
675.43	30504.20
675.56	30033.75
675.70	29986.94
675.84	30071.20
675.98	28954.77
676.12	29848.85
676.26	29853.53
676.40	29759.91
676.54	29631.18
676.68	29436.92
676.82	28856.46
676.96	29495.43
677.10	29617.14
677.23	29247.33
677.37	29104.56
677.51	28943.06
677.65	28730.08
677.79	28570.92
677.93	28507.72
678.07	28900.94
678.21	28596.67
678.34	28339.21
678.48	28116.86
678.62	28449.21
678.76	28046.64
678.90	27723.65
679.04	27534.06
679.18	27431.08
679.31	27505.98
679.45	27538.74
679.59	27501.29
679.73	27295.33
679.87	27150.21
680.00	26988.72
680.14	27253.20
680.28	27236.81
680.42	27199.37
680.56	27168.94
680.70	27077.66
680.83	27206.39
680.97	27147.87
681.11	26855.31
681.25	26316.98
681.39	26380.18
681.52	26623.59
681.66	26438.69
681.80	26356.77
681.94	26794.45
682.07	26319.32
682.21	26108.68
682.35	25977.61
682.49	25930.80
682.62	26101.65
682.76	25919.09
682.90	25806.75
683.04	25273.10
683.17	25326.94
683.31	25259.06
683.45	25462.69
683.59	25446.30
683.72	25074.16
683.86	25102.25
684.00	24900.96
684.13	25291.83
684.27	24641.16
684.41	24512.43
684.55	24439.87
684.68	24662.22
684.82	24638.82
684.96	24842.45
685.09	24126.24
685.23	24671.59
685.37	24238.59
685.50	24198.80
685.64	24091.13
685.78	23735.37
685.91	23924.96
686.05	23770.48
686.19	23396.00
686.32	23307.05
686.46	23491.96
686.60	23044.91
686.73	23325.78
686.87	23040.23
687.01	22822.56
687.14	22485.53
687.28	23180.67
687.42	22909.16
687.55	22375.52
687.69	22963.00
687.82	22508.93
687.96	22867.03
688.10	22373.18
688.23	22462.12
688.37	22094.66
688.50	22288.92
688.64	21907.41
688.78	22052.53
688.91	21930.82
689.05	21729.53
689.18	21933.16
689.32	21741.24
689.46	21642.93
689.59	21811.45
689.73	21855.92
689.86	21516.54
690.00	21462.71
690.13	21305.90
690.27	21193.55
690.41	21294.19
690.54	20868.22
690.68	20723.10
690.81	20751.19
690.95	20919.71
691.08	20650.55
691.22	20622.46
691.35	20882.26
691.49	20762.89
691.62	20858.85
691.76	20678.63
691.89	20130.95
692.03	20332.23
692.16	20126.27
692.30	19978.81
692.43	19962.43
692.57	19765.82
692.70	19524.75
692.84	19805.61
692.97	19796.25
693.11	19503.68
693.24	19735.40
693.38	19529.43
693.51	19124.52
693.65	19278.99
693.78	19522.41
693.92	19332.82
694.05	18970.04
694.19	18920.89
694.32	18710.24
694.45	18649.39
694.59	18672.79
694.72	18511.30
694.86	18625.98
694.99	18590.88
695.13	18384.91
695.26	18492.57
695.39	18569.81
695.53	18576.83
695.66	18511.30
695.80	18043.19
695.93	18106.38
696.07	18139.15
696.20	17804.46
696.33	17902.76
696.47	17799.77
696.60	18017.44
696.73	17991.70
696.87	17298.90
697.00	17446.35
697.14	17408.90
697.27	17444.01
697.40	17076.55
697.54	17326.99
697.67	17132.72
697.80	17135.06
697.94	16872.92
698.07	16996.97
698.21	16781.64
698.34	16580.36
698.47	16641.21
698.61	16383.75
698.74	16224.59
698.87	16212.89
699.01	15983.52
699.14	15969.48
699.27	15978.84
699.40	15831.38
699.54	16046.71
699.67	15833.72
699.80	15871.17
699.94	15815.00
700.07	15583.29
700.20	15557.54
700.34	15672.23
700.47	15592.65
700.60	15777.55
700.73	16065.44
700.87	15733.08
701.00	15190.08
701.13	15374.98
701.26	15447.54
701.40	14864.74
701.53	15080.07
701.66	15105.82
701.79	15005.17
701.93	14785.16
702.06	14951.34
702.19	14806.23
702.32	14782.82
702.46	14583.88
702.59	14288.97
702.72	14637.71
702.85	14497.28
702.99	14429.40
703.12	14160.24
703.25	14160.24
703.38	14040.87
703.51	14038.53
703.65	14150.88
703.78	14104.07
703.91	13823.20
704.04	13710.86
704.17	14092.37
704.31	13940.23
704.44	13673.41
704.57	13624.26
704.70	13685.11
704.83	13352.76
704.96	13357.44
705.10	13469.78
705.23	13418.29
>>>>>End Processed Spectral Data<<<<<
