SpectraSuite Data File
++++++++++++++++++++++++++++++++++++
Date: Fri Oct 25 10:48:22 EDT 2013
User: price-jones
Dark Spectrum Present: No
Reference Spectrum Present: No
Number of Sampled Component Spectra: 1
Spectrometers: USB2+H05261
Integration Time (usec): 100000 (USB2+H05261)
Spectra Averaged: 1 (USB2+H05261)
Boxcar Smoothing: 0 (USB2+H05261)
Correct for Electrical Dark: No (USB2+H05261)
Strobe/Lamp Enabled: No (USB2+H05261)
Correct for Detector Non-linearity: No (USB2+H05261)
Correct for Stray Light: No (USB2+H05261)
Number of Pixels in Processed Spectrum: 2048
>>>>>Begin Processed Spectral Data<<<<<
365.73	248.10
365.92	248.10
366.12	248.10
366.32	42.13
366.52	14.04
366.72	88.94
366.91	53.83
367.11	56.17
367.31	21.06
367.51	46.81
367.70	42.13
367.90	102.98
368.10	91.28
368.30	39.79
368.49	32.77
368.69	105.32
368.89	14.04
369.09	39.79
369.28	175.54
369.48	32.77
369.68	140.43
369.87	138.09
370.07	98.30
370.27	147.45
370.47	210.65
370.66	437.68
370.86	461.09
371.06	468.11
371.25	442.36
371.45	425.98
371.65	416.62
371.84	465.77
372.04	470.45
372.24	561.73
372.44	514.92
372.63	552.37
372.83	547.69
373.03	561.73
373.22	585.13
373.42	568.75
373.62	491.51
373.81	538.32
374.01	573.43
374.21	507.90
374.40	620.24
374.60	538.32
374.79	603.86
374.99	524.28
375.19	615.56
375.38	657.69
375.58	599.18
375.78	634.29
375.97	599.18
376.17	739.61
376.37	575.77
376.56	641.31
376.76	559.39
376.95	669.39
377.15	748.97
377.35	688.12
377.54	622.58
377.74	601.52
377.93	594.50
378.13	660.03
378.33	711.52
378.52	636.63
378.72	718.54
378.91	730.25
379.11	547.69
379.31	669.39
379.50	685.78
379.70	699.82
379.89	854.30
380.09	683.44
380.28	706.84
380.48	662.37
380.68	723.23
380.87	720.88
381.07	746.63
381.26	800.46
381.46	767.70
381.65	849.61
381.85	753.65
382.04	725.57
382.24	704.50
382.43	718.54
382.63	751.31
382.83	748.97
383.02	725.57
383.22	734.93
383.41	767.70
383.61	835.57
383.80	835.57
384.00	772.38
384.19	772.38
384.39	802.80
384.58	814.51
384.78	777.06
384.97	905.79
385.17	814.51
385.36	830.89
385.56	828.55
385.75	741.95
385.95	861.32
386.14	854.30
386.34	884.72
386.53	880.04
386.72	833.23
386.92	912.81
387.11	856.64
387.31	936.21
387.50	844.93
387.70	854.30
387.89	926.85
388.09	849.61
388.28	950.26
388.48	966.64
388.67	889.40
388.86	884.72
389.06	966.64
389.25	997.07
389.45	1046.22
389.64	978.34
389.84	1057.92
390.03	1001.75
390.22	1027.50
390.42	1104.73
390.61	1104.73
390.81	1086.01
391.00	1125.80
391.19	1078.99
391.39	1036.86
391.58	1034.52
391.78	1001.75
391.97	990.05
392.16	1151.54
392.36	1027.50
392.55	1078.99
392.75	1034.52
392.94	1062.60
393.13	1046.22
393.33	961.96
393.52	1018.13
393.71	1053.24
393.91	1139.84
394.10	1025.15
394.29	1179.63
394.49	1219.42
394.68	1151.54
394.88	1200.69
395.07	1245.16
395.26	1188.99
395.46	1282.61
395.65	1268.57
395.84	1144.52
396.04	1291.98
396.23	1177.29
396.42	1261.55
396.62	1212.40
396.81	1186.65
397.00	1310.70
397.19	1270.91
397.39	1277.93
397.58	1296.66
397.77	1397.30
397.97	1390.28
398.16	1383.26
398.35	1404.32
398.55	1462.83
398.74	1521.35
398.93	1572.84
399.12	1547.09
399.32	1467.52
399.51	1582.20
399.70	1596.25
399.90	1549.43
400.09	1533.05
400.28	1643.06
400.47	1551.78
400.67	1631.35
400.86	1692.21
401.05	1600.93
401.24	1624.33
401.44	1753.06
401.63	1762.42
401.82	1699.23
402.01	1668.80
402.21	1724.97
402.40	1703.91
402.59	1734.34
402.78	1755.40
402.97	1802.21
403.17	1811.57
403.36	1790.51
403.55	1820.94
403.74	1860.73
403.93	1886.47
404.13	1788.17
404.32	1888.81
404.51	1987.11
404.70	1949.67
404.89	1926.26
405.09	1888.81
405.28	1956.69
405.47	1952.01
405.66	1947.33
405.85	1996.48
406.05	2073.71
406.24	1961.37
406.43	2019.88
406.62	2174.36
406.81	2038.61
407.00	2120.53
407.20	2073.71
407.39	2190.74
407.58	2087.76
407.77	2172.02
407.96	2150.95
408.15	2275.00
408.34	2328.83
408.54	2249.25
408.73	2246.91
408.92	2188.40
409.11	2314.79
409.30	2216.49
409.49	2167.34
409.68	2279.68
409.87	2246.91
410.07	2392.03
410.26	2326.49
410.45	2354.58
410.64	2459.90
410.83	2523.10
411.02	2506.71
411.21	2544.16
411.40	2499.69
411.59	2567.57
411.78	2537.14
411.98	2581.61
412.17	2633.10
412.36	2799.28
412.55	2722.04
412.74	2806.30
412.93	2836.73
413.12	2729.06
413.31	2911.63
413.50	2754.81
413.69	2752.47
413.88	2939.71
414.07	2864.82
414.26	2946.73
414.45	2993.55
414.64	2963.12
414.83	3054.40
415.02	3000.57
415.22	3101.21
415.41	3052.06
415.60	2988.86
415.79	3208.87
415.98	3332.92
416.17	3323.56
416.36	3129.30
416.55	3187.81
416.74	3353.99
416.93	3171.43
417.12	3236.96
417.31	3295.47
417.50	3353.99
417.69	3449.95
417.88	3506.12
418.07	3449.95
418.26	3400.80
418.45	3403.14
418.64	3602.08
418.83	3637.19
419.02	3431.23
419.21	3555.27
419.39	3599.74
419.58	3417.18
419.77	3536.55
419.96	3618.47
420.15	3660.60
420.34	3672.30
420.53	3950.82
420.72	3784.65
420.91	3815.07
421.10	3922.74
421.29	3857.20
421.48	3723.79
421.67	3892.31
421.86	3829.12
422.05	3728.47
422.24	3691.02
422.43	3777.62
422.61	3906.35
422.80	3983.59
422.99	3899.33
423.18	3896.99
423.37	3941.46
423.56	4056.15
423.75	3866.56
423.94	3728.47
424.13	3728.47
424.32	3749.54
424.50	3847.84
424.69	3995.29
424.88	3974.23
425.07	3899.33
425.26	3737.84
425.45	3810.39
425.64	3983.59
425.83	3850.18
426.01	4060.83
426.20	3918.06
426.39	4088.92
426.58	3990.61
426.77	3948.48
426.96	3955.51
427.15	3941.46
427.33	4018.70
427.52	4058.49
427.71	4156.79
427.90	4079.55
428.09	4119.34
428.28	4189.56
428.46	3988.27
428.65	4203.60
428.84	4170.83
429.03	4198.92
429.22	4168.49
429.40	4074.87
429.59	4170.83
429.78	3974.23
429.97	3904.01
430.16	3960.19
430.34	4194.24
430.53	4166.15
430.72	4140.41
430.91	4358.08
431.10	4400.21
431.28	4428.29
431.47	4779.37
431.66	4692.77
431.85	4716.18
432.03	4601.49
432.22	4720.86
432.41	4631.92
432.60	4702.14
432.79	4594.47
432.97	4732.56
433.16	4711.50
433.35	4676.39
433.54	4669.37
433.72	4865.97
433.91	4552.34
434.10	4720.86
434.28	4765.33
434.47	4847.25
434.66	4938.53
434.85	4999.38
435.03	4898.74
435.22	4865.97
435.41	5167.90
435.59	5078.96
435.78	5020.45
435.97	5097.69
436.16	5041.51
436.34	4985.34
436.53	5074.28
436.72	5224.08
436.90	5135.14
437.09	5266.21
437.28	5163.22
437.46	5214.71
437.65	5252.16
437.84	5203.01
438.02	5043.85
438.21	5228.76
438.40	5109.39
438.58	5341.10
438.77	5371.53
438.96	5413.66
439.14	5479.19
439.33	5633.67
439.52	5647.71
439.70	5689.84
439.89	5652.39
440.08	5542.39
440.26	5617.29
440.45	5729.63
440.63	5865.38
440.82	5987.09
441.01	5797.51
441.19	5771.76
441.38	5858.36
441.57	6087.73
441.75	6183.70
441.94	6260.93
442.12	6190.72
442.31	6387.32
442.50	6380.30
442.68	6237.53
442.87	6380.30
443.05	6143.91
443.24	6345.19
443.43	6310.08
443.61	6263.27
443.80	6635.42
443.98	6270.30
444.17	6232.85
444.35	6499.67
444.54	6677.55
444.73	6509.03
444.91	6469.24
445.10	6403.71
445.28	6296.04
445.47	6434.13
445.65	6317.11
445.84	6553.50
446.02	6480.94
446.21	6509.03
446.39	6527.75
446.58	6654.14
446.77	6661.16
446.95	6497.33
447.14	6658.82
447.32	6663.51
447.51	6574.56
447.69	6637.76
447.88	6562.86
448.06	6590.95
448.25	6677.55
448.43	6633.08
448.62	6637.76
448.80	6754.79
448.99	6686.91
449.17	6839.05
449.36	6705.63
449.54	7012.24
449.73	7059.06
449.91	7009.90
450.10	7138.63
450.28	7391.41
450.46	7066.08
450.65	7077.78
450.83	7337.58
451.02	7126.93
451.20	7159.70
451.39	7178.42
451.57	7117.57
451.76	7007.56
451.94	7307.15
452.13	7162.04
452.31	7227.57
452.49	7131.61
452.68	7290.77
452.86	7143.32
453.05	7176.08
453.23	7389.07
453.42	7325.88
453.60	7431.20
453.78	7262.68
453.97	7492.05
454.15	7323.54
454.34	7236.94
454.52	7433.54
454.70	7510.78
454.89	7578.65
455.07	7688.66
455.26	7456.95
455.44	7611.42
455.62	7669.94
455.81	7812.71
455.99	7826.75
456.17	7779.94
456.36	7854.84
456.54	7843.14
456.73	7805.69
456.91	8219.96
457.09	8098.25
457.28	8072.51
457.46	7960.16
457.64	8241.03
457.83	8215.28
458.01	8084.21
458.19	8215.28
458.38	8133.36
458.56	8201.24
458.74	8269.11
458.93	8189.53
459.11	8044.42
459.29	8105.28
459.48	8421.25
459.66	8301.88
459.84	8360.39
460.03	8367.42
460.21	8442.31
460.39	8407.20
460.57	8355.71
460.76	8444.65
460.94	8702.11
461.12	8545.30
461.31	8582.74
461.49	8578.06
461.67	8751.26
461.85	8720.84
462.04	8758.28
462.22	9137.45
462.40	8929.14
462.59	8772.33
462.77	8807.44
462.95	8896.38
463.13	8798.07
463.32	8870.63
463.50	9139.79
463.68	9046.17
463.86	8908.08
464.05	8784.03
464.23	8727.86
464.41	8959.57
464.59	8982.98
464.78	9008.72
464.96	9029.79
465.14	9015.74
465.32	9158.52
465.50	9188.94
465.69	9294.27
465.87	9118.73
466.05	9228.73
466.23	9179.58
466.41	9444.06
466.60	9205.33
466.78	9256.82
466.96	9186.60
467.14	9137.45
467.32	9341.08
467.51	9362.14
467.69	9111.71
467.87	9394.91
468.05	9589.17
468.23	9514.28
468.41	9387.89
468.60	9390.23
468.78	9535.34
468.96	9516.62
469.14	9668.75
469.32	9830.25
469.50	9394.91
469.69	9694.50
469.87	9540.02
470.05	9853.66
470.23	9774.08
470.41	9764.72
470.59	9741.31
470.77	9916.85
470.95	9846.63
471.14	10148.56
471.32	10078.35
471.50	10239.84
471.68	10310.06
471.86	10061.96
472.04	10352.19
472.22	10724.33
472.40	10417.72
472.58	10218.78
472.77	10305.38
472.95	10621.35
473.13	10888.17
473.31	10539.43
473.49	10546.45
473.67	10619.01
473.85	10682.20
474.03	10785.19
474.21	10682.20
474.39	10986.47
474.57	11098.82
474.75	11061.37
474.93	10857.75
475.12	11042.65
475.30	11126.91
475.48	11353.94
475.66	11389.05
475.84	11613.74
476.02	11449.90
476.20	11370.32
476.38	11564.59
476.56	11698.00
476.74	11910.99
476.92	11578.63
477.10	11793.96
477.28	12241.00
477.46	11901.62
477.64	12166.10
477.82	12343.99
478.00	12709.11
478.18	12367.39
478.36	12512.50
478.54	12664.64
478.72	12856.56
478.90	12908.05
479.08	12884.65
479.26	12973.59
479.44	13231.05
479.62	13310.63
479.80	13317.65
479.98	13331.69
480.16	13554.04
480.34	13554.04
480.52	13750.65
480.70	13961.30
480.88	13659.37
481.06	13741.29
481.24	14057.26
481.41	14235.14
481.59	14366.21
481.77	14377.91
481.95	14342.80
482.13	14574.52
482.31	14544.09
482.49	14614.30
482.67	14757.08
482.85	14815.59
483.03	15044.96
483.21	15344.55
483.39	15150.29
483.57	15454.56
483.74	15452.22
483.92	15578.61
484.10	15346.89
484.28	15819.68
484.46	16044.37
484.64	16196.51
484.82	16166.08
485.00	16152.04
485.18	16526.52
485.35	16582.70
485.53	16381.41
485.71	16240.98
485.89	16706.74
486.07	16365.03
486.25	16884.62
486.43	17076.55
486.61	17156.13
486.78	17369.12
486.96	17432.31
487.14	17818.50
487.32	17687.43
487.50	17837.22
487.68	18033.83
487.85	18321.71
488.03	18338.10
488.21	18555.77
488.39	18712.58
488.57	18633.00
488.75	18941.96
488.92	19080.05
489.10	19276.65
489.28	19337.51
489.46	19824.34
489.64	19576.24
489.81	20081.80
489.99	20046.69
490.17	20142.65
490.35	20147.33
490.53	20126.27
490.70	20269.04
490.88	20704.38
491.06	20849.49
491.24	20617.78
491.41	20786.30
491.59	20938.43
491.77	20751.19
491.95	21120.99
492.13	21298.88
492.30	21298.88
492.48	21490.80
492.66	21699.11
492.84	21785.71
493.01	22073.59
493.19	21785.71
493.37	22225.73
493.54	22270.20
493.72	22757.03
493.90	22504.25
494.08	22860.01
494.25	23384.29
494.43	23288.33
494.61	23335.14
494.79	23468.55
494.96	22874.06
495.14	23349.18
495.32	23393.65
495.49	23798.57
495.67	24130.92
495.85	23920.28
496.02	24273.70
496.20	24348.59
496.38	24393.06
496.55	24554.56
496.73	25113.95
496.91	24552.22
497.09	25076.50
497.26	24994.58
497.44	24847.13
497.62	24959.47
497.79	25261.40
497.97	25247.36
498.14	25076.50
498.32	25832.49
498.50	25413.54
498.67	26047.82
498.85	26103.99
499.03	26679.77
499.20	26366.13
499.38	26279.54
499.56	26623.59
499.73	26635.30
499.91	26263.15
500.08	26572.10
500.26	26501.89
500.44	26621.25
500.61	26600.19
500.79	26565.08
500.97	26993.40
501.14	27309.37
501.32	27260.22
501.49	27295.33
501.67	27194.68
501.84	27356.18
502.02	27517.68
502.20	27784.50
502.37	27936.63
502.55	27555.13
502.72	28147.28
502.90	28020.89
503.07	27967.06
503.25	28060.68
503.43	28404.74
503.60	28102.81
503.78	28119.20
503.95	28463.25
504.13	28723.05
504.30	28636.45
504.48	28987.53
504.65	29120.95
504.83	29006.26
505.01	29046.05
505.18	29083.50
505.36	29504.79
505.53	29273.08
505.71	29675.65
505.88	29570.33
506.06	29738.85
506.23	29741.19
506.41	29734.17
506.58	29823.11
506.76	30066.52
506.93	30174.19
507.11	30251.42
507.28	30256.11
507.46	29975.24
507.63	30202.27
507.81	30235.04
507.98	30307.60
508.16	30754.64
508.33	30843.58
508.50	30866.98
508.68	30958.27
508.85	31325.73
509.03	30988.69
509.20	31112.74
509.38	31349.14
509.55	31374.88
509.73	31536.38
509.90	31489.57
510.08	31459.14
510.25	31545.74
510.42	31409.99
510.60	31723.62
510.77	31817.24
510.95	32088.74
511.12	32016.19
511.30	31945.97
511.47	32250.24
511.64	32608.34
511.82	32418.76
511.99	32458.55
512.17	32503.02
512.34	32259.60
512.51	33156.03
512.69	32783.88
512.86	32959.42
513.04	33076.45
513.21	32924.32
513.38	33167.73
513.56	33010.92
513.73	33067.09
513.90	33013.26
514.08	32884.53
514.25	33338.59
514.43	33172.41
514.60	33362.00
514.77	33710.74
514.95	33614.77
515.12	33797.34
515.29	33572.64
515.47	34298.21
515.64	34223.31
515.81	33652.22
515.99	33947.13
516.16	33799.68
516.33	33525.83
516.51	33792.65
516.68	33596.05
516.85	33818.40
517.03	33706.05
517.20	34134.37
517.37	34424.60
517.54	34466.73
517.72	34656.31
517.89	34265.44
518.06	34436.30
518.24	34059.48
518.41	34284.17
518.58	34508.86
518.75	34710.14
518.93	34913.77
519.10	35185.27
519.27	35475.50
519.45	35115.06
519.62	35318.68
519.79	35803.17
519.96	35211.02
520.14	35721.26
520.31	35304.64
520.48	35810.20
520.65	35456.78
520.83	36460.87
521.00	35810.20
521.17	35789.13
521.34	36236.17
521.52	36484.27
521.69	35896.80
521.86	36503.00
522.03	36556.83
522.20	36622.36
522.38	36416.40
522.55	36603.64
522.72	36486.61
522.89	36533.42
523.07	36964.08
523.24	36947.70
523.41	36950.04
523.58	36830.67
523.75	37467.30
523.92	37420.48
524.10	37282.39
524.27	37436.87
524.44	37528.15
524.61	37628.79
524.78	37600.71
524.96	37670.92
525.13	37727.10
525.30	38094.56
525.47	38139.03
525.64	37715.39
525.81	37745.82
525.98	37834.76
526.16	37640.50
526.33	37570.28
526.50	38099.24
526.67	37460.27
526.84	38045.41
527.01	37851.14
527.18	37846.46
527.36	38220.95
527.53	38132.01
527.70	38382.45
527.87	38691.40
528.04	38813.10
528.21	38651.61
528.38	38799.06
528.55	38923.11
528.72	38773.31
528.89	39213.34
529.07	38794.38
529.24	39056.52
529.41	38817.78
529.58	38562.67
529.75	39072.90
529.92	39257.81
530.09	39463.77
530.26	39395.90
530.43	39487.18
530.60	39625.27
530.77	39433.35
530.94	39962.31
531.11	39068.22
531.28	39449.73
531.46	39789.11
531.63	39906.13
531.80	39533.99
531.97	39962.31
532.14	39487.18
532.31	39344.41
532.48	39913.16
532.65	40177.64
532.82	39938.90
532.99	40126.14
533.16	40116.78
533.33	39761.02
533.50	40552.12
533.67	39878.05
533.84	39913.16
534.01	40416.37
534.18	40304.02
534.35	40711.28
534.52	40219.77
534.69	40254.87
534.86	40662.13
535.03	40392.97
535.20	40737.02
535.37	41151.30
535.54	41057.68
535.71	40678.51
535.88	40704.26
536.05	40905.54
536.22	40804.90
536.38	40959.38
536.55	40971.08
536.72	41031.93
536.89	40624.68
537.06	40982.78
537.23	41188.75
537.40	41212.15
537.57	41680.26
537.74	41476.63
537.91	41804.31
538.08	41598.34
538.25	41273.01
538.42	41406.42
538.59	41846.44
538.75	41429.82
538.92	41399.40
539.09	41600.68
539.26	41804.31
539.43	41455.57
539.60	41366.63
539.77	41792.61
539.94	41773.88
540.11	41371.31
540.28	42061.77
540.44	41811.33
540.61	41717.71
540.78	41462.59
540.95	41654.51
541.12	41808.99
541.29	41982.19
541.46	42031.34
541.62	42113.26
541.79	42328.59
541.96	41937.72
542.13	42375.40
542.30	42471.36
542.47	42054.75
542.63	42377.74
542.80	42155.39
542.97	42714.78
543.14	42887.98
543.31	42848.19
543.48	43007.34
543.64	43545.67
543.81	43592.48
543.98	42948.83
544.15	42506.47
544.32	43316.29
544.48	43257.78
544.65	42719.46
544.82	43491.83
544.99	43140.75
545.16	43096.28
545.32	43168.84
545.49	43353.74
545.66	43269.48
545.83	43576.09
546.00	43491.83
546.16	43885.04
546.33	43517.58
546.50	42920.74
546.67	42967.55
546.83	43227.35
547.00	43098.62
547.17	43934.20
547.34	43681.42
547.50	43395.87
547.67	43988.03
547.84	43796.10
548.00	43894.41
548.17	44079.31
548.34	43749.29
548.51	43908.45
548.67	44194.00
548.84	43894.41
549.01	44058.24
549.18	44062.93
549.34	44060.58
549.51	44727.64
549.68	44217.40
549.84	44486.56
550.01	44168.25
550.18	43873.34
550.34	44472.52
550.51	44378.90
550.68	43943.56
550.84	44142.50
551.01	44360.17
551.18	44189.31
551.34	44140.16
551.51	44299.32
551.68	44715.93
551.84	44715.93
552.01	44493.58
552.18	44334.43
552.34	44011.43
552.51	44531.03
552.68	44524.01
552.84	44446.77
553.01	44973.39
553.18	44861.05
553.34	44432.73
553.51	44641.04
553.67	45111.49
553.84	45436.82
554.01	45591.30
554.17	45710.66
554.34	45207.45
554.51	45443.84
554.67	45434.48
554.84	44954.67
555.00	44825.94
555.17	44835.30
555.33	45212.13
555.50	44999.14
555.67	45074.04
555.83	45214.47
556.00	45034.25
556.16	45694.28
556.33	45296.39
556.50	45272.98
556.66	45556.19
556.83	45036.59
556.99	44924.24
557.16	45221.49
557.32	45364.26
557.49	45296.39
557.65	45170.00
557.82	44982.76
557.98	45031.91
558.15	45738.75
558.32	45212.13
558.48	45563.21
558.65	45294.05
558.81	45319.79
558.98	45483.63
559.14	45448.52
559.31	45457.88
559.47	45411.07
559.64	45375.97
559.80	45832.37
559.97	45595.98
560.13	45392.35
560.30	45619.38
560.46	45518.74
560.63	46108.55
560.79	45923.65
560.96	45567.89
561.12	45780.88
561.29	45684.92
561.45	45509.38
561.61	46129.62
561.78	45673.21
561.94	45818.33
562.11	45361.92
562.27	46052.38
562.44	45518.74
562.60	45862.80
562.77	45977.48
562.93	45937.69
563.10	46295.80
563.26	45947.06
563.42	46419.84
563.59	46026.63
563.75	46103.87
563.92	45703.64
564.08	45752.79
564.24	46377.72
564.41	46157.70
564.57	46038.34
564.74	45818.33
564.90	46258.35
565.07	46021.95
565.23	46003.23
565.39	45949.40
565.56	46277.07
565.72	45858.12
565.88	46246.65
566.05	46028.98
566.21	46190.47
566.38	45757.47
566.54	46150.68
566.70	46600.07
566.87	46562.62
567.03	46153.02
567.19	46340.27
567.36	45977.48
567.52	46188.13
567.68	46618.79
567.85	46335.59
568.01	46143.66
568.17	45818.33
568.34	46101.53
568.50	46213.88
568.66	46279.41
568.83	46326.22
568.99	46185.79
569.15	46052.38
569.32	46113.23
569.48	46206.86
569.64	46281.75
569.81	46464.32
569.97	45958.76
570.13	45909.61
570.30	46057.06
570.46	46038.34
570.62	46026.63
570.78	45942.38
570.95	46185.79
571.11	46642.20
571.27	46403.46
571.43	46101.53
571.60	46319.20
571.76	46218.56
571.92	46160.05
572.09	46543.89
572.25	46628.15
572.41	46323.88
572.57	46670.28
572.74	47164.14
572.90	46270.05
573.06	46445.59
573.22	46394.10
573.38	46216.22
573.55	46457.29
573.71	46588.36
573.87	46380.06
574.03	46405.80
574.20	46607.09
574.36	46639.86
574.52	46316.86
574.68	46291.12
574.84	46391.76
575.01	46291.12
575.17	46354.31
575.33	46106.21
575.49	46351.97
575.65	46663.26
575.82	46857.52
575.98	46689.01
576.14	46660.92
576.30	46560.28
576.46	46403.46
576.62	46127.28
576.79	46471.34
576.95	45972.80
577.11	46504.10
577.27	46681.98
577.43	46454.95
577.59	46557.94
577.75	46366.01
577.92	45986.85
578.08	46543.89
578.24	46316.86
578.40	46155.36
578.56	46260.69
578.72	46291.12
578.88	46426.87
579.04	46658.58
579.21	46307.50
579.37	46417.50
579.53	46295.80
579.69	46241.96
579.85	46810.71
580.01	46653.90
580.17	46735.82
580.33	46717.09
580.49	46841.14
580.65	46824.76
580.82	46663.26
580.98	46302.82
581.14	46417.50
581.30	46974.55
581.46	46618.79
581.62	46951.15
581.78	46307.50
581.94	47061.15
582.10	46562.62
582.26	46604.75
582.42	46443.25
582.58	46841.14
582.74	46349.63
582.90	46719.43
583.06	46632.83
583.22	46335.59
583.38	46703.05
583.54	46824.76
583.70	46218.56
583.86	46602.41
584.02	46403.46
584.18	47004.98
584.34	46646.88
584.50	46417.50
584.66	46176.43
584.82	46466.66
584.98	46714.75
585.14	46218.56
585.30	46497.08
585.46	46731.14
585.62	46298.14
585.78	46651.56
585.94	46199.83
586.10	46232.60
586.26	46560.28
586.42	46777.95
586.58	46791.99
586.74	46471.34
586.90	46820.08
587.06	46773.27
587.22	47016.68
587.38	46494.74
587.54	46635.17
587.70	46698.37
587.86	46892.63
588.02	46639.86
588.18	46948.81
588.34	46604.75
588.49	46326.22
588.65	45893.22
588.81	46026.63
588.97	46195.15
589.13	46583.68
589.29	46429.21
589.45	46436.23
589.61	46492.40
589.77	46899.65
589.93	46611.77
590.08	46520.49
590.24	47274.14
590.40	47007.32
590.56	47173.50
590.72	46658.58
590.88	46515.81
591.04	46803.69
591.20	46925.40
591.35	46897.31
591.51	46997.96
591.67	46890.29
591.83	46717.09
591.99	46433.89
592.15	46438.57
592.31	46937.10
592.46	47002.64
592.62	46445.59
592.78	47012.00
592.94	47105.62
593.10	47030.72
593.26	47129.03
593.41	46333.24
593.57	47007.32
593.73	46309.84
593.89	47269.46
594.05	46625.81
594.20	46808.37
594.36	47126.69
594.52	47023.70
594.68	47026.04
594.84	46958.17
594.99	47550.32
595.15	46745.18
595.31	46873.91
595.47	47203.92
595.62	46822.42
595.78	46611.77
595.94	47276.48
596.10	47295.21
596.25	47100.94
596.41	46815.40
596.57	46918.38
596.73	46918.38
596.88	46398.78
597.04	46742.84
597.20	46925.40
597.36	47199.24
597.51	47150.09
597.67	46976.89
597.83	46967.53
597.99	46784.97
598.14	46817.74
598.30	46892.63
598.46	47110.30
598.61	46770.93
598.77	46522.83
598.93	46677.30
599.09	46553.26
599.24	47547.98
599.40	47086.90
599.56	47246.05
599.71	47164.14
599.87	47318.61
600.03	46784.97
600.18	46974.55
600.34	47093.92
600.50	46808.37
600.65	46759.22
600.81	47093.92
600.97	47398.19
601.12	47147.75
601.28	46852.84
601.44	46918.38
601.59	47002.64
601.75	46511.13
601.91	46920.72
602.06	46784.97
602.22	46904.34
602.37	46911.36
602.53	46653.90
602.69	46976.89
602.84	46878.59
603.00	47035.41
603.16	46965.19
603.31	46644.54
603.47	46700.71
603.62	46632.83
603.78	47189.88
603.94	46794.33
604.09	46972.21
604.25	47091.58
604.40	46597.73
604.56	46927.74
604.71	46321.54
604.87	46478.36
605.03	47009.66
605.18	46539.21
605.34	46831.78
605.49	46520.49
605.65	46843.48
605.80	47070.51
605.96	46588.36
606.12	47035.41
606.27	47122.01
606.43	47082.22
606.58	46939.44
606.74	46796.67
606.89	46323.88
607.05	46611.77
607.20	46733.48
607.36	46782.63
607.51	47161.79
607.67	46396.44
607.82	46754.54
607.98	46841.14
608.13	46513.47
608.29	46967.53
608.44	46536.87
608.60	46134.30
608.75	46209.20
608.91	46045.36
609.06	46033.66
609.22	46983.91
609.37	45937.69
609.53	46733.48
609.68	46562.62
609.84	46312.18
609.99	46309.84
610.15	45933.01
610.30	46281.75
610.46	46169.41
610.61	46415.16
610.76	46164.73
610.92	46260.69
611.07	46204.52
611.23	45750.45
611.38	46344.95
611.54	45680.24
611.69	46078.13
611.84	45642.79
612.00	46199.83
612.15	45998.55
612.31	46141.32
612.46	46012.59
612.62	46263.03
612.77	46239.62
612.92	46358.99
613.08	45930.67
613.23	46129.62
613.39	45951.74
613.54	45724.71
613.69	45750.45
613.85	45897.91
614.00	46043.02
614.15	46045.36
614.31	46068.76
614.46	46518.15
614.62	46237.28
614.77	46010.25
614.92	46167.07
615.08	45755.13
615.23	45635.77
615.38	45612.36
615.54	45193.40
615.69	45902.59
615.84	45170.00
616.00	45263.62
616.15	45338.52
616.30	45478.95
616.46	44928.92
616.61	45085.74
616.76	45942.38
616.92	45188.72
617.07	45003.82
617.22	45280.00
617.37	45177.02
617.53	45453.20
617.68	45581.93
617.83	45785.56
617.99	45160.64
618.14	45078.72
618.29	45808.96
618.45	45104.46
618.60	45265.96
618.75	45504.70
618.90	45172.34
619.06	45453.20
619.21	45242.56
619.36	45244.90
619.51	44896.16
619.67	45059.99
619.82	45221.49
619.97	45013.18
620.12	44847.00
620.28	44559.12
620.43	44844.66
620.58	44851.69
620.73	44921.90
620.89	44687.85
621.04	44856.37
621.19	45001.48
621.34	44594.23
621.49	44601.25
621.65	44545.08
621.80	44767.43
621.95	44053.56
622.10	44914.88
622.25	44561.46
622.41	44648.06
622.56	44484.22
622.71	44816.58
622.86	44577.84
623.01	44788.49
623.16	44376.56
623.32	44884.45
623.47	44458.48
623.62	44680.83
623.77	44179.95
623.92	44334.43
624.07	44121.44
624.23	43920.15
624.38	44051.22
624.53	43952.92
624.68	44184.63
624.83	43959.94
624.98	44086.33
625.13	44208.04
625.29	44041.86
625.44	44041.86
625.59	43936.54
625.74	43835.89
625.89	43438.00
626.04	43622.90
626.19	43585.46
626.34	43922.49
626.49	43697.80
626.65	43749.29
626.80	44023.14
626.95	43688.44
627.10	43674.40
627.25	43414.60
627.40	43241.40
627.55	42960.53
627.70	43278.85
627.85	43405.23
628.00	43061.18
628.15	43782.06
628.30	43154.80
628.45	43440.34
628.60	43461.41
628.76	43709.50
628.91	43555.03
629.06	43304.59
629.21	43173.52
629.36	42969.90
629.51	42822.44
629.66	43075.22
629.81	42962.87
629.96	43063.52
630.11	43213.31
630.26	43140.75
630.41	43157.14
630.56	43351.40
630.71	43388.85
630.86	43124.37
631.01	42677.33
631.16	42775.63
631.31	42429.23
631.46	42227.95
631.61	42871.59
631.76	42993.30
631.91	42768.61
632.06	42974.58
632.21	42773.29
632.36	43171.18
632.51	42705.41
632.66	43175.86
632.81	42443.27
632.96	42506.47
633.10	42340.29
633.25	42026.66
633.40	42557.96
633.55	42946.49
633.70	42759.25
633.85	42368.38
634.00	42492.43
634.15	42351.99
634.30	42344.97
634.45	42302.84
634.60	42682.01
634.75	42068.79
634.90	42913.72
635.05	42246.67
635.19	42043.04
635.34	42848.19
635.49	42131.98
635.64	41977.51
635.79	42082.83
635.94	41883.89
636.09	42433.91
636.24	42071.13
636.39	42073.47
636.53	41687.28
636.68	41567.91
636.83	41488.34
636.98	41968.15
637.13	41174.70
637.28	41778.56
637.43	42080.49
637.57	42094.53
637.72	42225.60
637.87	42043.04
638.02	41911.97
638.17	41516.42
638.32	41024.91
638.46	41048.32
638.61	41619.41
638.76	41518.76
638.91	41504.72
639.06	41385.35
639.20	41638.13
639.35	41968.15
639.50	41521.10
639.65	41478.97
639.80	41429.82
639.94	41631.11
640.09	41488.34
640.24	41523.44
640.39	41158.32
640.54	40811.92
640.68	41120.87
640.83	41289.39
640.98	40992.14
641.13	41118.53
641.27	41574.94
641.42	41546.85
641.57	40959.38
641.72	41116.19
641.86	40818.94
642.01	41191.09
642.16	40950.01
642.31	40299.34
642.45	40884.48
642.60	40512.33
642.75	40678.51
642.90	40769.79
643.04	41013.21
643.19	40823.62
643.34	40648.08
643.48	40194.02
643.63	40935.97
643.78	40615.32
643.93	40629.36
644.07	40659.79
644.22	40435.10
644.37	40144.87
644.51	40163.59
644.66	40236.15
644.81	40732.34
644.95	40692.55
645.10	40601.27
645.25	40690.21
645.39	40428.07
645.54	40385.94
645.69	40411.69
645.83	40388.28
645.98	40514.67
646.13	40657.45
646.27	40341.47
646.42	40320.41
646.57	39789.11
646.71	40217.43
646.86	39971.67
647.00	40608.29
647.15	40196.36
647.30	40156.57
647.44	39997.41
647.59	40353.18
647.74	40266.58
647.88	40046.57
648.03	39854.64
648.17	39810.17
648.32	39388.88
648.47	39798.47
648.61	39562.08
648.76	39810.17
648.90	39634.63
649.05	39679.10
649.20	39997.41
649.34	40116.78
649.49	39342.06
649.63	39358.45
649.78	39800.81
649.92	39629.95
650.07	39636.97
650.21	39089.29
650.36	39730.59
650.51	39428.66
650.65	40151.89
650.80	40353.18
650.94	39763.36
651.09	39304.62
651.23	39440.37
651.38	39084.61
651.52	38909.07
651.67	39070.56
651.81	39110.35
651.96	39112.69
652.10	39349.09
652.25	38979.28
652.39	39213.34
652.54	39634.63
652.68	39152.48
652.83	38958.22
652.97	39342.06
653.12	38794.38
653.26	39061.20
653.41	38972.26
653.55	38862.26
653.70	38925.45
653.84	38862.26
653.99	39042.48
654.13	38946.51
654.27	38862.26
654.42	38621.18
654.56	38820.13
654.71	38876.30
654.85	38948.85
655.00	38389.47
655.14	38548.62
655.29	38132.01
655.43	38394.15
655.57	38010.30
655.72	37958.81
655.86	37839.44
656.01	38183.50
656.15	38026.68
656.30	37937.74
656.44	37947.11
656.58	37848.80
656.73	38115.62
656.87	38014.98
657.01	37736.46
657.16	37794.97
657.30	37368.99
657.45	37710.71
657.59	37703.69
657.73	37794.97
657.88	37937.74
658.02	37937.74
658.16	37942.42
658.31	38005.62
658.45	38209.25
658.60	37865.19
658.74	37944.76
658.88	37699.01
659.03	37654.54
659.17	37446.23
659.31	37921.36
659.46	37425.17
659.60	37591.34
659.74	37048.34
659.89	37184.09
660.03	37312.82
660.17	37701.35
660.32	37361.97
660.46	37411.12
660.60	37141.96
660.74	37092.81
660.89	37481.34
661.03	36891.52
661.17	36807.26
661.32	36540.44
661.46	36968.76
661.60	36739.39
661.74	36952.38
661.89	36683.22
662.03	36807.26
662.17	36952.38
662.31	36517.04
662.46	36528.74
662.60	36720.66
662.74	36147.23
662.88	36699.60
663.03	36383.63
663.17	36669.17
663.31	36168.30
663.45	36355.54
663.60	36252.56
663.74	36074.68
663.88	35997.44
664.02	36226.81
664.17	35920.20
664.31	35789.13
664.45	35618.27
664.59	35817.22
664.73	35929.56
664.88	35796.15
665.02	35683.81
665.16	36027.87
665.30	35894.46
665.44	35541.03
665.59	35786.79
665.73	35372.52
665.87	35503.59
666.01	34927.81
666.15	35000.37
666.29	35531.67
666.44	35515.29
666.58	35314.00
666.72	35644.02
666.86	35201.66
667.00	35344.43
667.14	34885.68
667.28	34965.26
667.43	34773.34
667.57	34965.26
667.71	34541.63
667.85	34841.21
667.99	34745.25
668.13	34410.56
668.27	34944.20
668.41	34424.60
668.56	34316.93
668.70	34586.10
668.84	34452.69
668.98	34323.96
669.12	34031.39
669.26	34237.36
669.40	33883.94
669.54	34258.42
669.68	34356.72
669.82	34209.27
669.96	33579.67
670.10	33518.81
670.25	33670.95
670.39	33577.33
670.53	33919.04
670.67	33326.89
670.81	33303.48
670.95	33785.63
671.09	33965.85
671.23	33507.11
671.37	33490.73
671.51	33408.81
671.65	33202.84
671.79	32779.20
671.93	33036.66
672.07	33181.77
672.21	32716.01
672.35	32510.04
672.49	32716.01
672.63	32856.44
672.77	32613.02
672.91	32367.27
673.05	32708.99
673.19	32308.76
673.33	32652.81
673.47	32299.39
673.61	32393.01
673.75	32374.29
673.89	32025.55
674.03	32053.64
674.17	31878.10
674.31	31943.63
674.45	31793.84
674.59	31889.80
674.73	32156.62
674.87	31552.76
675.01	31842.99
675.15	31885.12
675.29	31754.05
675.43	31740.00
675.56	31381.90
675.70	31323.39
675.84	31117.42
675.98	30132.06
676.12	30923.16
676.26	30735.92
676.40	30845.92
676.54	30864.64
676.68	30670.38
676.82	30396.54
676.96	30380.15
677.10	30560.37
677.23	30204.61
677.37	30396.54
677.51	30253.76
677.65	30071.20
677.79	29848.85
677.93	30169.51
678.07	29797.36
678.21	29619.48
678.34	29516.50
678.48	29605.44
678.62	29666.29
678.76	29034.35
678.90	29181.80
679.04	29027.32
679.18	29109.24
679.31	28669.22
679.45	28961.79
679.59	28521.77
679.73	28290.06
679.87	28877.53
680.00	28521.77
680.14	28547.51
680.28	28362.61
680.42	28329.84
680.56	28151.96
680.70	28299.42
680.83	28048.98
680.97	27885.14
681.11	28030.26
681.25	27625.34
681.39	27400.65
681.52	28180.05
681.66	27604.28
681.80	27517.68
681.94	27131.49
682.07	27625.34
682.21	27208.73
682.35	26785.09
682.49	27503.64
682.62	27131.49
682.76	27044.89
682.90	26859.99
683.04	26518.27
683.17	26785.09
683.31	26618.91
683.45	26705.51
683.59	26607.21
683.72	26251.45
683.86	25949.52
684.00	26307.62
684.13	26040.80
684.27	25682.70
684.41	26064.21
684.55	25621.84
684.68	25462.69
684.82	25673.34
684.96	25469.71
685.09	25570.35
685.23	24793.29
685.37	25123.31
685.50	25081.18
685.64	25102.25
685.78	24952.45
685.91	24905.64
686.05	24978.20
686.19	24634.14
686.32	24498.39
686.46	24247.95
686.60	23997.51
686.73	24290.08
686.87	23978.79
687.01	23824.31
687.14	23758.78
687.28	23302.37
687.42	23564.51
687.55	23269.61
687.69	23178.33
687.82	23316.42
687.96	23281.31
688.10	23213.43
688.23	23346.84
688.37	23051.94
688.50	23094.07
688.64	22799.16
688.78	22934.91
688.91	22218.71
689.05	22689.15
689.18	22553.40
689.32	22221.05
689.46	22064.23
689.59	22647.02
689.73	22499.57
689.86	22267.86
690.00	22295.94
690.13	22448.08
690.27	22438.72
690.41	22249.13
690.54	21561.02
690.68	21699.11
690.81	21652.30
690.95	21582.08
691.08	21188.87
691.22	21359.73
691.35	21429.94
691.49	21673.36
691.62	21486.12
691.76	21432.29
691.89	21050.78
692.03	20877.58
692.16	20851.83
692.30	20765.23
692.43	20940.77
692.57	20458.62
692.70	20709.06
692.84	20442.24
692.97	20123.93
693.11	20493.73
693.24	20329.89
693.38	20486.71
693.51	19892.21
693.65	20006.90
693.78	19836.04
693.92	19903.92
694.05	19688.59
694.19	19878.17
694.32	19889.87
694.45	19831.36
694.59	19508.37
694.72	19557.52
694.86	19105.79
694.99	19066.00
695.13	19023.87
695.26	18953.66
695.39	18911.53
695.53	19021.53
695.66	19089.41
695.80	18658.75
695.93	18675.13
696.07	18691.52
696.20	18609.60
696.33	18738.33
696.47	18586.19
696.60	18464.49
696.73	18347.46
696.87	18242.14
697.00	18235.11
697.14	18022.12
697.27	17984.68
697.40	17860.63
697.54	17525.93
697.67	17933.18
697.80	17874.67
697.94	17846.58
698.07	17493.16
698.21	17411.25
698.34	17312.94
698.47	17392.52
698.61	17209.96
698.74	16931.44
698.87	16919.73
699.01	16833.13
699.14	16753.55
699.27	16889.31
699.40	16767.60
699.54	16695.04
699.67	16556.95
699.80	16332.26
699.94	16624.83
700.07	16280.77
700.20	16163.74
700.34	16011.60
700.47	16219.91
700.60	16252.68
700.73	16287.79
700.87	16037.35
701.00	15843.09
701.13	15915.64
701.26	15922.66
701.40	16046.71
701.53	15555.20
701.66	15468.60
701.79	15740.10
701.93	15569.24
702.06	15382.00
702.19	15335.19
702.32	15241.57
702.46	15049.64
702.59	15047.30
702.72	15414.77
702.85	15157.31
702.99	15262.63
703.12	15344.55
703.25	14881.13
703.38	14979.43
703.51	14831.97
703.65	14895.17
703.78	14712.61
703.91	14663.46
704.04	14490.26
704.17	14366.21
704.31	14441.11
704.44	14012.79
704.57	13853.63
704.70	14024.49
704.83	14092.37
704.96	14214.07
705.10	14031.51
705.23	14022.15
>>>>>End Processed Spectral Data<<<<<
