SpectraSuite Data File
++++++++++++++++++++++++++++++++++++
Date: Fri Oct 25 10:44:41 EDT 2013
User: price-jones
Dark Spectrum Present: No
Reference Spectrum Present: No
Number of Sampled Component Spectra: 1
Spectrometers: USB2+H05261
Integration Time (usec): 100000 (USB2+H05261)
Spectra Averaged: 1 (USB2+H05261)
Boxcar Smoothing: 0 (USB2+H05261)
Correct for Electrical Dark: No (USB2+H05261)
Strobe/Lamp Enabled: No (USB2+H05261)
Correct for Detector Non-linearity: No (USB2+H05261)
Correct for Stray Light: No (USB2+H05261)
Number of Pixels in Processed Spectrum: 2048
>>>>>Begin Processed Spectral Data<<<<<
365.73	173.20
365.92	173.20
366.12	173.20
366.32	25.75
366.52	30.43
366.72	49.15
366.91	53.83
367.11	23.41
367.31	65.54
367.51	2.34
367.70	35.11
367.90	7.02
368.10	21.06
368.30	0.00
368.49	0.00
368.69	56.17
368.89	35.11
369.09	4.68
369.28	28.09
369.48	91.28
369.68	74.90
369.87	93.62
370.07	133.41
370.27	124.05
370.47	208.31
370.66	351.08
370.86	468.11
371.06	430.66
371.25	444.70
371.45	489.17
371.65	386.19
371.84	407.25
372.04	360.44
372.24	479.81
372.44	498.53
372.63	461.09
372.83	489.17
373.03	524.28
373.22	475.13
373.42	521.94
373.62	500.87
373.81	606.20
374.01	566.41
374.21	596.84
374.40	533.64
374.60	566.41
374.79	559.39
374.99	535.98
375.19	585.13
375.38	594.50
375.58	496.19
375.78	503.22
375.97	547.69
376.17	613.22
376.37	519.60
376.56	645.99
376.76	620.24
376.95	554.71
377.15	498.53
377.35	566.41
377.54	519.60
377.74	610.88
377.93	533.64
378.13	606.20
378.33	657.69
378.52	615.56
378.72	610.88
378.91	554.71
379.11	547.69
379.31	603.86
379.50	610.88
379.70	667.05
379.89	641.31
380.09	599.18
380.28	636.63
380.48	631.94
380.68	575.77
380.87	627.26
381.07	678.76
381.26	671.73
381.46	709.18
381.65	669.39
381.85	653.01
382.04	667.05
382.24	706.84
382.43	725.57
382.63	697.48
382.83	723.23
383.02	713.86
383.22	681.10
383.41	603.86
383.61	765.36
383.80	674.07
384.00	737.27
384.19	716.20
384.39	631.94
384.58	746.63
384.78	678.76
384.97	772.38
385.17	765.36
385.36	695.14
385.56	788.76
385.75	751.31
385.95	732.59
386.14	802.80
386.34	777.06
386.53	807.48
386.72	697.48
386.92	861.32
387.11	802.80
387.31	763.01
387.50	767.70
387.70	805.14
387.89	784.08
388.09	770.04
388.28	835.57
388.48	889.40
388.67	763.01
388.86	819.19
389.06	795.78
389.25	856.64
389.45	905.79
389.64	807.48
389.84	873.02
390.03	943.24
390.22	910.47
390.42	894.08
390.61	880.04
390.81	940.90
391.00	863.66
391.19	954.94
391.39	954.94
391.58	976.00
391.78	945.58
391.97	924.51
392.16	943.24
392.36	968.98
392.55	992.39
392.75	889.40
392.94	887.06
393.13	938.55
393.33	968.98
393.52	931.53
393.71	947.92
393.91	1050.90
394.10	1041.54
394.29	1097.71
394.49	1015.79
394.68	1020.47
394.88	1053.24
395.07	1139.84
395.26	1102.39
395.46	1090.69
395.65	1111.75
395.84	1097.71
396.04	1151.54
396.23	1053.24
396.42	1104.73
396.62	1153.88
396.81	1095.37
397.00	1226.44
397.19	1151.54
397.39	1151.54
397.58	1273.25
397.77	1156.22
397.97	1287.29
398.16	1235.80
398.35	1266.23
398.55	1299.00
398.74	1287.29
398.93	1350.49
399.12	1249.85
399.32	1256.87
399.51	1284.95
399.70	1331.76
399.90	1329.42
400.09	1394.96
400.28	1352.83
400.47	1390.28
400.67	1488.58
400.86	1385.60
401.05	1366.87
401.24	1411.34
401.44	1495.60
401.63	1497.94
401.82	1554.12
402.01	1434.75
402.21	1554.12
402.40	1537.73
402.59	1614.97
402.78	1502.62
402.97	1523.69
403.17	1561.14
403.36	1619.65
403.55	1605.61
403.74	1633.69
403.93	1706.25
404.13	1666.46
404.32	1696.89
404.51	1640.72
404.70	1776.47
404.89	1640.72
405.09	1746.04
405.28	1701.57
405.47	1748.38
405.66	1823.28
405.85	1870.09
406.05	1746.04
406.24	1741.36
406.43	1762.42
406.62	1760.08
406.81	1881.79
407.00	1895.83
407.20	1727.32
407.39	1764.76
407.58	1884.13
407.77	1813.92
407.96	2052.65
408.15	2050.31
408.34	1886.47
408.54	2003.50
408.73	2031.58
408.92	1991.80
409.11	2033.93
409.30	2019.88
409.49	2019.88
409.68	2080.74
409.87	1909.88
410.07	2136.91
410.26	2265.64
410.45	2127.55
410.64	2146.27
410.83	2223.51
411.02	2277.34
411.21	2361.60
411.40	2204.78
411.59	2253.94
411.78	2387.35
411.98	2349.90
412.17	2197.76
412.36	2300.75
412.55	2352.24
412.74	2464.58
412.93	2593.31
413.12	2392.03
413.31	2462.24
413.50	2574.59
413.69	2583.95
413.88	2579.27
414.07	2516.08
414.26	2590.97
414.45	2757.15
414.64	2649.49
414.83	2700.98
415.02	2747.79
415.22	2665.87
415.41	2773.53
415.60	2834.39
415.79	2881.20
415.98	2876.52
416.17	2839.07
416.36	2782.90
416.55	2857.79
416.74	2885.88
416.93	2803.96
417.12	2796.94
417.31	2913.97
417.50	3038.02
417.69	3096.53
417.88	3033.33
418.07	3077.80
418.26	3185.47
418.45	3089.51
418.64	3164.40
418.83	3218.24
419.02	3185.47
419.21	3251.00
419.39	3220.58
419.58	3236.96
419.77	3077.80
419.96	3349.31
420.15	3272.07
420.34	3155.04
420.53	3377.39
420.72	3405.48
420.91	3272.07
421.10	3365.69
421.29	3400.80
421.48	3307.18
421.67	3501.44
421.86	3414.84
422.05	3449.95
422.24	3412.50
422.43	3407.82
422.61	3375.05
422.80	3550.59
422.99	3578.68
423.18	3630.17
423.37	3592.72
423.56	3456.97
423.75	3576.34
423.94	3564.64
424.13	3309.52
424.32	3365.69
424.50	3625.49
424.69	3620.81
424.88	3592.72
425.07	3389.10
425.26	3510.80
425.45	3487.40
425.64	3569.32
425.83	3571.66
426.01	3688.68
426.20	3599.74
426.39	3569.32
426.58	3574.00
426.77	3662.94
426.96	3653.58
427.15	3576.34
427.33	3604.42
427.52	3449.95
427.71	3707.41
427.90	3641.87
428.09	3770.60
428.28	3751.88
428.46	3599.74
428.65	3716.77
428.84	3894.65
429.03	3943.80
429.22	3728.47
429.40	3801.03
429.59	3712.09
429.78	3543.57
429.97	3634.85
430.16	3794.01
430.34	3777.62
430.53	3723.79
430.72	3927.42
430.91	3918.06
431.10	3941.46
431.28	3978.91
431.47	4046.79
431.66	4128.70
431.85	4004.66
432.03	4131.05
432.22	4189.56
432.41	4126.36
432.60	4217.65
432.79	4224.67
432.97	4329.99
433.16	4234.03
433.35	4208.28
433.54	4189.56
433.72	4166.15
433.91	4252.75
434.10	4393.19
434.28	4299.56
434.47	4374.46
434.66	4362.76
434.85	4456.38
435.03	4472.76
435.22	4383.82
435.41	4568.73
435.59	4482.13
435.78	4510.21
435.97	4603.83
436.16	4737.24
436.34	4720.86
436.53	4655.33
436.72	4622.56
436.90	4627.24
437.09	4660.01
437.28	4552.34
437.46	4589.79
437.65	4652.98
437.84	4755.97
438.02	4748.95
438.21	4678.73
438.40	4660.01
438.58	4999.38
438.77	4952.57
438.96	4894.06
439.14	4975.98
439.33	4959.60
439.52	5100.03
439.70	5114.07
439.89	5102.37
440.08	5100.03
440.26	5083.64
440.45	5231.10
440.63	5207.69
440.82	5291.95
441.01	5324.72
441.19	5303.65
441.38	5514.30
441.57	5416.00
441.75	5514.30
441.94	5640.69
442.12	5586.86
442.31	5495.58
442.50	5680.48
442.68	5673.46
442.87	5673.46
443.05	5727.29
443.24	5895.81
443.43	5788.14
443.61	5771.76
443.80	5797.51
443.98	5781.12
444.17	5596.22
444.35	5792.83
444.54	5823.25
444.73	5724.95
444.91	5757.72
445.10	5839.64
445.28	5888.79
445.47	5694.52
445.65	5893.47
445.84	6083.05
446.02	5984.75
446.21	5884.11
446.39	5713.25
446.58	5977.73
446.77	5975.39
446.95	5809.21
447.14	5940.28
447.32	6090.07
447.51	5973.05
447.69	5912.19
447.88	6045.60
448.06	6186.04
448.25	6094.76
448.43	6069.01
448.62	6132.20
448.80	6052.63
448.99	6141.57
449.17	6162.63
449.36	6040.92
449.54	6122.84
449.73	6366.26
449.91	6303.06
450.10	6274.98
450.28	6494.99
450.46	6333.49
450.65	6464.56
450.83	6401.37
451.02	6413.07
451.20	6406.05
451.39	6239.87
451.57	6417.75
451.76	6408.39
451.94	6452.86
452.13	6356.90
452.31	6279.66
452.49	6403.71
452.68	6560.52
452.86	6335.83
453.05	6588.61
453.23	6399.02
453.42	6579.25
453.60	6511.37
453.78	6623.72
453.97	6485.62
454.15	6551.16
454.34	6607.33
454.52	6654.14
454.70	6801.60
454.89	6661.16
455.07	6817.98
455.26	6775.85
455.44	6883.52
455.62	6888.20
455.81	6895.22
455.99	6967.77
456.17	6965.43
456.36	7073.10
456.54	7082.46
456.73	7101.19
456.91	7274.38
457.09	7276.73
457.28	7431.20
457.46	7279.07
457.64	7265.02
457.83	7328.22
458.01	7368.01
458.19	7487.37
458.38	7372.69
458.56	7538.87
458.74	7337.58
458.93	7480.35
459.11	7382.05
459.29	7419.50
459.48	7335.24
459.66	7522.48
459.84	7602.06
460.03	7730.79
460.21	7571.63
460.39	7660.57
460.57	7410.14
460.76	7786.96
460.94	7840.79
461.12	7569.29
461.31	7826.75
461.49	7840.79
461.67	7728.45
461.85	8011.65
462.04	7770.58
462.22	8070.17
462.40	8028.04
462.59	8016.33
462.77	7953.14
462.95	7887.61
463.13	8056.12
463.32	7943.78
463.50	8016.33
463.68	8175.49
463.86	8109.96
464.05	8147.40
464.23	8091.23
464.41	8236.35
464.59	7903.99
464.78	8449.33
464.96	8306.56
465.14	8011.65
465.32	8292.52
465.50	8194.22
465.69	8327.63
465.87	8049.10
466.05	8187.19
466.23	8280.82
466.41	8446.99
466.60	8374.44
466.78	8425.93
466.96	8404.86
467.14	8379.12
467.32	8535.93
467.51	8552.32
467.69	8484.44
467.87	8713.81
468.05	8627.21
468.23	8404.86
468.41	8496.14
468.60	8606.15
468.78	8648.28
468.96	8767.65
469.14	8882.33
469.32	8863.61
469.50	8636.58
469.69	8793.39
469.87	8926.80
470.05	8952.55
470.23	8894.04
470.41	8952.55
470.59	8912.76
470.77	8917.44
470.95	9048.51
471.14	9011.06
471.32	9034.47
471.50	9233.41
471.68	9081.28
471.86	9472.15
472.04	9420.66
472.22	9628.96
472.40	9357.46
472.58	9336.40
472.77	9397.25
472.95	9486.19
473.13	9607.90
473.31	9460.45
473.49	9554.07
473.67	9661.73
473.85	9717.90
474.03	9963.66
474.21	9933.23
474.39	9998.77
474.57	10291.34
474.75	10270.27
474.93	10139.20
475.12	10141.54
475.30	10485.60
475.48	10143.88
475.66	10211.76
475.84	10150.90
476.02	10108.77
476.20	10382.62
476.38	10654.12
476.56	10700.93
476.74	10691.57
476.92	10616.67
477.10	10705.61
477.28	10916.26
477.46	11077.76
477.64	10981.79
477.82	11044.99
478.00	11403.09
478.18	11330.53
478.36	11438.20
478.54	11494.37
478.72	11515.44
478.90	11815.02
479.08	11913.33
479.26	12102.91
479.44	11878.22
479.62	12187.17
479.80	12095.89
479.98	12264.41
480.16	12353.35
480.34	12084.19
480.52	12479.74
480.70	12432.93
480.88	12290.15
481.06	12641.23
481.24	12507.82
481.41	12924.44
481.59	12968.91
481.77	13064.87
481.95	13135.09
482.13	13355.10
482.31	13383.18
482.49	13425.31
482.67	13495.53
482.85	13593.83
483.03	13554.04
483.21	13832.57
483.39	13886.40
483.57	14129.81
483.74	14097.05
483.92	14237.48
484.10	14228.12
484.28	14366.21
484.46	14623.67
484.64	15000.49
484.82	14497.28
485.00	14785.16
485.18	15108.16
485.35	15042.62
485.53	14890.49
485.71	14827.29
485.89	15173.69
486.07	15040.28
486.25	15534.14
486.43	15393.70
486.61	15791.59
486.78	15988.20
486.96	16070.12
487.14	16194.17
487.32	16215.23
487.50	16475.03
487.68	16769.94
487.85	16676.32
488.03	16851.86
488.21	17146.76
488.39	17226.34
488.57	17207.62
488.75	17142.08
488.92	17348.05
489.10	17649.98
489.28	17570.40
489.46	18043.19
489.64	18017.44
489.81	18298.31
489.99	18387.25
490.17	18494.91
490.35	18665.77
490.53	18295.97
490.70	18757.05
490.88	18649.39
491.06	18721.95
491.24	18738.33
491.41	18979.40
491.59	18836.63
491.77	19260.27
491.95	19094.09
492.13	19618.37
492.30	19613.69
492.48	19590.28
492.66	20233.93
492.84	19943.70
493.01	20257.34
493.19	20126.27
493.37	20278.40
493.54	20306.49
493.72	20706.72
493.90	20725.44
494.08	21055.46
494.25	21095.25
494.43	20966.52
494.61	21422.92
494.79	21067.16
494.96	21385.47
495.14	21696.77
495.32	21982.31
495.49	21874.65
495.67	22033.80
495.85	22043.17
496.02	21979.97
496.20	22174.24
496.38	22295.94
496.55	22284.24
496.73	22984.06
496.91	22494.89
497.09	23084.70
497.26	23082.36
497.44	23154.92
497.62	23220.45
497.79	23267.27
497.97	23211.09
498.14	23405.36
498.32	23271.95
498.50	23161.94
498.67	24147.31
498.85	23960.06
499.03	23985.81
499.20	24060.71
499.38	24252.63
499.56	24173.05
499.73	24409.45
499.91	24828.40
500.08	24297.10
500.26	24425.83
500.44	24666.91
500.61	24552.22
500.79	24900.96
500.97	24891.60
501.14	25326.94
501.32	25163.10
501.49	24954.79
501.67	25088.20
501.84	25532.90
502.02	25603.12
502.20	25799.73
502.37	25879.30
502.55	25841.85
502.72	25572.69
502.90	25923.77
503.07	26080.59
503.25	26244.43
503.43	25860.58
503.60	26050.16
503.78	26003.35
503.95	26410.60
504.13	26377.84
504.30	26335.71
504.48	26567.42
504.65	26815.52
504.83	26878.71
505.01	26883.39
505.18	27098.72
505.36	27140.85
505.53	27145.53
505.71	27274.26
505.88	27494.27
506.06	27042.55
506.23	27222.77
506.41	27164.26
506.58	27304.69
506.76	27328.10
506.93	27697.90
507.11	27604.28
507.28	27784.50
507.46	27496.61
507.63	28027.92
507.81	27494.27
507.98	27995.15
508.16	28079.41
508.33	28144.94
508.50	28077.07
508.68	28655.18
508.85	28727.74
509.03	28690.29
509.20	28877.53
509.38	28776.89
509.55	29294.14
509.73	29333.93
509.90	29139.67
510.08	28840.08
510.25	29090.52
510.42	29221.59
510.60	29280.10
510.77	29722.46
510.95	29610.12
511.12	29476.71
511.30	29652.25
511.47	29785.66
511.64	29851.19
511.82	29752.89
511.99	30129.72
512.17	30323.98
512.34	29776.30
512.51	30195.25
512.69	30031.41
512.86	30464.41
513.04	30527.61
513.21	30389.52
513.38	30529.95
513.56	30569.74
513.73	30244.40
513.90	30630.59
514.08	30586.12
514.25	30764.00
514.43	30581.44
514.60	31117.42
514.77	31168.91
514.95	31180.62
515.12	31377.22
515.29	31299.98
515.47	31747.03
515.64	31613.62
515.81	31508.29
515.99	31674.47
516.16	31786.82
516.33	31494.25
516.51	31751.71
516.68	31201.68
516.85	31515.31
517.03	31735.32
517.20	31763.41
517.37	32070.02
517.54	32325.14
517.72	31934.27
517.89	31861.71
518.06	31915.54
518.24	31805.54
518.41	31754.05
518.58	32329.82
518.75	32130.87
518.93	32566.21
519.10	32432.80
519.27	32978.15
519.45	32566.21
519.62	32568.55
519.79	33165.39
519.96	32868.14
520.14	33214.54
520.31	33179.43
520.48	33020.28
520.65	33455.62
520.83	33722.44
521.00	33598.39
521.17	33497.75
521.34	33890.96
521.52	33579.67
521.69	33724.78
521.86	33827.76
522.03	33972.88
522.20	34024.37
522.38	34466.73
522.55	34375.45
522.72	34096.92
522.89	34415.24
523.07	34490.13
523.24	34452.69
523.41	34497.16
523.58	34450.35
523.75	34511.20
523.92	34733.55
524.10	34646.95
524.27	34754.61
524.44	34862.28
524.61	35089.31
524.78	35030.80
524.96	34593.12
525.13	35056.54
525.30	35438.05
525.47	35000.37
525.64	35299.96
525.81	35356.13
525.98	34871.64
526.16	35189.95
526.33	34979.31
526.50	35110.38
526.67	35311.66
526.84	35194.64
527.01	35199.32
527.18	35611.25
527.36	35807.86
527.53	35908.50
527.70	36339.16
527.87	36163.62
528.04	35510.61
528.21	36107.44
528.38	36325.11
528.55	36400.01
528.72	36222.13
528.89	36617.68
529.07	36282.98
529.24	36250.22
529.41	36758.11
529.58	36119.15
529.75	36605.98
529.92	36470.23
530.09	36470.23
530.26	36503.00
530.43	36421.08
530.60	36657.47
530.77	36788.54
530.94	36840.03
531.11	36760.45
531.28	36950.04
531.46	37310.48
531.63	37148.98
531.80	37380.70
531.97	37024.93
532.14	37256.65
532.31	36985.15
532.48	37425.17
532.65	37160.69
532.82	37254.31
532.99	37525.81
533.16	37408.78
533.33	37591.34
533.50	37748.16
533.67	38368.40
533.84	37457.93
534.01	37490.70
534.18	37542.19
534.35	38014.98
534.52	37764.54
534.69	38440.96
534.86	38073.49
535.03	37886.25
535.20	38534.58
535.37	38581.39
535.54	38089.88
535.71	38178.82
535.88	38473.73
536.05	38270.10
536.22	38719.48
536.38	38445.64
536.55	38581.39
536.72	38658.63
536.89	38120.31
537.06	38642.24
537.23	38345.00
537.40	38520.54
537.57	38443.30
537.74	38494.79
537.91	38789.70
538.08	39182.91
538.25	38572.03
538.42	38588.41
538.59	38965.24
538.75	38548.62
538.92	39030.77
539.09	38960.56
539.26	39093.97
539.43	39246.10
539.60	38899.70
539.77	38948.85
539.94	39213.34
540.11	39100.99
540.28	38850.55
540.44	39978.69
540.61	39220.36
540.78	39140.78
540.95	39210.99
541.12	39339.72
541.29	39035.45
541.46	39143.12
541.62	39749.32
541.79	39585.48
541.96	39718.89
542.13	39732.93
542.30	39693.15
542.47	39676.76
542.63	39744.64
542.80	40114.44
542.97	40254.87
543.14	40210.40
543.31	40299.34
543.48	40294.66
543.64	41008.53
543.81	40369.56
543.98	40935.97
544.15	40526.38
544.32	40058.27
544.48	40865.75
544.65	40711.28
544.82	40610.64
544.99	40521.69
545.16	40615.32
545.32	40872.78
545.49	40886.82
545.66	41095.13
545.83	41399.40
546.00	41123.21
546.16	41249.60
546.33	40519.35
546.50	40327.43
546.67	40765.11
546.83	40935.97
547.00	40889.16
547.17	40687.87
547.34	41069.38
547.50	41404.08
547.67	41205.13
547.84	41167.68
548.00	41579.62
548.17	41827.71
548.34	41179.39
548.51	41294.07
548.67	41816.01
548.84	41385.35
549.01	41345.56
549.18	41242.58
549.34	41471.95
549.51	42052.41
549.68	41406.42
549.84	41776.22
550.01	41542.17
550.18	41584.30
550.34	41937.72
550.51	41614.72
550.68	41764.52
550.84	41904.95
551.01	42525.19
551.18	42117.94
551.34	42192.84
551.51	41694.30
551.68	41958.78
551.84	41930.70
552.01	42036.02
552.18	42101.56
552.34	41986.87
552.51	42129.64
552.68	41954.10
552.84	42436.25
553.01	42171.77
553.18	42309.86
553.34	42206.88
553.51	42029.00
553.67	42050.06
553.84	42653.92
554.01	41909.63
554.17	42562.64
554.34	42700.73
554.51	42106.24
554.67	42185.82
554.84	42377.74
555.00	42728.82
555.17	42576.69
555.33	42714.78
555.50	42541.58
555.67	42667.97
555.83	42564.98
556.00	42752.23
556.16	43021.39
556.33	42880.95
556.50	42625.84
556.66	42630.52
556.83	42714.78
556.99	43168.84
557.16	43206.29
557.32	42586.05
557.49	42822.44
557.65	42359.02
557.82	43159.48
557.98	42951.17
558.15	42962.87
558.32	43068.20
558.48	42855.21
558.65	42913.72
558.81	42733.50
558.98	42848.19
559.14	43269.48
559.31	42895.00
559.47	42799.04
559.64	43068.20
559.80	43627.59
559.97	43351.40
560.13	43189.91
560.30	43089.26
560.46	42796.70
560.63	43461.41
560.79	43791.42
560.96	43669.72
561.12	43283.53
561.29	43222.67
561.45	43466.09
561.61	43353.74
561.78	43047.13
561.94	43175.86
562.11	43377.15
562.27	43255.44
562.44	43749.29
562.60	43665.03
562.77	43634.61
562.93	43426.30
563.10	43889.73
563.26	43091.60
563.42	43704.82
563.59	43590.14
563.75	43564.39
563.92	43807.81
564.08	44285.28
564.24	43791.42
564.41	43732.91
564.57	43580.78
564.74	43828.87
564.90	43559.71
565.07	43819.51
565.23	44079.31
565.39	43573.75
565.56	43704.82
565.72	43517.58
565.88	43468.43
566.05	43564.39
566.21	43688.44
566.38	43290.55
566.54	43744.61
566.70	43988.03
566.87	44076.97
567.03	44161.23
567.19	44369.54
567.36	43552.69
567.52	43714.19
567.68	43803.13
567.85	43791.42
568.01	43763.34
568.17	43931.86
568.34	43819.51
568.50	43798.44
568.66	43828.87
568.83	44215.06
568.99	43571.41
569.15	43641.63
569.32	43772.70
569.48	43838.23
569.64	44247.83
569.81	44451.45
569.97	44266.55
570.13	43868.66
570.30	43901.43
570.46	43936.54
570.62	43751.63
570.78	43725.89
570.95	44051.22
571.11	44416.35
571.27	43915.47
571.43	43927.17
571.60	43653.33
571.76	43732.91
571.92	44212.72
572.09	44074.63
572.25	44493.58
572.41	43782.06
572.57	44098.03
572.74	44751.04
572.90	44446.77
573.06	44065.27
573.22	43763.34
573.38	44397.62
573.55	43562.05
573.71	44353.15
573.87	44039.52
574.03	44385.92
574.20	43927.17
574.36	44034.84
574.52	44219.74
574.68	44186.97
574.84	44018.46
575.01	44182.29
575.17	44404.64
575.33	44076.97
575.49	44336.77
575.65	44374.22
575.82	44751.04
575.98	44512.31
576.14	44067.61
576.30	44404.64
576.46	44402.30
576.62	44491.24
576.79	44144.84
576.95	44048.88
577.11	44072.29
577.27	44222.08
577.43	44638.70
577.59	44053.56
577.75	44184.63
577.92	43557.37
578.08	43583.12
578.24	44184.63
578.40	43990.37
578.56	43950.58
578.72	44430.39
578.88	44638.70
579.04	44254.85
579.21	44659.76
579.37	44596.57
579.53	44334.43
579.69	44219.74
579.85	44245.49
580.01	44170.59
580.17	44236.12
580.33	44528.69
580.49	44346.13
580.65	44669.12
580.82	44711.25
580.98	44175.27
581.14	44516.99
581.30	44383.58
581.46	44626.99
581.62	44069.95
581.78	44547.42
581.94	44648.06
582.10	44198.68
582.26	44502.95
582.42	44563.80
582.58	44732.32
582.74	44444.43
582.90	44704.23
583.06	44327.41
583.22	44278.25
583.38	44465.50
583.54	44542.74
583.70	44456.14
583.86	44449.11
584.02	44025.48
584.18	44687.85
584.34	44526.35
584.50	44254.85
584.66	44264.21
584.82	44318.04
584.98	44769.77
585.14	44601.25
585.30	44645.72
585.46	44629.34
585.62	44320.38
585.78	44659.76
585.94	43892.07
586.10	44275.91
586.26	44308.68
586.42	44348.47
586.58	44832.96
586.74	44830.62
586.90	44573.16
587.06	44250.17
587.22	44250.17
587.38	43950.58
587.54	44381.24
587.70	44882.11
587.86	44549.76
588.02	44795.51
588.18	44589.55
588.34	44453.79
588.49	44076.97
588.65	43711.84
588.81	43529.28
588.97	44336.77
589.13	44034.84
589.29	44210.38
589.45	44666.78
589.61	44652.74
589.77	44697.21
589.93	44666.78
590.08	44591.89
590.24	45022.54
590.40	44610.61
590.56	44732.32
590.72	44395.28
590.88	44399.96
591.04	44575.50
591.20	45254.26
591.35	44938.29
591.51	45385.33
591.67	44521.67
591.83	44954.67
591.99	44849.35
592.15	44973.39
592.31	44804.88
592.46	44648.06
592.62	44863.39
592.78	44842.32
592.94	44919.56
593.10	45003.82
593.26	45216.81
593.41	44226.76
593.57	44575.50
593.73	44669.12
593.89	44865.73
594.05	44484.22
594.20	44854.03
594.36	44634.02
594.52	44465.50
594.68	44573.16
594.84	44495.92
594.99	44851.69
595.15	44605.93
595.31	44884.45
595.47	44673.81
595.62	44912.54
595.78	44921.90
595.94	44823.60
596.10	45397.03
596.25	45682.58
596.41	45006.16
596.57	45006.16
596.73	45038.93
596.88	44758.06
597.04	45013.18
597.20	44938.29
597.36	45076.38
597.51	45050.63
597.67	44830.62
597.83	44793.17
597.99	45305.75
598.14	44802.53
598.30	44690.19
598.46	44739.34
598.61	45104.46
598.77	44669.12
598.93	44624.65
599.09	44655.08
599.24	45668.53
599.40	45167.66
599.56	44964.03
599.71	44800.19
599.87	45322.13
600.03	44947.65
600.18	44694.87
600.34	44568.48
600.50	44996.80
600.65	45027.23
600.81	44940.63
600.97	44676.15
601.12	45230.85
601.28	44891.48
601.44	44739.34
601.59	44711.25
601.75	44545.08
601.91	44287.62
602.06	44409.32
602.22	45109.14
602.37	44861.05
602.53	45272.98
602.69	45003.82
602.84	44463.16
603.00	45064.67
603.16	44741.68
603.31	44729.98
603.47	44774.45
603.62	44847.00
603.78	44774.45
603.94	44708.91
604.09	44825.94
604.25	45244.90
604.40	45198.09
604.56	44900.84
604.71	44961.69
604.87	44776.79
605.03	44549.76
605.18	44463.16
605.34	44638.70
605.49	44406.98
605.65	45074.04
605.80	44334.43
605.96	44751.04
606.12	44804.88
606.27	45059.99
606.43	45050.63
606.58	44753.38
606.74	44587.21
606.89	45081.06
607.05	44526.35
607.20	44804.88
607.36	44493.58
607.51	44662.10
607.67	43981.01
607.82	44526.35
607.98	44456.14
608.13	44458.48
608.29	44240.81
608.44	44156.55
608.60	44023.14
608.75	44058.24
608.91	44479.54
609.06	44278.25
609.22	44224.42
609.37	44144.84
609.53	44121.44
609.68	44432.73
609.84	44435.07
609.99	44355.49
610.15	44294.64
610.30	44271.23
610.46	44088.67
610.61	44083.99
610.76	44453.79
610.92	44514.65
611.07	44456.14
611.23	44397.62
611.38	44514.65
611.54	43831.21
611.69	44076.97
611.84	44081.65
612.00	44069.95
612.15	44058.24
612.31	44430.39
612.46	44046.54
612.62	44060.58
612.77	44060.58
612.92	44622.31
613.08	44217.40
613.23	44238.47
613.39	43885.04
613.54	43945.90
613.69	44067.61
613.85	44002.07
614.00	43924.83
614.15	43964.62
614.31	43910.79
614.46	43847.60
614.62	43985.69
614.77	43777.38
614.92	43538.65
615.08	43861.64
615.23	43615.88
615.38	44107.40
615.54	43023.73
615.69	43524.60
615.84	43203.95
616.00	43702.48
616.15	43260.12
616.30	43735.25
616.46	43711.84
616.61	42909.04
616.76	43522.26
616.92	43019.05
617.07	43124.37
617.22	42897.34
617.37	43016.71
617.53	43426.30
617.68	43643.97
617.83	43639.29
617.99	43793.76
618.14	43349.06
618.29	43440.34
618.45	43311.61
618.60	43070.54
618.75	42920.74
618.90	42848.19
619.06	43613.54
619.21	43337.36
619.36	43145.44
619.51	43365.45
619.67	43061.18
619.82	43299.91
619.97	43267.14
620.12	42801.38
620.28	42829.46
620.43	43173.52
620.58	42747.54
620.73	42845.85
620.89	42637.54
621.04	43295.23
621.19	43016.71
621.34	42850.53
621.49	42829.46
621.65	42597.75
621.80	42792.01
621.95	42469.02
622.10	42602.43
622.25	42164.75
622.41	42885.64
622.56	42113.26
622.71	42534.56
622.86	42462.00
623.01	42522.85
623.16	42391.78
623.32	42122.62
623.47	42628.18
623.62	42546.26
623.77	42520.51
623.92	42382.42
624.07	42122.62
624.23	42101.56
624.38	42164.75
624.53	42143.69
624.68	41909.63
624.83	42096.88
624.98	41813.67
625.13	42401.14
625.29	42036.02
625.44	42136.66
625.59	42155.39
625.74	42059.43
625.89	41588.98
626.04	41958.78
626.19	41961.12
626.34	41862.82
626.49	41886.23
626.65	42012.62
626.80	42485.40
626.95	42014.96
627.10	41684.94
627.25	41928.36
627.40	41577.28
627.55	41853.46
627.70	41364.29
627.85	41832.39
628.00	41448.55
628.15	41729.41
628.30	41703.67
628.45	41694.30
628.60	41471.95
628.76	41488.34
628.91	41404.08
629.06	41357.27
629.21	41296.41
629.36	41165.34
629.51	41001.50
629.66	41148.96
629.81	41186.41
629.96	41212.15
630.11	41514.08
630.26	41490.68
630.41	41525.78
630.56	41265.99
630.71	41263.64
630.86	41237.90
631.01	41095.13
631.16	41280.03
631.31	40591.91
631.46	40917.25
631.61	41184.07
631.76	40793.20
631.91	41013.21
632.06	41174.70
632.21	41312.80
632.36	41282.37
632.51	40978.10
632.66	40842.35
632.81	40456.16
632.96	40638.72
633.10	40458.50
633.25	40222.11
633.40	41001.50
633.55	40629.36
633.70	40678.51
633.85	40428.07
634.00	40407.01
634.15	40795.54
634.30	40540.42
634.45	40701.92
634.60	40397.65
634.75	40708.94
634.90	40250.19
635.05	40233.81
635.19	40402.33
635.34	40446.80
635.49	40046.57
635.64	40135.51
635.79	39828.90
635.94	40247.85
636.09	40346.15
636.24	40154.23
636.39	40062.95
636.53	39976.35
636.68	39976.35
636.83	40648.08
636.98	40481.91
637.13	39688.46
637.28	39842.94
637.43	40318.07
637.57	40268.92
637.72	40009.12
637.87	40170.61
638.02	40044.23
638.17	40032.52
638.32	39889.75
638.46	39803.15
638.61	39789.11
638.76	39924.86
638.91	39739.96
639.06	39686.12
639.20	39571.44
639.35	40084.01
639.50	39676.76
639.65	39852.30
639.80	39934.22
639.94	39555.05
640.09	39519.95
640.24	39674.42
640.39	39229.72
640.54	39477.82
640.68	39819.53
640.83	39269.51
640.98	39374.83
641.13	39035.45
641.27	39342.06
641.42	39131.42
641.57	39218.02
641.72	39323.34
641.86	39356.11
642.01	38635.22
642.16	38913.75
642.31	39124.40
642.45	39122.05
642.60	39166.52
642.75	39218.02
642.90	38855.23
643.04	38852.89
643.19	38773.31
643.34	39370.15
643.48	38836.51
643.63	38768.63
643.78	38508.83
643.93	38565.01
644.07	38698.42
644.22	38253.72
644.37	38721.82
644.51	38520.54
644.66	38850.55
644.81	38979.28
644.95	39100.99
645.10	38534.58
645.25	39070.56
645.39	38906.73
645.54	38637.56
645.69	38398.83
645.83	38759.27
645.98	38876.30
646.13	38506.49
646.27	38747.57
646.42	38703.10
646.57	38569.69
646.71	38967.58
646.86	38953.54
647.00	38476.07
647.15	38763.95
647.30	38326.27
647.44	38022.00
647.59	38705.44
647.74	38354.36
647.88	38071.15
648.03	38515.86
648.17	38204.56
648.32	37750.50
648.47	38401.17
648.61	37851.14
648.76	38349.68
648.90	38213.93
649.05	38054.77
649.20	38258.40
649.34	37867.53
649.49	38120.31
649.63	38227.97
649.78	37500.06
649.92	37635.81
650.07	38384.79
650.21	37722.41
650.36	37914.34
650.51	37811.35
650.65	38150.73
650.80	38274.78
650.94	37682.62
651.09	37752.84
651.23	37930.72
651.38	37619.43
651.52	37607.73
651.67	37523.47
651.81	37591.34
651.96	37570.28
652.10	37598.37
652.25	36931.31
652.39	37589.00
652.54	37902.64
652.68	37729.44
652.83	37542.19
652.97	37258.99
653.12	37317.50
653.26	37158.34
653.41	37483.68
653.55	36903.23
653.70	37141.96
653.84	37684.97
653.99	37174.73
654.13	37518.79
654.27	36957.06
654.42	36877.48
654.56	36856.42
654.71	37326.86
654.85	37088.13
655.00	36823.65
655.14	37081.11
655.29	36800.24
655.43	36811.95
655.57	36615.34
655.72	36465.55
655.86	36400.01
656.01	36713.64
656.15	36650.45
656.30	36730.03
656.44	36355.54
656.58	36575.55
656.73	36669.17
656.87	36744.07
657.01	36299.37
657.16	36594.28
657.30	36437.46
657.45	36208.09
657.59	36264.26
657.73	35660.40
657.88	36730.03
658.02	36481.93
658.16	36828.33
658.31	36208.09
658.45	37064.72
658.60	36390.65
658.74	36605.98
658.88	36570.87
659.03	36229.15
659.17	36098.08
659.31	35611.25
659.46	35662.74
659.60	35957.65
659.74	35997.44
659.89	35833.60
660.03	35775.09
660.17	35866.37
660.32	35819.56
660.46	35871.05
660.60	35662.74
660.74	35744.66
660.89	35817.22
661.03	35681.47
661.17	35122.08
661.32	35346.77
661.46	35838.28
661.60	35482.52
661.74	35356.13
661.89	35531.67
662.03	35742.32
662.17	35035.48
662.31	35012.07
662.46	35196.98
662.60	35611.25
662.74	35349.11
662.88	35175.91
663.03	34944.20
663.17	34639.93
663.31	34698.44
663.45	34759.30
663.60	34829.51
663.74	34457.37
663.88	35129.10
664.02	34323.96
664.17	34843.56
664.31	34515.88
664.45	34541.63
664.59	34590.78
664.73	34396.51
664.88	34497.16
665.02	34223.31
665.16	34127.35
665.30	34216.29
665.44	33921.38
665.59	33998.62
665.73	33928.41
665.87	33902.66
666.01	34007.98
666.15	33982.24
666.29	33799.68
666.44	33933.09
666.58	33738.82
666.72	33837.12
666.86	33699.03
667.00	33792.65
667.14	33167.73
667.28	33298.80
667.43	33247.31
667.57	33556.26
667.71	33261.35
667.85	33701.37
667.99	32755.80
668.13	33490.73
668.27	33123.26
668.41	33560.94
668.56	32954.74
668.70	33067.09
668.84	33277.74
668.98	32828.35
669.12	32694.94
669.26	32964.10
669.40	32828.35
669.54	32659.84
669.68	32748.78
669.82	32486.64
669.96	32821.33
670.10	32027.89
670.25	32833.04
670.39	32477.27
670.53	32142.58
670.67	32348.54
670.81	32334.50
670.95	32163.64
671.09	32114.49
671.23	32067.68
671.37	31999.80
671.51	32280.67
671.65	31632.34
671.79	31438.08
671.93	31365.52
672.07	31992.78
672.21	31704.90
672.35	31714.26
672.49	32060.66
672.63	31606.59
672.77	31321.05
672.91	31468.50
673.05	31702.56
673.19	31077.63
673.33	30899.75
673.47	31068.27
673.61	30895.07
673.75	30789.75
673.89	30515.90
674.03	30923.16
674.17	30946.56
674.31	30707.83
674.45	30864.64
674.59	30551.01
674.73	30286.53
674.87	30876.35
675.01	30607.19
675.15	30384.83
675.29	30260.79
675.43	30448.03
675.56	30019.71
675.70	30185.89
675.84	30101.63
675.98	28992.22
676.12	29633.52
676.26	29717.78
676.40	29635.86
676.54	29301.17
676.68	29394.79
676.82	29132.65
676.96	29305.85
677.10	29172.44
677.23	29371.38
677.37	29216.91
677.51	28828.38
677.65	29170.10
677.79	28662.20
677.93	28573.26
678.07	28582.62
678.21	28374.31
678.34	28308.78
678.48	28273.67
678.62	28151.96
678.76	27845.35
678.90	27728.33
679.04	27580.87
679.18	27728.33
679.31	27608.96
679.45	27213.41
679.59	27122.13
679.73	27578.53
679.87	27573.85
680.00	26986.38
680.14	27267.24
680.28	26939.57
680.42	26920.84
680.56	27035.53
680.70	26876.37
680.83	26904.46
680.97	26834.24
681.11	26918.50
681.25	26579.12
681.39	26356.77
681.52	26621.25
681.66	26136.76
681.80	26293.58
681.94	26188.25
682.07	26424.65
682.21	25984.63
682.35	26096.97
682.49	26359.11
682.62	26321.66
682.76	26082.93
682.90	25937.82
683.04	25631.21
683.17	25584.40
683.31	25572.69
683.45	25568.01
683.59	24929.05
683.72	24716.06
683.86	25123.31
684.00	24837.76
684.13	25090.54
684.27	24697.33
684.41	24964.15
684.55	24510.09
684.68	24465.62
684.82	24458.60
684.96	24624.78
685.09	24563.92
685.23	24334.55
685.37	24046.66
685.50	24486.68
685.64	24266.67
685.78	23875.80
685.91	23744.73
686.05	23924.96
686.19	23482.59
686.32	23625.37
686.46	23143.22
686.60	23096.41
686.73	22974.70
686.87	23192.37
687.01	22965.34
687.14	22780.43
687.28	22831.93
687.42	22867.03
687.55	22602.55
687.69	22827.24
687.82	22588.51
687.96	22855.33
688.10	22377.86
688.23	22291.26
688.37	22167.21
688.50	22015.08
688.64	22157.85
688.78	22398.93
688.91	21926.14
689.05	22204.66
689.18	21841.88
689.32	21724.85
689.46	21549.31
689.59	21387.82
689.73	21734.21
689.86	21502.50
690.00	21348.03
690.13	21816.13
690.27	21092.91
690.41	21057.80
690.54	20861.19
690.68	20730.12
690.81	20636.50
690.95	20634.16
691.08	20957.16
691.22	20659.91
691.35	20620.12
691.49	20556.93
691.62	20821.41
691.76	20397.77
691.89	20357.98
692.03	20121.59
692.16	19758.80
692.30	20016.26
692.43	19908.60
692.57	19662.84
692.70	20161.37
692.84	19667.52
692.97	19405.38
693.11	19796.25
693.24	19646.46
693.38	19543.47
693.51	19342.19
693.65	19688.59
693.78	19473.26
693.92	19190.05
694.05	19178.35
694.19	19075.37
694.32	19234.52
694.45	18850.67
694.59	18640.03
694.72	18614.28
694.86	18331.08
694.99	18473.85
695.13	18684.50
695.26	18534.70
695.39	18244.48
695.53	18356.82
695.66	18354.48
695.80	18249.16
695.93	18188.30
696.07	17921.48
696.20	18225.75
696.33	17706.15
696.47	17984.68
696.60	17743.60
696.73	17614.87
696.87	17397.20
697.00	17593.81
697.14	17359.75
697.27	17146.76
697.40	17202.94
697.54	17273.15
697.67	17233.36
697.80	17055.48
697.94	17053.14
698.07	16816.75
698.21	16814.41
698.34	17069.53
698.47	16620.14
698.61	16362.69
698.74	16439.92
698.87	16215.23
699.01	16107.57
699.14	16079.48
699.27	16093.52
699.40	15983.52
699.54	16198.85
699.67	15740.10
699.80	15887.56
699.94	15964.79
700.07	15901.60
700.20	15850.11
700.34	15749.46
700.47	15522.43
700.60	15625.42
700.73	15693.29
700.87	15672.23
701.00	15367.96
701.13	15344.55
701.26	15382.00
701.40	15077.73
701.53	15150.29
701.66	15358.60
701.79	14717.29
701.93	14710.27
702.06	14792.19
702.19	14927.94
702.32	14944.32
702.46	14633.03
702.59	14473.87
702.72	14396.64
702.85	14525.36
702.99	14424.72
703.12	14171.94
703.25	14174.28
703.38	14101.73
703.51	14122.79
703.65	14012.79
703.78	14141.52
703.91	14022.15
704.04	13848.95
704.17	13944.91
704.31	13642.98
704.44	13881.72
704.57	13603.19
704.70	13582.13
704.83	13589.15
704.96	13727.24
705.10	13355.10
705.23	13418.29
>>>>>End Processed Spectral Data<<<<<
