SpectraSuite Data File
++++++++++++++++++++++++++++++++++++
Date: Fri Oct 25 11:33:50 EDT 2013
User: price-jones
Dark Spectrum Present: No
Reference Spectrum Present: No
Number of Sampled Component Spectra: 1
Spectrometers: USB2+H05261
Integration Time (usec): 100000 (USB2+H05261)
Spectra Averaged: 1 (USB2+H05261)
Boxcar Smoothing: 0 (USB2+H05261)
Correct for Electrical Dark: No (USB2+H05261)
Strobe/Lamp Enabled: No (USB2+H05261)
Correct for Detector Non-linearity: No (USB2+H05261)
Correct for Stray Light: No (USB2+H05261)
Number of Pixels in Processed Spectrum: 2048
>>>>>Begin Processed Spectral Data<<<<<
365.73	313.63
365.92	313.63
366.12	313.63
366.32	114.69
366.52	208.31
366.72	212.99
366.91	238.73
367.11	154.48
367.31	152.13
367.51	187.24
367.70	212.99
367.90	138.09
368.10	187.24
368.30	196.60
368.49	170.86
368.69	224.69
368.89	238.73
369.09	170.86
369.28	210.65
369.48	236.39
369.68	231.71
369.87	255.12
370.07	243.42
370.27	285.55
370.47	346.40
370.66	425.98
370.86	496.19
371.06	573.43
371.25	545.34
371.45	486.83
371.65	613.22
371.84	589.82
372.04	531.30
372.24	554.71
372.44	496.19
372.63	599.18
372.83	564.07
373.03	543.00
373.22	674.07
373.42	601.52
373.62	571.09
373.81	552.37
374.01	664.71
374.21	615.56
374.40	671.73
374.60	667.05
374.79	613.22
374.99	720.88
375.19	617.90
375.38	660.03
375.58	653.01
375.78	678.76
375.97	669.39
376.17	685.78
376.37	596.84
376.56	709.18
376.76	664.71
376.95	636.63
377.15	697.48
377.35	706.84
377.54	739.61
377.74	606.20
377.93	660.03
378.13	713.86
378.33	798.12
378.52	664.71
378.72	748.97
378.91	732.59
379.11	634.29
379.31	741.95
379.50	777.06
379.70	741.95
379.89	786.42
380.09	760.67
380.28	624.92
380.48	662.37
380.68	777.06
380.87	704.50
381.07	772.38
381.26	840.25
381.46	648.33
381.65	765.36
381.85	741.95
382.04	725.57
382.24	760.67
382.43	765.36
382.63	730.25
382.83	730.25
383.02	826.21
383.22	737.27
383.41	837.91
383.61	870.68
383.80	861.32
384.00	737.27
384.19	779.40
384.39	798.12
384.58	793.44
384.78	814.51
384.97	830.89
385.17	812.17
385.36	830.89
385.56	830.89
385.75	786.42
385.95	816.85
386.14	868.34
386.34	894.08
386.53	870.68
386.72	880.04
386.92	926.85
387.11	873.02
387.31	833.23
387.50	858.98
387.70	837.91
387.89	922.17
388.09	931.53
388.28	896.43
388.48	978.34
388.67	987.71
388.86	983.02
389.06	952.60
389.25	940.90
389.45	896.43
389.64	961.96
389.84	964.30
390.03	915.15
390.22	1015.79
390.42	976.00
390.61	959.62
390.81	1008.77
391.00	990.05
391.19	947.92
391.39	1020.47
391.58	1055.58
391.78	1086.01
391.97	1011.11
392.16	1013.45
392.36	1039.20
392.55	1111.75
392.75	1029.84
392.94	1015.79
393.13	1088.35
393.33	1011.11
393.52	1090.69
393.71	1093.03
393.91	1074.31
394.10	1062.60
394.29	1048.56
394.49	1107.07
394.68	1109.41
394.88	1128.14
395.07	1139.84
395.26	1128.14
395.46	1109.41
395.65	1196.01
395.84	1277.93
396.04	1163.25
396.23	1158.57
396.42	1256.87
396.62	1184.31
396.81	1221.76
397.00	1256.87
397.19	1266.23
397.39	1277.93
397.58	1191.33
397.77	1252.19
397.97	1240.48
398.16	1327.08
398.35	1282.61
398.55	1247.51
398.74	1259.21
398.93	1308.36
399.12	1296.66
399.32	1364.53
399.51	1310.70
399.70	1343.47
399.90	1373.89
400.09	1315.38
400.28	1385.60
400.47	1263.89
400.67	1371.55
400.86	1462.83
401.05	1387.94
401.24	1472.20
401.44	1425.39
401.63	1439.43
401.82	1451.13
402.01	1406.66
402.21	1474.54
402.40	1488.58
402.59	1488.58
402.78	1551.78
402.97	1416.02
403.17	1598.59
403.36	1448.79
403.55	1577.52
403.74	1561.14
403.93	1596.25
404.13	1579.86
404.32	1549.43
404.51	1619.65
404.70	1631.35
404.89	1643.06
405.09	1811.57
405.28	1703.91
405.47	1685.19
405.66	1661.78
405.85	1717.95
406.05	1638.38
406.24	1764.76
406.43	1741.36
406.62	1703.91
406.81	1830.30
407.00	1657.10
407.20	1753.06
407.39	1781.15
407.58	1916.90
407.77	1886.47
407.96	1966.05
408.15	1921.58
408.34	1886.47
408.54	1926.26
408.73	1790.51
408.92	1895.83
409.11	1963.71
409.30	1977.75
409.49	2019.88
409.68	2052.65
409.87	1942.64
410.07	1956.69
410.26	2066.69
410.45	2127.55
410.64	2101.80
410.83	2120.53
411.02	2155.63
411.21	2143.93
411.40	2108.82
411.59	2260.96
411.78	2183.72
411.98	2214.15
412.17	2314.79
412.36	2249.25
412.55	2392.03
412.74	2370.96
412.93	2307.77
413.12	2331.17
413.31	2438.84
413.50	2506.71
413.69	2347.56
413.88	2424.80
414.07	2497.35
414.26	2532.46
414.45	2455.22
414.64	2513.74
414.83	2593.31
415.02	2560.55
415.22	2649.49
415.41	2647.15
415.60	2633.10
415.79	2633.10
415.98	2719.70
416.17	2888.22
416.36	2708.00
416.55	2736.09
416.74	2766.51
416.93	2677.57
417.12	2888.22
417.31	2822.69
417.50	2916.31
417.69	2981.84
417.88	3045.04
418.07	2909.29
418.26	3052.06
418.45	2864.82
418.64	3077.80
418.83	2960.78
419.02	3038.02
419.21	3047.38
419.39	3197.17
419.58	3176.11
419.77	3052.06
419.96	3122.27
420.15	3098.87
420.34	3131.64
420.53	3183.13
420.72	3267.39
420.91	3159.72
421.10	3293.13
421.29	3192.49
421.48	3218.24
421.67	3524.85
421.86	3269.73
422.05	3365.69
422.24	3255.69
422.43	3314.20
422.61	3248.66
422.80	3503.78
422.99	3428.88
423.18	3405.48
423.37	3403.14
423.56	3412.50
423.75	3375.05
423.94	3332.92
424.13	2991.20
424.32	3361.01
424.50	3485.06
424.69	3384.41
424.88	3602.08
425.07	3473.36
425.26	3377.39
425.45	3304.84
425.64	3361.01
425.83	3304.84
426.01	3370.37
426.20	3480.38
426.39	3459.31
426.58	3482.72
426.77	3403.14
426.96	3480.38
427.15	3599.74
427.33	3557.61
427.52	3609.11
427.71	3597.40
427.90	3494.42
428.09	3536.55
428.28	3695.71
428.46	3667.62
428.65	3803.37
428.84	3754.22
429.03	3747.20
429.22	3681.66
429.40	3791.67
429.59	3730.81
429.78	3545.91
429.97	3665.28
430.16	3735.50
430.34	3850.18
430.53	3742.52
430.72	3763.58
430.91	3899.33
431.10	3789.33
431.28	4004.66
431.47	3955.51
431.66	3908.69
431.85	3901.67
432.03	4009.34
432.22	4126.36
432.41	4011.68
432.60	4142.75
432.79	4084.23
432.97	4056.15
433.16	4161.47
433.35	4037.42
433.54	4102.96
433.72	4280.84
433.91	4184.88
434.10	4269.14
434.28	4234.03
434.47	4156.79
434.66	4250.41
434.85	4297.22
435.03	4362.76
435.22	4276.16
435.41	4418.93
435.59	4404.89
435.78	4332.33
435.97	4379.14
436.16	4390.84
436.34	4334.67
436.53	4395.53
436.72	4512.55
436.90	4447.02
437.09	4521.92
437.28	4372.12
437.46	4423.61
437.65	4657.67
437.84	4552.34
438.02	4362.76
438.21	4538.30
438.40	4617.88
438.58	4807.46
438.77	4655.33
438.96	4699.80
439.14	4875.34
439.33	4830.87
439.52	4954.91
439.70	4957.25
439.89	4931.51
440.08	4849.59
440.26	4936.19
440.45	4887.04
440.63	5076.62
440.82	5177.26
441.01	5139.82
441.19	5172.58
441.38	5226.42
441.57	5441.75
441.75	5313.02
441.94	5320.04
442.12	5322.38
442.31	5376.21
442.50	5383.23
442.68	5638.35
442.87	5486.22
443.05	5446.43
443.24	5446.43
443.43	5638.35
443.61	5554.09
443.80	5657.07
443.98	5437.06
444.17	5320.04
444.35	5458.13
444.54	5694.52
444.73	5441.75
444.91	5626.65
445.10	5547.07
445.28	5514.30
445.47	5694.52
445.65	5472.17
445.84	5657.07
446.02	5753.04
446.21	5701.54
446.39	5612.60
446.58	5563.45
446.77	5734.31
446.95	5504.94
447.14	5827.93
447.32	5790.49
447.51	5795.17
447.69	5652.39
447.88	5631.33
448.06	5619.63
448.25	5687.50
448.43	5621.97
448.62	5781.12
448.80	5769.42
448.99	5806.87
449.17	5811.55
449.36	5762.40
449.54	5935.60
449.73	5996.45
449.91	5949.64
450.10	5975.39
450.28	6064.33
450.46	6005.81
450.65	6188.38
450.83	6094.76
451.02	6066.67
451.20	6153.27
451.39	6314.77
451.57	6129.86
451.76	6181.35
451.94	6106.46
452.13	6274.98
452.31	6246.89
452.49	6221.14
452.68	6345.19
452.86	6359.24
453.05	6487.96
453.23	6506.69
453.42	6340.51
453.60	6249.23
453.78	6555.84
453.97	6160.29
454.15	6340.51
454.34	6291.36
454.52	6401.37
454.70	6623.72
454.89	6567.54
455.07	6595.63
455.26	6633.08
455.44	6661.16
455.62	6621.38
455.81	6558.18
455.99	6628.40
456.17	6780.53
456.36	6792.23
456.54	6551.16
456.73	6935.01
456.91	7206.51
457.09	6956.07
457.28	7035.65
457.46	6881.18
457.64	6965.43
457.83	7035.65
458.01	6946.71
458.19	7232.26
458.38	7162.04
458.56	7098.84
458.74	7105.87
458.93	7169.06
459.11	7131.61
459.29	7021.61
459.48	7321.20
459.66	7265.02
459.84	7435.88
460.03	7358.64
460.21	7384.39
460.39	7368.01
460.57	7459.29
460.76	7566.95
460.94	7529.50
461.12	7597.38
461.31	7513.12
461.49	7545.89
461.67	7442.90
461.85	7513.12
462.04	7442.90
462.22	7974.21
462.40	7831.43
462.59	7742.49
462.77	7559.93
462.95	7985.91
463.13	7948.46
463.32	7822.07
463.50	7803.35
463.68	7969.52
463.86	7866.54
464.05	7992.93
464.23	7922.71
464.41	7925.05
464.59	7693.34
464.78	8074.85
464.96	8037.40
465.14	7967.18
465.32	8084.21
465.50	8105.28
465.69	7967.18
465.87	8112.30
466.05	8002.29
466.23	8077.19
466.41	8297.20
466.60	8475.08
466.78	8255.07
466.96	8084.21
467.14	8018.68
467.32	8203.58
467.51	8348.69
467.69	8159.11
467.87	8446.99
468.05	8482.10
468.23	8271.45
468.41	8229.32
468.60	8376.78
468.78	8411.89
468.96	8393.16
469.14	8802.75
469.32	8454.02
469.50	8475.08
469.69	8580.40
469.87	8835.52
470.05	8657.64
470.23	8821.48
470.41	8809.78
470.59	8833.18
470.77	8884.67
470.95	8641.26
471.14	9177.24
471.32	8648.28
471.50	9104.68
471.68	8980.64
471.86	9097.66
472.04	9116.39
472.22	9483.85
472.40	9020.42
472.58	9102.34
472.77	9071.92
472.95	9628.96
473.13	9809.19
473.31	9371.50
473.49	9364.48
473.67	9453.42
473.85	9404.27
474.03	9778.76
474.21	9745.99
474.39	9963.66
474.57	9760.03
474.75	9863.02
474.93	9867.70
475.12	9893.44
475.30	9921.53
475.48	9734.29
475.66	10122.82
475.84	10059.62
476.02	10104.09
476.20	10242.18
476.38	10368.57
476.56	10745.40
476.74	10642.42
476.92	10438.79
477.10	10401.34
477.28	10583.90
477.46	10574.54
477.64	10883.49
477.82	10700.93
478.00	11183.08
478.18	11059.03
478.36	11075.42
478.54	11211.17
478.72	11047.33
478.90	11452.24
479.08	11683.95
479.26	11583.31
479.44	11623.10
479.62	11726.08
479.80	11829.07
479.98	11964.82
480.16	12297.17
480.34	12093.55
480.52	12105.25
480.70	12086.53
480.88	12191.85
481.06	12283.13
481.24	12332.28
481.41	12329.94
481.59	12676.34
481.77	12767.62
481.95	12538.25
482.13	13022.74
482.31	12903.37
482.49	13511.91
482.67	13324.67
482.85	13486.17
483.03	13554.04
483.21	13422.97
483.39	13855.97
483.57	13809.16
483.74	13764.69
483.92	14150.88
484.10	13846.61
484.28	14230.46
484.46	14597.92
484.64	14551.11
484.82	14431.74
485.00	14665.80
485.18	14841.34
485.35	15150.29
485.53	14890.49
485.71	15061.35
485.89	15288.38
486.07	15281.36
486.25	15234.55
486.43	15550.52
486.61	15831.38
486.78	15480.30
486.96	15700.31
487.14	15903.94
487.32	16056.08
487.50	16432.90
487.68	16311.19
487.85	16683.34
488.03	16655.25
488.21	17022.72
488.39	16622.48
488.57	17135.06
488.75	17118.68
488.92	17488.48
489.10	17390.18
489.28	17621.89
489.46	17652.32
489.64	17818.50
489.81	18214.05
489.99	18125.11
490.17	17984.68
490.35	18382.57
490.53	18508.96
490.70	18412.99
490.88	18698.54
491.06	18618.96
491.24	18705.56
491.41	18618.96
491.59	19147.92
491.77	19398.36
491.95	19550.49
492.13	19578.58
492.30	19611.35
492.48	19723.69
492.66	19777.53
492.84	20011.58
493.01	20130.95
493.19	19957.75
493.37	20166.06
493.54	20540.54
493.72	20549.90
493.90	20702.04
494.08	20521.82
494.25	20713.74
494.43	21198.23
494.61	21081.21
494.79	21139.72
494.96	21109.29
495.14	21530.59
495.32	21465.05
495.49	21699.11
495.67	21654.64
495.85	22071.25
496.02	21991.67
496.20	22143.81
496.38	22611.92
496.55	22176.58
496.73	22841.29
496.91	22604.89
497.09	22803.84
497.26	22993.42
497.44	22824.90
497.62	23414.72
497.79	23094.07
497.97	23122.15
498.14	23414.72
498.32	23637.07
498.50	23494.30
498.67	24173.05
498.85	23543.45
499.03	24266.67
499.20	24095.82
499.38	24226.89
499.56	24294.76
499.73	24196.46
499.91	24662.22
500.08	24503.07
500.26	24559.24
500.44	24739.46
500.61	24802.66
500.79	24531.15
500.97	25207.57
501.14	25179.48
501.32	25146.72
501.49	25008.62
501.67	25200.55
501.84	25729.51
502.02	25460.35
502.20	25345.66
502.37	25544.61
502.55	25530.56
502.72	25603.12
502.90	25727.17
503.07	25706.10
503.25	26260.81
503.43	25905.05
503.60	26359.11
503.78	26548.70
503.95	26319.32
504.13	26628.27
504.30	26831.90
504.48	26614.23
504.65	26813.18
504.83	26967.65
505.01	26874.03
505.18	26869.35
505.36	27190.00
505.53	27122.13
505.71	27587.89
505.88	27445.12
506.06	27330.44
506.23	27419.38
506.41	27672.15
506.58	27620.66
506.76	27527.04
506.93	28168.35
507.11	27454.48
507.28	27814.93
507.46	27962.38
507.63	28128.56
507.81	28435.17
507.98	27894.50
508.16	28533.47
508.33	28360.27
508.50	28313.46
508.68	28481.98
508.85	28872.85
509.03	28980.51
509.20	29015.62
509.38	29067.11
509.55	29205.20
509.73	29275.42
509.90	29273.08
510.08	29228.61
510.25	29542.24
510.42	29818.42
510.60	29577.35
510.77	29635.86
510.95	30167.16
511.12	29937.79
511.30	29851.19
511.47	29951.84
511.64	29802.04
511.82	30274.83
511.99	29841.83
512.17	30494.84
512.34	30235.04
512.51	30429.30
512.69	30670.38
512.86	30391.86
513.04	30951.24
513.21	31061.25
513.38	30972.31
513.56	30600.16
513.73	30916.14
513.90	31367.86
514.08	31143.17
514.25	31248.49
514.43	31316.37
514.60	31550.42
514.77	31529.36
514.95	31924.91
515.12	31562.12
515.29	31447.44
515.47	32016.19
515.64	31871.07
515.81	31924.91
515.99	31976.40
516.16	32236.20
516.33	31845.33
516.51	32606.00
516.68	32444.51
516.85	31948.31
517.03	32446.85
517.20	32390.67
517.37	32287.69
517.54	32856.44
517.72	32847.08
517.89	32844.74
518.06	33024.96
518.24	32680.90
518.41	32734.73
518.58	32964.10
518.75	33017.94
518.93	33294.12
519.10	33003.89
519.27	33406.47
519.45	33490.73
519.62	33544.56
519.79	33802.02
519.96	33549.24
520.14	33450.94
520.31	34019.69
520.48	34206.93
520.65	33832.44
520.83	34352.04
521.00	34080.54
521.17	34157.78
521.34	34242.04
521.52	34387.15
521.69	34284.17
521.86	34728.87
522.03	34787.38
522.20	34431.62
522.38	34951.22
522.55	34656.31
522.72	34682.06
522.89	34920.79
523.07	35344.43
523.24	35173.57
523.41	35093.99
523.58	35175.91
523.75	35641.68
523.92	35143.14
524.10	35199.32
524.27	35232.08
524.44	35629.98
524.61	35672.10
524.78	35906.16
524.96	35988.08
525.13	35255.49
525.30	36107.44
525.47	36290.01
525.64	35751.68
525.81	36474.91
525.98	36046.59
526.16	36320.43
526.33	36350.86
526.50	36400.01
526.67	36046.59
526.84	36266.60
527.01	36521.72
527.18	36732.37
527.36	36762.79
527.53	36538.10
527.70	36917.27
527.87	36935.99
528.04	36631.72
528.21	36886.84
528.38	36910.25
528.55	37277.71
528.72	37163.03
528.89	37308.14
529.07	36769.82
529.24	37296.44
529.41	37116.22
529.58	37055.36
529.75	37537.51
529.92	37500.06
530.09	37448.57
530.26	37462.61
530.43	37750.50
530.60	37933.06
530.77	37591.34
530.94	37944.76
531.11	37591.34
531.28	38019.66
531.46	37577.30
531.63	37778.59
531.80	38000.94
531.97	38150.73
532.14	37961.15
532.31	37954.13
532.48	38316.91
532.65	38319.25
532.82	38557.99
532.99	38075.84
533.16	38307.55
533.33	38501.81
533.50	38609.48
533.67	38452.66
533.84	38534.58
534.01	38415.21
534.18	38696.08
534.35	39110.35
534.52	39180.57
534.69	39702.51
534.86	38873.96
535.03	38763.95
535.20	38960.56
535.37	39445.05
535.54	39594.84
535.71	39194.61
535.88	39147.80
536.05	39241.42
536.22	39618.25
536.38	39812.51
536.55	39328.02
536.72	39608.89
536.89	39269.51
537.06	39693.15
537.23	39871.03
537.40	39770.38
537.57	39746.98
537.74	39782.09
537.91	39709.53
538.08	40055.93
538.25	39950.60
538.42	40098.06
538.59	40102.74
538.75	40144.87
538.92	40119.12
539.09	40449.14
539.26	40425.73
539.43	40730.00
539.60	40418.71
539.77	40493.61
539.94	40636.38
540.11	40231.47
540.28	40835.33
540.44	40542.76
540.61	40547.44
540.78	40315.73
540.95	40514.67
541.12	40580.21
541.29	40769.79
541.46	40783.83
541.62	41280.03
541.79	41247.26
541.96	40678.51
542.13	41081.08
542.30	40898.52
542.47	41109.17
542.63	41031.93
542.80	41219.17
542.97	41392.37
543.14	41631.11
543.31	41642.81
543.48	41354.93
543.64	42171.77
543.81	41900.27
543.98	41748.14
544.15	41490.68
544.32	41858.14
544.48	42335.61
544.65	42131.98
544.82	41731.75
544.99	41675.58
545.16	41897.93
545.32	41874.52
545.49	42443.27
545.66	42754.57
545.83	42204.54
546.00	42550.94
546.16	42033.68
546.33	42174.11
546.50	41947.08
546.67	42494.77
546.83	41977.51
547.00	42581.37
547.17	42300.50
547.34	42803.72
547.50	42981.60
547.67	42653.92
547.84	43007.34
548.00	43112.67
548.17	43473.11
548.34	43030.75
548.51	43320.98
548.67	42969.90
548.84	43166.50
549.01	42997.98
549.18	42983.94
549.34	43353.74
549.51	43519.92
549.68	43309.27
549.84	43075.22
550.01	43384.17
550.18	43260.12
550.34	43152.46
550.51	43246.08
550.68	43540.99
550.84	43768.02
551.01	43615.88
551.18	43494.18
551.34	43299.91
551.51	43798.44
551.68	43597.16
551.84	43835.89
552.01	43428.64
552.18	43800.79
552.34	43739.93
552.51	43845.26
552.68	43854.62
552.84	43770.36
553.01	44055.90
553.18	43812.49
553.34	44123.78
553.51	43913.13
553.67	44142.50
553.84	44673.81
554.01	44306.34
554.17	44133.14
554.34	44641.04
554.51	44327.41
554.67	44851.69
554.84	44507.63
555.00	44189.31
555.17	44109.74
555.33	44610.61
555.50	44065.27
555.67	44495.92
555.83	44594.23
556.00	44570.82
556.16	45261.28
556.33	44863.39
556.50	44322.72
556.66	44683.17
556.83	44505.29
556.99	45024.89
557.16	45272.98
557.32	44868.07
557.49	45233.19
557.65	44194.00
557.82	44900.84
557.98	44847.00
558.15	45249.58
558.32	44811.90
558.48	44664.44
558.65	44865.73
558.81	45287.03
558.98	44961.69
559.14	44851.69
559.31	45170.00
559.47	45170.00
559.64	45366.60
559.80	45078.72
559.97	45303.41
560.13	44933.60
560.30	44926.58
560.46	45736.41
560.63	45996.21
560.79	45422.78
560.96	45916.63
561.12	45755.13
561.29	45542.14
561.45	45628.74
561.61	45291.71
561.78	45691.94
561.94	45289.37
562.11	45284.68
562.27	45607.68
562.44	45184.04
562.60	45687.26
562.77	45769.18
562.93	45558.53
563.10	45832.37
563.26	45626.40
563.42	46150.68
563.59	45432.14
563.75	45701.30
563.92	45329.16
564.08	45757.47
564.24	45818.33
564.41	45830.03
564.57	46073.45
564.74	45790.24
564.90	45841.73
565.07	45867.48
565.23	46127.28
565.39	46068.76
565.56	46445.59
565.72	46061.74
565.88	45815.99
566.05	45867.48
566.21	46487.72
566.38	46005.57
566.54	46476.02
566.70	46117.92
566.87	46157.70
567.03	45588.95
567.19	46307.50
567.36	46115.58
567.52	46047.70
567.68	46471.34
567.85	45984.51
568.01	46616.45
568.17	45996.21
568.34	46429.21
568.50	46686.67
568.66	46204.52
568.83	46344.95
568.99	46124.94
569.15	46164.73
569.32	46604.75
569.48	46506.44
569.64	46398.78
569.81	46117.92
569.97	46349.63
570.13	46148.34
570.30	46401.12
570.46	46464.32
570.62	46452.61
570.78	46375.37
570.95	46291.12
571.11	46518.15
571.27	46230.26
571.43	46253.67
571.60	46614.11
571.76	46415.16
571.92	46384.74
572.09	46185.79
572.25	46415.16
572.41	46457.29
572.57	46459.63
572.74	47063.49
572.90	46728.80
573.06	46518.15
573.22	47042.43
573.38	46834.12
573.55	47012.00
573.71	46831.78
573.87	46567.30
574.03	46586.02
574.20	47040.09
574.36	46597.73
574.52	47168.82
574.68	46726.46
574.84	47002.64
575.01	46724.11
575.17	46976.89
575.33	46927.74
575.49	46873.91
575.65	47037.75
575.82	46990.94
575.98	46454.95
576.14	47047.11
576.30	46717.09
576.46	46824.76
576.62	47079.88
576.79	47199.24
576.95	46679.64
577.11	46557.94
577.27	47030.72
577.43	46817.74
577.59	47012.00
577.75	46721.77
577.92	46906.68
578.08	46319.20
578.24	46918.38
578.40	47299.89
578.56	47250.74
578.72	46700.71
578.88	47222.65
579.04	46890.29
579.21	46707.73
579.37	46817.74
579.53	47171.16
579.69	46714.75
579.85	46960.51
580.01	47374.78
580.17	47124.35
580.33	47133.71
580.49	46506.44
580.65	46581.34
580.82	47147.75
580.98	47164.14
581.14	46775.61
581.30	47091.58
581.46	46410.48
581.62	46803.69
581.78	46871.57
581.94	47030.72
582.10	46986.25
582.26	47573.73
582.42	47122.01
582.58	46990.94
582.74	47220.31
582.90	47145.41
583.06	47412.23
583.22	46913.70
583.38	47023.70
583.54	46990.94
583.70	47136.05
583.86	46988.60
584.02	47016.68
584.18	47370.10
584.34	47718.84
584.50	47180.52
584.66	47192.22
584.82	47044.77
584.98	47576.07
585.14	47117.32
585.30	47313.93
585.46	47002.64
585.62	47030.72
585.78	47028.38
585.94	46906.68
586.10	47356.06
586.26	47239.03
586.42	47016.68
586.58	47147.75
586.74	47304.57
586.90	47065.83
587.06	47309.25
587.22	47117.32
587.38	47255.42
587.54	47194.56
587.70	47236.69
587.86	46925.40
588.02	47538.62
588.18	47187.54
588.34	47239.03
588.49	47662.67
588.65	47199.24
588.81	47182.86
588.97	47533.94
589.13	47524.58
589.29	47707.14
589.45	47327.97
589.61	47201.58
589.77	47459.04
589.93	47524.58
590.08	47047.11
590.24	47667.35
590.40	47739.91
590.56	47847.57
590.72	47639.26
590.88	47555.00
591.04	47524.58
591.20	47969.28
591.35	47730.54
591.51	47957.58
591.67	47798.42
591.83	47798.42
591.99	47784.38
592.15	47868.64
592.31	47999.71
592.46	47304.57
592.62	47346.70
592.78	47725.86
592.94	48142.48
593.10	47943.53
593.26	47845.23
593.41	48093.33
593.57	47798.42
593.73	48006.73
593.89	48257.17
594.05	48079.28
594.20	47906.08
594.36	47976.30
594.52	48327.38
594.68	47728.20
594.84	47599.47
594.99	47753.95
595.15	48177.59
595.31	48088.65
595.47	47325.63
595.62	47723.52
595.78	47782.04
595.94	47627.56
596.10	47730.54
596.25	48163.54
596.41	47957.58
596.57	47702.46
596.73	48240.78
596.88	48259.51
597.04	48053.54
597.20	47716.50
597.36	48156.52
597.51	48142.48
597.67	47606.50
597.83	47784.38
597.99	47739.91
598.14	48467.81
598.30	47730.54
598.46	47791.40
598.61	48268.87
598.77	47653.31
598.93	48081.63
599.09	47915.45
599.24	48699.53
599.40	48257.17
599.56	48247.80
599.71	48212.70
599.87	48048.86
600.03	48252.48
600.18	48116.73
600.34	48142.48
600.50	48741.66
600.65	47555.00
600.81	48325.04
600.97	48273.55
601.12	47957.58
601.28	47915.45
601.44	47966.94
601.59	48388.24
601.75	47817.14
601.91	48193.97
602.06	47922.47
602.22	48390.58
602.37	48116.73
602.53	48341.42
602.69	48020.77
602.84	48413.98
603.00	48147.16
603.16	47936.51
603.31	47948.21
603.47	47995.03
603.62	47878.00
603.78	48186.95
603.94	47973.96
604.09	48271.21
604.25	48287.59
604.40	47964.60
604.56	48308.66
604.71	48556.75
604.87	47763.31
605.03	47840.55
605.18	48055.88
605.34	48013.75
605.49	47632.24
605.65	47833.53
605.80	47842.89
605.96	48231.42
606.12	47573.73
606.27	48163.54
606.43	47594.79
606.58	48018.43
606.74	47491.81
606.89	48044.18
607.05	48105.03
607.20	47828.85
607.36	48046.52
607.51	47971.62
607.67	48020.77
607.82	47901.40
607.98	47856.93
608.13	47735.23
608.29	48016.09
608.44	48151.84
608.60	47704.80
608.75	48119.07
608.91	48067.58
609.06	47496.49
609.22	48030.13
609.37	47578.41
609.53	48048.86
609.68	47753.95
609.84	47662.67
609.99	47988.00
610.15	47784.38
610.30	48109.71
610.46	47716.50
610.61	47969.28
610.76	47931.83
610.92	47615.86
611.07	47304.57
611.23	47498.83
611.38	47875.66
611.54	47992.68
611.69	48048.86
611.84	47870.98
612.00	47775.02
612.15	47611.18
612.31	47878.00
612.46	47292.86
612.62	47363.08
612.77	47735.23
612.92	47765.65
613.08	47632.24
613.23	47835.87
613.39	47538.62
613.54	47409.89
613.69	47430.96
613.85	47440.32
614.00	47559.69
614.15	47416.91
614.31	47501.17
614.46	47208.61
614.62	46988.60
614.77	47164.14
614.92	47374.78
615.08	47466.06
615.23	47508.19
615.38	47508.19
615.54	47667.35
615.69	47447.34
615.84	47503.51
616.00	47564.37
616.15	47463.72
616.30	47758.63
616.46	47313.93
616.61	47084.56
616.76	47365.42
616.92	47206.26
617.07	47215.63
617.22	47175.84
617.37	46857.52
617.53	46850.50
617.68	46862.21
617.83	46986.25
617.99	47086.90
618.14	47323.29
618.29	46506.44
618.45	46635.17
618.60	47161.79
618.75	46609.43
618.90	46951.15
619.06	47004.98
619.21	46775.61
619.36	47248.39
619.51	46366.01
619.67	46738.16
619.82	46569.64
619.97	47234.35
620.12	46609.43
620.28	46567.30
620.43	47185.20
620.58	46829.44
620.73	46946.47
620.89	47199.24
621.04	46873.91
621.19	46735.82
621.34	46459.63
621.49	46483.04
621.65	46740.50
621.80	46789.65
621.95	46904.34
622.10	46782.63
622.25	46419.84
622.41	46080.47
622.56	46738.16
622.71	46424.53
622.86	46663.26
623.01	46813.05
623.16	46218.56
623.32	46059.40
623.47	46810.71
623.62	46466.66
623.77	46457.29
623.92	46412.82
624.07	46450.27
624.23	46742.84
624.38	46646.88
624.53	46291.12
624.68	45888.54
624.83	46153.02
624.98	46183.45
625.13	45591.30
625.29	46241.96
625.44	46277.07
625.59	45577.25
625.74	46160.05
625.89	45551.51
626.04	46021.95
626.19	46108.55
626.34	45584.27
626.49	45448.52
626.65	45911.95
626.80	45687.26
626.95	45635.77
627.10	45308.09
627.25	45872.16
627.40	45507.04
627.55	45961.10
627.70	45577.25
627.85	45937.69
628.00	45839.39
628.15	45750.45
628.30	45338.52
628.45	45008.50
628.60	45263.62
628.76	45181.70
628.91	45408.73
629.06	45146.59
629.21	45294.05
629.36	44980.42
629.51	45448.52
629.66	45530.44
629.81	45804.28
629.96	45556.19
630.11	45296.39
630.26	44662.10
630.41	45294.05
630.56	45205.11
630.71	44814.24
630.86	45006.16
631.01	45034.25
631.16	45195.74
631.31	45141.91
631.46	44734.66
631.61	45256.60
631.76	45205.11
631.91	45006.16
632.06	45198.09
632.21	45207.45
632.36	45418.10
632.51	44669.12
632.66	45088.08
632.81	45071.70
632.96	44676.15
633.10	44744.02
633.25	44676.15
633.40	45111.49
633.55	45181.70
633.70	44975.73
633.85	44825.94
634.00	44842.32
634.15	44383.58
634.30	44575.50
634.45	44456.14
634.60	44676.15
634.75	44554.44
634.90	44474.86
635.05	44994.46
635.19	44889.13
635.34	44828.28
635.49	44421.03
635.64	44488.90
635.79	44767.43
635.94	44086.33
636.09	44629.34
636.24	44411.67
636.39	44381.24
636.53	44442.09
636.68	44325.07
636.83	43901.43
636.98	43653.33
637.13	44128.46
637.28	44271.23
637.43	44023.14
637.57	44453.79
637.72	43866.32
637.87	44114.42
638.02	44119.10
638.17	44016.11
638.32	44060.58
638.46	43721.21
638.61	43746.95
638.76	43674.40
638.91	44201.02
639.06	43679.08
639.20	43611.20
639.35	43545.67
639.50	43496.52
639.65	43957.60
639.80	44079.31
639.94	43459.07
640.09	43662.69
640.24	43863.98
640.39	43065.86
640.54	43213.31
640.68	43758.66
640.83	43847.60
640.98	43688.44
641.13	43475.45
641.27	43770.36
641.42	43777.38
641.57	43440.34
641.72	43454.39
641.86	43496.52
642.01	43016.71
642.16	43117.35
642.31	43260.12
642.45	43283.53
642.60	43239.06
642.75	43079.90
642.90	43571.41
643.04	42710.10
643.19	43257.78
643.34	43269.48
643.48	42939.47
643.63	42887.98
643.78	42904.36
643.93	42700.73
644.07	43285.87
644.22	43061.18
644.37	42962.87
644.51	43042.45
644.66	42899.68
644.81	42391.78
644.95	42756.91
645.10	43093.94
645.25	42396.46
645.39	42604.77
645.54	42635.20
645.69	42656.26
645.83	42272.42
645.98	42784.99
646.13	42464.34
646.27	42880.95
646.42	42003.25
646.57	42855.21
646.71	43063.52
646.86	42852.87
647.00	42918.40
647.15	42476.04
647.30	42799.04
647.44	42539.24
647.59	42564.98
647.74	42218.58
647.88	42312.20
648.03	42604.77
648.17	42726.48
648.32	42693.71
648.47	42478.38
648.61	42457.32
648.76	42581.37
648.90	42031.34
649.05	42394.12
649.20	42157.73
649.34	42190.50
649.49	42593.07
649.63	42534.56
649.78	42040.70
649.92	42066.45
650.07	42759.25
650.21	41832.39
650.36	42380.08
650.51	42335.61
650.65	42389.44
650.80	42644.56
650.94	42225.60
651.09	41764.52
651.23	41607.70
651.38	41565.57
651.52	41394.71
651.67	41867.50
651.81	41783.24
651.96	41759.84
652.10	40966.40
652.25	41612.38
652.39	41722.39
652.54	41310.46
652.68	41338.54
652.83	41708.35
652.97	42122.62
653.12	41631.11
653.26	41698.98
653.41	41427.48
653.55	41539.83
653.70	41823.03
653.84	41317.48
653.99	41703.67
654.13	41572.60
654.27	41305.77
654.42	41024.91
654.56	41003.85
654.71	41062.36
654.85	41436.84
655.00	41439.18
655.14	41542.17
655.29	41371.31
655.43	41343.22
655.57	41057.68
655.72	41134.92
655.86	41537.49
656.01	40704.26
656.15	40605.95
656.30	40467.86
656.44	41031.93
656.58	41078.74
656.73	40978.10
656.87	40467.86
657.01	40395.31
657.16	40437.44
657.30	40638.72
657.45	41067.04
657.59	40381.26
657.73	40280.62
657.88	40437.44
658.02	40825.96
658.16	40919.59
658.31	40638.72
658.45	40662.13
658.60	39959.97
658.74	40395.31
658.88	40886.82
659.03	40308.71
659.17	40156.57
659.31	39906.13
659.46	40027.84
659.60	40156.57
659.74	39955.29
659.89	39533.99
660.03	39756.34
660.17	40376.58
660.32	39819.53
660.46	39992.73
660.60	39363.13
660.74	39669.74
660.89	39922.52
661.03	39512.92
661.17	39257.81
661.32	39541.01
661.46	39653.36
661.60	39297.59
661.74	39505.90
661.89	39119.71
662.03	39487.18
662.17	39021.41
662.31	39215.68
662.46	38909.07
662.60	38909.07
662.74	38651.61
662.88	38850.55
663.03	38670.33
663.17	38637.56
663.31	38607.14
663.45	38817.78
663.60	39009.71
663.74	39063.54
663.88	38749.91
664.02	38347.34
664.17	38866.94
664.31	38770.97
664.45	38525.22
664.59	38918.43
664.73	38635.22
664.88	38263.08
665.02	38450.32
665.16	38478.41
665.30	38244.35
665.44	38260.74
665.59	37923.70
665.73	38075.84
665.87	37794.97
666.01	37914.34
666.15	38085.20
666.29	37820.72
666.44	37785.61
666.58	37581.98
666.72	37350.27
666.86	37794.97
667.00	37394.74
667.14	37186.43
667.28	37310.48
667.43	36917.27
667.57	37439.21
667.71	37530.49
667.85	37942.42
667.99	37340.91
668.13	37158.34
668.27	36842.37
668.41	36933.65
668.56	36458.52
668.70	36561.51
668.84	36477.25
668.98	36170.64
669.12	36851.73
669.26	36519.38
669.40	36769.82
669.54	36290.01
669.68	36425.76
669.82	36032.55
669.96	36168.30
670.10	35812.54
670.25	36020.84
670.39	35920.20
670.53	36327.45
670.67	35688.49
670.81	36369.58
670.95	36004.46
671.09	36144.89
671.23	35302.30
671.37	35438.05
671.51	35503.59
671.65	35690.83
671.79	35461.46
671.93	35559.76
672.07	35543.38
672.21	35559.76
672.35	35529.33
672.49	35332.73
672.63	35658.06
672.77	34768.66
672.91	35321.02
673.05	34649.29
673.19	34637.59
673.33	34359.06
673.47	34672.70
673.61	34506.52
673.75	33989.26
673.89	34394.17
674.03	34316.93
674.17	34071.18
674.31	33249.65
674.45	33965.85
674.59	33319.87
674.73	34071.18
674.87	33736.48
675.01	33373.70
675.15	33593.71
675.29	33296.46
675.43	33383.06
675.56	33244.97
675.70	33390.08
675.84	33319.87
675.98	31955.33
676.12	33113.90
676.26	33479.02
676.40	32685.58
676.54	32575.58
676.68	32521.74
676.82	32091.09
676.96	32332.16
677.10	32627.07
677.23	32271.31
677.37	32217.47
677.51	31543.40
677.65	31957.67
677.79	32156.62
677.93	32133.21
678.07	31826.60
678.21	31527.02
678.34	31608.93
678.48	31009.76
678.62	31208.70
678.76	30918.48
678.90	31311.69
679.04	31325.73
679.18	31428.71
679.31	31077.63
679.45	30492.50
679.59	30764.00
679.73	31075.29
679.87	30511.22
680.00	30295.89
680.14	30160.14
680.28	30359.09
680.42	30221.00
680.56	29951.84
680.70	30213.98
680.83	29696.72
680.97	29628.84
681.11	29883.96
681.25	29193.50
681.39	29380.74
681.52	29308.19
681.66	29036.69
681.80	29008.60
681.94	28383.68
682.07	28510.07
682.21	28615.39
682.35	28666.88
682.49	28510.07
682.62	28528.79
682.76	28364.95
682.90	28830.72
683.04	28582.62
683.17	28325.16
683.31	28109.83
683.45	27487.25
683.59	27948.34
683.72	27744.71
683.86	27449.80
684.00	27601.94
684.13	27854.72
684.27	27393.63
684.41	27468.53
684.55	27281.28
684.68	27222.77
684.82	26735.94
684.96	26969.99
685.09	26855.31
685.23	26918.50
685.37	27136.17
685.50	27087.02
685.64	26930.20
685.78	26260.81
685.91	26319.32
686.05	25874.62
686.19	25680.36
686.32	25696.74
686.46	25481.41
686.60	25724.83
686.73	25722.49
686.87	25663.97
687.01	25406.52
687.14	25624.18
687.28	25352.68
687.42	25282.47
687.55	25092.88
687.69	24907.98
687.82	24861.17
687.96	24648.18
688.10	24755.85
688.23	24584.99
688.37	24900.96
688.50	24915.00
688.64	24313.48
688.78	24339.23
688.91	24086.45
689.05	24322.85
689.18	23690.90
689.32	23676.86
689.46	23665.16
689.59	23924.96
689.73	23927.30
689.86	23765.80
690.00	23901.55
690.13	23433.44
690.27	22881.08
690.41	23215.77
690.54	22948.95
690.68	22993.42
690.81	22642.34
690.95	22937.25
691.08	22607.23
691.22	22530.00
691.35	22380.20
691.49	22583.83
691.62	22759.37
691.76	22335.73
691.89	22071.25
692.03	21624.21
692.16	21923.80
692.30	22246.79
692.43	21933.16
692.57	21518.89
692.70	21612.51
692.84	21228.66
692.97	21195.89
693.11	21429.94
693.24	20994.61
693.38	21163.12
693.51	21048.44
693.65	21034.39
693.78	20610.76
693.92	20732.47
694.05	20685.65
694.19	20496.07
694.32	20786.30
694.45	21034.39
694.59	20622.46
694.72	20575.65
694.86	20217.55
694.99	20201.16
695.13	19697.95
695.26	19726.04
695.39	19623.05
695.53	19756.46
695.66	19531.77
695.80	19496.66
695.93	19679.22
696.07	19262.61
696.20	19070.68
696.33	18897.49
696.47	18911.53
696.60	18661.09
696.73	18871.74
696.87	19094.09
697.00	18932.59
697.14	19044.94
697.27	18422.36
697.40	18368.52
697.54	18539.38
697.67	18223.41
697.80	18387.25
697.94	18244.48
698.07	18054.89
698.21	18141.49
698.34	17940.21
698.47	17621.89
698.61	17628.92
698.74	17605.51
698.87	17394.86
699.01	17233.36
699.14	17547.00
699.27	17195.92
699.40	17130.38
699.54	17268.47
699.67	17338.69
699.80	17181.87
699.94	17043.78
700.07	16884.62
700.20	16992.29
700.34	16683.34
700.47	16472.69
700.60	16718.45
700.73	16769.94
700.87	16329.92
701.00	16035.01
701.13	16086.50
701.26	16016.29
701.40	15852.45
701.53	15733.08
701.66	15892.24
701.79	16093.52
701.93	15704.99
702.06	15552.86
702.19	15477.96
702.32	15597.33
702.46	15510.73
702.59	15733.08
702.72	15791.59
702.85	15562.22
702.99	15007.52
703.12	14967.73
703.25	15091.77
703.38	14754.74
703.51	15030.92
703.65	14766.44
703.78	14864.74
703.91	14546.43
704.04	14256.20
704.17	14682.18
704.31	14406.00
704.44	14417.70
704.57	14230.46
704.70	14391.95
704.83	14207.05
704.96	14094.71
705.10	14052.58
705.23	13895.76
>>>>>End Processed Spectral Data<<<<<
