SpectraSuite Data File
++++++++++++++++++++++++++++++++++++
Date: Fri Oct 25 10:44:09 EDT 2013
User: price-jones
Dark Spectrum Present: No
Reference Spectrum Present: No
Number of Sampled Component Spectra: 1
Spectrometers: USB2+H05261
Integration Time (usec): 100000 (USB2+H05261)
Spectra Averaged: 1 (USB2+H05261)
Boxcar Smoothing: 0 (USB2+H05261)
Correct for Electrical Dark: No (USB2+H05261)
Strobe/Lamp Enabled: No (USB2+H05261)
Correct for Detector Non-linearity: No (USB2+H05261)
Correct for Stray Light: No (USB2+H05261)
Number of Pixels in Processed Spectrum: 2048
>>>>>Begin Processed Spectral Data<<<<<
365.73	142.77
365.92	142.77
366.12	142.77
366.32	39.79
366.52	0.00
366.72	65.54
366.91	14.04
367.11	39.79
367.31	18.72
367.51	0.00
367.70	4.68
367.90	16.38
368.10	70.22
368.30	39.79
368.49	49.15
368.69	46.81
368.89	18.72
369.09	72.56
369.28	53.83
369.48	58.51
369.68	84.26
369.87	67.88
370.07	60.85
370.27	81.92
370.47	273.84
370.66	383.85
370.86	404.91
371.06	421.30
371.25	531.30
371.45	395.55
371.65	472.79
371.84	477.47
372.04	510.24
372.24	470.45
372.44	440.02
372.63	463.43
372.83	519.60
373.03	454.06
373.22	517.26
373.42	477.47
373.62	535.98
373.81	545.34
374.01	486.83
374.21	543.00
374.40	496.19
374.60	465.77
374.79	528.96
374.99	627.26
375.19	589.82
375.38	617.90
375.58	634.29
375.78	575.77
375.97	561.73
376.17	589.82
376.37	521.94
376.56	676.41
376.76	629.60
376.95	657.69
377.15	571.09
377.35	667.05
377.54	578.11
377.74	667.05
377.93	636.63
378.13	664.71
378.33	725.57
378.52	629.60
378.72	653.01
378.91	596.84
379.11	634.29
379.31	697.48
379.50	643.65
379.70	718.54
379.89	720.88
380.09	720.88
380.28	608.54
380.48	748.97
380.68	699.82
380.87	657.69
381.07	688.12
381.26	716.20
381.46	674.07
381.65	643.65
381.85	674.07
382.04	713.86
382.24	699.82
382.43	664.71
382.63	716.20
382.83	655.35
383.02	774.72
383.22	751.31
383.41	763.01
383.61	718.54
383.80	763.01
384.00	779.40
384.19	894.08
384.39	821.53
384.58	781.74
384.78	779.40
384.97	812.17
385.17	791.10
385.36	770.04
385.56	844.93
385.75	770.04
385.95	802.80
386.14	840.25
386.34	814.51
386.53	887.06
386.72	807.48
386.92	854.30
387.11	929.19
387.31	791.10
387.50	870.68
387.70	915.15
387.89	875.36
388.09	870.68
388.28	889.40
388.48	868.34
388.67	915.15
388.86	961.96
389.06	894.08
389.25	1027.50
389.45	950.26
389.64	936.21
389.84	992.39
390.03	1006.43
390.22	957.28
390.42	891.74
390.61	929.19
390.81	968.98
391.00	987.71
391.19	1097.71
391.39	1064.94
391.58	1013.45
391.78	1027.50
391.97	1006.43
392.16	976.00
392.36	1062.60
392.55	952.60
392.75	1022.81
392.94	1018.13
393.13	1048.56
393.33	1083.67
393.52	1018.13
393.71	1076.65
393.91	1020.47
394.10	1022.81
394.29	1186.65
394.49	1036.86
394.68	1233.46
394.88	1186.65
395.07	1289.64
395.26	1294.32
395.46	1226.44
395.65	1181.97
395.84	1174.95
396.04	1203.04
396.23	1188.99
396.42	1050.90
396.62	1170.27
396.81	1210.06
397.00	1277.93
397.19	1242.82
397.39	1296.66
397.58	1317.72
397.77	1317.72
397.97	1336.45
398.16	1397.30
398.35	1430.07
398.55	1373.89
398.74	1519.01
398.93	1549.43
399.12	1516.67
399.32	1413.68
399.51	1446.45
399.70	1561.14
399.90	1568.16
400.09	1652.42
400.28	1643.06
400.47	1579.86
400.67	1724.97
400.86	1523.69
401.05	1610.29
401.24	1668.80
401.44	1696.89
401.63	1788.17
401.82	1720.29
402.01	1689.87
402.21	1722.63
402.40	1624.33
402.59	1654.76
402.78	1724.97
402.97	1748.38
403.17	1746.04
403.36	1701.57
403.55	1823.28
403.74	1877.11
403.93	1783.49
404.13	1811.57
404.32	1795.19
404.51	1816.26
404.70	1963.71
404.89	1844.34
405.09	1956.69
405.28	1944.99
405.47	1858.39
405.66	1970.73
405.85	1909.88
406.05	1898.17
406.24	2064.35
406.43	2092.44
406.62	2120.53
406.81	2064.35
407.00	2047.97
407.20	2036.27
407.39	2073.71
407.58	2122.87
407.77	2125.21
407.96	2136.91
408.15	2169.68
408.34	2181.38
408.54	2073.71
408.73	2256.28
408.92	2146.27
409.11	2317.13
409.30	2340.54
409.49	2218.83
409.68	2296.07
409.87	2296.07
410.07	2415.43
410.26	2300.75
410.45	2492.67
410.64	2392.03
410.83	2417.77
411.02	2473.95
411.21	2511.39
411.40	2480.97
411.59	2656.51
411.78	2576.93
411.98	2583.95
412.17	2579.27
412.36	2686.94
412.55	2675.23
412.74	2602.68
412.93	2689.28
413.12	2612.04
413.31	2902.26
413.50	2789.92
413.69	2853.11
413.88	2712.68
414.07	2932.69
414.26	2916.31
414.45	2888.22
414.64	2951.42
414.83	3068.44
415.02	2951.42
415.22	3115.25
415.41	3049.72
415.60	3056.74
415.79	3056.74
415.98	3171.43
416.17	3136.32
416.36	3283.77
416.55	3213.56
416.74	3232.28
416.93	3185.47
417.12	3248.66
417.31	3246.32
417.50	3234.62
417.69	3358.67
417.88	3389.10
418.07	3279.09
418.26	3370.37
418.45	3471.01
418.64	3478.04
418.83	3473.36
419.02	3597.40
419.21	3496.76
419.39	3550.59
419.58	3655.92
419.77	3461.65
419.96	3543.57
420.15	3723.79
420.34	3566.98
420.53	3562.30
420.72	3672.30
420.91	3808.05
421.10	3765.92
421.29	3852.52
421.48	3723.79
421.67	3721.45
421.86	3679.32
422.05	3775.28
422.24	3702.73
422.43	3836.14
422.61	3805.71
422.80	3899.33
422.99	3819.75
423.18	3845.50
423.37	4051.47
423.56	3822.09
423.75	3911.04
423.94	3810.39
424.13	3756.56
424.32	3801.03
424.50	3950.82
424.69	3915.72
424.88	3999.98
425.07	3817.41
425.26	3857.20
425.45	3885.29
425.64	3929.76
425.83	3889.97
426.01	3852.52
426.20	4002.32
426.39	4035.08
426.58	4067.85
426.77	3936.78
426.96	3936.78
427.15	3967.21
427.33	4035.08
427.52	3967.21
427.71	4086.58
427.90	4168.49
428.09	4107.64
428.28	3964.87
428.46	4070.19
428.65	4088.92
428.84	4142.75
429.03	4140.41
429.22	4058.49
429.40	4175.52
429.59	4100.62
429.78	3899.33
429.97	3922.74
430.16	3922.74
430.34	4044.45
430.53	4091.26
430.72	4168.49
430.91	4269.14
431.10	4437.66
431.28	4573.41
431.47	4458.72
431.66	4514.89
431.85	4465.74
432.03	4606.17
432.22	4685.75
432.41	4517.23
432.60	4557.02
432.79	4641.28
432.97	4805.12
433.16	4706.82
433.35	4664.69
433.54	4671.71
433.72	4596.81
433.91	4482.13
434.10	4690.43
434.28	4781.71
434.47	4786.40
434.66	4840.23
434.85	5078.96
435.03	4753.63
435.22	4784.06
435.41	4950.23
435.59	5123.43
435.78	5034.49
435.97	5203.01
436.16	5008.75
436.34	5027.47
436.53	5139.82
436.72	5125.77
436.90	5011.09
437.09	5165.56
437.28	5004.07
437.46	5139.82
437.65	5102.37
437.84	5041.51
438.02	5207.69
438.21	5085.98
438.40	4971.30
438.58	5163.22
438.77	5329.40
438.96	5320.04
439.14	5488.56
439.33	5731.97
439.52	5675.80
439.70	5481.53
439.89	5593.88
440.08	5687.50
440.26	5633.67
440.45	5600.90
440.63	5860.70
440.82	5947.30
441.01	5816.23
441.19	5912.19
441.38	5991.77
441.57	6150.93
441.75	6052.63
441.94	6305.40
442.12	6361.58
442.31	6403.71
442.50	6354.55
442.68	6232.85
442.87	6310.08
443.05	6179.01
443.24	6359.24
443.43	6293.70
443.61	6516.05
443.80	6506.69
443.98	6319.45
444.17	6370.94
444.35	6478.60
444.54	6679.89
444.73	6483.28
444.91	6387.32
445.10	6443.49
445.28	6434.13
445.47	6225.82
445.65	6527.75
445.84	6394.34
446.02	6595.63
446.21	6448.18
446.39	6422.43
446.58	6497.33
446.77	6455.20
446.95	6422.43
447.14	6626.06
447.32	6675.21
447.51	6656.48
447.69	6602.65
447.88	6511.37
448.06	6595.63
448.25	6562.86
448.43	6597.97
448.62	6715.00
448.80	6513.71
448.99	6923.30
449.17	6803.94
449.36	6740.74
449.54	6986.50
449.73	6935.01
449.91	6932.67
450.10	6984.16
450.28	7204.17
450.46	7117.57
450.65	7187.79
450.83	7140.97
451.02	6981.82
451.20	7140.97
451.39	7143.32
451.57	7131.61
451.76	6970.12
451.94	7164.38
452.13	7215.87
452.31	7248.64
452.49	6876.49
452.68	7419.50
452.86	7096.50
453.05	7164.38
453.23	7283.75
453.42	6946.71
453.60	7178.42
453.78	7520.14
453.97	7321.20
454.15	7300.13
454.34	7349.28
454.52	7421.84
454.70	7384.39
454.89	7435.88
455.07	7499.08
455.26	7496.74
455.44	7609.08
455.62	7754.19
455.81	7721.43
455.99	7714.41
456.17	7606.74
456.36	7639.51
456.54	7819.73
456.73	7918.03
456.91	7990.59
457.09	8065.49
457.28	8372.10
457.46	7859.52
457.64	8180.17
457.83	8072.51
458.01	8056.12
458.19	8138.04
458.38	8074.85
458.56	8205.92
458.74	8131.02
458.93	8175.49
459.11	8369.76
459.29	8315.92
459.48	8297.20
459.66	8311.24
459.84	8308.90
460.03	8444.65
460.21	8528.91
460.39	8215.28
460.57	8365.07
460.76	8416.57
460.94	8540.61
461.12	8484.44
461.31	8507.85
461.49	8683.39
461.67	8514.87
461.85	8734.88
462.04	8713.81
462.22	8809.78
462.40	8830.84
462.59	8688.07
462.77	8968.93
462.95	9029.79
463.13	8762.97
463.32	8767.65
463.50	9032.13
463.68	8917.44
463.86	8992.34
464.05	8912.76
464.23	8870.63
464.41	8940.85
464.59	8945.53
464.78	9146.81
464.96	9104.68
465.14	8959.57
465.32	9107.02
465.50	9221.71
465.69	9303.63
465.87	9048.51
466.05	9135.11
466.23	8940.85
466.41	9041.49
466.60	9121.07
466.78	8896.38
466.96	9097.66
467.14	9174.90
467.32	9320.01
467.51	9392.57
467.69	9221.71
467.87	9317.67
468.05	9516.62
468.23	9331.72
468.41	9322.35
468.60	9383.21
468.78	9378.53
468.96	9516.62
469.14	9694.50
469.32	9666.41
469.50	9317.67
469.69	9769.40
469.87	9970.68
470.05	9701.52
470.23	9795.14
470.41	9771.74
470.59	9872.38
470.77	9846.63
470.95	9895.78
471.14	9973.02
471.32	9818.55
471.50	10012.81
471.68	10296.02
471.86	10464.54
472.04	10427.09
472.22	10506.66
472.40	10090.05
472.58	10211.76
472.77	10382.62
472.95	10324.10
473.13	10478.58
473.31	10338.15
473.49	10354.53
473.67	10668.16
473.85	10717.31
474.03	11052.01
474.21	10986.47
474.39	10696.25
474.57	10801.57
474.75	11061.37
474.93	10984.13
475.12	11040.31
475.30	11300.11
475.48	11257.98
475.66	11094.14
475.84	11164.36
476.02	11239.25
476.20	11283.72
476.38	11382.03
476.56	11775.24
476.74	11948.43
476.92	11475.65
477.10	11770.55
477.28	11962.48
477.46	12222.28
477.64	11943.75
477.82	12472.71
478.00	12425.90
478.18	12304.20
478.36	12463.35
478.54	12641.23
478.72	12601.44
478.90	12732.51
479.08	12788.69
479.26	12940.82
479.44	13151.47
479.62	13163.17
479.80	13118.70
479.98	13242.75
480.16	13544.68
480.34	13217.01
480.52	13888.74
480.70	13715.54
480.88	13387.86
481.06	13706.18
481.24	13834.91
481.41	13987.04
481.59	14218.75
481.77	14413.02
481.95	13870.01
482.13	14204.71
482.31	14623.67
482.49	14785.16
482.67	14516.00
482.85	14637.71
483.03	15145.61
483.21	15161.99
483.39	15248.59
483.57	15082.41
483.74	15344.55
483.92	15337.53
484.10	15597.33
484.28	15934.37
484.46	15999.90
484.64	16067.78
484.82	15758.83
485.00	16030.33
485.18	16365.03
485.35	16397.79
485.53	16140.33
485.71	16084.16
485.89	16163.74
486.07	16320.56
486.25	16690.36
486.43	16575.67
486.61	16893.99
486.78	16912.71
486.96	17200.60
487.14	17394.86
487.32	17750.62
487.50	17902.76
487.68	17841.90
487.85	18504.28
488.03	18171.92
488.21	18366.18
488.39	18221.07
488.57	18441.08
488.75	18773.44
488.92	18951.32
489.10	19063.66
489.28	19094.09
489.46	19716.67
489.64	19585.60
489.81	19728.38
489.99	20053.71
490.17	20081.80
490.35	20290.10
490.53	20348.62
490.70	19924.98
490.88	20222.23
491.06	20790.98
491.24	20444.58
491.41	20910.35
491.59	20575.65
491.77	20680.97
491.95	20828.43
492.13	21163.12
492.30	21128.02
492.48	21722.51
492.66	21582.08
492.84	21626.55
493.01	21998.70
493.19	21766.98
493.37	21965.93
493.54	22218.71
493.72	22300.62
493.90	22621.28
494.08	22532.34
494.25	22885.76
494.43	22820.22
494.61	23466.21
494.79	23234.50
494.96	23183.01
495.14	23070.66
495.32	23410.04
495.49	23386.63
495.67	23608.98
495.85	23711.97
496.02	24107.52
496.20	24133.26
496.38	24023.26
496.55	24400.08
496.73	24842.45
496.91	24603.71
497.09	24737.12
497.26	25067.14
497.44	24650.52
497.62	25029.69
497.79	25188.85
497.97	24907.98
498.14	25205.23
498.32	25305.87
498.50	25647.59
498.67	25862.92
498.85	26380.18
499.03	26185.91
499.20	25879.30
499.38	26429.33
499.56	26490.18
499.73	26298.26
499.91	26621.25
500.08	26043.14
500.26	26288.90
500.44	26487.84
500.61	26419.97
500.79	26214.00
500.97	26789.77
501.14	27105.74
501.32	26974.67
501.49	26951.27
501.67	26796.79
501.84	27033.19
502.02	27300.01
502.20	27524.70
502.37	27405.33
502.55	27850.03
502.72	27873.44
502.90	27796.20
503.07	27901.53
503.25	27711.94
503.43	28257.29
503.60	28058.34
503.78	27908.55
503.95	27615.98
504.13	28158.99
504.30	28229.20
504.48	28357.93
504.65	28830.72
504.83	28596.67
505.01	28769.86
505.18	28781.57
505.36	29163.08
505.53	28877.53
505.71	29600.76
505.88	29404.15
506.06	29116.26
506.23	29280.10
506.41	29462.66
506.58	29369.04
506.76	29427.56
506.93	29919.07
507.11	30110.99
507.28	29795.02
507.46	29912.05
507.63	29851.19
507.81	30054.82
507.98	29928.43
508.16	30361.43
508.33	30345.05
508.50	30345.05
508.68	30574.42
508.85	30782.73
509.03	30888.05
509.20	30869.33
509.38	31321.05
509.55	31175.94
509.73	31072.95
509.90	31126.78
510.08	31026.14
510.25	31267.22
510.42	31461.48
510.60	31580.85
510.77	31613.62
510.95	31754.05
511.12	31859.37
511.30	31573.83
511.47	31803.20
511.64	32095.77
511.82	32584.94
511.99	32034.91
512.17	32290.03
512.34	31821.92
512.51	32327.48
512.69	32374.29
512.86	32577.92
513.04	33209.86
513.21	32966.45
513.38	32884.53
513.56	32514.72
513.73	32297.05
513.90	32783.88
514.08	32622.39
514.25	32802.61
514.43	33137.30
514.60	33366.68
514.77	33163.05
514.95	33603.07
515.12	33156.03
515.29	33240.29
515.47	33963.51
515.64	34108.63
515.81	33567.96
515.99	33315.19
516.16	33663.93
516.33	33209.86
516.51	33291.78
516.68	33097.52
516.85	33251.99
517.03	33383.06
517.20	33680.31
517.37	33743.50
517.54	34057.14
517.72	33912.02
517.89	33811.38
518.06	33673.29
518.24	33668.61
518.41	34019.69
518.58	34504.18
518.75	34562.69
518.93	34330.98
519.10	34679.72
519.27	35367.84
519.45	34918.45
519.62	34574.39
519.79	35124.42
519.96	35150.17
520.14	35246.13
520.31	35189.95
520.48	34773.34
520.65	35370.18
520.83	35594.87
521.00	35997.44
521.17	35742.32
521.34	35784.45
521.52	35487.20
521.69	35552.74
521.86	36079.36
522.03	36208.09
522.20	35997.44
522.38	36121.49
522.55	36329.80
522.72	35833.60
522.89	36240.86
523.07	36755.77
523.24	36215.11
523.41	37017.91
523.58	36400.01
523.75	37067.06
523.92	36830.67
524.10	37392.40
524.27	37549.21
524.44	37095.15
524.61	37163.03
524.78	37406.44
524.96	37163.03
525.13	37338.57
525.30	37738.80
525.47	37699.01
525.64	37415.80
525.81	37649.86
525.98	37134.94
526.16	37132.60
526.33	37102.17
526.50	37324.52
526.67	37216.86
526.84	37565.60
527.01	37734.12
527.18	37476.66
527.36	38050.09
527.53	38223.29
527.70	38497.13
527.87	38089.88
528.04	38211.59
528.21	38314.57
528.38	38307.55
528.55	38445.64
528.72	38705.44
528.89	38792.04
529.07	38700.76
529.24	38373.08
529.41	38520.54
529.58	38508.83
529.75	38684.37
529.92	38672.67
530.09	39133.76
530.26	38857.57
530.43	39138.44
530.60	38752.25
530.77	38775.66
530.94	39253.12
531.11	39016.73
531.28	39262.49
531.46	39697.83
531.63	39688.46
531.80	39194.61
531.97	39405.26
532.14	39234.40
532.31	38862.26
532.48	39168.87
532.65	39599.52
532.82	39379.51
532.99	39831.24
533.16	39707.19
533.33	39976.35
533.50	40032.52
533.67	39997.41
533.84	39716.55
534.01	39938.90
534.18	39620.59
534.35	40362.54
534.52	39775.06
534.69	40289.98
534.86	40201.04
535.03	40470.20
535.20	40786.18
535.37	40575.53
535.54	40722.98
535.71	40598.93
535.88	40680.85
536.05	40481.91
536.22	40774.47
536.38	41017.89
536.55	40612.98
536.72	40526.38
536.89	40252.53
537.06	40999.16
537.23	40854.05
537.40	40758.09
537.57	40954.69
537.74	41287.05
537.91	41167.68
538.08	40772.13
538.25	41151.30
538.42	41359.61
538.59	41191.09
538.75	40547.44
538.92	41109.17
539.09	41670.90
539.26	41099.81
539.43	41457.91
539.60	41504.72
539.77	41345.56
539.94	41261.30
540.11	40893.84
540.28	41340.88
540.44	41762.18
540.61	41020.23
540.78	41074.06
540.95	41163.00
541.12	41670.90
541.29	41794.95
541.46	41806.65
541.62	41888.57
541.79	42288.80
541.96	41530.47
542.13	41780.90
542.30	41593.66
542.47	41617.07
542.63	42113.26
542.80	41748.14
542.97	42822.44
543.14	42501.79
543.31	42686.69
543.48	42462.00
543.64	42878.61
543.81	42543.92
543.98	42616.47
544.15	42525.19
544.32	42539.24
544.48	42838.83
544.65	42473.70
544.82	42728.82
544.99	42429.23
545.16	42717.12
545.32	43009.68
545.49	43615.88
545.66	43147.78
545.83	42890.32
546.00	43274.16
546.16	42981.60
546.33	42939.47
546.50	43051.81
546.67	42890.32
546.83	42941.81
547.00	43283.53
547.17	43339.70
547.34	43061.18
547.50	43026.07
547.67	43695.46
547.84	43278.85
548.00	43498.86
548.17	43704.82
548.34	43526.94
548.51	43634.61
548.67	43807.81
548.84	43454.39
549.01	43643.97
549.18	43814.83
549.34	43641.63
549.51	43608.86
549.68	43496.52
549.84	43828.87
550.01	44151.87
550.18	43784.40
550.34	44004.41
550.51	44004.41
550.68	43856.96
550.84	43948.24
551.01	43831.21
551.18	43739.93
551.34	43831.21
551.51	44098.03
551.68	44423.37
551.84	44428.05
552.01	44217.40
552.18	43981.01
552.34	43721.21
552.51	44381.24
552.68	44559.12
552.84	44353.15
553.01	44212.72
553.18	44495.92
553.34	44217.40
553.51	43941.22
553.67	44261.87
553.84	44512.31
554.01	44704.23
554.17	44584.86
554.34	44645.72
554.51	44388.26
554.67	45034.25
554.84	44428.05
555.00	45088.08
555.17	44704.23
555.33	44561.46
555.50	44786.15
555.67	44804.88
555.83	44758.06
556.00	44713.59
556.16	45179.36
556.33	44542.74
556.50	44435.07
556.66	44540.39
556.83	44788.49
556.99	44737.00
557.16	45045.95
557.32	44903.18
557.49	44968.71
557.65	45076.38
557.82	45125.53
557.98	44980.42
558.15	44746.36
558.32	45420.44
558.48	45048.29
558.65	45104.46
558.81	45125.53
558.98	44554.44
559.14	44933.60
559.31	44680.83
559.47	45617.04
559.64	45151.27
559.80	45661.51
559.97	45198.09
560.13	45333.84
560.30	44868.07
560.46	45289.37
560.63	45359.58
560.79	45378.31
560.96	45483.63
561.12	45462.57
561.29	45165.32
561.45	45485.97
561.61	45689.60
561.78	45022.54
561.94	45366.60
562.11	45158.30
562.27	45132.55
562.44	45467.25
562.60	45675.55
562.77	45572.57
562.93	45567.89
563.10	45666.19
563.26	45113.83
563.42	45705.98
563.59	45134.89
563.75	45507.04
563.92	45670.87
564.08	44924.24
564.24	45556.19
564.41	45277.66
564.57	45649.81
564.74	45621.72
564.90	45546.82
565.07	45743.43
565.23	45757.47
565.39	45619.38
565.56	45528.10
565.72	45081.06
565.88	45507.04
566.05	45635.77
566.21	45717.68
566.38	45780.88
566.54	46031.32
566.70	46045.36
566.87	46333.24
567.03	46162.39
567.19	46347.29
567.36	45670.87
567.52	45675.55
567.68	46064.08
567.85	45443.84
568.01	45986.85
568.17	45785.56
568.34	45806.62
568.50	45923.65
568.66	45713.00
568.83	45923.65
568.99	45237.87
569.15	45567.89
569.32	45846.41
569.48	45776.20
569.64	45881.52
569.81	45925.99
569.97	45773.86
570.13	45801.94
570.30	45691.94
570.46	45474.27
570.62	45694.28
570.78	45558.53
570.95	45294.05
571.11	45722.37
571.27	46028.98
571.43	45708.32
571.60	45991.53
571.76	45603.00
571.92	45710.66
572.09	46061.74
572.25	45947.06
572.41	45764.49
572.57	46005.57
572.74	46366.01
572.90	46050.04
573.06	45855.78
573.22	45715.34
573.38	45532.78
573.55	45715.34
573.71	46124.94
573.87	46272.39
574.03	45935.35
574.20	45979.82
574.36	45825.35
574.52	45705.98
574.68	46141.32
574.84	46211.54
575.01	45743.43
575.17	45914.29
575.33	45530.44
575.49	45900.25
575.65	45523.42
575.82	45909.61
575.98	45900.25
576.14	46557.94
576.30	45940.04
576.46	45801.94
576.62	46066.42
576.79	45773.86
576.95	45425.12
577.11	46122.60
577.27	46394.10
577.43	46054.72
577.59	46354.31
577.75	45916.63
577.92	45729.39
578.08	45860.46
578.24	46050.04
578.40	46071.10
578.56	46164.73
578.72	46101.53
578.88	46248.99
579.04	46218.56
579.21	45682.58
579.37	45722.37
579.53	46050.04
579.69	45745.77
579.85	45354.90
580.01	46333.24
580.17	46230.26
580.33	45951.74
580.49	46080.47
580.65	46176.43
580.82	46274.73
580.98	45687.26
581.14	45961.10
581.30	46515.81
581.46	45862.80
581.62	46092.17
581.78	46178.77
581.94	46639.86
582.10	46012.59
582.26	46171.75
582.42	46113.23
582.58	46419.84
582.74	45937.69
582.90	46520.49
583.06	46202.18
583.22	46368.35
583.38	46564.96
583.54	46209.20
583.70	46213.88
583.86	46000.89
584.02	45797.26
584.18	46408.14
584.34	45741.09
584.50	46225.58
584.66	46206.86
584.82	46099.19
584.98	46494.74
585.14	46181.11
585.30	46064.08
585.46	46050.04
585.62	46143.66
585.78	45663.85
585.94	45928.33
586.10	45914.29
586.26	46258.35
586.42	46358.99
586.58	46206.86
586.74	46408.14
586.90	46340.27
587.06	46155.36
587.22	46267.71
587.38	45954.08
587.54	46010.25
587.70	46366.01
587.86	46033.66
588.02	46293.46
588.18	46431.55
588.34	46073.45
588.49	46103.87
588.65	45556.19
588.81	45453.20
588.97	45815.99
589.13	45581.93
589.29	46176.43
589.45	45895.56
589.61	46047.70
589.77	46288.77
589.93	46527.51
590.08	46438.57
590.24	46082.81
590.40	46515.81
590.56	47035.41
590.72	46438.57
590.88	46021.95
591.04	46120.26
591.20	46363.67
591.35	46579.00
591.51	46539.21
591.67	45970.46
591.83	46356.65
591.99	45998.55
592.15	46237.28
592.31	46092.17
592.46	46410.48
592.62	46300.48
592.78	46930.08
592.94	46600.07
593.10	46012.59
593.26	46190.47
593.41	46281.75
593.57	46129.62
593.73	45965.78
593.89	46454.95
594.05	46274.73
594.20	46461.97
594.36	46590.70
594.52	46340.27
594.68	46138.98
594.84	45841.73
594.99	46206.86
595.15	46354.31
595.31	46466.66
595.47	46417.50
595.62	46314.52
595.78	46307.50
595.94	46696.03
596.10	46492.40
596.25	46501.76
596.41	46363.67
596.57	46265.37
596.73	46686.67
596.88	46239.62
597.04	46438.57
597.20	46473.68
597.36	46665.60
597.51	46564.96
597.67	46412.82
597.83	46373.03
597.99	46508.79
598.14	46504.10
598.30	46382.40
598.46	46286.43
598.61	46417.50
598.77	46248.99
598.93	46459.63
599.09	46354.31
599.24	46862.21
599.40	46607.09
599.56	46251.33
599.71	46183.45
599.87	46532.19
600.03	46274.73
600.18	46295.80
600.34	46059.40
600.50	46373.03
600.65	46108.55
600.81	46740.50
600.97	46490.06
601.12	46401.12
601.28	46864.55
601.44	46153.02
601.59	46005.57
601.75	46094.51
601.91	46305.16
602.06	46050.04
602.22	46092.17
602.37	46417.50
602.53	46263.03
602.69	46373.03
602.84	46281.75
603.00	46319.20
603.16	46169.41
603.31	46312.18
603.47	46672.62
603.62	46209.20
603.78	46567.30
603.94	46213.88
604.09	46319.20
604.25	46265.37
604.40	46092.17
604.56	46536.87
604.71	46099.19
604.87	46454.95
605.03	46366.01
605.18	46028.98
605.34	46120.26
605.49	45691.94
605.65	46071.10
605.80	46148.34
605.96	46300.48
606.12	46253.67
606.27	46609.43
606.43	45900.25
606.58	46178.77
606.74	45860.46
606.89	46368.35
607.05	46300.48
607.20	46433.89
607.36	46227.92
607.51	45909.61
607.67	46047.70
607.82	45963.44
607.98	45881.52
608.13	45965.78
608.29	45991.53
608.44	45958.76
608.60	45525.76
608.75	45904.93
608.91	46045.36
609.06	46188.13
609.22	45979.82
609.37	45642.79
609.53	45823.01
609.68	45361.92
609.84	45649.81
609.99	45579.59
610.15	45478.95
610.30	45720.02
610.46	45366.60
610.61	45453.20
610.76	45720.02
610.92	46157.70
611.07	45975.14
611.23	45832.37
611.38	45851.09
611.54	45310.43
611.69	45752.79
611.84	45621.72
612.00	44889.13
612.15	45425.12
612.31	45198.09
612.46	45577.25
612.62	45439.16
612.77	45375.97
612.92	45514.06
613.08	45106.80
613.23	45631.08
613.39	44865.73
613.54	44968.71
613.69	45331.50
613.85	45085.74
614.00	45347.88
614.15	45380.65
614.31	45020.20
614.46	45310.43
614.62	45514.06
614.77	45523.42
614.92	45038.93
615.08	45052.97
615.23	44776.79
615.38	45006.16
615.54	44388.26
615.69	44891.48
615.84	44973.39
616.00	45102.12
616.15	44439.75
616.30	44985.10
616.46	44744.02
616.61	44851.69
616.76	44685.51
616.92	44678.49
617.07	44435.07
617.22	44137.82
617.37	44486.56
617.53	44987.44
617.68	44563.80
617.83	45132.55
617.99	45326.81
618.14	44325.07
618.29	44626.99
618.45	44196.34
618.60	44268.89
618.75	44664.44
618.90	44313.36
619.06	44414.01
619.21	44392.94
619.36	44744.02
619.51	44364.85
619.67	44285.28
619.82	44477.20
619.97	44566.14
620.12	44411.67
620.28	43868.66
620.43	44289.96
620.58	44346.13
620.73	44706.57
620.89	44048.88
621.04	44514.65
621.19	43995.05
621.34	44179.95
621.49	43880.36
621.65	43810.15
621.80	43772.70
621.95	44046.54
622.10	44252.51
622.25	43924.83
622.41	43335.02
622.56	43789.08
622.71	44163.57
622.86	44051.22
623.01	44353.15
623.16	43976.33
623.32	43655.67
623.47	43833.55
623.62	43922.49
623.77	43761.00
623.92	43821.85
624.07	43615.88
624.23	43643.97
624.38	43370.13
624.53	43346.72
624.68	43302.25
624.83	43679.08
624.98	43421.62
625.13	43257.78
625.29	43068.20
625.44	43320.98
625.59	42787.33
625.74	42948.83
625.89	42850.53
626.04	43159.48
626.19	43028.41
626.34	43487.15
626.49	42983.94
626.65	43196.93
626.80	43510.56
626.95	43309.27
627.10	42581.37
627.25	42983.94
627.40	42333.27
627.55	42555.62
627.70	42253.69
627.85	42471.36
628.00	42457.32
628.15	42595.41
628.30	42738.18
628.45	42775.63
628.60	42876.27
628.76	43037.77
628.91	42679.67
629.06	42553.28
629.21	42333.27
629.36	42705.41
629.51	42815.42
629.66	42274.76
629.81	42422.21
629.96	42883.30
630.11	42560.30
630.26	42724.14
630.41	42719.46
630.56	42492.43
630.71	42775.63
630.86	42459.66
631.01	41998.57
631.16	42021.98
631.31	42251.35
631.46	41638.13
631.61	42405.83
631.76	42082.83
631.91	42312.20
632.06	42351.99
632.21	41911.97
632.36	42000.91
632.51	42328.59
632.66	42204.54
632.81	41661.54
632.96	41717.71
633.10	41706.01
633.25	41731.75
633.40	42326.25
633.55	42031.34
633.70	41806.65
633.85	41736.43
634.00	41727.07
634.15	41759.84
634.30	41804.31
634.45	41532.81
634.60	41708.35
634.75	41378.33
634.90	41703.67
635.05	41666.22
635.19	41312.80
635.34	41834.74
635.49	41401.74
635.64	41324.50
635.79	41298.75
635.94	41216.83
636.09	41790.27
636.24	41027.25
636.39	40947.67
636.53	41233.22
636.68	41043.63
636.83	40982.78
636.98	41654.51
637.13	40919.59
637.28	41132.57
637.43	41205.13
637.57	41467.27
637.72	41111.51
637.87	41207.47
638.02	40966.40
638.17	41053.00
638.32	40975.76
638.46	41118.53
638.61	40940.65
638.76	40627.02
638.91	40961.72
639.06	40769.79
639.20	41195.77
639.35	41322.16
639.50	41013.21
639.65	41235.56
639.80	41354.93
639.94	40917.25
640.09	40596.59
640.24	40416.37
640.39	40224.45
640.54	40701.92
640.68	40634.04
640.83	40493.61
640.98	39917.84
641.13	40484.25
641.27	40734.68
641.42	40435.10
641.57	40425.73
641.72	40325.09
641.86	40109.76
642.01	39959.97
642.16	40252.53
642.31	39618.25
642.45	40044.23
642.60	40158.91
642.75	40362.54
642.90	40074.65
643.04	40711.28
643.19	40016.14
643.34	39800.81
643.48	39952.94
643.63	40474.88
643.78	39969.33
643.93	39887.41
644.07	39955.29
644.22	39711.87
644.37	39821.87
644.51	39878.05
644.66	40388.28
644.81	40065.29
644.95	40203.38
645.10	40105.08
645.25	40030.18
645.39	39433.35
645.54	39974.01
645.69	39718.89
645.83	39718.89
645.98	40098.06
646.13	39875.71
646.27	39679.10
646.42	39924.86
646.57	39576.12
646.71	39770.38
646.86	39470.79
647.00	39917.84
647.15	39704.85
647.30	39412.28
647.44	39288.23
647.59	39431.01
647.74	39019.07
647.88	39278.87
648.03	39189.93
648.17	39098.65
648.32	39365.47
648.47	39494.20
648.61	38838.85
648.76	39683.78
648.90	39477.82
649.05	38906.73
649.20	38932.47
649.34	39129.08
649.49	38693.74
649.63	38565.01
649.78	39014.39
649.92	39208.65
650.07	39201.63
650.21	39220.36
650.36	39159.50
650.51	39325.68
650.65	39519.95
650.80	39187.59
650.94	39330.36
651.09	38700.76
651.23	39023.75
651.38	39042.48
651.52	38754.59
651.67	38349.68
651.81	38639.90
651.96	38464.36
652.10	38340.32
652.25	38323.93
652.39	38586.07
652.54	38356.70
652.68	38534.58
652.83	38335.63
652.97	38387.13
653.12	38483.09
653.26	38480.75
653.41	37968.17
653.55	37846.46
653.70	38197.54
653.84	38139.03
653.99	38270.10
654.13	37998.60
654.27	37825.40
654.42	37413.46
654.56	37518.79
654.71	37923.70
654.85	38108.60
655.00	38061.79
655.14	37933.06
655.29	37764.54
655.43	38204.56
655.57	37638.15
655.72	37507.08
655.86	37172.39
656.01	37617.09
656.15	37188.77
656.30	37764.54
656.44	37455.59
656.58	37476.66
656.73	37640.50
656.87	37132.60
657.01	37399.42
657.16	37289.42
657.30	37081.11
657.45	36961.74
657.59	37062.38
657.73	37404.10
657.88	37708.37
658.02	37296.44
658.16	37488.36
658.31	37830.08
658.45	37397.08
658.60	37422.83
658.74	37455.59
658.88	37031.96
659.03	37078.77
659.17	36807.26
659.31	36849.39
659.46	36456.18
659.60	37429.85
659.74	37127.92
659.89	37085.79
660.03	36753.43
660.17	37191.11
660.32	37097.49
660.46	36982.80
660.60	36486.61
660.74	36568.53
660.89	36603.64
661.03	36168.30
661.17	36306.39
661.32	36194.04
661.46	36645.77
661.60	36182.34
661.74	36306.39
661.89	36130.85
662.03	36149.57
662.17	36025.53
662.31	35927.22
662.46	36060.63
662.60	36091.06
662.74	36168.30
662.88	35931.90
663.03	35316.34
663.17	35655.72
663.31	35386.56
663.45	35871.05
663.60	35807.86
663.74	35552.74
663.88	35412.31
664.02	35407.62
664.17	35608.91
664.31	35526.99
664.45	35068.25
664.59	35173.57
664.73	35218.04
664.88	35751.68
665.02	35112.72
665.16	35000.37
665.30	35030.80
665.44	35222.72
665.59	34794.40
665.73	34696.10
665.87	34831.85
666.01	34969.94
666.15	35269.53
666.29	34850.58
666.44	34778.02
666.58	34445.66
666.72	34625.89
666.86	34773.34
667.00	34342.68
667.14	33795.00
667.28	34377.79
667.43	34148.42
667.57	34321.62
667.71	34494.82
667.85	34054.79
667.99	34382.47
668.13	34155.44
668.27	34122.67
668.41	33802.02
668.56	33895.64
668.70	33937.77
668.84	33696.69
668.98	33820.74
669.12	33731.80
669.26	33853.51
669.40	33376.04
669.54	33425.19
669.68	33357.32
669.82	33134.96
669.96	33022.62
670.10	33359.66
670.25	33397.10
670.39	33046.02
670.53	32877.51
670.67	32926.66
670.81	33240.29
670.95	33385.40
671.09	32779.20
671.23	32744.09
671.37	32355.57
671.51	32271.31
671.65	32627.07
671.79	32285.35
671.93	32393.01
672.07	32645.79
672.21	32107.47
672.35	32203.43
672.49	32425.78
672.63	32730.05
672.77	32318.12
672.91	32512.38
673.05	31763.41
673.19	31934.27
673.33	32432.80
673.47	31487.23
673.61	31482.55
673.75	31541.06
673.89	31620.64
674.03	31283.60
674.17	31508.29
674.31	31681.49
674.45	31321.05
674.59	31323.39
674.73	31470.84
674.87	30895.07
675.01	31477.86
675.15	31147.85
675.29	30703.15
675.43	30855.28
675.56	30831.88
675.70	30824.86
675.84	30574.42
675.98	29832.47
676.12	30679.74
676.26	30518.25
676.40	30775.70
676.54	30520.59
676.68	30529.95
676.82	29720.12
676.96	30286.53
677.10	30118.01
677.23	29963.54
677.37	29579.69
677.51	29717.78
677.65	29668.63
677.79	29083.50
677.93	29200.52
678.07	29008.60
678.21	28683.27
678.34	29095.20
678.48	28704.33
678.62	28669.22
678.76	28699.65
678.90	28325.16
679.04	28470.28
679.18	28704.33
679.31	28362.61
679.45	27974.08
679.59	28102.81
679.73	28166.01
679.87	27651.09
680.00	27718.96
680.14	27637.05
680.28	27894.50
680.42	27887.48
680.56	27749.39
680.70	27725.99
680.83	27864.08
680.97	27466.19
681.11	27590.24
681.25	27243.84
681.39	27330.44
681.52	27431.08
681.66	27080.00
681.80	26764.03
681.94	27016.80
682.07	26710.19
682.21	26969.99
682.35	26897.44
682.49	26410.60
682.62	26532.31
682.76	26647.00
682.90	26043.14
683.04	26061.87
683.17	25998.67
683.31	25893.35
683.45	26141.44
683.59	25638.23
683.72	25654.61
683.86	25584.40
684.00	25605.46
684.13	25893.35
684.27	25441.62
684.41	25301.19
684.55	25303.53
684.68	25027.35
684.82	25081.18
684.96	25020.33
685.09	24959.47
685.23	24872.87
685.37	25048.41
685.50	24655.20
685.64	24517.11
685.78	24496.05
685.91	24512.43
686.05	24334.55
686.19	24180.07
686.32	24081.77
686.46	23391.31
686.60	23662.82
686.73	23337.48
686.87	23250.88
687.01	23241.52
687.14	22993.42
687.28	23491.96
687.42	23143.22
687.55	23082.36
687.69	23365.57
687.82	23033.21
687.96	23278.97
688.10	22710.22
688.23	22871.72
688.37	22771.07
688.50	22506.59
688.64	22483.19
688.78	22391.91
688.91	22291.26
689.05	22562.76
689.18	22272.54
689.32	21762.30
689.46	22050.19
689.59	22132.11
689.73	22309.99
689.86	21900.39
690.00	21893.37
690.13	22087.64
690.27	21355.05
690.41	21668.68
690.54	21270.79
690.68	21373.77
690.81	21240.36
690.95	21432.29
691.08	21312.92
691.22	21191.21
691.35	21422.92
691.49	21336.32
691.62	21319.94
691.76	20786.30
691.89	20987.58
692.03	20690.34
692.16	20627.14
692.30	20285.42
692.43	20306.49
692.57	20116.90
692.70	20163.72
692.84	20243.29
692.97	19616.03
693.11	19910.94
693.24	19854.76
693.38	19620.71
693.51	19829.02
693.65	19564.54
693.78	19747.10
693.92	19833.70
694.05	19716.67
694.19	19763.48
694.32	19325.80
694.45	19211.12
694.59	19028.56
694.72	19147.92
694.86	19136.22
694.99	18537.04
695.13	18970.04
695.26	18750.03
695.39	18703.22
695.53	18583.85
695.66	18609.60
695.80	18731.31
695.93	18635.35
696.07	18204.69
696.20	18398.95
696.33	18221.07
696.47	18328.74
696.60	18164.90
696.73	18052.55
696.87	17785.73
697.00	17996.38
697.14	17853.61
697.27	17811.48
697.40	17455.72
697.54	17720.20
697.67	17352.73
697.80	17205.28
697.94	17029.74
698.07	16971.22
698.21	17088.25
698.34	17088.25
698.47	16865.90
698.61	16819.09
698.74	16772.28
698.87	16709.08
699.01	16617.80
699.14	16269.06
699.27	16121.61
699.40	16257.36
699.54	16496.10
699.67	16112.25
699.80	16198.85
699.94	16315.87
700.07	16086.50
700.20	16086.50
700.34	15990.54
700.47	16065.44
700.60	16152.04
700.73	16217.57
700.87	15868.83
701.00	15550.52
701.13	15728.40
701.26	15667.55
701.40	15435.83
701.53	15290.72
701.66	15391.36
701.79	15176.03
701.93	15344.55
702.06	15150.29
702.19	14876.44
702.32	14941.98
702.46	14941.98
702.59	14998.15
702.72	14937.30
702.85	14768.78
702.99	14499.62
703.12	14523.02
703.25	14492.60
703.38	14424.72
703.51	14401.32
703.65	14443.45
703.78	14361.53
703.91	14068.96
704.04	14420.04
704.17	14022.15
704.31	14223.44
704.44	13891.08
704.57	14349.82
704.70	13825.54
704.83	13797.46
704.96	13790.44
705.10	13926.19
705.23	13701.50
>>>>>End Processed Spectral Data<<<<<
