SpectraSuite Data File
++++++++++++++++++++++++++++++++++++
Date: Fri Oct 25 10:44:23 EDT 2013
User: price-jones
Dark Spectrum Present: No
Reference Spectrum Present: No
Number of Sampled Component Spectra: 1
Spectrometers: USB2+H05261
Integration Time (usec): 100000 (USB2+H05261)
Spectra Averaged: 1 (USB2+H05261)
Boxcar Smoothing: 0 (USB2+H05261)
Correct for Electrical Dark: No (USB2+H05261)
Strobe/Lamp Enabled: No (USB2+H05261)
Correct for Detector Non-linearity: No (USB2+H05261)
Correct for Stray Light: No (USB2+H05261)
Number of Pixels in Processed Spectrum: 2048
>>>>>Begin Processed Spectral Data<<<<<
365.73	196.60
365.92	196.60
366.12	196.60
366.32	72.56
366.52	74.90
366.72	37.45
366.91	72.56
367.11	0.00
367.31	0.00
367.51	67.88
367.70	110.01
367.90	44.47
368.10	32.77
368.30	63.19
368.49	0.00
368.69	72.56
368.89	88.94
369.09	35.11
369.28	65.54
369.48	0.00
369.68	49.15
369.87	95.96
370.07	53.83
370.27	156.82
370.47	194.26
370.66	334.70
370.86	418.96
371.06	505.56
371.25	472.79
371.45	425.98
371.65	444.70
371.84	449.38
372.04	482.15
372.24	451.72
372.44	531.30
372.63	566.41
372.83	433.00
373.03	521.94
373.22	498.53
373.42	559.39
373.62	496.19
373.81	566.41
374.01	538.32
374.21	587.47
374.40	550.03
374.60	615.56
374.79	557.05
374.99	636.63
375.19	585.13
375.38	573.43
375.58	482.15
375.78	610.88
375.97	638.97
376.17	685.78
376.37	608.54
376.56	643.65
376.76	638.97
376.95	650.67
377.15	596.84
377.35	709.18
377.54	669.39
377.74	685.78
377.93	587.47
378.13	613.22
378.33	699.82
378.52	627.26
378.72	744.29
378.91	690.46
379.11	641.31
379.31	709.18
379.50	683.44
379.70	711.52
379.89	760.67
380.09	638.97
380.28	697.48
380.48	631.94
380.68	732.59
380.87	697.48
381.07	725.57
381.26	781.74
381.46	774.72
381.65	688.12
381.85	676.41
382.04	655.35
382.24	667.05
382.43	706.84
382.63	706.84
382.83	744.29
383.02	842.59
383.22	730.25
383.41	667.05
383.61	650.67
383.80	784.08
384.00	805.14
384.19	833.23
384.39	830.89
384.58	746.63
384.78	755.99
384.97	830.89
385.17	741.95
385.36	840.25
385.56	819.19
385.75	751.31
385.95	828.55
386.14	936.21
386.34	805.14
386.53	770.04
386.72	748.97
386.92	905.79
387.11	786.42
387.31	905.79
387.50	894.08
387.70	849.61
387.89	945.58
388.09	866.00
388.28	901.11
388.48	882.38
388.67	917.49
388.86	908.13
389.06	1011.11
389.25	1048.56
389.45	971.32
389.64	1008.77
389.84	1053.24
390.03	1088.35
390.22	1095.37
390.42	983.02
390.61	1015.79
390.81	1015.79
391.00	1074.31
391.19	1081.33
391.39	1034.52
391.58	1102.39
391.78	1102.39
391.97	1041.54
392.16	1081.33
392.36	1123.46
392.55	1132.82
392.75	1006.43
392.94	1041.54
393.13	1043.88
393.33	1081.33
393.52	1055.58
393.71	1111.75
393.91	1125.80
394.10	1170.27
394.29	1193.67
394.49	1179.63
394.68	1231.12
394.88	1287.29
395.07	1256.87
395.26	1240.48
395.46	1203.04
395.65	1188.99
395.84	1273.25
396.04	1303.68
396.23	1210.06
396.42	1210.06
396.62	1174.95
396.81	1210.06
397.00	1212.40
397.19	1331.76
397.39	1308.36
397.58	1343.47
397.77	1387.94
397.97	1488.58
398.16	1516.67
398.35	1563.48
398.55	1362.19
398.74	1551.78
398.93	1624.33
399.12	1577.52
399.32	1551.78
399.51	1626.67
399.70	1722.63
399.90	1584.54
400.09	1694.55
400.28	1732.00
400.47	1661.78
400.67	1722.63
400.86	1614.97
401.05	1638.38
401.24	1741.36
401.44	1729.66
401.63	1771.79
401.82	1778.81
402.01	1757.74
402.21	1750.72
402.40	1811.57
402.59	1781.15
402.78	1900.52
402.97	1820.94
403.17	1881.79
403.36	1813.92
403.55	1853.70
403.74	1923.92
403.93	1963.71
404.13	1872.43
404.32	1935.62
404.51	1921.58
404.70	2015.20
404.89	1937.96
405.09	2127.55
405.28	1954.35
405.47	1989.46
405.66	2024.56
405.85	2008.18
406.05	2022.22
406.24	2043.29
406.43	2078.40
406.62	2136.91
406.81	2204.78
407.00	2146.27
407.20	2031.58
407.39	2174.36
407.58	2230.53
407.77	2188.40
407.96	2143.93
408.15	2389.69
408.34	2291.38
408.54	2399.05
408.73	2349.90
408.92	2361.60
409.11	2363.94
409.30	2331.17
409.49	2338.20
409.68	2338.20
409.87	2370.96
410.07	2399.05
410.26	2349.90
410.45	2492.67
410.64	2483.31
410.83	2527.78
411.02	2452.88
411.21	2635.44
411.40	2637.78
411.59	2583.95
411.78	2719.70
411.98	2722.04
412.17	2733.75
412.36	2703.32
412.55	2848.43
412.74	2878.86
412.93	2822.69
413.12	2733.75
413.31	2963.12
413.50	2911.63
413.69	3014.61
413.88	3028.65
414.07	2977.16
414.26	3023.97
414.45	3070.78
414.64	3038.02
414.83	3166.74
415.02	3042.70
415.22	3208.87
415.41	3246.32
415.60	3363.35
415.79	3391.44
415.98	3344.63
416.17	3169.09
416.36	3335.26
416.55	3342.28
416.74	3435.91
416.93	3478.04
417.12	3384.41
417.31	3407.82
417.50	3346.97
417.69	3665.28
417.88	3487.40
418.07	3501.44
418.26	3478.04
418.45	3606.77
418.64	3705.07
418.83	3740.18
419.02	3698.05
419.21	3585.70
419.39	3691.02
419.58	3630.17
419.77	3653.58
419.96	3728.47
420.15	3676.98
420.34	3784.65
420.53	3943.80
420.72	3904.01
420.91	3962.53
421.10	3840.82
421.29	3946.14
421.48	3831.46
421.67	3988.27
421.86	3833.80
422.05	3859.54
422.24	3812.73
422.43	3857.20
422.61	3885.29
422.80	4060.83
422.99	3995.29
423.18	3957.85
423.37	4079.55
423.56	4107.64
423.75	4072.53
423.94	4051.47
424.13	3639.53
424.32	3833.80
424.50	4119.34
424.69	4135.73
424.88	4236.37
425.07	3932.10
425.26	3927.42
425.45	3918.06
425.64	4093.60
425.83	4035.08
426.01	4177.86
426.20	4140.41
426.39	4152.11
426.58	4028.06
426.77	4074.87
426.96	3981.25
427.15	4098.28
427.33	4121.68
427.52	4173.18
427.71	4212.96
427.90	4063.17
428.09	4344.03
428.28	4177.86
428.46	4297.22
428.65	4255.09
428.84	4287.86
429.03	4320.63
429.22	4109.98
429.40	4273.82
429.59	4222.33
429.78	4042.11
429.97	4140.41
430.16	4107.64
430.34	4205.94
430.53	4358.08
430.72	4351.06
430.91	4346.37
431.10	4477.44
431.28	4575.75
431.47	4702.14
431.66	4739.58
431.85	4865.97
432.03	4664.69
432.22	4690.43
432.41	4634.26
432.60	4833.21
432.79	4936.19
432.97	4912.78
433.16	4861.29
433.35	4741.93
433.54	4863.63
433.72	4716.18
433.91	4755.97
434.10	4828.53
434.28	4924.49
434.47	4870.65
434.66	4880.02
434.85	5118.75
435.03	5221.74
435.22	5137.48
435.41	5214.71
435.59	5118.75
435.78	5158.54
435.97	5177.26
436.16	5193.65
436.34	5291.95
436.53	5362.17
436.72	5390.25
436.90	5118.75
437.09	5287.27
437.28	5074.28
437.46	5203.01
437.65	5184.29
437.84	5345.78
438.02	5383.23
438.21	5263.86
438.40	5364.51
438.58	5526.00
438.77	5572.82
438.96	5500.26
439.14	5659.42
439.33	5806.87
439.52	5687.50
439.70	5825.59
439.89	5884.11
440.08	5865.38
440.26	5921.56
440.45	5647.71
440.63	5977.73
440.82	6289.02
441.01	6097.10
441.19	6115.82
441.38	6209.44
441.57	6370.94
441.75	6434.13
441.94	6623.72
442.12	6480.94
442.31	6518.39
442.50	6509.03
442.68	6520.73
442.87	6516.05
443.05	6565.20
443.24	6724.36
443.43	6640.10
443.61	6619.04
443.80	6832.02
443.98	6445.84
444.17	6471.58
444.35	6642.44
444.54	6719.68
444.73	6789.89
444.91	6785.21
445.10	6672.87
445.28	6640.10
445.47	6504.35
445.65	6492.65
445.84	6665.85
446.02	6822.66
446.21	6593.29
446.39	6902.24
446.58	6743.08
446.77	6913.94
446.95	6715.00
447.14	6906.92
447.32	6869.47
447.51	6689.25
447.69	6773.51
447.88	6785.21
448.06	7014.59
448.25	6855.43
448.43	7068.42
448.62	6944.37
448.80	6813.30
448.99	7023.95
449.17	7152.68
449.36	7077.78
449.54	7218.21
449.73	7201.83
449.91	7328.22
450.10	7503.76
450.28	7522.48
450.46	7527.16
450.65	7487.37
450.83	7454.61
451.02	7295.45
451.20	7323.54
451.39	7400.77
451.57	7342.26
451.76	7353.96
451.94	7382.05
452.13	7515.46
452.31	7396.09
452.49	7295.45
452.68	7314.17
452.86	7529.50
453.05	7353.96
453.23	7466.31
453.42	7559.93
453.60	7592.70
453.78	7716.75
453.97	7531.84
454.15	7606.74
454.34	7653.55
454.52	7674.62
454.70	7634.83
454.89	8004.63
455.07	7695.68
455.26	7693.34
455.44	8039.74
455.62	7988.25
455.81	7826.75
455.99	7810.37
456.17	8189.53
456.36	8093.57
456.54	8056.12
456.73	8177.83
456.91	8334.65
457.09	8280.82
457.28	8327.63
457.46	8175.49
457.64	8262.09
457.83	8376.78
458.01	8271.45
458.19	8360.39
458.38	8365.07
458.56	8699.77
458.74	8421.25
458.93	8561.68
459.11	8664.66
459.29	8383.80
459.48	8636.58
459.66	8784.03
459.84	8629.56
460.03	8594.45
460.21	8622.53
460.39	8704.45
460.57	8840.20
460.76	8798.07
460.94	8961.91
461.12	8748.92
461.31	8950.21
461.49	8982.98
461.67	8835.52
461.85	9177.24
462.04	8924.46
462.22	9130.43
462.40	8978.30
462.59	9128.09
462.77	9153.84
462.95	9214.69
463.13	9282.56
463.32	9160.86
463.50	9254.48
463.68	9465.13
463.86	9212.35
464.05	9142.13
464.23	9118.73
464.41	9334.06
464.59	9172.56
464.78	9249.80
464.96	9249.80
465.14	9357.46
465.32	9413.63
465.50	9673.43
465.69	9439.38
465.87	9291.93
466.05	9486.19
466.23	9441.72
466.41	9476.83
466.60	9500.23
466.78	9439.38
466.96	9678.12
467.14	9678.12
467.32	9668.75
467.51	9811.53
467.69	9490.87
467.87	9514.28
468.05	9729.61
468.23	9479.17
468.41	9544.70
468.60	9689.82
468.78	9724.93
468.96	9731.95
469.14	9813.87
469.32	10071.33
469.50	9809.19
469.69	10040.90
469.87	10010.47
470.05	10073.67
470.23	10260.91
470.41	10157.92
470.59	10239.84
470.77	10097.07
470.95	9975.36
471.14	10319.42
471.32	10237.50
471.50	10670.50
471.68	10724.33
471.86	10607.31
472.04	10686.89
472.22	10916.26
472.40	10661.14
472.58	10504.32
472.77	10649.44
472.95	10719.65
473.13	10923.28
473.31	10684.55
473.49	10956.05
473.67	10839.02
473.85	11012.22
474.03	11257.98
474.21	11044.99
474.39	11496.71
474.57	11311.81
474.75	11377.34
474.93	11606.72
475.12	11283.72
475.30	11552.88
475.48	11541.18
475.66	11365.64
475.84	11590.33
476.02	11620.76
476.20	11555.22
476.38	11817.36
476.56	12224.62
476.74	11948.43
476.92	12210.57
477.10	12177.81
477.28	12596.76
477.46	12397.82
477.64	12674.00
477.82	12702.09
478.00	13104.66
478.18	12711.45
478.36	12861.24
478.54	12802.73
478.72	12854.22
478.90	13179.56
479.08	13296.58
479.26	13312.97
479.44	13437.02
479.62	13411.27
479.80	13970.66
479.98	13898.10
480.16	13902.78
480.34	14066.62
480.52	14221.10
480.70	14139.18
480.88	14047.90
481.06	14228.12
481.24	14204.71
481.41	14810.91
481.59	14560.47
481.77	14740.69
481.95	14719.63
482.13	15215.82
482.31	14937.30
482.49	15316.47
482.67	15300.08
482.85	15365.62
483.03	15417.11
483.21	15714.36
483.39	15833.72
483.57	15674.57
483.74	15969.48
483.92	16215.23
484.10	16318.22
484.28	16130.97
484.46	16503.12
484.64	16727.81
484.82	16669.30
485.00	16573.33
485.18	16882.28
485.35	16812.07
485.53	16505.46
485.71	16535.88
485.89	16830.79
486.07	16936.12
486.25	17088.25
486.43	17181.87
486.61	17418.27
486.78	17460.40
486.96	17895.74
487.14	18111.07
487.32	18031.49
487.50	18391.93
487.68	18576.83
487.85	18644.71
488.03	18972.38
488.21	18920.89
488.39	18836.63
488.57	18860.04
488.75	19035.58
488.92	19545.81
489.10	19653.48
489.28	19946.05
489.46	20255.00
489.64	20194.14
489.81	20725.44
489.99	20339.26
490.17	20673.95
490.35	21120.99
490.53	20769.91
490.70	20805.02
490.88	21188.87
491.06	21296.53
491.24	21387.82
491.41	21205.25
491.59	21352.71
491.77	21252.06
491.95	21628.89
492.13	21738.90
492.30	22080.61
492.48	22111.04
492.66	22267.86
492.84	22302.96
493.01	22649.36
493.19	22309.99
493.37	22696.17
493.54	22792.14
493.72	22817.88
493.90	22993.42
494.08	23562.17
494.25	23536.43
494.43	23892.19
494.61	23613.66
494.79	23810.27
494.96	24219.86
495.14	23637.07
495.32	24130.92
495.49	24009.22
495.67	24547.54
495.85	24563.92
496.02	24620.10
496.20	24950.11
496.38	24861.17
496.55	25001.60
496.73	26017.40
496.91	25312.89
497.09	25886.32
497.26	25542.27
497.44	25806.75
497.62	25652.27
497.79	26050.16
497.97	25654.61
498.14	25888.67
498.32	25942.50
498.50	26047.82
498.67	26375.50
498.85	26761.69
499.03	26354.43
499.20	26986.38
499.38	26906.80
499.56	26871.69
499.73	26895.10
499.91	27061.27
500.08	27435.76
500.26	26785.09
500.44	26906.80
500.61	27009.78
500.79	27330.44
500.97	27288.31
501.14	27803.22
501.32	27831.31
501.49	27784.50
501.67	27742.37
501.84	27857.06
502.02	28133.24
502.20	28114.52
502.37	28732.42
502.55	28259.63
502.72	28411.76
502.90	28968.81
503.07	28559.22
503.25	29029.66
503.43	28561.56
503.60	28631.77
503.78	28463.25
503.95	28982.85
504.13	28814.34
504.30	29137.33
504.48	29317.55
504.65	29619.48
504.83	29579.69
505.01	29680.33
505.18	30213.98
505.36	30286.53
505.53	30260.79
505.71	30403.56
505.88	30366.11
506.06	29923.75
506.23	30347.39
506.41	30157.80
506.58	30122.69
506.76	30726.55
506.93	30511.22
507.11	30838.90
507.28	30820.17
507.46	30644.63
507.63	30583.78
507.81	30794.43
507.98	30593.14
508.16	31094.02
508.33	31477.86
508.50	31292.96
508.68	31248.49
508.85	31828.95
509.03	31494.25
509.20	31791.50
509.38	31962.36
509.55	31796.18
509.73	31945.97
509.90	31784.48
510.08	31901.50
510.25	32428.12
510.42	32570.90
510.60	32381.31
510.77	32261.94
510.95	32678.56
511.12	32823.67
511.30	32496.00
511.47	33191.14
511.64	33209.86
511.82	33198.16
511.99	32950.06
512.17	33010.92
512.34	33036.66
512.51	33193.48
512.69	33893.30
512.86	33371.36
513.04	33823.08
513.21	33411.15
513.38	33556.26
513.56	33303.48
513.73	33673.29
513.90	33764.57
514.08	33797.34
514.25	33977.56
514.43	33787.97
514.60	33376.04
514.77	34213.95
514.95	34309.91
515.12	34181.18
515.29	34656.31
515.47	34586.10
515.64	34787.38
515.81	34134.37
515.99	34473.75
516.16	34342.68
516.33	34061.82
516.51	34550.99
516.68	33968.19
516.85	33909.68
517.03	34527.58
517.20	34586.10
517.37	34902.07
517.54	35129.10
517.72	34731.21
517.89	34429.28
518.06	34604.82
518.24	34841.21
518.41	34789.72
518.58	35285.92
518.75	35051.86
518.93	35353.79
519.10	35402.94
519.27	35358.47
519.45	35644.02
519.62	36205.75
519.79	35849.99
519.96	36135.53
520.14	36144.89
520.31	36350.86
520.48	35999.78
520.65	36135.53
520.83	36451.50
521.00	36788.54
521.17	36692.58
521.34	36524.06
521.52	37057.70
521.69	36622.36
521.86	37081.11
522.03	36987.49
522.20	36980.46
522.38	36769.82
522.55	36884.50
522.72	37500.06
522.89	37188.77
523.07	37509.43
523.24	37205.16
523.41	37862.85
523.58	37261.33
523.75	38206.90
523.92	37970.51
524.10	37982.21
524.27	38176.48
524.44	38010.30
524.61	38031.36
524.78	38440.96
524.96	38560.33
525.13	38085.20
525.30	38504.15
525.47	38546.28
525.64	38354.36
525.81	37895.61
525.98	38363.72
526.16	38398.83
526.33	37947.11
526.50	38337.98
526.67	38005.62
526.84	37986.89
527.01	38045.41
527.18	38766.29
527.36	39033.11
527.53	38824.81
527.70	39070.56
527.87	38742.89
528.04	39150.14
528.21	39166.52
528.38	39878.05
528.55	39583.14
528.72	39459.09
528.89	39700.17
529.07	39449.73
529.24	39304.62
529.41	39861.66
529.58	39344.41
529.75	39536.33
529.92	39683.78
530.09	39606.55
530.26	39566.76
530.43	39899.11
530.60	39871.03
530.77	40048.91
530.94	40737.02
531.11	39667.40
531.28	40257.21
531.46	40205.72
531.63	40390.62
531.80	40346.15
531.97	40289.98
532.14	40411.69
532.31	40079.33
532.48	40278.28
532.65	40091.04
532.82	40074.65
532.99	40392.97
533.16	40563.82
533.33	40662.13
533.50	40954.69
533.67	40802.56
533.84	40184.66
534.01	40678.51
534.18	41074.06
534.35	41200.45
534.52	40837.67
534.69	41219.17
534.86	41373.65
535.03	40985.12
535.20	41457.91
535.37	41741.11
535.54	41666.22
535.71	41514.08
535.88	41577.28
536.05	41549.19
536.22	41727.07
536.38	41216.83
536.55	41364.29
536.72	41392.37
536.89	41223.86
537.06	41338.54
537.23	41579.62
537.40	41958.78
537.57	41780.90
537.74	41635.79
537.91	41935.38
538.08	41998.57
538.25	41727.07
538.42	41860.48
538.59	42007.94
538.75	41827.71
538.92	41823.03
539.09	42239.65
539.26	41799.63
539.43	41904.95
539.60	42234.97
539.77	42373.06
539.94	42181.13
540.11	41972.83
540.28	42511.15
540.44	41996.23
540.61	41783.24
540.78	42426.89
540.95	42398.80
541.12	42148.37
541.29	42562.64
541.46	42412.85
541.62	42504.13
541.79	42686.69
541.96	42232.63
542.13	42808.40
542.30	42373.06
542.47	42852.87
542.63	42848.19
542.80	42782.65
542.97	43288.21
543.14	43438.00
543.31	43171.18
543.48	43194.59
543.64	44109.74
543.81	43791.42
543.98	43702.48
544.15	43498.86
544.32	43515.24
544.48	44095.69
544.65	43686.10
544.82	43676.74
544.99	43461.41
545.16	44009.09
545.32	44306.34
545.49	44144.84
545.66	44212.72
545.83	43950.58
546.00	44081.65
546.16	44079.31
546.33	43643.97
546.50	43428.64
546.67	44371.88
546.83	43821.85
547.00	43770.36
547.17	44357.83
547.34	44121.44
547.50	43604.18
547.67	44006.75
547.84	44369.54
548.00	43894.41
548.17	44320.38
548.34	44203.36
548.51	44907.86
548.67	44828.28
548.84	44563.80
549.01	44732.32
549.18	44198.68
549.34	44451.45
549.51	44912.54
549.68	44861.05
549.84	44662.10
550.01	44945.31
550.18	44170.59
550.34	44928.92
550.51	44421.03
550.68	44446.77
550.84	44781.47
551.01	44765.09
551.18	44521.67
551.34	44741.68
551.51	44849.35
551.68	44669.12
551.84	45048.29
552.01	44772.11
552.18	45280.00
552.34	44701.89
552.51	45312.77
552.68	44985.10
552.84	45535.12
553.01	44914.88
553.18	45184.04
553.34	45284.68
553.51	45050.63
553.67	45289.37
553.84	45268.30
554.01	45528.10
554.17	45542.14
554.34	45179.36
554.51	45254.26
554.67	45366.60
554.84	45710.66
555.00	45380.65
555.17	45546.82
555.33	45338.52
555.50	45134.89
555.67	45532.78
555.83	45361.92
556.00	45823.01
556.16	45911.95
556.33	45453.20
556.50	45675.55
556.66	45359.58
556.83	45179.36
556.99	45703.64
557.16	46101.53
557.32	45748.11
557.49	45717.68
557.65	45558.53
557.82	45755.13
557.98	45762.15
558.15	45844.07
558.32	45947.06
558.48	45666.19
558.65	45563.21
558.81	45890.88
558.98	45535.12
559.14	45656.83
559.31	45811.31
559.47	45769.18
559.64	45507.04
559.80	46368.35
559.97	45979.82
560.13	45347.88
560.30	45766.84
560.46	46576.66
560.63	45581.93
560.79	45923.65
560.96	46302.82
561.12	46099.19
561.29	46120.26
561.45	46433.89
561.61	45862.80
561.78	46141.32
561.94	45965.78
562.11	45741.09
562.27	45626.40
562.44	46445.59
562.60	46384.74
562.77	46466.66
562.93	46574.32
563.10	46536.87
563.26	46108.55
563.42	46309.84
563.59	46279.41
563.75	46426.87
563.92	46504.10
564.08	46167.07
564.24	46513.47
564.41	46499.42
564.57	46277.07
564.74	46185.79
564.90	46164.73
565.07	46286.43
565.23	46031.32
565.39	45993.87
565.56	46344.95
565.72	45977.48
565.88	46415.16
566.05	46321.54
566.21	45949.40
566.38	46319.20
566.54	46541.55
566.70	46705.39
566.87	47224.99
567.03	46436.23
567.19	47086.90
567.36	46450.27
567.52	46150.68
567.68	46770.93
567.85	46696.03
568.01	46731.14
568.17	46504.10
568.34	46691.35
568.50	46225.58
568.66	46548.57
568.83	46667.94
568.99	46256.01
569.15	46225.58
569.32	46220.90
569.48	46344.95
569.64	46742.84
569.81	46803.69
569.97	46663.26
570.13	46267.71
570.30	46550.91
570.46	46251.33
570.62	46087.49
570.78	45982.16
570.95	45888.54
571.11	46506.44
571.27	46089.83
571.43	46539.21
571.60	46614.11
571.76	46791.99
571.92	46548.57
572.09	46466.66
572.25	46918.38
572.41	46464.32
572.57	46972.21
572.74	46897.31
572.90	46569.64
573.06	46742.84
573.22	46541.55
573.38	46813.05
573.55	46328.56
573.71	46703.05
573.87	46508.79
574.03	46504.10
574.20	46759.22
574.36	46340.27
574.52	46974.55
574.68	46883.27
574.84	46796.67
575.01	46553.26
575.17	47133.71
575.33	46351.97
575.49	46291.12
575.65	46784.97
575.82	46897.31
575.98	46384.74
576.14	46780.29
576.30	46681.98
576.46	46953.49
576.62	46871.57
576.79	46958.17
576.95	46560.28
577.11	46611.77
577.27	46806.03
577.43	46642.20
577.59	46579.00
577.75	46480.70
577.92	46314.52
578.08	46490.06
578.24	46546.23
578.40	46291.12
578.56	46726.46
578.72	46651.56
578.88	46518.15
579.04	46520.49
579.21	46611.77
579.37	46763.90
579.53	47105.62
579.69	46836.46
579.85	46752.20
580.01	47098.60
580.17	46749.86
580.33	47159.45
580.49	46822.42
580.65	46300.48
580.82	47168.82
580.98	46738.16
581.14	46707.73
581.30	46806.03
581.46	47012.00
581.62	46712.41
581.78	46660.92
581.94	47161.79
582.10	46698.37
582.26	47154.77
582.42	46466.66
582.58	46749.86
582.74	46447.93
582.90	47222.65
583.06	47026.04
583.22	46944.12
583.38	46710.07
583.54	47288.18
583.70	46880.93
583.86	46974.55
584.02	46433.89
584.18	46653.90
584.34	46887.95
584.50	46518.15
584.66	47072.85
584.82	46681.98
584.98	46941.78
585.14	47023.70
585.30	46546.23
585.46	47042.43
585.62	47098.60
585.78	46773.27
585.94	46366.01
586.10	46714.75
586.26	46700.71
586.42	47033.07
586.58	46679.64
586.74	47068.17
586.90	46775.61
587.06	46333.24
587.22	46852.84
587.38	46438.57
587.54	46850.50
587.70	46962.85
587.86	47103.28
588.02	46850.50
588.18	47014.34
588.34	46869.23
588.49	46211.54
588.65	46160.05
588.81	46036.00
588.97	46377.72
589.13	46274.73
589.29	46637.51
589.45	46953.49
589.61	46588.36
589.77	46773.27
589.93	46548.57
590.08	46827.10
590.24	47250.74
590.40	47042.43
590.56	47356.06
590.72	47136.05
590.88	46560.28
591.04	46850.50
591.20	47693.10
591.35	47426.28
591.51	47461.38
591.67	47082.22
591.83	46885.61
591.99	46597.73
592.15	46733.48
592.31	46871.57
592.46	46827.10
592.62	46642.20
592.78	47070.51
592.94	47019.02
593.10	46958.17
593.26	46841.14
593.41	47203.92
593.57	47047.11
593.73	46855.18
593.89	46618.79
594.05	47030.72
594.20	46965.19
594.36	47349.04
594.52	46480.70
594.68	46726.46
594.84	46789.65
594.99	47026.04
595.15	46822.42
595.31	46623.47
595.47	47222.65
595.62	47168.82
595.78	46728.80
595.94	47239.03
596.10	47206.26
596.25	46939.44
596.41	47299.89
596.57	46948.81
596.73	47157.11
596.88	46983.91
597.04	46887.95
597.20	46663.26
597.36	47131.37
597.51	47313.93
597.67	47292.86
597.83	46909.02
597.99	47337.33
598.14	47229.67
598.30	47192.22
598.46	46564.96
598.61	47213.29
598.77	46906.68
598.93	46703.05
599.09	47012.00
599.24	47363.08
599.40	47405.21
599.56	47035.41
599.71	46902.00
599.87	47026.04
600.03	46768.58
600.18	47079.88
600.34	47154.77
600.50	47365.42
600.65	47159.45
600.81	47175.84
600.97	47285.84
601.12	47131.37
601.28	46976.89
601.44	46892.63
601.59	46707.73
601.75	46511.13
601.91	46899.65
602.06	46342.61
602.22	46532.19
602.37	46752.20
602.53	46866.89
602.69	47220.31
602.84	46726.46
603.00	46642.20
603.16	46784.97
603.31	47093.92
603.47	47014.34
603.62	47302.23
603.78	46969.87
603.94	47136.05
604.09	47173.50
604.25	46979.23
604.40	46773.27
604.56	46866.89
604.71	47072.85
604.87	46728.80
605.03	46777.95
605.18	46672.62
605.34	46866.89
605.49	46518.15
605.65	46632.83
605.80	46576.66
605.96	47166.48
606.12	47220.31
606.27	46859.87
606.43	47030.72
606.58	46806.03
606.74	46590.70
606.89	46784.97
607.05	46789.65
607.20	46904.34
607.36	46550.91
607.51	46923.06
607.67	46815.40
607.82	46639.86
607.98	46347.29
608.13	46197.49
608.29	46300.48
608.44	46436.23
608.60	45890.88
608.75	46719.43
608.91	46380.06
609.06	46326.22
609.22	46522.83
609.37	46099.19
609.53	46593.04
609.68	46433.89
609.84	46174.09
609.99	46017.27
610.15	46316.86
610.30	45900.25
610.46	45993.87
610.61	46171.75
610.76	46590.70
610.92	46527.51
611.07	46466.66
611.23	46323.88
611.38	46209.20
611.54	46263.03
611.69	45853.44
611.84	45977.48
612.00	46115.58
612.15	45991.53
612.31	46038.34
612.46	45944.72
612.62	46096.85
612.77	45937.69
612.92	46281.75
613.08	45949.40
613.23	45722.37
613.39	45949.40
613.54	45574.91
613.69	45982.16
613.85	45467.25
614.00	45879.18
614.15	46192.81
614.31	46073.45
614.46	46061.74
614.62	45750.45
614.77	45511.72
614.92	45830.03
615.08	46012.59
615.23	45415.76
615.38	45724.71
615.54	45434.48
615.69	45748.11
615.84	45528.10
616.00	45530.44
616.15	45099.78
616.30	45186.38
616.46	45226.17
616.61	45099.78
616.76	45804.28
616.92	45130.21
617.07	44779.13
617.22	45081.06
617.37	45003.82
617.53	45280.00
617.68	45640.45
617.83	45317.45
617.99	45546.82
618.14	45474.27
618.29	45687.26
618.45	45219.15
618.60	45031.91
618.75	44856.37
618.90	45373.63
619.06	45184.04
619.21	45275.32
619.36	45366.60
619.51	45284.68
619.67	44795.51
619.82	45219.15
619.97	45556.19
620.12	44989.78
620.28	44938.29
620.43	45029.57
620.58	44456.14
620.73	44591.89
620.89	45029.57
621.04	44818.92
621.19	45020.20
621.34	44933.60
621.49	44622.31
621.65	44598.91
621.80	44687.85
621.95	44624.65
622.10	44364.85
622.25	44406.98
622.41	44540.39
622.56	44278.25
622.71	44367.20
622.86	44280.60
623.01	44514.65
623.16	44708.91
623.32	44032.50
623.47	44488.90
623.62	44165.91
623.77	44030.16
623.92	44816.58
624.07	44219.74
624.23	44004.41
624.38	43821.85
624.53	43945.90
624.68	44034.84
624.83	44037.18
624.98	43826.53
625.13	44037.18
625.29	43702.48
625.44	43810.15
625.59	43330.34
625.74	43236.72
625.89	43189.91
626.04	43618.22
626.19	43887.39
626.34	43641.63
626.49	43866.32
626.65	44098.03
626.80	43328.00
626.95	43854.62
627.10	44046.54
627.25	43377.15
627.40	43459.07
627.55	43009.68
627.70	43014.37
627.85	43206.29
628.00	42759.25
628.15	43185.22
628.30	42873.93
628.45	43435.66
628.60	43438.00
628.76	42916.06
628.91	43552.69
629.06	42937.13
629.21	42768.61
629.36	43438.00
629.51	42883.30
629.66	42955.85
629.81	42801.38
629.96	42958.19
630.11	42824.78
630.26	43028.41
630.41	43288.21
630.56	42885.64
630.71	42773.29
630.86	42724.14
631.01	42382.42
631.16	42887.98
631.31	42635.20
631.46	42506.47
631.61	42190.50
631.76	42628.18
631.91	42590.73
632.06	42663.28
632.21	42902.02
632.36	42735.84
632.51	42703.07
632.66	42511.15
632.81	42085.17
632.96	42232.63
633.10	42157.73
633.25	42621.16
633.40	42646.90
633.55	42501.79
633.70	42522.85
633.85	41886.23
634.00	42099.22
634.15	42501.79
634.30	42265.39
634.45	42230.29
634.60	42412.85
634.75	41804.31
634.90	42220.92
635.05	41935.38
635.19	41989.21
635.34	42209.22
635.49	41579.62
635.64	41979.85
635.79	41909.63
635.94	41881.55
636.09	42176.45
636.24	41635.79
636.39	41584.30
636.53	41684.94
636.68	41975.17
636.83	41626.43
636.98	41928.36
637.13	41518.76
637.28	42080.49
637.43	42202.20
637.57	41668.56
637.72	42129.64
637.87	41450.89
638.02	41633.45
638.17	41799.63
638.32	41460.25
638.46	41619.41
638.61	41588.98
638.76	41729.41
638.91	40725.32
639.06	41755.16
639.20	41661.54
639.35	41469.61
639.50	41670.90
639.65	41617.07
639.80	41546.85
639.94	41434.50
640.09	40959.38
640.24	41242.58
640.39	40612.98
640.54	40980.44
640.68	40954.69
640.83	41153.64
640.98	41027.25
641.13	40837.67
641.27	41064.70
641.42	40762.77
641.57	40938.31
641.72	40975.76
641.86	40790.86
642.01	40479.57
642.16	40858.73
642.31	40041.88
642.45	40708.94
642.60	40701.92
642.75	41078.74
642.90	40685.53
643.04	40734.68
643.19	40835.33
643.34	40615.32
643.48	40472.54
643.63	40074.65
643.78	40212.74
643.93	40037.20
644.07	40322.75
644.22	40362.54
644.37	40161.25
644.51	40383.60
644.66	39756.34
644.81	40350.84
644.95	40573.19
645.10	40582.55
645.25	40128.48
645.39	40219.77
645.54	40442.12
645.69	40142.53
645.83	39636.97
645.98	40086.36
646.13	40215.08
646.27	39922.52
646.42	40156.57
646.57	39922.52
646.71	40336.79
646.86	40437.44
647.00	40121.46
647.15	40184.66
647.30	39997.41
647.44	39721.23
647.59	40142.53
647.74	39604.20
647.88	39910.82
648.03	39758.68
648.17	39854.64
648.32	39803.15
648.47	40123.80
648.61	39669.74
648.76	40069.97
648.90	39613.57
649.05	39456.75
649.20	39257.81
649.34	39686.12
649.49	39115.03
649.63	39524.63
649.78	39220.36
649.92	38974.60
650.07	39529.31
650.21	39304.62
650.36	39194.61
650.51	39234.40
650.65	39639.31
650.80	39796.13
650.94	39316.32
651.09	39480.16
651.23	39100.99
651.38	38981.62
651.52	39363.13
651.67	38920.77
651.81	39065.88
651.96	38895.02
652.10	39292.91
652.25	39302.28
652.39	39384.19
652.54	38787.36
652.68	39096.31
652.83	39143.12
652.97	39189.93
653.12	39007.37
653.26	38794.38
653.41	38522.88
653.55	38508.83
653.70	38651.61
653.84	38644.59
653.99	38724.16
654.13	38501.81
654.27	38469.04
654.42	38274.78
654.56	38452.66
654.71	38539.26
654.85	39159.50
655.00	38314.57
655.14	37996.26
655.29	38103.92
655.43	38089.88
655.57	38099.24
655.72	37912.00
655.86	37619.43
656.01	37610.07
656.15	37727.10
656.30	38382.45
656.44	37949.45
656.58	37357.29
656.73	37888.59
656.87	37811.35
657.01	38071.15
657.16	38132.01
657.30	37633.47
657.45	37872.21
657.59	38007.96
657.73	37537.51
657.88	38045.41
658.02	37928.38
658.16	38108.60
658.31	38181.16
658.45	37818.38
658.60	37839.44
658.74	37818.38
658.88	37338.57
659.03	37652.20
659.17	37448.57
659.31	37392.40
659.46	37464.96
659.60	37223.88
659.74	37106.85
659.89	37216.86
660.03	37003.87
660.17	37411.12
660.32	37251.97
660.46	37376.01
660.60	37397.08
660.74	37118.56
660.89	37209.84
661.03	36580.23
661.17	36769.82
661.32	36165.96
661.46	37001.53
661.60	36884.50
661.74	36814.29
661.89	36472.57
662.03	36825.99
662.17	36526.40
662.31	36631.72
662.46	36715.98
662.60	36797.90
662.74	36416.40
662.88	36355.54
663.03	36058.29
663.17	35784.45
663.31	36060.63
663.45	35749.34
663.60	36100.42
663.74	36172.98
663.88	35784.45
664.02	36287.67
664.17	36158.94
664.31	35674.45
664.45	35709.55
664.59	35587.85
664.73	35220.38
664.88	35622.95
665.02	35512.95
665.16	35585.50
665.30	35531.67
665.44	35651.04
665.59	35482.52
665.73	35517.63
665.87	35452.09
666.01	35569.12
666.15	35576.14
666.29	35349.11
666.44	35416.99
666.58	34899.73
666.72	35019.10
666.86	35044.84
667.00	35054.20
667.14	34267.78
667.28	34843.56
667.43	34705.46
667.57	34813.13
667.71	34822.49
667.85	34803.77
667.99	34408.22
668.13	34227.99
668.27	34190.55
668.41	34726.53
668.56	33940.11
668.70	34284.17
668.84	34497.16
668.98	33874.57
669.12	34141.39
669.26	34237.36
669.40	33591.37
669.54	33897.98
669.68	34132.03
669.82	33715.42
669.96	33713.08
670.10	33795.00
670.25	33631.16
670.39	33563.28
670.53	33259.01
670.67	33504.77
670.81	33652.22
670.95	33432.21
671.09	33006.23
671.23	33010.92
671.37	33319.87
671.51	32694.94
671.65	32851.76
671.79	32921.98
671.93	32568.55
672.07	33036.66
672.21	33177.09
672.35	33041.34
672.49	32882.19
672.63	32533.45
672.77	32409.40
672.91	33048.36
673.05	32400.04
673.19	32367.27
673.33	32058.32
673.47	31955.33
673.61	31903.84
673.75	31840.65
673.89	31751.71
674.03	31569.15
674.17	32231.52
674.31	31927.25
674.45	31924.91
674.59	31644.04
674.73	31758.73
674.87	31491.91
675.01	31693.19
675.15	31381.90
675.29	31522.34
675.43	31440.42
675.56	30918.48
675.70	30792.09
675.84	30848.26
675.98	30576.76
676.12	30728.89
676.26	30677.40
676.40	30366.11
676.54	30892.73
676.68	30710.17
676.82	30309.94
676.96	30408.24
677.10	30150.78
677.23	30073.54
677.37	29886.30
677.51	30052.48
677.65	29802.04
677.79	29474.37
677.93	29727.14
678.07	29537.56
678.21	29364.36
678.34	29359.68
678.48	28966.47
678.62	29289.46
678.76	28617.73
678.90	28865.83
679.04	28959.45
679.18	28804.97
679.31	28430.49
679.45	28781.57
679.59	28170.69
679.73	28332.18
679.87	28128.56
680.00	28053.66
680.14	28151.96
680.28	28149.62
680.42	28353.25
680.56	28416.44
680.70	27700.24
680.83	28163.67
680.97	28004.51
681.11	27601.94
681.25	27754.07
681.39	27513.00
681.52	27791.52
681.66	27435.76
681.80	27828.97
681.94	27328.10
682.07	27129.15
682.21	27140.85
682.35	27349.16
682.49	26927.86
682.62	27225.11
682.76	26539.33
682.90	26691.47
683.04	26684.45
683.17	26384.86
683.31	26015.05
683.45	26326.35
683.59	26061.87
683.72	25963.56
683.86	26010.37
684.00	25617.16
684.13	25968.24
684.27	25872.28
684.41	25743.55
684.55	25605.46
684.68	25151.40
684.82	25291.83
684.96	25525.88
685.09	25532.90
685.23	25062.46
685.37	25146.72
685.50	25062.46
685.64	24891.60
685.78	24566.26
685.91	24753.51
686.05	24425.83
686.19	24208.16
686.32	24297.10
686.46	23859.42
686.60	23812.61
686.73	24154.33
686.87	23641.75
687.01	23243.86
687.14	23243.86
687.28	23194.71
687.42	23353.87
687.55	23257.90
687.69	23672.18
687.82	23199.39
687.96	23438.12
688.10	23363.23
688.23	23192.37
688.37	22862.35
688.50	22595.53
688.64	22946.61
688.78	22644.68
688.91	22553.40
689.05	22724.26
689.18	22508.93
689.32	22097.00
689.46	22504.25
689.59	22366.16
689.73	22281.90
689.86	22415.31
690.00	22106.36
690.13	22066.57
690.27	22160.19
690.41	21699.11
690.54	21263.77
690.68	21556.33
690.81	21652.30
690.95	21390.16
691.08	21696.77
691.22	21425.26
691.35	21195.89
691.49	21624.21
691.62	21291.85
691.76	20807.36
691.89	21034.39
692.03	20762.89
692.16	20837.79
692.30	20685.65
692.43	20615.44
692.57	20365.00
692.70	20114.56
692.84	20215.21
692.97	20369.68
693.11	20287.76
693.24	20119.24
693.38	19969.45
693.51	19676.88
693.65	20088.82
693.78	19946.05
693.92	19796.25
694.05	19730.72
694.19	19318.78
694.32	19590.28
694.45	19304.74
694.59	18960.68
694.72	19344.53
694.86	19386.66
694.99	19021.53
695.13	19187.71
695.26	18824.93
695.39	18651.73
695.53	18967.70
695.66	19124.52
695.80	18633.00
695.93	18494.91
696.07	18492.57
696.20	18476.19
696.33	18614.28
696.47	18190.64
696.60	18340.44
696.73	17724.88
696.87	18064.25
697.00	18176.60
697.14	17886.37
697.27	17825.52
697.40	18078.30
697.54	17516.57
697.67	17865.31
697.80	17715.51
697.94	17422.95
698.07	17642.96
698.21	17125.70
698.34	17308.26
698.47	17069.53
698.61	16725.47
698.74	16915.05
698.87	16685.68
699.01	16563.97
699.14	16496.10
699.27	16524.18
699.40	16690.36
699.54	16390.77
699.67	16453.97
699.80	16437.58
699.94	16336.94
700.07	16353.32
700.20	15815.00
700.34	16088.84
700.47	16273.74
700.60	16074.80
700.73	16093.52
700.87	15894.58
701.00	16159.06
701.13	15704.99
701.26	15604.35
701.40	15721.38
701.53	15243.91
701.66	15506.05
701.79	15288.38
701.93	15445.20
702.06	15250.93
702.19	14972.41
702.32	15117.52
702.46	15007.52
702.59	14904.53
702.72	14843.68
702.85	15098.80
702.99	14979.43
703.12	14506.64
703.25	14958.36
703.38	14417.70
703.51	14408.34
703.65	14579.20
703.78	14621.33
703.91	14455.15
704.04	14361.53
704.17	14197.69
704.31	14373.23
704.44	14466.85
704.57	14146.20
704.70	13900.44
704.83	13865.33
704.96	13994.06
705.10	13968.32
705.23	13860.65
>>>>>End Processed Spectral Data<<<<<
