SpectraSuite Data File
++++++++++++++++++++++++++++++++++++
Date: Fri Oct 25 10:43:51 EDT 2013
User: price-jones
Dark Spectrum Present: No
Reference Spectrum Present: No
Number of Sampled Component Spectra: 1
Spectrometers: USB2+H05261
Integration Time (usec): 100000 (USB2+H05261)
Spectra Averaged: 1 (USB2+H05261)
Boxcar Smoothing: 0 (USB2+H05261)
Correct for Electrical Dark: No (USB2+H05261)
Strobe/Lamp Enabled: No (USB2+H05261)
Correct for Detector Non-linearity: No (USB2+H05261)
Correct for Stray Light: No (USB2+H05261)
Number of Pixels in Processed Spectrum: 2048
>>>>>Begin Processed Spectral Data<<<<<
365.73	112.35
365.92	112.35
366.12	112.35
366.32	0.00
366.52	0.00
366.72	79.58
366.91	84.26
367.11	16.38
367.31	30.43
367.51	37.45
367.70	65.54
367.90	23.41
368.10	0.00
368.30	91.28
368.49	58.51
368.69	72.56
368.89	0.00
369.09	28.09
369.28	67.88
369.48	9.36
369.68	42.13
369.87	110.01
370.07	135.75
370.27	124.05
370.47	159.16
370.66	344.06
370.86	376.83
371.06	390.87
371.25	465.77
371.45	526.62
371.65	465.77
371.84	395.55
372.04	461.09
372.24	489.17
372.44	505.56
372.63	454.06
372.83	521.94
373.03	477.47
373.22	526.62
373.42	575.77
373.62	510.24
373.81	552.37
374.01	557.05
374.21	531.30
374.40	517.26
374.60	587.47
374.79	575.77
374.99	629.60
375.19	589.82
375.38	557.05
375.58	601.52
375.78	601.52
375.97	543.00
376.17	608.54
376.37	517.26
376.56	622.58
376.76	667.05
376.95	613.22
377.15	608.54
377.35	615.56
377.54	718.54
377.74	627.26
377.93	592.16
378.13	662.37
378.33	699.82
378.52	667.05
378.72	655.35
378.91	683.44
379.11	613.22
379.31	596.84
379.50	669.39
379.70	758.33
379.89	650.67
380.09	723.23
380.28	606.20
380.48	669.39
380.68	734.93
380.87	664.71
381.07	760.67
381.26	725.57
381.46	730.25
381.65	718.54
381.85	720.88
382.04	800.46
382.24	758.33
382.43	685.78
382.63	695.14
382.83	720.88
383.02	725.57
383.22	781.74
383.41	739.61
383.61	748.97
383.80	828.55
384.00	800.46
384.19	746.63
384.39	760.67
384.58	779.40
384.78	774.72
384.97	784.08
385.17	791.10
385.36	770.04
385.56	863.66
385.75	856.64
385.95	767.70
386.14	828.55
386.34	854.30
386.53	880.04
386.72	945.58
386.92	903.45
387.11	777.06
387.31	842.59
387.50	880.04
387.70	816.85
387.89	863.66
388.09	844.93
388.28	894.08
388.48	875.36
388.67	910.47
388.86	908.13
389.06	999.41
389.25	931.53
389.45	999.41
389.64	1006.43
389.84	1013.45
390.03	1064.94
390.22	1036.86
390.42	1060.26
390.61	1053.24
390.81	1036.86
391.00	1050.90
391.19	1179.63
391.39	1060.26
391.58	1083.67
391.78	1071.97
391.97	1144.52
392.16	978.34
392.36	1055.58
392.55	959.62
392.75	994.73
392.94	983.02
393.13	961.96
393.33	999.41
393.52	1004.09
393.71	1179.63
393.91	1018.13
394.10	1165.59
394.29	1217.08
394.49	1121.12
394.68	1238.14
394.88	1200.69
395.07	1303.68
395.26	1313.04
395.46	1310.70
395.65	1212.40
395.84	1282.61
396.04	1228.78
396.23	1118.78
396.42	1132.82
396.62	1217.08
396.81	1235.80
397.00	1198.35
397.19	1252.19
397.39	1359.85
397.58	1401.98
397.77	1364.53
397.97	1359.85
398.16	1444.11
398.35	1467.52
398.55	1406.66
398.74	1474.54
398.93	1474.54
399.12	1523.69
399.32	1441.77
399.51	1568.16
399.70	1657.10
399.90	1460.49
400.09	1561.14
400.28	1568.16
400.47	1633.69
400.67	1694.55
400.86	1661.78
401.05	1629.01
401.24	1680.50
401.44	1755.40
401.63	1591.56
401.82	1778.81
402.01	1668.80
402.21	1720.29
402.40	1736.68
402.59	1732.00
402.78	1816.26
402.97	1795.19
403.17	1858.39
403.36	1816.26
403.55	1865.41
403.74	1954.35
403.93	1947.33
404.13	1886.47
404.32	1771.79
404.51	1930.94
404.70	1963.71
404.89	1921.58
405.09	1982.43
405.28	1891.15
405.47	1933.28
405.66	2139.25
405.85	2015.20
406.05	1919.24
406.24	1956.69
406.43	2045.63
406.62	2038.61
406.81	2122.87
407.00	1984.77
407.20	2153.29
407.39	2040.95
407.58	2120.53
407.77	2167.34
407.96	2239.89
408.15	2183.72
408.34	2253.94
408.54	2239.89
408.73	2345.22
408.92	2370.96
409.11	2380.32
409.30	2413.09
409.49	2298.41
409.68	2333.51
409.87	2249.25
410.07	2270.32
410.26	2349.90
410.45	2443.52
410.64	2441.18
410.83	2429.48
411.02	2562.89
411.21	2600.34
411.40	2562.89
411.59	2738.43
411.78	2534.80
411.98	2633.10
412.17	2738.43
412.36	2700.98
412.55	2803.96
412.74	2813.32
412.93	2658.85
413.12	2708.00
413.31	3035.67
413.50	2869.50
413.69	2839.07
413.88	3005.25
414.07	2998.23
414.26	2970.14
414.45	3021.63
414.64	3075.46
414.83	3014.61
415.02	2960.78
415.22	3239.30
415.41	3133.98
415.60	3159.72
415.79	3145.68
415.98	3281.43
416.17	3316.54
416.36	3311.86
416.55	3346.97
416.74	3335.26
416.93	3337.60
417.12	3323.56
417.31	3356.33
417.50	3368.03
417.69	3492.08
417.88	3417.18
418.07	3541.23
418.26	3489.74
418.45	3653.58
418.64	3552.93
418.83	3714.43
419.02	3562.30
419.21	3623.15
419.39	3686.34
419.58	3480.38
419.77	3595.06
419.96	3716.77
420.15	3672.30
420.34	3758.90
420.53	3838.48
420.72	3861.88
420.91	3782.31
421.10	3946.14
421.29	3974.23
421.48	3850.18
421.67	3988.27
421.86	3885.29
422.05	3786.99
422.24	3686.34
422.43	3716.77
422.61	3824.44
422.80	3969.55
422.99	3887.63
423.18	4004.66
423.37	4044.45
423.56	4175.52
423.75	3964.87
423.94	3822.09
424.13	3782.31
424.32	3822.09
424.50	4004.66
424.69	4030.40
424.88	4002.32
425.07	3988.27
425.26	3904.01
425.45	3976.57
425.64	3925.08
425.83	3985.93
426.01	4248.07
426.20	4032.74
426.39	4135.73
426.58	4088.92
426.77	3950.82
426.96	4028.06
427.15	4002.32
427.33	4243.39
427.52	4046.79
427.71	4142.75
427.90	4166.15
428.09	4250.41
428.28	4189.56
428.46	4156.79
428.65	4152.11
428.84	4292.54
429.03	4222.33
429.22	4170.83
429.40	4248.07
429.59	4100.62
429.78	3983.59
429.97	4016.36
430.16	3934.44
430.34	3981.25
430.53	4042.11
430.72	4234.03
430.91	4264.46
431.10	4390.84
431.28	4564.04
431.47	4648.30
431.66	4765.33
431.85	4432.97
432.03	4732.56
432.22	4627.24
432.41	4571.07
432.60	4805.12
432.79	4727.88
432.97	4910.44
433.16	4889.38
433.35	4777.03
433.54	4798.10
433.72	4660.01
433.91	4706.82
434.10	4837.89
434.28	4978.32
434.47	4877.68
434.66	5043.85
434.85	4931.51
435.03	5156.20
435.22	4945.55
435.41	5139.82
435.59	5055.56
435.78	5163.22
435.97	5242.80
436.16	5144.50
436.34	5130.45
436.53	5097.69
436.72	5191.31
436.90	5064.92
437.09	5128.11
437.28	5093.01
437.46	5081.30
437.65	5219.39
437.84	5242.80
438.02	5296.63
438.21	5233.44
438.40	5128.11
438.58	5509.62
438.77	5399.62
438.96	5549.41
439.14	5387.91
439.33	5605.58
439.52	5750.70
439.70	5636.01
439.89	5715.59
440.08	5720.27
440.26	5853.68
440.45	5741.33
440.63	5919.21
440.82	5942.62
441.01	6012.84
441.19	5973.05
441.38	6064.33
441.57	6090.07
441.75	6134.54
441.94	6347.53
442.12	6186.04
442.31	6293.70
442.50	6307.74
442.68	6443.49
442.87	6382.64
443.05	6282.00
443.24	6366.26
443.43	6665.85
443.61	6394.34
443.80	6745.42
443.98	6502.01
444.17	6279.66
444.35	6562.86
444.54	6619.04
444.73	6572.22
444.91	6642.44
445.10	6476.26
445.28	6352.21
445.47	6181.35
445.65	6513.71
445.84	6438.81
446.02	6567.54
446.21	6640.10
446.39	6705.63
446.58	6600.31
446.77	6686.91
446.95	6612.01
447.14	6789.89
447.32	6693.93
447.51	6803.94
447.69	6700.95
447.88	6658.82
448.06	6909.26
448.25	6923.30
448.43	6782.87
448.62	6743.08
448.80	6750.10
448.99	6909.26
449.17	6717.34
449.36	6850.75
449.54	7087.14
449.73	7169.06
449.91	7190.13
450.10	7028.63
450.28	7274.38
450.46	7300.13
450.65	7290.77
450.83	7253.32
451.02	7260.34
451.20	7241.62
451.39	7337.58
451.57	7262.68
451.76	7037.99
451.94	7014.59
452.13	7293.11
452.31	7311.83
452.49	7061.40
452.68	7143.32
452.86	7272.04
453.05	7082.46
453.23	7440.56
453.42	7290.77
453.60	7075.44
453.78	7531.84
453.97	7337.58
454.15	7421.84
454.34	7489.71
454.52	7365.67
454.70	7517.80
454.89	7510.78
455.07	7377.37
455.26	7653.55
455.44	7915.69
455.62	7786.96
455.81	7770.58
455.99	7864.20
456.17	7920.37
456.36	7978.89
456.54	7995.27
456.73	7892.29
456.91	8212.94
457.09	8035.06
457.28	8198.90
457.46	8135.70
457.64	8255.07
457.83	8086.55
458.01	8046.76
458.19	8229.32
458.38	8135.70
458.56	8297.20
458.74	8411.89
458.93	8360.39
459.11	8341.67
459.29	8292.52
459.48	8479.76
459.66	8484.44
459.84	8566.36
460.03	8828.50
460.21	8582.74
460.39	8475.08
460.57	8430.61
460.76	8454.02
460.94	8552.32
461.12	8571.04
461.31	8861.27
461.49	8814.46
461.67	8554.66
461.85	9032.13
462.04	8777.01
462.22	9109.36
462.40	8992.34
462.59	8952.55
462.77	9078.94
462.95	9083.62
463.13	8945.53
463.32	8917.44
463.50	9102.34
463.68	9064.89
463.86	8982.98
464.05	8975.95
464.23	8910.42
464.41	9022.77
464.59	8795.73
464.78	9320.01
464.96	9142.13
465.14	8891.70
465.32	9329.38
465.50	9411.29
465.69	9415.98
465.87	9415.98
466.05	9310.65
466.23	9071.92
466.41	9135.11
466.60	9502.58
466.78	9111.71
466.96	9193.62
467.14	9291.93
467.32	9533.00
467.51	9448.74
467.69	9320.01
467.87	9455.76
468.05	9717.90
468.23	9413.63
468.41	9432.36
468.60	9549.39
468.78	9687.48
468.96	9444.06
469.14	9877.06
469.32	9720.24
469.50	9671.09
469.69	9820.89
469.87	9837.27
470.05	9851.31
470.23	10024.51
470.41	9706.20
470.59	10162.61
470.77	9919.19
470.95	10085.37
471.14	10373.25
471.32	9935.57
471.50	10370.91
471.68	10249.21
471.86	10363.89
472.04	10366.23
472.22	10806.25
472.40	10235.16
472.58	10377.94
472.77	10361.55
472.95	10719.65
473.13	10778.17
473.31	10328.78
473.49	10413.04
473.67	10640.08
473.85	10754.76
474.03	10867.11
474.21	10944.34
474.39	10998.18
474.57	11056.69
474.75	11323.51
474.93	11286.06
475.12	11375.00
475.30	11363.30
475.48	11274.36
475.66	11414.79
475.84	11440.54
476.02	11487.35
476.20	11515.44
476.38	11634.80
476.56	11817.36
476.74	11955.46
476.92	11831.41
477.10	11861.84
477.28	12170.79
477.46	12035.03
477.64	12245.68
477.82	12444.63
478.00	12755.92
478.18	12692.73
478.36	12650.60
478.54	12695.07
478.72	12776.98
478.90	12961.89
479.08	12996.99
479.26	13118.70
479.44	13069.55
479.62	13324.67
479.80	13397.23
479.98	13406.59
480.16	13675.75
480.34	13586.81
480.52	13844.27
480.70	13888.74
480.88	13827.88
481.06	14122.79
481.24	13820.86
481.41	14333.44
481.59	14331.10
481.77	14197.69
481.95	14153.22
482.13	14579.20
482.31	14560.47
482.49	14946.66
482.67	15007.52
482.85	14874.10
483.03	15234.55
483.21	15365.62
483.39	15461.58
483.57	15445.20
483.74	15807.98
483.92	15632.44
484.10	15417.11
484.28	15847.77
484.46	16079.48
484.64	16140.33
484.82	16219.91
485.00	16339.28
485.18	16362.69
485.35	16367.37
485.53	16159.06
485.71	16013.95
485.89	16615.46
486.07	16404.81
486.25	16465.67
486.43	16957.18
486.61	17095.27
486.78	17329.33
486.96	17434.65
487.14	17738.92
487.32	17788.07
487.50	17795.09
487.68	17862.97
487.85	18214.05
488.03	18534.70
488.21	18574.49
488.39	18597.90
488.57	18555.77
488.75	18958.34
488.92	19433.47
489.10	19454.53
489.28	19405.38
489.46	19618.37
489.64	19702.63
489.81	20229.25
489.99	20147.33
490.17	20205.84
490.35	20519.48
490.53	20123.93
490.70	20739.49
490.88	20465.64
491.06	20615.44
491.24	21060.14
491.41	20989.92
491.59	20823.75
491.77	20959.50
491.95	21099.93
492.13	21376.11
492.30	21743.58
492.48	21694.43
492.66	21881.67
492.84	21958.91
493.01	21884.01
493.19	22408.29
493.37	22410.63
493.54	22232.75
493.72	22490.21
493.90	22977.04
494.08	23061.30
494.25	23089.38
494.43	23529.41
494.61	23606.64
494.79	23388.97
494.96	23470.89
495.14	23271.95
495.32	23620.69
495.49	23391.31
495.67	24273.70
495.85	23927.30
496.02	24737.12
496.20	24676.27
496.38	24446.90
496.55	24615.41
496.73	25027.35
496.91	24709.04
497.09	25188.85
497.26	25191.19
497.44	25420.56
497.62	25095.22
497.79	25851.22
497.97	25378.43
498.14	25362.04
498.32	25769.30
498.50	25729.51
498.67	26174.21
498.85	26129.74
499.03	26749.98
499.20	26331.03
499.38	26544.02
499.56	26333.37
499.73	26375.50
499.91	26534.65
500.08	26834.24
500.26	26497.20
500.44	26616.57
500.61	26609.55
500.79	26679.77
500.97	27335.12
501.14	27424.06
501.32	26998.08
501.49	27283.62
501.67	27300.01
501.84	27697.90
502.02	27871.10
502.20	27772.80
502.37	27964.72
502.55	27948.34
502.72	28247.93
502.90	28376.66
503.07	27955.36
503.25	28189.41
503.43	28147.28
503.60	28130.90
503.78	28409.42
503.95	28100.47
504.13	28540.49
504.30	28739.44
504.48	28690.29
504.65	28809.65
504.83	29244.99
505.01	29432.24
505.18	29411.17
505.36	29736.51
505.53	29369.04
505.71	29649.91
505.88	29795.02
506.06	29692.04
506.23	29837.15
506.41	30008.01
506.58	29926.09
506.76	29923.75
506.93	29860.55
507.11	30038.44
507.28	29975.24
507.46	30164.82
507.63	29914.39
507.81	29993.97
507.98	30197.59
508.16	30445.69
508.33	30513.56
508.50	30831.88
508.68	31033.16
508.85	31332.75
509.03	31307.01
509.20	31051.89
509.38	31484.89
509.55	31709.58
509.73	31625.32
509.90	31428.71
510.08	31543.40
510.25	31545.74
510.42	31477.86
510.60	31543.40
510.77	31639.36
510.95	31957.67
511.12	32156.62
511.30	32119.17
511.47	32463.23
511.64	32545.15
511.82	32402.38
511.99	31894.48
512.17	32573.24
512.34	32425.78
512.51	32456.21
512.69	32566.21
512.86	32737.07
513.04	33167.73
513.21	33116.24
513.38	32481.95
513.56	33156.03
513.73	32744.09
513.90	32882.19
514.08	32683.24
514.25	32837.72
514.43	33713.08
514.60	33474.34
514.77	33284.76
514.95	34066.50
515.12	33296.46
515.29	34120.33
515.47	33888.62
515.64	34274.80
515.81	33500.09
515.99	34330.98
516.16	34113.31
516.33	33689.67
516.51	33670.95
516.68	33336.25
516.85	33811.38
517.03	33923.72
517.20	34260.76
517.37	34361.40
517.54	34911.43
517.72	34129.69
517.89	34246.72
518.06	34022.03
518.24	34153.10
518.41	34611.84
518.58	35089.31
518.75	34501.84
518.93	34684.40
519.10	34859.94
519.27	35093.99
519.45	35377.20
519.62	35821.90
519.79	35576.14
519.96	35297.62
520.14	35332.73
520.31	35534.01
520.48	35166.55
520.65	35384.22
520.83	36168.30
521.00	35903.82
521.17	36002.12
521.34	35901.48
521.52	36081.70
521.69	36526.40
521.86	36102.76
522.03	36500.65
522.20	36428.10
522.38	36250.22
522.55	36896.20
522.72	36648.11
522.89	36299.37
523.07	36938.33
523.24	36685.56
523.41	37038.98
523.58	36629.38
523.75	37624.11
523.92	37186.43
524.10	37542.19
524.27	37649.86
524.44	37064.72
524.61	37223.88
524.78	37296.44
524.96	37551.56
525.13	37998.60
525.30	37975.19
525.47	37940.08
525.64	38050.09
525.81	37921.36
525.98	37654.54
526.16	37357.29
526.33	37109.19
526.50	37998.60
526.67	37099.83
526.84	37523.47
527.01	37256.65
527.18	37619.43
527.36	38185.84
527.53	38270.10
527.70	39019.07
527.87	38775.66
528.04	38667.99
528.21	38462.02
528.38	38623.52
528.55	39152.48
528.72	39077.58
528.89	39182.91
529.07	39084.61
529.24	38944.17
529.41	38848.21
529.58	38763.95
529.75	38960.56
529.92	38871.62
530.09	39309.30
530.26	38995.67
530.43	39512.92
530.60	39173.55
530.77	39456.75
530.94	39749.32
531.11	39541.01
531.28	39353.77
531.46	39763.36
531.63	40002.10
531.80	39349.09
531.97	39337.38
532.14	39285.89
532.31	39285.89
532.48	39674.42
532.65	39653.36
532.82	39735.27
532.99	39812.51
533.16	39943.58
533.33	40177.64
533.50	40053.59
533.67	39999.76
533.84	40147.21
534.01	40025.50
534.18	40041.88
534.35	40332.11
534.52	40233.81
534.69	40332.11
534.86	40755.75
535.03	40367.22
535.20	40720.64
535.37	41029.59
535.54	41111.51
535.71	40907.88
535.88	40655.11
536.05	40830.65
536.22	40905.54
536.38	40800.22
536.55	41027.25
536.72	40776.81
536.89	40566.16
537.06	41029.59
537.23	41074.06
537.40	41242.58
537.57	41256.62
537.74	41244.92
537.91	41858.14
538.08	41256.62
538.25	41373.65
538.42	41092.79
538.59	41497.70
538.75	41436.84
538.92	41558.55
539.09	41581.96
539.26	41661.54
539.43	41717.71
539.60	41467.27
539.77	41441.53
539.94	41825.37
540.11	41364.29
540.28	41294.07
540.44	41270.67
540.61	41820.69
540.78	41495.36
540.95	41544.51
541.12	41677.92
541.29	41640.47
541.46	41787.92
541.62	42188.16
541.79	42307.52
541.96	41621.75
542.13	42270.08
542.30	42323.91
542.47	42321.57
542.63	41848.78
542.80	42696.05
542.97	42759.25
543.14	43065.86
543.31	43030.75
543.48	43051.81
543.64	43112.67
543.81	43000.32
543.98	43320.98
544.15	42684.35
544.32	42990.96
544.48	43342.04
544.65	42965.21
544.82	43328.00
544.99	42855.21
545.16	43285.87
545.32	43250.76
545.49	43381.83
545.66	43742.27
545.83	43690.78
546.00	43430.98
546.16	43192.25
546.33	43466.09
546.50	43107.99
546.67	43742.27
546.83	43159.48
547.00	43491.83
547.17	43388.85
547.34	43250.76
547.50	43494.18
547.67	43622.90
547.84	43653.33
548.00	43887.39
548.17	43711.84
548.34	43686.10
548.51	44016.11
548.67	44100.37
548.84	43826.53
549.01	44044.20
549.18	43824.19
549.34	43594.82
549.51	44062.93
549.68	43852.28
549.84	44037.18
550.01	43981.01
550.18	43934.20
550.34	43882.70
550.51	44086.33
550.68	44002.07
550.84	43735.25
551.01	44989.78
551.18	44348.47
551.34	44067.61
551.51	44245.49
551.68	44259.53
551.84	44151.87
552.01	44484.22
552.18	44161.23
552.34	44744.02
552.51	44472.52
552.68	44257.19
552.84	44685.51
553.01	44498.26
553.18	44493.58
553.34	44346.13
553.51	44414.01
553.67	44409.32
553.84	44818.92
554.01	44470.18
554.17	45333.84
554.34	45191.06
554.51	44807.22
554.67	45467.25
554.84	45247.24
555.00	44872.75
555.17	44837.64
555.33	45001.48
555.50	44788.49
555.67	45003.82
555.83	45109.14
556.00	44847.00
556.16	45148.93
556.33	44797.85
556.50	45331.50
556.66	45034.25
556.83	45001.48
556.99	45181.70
557.16	45083.40
557.32	45350.22
557.49	45392.35
557.65	45603.00
557.82	45268.30
557.98	45059.99
558.15	45144.25
558.32	45544.48
558.48	45130.21
558.65	45350.22
558.81	45258.94
558.98	45003.82
559.14	45666.19
559.31	45258.94
559.47	45216.81
559.64	45354.90
559.80	45254.26
559.97	45446.18
560.13	45345.54
560.30	44940.63
560.46	45476.61
560.63	45635.77
560.79	45617.04
560.96	45462.57
561.12	45233.19
561.29	45413.41
561.45	45586.61
561.61	45471.93
561.78	45457.88
561.94	45469.59
562.11	45647.47
562.27	45235.53
562.44	45254.26
562.60	45930.67
562.77	45720.02
562.93	45404.05
563.10	45647.47
563.26	45291.71
563.42	45963.44
563.59	45666.19
563.75	45872.16
563.92	45848.75
564.08	45397.03
564.24	46096.85
564.41	46234.94
564.57	45858.12
564.74	45628.74
564.90	45914.29
565.07	45823.01
565.23	45797.26
565.39	45635.77
565.56	45727.05
565.72	45361.92
565.88	45741.09
566.05	45764.49
566.21	45593.64
566.38	45661.51
566.54	45743.43
566.70	45818.33
566.87	45708.32
567.03	46150.68
567.19	46134.30
567.36	46031.32
567.52	46143.66
567.68	46354.31
567.85	46054.72
568.01	45848.75
568.17	45944.72
568.34	46087.49
568.50	46169.41
568.66	45914.29
568.83	45989.19
568.99	45722.37
569.15	45518.74
569.32	45930.67
569.48	45806.62
569.64	46199.83
569.81	46087.49
569.97	45677.90
570.13	45656.83
570.30	45844.07
570.46	46000.89
570.62	45392.35
570.78	45357.24
570.95	45947.06
571.11	45944.72
571.27	45958.76
571.43	45832.37
571.60	46391.76
571.76	45759.81
571.92	46028.98
572.09	45673.21
572.25	46183.45
572.41	45780.88
572.57	46471.34
572.74	46539.21
572.90	46192.81
573.06	46239.62
573.22	45986.85
573.38	45691.94
573.55	45933.01
573.71	46614.11
573.87	46576.66
574.03	46209.20
574.20	45834.71
574.36	46253.67
574.52	46300.48
574.68	45944.72
574.84	46396.44
575.01	46286.43
575.17	46209.20
575.33	45380.65
575.49	46031.32
575.65	46148.34
575.82	46263.03
575.98	45925.99
576.14	46263.03
576.30	46361.33
576.46	46300.48
576.62	45998.55
576.79	45862.80
576.95	45951.74
577.11	45844.07
577.27	46080.47
577.43	46478.36
577.59	45743.43
577.75	46043.02
577.92	46136.64
578.08	45780.88
578.24	46209.20
578.40	45937.69
578.56	46569.64
578.72	45984.51
578.88	46497.08
579.04	46335.59
579.21	46003.23
579.37	46087.49
579.53	46094.51
579.69	46164.73
579.85	46113.23
580.01	46635.17
580.17	45904.93
580.33	46305.16
580.49	46293.46
580.65	46246.65
580.82	46436.23
580.98	45755.13
581.14	46148.34
581.30	46686.67
581.46	46078.13
581.62	46307.50
581.78	46230.26
581.94	46323.88
582.10	46007.91
582.26	46057.06
582.42	46368.35
582.58	46195.15
582.74	45935.35
582.90	46298.14
583.06	46483.04
583.22	46099.19
583.38	46658.58
583.54	46632.83
583.70	46560.28
583.86	46667.94
584.02	46026.63
584.18	46506.44
584.34	46209.20
584.50	46131.96
584.66	45881.52
584.82	46337.93
584.98	46422.19
585.14	46277.07
585.30	45970.46
585.46	46246.65
585.62	46382.40
585.78	46050.04
585.94	45874.50
586.10	46054.72
586.26	46396.44
586.42	46197.49
586.58	46469.00
586.74	46307.50
586.90	46033.66
587.06	46248.99
587.22	46080.47
587.38	45949.40
587.54	46464.32
587.70	46314.52
587.86	46277.07
588.02	46422.19
588.18	46445.59
588.34	46071.10
588.49	45780.88
588.65	45469.59
588.81	45942.38
588.97	46185.79
589.13	45698.96
589.29	45925.99
589.45	46211.54
589.61	46225.58
589.77	46358.99
589.93	45949.40
590.08	46834.12
590.24	46588.36
590.40	46651.56
590.56	46714.75
590.72	46438.57
590.88	46050.04
591.04	46761.56
591.20	46665.60
591.35	46721.77
591.51	46806.03
591.67	46342.61
591.83	46349.63
591.99	45951.74
592.15	46382.40
592.31	46169.41
592.46	46548.57
592.62	46492.40
592.78	46857.52
592.94	46597.73
593.10	46230.26
593.26	46616.45
593.41	46321.54
593.57	46232.60
593.73	46000.89
593.89	46586.02
594.05	46588.36
594.20	46302.82
594.36	46504.10
594.52	46202.18
594.68	46710.07
594.84	46286.43
594.99	46866.89
595.15	46349.63
595.31	46621.13
595.47	46784.97
595.62	46532.19
595.78	46815.40
595.94	46635.17
596.10	46745.18
596.25	46138.98
596.41	46248.99
596.57	46513.47
596.73	46476.02
596.88	46202.18
597.04	46356.65
597.20	46370.69
597.36	46401.12
597.51	46497.08
597.67	46513.47
597.83	46773.27
597.99	46410.48
598.14	46354.31
598.30	46218.56
598.46	46794.33
598.61	46508.79
598.77	46281.75
598.93	46614.11
599.09	46469.00
599.24	46923.06
599.40	46836.46
599.56	46843.48
599.71	46209.20
599.87	46461.97
600.03	46628.15
600.18	46358.99
600.34	45991.53
600.50	46567.30
600.65	46518.15
600.81	46583.68
600.97	47037.75
601.12	46923.06
601.28	46417.50
601.44	46696.03
601.59	46543.89
601.75	46291.12
601.91	46244.30
602.06	46340.27
602.22	46288.77
602.37	46536.87
602.53	46073.45
602.69	46681.98
602.84	46679.64
603.00	46225.58
603.16	46520.49
603.31	46415.16
603.47	46644.54
603.62	46368.35
603.78	46265.37
603.94	46754.54
604.09	46789.65
604.25	46817.74
604.40	46005.57
604.56	46478.36
604.71	46459.63
604.87	46337.93
605.03	46316.86
605.18	46251.33
605.34	45860.46
605.49	46106.21
605.65	46078.13
605.80	46038.34
605.96	46679.64
606.12	46452.61
606.27	46248.99
606.43	46314.52
606.58	46485.38
606.74	46148.34
606.89	45961.10
607.05	46047.70
607.20	46127.28
607.36	46319.20
607.51	46483.04
607.67	46555.60
607.82	46263.03
607.98	46183.45
608.13	46150.68
608.29	45982.16
608.44	46012.59
608.60	45872.16
608.75	46075.79
608.91	46246.65
609.06	46054.72
609.22	46092.17
609.37	45860.46
609.53	45977.48
609.68	45834.71
609.84	46227.92
609.99	45813.65
610.15	45415.76
610.30	45762.15
610.46	45481.29
610.61	45823.01
610.76	45668.53
610.92	46349.63
611.07	46005.57
611.23	45874.50
611.38	46075.79
611.54	45677.90
611.69	45462.57
611.84	45558.53
612.00	45385.33
612.15	45670.87
612.31	45633.42
612.46	45610.02
612.62	45443.84
612.77	45542.14
612.92	46115.58
613.08	45296.39
613.23	45453.20
613.39	45301.07
613.54	45600.66
613.69	45287.03
613.85	45153.62
614.00	45116.17
614.15	45326.81
614.31	45624.06
614.46	45844.07
614.62	45237.87
614.77	45801.94
614.92	45256.60
615.08	45305.75
615.23	45099.78
615.38	44889.13
615.54	45090.42
615.69	45312.77
615.84	45059.99
616.00	44886.79
616.15	44910.20
616.30	45305.75
616.46	45036.59
616.61	44664.44
616.76	45305.75
616.92	44643.38
617.07	44734.66
617.22	44776.79
617.37	44931.26
617.53	45296.39
617.68	45062.33
617.83	44624.65
617.99	44626.99
618.14	44619.97
618.29	44697.21
618.45	44404.64
618.60	44259.53
618.75	44790.83
618.90	44465.50
619.06	44631.68
619.21	44580.18
619.36	44767.43
619.51	44371.88
619.67	44168.25
619.82	44205.70
619.97	44348.47
620.12	44062.93
620.28	43985.69
620.43	44222.08
620.58	44156.55
620.73	44570.82
620.89	44619.97
621.04	44397.62
621.19	44254.85
621.34	44849.35
621.49	44114.42
621.65	44350.81
621.80	44802.53
621.95	44212.72
622.10	44170.59
622.25	44278.25
622.41	44486.56
622.56	43880.36
622.71	44381.24
622.86	43847.60
623.01	43882.70
623.16	44121.44
623.32	43868.66
623.47	43805.47
623.62	44006.75
623.77	43896.75
623.92	43660.35
624.07	43660.35
624.23	43725.89
624.38	43669.72
624.53	43250.76
624.68	43861.64
624.83	43779.72
624.98	43913.13
625.13	43313.95
625.29	43391.19
625.44	43126.71
625.59	43370.13
625.74	43714.19
625.89	43133.73
626.04	43194.59
626.19	43606.52
626.34	43044.79
626.49	43040.11
626.65	43349.06
626.80	43758.66
626.95	43290.55
627.10	42887.98
627.25	42986.28
627.40	42787.33
627.55	42536.90
627.70	42469.02
627.85	43044.79
628.00	43136.07
628.15	43297.57
628.30	43297.57
628.45	43250.76
628.60	42628.18
628.76	42712.44
628.91	42490.09
629.06	42602.43
629.21	42539.24
629.36	42377.74
629.51	42494.77
629.66	42323.91
629.81	42614.13
629.96	42756.91
630.11	42560.30
630.26	42979.26
630.41	42497.11
630.56	42361.36
630.71	42667.97
630.86	42466.68
631.01	42012.62
631.16	42227.95
631.31	42206.88
631.46	41977.51
631.61	42127.30
631.76	42155.39
631.91	42590.73
632.06	42459.66
632.21	42209.22
632.36	42101.56
632.51	42143.69
632.66	42014.96
632.81	41963.46
632.96	42012.62
633.10	41762.18
633.25	42183.48
633.40	42010.28
633.55	41996.23
633.70	41963.46
633.85	42089.85
634.00	41977.51
634.15	41942.40
634.30	41890.91
634.45	41773.88
634.60	41701.32
634.75	41708.35
634.90	41846.44
635.05	41752.82
635.19	41553.87
635.34	41799.63
635.49	41418.12
635.64	41450.89
635.79	41371.31
635.94	41024.91
636.09	41322.16
636.24	40837.67
636.39	41294.07
636.53	41418.12
636.68	41230.88
636.83	41053.00
636.98	41118.53
637.13	41455.57
637.28	41488.34
637.43	41280.03
637.57	41312.80
637.72	41209.81
637.87	41483.66
638.02	41155.98
638.17	40987.46
638.32	41493.02
638.46	41017.89
638.61	41193.43
638.76	41181.73
638.91	41361.95
639.06	40870.43
639.20	40971.08
639.35	41380.67
639.50	41141.94
639.65	41076.40
639.80	41003.85
639.94	40713.62
640.09	40882.14
640.24	40879.80
640.39	40605.95
640.54	40933.63
640.68	40868.09
640.83	40502.97
640.98	40215.08
641.13	40334.45
641.27	40657.45
641.42	40222.11
641.57	40680.85
641.72	40217.43
641.86	40456.16
642.01	40362.54
642.16	40048.91
642.31	39943.58
642.45	40194.02
642.60	39859.32
642.75	40147.21
642.90	40289.98
643.04	40392.97
643.19	40091.04
643.34	40271.26
643.48	39824.22
643.63	40392.97
643.78	40395.31
643.93	40390.62
644.07	40266.58
644.22	40149.55
644.37	39793.79
644.51	39852.30
644.66	39751.66
644.81	39749.32
644.95	39856.98
645.10	40215.08
645.25	40273.60
645.39	39992.73
645.54	39454.41
645.69	39845.28
645.83	39721.23
645.98	39510.58
646.13	39489.52
646.27	39819.53
646.42	39328.02
646.57	39351.43
646.71	39372.49
646.86	39452.07
647.00	39754.00
647.15	39229.72
647.30	39480.16
647.44	39321.00
647.59	39241.42
647.74	39292.91
647.88	39461.43
648.03	39250.78
648.17	39222.70
648.32	39313.98
648.47	39112.69
648.61	38820.13
648.76	39225.04
648.90	39131.42
649.05	39398.24
649.20	39100.99
649.34	39208.65
649.49	38909.07
649.63	38670.33
649.78	39103.33
649.92	38761.61
650.07	39194.61
650.21	39126.74
650.36	38995.67
650.51	38902.04
650.65	39157.16
650.80	39545.69
650.94	39065.88
651.09	39299.94
651.23	38733.53
651.38	38962.90
651.52	38822.47
651.67	38579.05
651.81	38506.49
651.96	38389.47
652.10	38682.03
652.25	38815.44
652.39	38717.14
652.54	38930.13
652.68	38752.25
652.83	38543.94
652.97	38625.86
653.12	38637.56
653.26	38363.72
653.41	37832.42
653.55	37961.15
653.70	38340.32
653.84	38328.61
653.99	38061.79
654.13	38323.93
654.27	37818.38
654.42	38057.11
654.56	38375.42
654.71	37942.42
654.85	37986.89
655.00	38431.60
655.14	37729.44
655.29	37574.96
655.43	37813.70
655.57	37331.54
655.72	37610.07
655.86	37390.06
656.01	37603.05
656.15	36999.19
656.30	37579.64
656.44	37350.27
656.58	37502.40
656.73	37528.15
656.87	37235.58
657.01	37479.00
657.16	37507.08
657.30	37338.57
657.45	37387.72
657.59	37034.30
657.73	37378.36
657.88	37523.47
658.02	37762.20
658.16	37799.65
658.31	37448.57
658.45	37282.39
658.60	37137.28
658.74	37446.23
658.88	37092.81
659.03	37308.14
659.17	37053.02
659.31	37074.09
659.46	37043.66
659.60	37113.87
659.74	36989.83
659.89	36851.73
660.03	36549.81
660.17	37041.32
660.32	36811.95
660.46	37015.57
660.60	36708.96
660.74	36657.47
660.89	36683.22
661.03	36336.82
661.17	36140.21
661.32	36514.70
661.46	36587.25
661.60	36493.63
661.74	36053.61
661.89	35964.67
662.03	36053.61
662.17	36039.57
662.31	36037.23
662.46	36273.62
662.60	36168.30
662.74	36353.20
662.88	35913.18
663.03	35821.90
663.17	35831.26
663.31	35395.92
663.45	36236.17
663.60	35695.51
663.74	35452.09
663.88	35662.74
664.02	35583.16
664.17	36009.14
664.31	35091.65
664.45	35358.47
664.59	35435.71
664.73	35590.19
664.88	35314.00
665.02	34948.88
665.16	34555.67
665.30	35323.36
665.44	34796.74
665.59	34597.80
665.73	35152.51
665.87	34714.83
666.01	35000.37
666.15	34789.72
666.29	34946.54
666.44	35068.25
666.58	34871.64
666.72	34478.43
666.86	35271.87
667.00	34216.29
667.14	34651.63
667.28	34497.16
667.43	34150.76
667.57	34562.69
667.71	34436.30
667.85	34134.37
667.99	34267.78
668.13	34338.00
668.27	34176.50
668.41	34426.94
668.56	33776.27
668.70	33944.79
668.84	33661.58
668.98	33209.86
669.12	33696.69
669.26	33624.14
669.40	33345.61
669.54	33689.67
669.68	33738.82
669.82	33469.66
669.96	33399.44
670.10	33060.07
670.25	33310.50
670.39	32872.82
670.53	33195.82
670.67	33055.39
670.81	32730.05
670.95	32863.46
671.09	32833.04
671.23	32943.04
671.37	32945.38
671.51	32339.18
671.65	32713.67
671.79	32357.91
671.93	32636.43
672.07	32638.77
672.21	32327.48
672.35	32353.23
672.49	32091.09
672.63	31910.86
672.77	32425.78
672.91	32219.81
673.05	31793.84
673.19	31840.65
673.33	32055.98
673.47	31971.72
673.61	31651.06
673.75	31290.62
673.89	31431.05
674.03	31342.11
674.17	31660.43
674.31	31381.90
674.45	31241.47
674.59	31807.88
674.73	31353.82
674.87	31250.83
675.01	30869.33
675.15	31040.18
675.29	31033.16
675.43	31122.10
675.56	30679.74
675.70	30852.94
675.84	30724.21
675.98	29876.94
676.12	30473.78
676.26	30775.70
676.40	30485.48
676.54	30806.13
676.68	30869.33
676.82	30087.59
676.96	30071.20
677.10	29523.52
677.23	29921.41
677.37	29659.27
677.51	29956.52
677.65	30171.85
677.79	29577.35
677.93	29116.26
678.07	28943.06
678.21	29287.12
678.34	28713.69
678.48	28699.65
678.62	28739.44
678.76	28734.76
678.90	28594.32
679.04	28329.84
679.18	28830.72
679.31	28086.43
679.45	28226.86
679.59	27929.61
679.73	28144.94
679.87	28107.49
680.00	28182.39
680.14	28222.18
680.28	28318.14
680.42	27850.03
680.56	27850.03
680.70	27646.41
680.83	27725.99
680.97	27473.21
681.11	27557.47
681.25	27241.50
681.39	27442.78
681.52	26995.74
681.66	27098.72
681.80	27215.75
681.94	26998.08
682.07	26869.35
682.21	26307.62
682.35	26761.69
682.49	26305.28
682.62	26536.99
682.76	26143.78
682.90	26639.98
683.04	26202.30
683.17	25757.60
683.31	25886.32
683.45	25893.35
683.59	25909.73
683.72	25565.67
683.86	25958.88
684.00	25764.62
684.13	25701.42
684.27	25348.00
684.41	25369.07
684.55	25170.12
684.68	24945.43
684.82	24985.22
684.96	25156.08
685.09	25247.36
685.23	24814.36
685.37	24781.59
685.50	24830.74
685.64	24379.02
685.78	24437.53
685.91	24655.20
686.05	24130.92
686.19	23779.84
686.32	24107.52
686.46	23538.77
686.60	23470.89
686.73	23360.89
686.87	23110.45
687.01	23136.20
687.14	23047.26
687.28	22977.04
687.42	22963.00
687.55	23386.63
687.69	22895.12
687.82	22649.36
687.96	22836.61
688.10	22712.56
688.23	22679.79
688.37	22555.74
688.50	22672.77
688.64	22569.79
688.78	22347.44
688.91	22511.27
689.05	22499.57
689.18	22120.40
689.32	21647.61
689.46	22258.49
689.59	22331.05
689.73	22045.51
689.86	21970.61
690.00	21546.97
690.13	21954.22
690.27	21654.64
690.41	21539.95
690.54	21231.00
690.68	21188.87
690.81	21322.28
690.95	21270.79
691.08	20971.20
691.22	21240.36
691.35	20922.05
691.49	20931.41
691.62	21273.13
691.76	21032.05
691.89	20870.56
692.03	20854.17
692.16	20840.13
692.30	20554.58
692.43	20250.32
692.57	20374.36
692.70	20229.25
692.84	19985.83
692.97	19922.64
693.11	19859.45
693.24	19410.06
693.38	19810.29
693.51	19791.57
693.65	20163.72
693.78	19585.60
693.92	19768.16
694.05	19644.12
694.19	19384.32
694.32	19353.89
694.45	19274.31
694.59	19152.60
694.72	19187.71
694.86	19250.91
694.99	18848.33
695.13	18913.87
695.26	18745.35
695.39	18452.78
695.53	18909.19
695.66	18787.48
695.80	18719.60
695.93	18263.20
696.07	18295.97
696.20	18312.35
696.33	18401.29
696.47	18150.85
696.60	17905.10
696.73	17692.11
696.87	17921.48
697.00	17708.49
697.14	17511.89
697.27	17462.74
697.40	17444.01
697.54	17411.25
697.67	17357.41
697.80	17591.47
697.94	16926.75
698.07	17259.11
698.21	17207.62
698.34	17231.02
698.47	17137.40
698.61	16922.07
698.74	16585.04
698.87	16678.66
699.01	16528.86
699.14	16372.05
699.27	16421.20
699.40	16386.09
699.54	16376.73
699.67	16208.21
699.80	16318.22
699.94	16152.04
700.07	16208.21
700.20	16137.99
700.34	16016.29
700.47	15957.77
700.60	16098.20
700.73	16009.26
700.87	15653.50
701.00	15597.33
701.13	15564.56
701.26	15264.97
701.40	15510.73
701.53	15363.28
701.66	15318.81
701.79	15225.18
701.93	14937.30
702.06	14775.80
702.19	15136.24
702.32	14808.57
702.46	14836.66
702.59	14773.46
702.72	15014.54
702.85	14773.46
702.99	14736.01
703.12	14548.77
703.25	14431.74
703.38	14286.63
703.51	14640.05
703.65	14485.58
703.78	14111.09
703.91	14022.15
704.04	14118.11
704.17	14008.11
704.31	13809.16
704.44	14148.54
704.57	13902.78
704.70	13818.52
704.83	13778.73
704.96	13748.31
705.10	13767.03
705.23	13755.33
>>>>>End Processed Spectral Data<<<<<
