SpectraSuite Data File
++++++++++++++++++++++++++++++++++++
Date: Fri Oct 25 11:34:17 EDT 2013
User: price-jones
Dark Spectrum Present: No
Reference Spectrum Present: No
Number of Sampled Component Spectra: 1
Spectrometers: USB2+H05261
Integration Time (usec): 100000 (USB2+H05261)
Spectra Averaged: 1 (USB2+H05261)
Boxcar Smoothing: 0 (USB2+H05261)
Correct for Electrical Dark: No (USB2+H05261)
Strobe/Lamp Enabled: No (USB2+H05261)
Correct for Detector Non-linearity: No (USB2+H05261)
Correct for Stray Light: No (USB2+H05261)
Number of Pixels in Processed Spectrum: 2048
>>>>>Begin Processed Spectral Data<<<<<
365.73	191.92
365.92	191.92
366.12	191.92
366.32	173.20
366.52	215.33
366.72	187.24
366.91	217.67
367.11	196.60
367.31	196.60
367.51	152.13
367.70	245.76
367.90	131.07
368.10	177.88
368.30	201.29
368.49	133.41
368.69	182.56
368.89	163.84
369.09	208.31
369.28	180.22
369.48	299.59
369.68	173.20
369.87	208.31
370.07	327.68
370.27	266.82
370.47	266.82
370.66	547.69
370.86	498.53
371.06	582.79
371.25	585.13
371.45	510.24
371.65	580.45
371.84	540.66
372.04	624.92
372.24	582.79
372.44	624.92
372.63	540.66
372.83	571.09
373.03	613.22
373.22	573.43
373.42	580.45
373.62	578.11
373.81	585.13
374.01	638.97
374.21	622.58
374.40	573.43
374.60	678.76
374.79	660.03
374.99	589.82
375.19	613.22
375.38	610.88
375.58	580.45
375.78	657.69
375.97	664.71
376.17	699.82
376.37	692.80
376.56	629.60
376.76	638.97
376.95	599.18
377.15	681.10
377.35	657.69
377.54	704.50
377.74	650.67
377.93	606.20
378.13	645.99
378.33	650.67
378.52	718.54
378.72	692.80
378.91	737.27
379.11	699.82
379.31	763.01
379.50	706.84
379.70	690.46
379.89	695.14
380.09	702.16
380.28	725.57
380.48	774.72
380.68	716.20
380.87	821.53
381.07	674.07
381.26	767.70
381.46	767.70
381.65	688.12
381.85	795.78
382.04	755.99
382.24	784.08
382.43	737.27
382.63	746.63
382.83	723.23
383.02	805.14
383.22	779.40
383.41	800.46
383.61	889.40
383.80	814.51
384.00	734.93
384.19	685.78
384.39	777.06
384.58	770.04
384.78	840.25
384.97	765.36
385.17	812.17
385.36	805.14
385.56	877.70
385.75	880.04
385.95	835.57
386.14	826.21
386.34	840.25
386.53	905.79
386.72	835.57
386.92	891.74
387.11	915.15
387.31	800.46
387.50	856.64
387.70	877.70
387.89	856.64
388.09	901.11
388.28	866.00
388.48	807.48
388.67	917.49
388.86	929.19
389.06	873.02
389.25	901.11
389.45	910.47
389.64	945.58
389.84	840.25
390.03	1020.47
390.22	959.62
390.42	863.66
390.61	894.08
390.81	933.87
391.00	929.19
391.19	971.32
391.39	1015.79
391.58	961.96
391.78	947.92
391.97	1060.26
392.16	1018.13
392.36	1006.43
392.55	1022.81
392.75	968.98
392.94	1125.80
393.13	1015.79
393.33	1027.50
393.52	959.62
393.71	1074.31
393.91	1093.03
394.10	1095.37
394.29	1100.05
394.49	1055.58
394.68	1156.22
394.88	1128.14
395.07	1160.91
395.26	1118.78
395.46	1170.27
395.65	1050.90
395.84	1151.54
396.04	1303.68
396.23	1144.52
396.42	1153.88
396.62	1203.04
396.81	1247.51
397.00	1151.54
397.19	1184.31
397.39	1177.29
397.58	1177.29
397.77	1221.76
397.97	1228.78
398.16	1151.54
398.35	1224.10
398.55	1146.86
398.74	1207.72
398.93	1275.59
399.12	1224.10
399.32	1231.12
399.51	1254.53
399.70	1385.60
399.90	1348.15
400.09	1423.05
400.28	1455.81
400.47	1352.83
400.67	1376.24
400.86	1434.75
401.05	1453.47
401.24	1460.49
401.44	1404.32
401.63	1366.87
401.82	1481.56
402.01	1519.01
402.21	1380.92
402.40	1455.81
402.59	1434.75
402.78	1465.18
402.97	1427.73
403.17	1441.77
403.36	1467.52
403.55	1479.22
403.74	1535.39
403.93	1638.38
404.13	1568.16
404.32	1570.50
404.51	1579.86
404.70	1603.27
404.89	1687.53
405.09	1762.42
405.28	1638.38
405.47	1708.59
405.66	1664.12
405.85	1621.99
406.05	1701.57
406.24	1713.27
406.43	1783.49
406.62	1715.61
406.81	1795.19
407.00	1774.13
407.20	1717.95
407.39	1701.57
407.58	1874.77
407.77	1722.63
407.96	1846.68
408.15	1907.54
408.34	1809.23
408.54	1926.26
408.73	1937.96
408.92	1942.64
409.11	1900.52
409.30	1942.64
409.49	1839.66
409.68	1956.69
409.87	1837.32
410.07	2045.63
410.26	2052.65
410.45	2015.20
410.64	2052.65
410.83	2146.27
411.02	2113.50
411.21	2097.12
411.40	2167.34
411.59	2211.81
411.78	2071.37
411.98	2092.44
412.17	2218.83
412.36	2162.66
412.55	2312.45
412.74	2319.47
412.93	2260.96
413.12	2366.28
413.31	2328.83
413.50	2368.62
413.69	2293.72
413.88	2422.45
414.07	2389.69
414.26	2511.39
414.45	2483.31
414.64	2502.03
414.83	2422.45
415.02	2506.71
415.22	2649.49
415.41	2605.02
415.60	2661.19
415.79	2546.50
415.98	2621.40
416.17	2710.34
416.36	2663.53
416.55	2668.21
416.74	2722.04
416.93	2731.41
417.12	2745.45
417.31	2700.98
417.50	2827.37
417.69	2932.69
417.88	2799.28
418.07	2860.13
418.26	2951.42
418.45	3000.57
418.64	2991.20
418.83	2932.69
419.02	2918.65
419.21	3019.29
419.39	2979.50
419.58	3073.12
419.77	2979.50
419.96	2988.86
420.15	3009.93
420.34	3108.23
420.53	3199.51
420.72	3112.91
420.91	3176.11
421.10	3164.40
421.29	3323.56
421.48	3239.30
421.67	3066.10
421.86	3314.20
422.05	3368.03
422.24	3243.98
422.43	3295.47
422.61	3255.69
422.80	3297.81
422.99	3349.31
423.18	3471.01
423.37	3463.99
423.56	3316.54
423.75	3323.56
423.94	3232.28
424.13	3068.44
424.32	3155.04
424.50	3316.54
424.69	3445.27
424.88	3375.05
425.07	3274.41
425.26	3215.90
425.45	3325.90
425.64	3194.83
425.83	3466.33
426.01	3398.46
426.20	3332.92
426.39	3330.58
426.58	3375.05
426.77	3293.13
426.96	3375.05
427.15	3344.63
427.33	3630.17
427.52	3482.72
427.71	3557.61
427.90	3503.78
428.09	3564.64
428.28	3522.51
428.46	3527.19
428.65	3595.06
428.84	3719.11
429.03	3749.54
429.22	3597.40
429.40	3660.60
429.59	3578.68
429.78	3578.68
429.97	3382.07
430.16	3763.58
430.34	3712.09
430.53	3777.62
430.72	3705.07
430.91	3873.59
431.10	3861.88
431.28	3875.93
431.47	3988.27
431.66	4086.58
431.85	3957.85
432.03	3887.63
432.22	4049.13
432.41	3864.22
432.60	3936.78
432.79	3934.44
432.97	3995.29
433.16	4189.56
433.35	4023.38
433.54	4163.81
433.72	4212.96
433.91	4100.62
434.10	4184.88
434.28	4119.34
434.47	4189.56
434.66	4285.52
434.85	4149.77
435.03	4241.05
435.22	4215.30
435.41	4367.44
435.59	4301.90
435.78	4301.90
435.97	4283.18
436.16	4353.40
436.34	4191.90
436.53	4477.44
436.72	4517.23
436.90	4280.84
437.09	4559.36
437.28	4353.40
437.46	4390.84
437.65	4367.44
437.84	4528.94
438.02	4397.87
438.21	4526.60
438.40	4554.68
438.58	4585.11
438.77	4585.11
438.96	4652.98
439.14	4784.06
439.33	4713.84
439.52	4788.74
439.70	4917.47
439.89	4882.36
440.08	4784.06
440.26	4856.61
440.45	4861.29
440.63	4842.57
440.82	5102.37
441.01	5008.75
441.19	4990.02
441.38	5088.32
441.57	4999.38
441.75	5050.88
441.94	5284.93
442.12	5289.61
442.31	5149.18
442.50	5352.81
442.68	5193.65
442.87	5348.12
443.05	5462.81
443.24	5420.68
443.43	5357.49
443.61	5432.38
443.80	5668.78
443.98	5373.87
444.17	5268.55
444.35	5387.91
444.54	5563.45
444.73	5544.73
444.91	5430.04
445.10	5434.72
445.28	5621.97
445.47	5355.15
445.65	5554.09
445.84	5425.36
446.02	5488.56
446.21	5483.88
446.39	5607.92
446.58	5736.65
446.77	5610.26
446.95	5418.34
447.14	5614.95
447.32	5715.59
447.51	5563.45
447.69	5547.07
447.88	5673.46
448.06	5561.11
448.25	5605.58
448.43	5430.04
448.62	5636.01
448.80	5696.86
448.99	5914.53
449.17	5760.06
449.36	5551.75
449.54	5682.82
449.73	5724.95
449.91	5823.25
450.10	5755.38
450.28	5860.70
450.46	5989.43
450.65	6010.50
450.83	5947.30
451.02	5926.24
451.20	6169.65
451.39	6017.52
451.57	5954.32
451.76	6047.94
451.94	6162.63
452.13	6127.52
452.31	6153.27
452.49	6101.78
452.68	6038.58
452.86	6125.18
453.05	6129.86
453.23	6143.91
453.42	6267.95
453.60	6195.40
453.78	6429.45
453.97	6319.45
454.15	6284.34
454.34	6153.27
454.52	6333.49
454.70	6366.26
454.89	6403.71
455.07	6434.13
455.26	6565.20
455.44	6555.84
455.62	6352.21
455.81	6466.90
455.99	6352.21
456.17	6377.96
456.36	6579.25
456.54	6707.98
456.73	6825.00
456.91	6890.54
457.09	6857.77
457.28	6937.35
457.46	6736.06
457.64	6892.88
457.83	6796.92
458.01	6848.41
458.19	7059.06
458.38	7021.61
458.56	6998.20
458.74	6925.65
458.93	6984.16
459.11	6979.48
459.29	7066.08
459.48	7056.72
459.66	6993.52
459.84	7190.13
460.03	7311.83
460.21	7262.68
460.39	7236.94
460.57	7265.02
460.76	7269.70
460.94	7302.47
461.12	7302.47
461.31	7499.08
461.49	7358.64
461.67	7316.51
461.85	7470.99
462.04	7262.68
462.22	7796.32
462.40	7578.65
462.59	7632.49
462.77	7466.31
462.95	7442.90
463.13	7496.74
463.32	7691.00
463.50	7798.66
463.68	7662.91
463.86	7695.68
464.05	7665.25
464.23	7487.37
464.41	7840.79
464.59	7681.64
464.78	7969.52
464.96	7754.19
465.14	7606.74
465.32	7997.61
465.50	7920.37
465.69	7990.59
465.87	7892.29
466.05	7929.74
466.23	7791.64
466.41	8018.68
466.60	7999.95
466.78	7922.71
466.96	7997.61
467.14	8063.15
467.32	8147.40
467.51	8142.72
467.69	7875.90
467.87	8098.25
468.05	8030.38
468.23	8189.53
468.41	8105.28
468.60	8126.34
468.78	8184.85
468.96	8472.74
469.14	8430.61
469.32	8407.20
469.50	8271.45
469.69	8538.27
469.87	8327.63
470.05	8374.44
470.23	8435.29
470.41	8573.38
470.59	8652.96
470.77	8503.17
470.95	8423.59
471.14	8542.96
471.32	8599.13
471.50	8779.35
471.68	8835.52
471.86	8924.46
472.04	8959.57
472.22	9060.21
472.40	8830.84
472.58	9022.77
472.77	9200.65
472.95	9202.99
473.13	9277.88
473.31	9081.28
473.49	8954.89
473.67	9151.49
473.85	9273.20
474.03	9584.49
474.21	9479.17
474.39	9593.86
474.57	9331.72
474.75	9488.53
474.93	9731.95
475.12	9687.48
475.30	9888.76
475.48	9809.19
475.66	9612.58
475.84	9834.93
476.02	9877.06
476.20	10045.58
476.38	10054.94
476.56	10204.74
476.74	10090.05
476.92	10188.35
477.10	10174.31
477.28	10424.75
477.46	10181.33
477.64	10431.77
477.82	10590.92
478.00	10794.55
478.18	10588.58
478.36	10822.64
478.54	11105.84
478.72	10864.77
478.90	11260.32
479.08	11456.92
479.26	11410.11
479.44	11393.73
479.62	11482.67
479.80	11620.76
479.98	11798.64
480.16	11922.69
480.34	11726.08
480.52	11971.84
480.70	11843.11
480.88	11688.64
481.06	11957.80
481.24	12119.29
481.41	12222.28
481.59	12339.30
481.77	12596.76
481.95	12500.80
482.13	12629.53
482.31	12617.83
482.49	12889.33
482.67	12947.84
482.85	13018.06
483.03	13139.77
483.21	13303.60
483.39	13429.99
483.57	13277.86
483.74	13441.70
483.92	13745.97
484.10	13769.37
484.28	13713.20
484.46	13937.89
484.64	14326.42
484.82	13900.44
485.00	14139.18
485.18	14436.42
485.35	14871.76
485.53	14696.22
485.71	14663.46
485.89	15073.05
486.07	14885.81
486.25	15012.20
486.43	14883.47
486.61	15370.30
486.78	15349.23
486.96	15281.36
487.14	15597.33
487.32	15669.89
487.50	15815.00
487.68	16147.36
487.85	16023.31
488.03	15812.66
488.21	16563.97
488.39	16610.78
488.57	16657.59
488.75	16706.74
488.92	16758.24
489.10	17076.55
489.28	16835.47
489.46	17270.81
489.64	17074.21
489.81	17652.32
489.99	17525.93
490.17	17692.11
490.35	17799.77
490.53	17827.86
490.70	18043.19
490.88	18139.15
491.06	18314.69
491.24	18494.91
491.41	18445.76
491.59	18822.59
491.77	18696.20
491.95	18892.80
492.13	18874.08
492.30	19103.45
492.48	19033.24
492.66	18780.46
492.84	19262.61
493.01	19454.53
493.19	19470.92
493.37	19569.22
493.54	19693.27
493.72	19875.83
493.90	19838.38
494.08	20280.74
494.25	20297.13
494.43	20629.48
494.61	20421.17
494.79	20521.82
494.96	20833.11
495.14	20758.21
495.32	20961.84
495.49	21025.03
495.67	21233.34
495.85	21610.17
496.02	21500.16
496.20	21582.08
496.38	21727.19
496.55	21738.90
496.73	22155.51
496.91	22272.54
497.09	21972.95
497.26	22092.32
497.44	22235.09
497.62	22450.42
497.79	22616.60
497.97	22415.31
498.14	22515.95
498.32	22904.48
498.50	22974.70
498.67	23370.25
498.85	22953.63
499.03	23442.81
499.20	23403.02
499.38	23178.33
499.56	23433.44
499.73	23775.16
499.91	23953.04
500.08	23566.85
500.26	23943.68
500.44	23805.59
500.61	23836.02
500.79	23992.83
500.97	24369.66
501.14	24540.52
501.32	24538.18
501.49	24479.66
501.67	24479.66
501.84	24931.39
502.02	24725.42
502.20	24629.46
502.37	24774.57
502.55	24788.61
502.72	25146.72
502.90	25298.85
503.07	25245.02
503.25	25380.77
503.43	25074.16
503.60	25558.65
503.78	25624.18
503.95	25942.50
504.13	25635.89
504.30	25895.69
504.48	25825.47
504.65	25982.29
504.83	26331.03
505.01	25982.29
505.18	26309.96
505.36	26455.08
505.53	26536.99
505.71	27047.23
505.88	26480.82
506.06	26597.85
506.23	26888.07
506.41	26953.61
506.58	26740.62
506.76	27559.81
506.93	27241.50
507.11	27037.87
507.28	26899.78
507.46	27529.38
507.63	27758.75
507.81	27644.07
507.98	27150.21
508.16	27632.36
508.33	27716.62
508.50	27611.30
508.68	27789.18
508.85	28306.44
509.03	27873.44
509.20	27885.14
509.38	28451.55
509.55	28318.14
509.73	28388.36
509.90	28432.83
510.08	28278.35
510.25	29188.82
510.42	28966.47
510.60	28599.01
510.77	28966.47
510.95	29366.70
511.12	28606.03
511.30	28922.00
511.47	29460.32
511.64	29074.13
511.82	29172.44
511.99	29584.37
512.17	29553.94
512.34	29670.97
512.51	29652.25
512.69	29881.62
512.86	29965.88
513.04	29956.52
513.21	30024.39
513.38	29975.24
513.56	30586.12
513.73	30403.56
513.90	30441.01
514.08	30466.75
514.25	30588.46
514.43	30487.82
514.60	30572.08
514.77	30817.83
514.95	30668.04
515.12	30934.86
515.29	30857.62
515.47	30998.06
515.64	31061.25
515.81	30939.54
515.99	31260.20
516.16	31283.60
516.33	31318.71
516.51	31651.06
516.68	31292.96
516.85	31253.17
517.03	31648.72
517.20	31637.02
517.37	31648.72
517.54	31679.15
517.72	31793.84
517.89	32058.32
518.06	31732.98
518.24	32444.51
518.41	32231.52
518.58	32360.25
518.75	32112.15
518.93	32027.89
519.10	32311.10
519.27	32493.66
519.45	32486.64
519.62	32783.88
519.79	32907.93
519.96	32556.85
520.14	32732.39
520.31	32751.12
520.48	32917.29
520.65	32950.06
520.83	33188.80
521.00	33535.20
521.17	32980.49
521.34	33439.23
521.52	33521.15
521.69	33797.34
521.86	33790.31
522.03	33696.69
522.20	33762.23
522.38	34087.56
522.55	33977.56
522.72	33741.16
522.89	33305.82
523.07	34059.48
523.24	34440.98
523.41	34045.43
523.58	34295.87
523.75	34607.16
523.92	34677.38
524.10	34073.52
524.27	34567.37
524.44	34356.72
524.61	34382.47
524.78	34567.37
524.96	35159.53
525.13	34778.02
525.30	34895.05
525.47	35232.08
525.64	34976.97
525.81	35510.61
525.98	35110.38
526.16	35302.30
526.33	34951.22
526.50	35330.39
526.67	35431.03
526.84	35459.12
527.01	36084.04
527.18	35573.80
527.36	35590.19
527.53	35758.70
527.70	35962.33
527.87	36280.64
528.04	35929.56
528.21	36044.25
528.38	35889.77
528.55	36025.53
528.72	35786.79
528.89	35945.95
529.07	35697.85
529.24	35763.39
529.41	36215.11
529.58	36470.23
529.75	36287.67
529.92	36217.45
530.09	36280.64
530.26	36844.71
530.43	36465.55
530.60	36488.95
530.77	36397.67
530.94	37001.53
531.11	36643.43
531.28	36987.49
531.46	36594.28
531.63	36957.06
531.80	36811.95
531.97	36982.80
532.14	37153.66
532.31	36924.29
532.48	36739.39
532.65	37031.96
532.82	37640.50
532.99	37387.72
533.16	36898.55
533.33	37394.74
533.50	37209.84
533.67	37565.60
533.84	37378.36
534.01	37462.61
534.18	37558.58
534.35	38340.32
534.52	37659.22
534.69	38038.39
534.86	38237.33
535.03	38124.99
535.20	38326.27
535.37	38047.75
535.54	38476.07
535.71	38300.53
535.88	38462.02
536.05	38763.95
536.22	38656.29
536.38	38520.54
536.55	38377.76
536.72	38539.26
536.89	38553.30
537.06	38644.59
537.23	39103.33
537.40	38759.27
537.57	38724.16
537.74	38934.81
537.91	38993.32
538.08	38906.73
538.25	38944.17
538.42	39019.07
538.59	39505.90
538.75	39044.82
538.92	39241.42
539.09	39388.88
539.26	38960.56
539.43	39620.59
539.60	39189.93
539.77	39449.73
539.94	39454.41
540.11	39351.43
540.28	39323.34
540.44	39346.75
540.61	39440.37
540.78	39519.95
540.95	39653.36
541.12	39473.13
541.29	39400.58
541.46	39917.84
541.62	39873.37
541.79	40121.46
541.96	39428.66
542.13	39758.68
542.30	39871.03
542.47	40198.70
542.63	40252.53
542.80	40437.44
542.97	40561.48
543.14	40519.35
543.31	40472.54
543.48	40584.89
543.64	41022.57
543.81	40905.54
543.98	40737.02
544.15	40680.85
544.32	40957.03
544.48	41277.69
544.65	40563.82
544.82	40769.79
544.99	40919.59
545.16	40734.68
545.32	40720.64
545.49	41254.28
545.66	41453.23
545.83	41294.07
546.00	40802.56
546.16	41184.07
546.33	40830.65
546.50	41083.42
546.67	41057.68
546.83	41361.95
547.00	41139.60
547.17	40973.42
547.34	41390.03
547.50	41708.35
547.67	41949.42
547.84	41839.42
548.00	41965.81
548.17	41963.46
548.34	41581.96
548.51	41759.84
548.67	42043.04
548.84	42017.30
549.01	41755.16
549.18	41968.15
549.34	42199.86
549.51	42354.33
549.68	42003.25
549.84	41790.27
550.01	42253.69
550.18	42106.24
550.34	42309.86
550.51	41949.42
550.68	42756.91
550.84	42401.14
551.01	42532.22
551.18	42066.45
551.34	42218.58
551.51	42478.38
551.68	43129.05
551.84	42752.23
552.01	42527.53
552.18	42485.40
552.34	42504.13
552.51	42646.90
552.68	42106.24
552.84	42820.10
553.01	43136.07
553.18	42529.87
553.34	43075.22
553.51	42684.35
553.67	42780.31
553.84	42967.55
554.01	43150.12
554.17	43100.97
554.34	43098.62
554.51	43143.09
554.67	43400.55
554.84	43372.47
555.00	43580.78
555.17	43086.92
555.33	43309.27
555.50	43194.59
555.67	43058.84
555.83	43339.70
556.00	43592.48
556.16	44215.06
556.33	43304.59
556.50	43496.52
556.66	43480.13
556.83	43278.85
556.99	43901.43
557.16	43494.18
557.32	43695.46
557.49	44126.12
557.65	43517.58
557.82	43896.75
557.98	43880.36
558.15	43634.61
558.32	44353.15
558.48	43730.57
558.65	43618.22
558.81	43936.54
558.98	43973.98
559.14	44339.11
559.31	44137.82
559.47	43618.22
559.64	43840.57
559.80	44247.83
559.97	43957.60
560.13	43807.81
560.30	43894.41
560.46	44392.94
560.63	44339.11
560.79	44465.50
560.96	44458.48
561.12	44526.35
561.29	44266.55
561.45	44467.84
561.61	43714.19
561.78	44519.33
561.94	44385.92
562.11	44252.51
562.27	44456.14
562.44	44261.87
562.60	44512.31
562.77	44624.65
562.93	44486.56
563.10	45144.25
563.26	44325.07
563.42	44849.35
563.59	44516.99
563.75	44299.32
563.92	44568.48
564.08	44858.71
564.24	45532.78
564.41	45045.95
564.57	45116.17
564.74	44914.88
564.90	44591.89
565.07	44662.10
565.23	44605.93
565.39	44720.62
565.56	44711.25
565.72	44598.91
565.88	44832.96
566.05	45207.45
566.21	44802.53
566.38	44807.22
566.54	45263.62
566.70	44987.44
566.87	44973.39
567.03	44755.72
567.19	45207.45
567.36	45045.95
567.52	45029.57
567.68	45233.19
567.85	44861.05
568.01	45603.00
568.17	45223.83
568.34	45221.49
568.50	45029.57
568.66	44830.62
568.83	45240.21
568.99	45294.05
569.15	45254.26
569.32	45144.25
569.48	44839.98
569.64	45467.25
569.81	45050.63
569.97	45155.96
570.13	45359.58
570.30	45209.79
570.46	45778.54
570.62	45570.23
570.78	45280.00
570.95	45272.98
571.11	45478.95
571.27	45137.23
571.43	45294.05
571.60	45258.94
571.76	45572.57
571.92	45326.81
572.09	45312.77
572.25	45216.81
572.41	45228.51
572.57	45151.27
572.74	45837.05
572.90	45179.36
573.06	45874.50
573.22	45687.26
573.38	45418.10
573.55	45399.37
573.71	46237.28
573.87	45607.68
574.03	45462.57
574.20	46183.45
574.36	45759.81
574.52	45874.50
574.68	45764.49
574.84	45502.35
575.01	46000.89
575.17	45823.01
575.33	45415.76
575.49	45574.91
575.65	45815.99
575.82	45668.53
575.98	45738.75
576.14	46234.94
576.30	45965.78
576.46	45481.29
576.62	45366.60
576.79	45635.77
576.95	45439.16
577.11	45539.80
577.27	45319.79
577.43	46021.95
577.59	45881.52
577.75	45483.63
577.92	45432.14
578.08	45766.84
578.24	45741.09
578.40	46225.58
578.56	45909.61
578.72	46272.39
578.88	45862.80
579.04	45752.79
579.21	45827.69
579.37	45930.67
579.53	46103.87
579.69	45808.96
579.85	45621.72
580.01	45785.56
580.17	45544.48
580.33	45998.55
580.49	45837.05
580.65	46223.24
580.82	45780.88
580.98	45617.04
581.14	45296.39
581.30	46117.92
581.46	45684.92
581.62	45659.17
581.78	45294.05
581.94	45780.88
582.10	45666.19
582.26	46019.61
582.42	45989.19
582.58	46183.45
582.74	46064.08
582.90	46188.13
583.06	45738.75
583.22	46443.25
583.38	45872.16
583.54	46511.13
583.70	45918.97
583.86	45921.31
584.02	46054.72
584.18	46389.42
584.34	45830.03
584.50	46373.03
584.66	46387.08
584.82	46321.54
584.98	46380.06
585.14	45921.31
585.30	45586.61
585.46	45851.09
585.62	45748.11
585.78	46616.45
585.94	45380.65
586.10	45656.83
586.26	45834.71
586.42	45879.18
586.58	45762.15
586.74	46160.05
586.90	45832.37
587.06	45862.80
587.22	46075.79
587.38	45764.49
587.54	46239.62
587.70	46335.59
587.86	46366.01
588.02	45911.95
588.18	46131.96
588.34	46270.05
588.49	46153.02
588.65	46230.26
588.81	45595.98
588.97	46370.69
589.13	46057.06
589.29	46096.85
589.45	45996.21
589.61	46131.96
589.77	46546.23
589.93	46639.86
590.08	46347.29
590.24	46646.88
590.40	46887.95
590.56	46351.97
590.72	46784.97
590.88	46267.71
591.04	46410.48
591.20	46705.39
591.35	46293.46
591.51	46511.13
591.67	46773.27
591.83	46880.93
591.99	46241.96
592.15	46567.30
592.31	46520.49
592.46	46595.38
592.62	46389.42
592.78	46845.82
592.94	46787.31
593.10	46506.44
593.26	46469.00
593.41	47000.30
593.57	46698.37
593.73	46618.79
593.89	47112.64
594.05	47007.32
594.20	46965.19
594.36	46686.67
594.52	47192.22
594.68	46291.12
594.84	46335.59
594.99	46972.21
595.15	46693.69
595.31	46761.56
595.47	46923.06
595.62	46761.56
595.78	46108.55
595.94	46784.97
596.10	46897.31
596.25	47002.64
596.41	46904.34
596.57	46703.05
596.73	46789.65
596.88	46398.78
597.04	46674.96
597.20	46782.63
597.36	46735.82
597.51	46665.60
597.67	46398.78
597.83	47061.15
597.99	46887.95
598.14	46377.72
598.30	46391.76
598.46	47000.30
598.61	47180.52
598.77	47000.30
598.93	47150.09
599.09	46906.68
599.24	47175.84
599.40	47070.51
599.56	46803.69
599.71	47098.60
599.87	47395.85
600.03	47316.27
600.18	47051.79
600.34	46899.65
600.50	46887.95
600.65	46958.17
600.81	46820.08
600.97	46916.04
601.12	46667.94
601.28	47159.45
601.44	47157.11
601.59	46843.48
601.75	46607.09
601.91	47288.18
602.06	47215.63
602.22	47070.51
602.37	46946.47
602.53	47334.99
602.69	46815.40
602.84	46721.77
603.00	47232.01
603.16	46658.58
603.31	47199.24
603.47	46506.44
603.62	46990.94
603.78	47384.15
603.94	47255.42
604.09	47241.37
604.25	46843.48
604.40	46670.28
604.56	46649.22
604.71	46740.50
604.87	46972.21
605.03	46714.75
605.18	46981.57
605.34	47131.37
605.49	46691.35
605.65	47040.09
605.80	46852.84
605.96	46473.68
606.12	46794.33
606.27	47075.19
606.43	46480.70
606.58	46831.78
606.74	46796.67
606.89	47084.56
607.05	47168.82
607.20	47196.90
607.36	46443.25
607.51	46820.08
607.67	46761.56
607.82	46286.43
607.98	46883.27
608.13	46532.19
608.29	46630.49
608.44	46754.54
608.60	46967.53
608.75	47187.54
608.91	46576.66
609.06	46567.30
609.22	46735.82
609.37	46405.80
609.53	46958.17
609.68	46993.28
609.84	46447.93
609.99	47131.37
610.15	47145.41
610.30	46635.17
610.46	46579.00
610.61	46787.31
610.76	46749.86
610.92	46457.29
611.07	46146.00
611.23	46103.87
611.38	46646.88
611.54	46234.94
611.69	47021.36
611.84	46609.43
612.00	46602.41
612.15	46195.15
612.31	46553.26
612.46	46146.00
612.62	46202.18
612.77	46007.91
612.92	46415.16
613.08	46253.67
613.23	46279.41
613.39	46305.16
613.54	46480.70
613.69	46382.40
613.85	46344.95
614.00	46354.31
614.15	46630.49
614.31	45949.40
614.46	46136.64
614.62	46028.98
614.77	46113.23
614.92	46260.69
615.08	46026.63
615.23	46195.15
615.38	46096.85
615.54	46043.02
615.69	46515.81
615.84	45998.55
616.00	46106.21
616.15	46085.15
616.30	46288.77
616.46	45551.51
616.61	46230.26
616.76	46288.77
616.92	45752.79
617.07	46129.62
617.22	46398.78
617.37	45303.41
617.53	46131.96
617.68	45769.18
617.83	46085.15
617.99	46206.86
618.14	46108.55
618.29	45949.40
618.45	45909.61
618.60	45839.39
618.75	45485.97
618.90	45698.96
619.06	45525.76
619.21	45841.73
619.36	45860.46
619.51	45918.97
619.67	45429.80
619.82	45621.72
619.97	45500.01
620.12	45488.31
620.28	45546.82
620.43	45752.79
620.58	45333.84
620.73	45769.18
620.89	45614.70
621.04	45837.05
621.19	45537.46
621.34	45717.68
621.49	45394.69
621.65	45495.33
621.80	45799.60
621.95	45390.01
622.10	45411.07
622.25	45336.18
622.41	45137.23
622.56	45560.87
622.71	45481.29
622.86	45366.60
623.01	45387.67
623.16	45165.32
623.32	45111.49
623.47	45591.30
623.62	45017.86
623.77	45476.61
623.92	45272.98
624.07	45368.94
624.23	45329.16
624.38	45104.46
624.53	45113.83
624.68	44924.24
624.83	44971.05
624.98	45144.25
625.13	44769.77
625.29	44664.44
625.44	44851.69
625.59	45333.84
625.74	44985.10
625.89	44746.36
626.04	44617.63
626.19	44800.19
626.34	44741.68
626.49	44608.27
626.65	44446.77
626.80	44615.29
626.95	44575.50
627.10	44215.06
627.25	44364.85
627.40	44453.79
627.55	44472.52
627.70	44294.64
627.85	44327.41
628.00	44839.98
628.15	44657.42
628.30	43803.13
628.45	43959.94
628.60	43859.30
628.76	44250.17
628.91	44528.69
629.06	44172.93
629.21	44215.06
629.36	44079.31
629.51	44142.50
629.66	44367.20
629.81	43849.94
629.96	44198.68
630.11	44325.07
630.26	43852.28
630.41	44289.96
630.56	44088.67
630.71	44016.11
630.86	43880.36
631.01	43683.76
631.16	43901.43
631.31	43552.69
631.46	44292.30
631.61	44217.40
631.76	43749.29
631.91	44105.06
632.06	44245.49
632.21	43936.54
632.36	44133.14
632.51	43606.52
632.66	43871.00
632.81	43428.64
632.96	43477.79
633.10	43508.22
633.25	43796.10
633.40	43800.79
633.55	43400.55
633.70	43044.79
633.85	43810.15
634.00	43093.94
634.15	43229.69
634.30	43367.79
634.45	43477.79
634.60	43641.63
634.75	43194.59
634.90	43580.78
635.05	43737.59
635.19	43278.85
635.34	43302.25
635.49	42958.19
635.64	43498.86
635.79	43103.31
635.94	43110.33
636.09	43288.21
636.24	43129.05
636.39	42733.50
636.53	43236.72
636.68	42829.46
636.83	42878.61
636.98	42944.15
637.13	42773.29
637.28	43042.45
637.43	43077.56
637.57	43084.58
637.72	42693.71
637.87	42422.21
638.02	43037.77
638.17	42569.66
638.32	42792.01
638.46	42380.08
638.61	42487.74
638.76	42663.28
638.91	42178.79
639.06	42370.72
639.20	42232.63
639.35	42508.81
639.50	42164.75
639.65	42490.09
639.80	42401.14
639.94	42784.99
640.09	42356.67
640.24	42485.40
640.39	42267.73
640.54	42153.05
640.68	42431.57
640.83	42513.49
640.98	42401.14
641.13	41904.95
641.27	42789.67
641.42	42347.31
641.57	42768.61
641.72	42286.46
641.86	41911.97
642.01	41998.57
642.16	41869.84
642.31	42157.73
642.45	42129.64
642.60	42241.99
642.75	42010.28
642.90	41979.85
643.04	41773.88
643.19	41860.48
643.34	42082.83
643.48	41542.17
643.63	41965.81
643.78	42106.24
643.93	42019.64
644.07	41979.85
644.22	42043.04
644.37	41624.09
644.51	41808.99
644.66	41930.70
644.81	41378.33
644.95	41911.97
645.10	41558.55
645.25	41261.30
645.39	41387.69
645.54	41436.84
645.69	41308.11
645.83	41364.29
645.98	41586.64
646.13	41116.19
646.27	41146.62
646.42	41153.64
646.57	41411.10
646.71	41268.33
646.86	41247.26
647.00	41813.67
647.15	41958.78
647.30	41530.47
647.44	41448.55
647.59	41195.77
647.74	41179.39
647.88	41216.83
648.03	41074.06
648.17	41591.32
648.32	41375.99
648.47	41235.56
648.61	40832.99
648.76	41486.00
648.90	40961.72
649.05	40989.80
649.20	41375.99
649.34	40816.60
649.49	40996.82
649.63	41357.27
649.78	40781.49
649.92	41151.30
650.07	41471.95
650.21	41165.34
650.36	41151.30
650.51	40765.11
650.65	41535.15
650.80	41043.63
650.94	41001.50
651.09	40865.75
651.23	40664.47
651.38	40652.76
651.52	40327.43
651.67	40315.73
651.81	40802.56
651.96	40594.25
652.10	40411.69
652.25	40760.43
652.39	40266.58
652.54	40322.75
652.68	40514.67
652.83	40170.61
652.97	40144.87
653.12	40299.34
653.26	40041.88
653.41	40407.01
653.55	40278.28
653.70	40931.29
653.84	40158.91
653.99	40437.44
654.13	40587.23
654.27	39985.71
654.42	40556.80
654.56	39597.18
654.71	40121.46
654.85	40257.21
655.00	40264.24
655.14	40449.14
655.29	40631.70
655.43	40376.58
655.57	39814.85
655.72	39599.52
655.86	39847.62
656.01	39847.62
656.15	39407.60
656.30	39541.01
656.44	40102.74
656.58	39634.63
656.73	39992.73
656.87	39229.72
657.01	39150.14
657.16	39674.42
657.30	39573.78
657.45	39496.54
657.59	39555.05
657.73	39253.12
657.88	39608.89
658.02	39438.03
658.16	39662.72
658.31	39686.12
658.45	39660.38
658.60	38925.45
658.74	39356.11
658.88	39814.85
659.03	39093.97
659.17	39019.07
659.31	38803.74
659.46	39021.41
659.60	39131.42
659.74	39133.76
659.89	38749.91
660.03	38672.67
660.17	39005.03
660.32	38667.99
660.46	38595.43
660.60	38518.20
660.74	38635.22
660.89	39056.52
661.03	38321.59
661.17	37951.79
661.32	37907.32
661.46	38447.98
661.60	38424.57
661.74	38242.01
661.89	38143.71
662.03	38319.25
662.17	37991.58
662.31	38272.44
662.46	38354.36
662.60	38033.71
662.74	37979.87
662.88	37596.03
663.03	37645.18
663.17	37598.37
663.31	37907.32
663.45	38019.66
663.60	38422.23
663.74	38162.43
663.88	37553.90
664.02	37532.83
664.17	37930.72
664.31	36943.02
664.45	37139.62
664.59	37401.76
664.73	37436.87
664.88	37364.31
665.02	36999.19
665.16	37261.33
665.30	37085.79
665.44	37376.01
665.59	36999.19
665.73	36994.51
665.87	36240.86
666.01	36566.19
666.15	36416.40
666.29	36390.65
666.44	36821.31
666.58	36648.11
666.72	36477.25
666.86	36507.68
667.00	36325.11
667.14	35967.01
667.28	36339.16
667.43	36210.43
667.57	36318.09
667.71	36343.84
667.85	36357.88
667.99	36367.24
668.13	36250.22
668.27	35889.77
668.41	36084.04
668.56	35718.92
668.70	35482.52
668.84	35178.25
668.98	35241.45
669.12	35644.02
669.26	35625.29
669.40	35489.54
669.54	35735.30
669.68	35297.62
669.82	35264.85
669.96	35030.80
670.10	34724.19
670.25	35267.19
670.39	34525.24
670.53	35314.00
670.67	34747.59
670.81	35115.06
670.95	34838.87
671.09	34609.50
671.23	34431.62
671.37	34590.78
671.51	33942.45
671.65	34298.21
671.79	34253.74
671.93	34075.86
672.07	34300.55
672.21	34560.35
672.35	33710.74
672.49	34352.04
672.63	34005.64
672.77	34057.14
672.91	33617.11
673.05	34178.84
673.19	33497.75
673.33	33525.83
673.47	33560.94
673.61	33411.15
673.75	33544.56
673.89	33296.46
674.03	33352.63
674.17	32807.29
674.31	32865.80
674.45	32919.63
674.59	33069.43
674.73	32421.10
674.87	32531.11
675.01	32350.88
675.15	32404.72
675.29	32659.84
675.43	32266.63
675.56	32416.42
675.70	32009.17
675.84	32493.66
675.98	31398.29
676.12	31887.46
676.26	31576.17
676.40	31580.85
676.54	31845.33
676.68	31360.84
676.82	31054.23
676.96	31519.99
677.10	31740.00
677.23	31304.67
677.37	30719.53
677.51	31136.15
677.65	31307.01
677.79	30946.56
677.93	31101.04
678.07	31138.49
678.21	30735.92
678.34	30499.52
678.48	30377.81
678.62	30225.68
678.76	30108.65
678.90	30199.93
679.04	30457.39
679.18	30281.85
679.31	29741.19
679.45	29851.19
679.59	29881.62
679.73	29993.97
679.87	29422.87
680.00	29284.78
680.14	29710.76
680.28	29366.70
680.42	29219.25
680.56	28971.15
680.70	28889.23
680.83	28863.49
680.97	28718.37
681.11	29013.28
681.25	28563.90
681.39	28315.80
681.52	28144.94
681.66	28493.68
681.80	27868.76
681.94	27866.42
682.07	27857.06
682.21	27531.72
682.35	27779.82
682.49	27709.60
682.62	27407.67
682.76	27508.32
682.90	27304.69
683.04	27267.24
683.17	27213.41
683.31	27058.93
683.45	26923.18
683.59	26703.17
683.72	26532.31
683.86	26838.92
684.00	26679.77
684.13	26794.45
684.27	26277.19
684.41	26466.78
684.55	26696.15
684.68	26522.95
684.82	26143.78
684.96	25982.29
685.09	26333.37
685.23	25858.24
685.37	26452.73
685.50	26188.25
685.64	26185.91
685.78	25450.99
685.91	25678.02
686.05	25188.85
686.19	25174.80
686.32	24828.40
686.46	24879.89
686.60	24493.71
686.73	24814.36
686.87	24821.38
687.01	24697.33
687.14	24540.52
687.28	24666.91
687.42	24692.65
687.55	24479.66
687.69	24184.76
687.82	24034.96
687.96	23831.33
688.10	24159.01
688.23	23836.02
688.37	23861.76
688.50	24205.82
688.64	23728.35
688.78	23459.19
688.91	23424.08
689.05	23627.71
689.18	23321.10
689.32	23080.02
689.46	23021.51
689.59	22944.27
689.73	23073.00
689.86	23087.04
690.00	22728.94
690.13	22803.84
690.27	22354.46
690.41	22412.97
690.54	22375.52
690.68	22244.45
690.81	22125.08
690.95	22024.44
691.08	22066.57
691.22	21865.28
691.35	21933.16
691.49	21937.84
691.62	21909.75
691.76	21465.05
691.89	21350.37
692.03	20999.29
692.16	20924.39
692.30	21202.91
692.43	21406.54
692.57	20856.51
692.70	20758.21
692.84	20875.24
692.97	20357.98
693.11	20479.69
693.24	20472.67
693.38	20313.51
693.51	20219.89
693.65	20198.82
693.78	20086.48
693.92	20107.54
694.05	19749.44
694.19	19761.14
694.32	19943.70
694.45	19999.88
694.59	20137.97
694.72	20039.67
694.86	19789.23
694.99	19400.70
695.13	19002.81
695.26	19124.52
695.39	19126.86
695.53	19176.01
695.66	19129.20
695.80	19073.03
695.93	19131.54
696.07	18555.77
696.20	18434.06
696.33	18099.36
696.47	18164.90
696.60	18251.50
696.73	18298.31
696.87	18480.87
697.00	18431.72
697.14	18120.43
697.27	17703.81
697.40	17980.00
697.54	18040.85
697.67	17830.20
697.80	17678.07
697.94	17855.95
698.07	17696.79
698.21	17369.12
698.34	17493.16
698.47	17069.53
698.61	17088.25
698.74	16886.97
698.87	16828.45
699.01	16699.72
699.14	16776.96
699.27	16783.98
699.40	16854.20
699.54	16519.50
699.67	16751.21
699.80	16723.13
699.94	16334.60
700.07	16453.97
700.20	16346.30
700.34	16208.21
700.47	16259.70
700.60	16170.76
700.73	16156.72
700.87	16145.02
701.00	15957.77
701.13	15613.71
701.26	15550.52
701.40	15618.39
701.53	15374.98
701.66	15337.53
701.79	15447.54
701.93	15194.76
702.06	14827.29
702.19	15028.58
702.32	15007.52
702.46	15253.27
702.59	15061.35
702.72	14984.11
702.85	14848.36
702.99	14909.21
703.12	14473.87
703.25	14539.41
703.38	14354.51
703.51	14375.57
703.65	14464.51
703.78	14230.46
703.91	14118.11
704.04	14045.55
704.17	13947.25
704.31	14040.87
704.44	13853.63
704.57	13844.27
704.70	13944.91
704.83	13820.86
704.96	13584.47
705.10	13422.97
705.23	13439.36
>>>>>End Processed Spectral Data<<<<<
