SpectraSuite Data File
++++++++++++++++++++++++++++++++++++
Date: Fri Oct 25 10:43:31 EDT 2013
User: price-jones
Dark Spectrum Present: No
Reference Spectrum Present: No
Number of Sampled Component Spectra: 1
Spectrometers: USB2+H05261
Integration Time (usec): 100000 (USB2+H05261)
Spectra Averaged: 1 (USB2+H05261)
Boxcar Smoothing: 0 (USB2+H05261)
Correct for Electrical Dark: No (USB2+H05261)
Strobe/Lamp Enabled: No (USB2+H05261)
Correct for Detector Non-linearity: No (USB2+H05261)
Correct for Stray Light: No (USB2+H05261)
Number of Pixels in Processed Spectrum: 2048
>>>>>Begin Processed Spectral Data<<<<<
365.73	152.13
365.92	152.13
366.12	152.13
366.32	30.43
366.52	18.72
366.72	14.04
366.91	0.00
367.11	72.56
367.31	0.00
367.51	63.19
367.70	30.43
367.90	79.58
368.10	77.24
368.30	23.41
368.49	0.00
368.69	37.45
368.89	7.02
369.09	49.15
369.28	95.96
369.48	23.41
369.68	100.64
369.87	67.88
370.07	74.90
370.27	152.13
370.47	170.86
370.66	411.93
370.86	414.27
371.06	440.02
371.25	428.32
371.45	409.59
371.65	503.22
371.84	503.22
372.04	435.34
372.24	521.94
372.44	409.59
372.63	503.22
372.83	477.47
373.03	477.47
373.22	557.05
373.42	580.45
373.62	512.58
373.81	475.13
374.01	594.50
374.21	552.37
374.40	657.69
374.60	657.69
374.79	533.64
374.99	594.50
375.19	599.18
375.38	608.54
375.58	594.50
375.78	624.92
375.97	575.77
376.17	603.86
376.37	566.41
376.56	557.05
376.76	564.07
376.95	622.58
377.15	664.71
377.35	622.58
377.54	540.66
377.74	624.92
377.93	690.46
378.13	627.26
378.33	643.65
378.52	688.12
378.72	617.90
378.91	643.65
379.11	655.35
379.31	592.16
379.50	631.94
379.70	641.31
379.89	685.78
380.09	655.35
380.28	671.73
380.48	674.07
380.68	676.41
380.87	732.59
381.07	727.91
381.26	748.97
381.46	774.72
381.65	636.63
381.85	699.82
382.04	718.54
382.24	697.48
382.43	681.10
382.63	699.82
382.83	760.67
383.02	751.31
383.22	730.25
383.41	716.20
383.61	800.46
383.80	798.12
384.00	704.50
384.19	777.06
384.39	704.50
384.58	746.63
384.78	842.59
384.97	786.42
385.17	777.06
385.36	837.91
385.56	781.74
385.75	784.08
385.95	784.08
386.14	821.53
386.34	884.72
386.53	854.30
386.72	840.25
386.92	873.02
387.11	826.21
387.31	868.34
387.50	837.91
387.70	851.96
387.89	931.53
388.09	844.93
388.28	912.81
388.48	873.02
388.67	987.71
388.86	884.72
389.06	896.43
389.25	990.05
389.45	966.64
389.64	922.17
389.84	1048.56
390.03	947.92
390.22	952.60
390.42	1104.73
390.61	1053.24
390.81	976.00
391.00	971.32
391.19	1076.65
391.39	999.41
391.58	1109.41
391.78	1083.67
391.97	1004.09
392.16	1013.45
392.36	1036.86
392.55	980.68
392.75	983.02
392.94	990.05
393.13	954.94
393.33	1006.43
393.52	971.32
393.71	1027.50
393.91	1050.90
394.10	1174.95
394.29	1165.59
394.49	1167.93
394.68	1188.99
394.88	1210.06
395.07	1170.27
395.26	1259.21
395.46	1210.06
395.65	1238.14
395.84	1210.06
396.04	1170.27
396.23	1149.20
396.42	1214.74
396.62	1104.73
396.81	1156.22
397.00	1217.08
397.19	1214.74
397.39	1343.47
397.58	1397.30
397.77	1460.49
397.97	1502.62
398.16	1378.58
398.35	1488.58
398.55	1416.02
398.74	1441.77
398.93	1462.83
399.12	1516.67
399.32	1495.60
399.51	1488.58
399.70	1537.73
399.90	1451.13
400.09	1593.90
400.28	1593.90
400.47	1657.10
400.67	1584.54
400.86	1614.97
401.05	1675.82
401.24	1703.91
401.44	1657.10
401.63	1682.85
401.82	1696.89
402.01	1764.76
402.21	1675.82
402.40	1689.87
402.59	1790.51
402.78	1792.85
402.97	1682.85
403.17	1741.36
403.36	1774.13
403.55	1856.04
403.74	1778.81
403.93	1797.53
404.13	1849.02
404.32	1860.73
404.51	1898.17
404.70	1963.71
404.89	1954.35
405.09	1984.77
405.28	1792.85
405.47	1937.96
405.66	2003.50
405.85	1956.69
406.05	1923.92
406.24	2026.90
406.43	1933.28
406.62	2099.46
406.81	2176.70
407.00	2057.33
407.20	2010.52
407.39	2008.18
407.58	2064.35
407.77	2174.36
407.96	2235.21
408.15	2118.18
408.34	2146.27
408.54	2202.44
408.73	2377.98
408.92	2260.96
409.11	2232.87
409.30	2260.96
409.49	2298.41
409.68	2225.85
409.87	2265.64
410.07	2270.32
410.26	2370.96
410.45	2436.50
410.64	2408.41
410.83	2380.32
411.02	2553.52
411.21	2539.48
411.40	2497.35
411.59	2495.01
411.78	2551.18
411.98	2525.44
412.17	2626.08
412.36	2656.51
412.55	2715.02
412.74	2726.72
412.93	2764.17
413.12	2682.25
413.31	2869.50
413.50	2789.92
413.69	2862.48
413.88	2984.18
414.07	2745.45
414.26	2801.62
414.45	2928.01
414.64	2956.10
414.83	3038.02
415.02	2867.16
415.22	2937.37
415.41	2972.48
415.60	3084.83
415.79	3108.23
415.98	3176.11
416.17	3143.34
416.36	3272.07
416.55	3082.49
416.74	3288.45
416.93	3246.32
417.12	3155.04
417.31	3265.05
417.50	3243.98
417.69	3421.86
417.88	3288.45
418.07	3279.09
418.26	3428.88
418.45	3410.16
418.64	3461.65
418.83	3522.51
419.02	3672.30
419.21	3557.61
419.39	3574.00
419.58	3550.59
419.77	3438.25
419.96	3562.30
420.15	3693.37
420.34	3620.81
420.53	3676.98
420.72	3730.81
420.91	3777.62
421.10	3733.15
421.29	3859.54
421.48	3698.05
421.67	3904.01
421.86	3836.14
422.05	3794.01
422.24	3679.32
422.43	3719.11
422.61	3763.58
422.80	3775.28
422.99	3892.31
423.18	3988.27
423.37	3836.14
423.56	4046.79
423.75	3885.29
423.94	3822.09
424.13	3705.07
424.32	3709.75
424.50	3960.19
424.69	3985.93
424.88	3908.69
425.07	3904.01
425.26	3819.75
425.45	3969.55
425.64	3854.86
425.83	3829.12
426.01	4095.94
426.20	3918.06
426.39	4016.36
426.58	4016.36
426.77	3840.82
426.96	3904.01
427.15	3969.55
427.33	3985.93
427.52	4016.36
427.71	4028.06
427.90	4053.81
428.09	4095.94
428.28	4028.06
428.46	4070.19
428.65	4051.47
428.84	4173.18
429.03	4187.22
429.22	4149.77
429.40	4149.77
429.59	4002.32
429.78	3948.48
429.97	3925.08
430.16	3871.25
430.34	4095.94
430.53	4091.26
430.72	4152.11
430.91	4283.18
431.10	4102.96
431.28	4472.76
431.47	4585.11
431.66	4601.49
431.85	4498.51
432.03	4528.94
432.22	4681.07
432.41	4643.62
432.60	4676.39
432.79	4629.58
432.97	4844.91
433.16	4631.92
433.35	4641.28
433.54	4575.75
433.72	4692.77
433.91	4755.97
434.10	4744.27
434.28	4791.08
434.47	4833.21
434.66	4940.87
434.85	5008.75
435.03	4912.78
435.22	4798.10
435.41	5013.43
435.59	5153.86
435.78	5011.09
435.97	5142.16
436.16	5142.16
436.34	5067.26
436.53	5078.96
436.72	5153.86
436.90	5006.41
437.09	5376.21
437.28	5069.60
437.46	5109.39
437.65	5160.88
437.84	5329.40
438.02	5057.90
438.21	5123.43
438.40	5088.32
438.58	5238.12
438.77	5387.91
438.96	5401.96
439.14	5495.58
439.33	5591.54
439.52	5673.46
439.70	5652.39
439.89	5675.80
440.08	5596.22
440.26	5673.46
440.45	5753.04
440.63	5963.68
440.82	5846.66
441.01	5767.08
441.19	5888.79
441.38	5982.41
441.57	5900.49
441.75	6040.92
441.94	6050.28
442.12	6183.70
442.31	6242.21
442.50	6296.04
442.68	6289.02
442.87	6148.59
443.05	6225.82
443.24	6242.21
443.43	6431.79
443.61	6242.21
443.80	6583.93
443.98	6389.66
444.17	6216.46
444.35	6586.27
444.54	6595.63
444.73	6532.44
444.91	6396.68
445.10	6141.57
445.28	6361.58
445.47	6223.48
445.65	6221.14
445.84	6363.92
446.02	6595.63
446.21	6427.11
446.39	6434.13
446.58	6574.56
446.77	6750.10
446.95	6310.08
447.14	6656.48
447.32	6745.42
447.51	6640.10
447.69	6661.16
447.88	6881.18
448.06	6619.04
448.25	6490.31
448.43	6825.00
448.62	6593.29
448.80	6576.91
448.99	6750.10
449.17	6642.44
449.36	6853.09
449.54	7009.90
449.73	6960.75
449.91	7063.74
450.10	7054.37
450.28	6958.41
450.46	7241.62
450.65	7178.42
450.83	6984.16
451.02	7000.54
451.20	7192.47
451.39	7178.42
451.57	7157.36
451.76	7094.16
451.94	7117.57
452.13	7236.94
452.31	7255.66
452.49	7126.93
452.68	7131.61
452.86	7187.79
453.05	7246.30
453.23	7304.81
453.42	7105.87
453.60	7222.89
453.78	7360.98
453.97	7262.68
454.15	7297.79
454.34	7222.89
454.52	7499.08
454.70	7573.97
454.89	7332.90
455.07	7384.39
455.26	7573.97
455.44	7616.10
455.62	7578.65
455.81	7817.39
455.99	7669.94
456.17	7815.05
456.36	7859.52
456.54	7850.16
456.73	7728.45
456.91	8074.85
457.09	8032.72
457.28	8187.19
457.46	8058.46
457.64	8234.00
457.83	7941.44
458.01	7985.91
458.19	8084.21
458.38	8149.75
458.56	8201.24
458.74	8035.06
458.93	8011.65
459.11	8226.98
459.29	8285.50
459.48	8252.73
459.66	8109.96
459.84	8482.10
460.03	8430.61
460.21	8446.99
460.39	8376.78
460.57	8311.24
460.76	8395.50
460.94	8617.85
461.12	8430.61
461.31	8538.27
461.49	8376.78
461.67	8734.88
461.85	8781.69
462.04	8582.74
462.22	9329.38
462.40	8858.93
462.59	8947.87
462.77	8835.52
462.95	9025.11
463.13	8854.25
463.32	8887.01
463.50	8964.25
463.68	8863.61
463.86	9011.06
464.05	8896.38
464.23	8985.32
464.41	8912.76
464.59	8777.01
464.78	9212.35
464.96	9100.00
465.14	9013.40
465.32	9294.27
465.50	9064.89
465.69	9371.50
465.87	9193.62
466.05	9071.92
466.23	8985.32
466.41	9188.94
466.60	9179.58
466.78	8994.68
466.96	9060.21
467.14	9301.29
467.32	9432.36
467.51	9415.98
467.69	9198.31
467.87	9226.39
468.05	9369.16
468.23	9345.76
468.41	9212.35
468.60	9483.85
468.78	9472.15
468.96	9329.38
469.14	9748.33
469.32	9495.55
469.50	9418.32
469.69	9509.60
469.87	9633.64
470.05	9816.21
470.23	9930.89
470.41	9666.41
470.59	9715.56
470.77	9565.77
470.95	9834.93
471.14	10010.47
471.32	10083.03
471.50	10162.61
471.68	10169.63
471.86	10132.18
472.04	10197.71
472.22	10387.30
472.40	10197.71
472.58	10246.87
472.77	10377.94
472.95	10438.79
473.13	10764.12
473.31	10485.60
473.49	10349.85
473.67	10562.84
473.85	10658.80
474.03	10747.74
474.21	10949.03
474.39	10956.05
474.57	10862.43
474.75	11070.73
474.93	11094.14
475.12	10972.43
475.30	10970.09
475.48	11344.58
475.66	11225.21
475.84	11112.86
476.02	11482.67
476.20	11328.19
476.38	11499.05
476.56	11740.13
476.74	11763.53
476.92	11618.42
477.10	11758.85
477.28	11903.96
477.46	11983.54
477.64	12063.12
477.82	12442.29
478.00	12446.97
478.18	12517.18
478.36	12166.10
478.54	12479.74
478.72	12575.70
478.90	12669.32
479.08	12901.03
479.26	13071.89
479.44	12978.27
479.62	12947.84
479.80	13256.79
479.98	13336.37
480.16	13525.96
480.34	13675.75
480.52	13366.80
480.70	13598.51
480.88	13465.10
481.06	13785.76
481.24	13776.39
481.41	13837.25
481.59	14068.96
481.77	14335.78
481.95	14239.82
482.13	14483.24
482.31	14370.89
482.49	14883.47
482.67	14796.87
482.85	14878.79
483.03	15122.20
483.21	15255.61
483.39	15470.94
483.57	15131.56
483.74	15154.97
483.92	15396.04
484.10	15389.02
484.28	15604.35
484.46	15777.55
484.64	16301.83
484.82	15702.65
485.00	16016.29
485.18	16334.60
485.35	16533.54
485.53	16119.27
485.71	15712.02
485.89	16411.84
486.07	16133.31
486.25	16592.06
486.43	16552.27
486.61	16802.71
486.78	17095.27
486.96	17036.76
487.14	17624.23
487.32	17469.76
487.50	17589.13
487.68	17804.46
487.85	18038.51
488.03	18113.41
488.21	18565.13
488.39	18408.31
488.57	18675.13
488.75	18328.74
488.92	18773.44
489.10	19293.04
489.28	19276.65
489.46	19541.13
489.64	19328.14
489.81	19985.83
489.99	20004.56
490.17	20156.69
490.35	20081.80
490.53	19955.41
490.70	20484.37
490.88	20217.55
491.06	20528.84
491.24	20442.24
491.41	20575.65
491.59	20306.49
491.77	20730.12
491.95	20896.30
492.13	21032.05
492.30	21568.04
492.48	21376.11
492.66	21661.66
492.84	21769.32
493.01	21888.69
493.19	21795.07
493.37	22183.60
493.54	22183.60
493.72	22019.76
493.90	22649.36
494.08	22551.06
494.25	22993.42
494.43	23016.83
494.61	23133.86
494.79	23051.94
494.96	23023.85
495.14	23316.42
495.32	23276.63
495.49	23520.04
495.67	23639.41
495.85	23791.55
496.02	23770.48
496.20	24196.46
496.38	24184.76
496.55	24159.01
496.73	24952.45
496.91	24500.73
497.09	24718.40
497.26	24893.94
497.44	24821.38
497.62	25270.76
497.79	25006.28
497.97	24989.90
498.14	25076.50
498.32	25450.99
498.50	25406.52
498.67	25542.27
498.85	25806.75
499.03	25855.90
499.20	25834.83
499.38	25701.42
499.56	26190.59
499.73	26412.95
499.91	26316.98
500.08	26581.46
500.26	25860.58
500.44	26253.79
500.61	26515.93
500.79	26419.97
500.97	26616.57
501.14	26932.54
501.32	26583.80
501.49	26752.32
501.67	27005.10
501.84	27433.42
502.02	26960.63
502.20	27449.80
502.37	27475.55
502.55	27314.05
502.72	27304.69
502.90	27924.93
503.07	27653.43
503.25	27857.06
503.43	27920.25
503.60	27962.38
503.78	28032.60
503.95	27864.08
504.13	28357.93
504.30	28407.08
504.48	28549.85
504.65	28589.64
504.83	28683.27
505.01	28540.49
505.18	28975.83
505.36	29139.67
505.53	29088.18
505.71	28989.88
505.88	29261.38
506.06	29298.83
506.23	29287.12
506.41	29146.69
506.58	29670.97
506.76	29542.24
506.93	29912.05
507.11	29612.46
507.28	29598.41
507.46	29633.52
507.63	29490.75
507.81	29820.77
507.98	29596.07
508.16	30204.61
508.33	30309.94
508.50	30476.12
508.68	30756.98
508.85	31030.82
509.03	30616.55
509.20	31084.65
509.38	31042.53
509.55	31007.42
509.73	31068.27
509.90	31035.50
510.08	30953.58
510.25	31234.45
510.42	31356.16
510.60	31599.57
510.77	31012.10
510.95	31613.62
511.12	31660.43
511.30	31854.69
511.47	31967.04
511.64	31875.76
511.82	32149.60
511.99	31711.92
512.17	31943.63
512.34	31421.69
512.51	32388.33
512.69	32304.07
512.86	32542.81
513.04	32594.30
513.21	32481.95
513.38	32519.40
513.56	32603.66
513.73	32088.74
513.90	32566.21
514.08	32683.24
514.25	32966.45
514.43	33134.96
514.60	32905.59
514.77	32933.68
514.95	33582.01
515.12	33130.28
515.29	33390.08
515.47	33928.41
515.64	33507.11
515.81	33333.91
515.99	32877.51
516.16	33359.66
516.33	33177.09
516.51	33392.42
516.68	33401.79
516.85	32713.67
517.03	33266.03
517.20	33755.21
517.37	33886.28
517.54	34003.30
517.72	33612.43
517.89	33858.19
518.06	33897.98
518.24	33612.43
518.41	33867.55
518.58	34050.11
518.75	34162.46
518.93	34403.53
519.10	34410.56
519.27	34604.82
519.45	34789.72
519.62	34932.50
519.79	34995.69
519.96	35077.61
520.14	34763.98
520.31	34780.36
520.48	35269.53
520.65	35138.46
520.83	35400.60
521.00	35487.20
521.17	35805.52
521.34	35805.52
521.52	35882.75
521.69	36149.57
521.86	36250.22
522.03	35971.69
522.20	36065.31
522.38	36009.14
522.55	36020.84
522.72	36451.50
522.89	36081.70
523.07	36460.87
523.24	36577.89
523.41	36510.02
523.58	36210.43
523.75	37303.46
523.92	36575.55
524.10	36818.97
524.27	36823.65
524.44	36907.91
524.61	37057.70
524.78	37153.66
524.96	36919.61
525.13	37174.73
525.30	37193.45
525.47	37574.96
525.64	37427.51
525.81	37390.06
525.98	37453.25
526.16	37092.81
526.33	36692.58
526.50	37156.00
526.67	36648.11
526.84	36865.78
527.01	36980.46
527.18	37553.90
527.36	37565.60
527.53	37460.27
527.70	38164.78
527.87	37429.85
528.04	37642.84
528.21	38384.79
528.38	38305.21
528.55	38197.54
528.72	38710.12
528.89	38284.14
529.07	38312.23
529.24	38274.78
529.41	38143.71
529.58	38178.82
529.75	38401.17
529.92	38810.76
530.09	38550.96
530.26	38724.16
530.43	38904.38
530.60	38494.79
530.77	38857.57
530.94	39014.39
531.11	39051.84
531.28	38930.13
531.46	38976.94
531.63	39129.08
531.80	38911.41
531.97	39227.38
532.14	38974.60
532.31	38354.36
532.48	38752.25
532.65	39426.32
532.82	39096.31
532.99	39920.18
533.16	39440.37
533.33	39285.89
533.50	39583.14
533.67	39573.78
533.84	39639.31
534.01	40011.46
534.18	39122.05
534.35	40142.53
534.52	39761.02
534.69	40243.17
534.86	40641.06
535.03	39777.40
535.20	40428.07
535.37	40128.48
535.54	40395.31
535.71	40383.60
535.88	40449.14
536.05	40259.55
536.22	40165.93
536.38	40364.88
536.55	40147.21
536.72	40374.24
536.89	40175.30
537.06	40308.71
537.23	40879.80
537.40	40430.41
537.57	40704.26
537.74	40786.18
537.91	41270.67
538.08	40727.66
538.25	40692.55
538.42	40797.88
538.59	40896.18
538.75	40816.60
538.92	40954.69
539.09	41347.90
539.26	40772.13
539.43	41282.37
539.60	41155.98
539.77	41109.17
539.94	40856.39
540.11	41104.49
540.28	41404.08
540.44	41043.63
540.61	40985.12
540.78	41406.42
540.95	41120.87
541.12	40669.15
541.29	41551.53
541.46	41359.61
541.62	42099.22
541.79	41907.29
541.96	41163.00
542.13	41668.56
542.30	41516.42
542.47	41518.76
542.63	41209.81
542.80	41799.63
542.97	41998.57
543.14	42497.11
543.31	42309.86
543.48	42492.43
543.64	42462.00
543.81	42630.52
543.98	42408.17
544.15	42855.21
544.32	42457.32
544.48	42749.88
544.65	42560.30
544.82	42733.50
544.99	42653.92
545.16	42724.14
545.32	42967.55
545.49	43065.86
545.66	43124.37
545.83	42927.77
546.00	43082.24
546.16	42646.90
546.33	42918.40
546.50	42305.18
546.67	43009.68
546.83	42787.33
547.00	42817.76
547.17	42773.29
547.34	42752.23
547.50	42824.78
547.67	42878.61
547.84	43217.99
548.00	43079.90
548.17	43267.14
548.34	43222.67
548.51	43709.50
548.67	43522.26
548.84	43468.43
549.01	43143.09
549.18	43328.00
549.34	43246.08
549.51	43456.73
549.68	43658.01
549.84	43409.92
550.01	43538.65
550.18	43213.31
550.34	43587.80
550.51	43491.83
550.68	43058.84
550.84	43330.34
551.01	43669.72
551.18	43665.03
551.34	43311.61
551.51	43964.62
551.68	43737.59
551.84	43653.33
552.01	43971.64
552.18	43875.68
552.34	43365.45
552.51	43723.55
552.68	43835.89
552.84	43999.73
553.01	44360.17
553.18	43929.51
553.34	44320.38
553.51	44184.63
553.67	44238.47
553.84	44973.39
554.01	44615.29
554.17	44306.34
554.34	44294.64
554.51	44098.03
554.67	44137.82
554.84	44250.17
555.00	44296.98
555.17	44055.90
555.33	44280.60
555.50	44453.79
555.67	44280.60
555.83	44217.40
556.00	44591.89
556.16	44524.01
556.33	44828.28
556.50	44690.19
556.66	44531.03
556.83	44318.04
556.99	44371.88
557.16	44673.81
557.32	44629.34
557.49	44676.15
557.65	44748.70
557.82	44596.57
557.98	44460.82
558.15	44481.88
558.32	44786.15
558.48	44612.95
558.65	44388.26
558.81	44561.46
558.98	44315.70
559.14	45092.76
559.31	44334.43
559.47	44732.32
559.64	44882.11
559.80	44828.28
559.97	44928.92
560.13	44638.70
560.30	44842.32
560.46	45251.92
560.63	45027.23
560.79	45411.07
560.96	45397.03
561.12	44751.04
561.29	44669.12
561.45	45041.27
561.61	44877.43
561.78	45172.34
561.94	44910.20
562.11	44996.80
562.27	44596.57
562.44	44928.92
562.60	45579.59
562.77	45366.60
562.93	45216.81
563.10	45153.62
563.26	45027.23
563.42	45738.75
563.59	44996.80
563.75	44917.22
563.92	45272.98
564.08	45406.39
564.24	45364.26
564.41	45645.13
564.57	45251.92
564.74	44835.30
564.90	45240.21
565.07	45586.61
565.23	45041.27
565.39	45017.86
565.56	45085.74
565.72	44931.26
565.88	44821.26
566.05	45361.92
566.21	45155.96
566.38	45301.07
566.54	45055.31
566.70	45336.18
566.87	45523.42
567.03	45118.51
567.19	45659.17
567.36	45865.14
567.52	45319.79
567.68	45614.70
567.85	45298.73
568.01	45525.76
568.17	45539.80
568.34	45656.83
568.50	45270.64
568.66	45375.97
568.83	45490.65
568.99	45048.29
569.15	45265.96
569.32	45439.16
569.48	45439.16
569.64	45986.85
569.81	45705.98
569.97	45429.80
570.13	45359.58
570.30	44935.95
570.46	45338.52
570.62	45017.86
570.78	45123.19
570.95	45212.13
571.11	45298.73
571.27	45542.14
571.43	45326.81
571.60	45659.17
571.76	45652.15
571.92	45298.73
572.09	45610.02
572.25	45235.53
572.41	45776.20
572.57	45684.92
572.74	46153.02
572.90	45757.47
573.06	45736.41
573.22	45801.94
573.38	45577.25
573.55	45443.84
573.71	46426.87
573.87	45537.46
574.03	45441.50
574.20	45495.33
574.36	45453.20
574.52	45806.62
574.68	45488.31
574.84	45717.68
575.01	45441.50
575.17	45544.48
575.33	45443.84
575.49	45216.81
575.65	45649.81
575.82	46024.29
575.98	45731.73
576.14	45965.78
576.30	45858.12
576.46	45860.46
576.62	45698.96
576.79	45713.00
576.95	45167.66
577.11	45188.72
577.27	45846.41
577.43	45638.11
577.59	45703.64
577.75	45397.03
577.92	45603.00
578.08	45076.38
578.24	45464.91
578.40	45450.86
578.56	45727.05
578.72	45553.85
578.88	45958.76
579.04	45687.26
579.21	45226.17
579.37	45888.54
579.53	46127.28
579.69	45177.02
579.85	45317.45
580.01	45977.48
580.17	45111.49
580.33	45720.02
580.49	45830.03
580.65	45340.86
580.82	45668.53
580.98	45385.33
581.14	45198.09
581.30	45591.30
581.46	45837.05
581.62	45839.39
581.78	45815.99
581.94	45834.71
582.10	45982.16
582.26	45698.96
582.42	46047.70
582.58	45839.39
582.74	45677.90
582.90	45968.12
583.06	46068.76
583.22	46038.34
583.38	46162.39
583.54	45813.65
583.70	45731.73
583.86	45909.61
584.02	45450.86
584.18	45591.30
584.34	45696.62
584.50	46124.94
584.66	45858.12
584.82	45794.92
584.98	45724.71
585.14	45930.67
585.30	45600.66
585.46	45689.60
585.62	45415.76
585.78	45607.68
585.94	45504.70
586.10	45478.95
586.26	45603.00
586.42	45815.99
586.58	46330.90
586.74	45680.24
586.90	45769.18
587.06	45619.38
587.22	46134.30
587.38	45385.33
587.54	46024.29
587.70	45937.69
587.86	46078.13
588.02	45855.78
588.18	46017.27
588.34	45813.65
588.49	45373.63
588.65	44919.56
588.81	45247.24
588.97	45546.82
589.13	45216.81
589.29	45347.88
589.45	45535.12
589.61	45904.93
589.77	46277.07
589.93	46073.45
590.08	45785.56
590.24	45457.88
590.40	46225.58
590.56	46138.98
590.72	46153.02
590.88	45813.65
591.04	46017.27
591.20	46330.90
591.35	46351.97
591.51	46347.29
591.67	45904.93
591.83	45694.28
591.99	45778.54
592.15	45727.05
592.31	46078.13
592.46	46092.17
592.62	45881.52
592.78	45961.10
592.94	45846.41
593.10	46293.46
593.26	46220.90
593.41	46227.92
593.57	45982.16
593.73	45769.18
593.89	46576.66
594.05	45869.82
594.20	45649.81
594.36	46344.95
594.52	45834.71
594.68	45652.15
594.84	45422.78
594.99	46071.10
595.15	45954.08
595.31	45993.87
595.47	45935.35
595.62	45888.54
595.78	45963.44
595.94	46106.21
596.10	46028.98
596.25	46021.95
596.41	45713.00
596.57	45485.97
596.73	45729.39
596.88	45422.78
597.04	46113.23
597.20	46153.02
597.36	45773.86
597.51	45935.35
597.67	45982.16
597.83	45855.78
597.99	46054.72
598.14	45801.94
598.30	46122.60
598.46	46143.66
598.61	45902.59
598.77	46071.10
598.93	45801.94
599.09	46148.34
599.24	46637.51
599.40	46543.89
599.56	46309.84
599.71	45933.01
599.87	46663.26
600.03	46220.90
600.18	46417.50
600.34	45851.09
600.50	46127.28
600.65	46038.34
600.81	46131.96
600.97	46223.24
601.12	46167.07
601.28	45916.63
601.44	45823.01
601.59	45935.35
601.75	45736.41
601.91	45874.50
602.06	45717.68
602.22	45925.99
602.37	45925.99
602.53	46270.05
602.69	46171.75
602.84	45921.31
603.00	45642.79
603.16	45993.87
603.31	45710.66
603.47	46068.76
603.62	45471.93
603.78	45979.82
603.94	46171.75
604.09	46108.55
604.25	45937.69
604.40	46197.49
604.56	46028.98
604.71	45944.72
604.87	45553.85
605.03	45654.49
605.18	45778.54
605.34	45825.35
605.49	45497.67
605.65	45766.84
605.80	45790.24
605.96	45897.91
606.12	45883.86
606.27	45979.82
606.43	45195.74
606.58	46054.72
606.74	45689.60
606.89	46047.70
607.05	45911.95
607.20	45904.93
607.36	45799.60
607.51	46199.83
607.67	45713.00
607.82	45708.32
607.98	45521.08
608.13	45771.52
608.29	45928.33
608.44	45212.13
608.60	45303.41
608.75	45717.68
608.91	45160.64
609.06	45296.39
609.22	45553.85
609.37	45219.15
609.53	45766.84
609.68	45471.93
609.84	45411.07
609.99	45443.84
610.15	44914.88
610.30	45102.12
610.46	44718.28
610.61	45289.37
610.76	45280.00
610.92	45495.33
611.07	45202.77
611.23	45558.53
611.38	45294.05
611.54	45413.41
611.69	44903.18
611.84	45092.76
612.00	45055.31
612.15	45317.45
612.31	45242.56
612.46	44879.77
612.62	45598.32
612.77	45013.18
612.92	45249.58
613.08	44961.69
613.23	45034.25
613.39	44978.07
613.54	44652.74
613.69	44896.16
613.85	44669.12
614.00	45174.68
614.15	45179.36
614.31	45237.87
614.46	44821.26
614.62	44889.13
614.77	44694.87
614.92	44748.70
615.08	44456.14
615.23	44617.63
615.38	44818.92
615.54	44376.56
615.69	44271.23
615.84	44587.21
616.00	44844.66
616.15	44587.21
616.30	45031.91
616.46	44563.80
616.61	44182.29
616.76	44612.95
616.92	43803.13
617.07	44779.13
617.22	44287.62
617.37	44304.00
617.53	44128.46
617.68	44898.50
617.83	44531.03
617.99	44355.49
618.14	44327.41
618.29	44432.73
618.45	44100.37
618.60	43859.30
618.75	44271.23
618.90	43618.22
619.06	43985.69
619.21	43861.64
619.36	44208.04
619.51	44182.29
619.67	43964.62
619.82	44151.87
619.97	44292.30
620.12	43653.33
620.28	43409.92
620.43	43672.06
620.58	43580.78
620.73	44034.84
620.89	43430.98
621.04	44044.20
621.19	43716.53
621.34	43885.04
621.49	43573.75
621.65	43559.71
621.80	43377.15
621.95	43320.98
622.10	43854.62
622.25	43718.87
622.41	43594.82
622.56	43618.22
622.71	43636.95
622.86	43524.60
623.01	43629.93
623.16	43587.80
623.32	43480.13
623.47	43470.77
623.62	43058.84
623.77	43707.16
623.92	43533.96
624.07	43089.26
624.23	42859.89
624.38	43049.47
624.53	43285.87
624.68	43325.66
624.83	43313.95
624.98	43227.35
625.13	42483.06
625.29	43126.71
625.44	43255.44
625.59	42689.03
625.74	43344.38
625.89	42761.59
626.04	42843.51
626.19	42639.88
626.34	42824.78
626.49	42712.44
626.65	42452.64
626.80	43014.37
626.95	42462.00
627.10	43079.90
627.25	42574.34
627.40	42485.40
627.55	42171.77
627.70	42127.30
627.85	42326.25
628.00	42609.45
628.15	42398.80
628.30	42616.47
628.45	42628.18
628.60	42323.91
628.76	42543.92
628.91	42286.46
629.06	42307.52
629.21	42136.66
629.36	42382.42
629.51	41958.78
629.66	41935.38
629.81	42169.43
629.96	42082.83
630.11	41869.84
630.26	42646.90
630.41	42485.40
630.56	42122.62
630.71	41748.14
630.86	41755.16
631.01	42143.69
631.16	41963.46
631.31	41532.81
631.46	41565.57
631.61	41710.69
631.76	41933.04
631.91	42061.77
632.06	41918.99
632.21	41975.17
632.36	42005.59
632.51	41446.21
632.66	41649.83
632.81	41408.76
632.96	41837.08
633.10	41490.68
633.25	41280.03
633.40	41954.10
633.55	41830.05
633.70	41614.72
633.85	41134.92
634.00	41230.88
634.15	41226.20
634.30	40893.84
634.45	41202.79
634.60	41308.11
634.75	41027.25
634.90	40919.59
635.05	41390.03
635.19	41282.37
635.34	41130.23
635.49	40737.02
635.64	41155.98
635.79	41088.10
635.94	40683.19
636.09	41034.27
636.24	40666.81
636.39	40741.71
636.53	40872.78
636.68	40458.50
636.83	40851.71
636.98	40463.18
637.13	40634.04
637.28	41273.01
637.43	41221.52
637.57	41174.70
637.72	40470.20
637.87	40711.28
638.02	41006.19
638.17	40835.33
638.32	40935.97
638.46	40247.85
638.61	40685.53
638.76	40507.65
638.91	40322.75
639.06	40982.78
639.20	40547.44
639.35	40921.93
639.50	40622.34
639.65	40383.60
639.80	40161.25
639.94	40105.08
640.09	39901.45
640.24	39924.86
640.39	39711.87
640.54	40165.93
640.68	40156.57
640.83	39810.17
640.98	40212.74
641.13	39784.43
641.27	39999.76
641.42	39999.76
641.57	39929.54
641.72	40402.33
641.86	39945.92
642.01	39910.82
642.16	39845.28
642.31	39620.59
642.45	39880.39
642.60	39393.56
642.75	39826.56
642.90	39716.55
643.04	39470.79
643.19	39723.57
643.34	39468.45
643.48	39817.19
643.63	39491.86
643.78	39489.52
643.93	40140.19
644.07	39442.71
644.22	39428.66
644.37	39302.28
644.51	39618.25
644.66	39618.25
644.81	39409.94
644.95	39536.33
645.10	39189.93
645.25	39409.94
645.39	39372.49
645.54	39222.70
645.69	39386.54
645.83	39288.23
645.98	39269.51
646.13	38794.38
646.27	39484.84
646.42	39119.71
646.57	39431.01
646.71	39335.04
646.86	39098.65
647.00	39105.67
647.15	38916.09
647.30	39175.89
647.44	38756.93
647.59	39070.56
647.74	39084.61
647.88	38644.59
648.03	39407.60
648.17	38916.09
648.32	38672.67
648.47	38658.63
648.61	38981.62
648.76	38557.99
648.90	38857.57
649.05	38946.51
649.20	38462.02
649.34	38607.14
649.49	38204.56
649.63	38227.97
649.78	38251.38
649.92	38653.95
650.07	38366.06
650.21	38356.70
650.36	38883.32
650.51	38513.52
650.65	38944.17
650.80	38948.85
650.94	38813.10
651.09	38483.09
651.23	38190.52
651.38	38139.03
651.52	38171.80
651.67	37820.72
651.81	38375.42
651.96	38345.00
652.10	38094.56
652.25	38206.90
652.39	38550.96
652.54	38445.64
652.68	38059.45
652.83	38031.36
652.97	38424.57
653.12	37818.38
653.26	37876.89
653.41	37928.38
653.55	37965.83
653.70	37935.40
653.84	38068.81
653.99	37586.66
654.13	37755.18
654.27	37415.80
654.42	37881.57
654.56	37881.57
654.71	37619.43
654.85	37460.27
655.00	37656.88
655.14	37567.94
655.29	37429.85
655.43	37546.87
655.57	36833.01
655.72	37076.43
655.86	37148.98
656.01	36914.93
656.15	36659.81
656.30	37191.11
656.44	37015.57
656.58	37216.86
656.73	37102.17
656.87	37104.51
657.01	36957.06
657.16	37067.06
657.30	36840.03
657.45	36776.84
657.59	36868.12
657.73	36772.16
657.88	37029.62
658.02	37315.16
658.16	36961.74
658.31	37242.60
658.45	36617.68
658.60	36687.90
658.74	37413.46
658.88	37167.71
659.03	36304.05
659.17	36556.83
659.31	36751.09
659.46	36671.51
659.60	36905.57
659.74	36549.81
659.89	36048.93
660.03	36535.76
660.17	36690.24
660.32	36821.31
660.46	36350.86
660.60	36257.24
660.74	36301.71
660.89	36055.95
661.03	35896.80
661.17	36065.31
661.32	36236.17
661.46	35992.76
661.60	35739.98
661.74	35917.86
661.89	35730.62
662.03	36210.43
662.17	36165.96
662.31	35660.40
662.46	36079.36
662.60	35583.16
662.74	35674.45
662.88	35735.30
663.03	35344.43
663.17	35571.46
663.31	35178.25
663.45	35807.86
663.60	35363.15
663.74	35548.06
663.88	35332.73
664.02	35005.05
664.17	35473.16
664.31	34991.01
664.45	35023.78
664.59	35131.44
664.73	34979.31
664.88	35159.53
665.02	34192.89
665.16	34457.37
665.30	34513.54
665.44	34581.42
665.59	34038.41
665.73	34504.18
665.87	34637.59
666.01	34515.88
666.15	34340.34
666.29	34038.41
666.44	34588.44
666.58	34136.71
666.72	33900.32
666.86	34249.06
667.00	34129.69
667.14	34003.30
667.28	34174.16
667.43	33977.56
667.57	33970.54
667.71	33862.87
667.85	33677.97
667.99	33902.66
668.13	33954.15
668.27	33865.21
668.41	33614.77
668.56	33479.02
668.70	33289.44
668.84	33282.42
668.98	33184.12
669.12	33460.30
669.26	33251.99
669.40	33125.60
669.54	33039.00
669.68	32870.48
669.82	32755.80
669.96	33109.22
670.10	32498.34
670.25	33106.88
670.39	32755.80
670.53	32797.93
670.67	32968.79
670.81	32882.19
670.95	32926.66
671.09	32573.24
671.23	32568.55
671.37	32397.70
671.51	32671.54
671.65	32123.85
671.79	32011.51
671.93	32105.13
672.07	31913.20
672.21	31826.60
672.35	32055.98
672.49	31915.54
672.63	32168.32
672.77	31718.94
672.91	31637.02
673.05	31527.02
673.19	31447.44
673.33	31740.00
673.47	31321.05
673.61	31318.71
673.75	31304.67
673.89	30885.71
674.03	31538.72
674.17	31138.49
674.31	31026.14
674.45	31323.39
674.59	31054.23
674.73	31140.83
674.87	30609.53
675.01	30927.84
675.15	30756.98
675.29	30925.50
675.43	30391.86
675.56	30623.57
675.70	30483.14
675.84	30141.42
675.98	29486.07
676.12	29783.32
676.26	30345.05
676.40	29944.81
676.54	29954.18
676.68	29930.77
676.82	29048.39
676.96	30029.07
677.10	29776.30
677.23	29589.05
677.37	29460.32
677.51	29446.28
677.65	29366.70
677.79	28907.96
677.93	28891.57
678.07	28421.13
678.21	28643.48
678.34	28739.44
678.48	28411.76
678.62	28634.11
678.76	27859.40
678.90	28086.43
679.04	28095.79
679.18	28407.08
679.31	27611.30
679.45	27814.93
679.59	27798.54
679.73	27885.14
679.87	27634.71
680.00	27845.35
680.14	27807.90
680.28	27683.86
680.42	27337.46
680.56	27234.47
680.70	27262.56
680.83	27283.62
680.97	27342.14
681.11	27080.00
681.25	27131.49
681.39	27161.92
681.52	27178.30
681.66	26670.40
681.80	26630.62
681.94	26412.95
682.07	26349.75
682.21	26457.42
682.35	25972.92
682.49	26546.36
682.62	26061.87
682.76	26064.21
682.90	26087.61
683.04	25476.73
683.17	25729.51
683.31	25425.24
683.45	25420.56
683.59	25706.10
683.72	25525.88
683.86	25355.02
684.00	25289.49
684.13	24922.02
684.27	25315.23
684.41	24795.64
684.55	24575.62
684.68	25174.80
684.82	24926.71
684.96	24533.50
685.09	24685.63
685.23	24549.88
685.37	24580.31
685.50	24498.39
685.64	24435.19
685.78	23995.17
685.91	23885.17
686.05	23948.36
686.19	23709.63
686.32	23644.09
686.46	23152.58
686.60	23414.72
686.73	23192.37
686.87	22967.68
687.01	22960.66
687.14	22801.50
687.28	22838.95
687.42	22834.27
687.55	22824.90
687.69	22579.15
687.82	22913.84
687.96	22869.37
688.10	22328.71
688.23	22670.43
688.37	22281.90
688.50	22197.64
688.64	22317.01
688.78	22209.34
688.91	21919.12
689.05	21914.44
689.18	22008.06
689.32	21614.85
689.46	22099.34
689.59	21933.16
689.73	21991.67
689.86	21664.00
690.00	21715.49
690.13	21432.29
690.27	20971.20
690.41	21153.76
690.54	21048.44
690.68	21032.05
690.81	21083.55
690.95	21048.44
691.08	20992.26
691.22	20657.57
691.35	20582.67
691.49	20971.20
691.62	20540.54
691.76	20690.34
691.89	20491.39
692.03	20521.82
692.16	20500.75
692.30	20262.02
692.43	20201.16
692.57	19824.34
692.70	19761.14
692.84	20119.24
692.97	19515.39
693.11	19412.40
693.24	19679.22
693.38	19302.40
693.51	19475.60
693.65	19576.24
693.78	19115.16
693.92	19412.40
694.05	19290.70
694.19	19391.34
694.32	19194.73
694.45	19033.24
694.59	19021.53
694.72	18759.39
694.86	18899.83
694.99	18628.32
695.13	18724.29
695.26	18515.98
695.39	18415.34
695.53	18518.32
695.66	18616.62
695.80	18279.58
695.93	18302.99
696.07	18195.32
696.20	18370.86
696.33	18059.57
696.47	18204.69
696.60	17783.39
696.73	17605.51
696.87	17570.40
697.00	17446.35
697.14	17319.96
697.27	17348.05
697.40	17074.21
697.54	17224.00
697.67	17228.68
697.80	17387.84
697.94	17123.36
698.07	17034.42
698.21	16959.52
698.34	16992.29
698.47	16978.25
698.61	16802.71
698.74	16748.87
698.87	16624.83
699.01	16318.22
699.14	16182.46
699.27	16329.92
699.40	16203.53
699.54	16142.67
699.67	15936.71
699.80	16173.10
699.94	15871.17
700.07	16294.81
700.20	15985.86
700.34	15510.73
700.47	15875.85
700.60	15697.97
700.73	15761.17
700.87	15587.97
701.00	15524.77
701.13	15276.68
701.26	15176.03
701.40	15133.90
701.53	15051.99
701.66	15133.90
701.79	14839.00
701.93	14932.62
702.06	14888.15
702.19	14752.40
702.32	14558.13
702.46	14881.13
702.59	14721.97
702.72	14726.65
702.85	14637.71
702.99	14604.94
703.12	14485.58
703.25	14548.77
703.38	14281.95
703.51	14190.67
703.65	13930.87
703.78	14001.08
703.91	13734.26
704.04	13907.46
704.17	14118.11
704.31	13877.04
704.44	13502.55
704.57	13778.73
704.70	13343.39
704.83	13736.60
704.96	13446.38
705.10	13507.23
705.23	13373.82
>>>>>End Processed Spectral Data<<<<<
