SpectraSuite Data File
++++++++++++++++++++++++++++++++++++
Date: Fri Oct 25 10:47:08 EDT 2013
User: price-jones
Dark Spectrum Present: No
Reference Spectrum Present: No
Number of Sampled Component Spectra: 1
Spectrometers: USB2+H05261
Integration Time (usec): 100000 (USB2+H05261)
Spectra Averaged: 1 (USB2+H05261)
Boxcar Smoothing: 0 (USB2+H05261)
Correct for Electrical Dark: No (USB2+H05261)
Strobe/Lamp Enabled: No (USB2+H05261)
Correct for Detector Non-linearity: No (USB2+H05261)
Correct for Stray Light: No (USB2+H05261)
Number of Pixels in Processed Spectrum: 2048
>>>>>Begin Processed Spectral Data<<<<<
365.73	131.07
365.92	131.07
366.12	131.07
366.32	56.17
366.52	9.36
366.72	58.51
366.91	0.00
367.11	0.00
367.31	0.00
367.51	18.72
367.70	100.64
367.90	18.72
368.10	51.49
368.30	28.09
368.49	18.72
368.69	60.85
368.89	86.60
369.09	102.98
369.28	72.56
369.48	112.35
369.68	91.28
369.87	149.79
370.07	16.38
370.27	107.66
370.47	166.18
370.66	369.80
370.86	395.55
371.06	444.70
371.25	526.62
371.45	442.36
371.65	517.26
371.84	517.26
372.04	498.53
372.24	468.11
372.44	496.19
372.63	435.34
372.83	552.37
373.03	402.57
373.22	449.38
373.42	524.28
373.62	472.79
373.81	552.37
374.01	505.56
374.21	554.71
374.40	535.98
374.60	653.01
374.79	533.64
374.99	559.39
375.19	589.82
375.38	634.29
375.58	587.47
375.78	596.84
375.97	592.16
376.17	596.84
376.37	543.00
376.56	620.24
376.76	613.22
376.95	524.28
377.15	650.67
377.35	596.84
377.54	629.60
377.74	547.69
377.93	585.13
378.13	613.22
378.33	653.01
378.52	634.29
378.72	631.94
378.91	732.59
379.11	587.47
379.31	585.13
379.50	702.16
379.70	699.82
379.89	603.86
380.09	629.60
380.28	575.77
380.48	629.60
380.68	688.12
380.87	580.45
381.07	697.48
381.26	648.33
381.46	580.45
381.65	648.33
381.85	606.20
382.04	657.69
382.24	713.86
382.43	650.67
382.63	727.91
382.83	695.14
383.02	727.91
383.22	734.93
383.41	720.88
383.61	636.63
383.80	720.88
384.00	730.25
384.19	678.76
384.39	734.93
384.58	664.71
384.78	725.57
384.97	713.86
385.17	819.19
385.36	758.33
385.56	812.17
385.75	751.31
385.95	781.74
386.14	739.61
386.34	774.72
386.53	795.78
386.72	760.67
386.92	847.27
387.11	784.08
387.31	777.06
387.50	791.10
387.70	802.80
387.89	791.10
388.09	758.33
388.28	755.99
388.48	823.87
388.67	833.23
388.86	910.47
389.06	868.34
389.25	844.93
389.45	858.98
389.64	922.17
389.84	889.40
390.03	851.96
390.22	866.00
390.42	840.25
390.61	856.64
390.81	919.83
391.00	931.53
391.19	861.32
391.39	924.51
391.58	976.00
391.78	947.92
391.97	976.00
392.16	931.53
392.36	966.64
392.55	931.53
392.75	936.21
392.94	912.81
393.13	940.90
393.33	1006.43
393.52	997.07
393.71	1069.62
393.91	961.96
394.10	964.30
394.29	1086.01
394.49	1032.18
394.68	1090.69
394.88	1170.27
395.07	1090.69
395.26	1067.28
395.46	1071.97
395.65	1086.01
395.84	1104.73
396.04	1107.07
396.23	1060.26
396.42	1039.20
396.62	1156.22
396.81	1116.44
397.00	1146.86
397.19	1146.86
397.39	1118.78
397.58	1193.67
397.77	1186.65
397.97	1219.42
398.16	1256.87
398.35	1226.44
398.55	1219.42
398.74	1235.80
398.93	1242.82
399.12	1348.15
399.32	1270.91
399.51	1280.27
399.70	1355.17
399.90	1378.58
400.09	1315.38
400.28	1329.42
400.47	1327.08
400.67	1394.96
400.86	1385.60
401.05	1437.09
401.24	1418.36
401.44	1509.65
401.63	1486.24
401.82	1362.19
402.01	1490.92
402.21	1493.26
402.40	1453.47
402.59	1526.03
402.78	1434.75
402.97	1511.99
403.17	1465.18
403.36	1568.16
403.55	1563.48
403.74	1673.48
403.93	1612.63
404.13	1654.76
404.32	1675.82
404.51	1589.22
404.70	1717.95
404.89	1727.32
405.09	1722.63
405.28	1657.10
405.47	1680.50
405.66	1778.81
405.85	1734.34
406.05	1682.85
406.24	1781.15
406.43	1713.27
406.62	1788.17
406.81	1839.66
407.00	1837.32
407.20	1746.04
407.39	1764.76
407.58	1870.09
407.77	1909.88
407.96	1886.47
408.15	1944.99
408.34	1842.00
408.54	1947.33
408.73	2008.18
408.92	1916.90
409.11	1987.11
409.30	1998.82
409.49	1930.94
409.68	1980.09
409.87	2054.99
410.07	2097.12
410.26	2146.27
410.45	2157.97
410.64	2099.46
410.83	2017.54
411.02	2090.10
411.21	2169.68
411.40	2104.14
411.59	2235.21
411.78	2251.60
411.98	2286.70
412.17	2136.91
412.36	2377.98
412.55	2303.09
412.74	2394.37
412.93	2387.35
413.12	2361.60
413.31	2462.24
413.50	2457.56
413.69	2562.89
413.88	2431.82
414.07	2518.42
414.26	2492.67
414.45	2616.72
414.64	2457.56
414.83	2590.97
415.02	2759.49
415.22	2677.57
415.41	2733.75
415.60	2771.19
415.79	2869.50
415.98	2862.48
416.17	2818.00
416.36	2710.34
416.55	2860.13
416.74	2789.92
416.93	2792.26
417.12	2860.13
417.31	2883.54
417.50	2937.37
417.69	3152.70
417.88	2916.31
418.07	2885.88
418.26	3103.55
418.45	3227.60
418.64	3098.87
418.83	3117.59
419.02	2995.89
419.21	3138.66
419.39	3148.02
419.58	3204.19
419.77	3136.32
419.96	3141.00
420.15	3255.69
420.34	3112.91
420.53	3311.86
420.72	3438.25
420.91	3293.13
421.10	3300.16
421.29	3368.03
421.48	3297.81
421.67	3295.47
421.86	3253.34
422.05	3433.57
422.24	3365.69
422.43	3262.71
422.61	3251.00
422.80	3513.14
422.99	3471.01
423.18	3527.19
423.37	3447.61
423.56	3548.25
423.75	3412.50
423.94	3618.47
424.13	3255.69
424.32	3403.14
424.50	3342.28
424.69	3597.40
424.88	3515.48
425.07	3361.01
425.26	3431.23
425.45	3494.42
425.64	3520.17
425.83	3496.76
426.01	3482.72
426.20	3433.57
426.39	3684.00
426.58	3595.06
426.77	3513.14
426.96	3503.78
427.15	3634.85
427.33	3707.41
427.52	3658.26
427.71	3810.39
427.90	3691.02
428.09	3648.90
428.28	3740.18
428.46	3770.60
428.65	3606.77
428.84	3882.95
429.03	3838.48
429.22	3634.85
429.40	3574.00
429.59	3702.73
429.78	3609.11
429.97	3641.87
430.16	3658.26
430.34	3691.02
430.53	3740.18
430.72	3906.35
430.91	3899.33
431.10	3885.29
431.28	3983.59
431.47	4023.38
431.66	4170.83
431.85	4222.33
432.03	4032.74
432.22	4107.64
432.41	4124.02
432.60	4145.09
432.79	4112.32
432.97	4114.66
433.16	4152.11
433.35	4124.02
433.54	4208.28
433.72	4088.92
433.91	4245.73
434.10	4168.49
434.28	4163.81
434.47	4299.56
434.66	4355.74
434.85	4528.94
435.03	4435.32
435.22	4463.40
435.41	4526.60
435.59	4341.69
435.78	4512.55
435.97	4524.26
436.16	4479.79
436.34	4664.69
436.53	4475.10
436.72	4638.94
436.90	4557.02
437.09	4510.21
437.28	4575.75
437.46	4444.68
437.65	4676.39
437.84	4648.30
438.02	4692.77
438.21	4655.33
438.40	4552.34
438.58	4727.88
438.77	4676.39
438.96	4706.82
439.14	4800.44
439.33	4894.06
439.52	4966.62
439.70	5121.09
439.89	5081.30
440.08	5060.24
440.26	5071.94
440.45	5104.71
440.63	5135.14
440.82	5193.65
441.01	5289.61
441.19	5226.42
441.38	5401.96
441.57	5371.53
441.75	5502.60
441.94	5561.11
442.12	5542.39
442.31	5584.52
442.50	5636.01
442.68	5727.29
442.87	5638.35
443.05	5636.01
443.24	5678.14
443.43	5668.78
443.61	5748.36
443.80	5746.02
443.98	5673.46
444.17	5572.82
444.35	5738.99
444.54	5874.74
444.73	5699.20
444.91	5741.33
445.10	5708.57
445.28	5858.36
445.47	5802.19
445.65	5755.38
445.84	5767.08
446.02	5692.18
446.21	5790.49
446.39	5837.30
446.58	5746.02
446.77	5900.49
446.95	5713.25
447.14	5865.38
447.32	5987.09
447.51	5865.38
447.69	5816.23
447.88	5856.02
448.06	5729.63
448.25	5900.49
448.43	6015.18
448.62	5888.79
448.80	5844.32
448.99	5966.03
449.17	6104.12
449.36	5891.13
449.54	6125.18
449.73	6127.52
449.91	6282.00
450.10	6282.00
450.28	6244.55
450.46	6157.95
450.65	6143.91
450.83	6326.47
451.02	6305.40
451.20	6445.84
451.39	6375.62
451.57	6305.40
451.76	6368.60
451.94	6406.05
452.13	6572.22
452.31	6527.75
452.49	6504.35
452.68	6499.67
452.86	6347.53
453.05	6274.98
453.23	6321.79
453.42	6553.50
453.60	6338.17
453.78	6719.68
453.97	6628.40
454.15	6565.20
454.34	6441.15
454.52	6813.30
454.70	6609.67
454.89	6635.42
455.07	6665.85
455.26	6675.21
455.44	6817.98
455.62	6881.18
455.81	6857.77
455.99	6913.94
456.17	7040.33
456.36	6963.09
456.54	6897.56
456.73	7152.68
456.91	7229.91
457.09	7180.76
457.28	7192.47
457.46	6906.92
457.64	7162.04
457.83	7197.15
458.01	7126.93
458.19	7314.17
458.38	7133.95
458.56	7344.60
458.74	7239.28
458.93	7269.70
459.11	7119.91
459.29	7269.70
459.48	7489.71
459.66	7581.00
459.84	7562.27
460.03	7475.67
460.21	7501.42
460.39	7829.09
460.57	7499.08
460.76	7276.73
460.94	7470.99
461.12	7669.94
461.31	7672.28
461.49	7758.88
461.67	7557.59
461.85	7632.49
462.04	7674.62
462.22	8133.36
462.40	7936.76
462.59	7915.69
462.77	7836.11
462.95	8021.02
463.13	7864.20
463.32	8032.72
463.50	8070.17
463.68	7957.82
463.86	8025.70
464.05	7740.15
464.23	7943.78
464.41	8135.70
464.59	7803.35
464.78	8290.18
464.96	8086.55
465.14	8238.69
465.32	8023.36
465.50	8187.19
465.69	8212.94
465.87	8217.62
466.05	8149.75
466.23	8219.96
466.41	8278.47
466.60	8421.25
466.78	7978.89
466.96	8219.96
467.14	8250.39
467.32	8400.18
467.51	8454.02
467.69	8252.73
467.87	8360.39
468.05	8341.67
468.23	8297.20
468.41	8444.65
468.60	8463.38
468.78	8643.60
468.96	8475.08
469.14	8741.90
469.32	8631.90
469.50	8397.84
469.69	8755.94
469.87	8865.95
470.05	8692.75
470.23	8751.26
470.41	8915.10
470.59	8987.66
470.77	8851.91
470.95	9039.15
471.14	8975.95
471.32	8765.31
471.50	9104.68
471.68	9137.45
471.86	9188.94
472.04	9308.31
472.22	9406.61
472.40	9060.21
472.58	9245.12
472.77	9317.67
472.95	9273.20
473.13	9750.67
473.31	9277.88
473.49	9518.96
473.67	9483.85
473.85	9406.61
474.03	9937.91
474.21	9696.84
474.39	9774.08
474.57	9902.81
474.75	10010.47
474.93	9731.95
475.12	9961.32
475.30	10171.97
475.48	10040.90
475.66	10174.31
475.84	10022.17
476.02	10132.18
476.20	10265.59
476.38	10462.19
476.56	10717.31
476.74	10569.86
476.92	10644.76
477.10	10729.02
477.28	10724.33
477.46	10813.28
477.64	10909.24
477.82	11087.12
478.00	11199.46
478.18	11138.61
478.36	11288.40
478.54	11569.27
478.72	11353.94
478.90	11398.41
479.08	11730.76
479.26	11789.28
479.44	11686.29
479.62	11805.66
479.80	11918.01
479.98	12077.16
480.16	12290.15
480.34	12105.25
480.52	12402.50
480.70	12308.88
480.88	12196.53
481.06	12531.23
481.24	12547.61
481.41	12737.20
481.59	12959.55
481.77	13107.00
481.95	12727.83
482.13	13081.25
482.31	13139.77
482.49	13359.78
482.67	13181.90
482.85	13334.03
483.03	13600.85
483.21	13540.00
483.39	13713.20
483.57	13771.71
483.74	13928.53
483.92	14017.47
484.10	13989.38
484.28	14043.21
484.46	14354.51
484.64	14796.87
484.82	14490.26
485.00	14792.19
485.18	14670.48
485.35	14768.78
485.53	14640.05
485.71	14773.46
485.89	15183.06
486.07	14956.02
486.25	15157.31
486.43	15173.69
486.61	15489.67
486.78	15772.87
486.96	15667.55
487.14	16198.85
487.32	15824.36
487.50	16472.69
487.68	16205.87
487.85	16774.62
488.03	16521.84
488.21	16840.15
488.39	16695.04
488.57	16989.95
488.75	17060.16
488.92	17474.44
489.10	17638.28
489.28	17549.34
489.46	17551.68
489.64	17422.95
489.81	18010.42
489.99	18218.73
490.17	18377.89
490.35	18869.40
490.53	18473.85
490.70	18448.10
490.88	18558.11
491.06	18876.42
491.24	19012.17
491.41	18984.09
491.59	18881.10
491.77	19101.11
491.95	19133.88
492.13	19557.52
492.30	19623.05
492.48	19562.20
492.66	19686.25
492.84	19599.65
493.01	19913.28
493.19	20077.12
493.37	20601.40
493.54	20170.74
493.72	20596.71
493.90	20362.66
494.08	20741.83
494.25	20580.33
494.43	20877.58
494.61	21125.68
494.79	20966.52
494.96	21207.59
495.14	21130.36
495.32	21441.65
495.49	21710.81
495.67	21490.80
495.85	22141.47
496.02	21738.90
496.20	21867.63
496.38	22279.56
496.55	22050.19
496.73	22698.52
496.91	22122.74
497.09	22576.81
497.26	22955.97
497.44	22801.50
497.62	22970.02
497.79	23124.49
497.97	23056.62
498.14	23360.89
498.32	23243.86
498.50	23461.53
498.67	23447.49
498.85	23761.12
499.03	23672.18
499.20	24105.18
499.38	23896.87
499.56	24201.14
499.73	24112.20
499.91	24135.60
500.08	24224.54
500.26	24002.19
500.44	24292.42
500.61	24383.70
500.79	24381.36
500.97	24638.82
501.14	25191.19
501.32	25191.19
501.49	24849.47
501.67	25102.25
501.84	25685.04
502.02	25167.78
502.20	25535.24
502.37	25186.50
502.55	25362.04
502.72	25645.25
502.90	25652.27
503.07	25439.28
503.25	25736.53
503.43	26001.01
503.60	25933.14
503.78	26122.72
503.95	25818.45
504.13	26001.01
504.30	26618.91
504.48	26478.48
504.65	26146.12
504.83	26792.11
505.01	26218.68
505.18	26230.38
505.36	27145.53
505.53	26436.35
505.71	27131.49
505.88	27103.40
506.06	26490.18
506.23	26991.06
506.41	27061.27
506.58	27051.91
506.76	27227.45
506.93	27243.84
507.11	27192.34
507.28	27793.86
507.46	27475.55
507.63	27714.28
507.81	27690.88
507.98	27358.52
508.16	27950.68
508.33	27885.14
508.50	28276.01
508.68	28058.34
508.85	28306.44
509.03	28222.18
509.20	28393.04
509.38	28474.96
509.55	28758.16
509.73	28851.78
509.90	28833.06
510.08	28676.24
510.25	28517.09
510.42	29397.13
510.60	29240.31
510.77	29207.55
510.95	29125.63
511.12	29083.50
511.30	29158.39
511.47	29795.02
511.64	29715.44
511.82	29921.41
511.99	29539.90
512.17	30115.67
512.34	29972.90
512.51	29764.59
512.69	30277.17
512.86	30300.58
513.04	30370.79
513.21	30064.18
513.38	30426.96
513.56	30487.82
513.73	30054.82
513.90	30464.41
514.08	30700.81
514.25	30684.42
514.43	30967.63
514.60	31381.90
514.77	30717.19
514.95	30895.07
515.12	31435.74
515.29	30785.07
515.47	31398.29
515.64	31531.70
515.81	31386.58
515.99	31026.14
516.16	31400.63
516.33	31122.10
516.51	31578.51
516.68	31112.74
516.85	31028.48
517.03	31290.62
517.20	31515.31
517.37	31770.43
517.54	31833.63
517.72	31819.58
517.89	31943.63
518.06	31681.49
518.24	32133.21
518.41	31793.84
518.58	31648.72
518.75	31962.36
518.93	32566.21
519.10	32486.64
519.27	32449.19
519.45	32507.70
519.62	32903.25
519.79	32711.33
519.96	33181.77
520.14	32912.61
520.31	32802.61
520.48	32994.53
520.65	33354.97
520.83	33525.83
521.00	33572.64
521.17	32938.36
521.34	33165.39
521.52	33350.29
521.69	33359.66
521.86	33869.89
522.03	33795.00
522.20	33860.53
522.38	33989.26
522.55	34022.03
522.72	33865.21
522.89	34038.41
523.07	34225.65
523.24	34080.54
523.41	34017.35
523.58	33827.76
523.75	34352.04
523.92	33867.55
524.10	34410.56
524.27	34614.18
524.44	34897.39
524.61	34759.30
524.78	34869.30
524.96	35372.52
525.13	35222.72
525.30	35009.73
525.47	35234.42
525.64	34883.34
525.81	35196.98
525.98	35051.86
526.16	35112.72
526.33	35180.59
526.50	35473.16
526.67	35049.52
526.84	35358.47
527.01	34955.90
527.18	35618.27
527.36	35592.53
527.53	35374.86
527.70	35758.70
527.87	35943.61
528.04	35819.56
528.21	35838.28
528.38	36165.96
528.55	35924.88
528.72	36105.10
528.89	36266.60
529.07	36308.73
529.24	36100.42
529.41	36065.31
529.58	36472.57
529.75	36247.88
529.92	36371.92
530.09	36465.55
530.26	36275.96
530.43	37008.55
530.60	36250.22
530.77	36634.06
530.94	37013.23
531.11	36863.44
531.28	36744.07
531.46	36477.25
531.63	37003.87
531.80	37347.93
531.97	37022.59
532.14	37244.94
532.31	36636.41
532.48	37181.75
532.65	37041.32
532.82	37378.36
532.99	37141.96
533.16	37088.13
533.33	37069.40
533.50	37464.96
533.67	37755.18
533.84	37120.90
534.01	37474.32
534.18	37385.38
534.35	38234.99
534.52	37773.91
534.69	37750.50
534.86	37729.44
535.03	37560.92
535.20	38251.38
535.37	38305.21
535.54	38366.06
535.71	38316.91
535.88	38026.68
536.05	38108.60
536.22	38113.28
536.38	38485.43
536.55	38139.03
536.72	38251.38
536.89	38082.86
537.06	38192.86
537.23	38588.41
537.40	38705.44
537.57	38913.75
537.74	38506.49
537.91	38684.37
538.08	38602.46
538.25	38658.63
538.42	38658.63
538.59	39145.46
538.75	38646.93
538.92	38815.44
539.09	39002.69
539.26	39035.45
539.43	38836.51
539.60	38754.59
539.77	38766.29
539.94	39147.80
540.11	39103.33
540.28	38939.49
540.44	39304.62
540.61	39255.46
540.78	39161.84
540.95	39601.86
541.12	38965.24
541.29	39119.71
541.46	38981.62
541.62	39665.06
541.79	40088.70
541.96	39180.57
542.13	39405.26
542.30	39239.08
542.47	39594.84
542.63	39512.92
542.80	39688.46
542.97	40404.67
543.14	40367.22
543.31	40414.03
543.48	40074.65
543.64	40662.13
543.81	40020.82
543.98	40107.42
544.15	40287.64
544.32	40341.47
544.48	41146.62
544.65	40645.74
544.82	41148.96
544.99	40076.99
545.16	40624.68
545.32	40704.26
545.49	41158.32
545.66	40694.89
545.83	40629.36
546.00	41029.59
546.16	40926.61
546.33	40706.60
546.50	40233.81
546.67	40966.40
546.83	40439.78
547.00	40919.59
547.17	40737.02
547.34	40699.58
547.50	40964.06
547.67	41060.02
547.84	41095.13
548.00	40837.67
548.17	41406.42
548.34	41268.33
548.51	41670.90
548.67	41242.58
548.84	41064.70
549.01	41235.56
549.18	41184.07
549.34	41441.53
549.51	41455.57
549.68	41638.13
549.84	41839.42
550.01	41916.65
550.18	41315.14
550.34	41792.61
550.51	41242.58
550.68	41708.35
550.84	41617.07
551.01	41956.44
551.18	42139.00
551.34	41977.51
551.51	42064.11
551.68	42272.42
551.84	42134.32
552.01	41546.85
552.18	42017.30
552.34	42157.73
552.51	41785.58
552.68	42436.25
552.84	42204.54
553.01	42309.86
553.18	41942.40
553.34	42061.77
553.51	42066.45
553.67	42349.65
553.84	42513.49
554.01	42396.46
554.17	42415.19
554.34	42522.85
554.51	42483.06
554.67	42876.27
554.84	42387.10
555.00	42572.00
555.17	41940.06
555.33	42740.52
555.50	42438.59
555.67	42579.03
555.83	42293.48
556.00	42639.88
556.16	42958.19
556.33	42923.08
556.50	42436.25
556.66	43026.07
556.83	42410.51
556.99	42754.57
557.16	42799.04
557.32	42838.83
557.49	42588.39
557.65	42302.84
557.82	42761.59
557.98	43016.71
558.15	42997.98
558.32	42384.76
558.48	42941.81
558.65	42735.84
558.81	42892.66
558.98	43028.41
559.14	43150.12
559.31	43154.80
559.47	43232.04
559.64	43318.64
559.80	43290.55
559.97	43187.56
560.13	42967.55
560.30	43150.12
560.46	43250.76
560.63	43241.40
560.79	43587.80
560.96	43536.30
561.12	43227.35
561.29	43304.59
561.45	42983.94
561.61	43337.36
561.78	43225.01
561.94	43283.53
562.11	43049.47
562.27	43414.60
562.44	43271.82
562.60	43725.89
562.77	43676.74
562.93	43765.68
563.10	43353.74
563.26	43180.54
563.42	43817.17
563.59	43627.59
563.75	43765.68
563.92	43992.71
564.08	43587.80
564.24	43920.15
564.41	43814.83
564.57	43772.70
564.74	43688.44
564.90	43709.50
565.07	43803.13
565.23	43761.00
565.39	43875.68
565.56	44074.63
565.72	43732.91
565.88	43950.58
566.05	43562.05
566.21	43414.60
566.38	43320.98
566.54	43992.71
566.70	43999.73
566.87	44189.31
567.03	44076.97
567.19	44332.09
567.36	44112.08
567.52	43784.40
567.68	44175.27
567.85	44083.99
568.01	43580.78
568.17	43852.28
568.34	43653.33
568.50	44151.87
568.66	44112.08
568.83	44208.04
568.99	43833.55
569.15	43917.81
569.32	44088.67
569.48	44088.67
569.64	44514.65
569.81	43716.53
569.97	43938.88
570.13	44339.11
570.30	43908.45
570.46	43477.79
570.62	43246.08
570.78	43887.39
570.95	43931.86
571.11	44397.62
571.27	43735.25
571.43	44069.95
571.60	43985.69
571.76	43922.49
571.92	44072.29
572.09	43456.73
572.25	44463.16
572.41	43908.45
572.57	44282.94
572.74	44428.05
572.90	44177.61
573.06	44158.89
573.22	43917.81
573.38	43988.03
573.55	43739.93
573.71	44655.08
573.87	43976.33
574.03	43878.02
574.20	44526.35
574.36	44203.36
574.52	44285.28
574.68	44062.93
574.84	44477.20
575.01	44498.26
575.17	44308.68
575.33	44292.30
575.49	44374.22
575.65	44266.55
575.82	44858.71
575.98	44247.83
576.14	44713.59
576.30	44619.97
576.46	44334.43
576.62	44016.11
576.79	43929.51
576.95	43742.27
577.11	44009.09
577.27	44650.40
577.43	44311.02
577.59	44404.64
577.75	44596.57
577.92	44135.48
578.08	44135.48
578.24	44030.16
578.40	44076.97
578.56	44219.74
578.72	44601.25
578.88	44556.78
579.04	44629.34
579.21	44098.03
579.37	44091.01
579.53	44060.58
579.69	44051.22
579.85	44837.64
580.01	44446.77
580.17	44547.42
580.33	44484.22
580.49	44591.89
580.65	44449.11
580.82	44788.49
580.98	43922.49
581.14	44357.83
581.30	44458.48
581.46	44690.19
581.62	44666.78
581.78	44414.01
581.94	44566.14
582.10	44547.42
582.26	44767.43
582.42	44439.75
582.58	44769.77
582.74	43988.03
582.90	44563.80
583.06	44341.45
583.22	44245.49
583.38	44783.81
583.54	44542.74
583.70	44554.44
583.86	44629.34
584.02	43847.60
584.18	44201.02
584.34	44664.44
584.50	44460.82
584.66	44488.90
584.82	44432.73
584.98	44313.36
585.14	44402.30
585.30	44322.72
585.46	44399.96
585.62	44172.93
585.78	44376.56
585.94	44374.22
586.10	44226.76
586.26	44306.34
586.42	44811.90
586.58	45083.40
586.74	44666.78
586.90	44437.41
587.06	44149.53
587.22	44381.24
587.38	44378.90
587.54	44751.04
587.70	44495.92
587.86	44739.34
588.02	44800.19
588.18	44729.98
588.34	44659.76
588.49	44275.91
588.65	44072.29
588.81	44264.21
588.97	44404.64
589.13	44051.22
589.29	44442.09
589.45	44774.45
589.61	44678.49
589.77	44732.32
589.93	44715.93
590.08	44762.75
590.24	44509.97
590.40	44671.46
590.56	45050.63
590.72	44795.51
590.88	44453.79
591.04	44549.76
591.20	45041.27
591.35	44851.69
591.51	45024.89
591.67	44715.93
591.83	44959.35
591.99	44612.95
592.15	44603.59
592.31	45015.52
592.46	44521.67
592.62	44580.18
592.78	44978.07
592.94	44921.90
593.10	44989.78
593.26	44973.39
593.41	44882.11
593.57	44720.62
593.73	44706.57
593.89	44966.37
594.05	44912.54
594.20	44786.15
594.36	44706.57
594.52	44739.34
594.68	44772.11
594.84	44762.75
594.99	45200.43
595.15	44680.83
595.31	45020.20
595.47	44884.45
595.62	44713.59
595.78	45167.66
595.94	45137.23
596.10	44872.75
596.25	44992.12
596.41	44928.92
596.57	44711.25
596.73	44734.66
596.88	44725.30
597.04	44907.86
597.20	44821.26
597.36	44994.46
597.51	45340.86
597.67	44985.10
597.83	45071.70
597.99	45162.98
598.14	45109.14
598.30	45191.06
598.46	45153.62
598.61	45001.48
598.77	44460.82
598.93	44528.69
599.09	44809.56
599.24	45427.46
599.40	45083.40
599.56	45434.48
599.71	45450.86
599.87	45413.41
600.03	45205.11
600.18	45010.84
600.34	44959.35
600.50	45181.70
600.65	45120.85
600.81	45322.13
600.97	45352.56
601.12	45296.39
601.28	45488.31
601.44	44779.13
601.59	44851.69
601.75	44910.20
601.91	44900.84
602.06	45036.59
602.22	44919.56
602.37	44945.31
602.53	44842.32
602.69	45254.26
602.84	44893.82
603.00	45303.41
603.16	44727.64
603.31	44636.36
603.47	44893.82
603.62	44325.07
603.78	44690.19
603.94	44931.26
604.09	45420.44
604.25	45329.16
604.40	44931.26
604.56	45003.82
604.71	44809.56
604.87	44676.15
605.03	44659.76
605.18	45303.41
605.34	44933.60
605.49	44561.46
605.65	44912.54
605.80	45111.49
605.96	44942.97
606.12	45174.68
606.27	45404.05
606.43	44711.25
606.58	44870.41
606.74	44411.67
606.89	44643.38
607.05	44659.76
607.20	44638.70
607.36	44947.65
607.51	45020.20
607.67	44875.09
607.82	44526.35
607.98	44765.09
608.13	44556.78
608.29	44278.25
608.44	44765.09
608.60	44360.17
608.75	44414.01
608.91	44245.49
609.06	44514.65
609.22	44832.96
609.37	44626.99
609.53	44322.72
609.68	44259.53
609.84	44797.85
609.99	44294.64
610.15	44388.26
610.30	44744.02
610.46	44282.94
610.61	44662.10
610.76	44491.24
610.92	44348.47
611.07	44437.41
611.23	44425.71
611.38	44556.78
611.54	44039.52
611.69	43959.94
611.84	44196.34
612.00	44409.32
612.15	44245.49
612.31	44744.02
612.46	43756.32
612.62	44282.94
612.77	44088.67
612.92	44500.61
613.08	43973.98
613.23	44491.24
613.39	44095.69
613.54	43770.36
613.69	44032.50
613.85	44041.86
614.00	44046.54
614.15	44322.72
614.31	44439.75
614.46	44299.32
614.62	44493.58
614.77	44121.44
614.92	44060.58
615.08	43508.22
615.23	43831.21
615.38	43959.94
615.54	43597.16
615.69	43681.42
615.84	43519.92
616.00	44030.16
616.15	43676.74
616.30	43761.00
616.46	43548.01
616.61	43957.60
616.76	43791.42
616.92	43655.67
617.07	43358.42
617.22	43304.59
617.37	43674.40
617.53	43887.39
617.68	43709.50
617.83	43468.43
617.99	43770.36
618.14	43548.01
618.29	43210.97
618.45	43157.14
618.60	43592.48
618.75	43917.81
618.90	43023.73
619.06	43470.77
619.21	43217.99
619.36	43583.12
619.51	43042.45
619.67	43079.90
619.82	43447.36
619.97	43468.43
620.12	43215.65
620.28	42850.53
620.43	42990.96
620.58	43124.37
620.73	42777.97
620.89	43164.16
621.04	42873.93
621.19	42958.19
621.34	42646.90
621.49	43042.45
621.65	42672.65
621.80	42808.40
621.95	42600.09
622.10	43086.92
622.25	42389.44
622.41	43009.68
622.56	42642.22
622.71	42878.61
622.86	42745.20
623.01	43180.54
623.16	42705.41
623.32	42738.18
623.47	42787.33
623.62	42848.19
623.77	42380.08
623.92	42391.78
624.07	42307.52
624.23	42574.34
624.38	42504.13
624.53	42459.66
624.68	42583.71
624.83	42579.03
624.98	42139.00
625.13	42045.38
625.29	42564.98
625.44	42391.78
625.59	41565.57
625.74	42085.17
625.89	41926.02
626.04	41832.39
626.19	42359.02
626.34	42361.36
626.49	42380.08
626.65	42471.36
626.80	42576.69
626.95	42429.23
627.10	41963.46
627.25	41918.99
627.40	41757.50
627.55	41804.31
627.70	41731.75
627.85	41691.96
628.00	41729.41
628.15	42195.18
628.30	42141.35
628.45	42246.67
628.60	41708.35
628.76	41855.80
628.91	41855.80
629.06	41801.97
629.21	41429.82
629.36	41476.63
629.51	41581.96
629.66	41535.15
629.81	41256.62
629.96	41734.09
630.11	41457.91
630.26	41420.46
630.41	41757.50
630.56	41387.69
630.71	41268.33
630.86	41216.83
631.01	41462.59
631.16	41628.77
631.31	41151.30
631.46	41125.55
631.61	41371.31
631.76	41364.29
631.91	41593.66
632.06	41296.41
632.21	41090.44
632.36	41298.75
632.51	40917.25
632.66	40924.27
632.81	40931.29
632.96	40858.73
633.10	40659.79
633.25	40905.54
633.40	41067.04
633.55	40655.11
633.70	40980.44
633.85	40559.14
634.00	41015.55
634.15	40879.80
634.30	40318.07
634.45	40912.56
634.60	40872.78
634.75	40783.83
634.90	40800.22
635.05	40648.08
635.19	40694.89
635.34	41013.21
635.49	40872.78
635.64	40825.96
635.79	40201.04
635.94	40105.08
636.09	40421.05
636.24	40306.37
636.39	40418.71
636.53	40411.69
636.68	39730.59
636.83	40322.75
636.98	40779.15
637.13	39819.53
637.28	40470.20
637.43	40463.18
637.57	40418.71
637.72	40165.93
637.87	40287.64
638.02	40217.43
638.17	40311.05
638.32	39915.50
638.46	40196.36
638.61	39365.47
638.76	39779.74
638.91	39772.72
639.06	40144.87
639.20	40109.76
639.35	40257.21
639.50	40151.89
639.65	39936.56
639.80	40341.47
639.94	39772.72
640.09	39892.09
640.24	39491.86
640.39	39571.44
640.54	39412.28
640.68	39777.40
640.83	39833.58
640.98	39136.10
641.13	39566.76
641.27	40025.50
641.42	39779.74
641.57	39718.89
641.72	39775.06
641.86	39339.72
642.01	39082.27
642.16	39487.18
642.31	39100.99
642.45	39161.84
642.60	39072.90
642.75	39091.63
642.90	39349.09
643.04	39304.62
643.19	39468.45
643.34	39426.32
643.48	39531.65
643.63	39281.21
643.78	38962.90
643.93	38890.34
644.07	38852.89
644.22	39091.63
644.37	38635.22
644.51	38698.42
644.66	38850.55
644.81	39543.35
644.95	39225.04
645.10	38930.13
645.25	39023.75
645.39	39267.17
645.54	38747.57
645.69	38792.04
645.83	38785.02
645.98	38857.57
646.13	38808.42
646.27	38838.85
646.42	38930.13
646.57	38726.50
646.71	39054.18
646.86	38946.51
647.00	38735.87
647.15	39147.80
647.30	38387.13
647.44	38480.75
647.59	38653.95
647.74	38143.71
647.88	38422.23
648.03	38646.93
648.17	38426.92
648.32	38511.17
648.47	38075.84
648.61	38244.35
648.76	38548.62
648.90	38733.53
649.05	38632.88
649.20	38230.31
649.34	38253.72
649.49	38354.36
649.63	38223.29
649.78	38017.32
649.92	38094.56
650.07	38630.54
650.21	38078.18
650.36	38724.16
650.51	38349.68
650.65	38309.89
650.80	38719.48
650.94	37989.24
651.09	38263.08
651.23	37813.70
651.38	37958.81
651.52	37879.23
651.67	38108.60
651.81	37731.78
651.96	37542.19
652.10	37886.25
652.25	37366.65
652.39	37593.68
652.54	38052.43
652.68	37736.46
652.83	38143.71
652.97	37874.55
653.12	37984.55
653.26	37565.60
653.41	37832.42
653.55	37572.62
653.70	37350.27
653.84	37479.00
653.99	37572.62
654.13	37670.92
654.27	37699.01
654.42	37589.00
654.56	36950.04
654.71	37567.94
654.85	37329.20
655.00	37626.45
655.14	37766.88
655.29	36479.59
655.43	36973.44
655.57	36833.01
655.72	37106.85
655.86	37167.71
656.01	36708.96
656.15	37081.11
656.30	37095.15
656.44	36472.57
656.58	37027.28
656.73	36694.92
656.87	36732.37
657.01	36708.96
657.16	36840.03
657.30	36638.75
657.45	36891.52
657.59	36531.08
657.73	36580.23
657.88	36928.97
658.02	36620.02
658.16	36921.95
658.31	37153.66
658.45	36961.74
658.60	36453.84
658.74	36594.28
658.88	36444.48
659.03	36357.88
659.17	36428.10
659.31	36098.08
659.46	36334.48
659.60	35803.17
659.74	36245.54
659.89	35819.56
660.03	35803.17
660.17	36559.17
660.32	35969.35
660.46	36027.87
660.60	36044.25
660.74	35948.29
660.89	36191.70
661.03	35819.56
661.17	35967.01
661.32	35665.08
661.46	35637.00
661.60	35852.33
661.74	35503.59
661.89	35126.76
662.03	35297.62
662.17	35370.18
662.31	35276.55
662.46	35489.54
662.60	35346.77
662.74	35196.98
662.88	35388.90
663.03	35555.08
663.17	35070.59
663.31	34836.53
663.45	35627.63
663.60	34855.26
663.74	34918.45
663.88	34710.14
664.02	34881.00
664.17	35005.05
664.31	34401.19
664.45	34810.79
664.59	34642.27
664.73	34719.51
664.88	34518.22
665.02	33881.60
665.16	34703.12
665.30	34504.18
665.44	34293.53
665.59	34150.76
665.73	33968.19
665.87	33865.21
666.01	34260.76
666.15	34005.64
666.29	34230.33
666.44	34639.93
666.58	33752.87
666.72	34213.95
666.86	34235.02
667.00	33965.85
667.14	33364.34
667.28	33717.76
667.43	33280.08
667.57	33954.15
667.71	33825.42
667.85	33497.75
667.99	33408.81
668.13	33507.11
668.27	33280.08
668.41	33462.64
668.56	33240.29
668.70	33521.15
668.84	33624.14
668.98	33006.23
669.12	33020.28
669.26	33312.84
669.40	33041.34
669.54	32769.84
669.68	32854.10
669.82	32680.90
669.96	32931.34
670.10	32205.77
670.25	33017.94
670.39	32580.26
670.53	32428.12
670.67	32437.48
670.81	32774.52
670.95	32914.95
671.09	32636.43
671.23	32268.97
671.37	32470.25
671.51	32404.72
671.65	31835.97
671.79	31976.40
671.93	31732.98
672.07	32013.85
672.21	32212.79
672.35	31901.50
672.49	31700.22
672.63	32231.52
672.77	31782.13
672.91	31786.82
673.05	31117.42
673.19	31339.77
673.33	30897.41
673.47	31065.93
673.61	31009.76
673.75	30925.50
673.89	30918.48
674.03	30904.43
674.17	31150.19
674.31	31065.93
674.45	30843.58
674.59	31264.88
674.73	31220.41
674.87	30976.99
675.01	30803.79
675.15	30822.51
675.29	30930.18
675.43	30394.20
675.56	30548.67
675.70	30433.99
675.84	29958.86
675.98	29369.04
676.12	30043.12
676.26	29738.85
676.40	29680.33
676.54	29776.30
676.68	29940.13
676.82	29366.70
676.96	29460.32
677.10	29474.37
677.23	29099.88
677.37	29563.31
677.51	29233.29
677.65	29153.71
677.79	28879.87
677.93	28690.29
678.07	28872.85
678.21	28559.22
678.34	28641.14
678.48	28559.22
678.62	28503.04
678.76	28311.12
678.90	28091.11
679.04	28254.95
679.18	28486.66
679.31	27440.44
679.45	27566.83
679.59	27838.33
679.73	27536.40
679.87	27484.91
680.00	27964.72
680.14	27562.15
680.28	27480.23
680.42	27182.98
680.56	27182.98
680.70	27012.12
680.83	27056.59
680.97	27180.64
681.11	27009.78
681.25	26920.84
681.39	26855.31
681.52	27108.08
681.66	26532.31
681.80	26438.69
681.94	26693.81
682.07	26300.60
682.21	26178.89
682.35	26312.30
682.49	26040.80
682.62	26403.58
682.76	26134.42
682.90	25720.15
683.04	25895.69
683.17	25750.57
683.31	25867.60
683.45	25933.14
683.59	25376.09
683.72	25268.42
683.86	25090.54
684.00	24992.24
684.13	25198.21
684.27	25446.30
684.41	25249.70
684.55	24994.58
684.68	25067.14
684.82	24999.26
684.96	24634.14
685.09	24540.52
685.23	24456.26
685.37	24362.64
685.50	24329.87
685.64	24545.20
685.78	24273.70
685.91	23931.98
686.05	24039.64
686.19	23648.77
686.32	23398.34
686.46	23749.42
686.60	23845.38
686.73	23559.83
686.87	23393.65
687.01	23597.28
687.14	23396.00
687.28	23225.14
687.42	23262.58
687.55	22714.90
687.69	23297.69
687.82	23002.78
687.96	23082.36
688.10	22396.59
688.23	22682.13
688.37	22581.49
688.50	22181.26
688.64	22309.99
688.78	22143.81
688.91	22223.39
689.05	22178.92
689.18	22059.55
689.32	21961.25
689.46	21589.10
689.59	22066.57
689.73	22307.65
689.86	21532.93
690.00	21900.39
690.13	21736.56
690.27	21745.92
690.41	21816.13
690.54	20954.82
690.68	21186.53
690.81	21041.42
690.95	20716.08
691.08	20975.88
691.22	20580.33
691.35	20428.20
691.49	20938.43
691.62	20973.54
691.76	20732.47
691.89	20606.08
692.03	20346.28
692.16	20414.15
692.30	20336.91
692.43	20292.44
692.57	20002.22
692.70	19871.15
692.84	19941.36
692.97	19765.82
693.11	19447.51
693.24	19585.60
693.38	19843.06
693.51	19318.78
693.65	19721.35
693.78	19470.92
693.92	19421.77
694.05	19129.20
694.19	19342.19
694.32	19054.30
694.45	19250.91
694.59	18693.86
694.72	18717.26
694.86	18843.65
694.99	18731.31
695.13	18583.85
695.26	18684.50
695.39	18321.71
695.53	18354.48
695.66	18202.35
695.80	18424.70
695.93	18256.18
696.07	17914.46
696.20	18022.12
696.33	17989.36
696.47	17994.04
696.60	17804.46
696.73	17832.54
696.87	17783.39
697.00	17483.80
697.14	17638.28
697.27	17296.56
697.40	17413.59
697.54	17549.34
697.67	17186.55
697.80	17474.44
697.94	17195.92
698.07	16957.18
698.21	16805.05
698.34	17174.85
698.47	16978.25
698.61	16622.48
698.74	16798.02
698.87	16596.74
699.01	16573.33
699.14	16168.42
699.27	16472.69
699.40	16460.99
699.54	16362.69
699.67	15957.77
699.80	16133.31
699.94	15962.45
700.07	16093.52
700.20	15836.06
700.34	15915.64
700.47	15833.72
700.60	15412.43
700.73	15936.71
700.87	15414.77
701.00	15400.72
701.13	15529.45
701.26	15389.02
701.40	15407.75
701.53	15316.47
701.66	15157.31
701.79	14956.02
701.93	15276.68
702.06	15035.60
702.19	14733.67
702.32	14822.61
702.46	14501.96
702.59	14789.85
702.72	14628.35
702.85	14644.73
702.99	14572.18
703.12	14906.87
703.25	14277.27
703.38	14368.55
703.51	14155.56
703.65	14197.69
703.78	14097.05
703.91	13855.97
704.04	13998.74
704.17	13909.80
704.31	14005.77
704.44	13481.49
704.57	13666.39
704.70	13572.77
704.83	13502.55
704.96	13439.36
705.10	13472.12
705.23	13696.82
>>>>>End Processed Spectral Data<<<<<
