SpectraSuite Data File
++++++++++++++++++++++++++++++++++++
Date: Fri Oct 25 11:34:01 EDT 2013
User: price-jones
Dark Spectrum Present: No
Reference Spectrum Present: No
Number of Sampled Component Spectra: 1
Spectrometers: USB2+H05261
Integration Time (usec): 100000 (USB2+H05261)
Spectra Averaged: 1 (USB2+H05261)
Boxcar Smoothing: 0 (USB2+H05261)
Correct for Electrical Dark: No (USB2+H05261)
Strobe/Lamp Enabled: No (USB2+H05261)
Correct for Detector Non-linearity: No (USB2+H05261)
Correct for Stray Light: No (USB2+H05261)
Number of Pixels in Processed Spectrum: 2048
>>>>>Begin Processed Spectral Data<<<<<
365.73	264.48
365.92	264.48
366.12	264.48
366.32	229.37
366.52	175.54
366.72	205.97
366.91	175.54
367.11	140.43
367.31	168.52
367.51	159.16
367.70	184.90
367.90	191.92
368.10	198.95
368.30	145.11
368.49	152.13
368.69	191.92
368.89	180.22
369.09	191.92
369.28	191.92
369.48	117.03
369.68	238.73
369.87	257.46
370.07	196.60
370.27	243.42
370.47	337.04
370.66	461.09
370.86	456.40
371.06	533.64
371.25	557.05
371.45	486.83
371.65	559.39
371.84	543.00
372.04	517.26
372.24	559.39
372.44	650.67
372.63	615.56
372.83	627.26
373.03	594.50
373.22	472.79
373.42	564.07
373.62	645.99
373.81	636.63
374.01	667.05
374.21	629.60
374.40	608.54
374.60	674.07
374.79	662.37
374.99	592.16
375.19	638.97
375.38	660.03
375.58	571.09
375.78	688.12
375.97	730.25
376.17	755.99
376.37	613.22
376.56	711.52
376.76	660.03
376.95	664.71
377.15	674.07
377.35	669.39
377.54	695.14
377.74	683.44
377.93	704.50
378.13	713.86
378.33	638.97
378.52	711.52
378.72	725.57
378.91	734.93
379.11	650.67
379.31	702.16
379.50	697.48
379.70	765.36
379.89	732.59
380.09	713.86
380.28	727.91
380.48	779.40
380.68	695.14
380.87	772.38
381.07	739.61
381.26	751.31
381.46	664.71
381.65	814.51
381.85	795.78
382.04	690.46
382.24	737.27
382.43	741.95
382.63	763.01
382.83	798.12
383.02	763.01
383.22	798.12
383.41	699.82
383.61	882.38
383.80	819.19
384.00	767.70
384.19	781.74
384.39	791.10
384.58	800.46
384.78	791.10
384.97	767.70
385.17	887.06
385.36	807.48
385.56	847.27
385.75	858.98
385.95	809.83
386.14	866.00
386.34	854.30
386.53	835.57
386.72	833.23
386.92	821.53
387.11	978.34
387.31	903.45
387.50	887.06
387.70	896.43
387.89	919.83
388.09	873.02
388.28	842.59
388.48	910.47
388.67	1011.11
388.86	889.40
389.06	880.04
389.25	952.60
389.45	978.34
389.64	919.83
389.84	936.21
390.03	943.24
390.22	997.07
390.42	884.72
390.61	912.81
390.81	945.58
391.00	1008.77
391.19	947.92
391.39	976.00
391.58	1032.18
391.78	987.71
391.97	1050.90
392.16	950.26
392.36	1032.18
392.55	1008.77
392.75	1076.65
392.94	1114.10
393.13	1086.01
393.33	1039.20
393.52	1043.88
393.71	1104.73
393.91	1093.03
394.10	1018.13
394.29	1100.05
394.49	1043.88
394.68	1048.56
394.88	1081.33
395.07	1163.25
395.26	1078.99
395.46	1198.35
395.65	1125.80
395.84	1203.04
396.04	1181.97
396.23	1062.60
396.42	1158.57
396.62	1177.29
396.81	1217.08
397.00	1214.74
397.19	1233.46
397.39	1212.40
397.58	1158.57
397.77	1165.59
397.97	1296.66
398.16	1254.53
398.35	1289.64
398.55	1252.19
398.74	1226.44
398.93	1366.87
399.12	1383.26
399.32	1238.14
399.51	1167.93
399.70	1345.81
399.90	1343.47
400.09	1329.42
400.28	1411.34
400.47	1432.41
400.67	1287.29
400.86	1380.92
401.05	1418.36
401.24	1406.66
401.44	1409.00
401.63	1488.58
401.82	1392.62
402.01	1418.36
402.21	1406.66
402.40	1380.92
402.59	1390.28
402.78	1526.03
402.97	1385.60
403.17	1486.24
403.36	1549.43
403.55	1605.61
403.74	1612.63
403.93	1652.42
404.13	1650.08
404.32	1526.03
404.51	1579.86
404.70	1596.25
404.89	1514.33
405.09	1624.33
405.28	1699.23
405.47	1640.72
405.66	1703.91
405.85	1703.91
406.05	1732.00
406.24	1713.27
406.43	1732.00
406.62	1715.61
406.81	1795.19
407.00	1692.21
407.20	1778.81
407.39	1844.34
407.58	1717.95
407.77	1827.96
407.96	1813.92
408.15	1877.11
408.34	1778.81
408.54	1870.09
408.73	1877.11
408.92	1989.46
409.11	1989.46
409.30	1982.43
409.49	1937.96
409.68	1966.05
409.87	1942.64
410.07	1947.33
410.26	2057.33
410.45	2015.20
410.64	2221.17
410.83	2101.80
411.02	2047.97
411.21	2204.78
411.40	2090.10
411.59	2214.15
411.78	2139.25
411.98	2174.36
412.17	2289.04
412.36	2181.38
412.55	2188.40
412.74	2403.73
412.93	2464.58
413.12	2249.25
413.31	2471.61
413.50	2363.94
413.69	2319.47
413.88	2480.97
414.07	2389.69
414.26	2495.01
414.45	2509.05
414.64	2516.08
414.83	2537.14
415.02	2621.40
415.22	2492.67
415.41	2551.18
415.60	2605.02
415.79	2696.30
415.98	2752.47
416.17	2602.68
416.36	2743.11
416.55	2729.06
416.74	2712.68
416.93	2810.98
417.12	2771.19
417.31	2864.82
417.50	2815.66
417.69	2909.29
417.88	2944.39
418.07	2822.69
418.26	3002.91
418.45	2888.22
418.64	2988.86
418.83	3009.93
419.02	3133.98
419.21	3059.08
419.39	3063.76
419.58	3063.76
419.77	2988.86
419.96	3141.00
420.15	3101.21
420.34	3126.96
420.53	3068.44
420.72	3187.81
420.91	3213.56
421.10	3171.43
421.29	3253.34
421.48	3169.09
421.67	3155.04
421.86	3281.43
422.05	3239.30
422.24	3218.24
422.43	3351.65
422.61	3353.99
422.80	3283.77
422.99	3358.67
423.18	3342.28
423.37	3393.78
423.56	3393.78
423.75	3335.26
423.94	3295.47
424.13	3103.55
424.32	3243.98
424.50	3375.05
424.69	3485.06
424.88	3323.56
425.07	3379.73
425.26	3337.60
425.45	3356.33
425.64	3426.54
425.83	3358.67
426.01	3499.10
426.20	3379.73
426.39	3449.95
426.58	3328.24
426.77	3431.23
426.96	3449.95
427.15	3592.72
427.33	3527.19
427.52	3445.27
427.71	3550.59
427.90	3581.02
428.09	3611.45
428.28	3531.87
428.46	3702.73
428.65	3616.13
428.84	3646.55
429.03	3808.05
429.22	3576.34
429.40	3667.62
429.59	3674.64
429.78	3655.92
429.97	3471.01
430.16	3676.98
430.34	3880.61
430.53	3817.41
430.72	3981.25
430.91	3889.97
431.10	3885.29
431.28	3824.44
431.47	3997.64
431.66	3929.76
431.85	3873.59
432.03	3985.93
432.22	3939.12
432.41	4002.32
432.60	4065.51
432.79	4007.00
432.97	4131.05
433.16	3960.19
433.35	4025.72
433.54	4086.58
433.72	4269.14
433.91	4084.23
434.10	4194.24
434.28	4161.47
434.47	4208.28
434.66	4100.62
434.85	4315.95
435.03	4292.54
435.22	4264.46
435.41	4482.13
435.59	4449.36
435.78	4390.84
435.97	4325.31
436.16	4297.22
436.34	4283.18
436.53	4257.43
436.72	4482.13
436.90	4440.00
437.09	4477.44
437.28	4428.29
437.46	4463.40
437.65	4372.12
437.84	4594.47
438.02	4667.03
438.21	4454.04
438.40	4479.79
438.58	4592.13
438.77	4823.84
438.96	4732.56
439.14	4837.89
439.33	4880.02
439.52	4823.84
439.70	4854.27
439.89	4835.55
440.08	5046.20
440.26	5078.96
440.45	4947.89
440.63	5001.72
440.82	5029.81
441.01	5081.30
441.19	5165.56
441.38	5198.33
441.57	5193.65
441.75	5268.55
441.94	5259.18
442.12	5305.99
442.31	5294.29
442.50	5479.19
442.68	5233.44
442.87	5331.74
443.05	5390.25
443.24	5369.19
443.43	5444.09
443.61	5472.17
443.80	5589.20
443.98	5355.15
444.17	5170.24
444.35	5488.56
444.54	5640.69
444.73	5528.35
444.91	5614.95
445.10	5453.45
445.28	5631.33
445.47	5551.75
445.65	5582.18
445.84	5593.88
446.02	5516.64
446.21	5474.51
446.39	5671.12
446.58	5666.44
446.77	5636.01
446.95	5650.05
447.14	5591.54
447.32	5533.03
447.51	5628.99
447.69	5624.31
447.88	5614.95
448.06	5701.54
448.25	5502.60
448.43	5743.67
448.62	5643.03
448.80	5738.99
448.99	5699.20
449.17	5888.79
449.36	5654.73
449.54	5912.19
449.73	5832.62
449.91	5984.75
450.10	5928.58
450.28	5954.32
450.46	6054.97
450.65	5987.09
450.83	5987.09
451.02	6054.97
451.20	5982.41
451.39	6069.01
451.57	6064.33
451.76	5984.75
451.94	6127.52
452.13	6136.88
452.31	6153.27
452.49	6071.35
452.68	6272.64
452.86	6153.27
453.05	6434.13
453.23	6317.11
453.42	6286.68
453.60	6078.37
453.78	6263.27
453.97	6237.53
454.15	6377.96
454.34	6335.83
454.52	6394.34
454.70	6541.80
454.89	6340.51
455.07	6443.49
455.26	6513.71
455.44	6623.72
455.62	6569.88
455.81	6761.81
455.99	6513.71
456.17	6553.50
456.36	6661.16
456.54	6832.02
456.73	6909.26
456.91	6787.55
457.09	6862.45
457.28	7005.22
457.46	7054.37
457.64	6942.03
457.83	6909.26
458.01	6958.41
458.19	7119.91
458.38	7108.21
458.56	7269.70
458.74	7021.61
458.93	6949.05
459.11	7059.06
459.29	7026.29
459.48	7157.36
459.66	7227.57
459.84	7356.30
460.03	7386.73
460.21	7260.34
460.39	7157.36
460.57	7482.69
460.76	7351.62
460.94	7295.45
461.12	7555.25
461.31	7353.96
461.49	7389.07
461.67	7358.64
461.85	7627.81
462.04	7691.00
462.22	8016.33
462.40	7602.06
462.59	7620.78
462.77	7581.00
462.95	7817.39
463.13	7688.66
463.32	7543.55
463.50	7854.84
463.68	7712.07
463.86	7756.54
464.05	7751.85
464.23	7721.43
464.41	7775.26
464.59	7691.00
464.78	7854.84
464.96	7997.61
465.14	7836.11
465.32	7728.45
465.50	7913.35
465.69	7964.84
465.87	7868.88
466.05	8009.31
466.23	8032.72
466.41	8037.40
466.60	8224.64
466.78	7950.80
466.96	8114.64
467.14	8219.96
467.32	8138.04
467.51	8072.51
467.69	7915.69
467.87	8135.70
468.05	8315.92
468.23	8198.90
468.41	8180.17
468.60	8341.67
468.78	8376.78
468.96	8362.73
469.14	8425.93
469.32	8463.38
469.50	8407.20
469.69	8510.19
469.87	8650.62
470.05	8559.34
470.23	8725.52
470.41	8608.49
470.59	8854.25
470.77	8830.84
470.95	8561.68
471.14	8856.59
471.32	8531.25
471.50	8762.97
471.68	8891.70
471.86	8924.46
472.04	8987.66
472.22	9226.39
472.40	8858.93
472.58	9266.18
472.77	8966.59
472.95	9238.09
473.13	9460.45
473.31	9247.46
473.49	9427.68
473.67	9242.78
473.85	9507.26
474.03	9694.50
474.21	9577.47
474.39	9710.88
474.57	9603.22
474.75	9923.87
474.93	9657.05
475.12	9867.70
475.30	10174.31
475.48	9816.21
475.66	9930.89
475.84	9762.37
476.02	10108.77
476.20	10200.05
476.38	10265.59
476.56	10509.01
476.74	10604.97
476.92	10223.46
477.10	10279.63
477.28	10738.38
477.46	10527.73
477.64	10534.75
477.82	10759.44
478.00	11133.93
478.18	10817.96
478.36	11117.54
478.54	11180.74
478.72	11220.53
478.90	11365.64
479.08	11403.09
479.26	11503.73
479.44	11496.71
479.62	11683.95
479.80	11808.00
479.98	11875.88
480.16	12032.69
480.34	12100.57
480.52	12056.10
480.70	12313.56
480.88	11948.43
481.06	12217.60
481.24	11962.48
481.41	12264.41
481.59	12346.33
481.77	12606.13
481.95	12636.55
482.13	12681.02
482.31	12849.54
482.49	13060.19
482.67	12823.80
482.85	13303.60
483.03	13469.78
483.21	13664.05
483.39	13523.62
483.57	13666.39
483.74	13673.41
483.92	13895.76
484.10	13603.19
484.28	13965.98
484.46	14185.99
484.64	14349.82
484.82	14284.29
485.00	14534.73
485.18	14899.85
485.35	14855.38
485.53	14853.04
485.71	14817.93
485.89	15208.80
486.07	15143.27
486.25	15133.90
486.43	15314.13
486.61	15339.87
486.78	15541.16
486.96	15604.35
487.14	15728.40
487.32	16013.95
487.50	15995.22
487.68	16222.25
487.85	15726.06
488.03	16215.23
488.21	16807.39
488.39	16606.10
488.57	16706.74
488.75	16744.19
488.92	17195.92
489.10	17153.79
489.28	17132.72
489.46	17406.56
489.64	17280.18
489.81	17923.82
489.99	17710.83
490.17	17970.63
490.35	18115.75
490.53	18197.67
490.70	18417.68
490.88	18244.48
491.06	18719.60
491.24	18541.72
491.41	18609.60
491.59	18745.35
491.77	19215.80
491.95	18979.40
492.13	19290.70
492.30	19543.47
492.48	19311.76
492.66	19386.66
492.84	19587.94
493.01	19896.89
493.19	19826.68
493.37	19843.06
493.54	20152.01
493.72	20355.64
493.90	20531.18
494.08	20320.53
494.25	20746.51
494.43	20556.93
494.61	20772.25
494.79	21034.39
494.96	21207.59
495.14	21020.35
495.32	21401.86
495.49	21380.79
495.67	21249.72
495.85	21542.29
496.02	21795.07
496.20	22052.53
496.38	21912.10
496.55	21844.22
496.73	22537.02
496.91	22522.98
497.09	22537.02
497.26	22277.22
497.44	22740.64
497.62	22724.26
497.79	23098.75
497.97	22815.54
498.14	22932.57
498.32	23037.89
498.50	23145.56
498.67	23480.25
498.85	23611.32
499.03	23688.56
499.20	23782.18
499.38	23807.93
499.56	24081.77
499.73	24409.45
499.91	24034.96
500.08	24510.09
500.26	24233.91
500.44	24409.45
500.61	24222.20
500.79	24233.91
500.97	24830.74
501.14	24893.94
501.32	24950.11
501.49	24985.22
501.67	25153.74
501.84	25233.32
502.02	25092.88
502.20	25720.15
502.37	25458.01
502.55	25364.39
502.72	25383.11
502.90	25680.36
503.07	25294.17
503.25	25591.42
503.43	25745.89
503.60	25738.87
503.78	26085.27
503.95	25956.54
504.13	26132.08
504.30	26277.19
504.48	25975.27
504.65	26551.04
504.83	26787.43
505.01	26443.37
505.18	26852.97
505.36	26897.44
505.53	26895.10
505.71	26862.33
505.88	27197.02
506.06	26712.53
506.23	27065.96
506.41	27019.14
506.58	27105.74
506.76	27300.01
506.93	27307.03
507.11	27360.86
507.28	27700.24
507.46	27777.48
507.63	28308.78
507.81	27899.19
507.98	27686.20
508.16	28044.30
508.33	28224.52
508.50	27824.29
508.68	28596.67
508.85	28332.18
509.03	28414.10
509.20	28627.09
509.38	28615.39
509.55	28844.76
509.73	28994.56
509.90	29244.99
510.08	29301.17
510.25	29057.75
510.42	29113.92
510.60	28940.72
510.77	29553.94
510.95	29954.18
511.12	29528.20
511.30	29701.40
511.47	29834.81
511.64	29514.16
511.82	29776.30
511.99	30052.48
512.17	30068.86
512.34	30108.65
512.51	30155.46
512.69	30543.99
512.86	29993.97
513.04	30658.68
513.21	30492.50
513.38	30183.55
513.56	30866.98
513.73	30555.69
513.90	30529.95
514.08	30948.90
514.25	31365.52
514.43	31110.40
514.60	31189.98
514.77	30824.86
514.95	31154.87
515.12	31365.52
515.29	31175.94
515.47	31566.81
515.64	31543.40
515.81	31578.51
515.99	31690.85
516.16	31744.69
516.33	31747.03
516.51	31929.59
516.68	32055.98
516.85	32222.16
517.03	32165.98
517.20	32414.08
517.37	32196.41
517.54	31969.38
517.72	32271.31
517.89	32428.12
518.06	32299.39
518.24	32402.38
518.41	31990.44
518.58	32552.17
518.75	32517.06
518.93	32762.82
519.10	33106.88
519.27	32900.91
519.45	33085.81
519.62	32807.29
519.79	32973.47
519.96	33507.11
520.14	33460.30
520.31	33376.04
520.48	33673.29
520.65	33467.32
520.83	34143.74
521.00	33923.72
521.17	33605.41
521.34	33582.01
521.52	33921.38
521.69	34066.50
521.86	34178.84
522.03	34265.44
522.20	34572.05
522.38	35005.05
522.55	34433.96
522.72	34174.16
522.89	34609.50
523.07	35035.48
523.24	34822.49
523.41	34553.33
523.58	34689.08
523.75	35388.90
523.92	34918.45
524.10	34822.49
524.27	35042.50
524.44	35257.83
524.61	35367.84
524.78	35225.06
524.96	35431.03
525.13	35917.86
525.30	35615.93
525.47	35400.60
525.64	35597.21
525.81	35702.53
525.98	35938.93
526.16	36009.14
526.33	35150.17
526.50	35491.88
526.67	35730.62
526.84	36329.80
527.01	35861.69
527.18	36208.09
527.36	36170.64
527.53	36299.37
527.70	36374.27
527.87	36538.10
528.04	36308.73
528.21	36416.40
528.38	36521.72
528.55	36657.47
528.72	36620.02
528.89	36664.49
529.07	36769.82
529.24	36924.29
529.41	36737.05
529.58	36884.50
529.75	36479.59
529.92	36952.38
530.09	37106.85
530.26	37057.70
530.43	37041.32
530.60	37069.40
530.77	36975.78
530.94	37294.10
531.11	36879.82
531.28	37427.51
531.46	37507.08
531.63	37614.75
531.80	37546.87
531.97	37628.79
532.14	37523.47
532.31	37769.22
532.48	37883.91
532.65	38007.96
532.82	38178.82
532.99	37813.70
533.16	37579.64
533.33	38117.96
533.50	38476.07
533.67	38302.87
533.84	38223.29
534.01	38089.88
534.18	38284.14
534.35	38457.34
534.52	38429.26
534.69	38824.81
534.86	38808.42
535.03	38913.75
535.20	38925.45
535.37	38983.96
535.54	38904.38
535.71	38983.96
535.88	38974.60
536.05	38707.78
536.22	39122.05
536.38	39075.24
536.55	39054.18
536.72	38883.32
536.89	38871.62
537.06	39201.63
537.23	40030.18
537.40	39283.55
537.57	39414.62
537.74	39423.98
537.91	39555.05
538.08	39400.58
538.25	39257.81
538.42	39552.71
538.59	39831.24
538.75	39711.87
538.92	40172.96
539.09	40030.18
539.26	39754.00
539.43	39519.95
539.60	39744.64
539.77	39812.51
539.94	40189.34
540.11	40357.86
540.28	39983.37
540.44	40395.31
540.61	39931.88
540.78	39992.73
540.95	40297.00
541.12	39852.30
541.29	40348.50
541.46	40568.51
541.62	40273.60
541.79	40526.38
541.96	40570.85
542.13	40662.13
542.30	40919.59
542.47	40507.65
542.63	40950.01
542.80	40879.80
542.97	41312.80
543.14	41415.78
543.31	41364.29
543.48	41258.96
543.64	41532.81
543.81	41851.12
543.98	41366.63
544.15	41214.49
544.32	41397.06
544.48	42110.92
544.65	41633.45
544.82	41942.40
544.99	41228.54
545.16	41670.90
545.32	41397.06
545.49	41827.71
545.66	42506.47
545.83	41610.04
546.00	41935.38
546.16	41975.17
546.33	41478.97
546.50	41722.39
546.67	42340.29
546.83	41640.47
547.00	41621.75
547.17	42277.10
547.34	42167.09
547.50	42454.98
547.67	42447.96
547.84	42356.67
548.00	42583.71
548.17	42508.81
548.34	42614.13
548.51	42440.93
548.67	42335.61
548.84	42555.62
549.01	42532.22
549.18	42408.17
549.34	43112.67
549.51	42892.66
549.68	42747.54
549.84	42815.42
550.01	43119.69
550.18	42763.93
550.34	42731.16
550.51	42831.80
550.68	43288.21
550.84	42649.24
551.01	43241.40
551.18	43049.47
551.34	42855.21
551.51	43215.65
551.68	43068.20
551.84	42878.61
552.01	43131.39
552.18	43040.11
552.34	43082.24
552.51	43473.11
552.68	43496.52
552.84	43498.86
553.01	43498.86
553.18	44151.87
553.34	43849.94
553.51	43777.38
553.67	43564.39
553.84	43587.80
554.01	43732.91
554.17	43629.93
554.34	43945.90
554.51	43562.05
554.67	43966.96
554.84	44315.70
555.00	44219.74
555.17	43477.79
555.33	43997.39
555.50	43847.60
555.67	44030.16
555.83	43763.34
556.00	44083.99
556.16	44722.96
556.33	44306.34
556.50	44053.56
556.66	44589.55
556.83	43592.48
556.99	44549.76
557.16	44514.65
557.32	44215.06
557.49	44821.26
557.65	44025.48
557.82	44137.82
557.98	44657.42
558.15	44402.30
558.32	44491.24
558.48	44467.84
558.65	44886.79
558.81	44329.75
558.98	44575.50
559.14	44201.02
559.31	44694.87
559.47	44479.54
559.64	45081.06
559.80	44748.70
559.97	44790.83
560.13	44175.27
560.30	44954.67
560.46	45127.87
560.63	44626.99
560.79	45118.51
560.96	44928.92
561.12	45184.04
561.29	44779.13
561.45	45006.16
561.61	44851.69
561.78	44804.88
561.94	45022.54
562.11	44718.28
562.27	44797.85
562.44	44800.19
562.60	45331.50
562.77	44966.37
562.93	45607.68
563.10	45544.48
563.26	45404.05
563.42	45509.38
563.59	45155.96
563.75	45003.82
563.92	44952.33
564.08	45350.22
564.24	45368.94
564.41	45191.06
564.57	45483.63
564.74	45462.57
564.90	45350.22
565.07	45052.97
565.23	44952.33
565.39	45511.72
565.56	45294.05
565.72	45523.42
565.88	45680.24
566.05	45441.50
566.21	45345.54
566.38	45551.51
566.54	45591.30
566.70	45497.67
566.87	45710.66
567.03	45600.66
567.19	45645.13
567.36	45588.95
567.52	45645.13
567.68	45514.06
567.85	45970.46
568.01	45844.07
568.17	45736.41
568.34	45684.92
568.50	45783.22
568.66	45504.70
568.83	46106.21
568.99	46103.87
569.15	45874.50
569.32	45818.33
569.48	45701.30
569.64	45991.53
569.81	45907.27
569.97	46124.94
570.13	46571.98
570.30	45787.90
570.46	45827.69
570.62	46438.57
570.78	45734.07
570.95	45951.74
571.11	45993.87
571.27	45869.82
571.43	45783.22
571.60	45916.63
571.76	45776.20
571.92	46043.02
572.09	46043.02
572.25	45808.96
572.41	46054.72
572.57	46129.62
572.74	46504.10
572.90	46134.30
573.06	46089.83
573.22	46342.61
573.38	46340.27
573.55	46038.34
573.71	46199.83
573.87	46342.61
574.03	46188.13
574.20	46492.40
574.36	46155.36
574.52	46424.53
574.68	46426.87
574.84	46700.71
575.01	46424.53
575.17	46813.05
575.33	46220.90
575.49	46361.33
575.65	46731.14
575.82	46141.32
575.98	46169.41
576.14	46597.73
576.30	46731.14
576.46	46253.67
576.62	46389.42
576.79	46520.49
576.95	46115.58
577.11	46440.91
577.27	46321.54
577.43	46007.91
577.59	46422.19
577.75	46047.70
577.92	46169.41
578.08	45729.39
578.24	46375.37
578.40	46309.84
578.56	46878.59
578.72	46380.06
578.88	46438.57
579.04	46920.72
579.21	45832.37
579.37	46426.87
579.53	46469.00
579.69	46401.12
579.85	46188.13
580.01	46256.01
580.17	46672.62
580.33	46485.38
580.49	46274.73
580.65	46665.60
580.82	46672.62
580.98	46323.88
581.14	46564.96
581.30	46574.32
581.46	46440.91
581.62	46611.77
581.78	46527.51
581.94	46206.86
582.10	46340.27
582.26	46714.75
582.42	46621.13
582.58	46646.88
582.74	46674.96
582.90	46408.14
583.06	46906.68
583.22	46941.78
583.38	46827.10
583.54	46487.72
583.70	46618.79
583.86	47049.45
584.02	46824.76
584.18	47349.04
584.34	46768.58
584.50	47119.66
584.66	47000.30
584.82	46904.34
584.98	46958.17
585.14	46937.10
585.30	46628.15
585.46	46756.88
585.62	46518.15
585.78	46660.92
585.94	46387.08
586.10	46642.20
586.26	46726.46
586.42	46742.84
586.58	46747.52
586.74	46642.20
586.90	46403.46
587.06	46590.70
587.22	46836.46
587.38	46234.94
587.54	47150.09
587.70	47004.98
587.86	46852.84
588.02	46347.29
588.18	46845.82
588.34	46677.30
588.49	46834.12
588.65	46476.02
588.81	47026.04
588.97	47026.04
589.13	46993.28
589.29	46831.78
589.45	47421.59
589.61	47105.62
589.77	47426.28
589.93	47030.72
590.08	47096.26
590.24	47271.80
590.40	47332.65
590.56	47019.02
590.72	47157.11
590.88	47026.04
591.04	47271.80
591.20	47316.27
591.35	47339.68
591.51	47590.11
591.67	47398.19
591.83	47454.36
591.99	46918.38
592.15	47187.54
592.31	47388.83
592.46	47484.79
592.62	47150.09
592.78	47271.80
592.94	47140.73
593.10	47412.23
593.26	47597.13
593.41	47309.25
593.57	47746.93
593.73	47349.04
593.89	47796.08
594.05	47739.91
594.20	47213.29
594.36	47445.00
594.52	47557.35
594.68	47402.87
594.84	47105.62
594.99	47739.91
595.15	47459.04
595.31	47538.62
595.47	47206.26
595.62	47587.77
595.78	47725.86
595.94	47384.15
596.10	47173.50
596.25	47470.75
596.41	47772.67
596.57	46967.53
596.73	47859.27
596.88	47393.51
597.04	47615.86
597.20	48109.71
597.36	47681.39
597.51	47833.53
597.67	46897.31
597.83	47323.29
597.99	47487.13
598.14	47224.99
598.30	47508.19
598.46	47606.50
598.61	47770.33
598.77	47402.87
598.93	48011.41
599.09	47536.28
599.24	48252.48
599.40	47529.26
599.56	47426.28
599.71	47765.65
599.87	48156.52
600.03	48128.44
600.18	47599.47
600.34	47482.45
600.50	47482.45
600.65	47742.25
600.81	47943.53
600.97	47810.12
601.12	47737.57
601.28	47791.40
601.44	47625.22
601.59	47870.98
601.75	47274.14
601.91	47707.14
602.06	47875.66
602.22	47739.91
602.37	47295.21
602.53	47524.58
602.69	47767.99
602.84	47150.09
603.00	47590.11
603.16	47627.56
603.31	47538.62
603.47	47966.94
603.62	47861.61
603.78	48011.41
603.94	47859.27
604.09	47482.45
604.25	47980.98
604.40	47318.61
604.56	47517.56
604.71	47681.39
604.87	47709.48
605.03	47337.33
605.18	47182.86
605.34	47924.81
605.49	47409.89
605.65	47571.39
605.80	47334.99
605.96	47562.03
606.12	47461.38
606.27	47557.35
606.43	47442.66
606.58	47805.44
606.74	47779.70
606.89	47697.78
607.05	47707.14
607.20	47316.27
607.36	47515.22
607.51	47437.98
607.67	47555.00
607.82	47594.79
607.98	47395.85
608.13	47737.57
608.29	47178.18
608.44	47239.03
608.60	47285.84
608.75	47758.63
608.91	47327.97
609.06	46967.53
609.22	47611.18
609.37	47122.01
609.53	47433.30
609.68	47400.53
609.84	47105.62
609.99	47393.51
610.15	47501.17
610.30	47405.21
610.46	47098.60
610.61	47332.65
610.76	47262.44
610.92	46878.59
611.07	47395.85
611.23	47037.75
611.38	47360.74
611.54	47278.82
611.69	47356.06
611.84	46838.80
612.00	47131.37
612.15	46703.05
612.31	47536.28
612.46	46873.91
612.62	47543.30
612.77	47241.37
612.92	47206.26
613.08	47037.75
613.23	46899.65
613.39	47342.02
613.54	47058.81
613.69	47494.15
613.85	46953.49
614.00	46838.80
614.15	47040.09
614.31	46443.25
614.46	46745.18
614.62	46677.30
614.77	46904.34
614.92	46827.10
615.08	46560.28
615.23	46820.08
615.38	47124.35
615.54	46911.36
615.69	47012.00
615.84	46707.73
616.00	47526.92
616.15	46749.86
616.30	46995.62
616.46	46649.22
616.61	46637.51
616.76	47168.82
616.92	46600.07
617.07	46990.94
617.22	46726.46
617.37	46050.04
617.53	47063.49
617.68	46576.66
617.83	46440.91
617.99	47004.98
618.14	46499.42
618.29	46092.17
618.45	46476.02
618.60	46344.95
618.75	46288.77
618.90	46092.17
619.06	46218.56
619.21	46307.50
619.36	46897.31
619.51	46356.65
619.67	46211.54
619.82	46347.29
619.97	46761.56
620.12	46078.13
620.28	46342.61
620.43	46494.74
620.58	46623.47
620.73	46801.35
620.89	46373.03
621.04	46700.71
621.19	46209.20
621.34	46328.56
621.49	46337.93
621.65	45787.90
621.80	46209.20
621.95	46251.33
622.10	46281.75
622.25	45741.09
622.41	45804.28
622.56	45940.04
622.71	45790.24
622.86	46272.39
623.01	46492.40
623.16	45928.33
623.32	45614.70
623.47	45933.01
623.62	45659.17
623.77	45935.35
623.92	45865.14
624.07	45794.92
624.23	45731.73
624.38	45705.98
624.53	45603.00
624.68	45607.68
624.83	45933.01
624.98	45610.02
625.13	45439.16
625.29	45162.98
625.44	45823.01
625.59	45558.53
625.74	45659.17
625.89	45570.23
626.04	45617.04
626.19	45722.37
626.34	45368.94
626.49	45008.50
626.65	44905.52
626.80	45090.42
626.95	45144.25
627.10	45392.35
627.25	45399.37
627.40	45130.21
627.55	45282.34
627.70	45287.03
627.85	45308.09
628.00	45331.50
628.15	45345.54
628.30	44779.13
628.45	44402.30
628.60	44687.85
628.76	44830.62
628.91	44912.54
629.06	44477.20
629.21	44832.96
629.36	44659.76
629.51	44811.90
629.66	45015.52
629.81	44940.63
629.96	45137.23
630.11	45048.29
630.26	44526.35
630.41	44762.75
630.56	44891.48
630.71	44575.50
630.86	44816.58
631.01	44186.97
631.16	44636.36
631.31	44357.83
631.46	44460.82
631.61	44626.99
631.76	44648.06
631.91	44498.26
632.06	45088.08
632.21	44699.55
632.36	45202.77
632.51	44369.54
632.66	44135.48
632.81	44135.48
632.96	44524.01
633.10	44250.17
633.25	44545.08
633.40	44252.51
633.55	44584.86
633.70	44247.83
633.85	44390.60
634.00	43959.94
634.15	44074.63
634.30	43981.01
634.45	43828.87
634.60	44172.93
634.75	44376.56
634.90	44292.30
635.05	44198.68
635.19	44282.94
635.34	43966.96
635.49	44030.16
635.64	44133.14
635.79	44018.46
635.94	44002.07
636.09	43723.55
636.24	43938.88
636.39	43915.47
636.53	43978.67
636.68	43351.40
636.83	43599.50
636.98	43543.33
637.13	43445.02
637.28	43688.44
637.43	43562.05
637.57	44034.84
637.72	43498.86
637.87	43512.90
638.02	43920.15
638.17	43540.99
638.32	43295.23
638.46	43419.28
638.61	43641.63
638.76	43442.68
638.91	43459.07
639.06	43414.60
639.20	42813.08
639.35	43103.31
639.50	43220.33
639.65	43452.05
639.80	43400.55
639.94	43255.44
640.09	43210.97
640.24	43746.95
640.39	42944.15
640.54	42740.52
640.68	43274.16
640.83	43400.55
640.98	42836.48
641.13	42836.48
641.27	43342.04
641.42	42859.89
641.57	42895.00
641.72	43391.19
641.86	42789.67
642.01	42824.78
642.16	42560.30
642.31	42745.20
642.45	43225.01
642.60	42117.94
642.75	42586.05
642.90	42895.00
643.04	42581.37
643.19	42501.79
643.34	42536.90
643.48	42178.79
643.63	42148.37
643.78	42279.44
643.93	43056.50
644.07	42691.37
644.22	42410.51
644.37	42279.44
644.51	42658.60
644.66	42607.11
644.81	42754.57
644.95	42476.04
645.10	42211.56
645.25	42497.11
645.39	42370.72
645.54	42094.53
645.69	42272.42
645.83	42019.64
645.98	42094.53
646.13	42288.80
646.27	41935.38
646.42	41816.01
646.57	42258.37
646.71	42726.48
646.86	42347.31
647.00	42387.10
647.15	42038.36
647.30	41996.23
647.44	42328.59
647.59	41762.18
647.74	41331.52
647.88	42115.60
648.03	41989.21
648.17	42408.17
648.32	41984.53
648.47	42349.65
648.61	41904.95
648.76	42162.41
648.90	41813.67
649.05	41804.31
649.20	41771.54
649.34	41986.87
649.49	41741.11
649.63	41926.02
649.78	41741.11
649.92	42150.71
650.07	42417.53
650.21	41773.88
650.36	41954.10
650.51	41556.21
650.65	41544.51
650.80	41752.82
650.94	41694.30
651.09	41273.01
651.23	41368.97
651.38	41221.52
651.52	41109.17
651.67	41111.51
651.81	41493.02
651.96	41076.40
652.10	40994.48
652.25	41418.12
652.39	41179.39
652.54	41642.81
652.68	41076.40
652.83	41256.62
652.97	41457.91
653.12	41223.86
653.26	40568.51
653.41	40973.42
653.55	40877.46
653.70	41383.01
653.84	41298.75
653.99	40840.01
654.13	41202.79
654.27	40725.32
654.42	40992.14
654.56	40217.43
654.71	41106.83
654.85	41027.25
655.00	40793.20
655.14	40657.45
655.29	41043.63
655.43	41289.39
655.57	40423.39
655.72	40687.87
655.86	40369.56
656.01	40479.57
656.15	40421.05
656.30	40746.39
656.44	40556.80
656.58	40741.71
656.73	40542.76
656.87	40189.34
657.01	40240.83
657.16	40360.20
657.30	40189.34
657.45	40364.88
657.59	40189.34
657.73	39807.83
657.88	40449.14
658.02	40765.11
658.16	40402.33
658.31	40414.03
658.45	40289.98
658.60	39913.16
658.74	40093.38
658.88	39969.33
659.03	39812.51
659.17	40020.82
659.31	39590.16
659.46	39484.84
659.60	40027.84
659.74	39367.81
659.89	39372.49
660.03	39330.36
660.17	39620.59
660.32	39337.38
660.46	39440.37
660.60	39056.52
660.74	39548.03
660.89	39615.91
661.03	38876.30
661.17	39103.33
661.32	39243.76
661.46	39009.71
661.60	39189.93
661.74	38873.96
661.89	38625.86
662.03	39419.30
662.17	38960.56
662.31	38752.25
662.46	38602.46
662.60	38541.60
662.74	38080.52
662.88	38277.12
663.03	37912.00
663.17	38520.54
663.31	38557.99
663.45	38274.78
663.60	38902.04
663.74	38703.10
663.88	38443.30
664.02	38258.40
664.17	38300.53
664.31	38234.99
664.45	37989.24
664.59	38370.74
664.73	38106.26
664.88	37848.80
665.02	37635.81
665.16	37661.56
665.30	37673.26
665.44	37240.26
665.59	37446.23
665.73	37937.74
665.87	37254.31
666.01	37518.79
666.15	37621.77
666.29	37612.41
666.44	37621.77
666.58	36921.95
666.72	36638.75
666.86	37038.98
667.00	36945.36
667.14	37123.24
667.28	37200.47
667.43	36966.42
667.57	37083.45
667.71	37448.57
667.85	37116.22
667.99	36627.04
668.13	36884.50
668.27	36402.35
668.41	36587.25
668.56	35931.90
668.70	36222.13
668.84	36271.28
668.98	36161.28
669.12	36210.43
669.26	36327.45
669.40	35763.39
669.54	36226.81
669.68	35948.29
669.82	35751.68
669.96	35555.08
670.10	35573.80
670.25	35557.42
670.39	35885.09
670.53	35541.03
670.67	35302.30
670.81	35744.66
670.95	35433.37
671.09	35466.14
671.23	35077.61
671.37	35304.64
671.51	35232.08
671.65	35091.65
671.79	35075.27
671.93	34775.68
672.07	35117.40
672.21	34820.15
672.35	34609.50
672.49	34740.57
672.63	34888.03
672.77	34375.45
672.91	34925.47
673.05	34108.63
673.19	34036.07
673.33	34338.00
673.47	33928.41
673.61	34389.49
673.75	33692.01
673.89	33593.71
674.03	33816.06
674.17	33666.27
674.31	33476.68
674.45	33315.19
674.59	33572.64
674.73	33724.78
674.87	33221.56
675.01	32786.22
675.15	32980.49
675.29	32776.86
675.43	33109.22
675.56	33249.65
675.70	32776.86
675.84	32837.72
675.98	31838.31
676.12	32531.11
676.26	32746.44
676.40	32465.57
676.54	32336.84
676.68	32313.44
676.82	32023.21
676.96	31936.61
677.10	32481.95
677.23	31681.49
677.37	32067.68
677.51	31519.99
677.65	31550.42
677.79	31559.78
677.93	31997.46
678.07	31732.98
678.21	31035.50
678.34	31105.72
678.48	31028.48
678.62	31103.38
678.76	30581.44
678.90	30717.19
679.04	31117.42
679.18	30829.54
679.31	30370.79
679.45	30045.46
679.59	30361.43
679.73	30356.75
679.87	30197.59
680.00	30265.47
680.14	29745.87
680.28	30113.33
680.42	29926.09
680.56	29820.77
680.70	29479.05
680.83	29633.52
680.97	29359.68
681.11	29469.69
681.25	29469.69
681.39	28711.35
681.52	28765.18
681.66	28507.72
681.80	28613.05
681.94	28212.82
682.07	28430.49
682.21	28048.98
682.35	28231.54
682.49	28041.96
682.62	28180.05
682.76	27941.32
682.90	28166.01
683.04	28044.30
683.17	27768.12
683.31	27630.02
683.45	27618.32
683.59	27395.97
683.72	27454.48
683.86	27447.46
684.00	27304.69
684.13	27264.90
684.27	27040.21
684.41	26679.77
684.55	26572.10
684.68	27030.85
684.82	26286.56
684.96	26579.12
685.09	26548.70
685.23	26586.15
685.37	26703.17
685.50	26260.81
685.64	26171.87
685.78	26192.94
685.91	25956.54
686.05	25525.88
686.19	25266.08
686.32	25668.66
686.46	24980.54
686.60	25357.36
686.73	25359.70
686.87	25355.02
687.01	25095.22
687.14	25357.36
687.28	24954.79
687.42	25102.25
687.55	24805.00
687.69	25184.16
687.82	24826.06
687.96	24627.12
688.10	24657.54
688.23	24336.89
688.37	24496.05
688.50	24987.56
688.64	24187.10
688.78	23995.17
688.91	23611.32
689.05	24240.93
689.18	23393.65
689.32	23517.70
689.46	23173.64
689.59	23283.65
689.73	23632.39
689.86	23152.58
690.00	23456.85
690.13	23126.83
690.27	23061.30
690.41	22906.82
690.54	22829.59
690.68	22457.44
690.81	22469.14
690.95	22733.62
691.08	22342.75
691.22	22274.88
691.35	22223.39
691.49	22665.75
691.62	22052.53
691.76	22094.66
691.89	21722.51
692.03	21502.50
692.16	21734.21
692.30	21528.25
692.43	21521.23
692.57	21247.38
692.70	21226.32
692.84	21284.83
692.97	20884.60
693.11	20938.43
693.24	20732.47
693.38	20545.22
693.51	20631.82
693.65	20353.30
693.78	20737.15
693.92	20720.76
694.05	20315.85
694.19	20435.22
694.32	20332.23
694.45	20350.96
694.59	20264.36
694.72	20144.99
694.86	19915.62
694.99	19807.95
695.13	19506.02
695.26	19538.79
695.39	19288.35
695.53	19513.05
695.66	19594.96
695.80	19262.61
695.93	19218.14
696.07	18799.18
696.20	18768.76
696.33	18523.00
696.47	18829.61
696.60	18551.09
696.73	18761.73
696.87	18663.43
697.00	18691.52
697.14	18602.58
697.27	18122.77
697.40	18253.84
697.54	18136.81
697.67	17921.48
697.80	17982.34
697.94	18127.45
698.07	17886.37
698.21	17638.28
698.34	17778.71
698.47	17228.68
698.61	17399.54
698.74	17518.91
698.87	17296.56
699.01	17404.22
699.14	16975.91
699.27	17179.53
699.40	17151.45
699.54	16844.84
699.67	17029.74
699.80	16870.58
699.94	16994.63
700.07	16528.86
700.20	16489.07
700.34	16517.16
700.47	16390.77
700.60	16802.71
700.73	16538.23
700.87	16519.50
701.00	16229.27
701.13	15913.30
701.26	15906.28
701.40	15803.30
701.53	15765.85
701.66	15716.70
701.79	15894.58
701.93	15463.92
702.06	15335.19
702.19	15314.13
702.32	15389.02
702.46	15311.78
702.59	15440.51
702.72	15246.25
702.85	15400.72
702.99	15276.68
703.12	14831.97
703.25	14366.21
703.38	14860.06
703.51	14506.64
703.65	14525.36
703.78	14295.99
703.91	14363.87
704.04	14265.57
704.17	14391.95
704.31	14085.34
704.44	14441.11
704.57	14008.11
704.70	14054.92
704.83	14019.81
704.96	13694.47
705.10	13830.23
705.23	13799.80
>>>>>End Processed Spectral Data<<<<<
