SpectraSuite Data File
++++++++++++++++++++++++++++++++++++
Date: Fri Oct 25 10:43:21 EDT 2013
User: price-jones
Dark Spectrum Present: No
Reference Spectrum Present: No
Number of Sampled Component Spectra: 1
Spectrometers: USB2+H05261
Integration Time (usec): 100000 (USB2+H05261)
Spectra Averaged: 1 (USB2+H05261)
Boxcar Smoothing: 0 (USB2+H05261)
Correct for Electrical Dark: No (USB2+H05261)
Strobe/Lamp Enabled: No (USB2+H05261)
Correct for Detector Non-linearity: No (USB2+H05261)
Correct for Stray Light: No (USB2+H05261)
Number of Pixels in Processed Spectrum: 2048
>>>>>Begin Processed Spectral Data<<<<<
365.73	91.28
365.92	91.28
366.12	91.28
366.32	0.00
366.52	0.00
366.72	39.79
366.91	0.00
367.11	105.32
367.31	0.00
367.51	23.41
367.70	0.00
367.90	65.54
368.10	0.00
368.30	58.51
368.49	53.83
368.69	117.03
368.89	88.94
369.09	0.00
369.28	49.15
369.48	70.22
369.68	84.26
369.87	114.69
370.07	121.71
370.27	152.13
370.47	215.33
370.66	407.25
370.86	346.40
371.06	409.59
371.25	503.22
371.45	468.11
371.65	440.02
371.84	428.32
372.04	376.83
372.24	465.77
372.44	500.87
372.63	550.03
372.83	491.51
373.03	486.83
373.22	437.68
373.42	498.53
373.62	505.56
373.81	613.22
374.01	624.92
374.21	540.66
374.40	613.22
374.60	561.73
374.79	587.47
374.99	575.77
375.19	582.79
375.38	535.98
375.58	557.05
375.78	599.18
375.97	557.05
376.17	660.03
376.37	613.22
376.56	718.54
376.76	521.94
376.95	603.86
377.15	620.24
377.35	681.10
377.54	629.60
377.74	674.07
377.93	610.88
378.13	629.60
378.33	636.63
378.52	741.95
378.72	681.10
378.91	592.16
379.11	638.97
379.31	650.67
379.50	688.12
379.70	702.16
379.89	727.91
380.09	641.31
380.28	763.01
380.48	741.95
380.68	699.82
380.87	702.16
381.07	681.10
381.26	692.80
381.46	704.50
381.65	667.05
381.85	660.03
382.04	692.80
382.24	744.29
382.43	725.57
382.63	676.41
382.83	678.76
383.02	753.65
383.22	674.07
383.41	713.86
383.61	667.05
383.80	723.23
384.00	755.99
384.19	809.83
384.39	847.27
384.58	746.63
384.78	816.85
384.97	737.27
385.17	805.14
385.36	858.98
385.56	814.51
385.75	770.04
385.95	784.08
386.14	856.64
386.34	826.21
386.53	863.66
386.72	851.96
386.92	936.21
387.11	891.74
387.31	847.27
387.50	856.64
387.70	828.55
387.89	922.17
388.09	870.68
388.28	908.13
388.48	915.15
388.67	896.43
388.86	950.26
389.06	910.47
389.25	973.66
389.45	997.07
389.64	931.53
389.84	978.34
390.03	966.64
390.22	1032.18
390.42	866.00
390.61	978.34
390.81	983.02
391.00	1076.65
391.19	1067.28
391.39	1036.86
391.58	1130.48
391.78	1111.75
391.97	1071.97
392.16	929.19
392.36	1071.97
392.55	1060.26
392.75	950.26
392.94	912.81
393.13	954.94
393.33	1043.88
393.52	978.34
393.71	1125.80
393.91	1137.50
394.10	1132.82
394.29	1095.37
394.49	1083.67
394.68	1174.95
394.88	1268.57
395.07	1165.59
395.26	1214.74
395.46	1191.33
395.65	1217.08
395.84	1261.55
396.04	1238.14
396.23	1111.75
396.42	1172.61
396.62	1165.59
396.81	1224.10
397.00	1144.52
397.19	1259.21
397.39	1263.89
397.58	1385.60
397.77	1413.68
397.97	1425.39
398.16	1355.17
398.35	1486.24
398.55	1432.41
398.74	1486.24
398.93	1500.28
399.12	1589.22
399.32	1516.67
399.51	1535.39
399.70	1540.07
399.90	1591.56
400.09	1563.48
400.28	1621.99
400.47	1579.86
400.67	1724.97
400.86	1554.12
401.05	1743.70
401.24	1624.33
401.44	1774.13
401.63	1699.23
401.82	1687.53
402.01	1661.78
402.21	1767.10
402.40	1797.53
402.59	1713.27
402.78	1732.00
402.97	1769.44
403.17	1715.61
403.36	1813.92
403.55	1893.49
403.74	1860.73
403.93	1987.11
404.13	1952.01
404.32	1827.96
404.51	1893.49
404.70	1902.86
404.89	1820.94
405.09	1984.77
405.28	1844.34
405.47	1893.49
405.66	2031.58
405.85	1933.28
406.05	1961.37
406.24	2017.54
406.43	2005.84
406.62	2050.31
406.81	2153.29
407.00	2150.95
407.20	2019.88
407.39	2026.90
407.58	2167.34
407.77	2183.72
407.96	2197.76
408.15	2197.76
408.34	2214.15
408.54	2305.43
408.73	2307.77
408.92	2387.35
409.11	2452.88
409.30	2335.85
409.49	2162.66
409.68	2216.49
409.87	2197.76
410.07	2305.43
410.26	2324.15
410.45	2443.52
410.64	2429.48
410.83	2480.97
411.02	2565.23
411.21	2658.85
411.40	2593.31
411.59	2583.95
411.78	2612.04
411.98	2572.25
412.17	2715.02
412.36	2719.70
412.55	2726.72
412.74	2778.22
412.93	2729.06
413.12	2850.77
413.31	2754.81
413.50	2752.47
413.69	2799.28
413.88	2979.50
414.07	3033.33
414.26	2967.80
414.45	2916.31
414.64	3030.99
414.83	2911.63
415.02	2944.39
415.22	3080.14
415.41	3192.49
415.60	3199.51
415.79	3173.77
415.98	3272.07
416.17	3112.91
416.36	3187.81
416.55	3208.87
416.74	3187.81
416.93	3220.58
417.12	3248.66
417.31	3344.63
417.50	3346.97
417.69	3435.91
417.88	3517.83
418.07	3372.71
418.26	3515.48
418.45	3506.12
418.64	3576.34
418.83	3574.00
419.02	3578.68
419.21	3634.85
419.39	3592.72
419.58	3538.89
419.77	3569.32
419.96	3557.61
420.15	3829.12
420.34	3712.09
420.53	3726.13
420.72	3929.76
420.91	3648.90
421.10	3714.43
421.29	3894.65
421.48	3815.07
421.67	3815.07
421.86	3737.84
422.05	3712.09
422.24	3840.82
422.43	3634.85
422.61	3875.93
422.80	3845.50
422.99	3896.99
423.18	3885.29
423.37	4004.66
423.56	3946.14
423.75	3819.75
423.94	3861.88
424.13	3791.67
424.32	3709.75
424.50	3948.48
424.69	3859.54
424.88	3960.19
425.07	3969.55
425.26	3936.78
425.45	3967.21
425.64	4021.04
425.83	3901.67
426.01	4030.40
426.20	4079.55
426.39	4140.41
426.58	3932.10
426.77	3964.87
426.96	3962.53
427.15	3925.08
427.33	3985.93
427.52	4016.36
427.71	4091.26
427.90	4098.28
428.09	4215.30
428.28	4262.12
428.46	4266.80
428.65	4121.68
428.84	4285.52
429.03	4304.25
429.22	4028.06
429.40	4154.45
429.59	4079.55
429.78	3960.19
429.97	3911.04
430.16	4056.15
430.34	4147.43
430.53	4201.26
430.72	4191.90
430.91	4222.33
431.10	4287.86
431.28	4568.73
431.47	4674.05
431.66	4681.07
431.85	4451.70
432.03	4702.14
432.22	4739.58
432.41	4601.49
432.60	4662.35
432.79	4683.41
432.97	4720.86
433.16	4685.75
433.35	4657.67
433.54	4538.30
433.72	4674.05
433.91	4617.88
434.10	4760.65
434.28	4807.46
434.47	4805.12
434.66	4730.22
434.85	5015.77
435.03	4952.57
435.22	4919.81
435.41	5111.73
435.59	5022.79
435.78	5156.20
435.97	5301.31
436.16	5107.05
436.34	5217.05
436.53	5109.39
436.72	5331.74
436.90	5130.45
437.09	5305.99
437.28	5238.12
437.46	5100.03
437.65	5153.86
437.84	5303.65
438.02	5256.84
438.21	5198.33
438.40	5107.05
438.58	5441.75
438.77	5476.85
438.96	5207.69
439.14	5565.79
439.33	5727.29
439.52	5528.35
439.70	5680.48
439.89	5563.45
440.08	5570.48
440.26	5593.88
440.45	5624.31
440.63	5750.70
440.82	5989.43
441.01	5966.03
441.19	5863.04
441.38	6155.61
441.57	6190.72
441.75	6244.55
441.94	6335.83
442.12	6413.07
442.31	6380.30
442.50	6450.52
442.68	6368.60
442.87	6232.85
443.05	6221.14
443.24	6333.49
443.43	6523.07
443.61	6366.26
443.80	6672.87
443.98	6319.45
444.17	6401.37
444.35	6537.12
444.54	6700.95
444.73	6616.69
444.91	6473.92
445.10	6684.57
445.28	6516.05
445.47	6429.45
445.65	6410.73
445.84	6335.83
446.02	6670.53
446.21	6457.54
446.39	6623.72
446.58	6480.94
446.77	6544.14
446.95	6569.88
447.14	6689.25
447.32	6930.33
447.51	6668.19
447.69	6574.56
447.88	6553.50
448.06	6719.68
448.25	6696.27
448.43	6703.29
448.62	6700.95
448.80	6619.04
448.99	6810.96
449.17	6892.88
449.36	6911.60
449.54	6935.01
449.73	6949.05
449.91	7117.57
450.10	7075.44
450.28	7173.74
450.46	7227.57
450.65	7218.21
450.83	7225.23
451.02	6988.84
451.20	7316.51
451.39	7232.26
451.57	7206.51
451.76	7133.95
451.94	7176.08
452.13	7382.05
452.31	7225.23
452.49	7222.89
452.68	7117.57
452.86	7094.16
453.05	7529.50
453.23	7325.88
453.42	7419.50
453.60	7243.96
453.78	7447.58
453.97	7407.80
454.15	7332.90
454.34	7382.05
454.52	7510.78
454.70	7454.61
454.89	7496.74
455.07	7534.18
455.26	7541.21
455.44	7833.77
455.62	7630.15
455.81	7833.77
455.99	7803.35
456.17	7805.69
456.36	7812.71
456.54	7985.91
456.73	8002.29
456.91	8226.98
457.09	8025.70
457.28	8138.04
457.46	8131.02
457.64	8234.00
457.83	8140.38
458.01	7913.35
458.19	8320.60
458.38	8236.35
458.56	8390.82
458.74	8224.64
458.93	8177.83
459.11	8400.18
459.29	8388.48
459.48	8379.12
459.66	8374.44
459.84	8318.26
460.03	8535.93
460.21	8578.06
460.39	8592.11
460.57	8533.59
460.76	8594.45
460.94	8585.08
461.12	8500.83
461.31	8758.28
461.49	8685.73
461.67	8856.59
461.85	8695.09
462.04	8798.07
462.22	9334.06
462.40	8828.50
462.59	8805.10
462.77	8978.30
462.95	8957.23
463.13	8940.85
463.32	8954.89
463.50	8959.57
463.68	9165.54
463.86	9135.11
464.05	8966.59
464.23	8924.46
464.41	8926.80
464.59	8814.46
464.78	9121.07
464.96	9076.60
465.14	9078.94
465.32	9219.37
465.50	9305.97
465.69	9551.73
465.87	9275.54
466.05	9193.62
466.23	9268.52
466.41	9224.05
466.60	9329.38
466.78	9207.67
466.96	9341.08
467.14	9343.42
467.32	9371.50
467.51	9467.47
467.69	9074.26
467.87	9596.20
468.05	9633.64
468.23	9261.50
468.41	9504.92
468.60	9673.43
468.78	9795.14
468.96	9617.26
469.14	9551.73
469.32	9731.95
469.50	9495.55
469.69	9762.37
469.87	9872.38
470.05	9886.42
470.23	9879.40
470.41	9745.99
470.59	9914.51
470.77	9916.85
470.95	9951.96
471.14	10139.20
471.32	9905.15
471.50	10122.82
471.68	10216.44
471.86	10267.93
472.04	10420.06
472.22	10752.42
472.40	10286.65
472.58	10424.75
472.77	10333.47
472.95	10686.89
473.13	10871.79
473.31	10417.72
473.49	10284.31
473.67	10677.52
473.85	10743.06
474.03	10925.62
474.21	11122.23
474.39	11094.14
474.57	10970.09
474.75	11164.36
474.93	11314.15
475.12	11173.72
475.30	11489.69
475.48	11248.61
475.66	11400.75
475.84	11257.98
476.02	11417.13
476.20	11520.12
476.38	11431.18
476.56	11793.96
476.74	11723.74
476.92	11969.50
477.10	11920.35
477.28	12056.10
477.46	12028.01
477.64	12336.96
477.82	12458.67
478.00	12491.44
478.18	12643.57
478.36	12437.61
478.54	12622.51
478.72	12594.42
478.90	12954.87
479.08	13057.85
479.26	12999.34
479.44	13291.90
479.62	13228.71
479.80	13102.32
479.98	13345.73
480.16	13832.57
480.34	13528.30
480.52	13642.98
480.70	13603.19
480.88	13748.31
481.06	13706.18
481.24	14036.19
481.41	14281.95
481.59	14225.78
481.77	14373.23
481.95	14368.55
482.13	14513.66
482.31	14581.54
482.49	14888.15
482.67	14946.66
482.85	15133.90
483.03	15349.23
483.21	15307.10
483.39	15367.96
483.57	15344.55
483.74	15400.72
483.92	15557.54
484.10	15384.34
484.28	15854.79
484.46	16093.52
484.64	16599.08
484.82	16051.39
485.00	16491.41
485.18	16475.03
485.35	16212.89
485.53	16002.24
485.71	16222.25
485.89	16250.34
486.07	16315.87
486.25	16746.53
486.43	16945.48
486.61	17249.75
486.78	17118.68
486.96	17460.40
487.14	17813.82
487.32	17521.25
487.50	17902.76
487.68	18080.64
487.85	18434.06
488.03	18274.90
488.21	18530.02
488.39	18373.21
488.57	18677.48
488.75	18782.80
488.92	19042.60
489.10	19133.88
489.28	19400.70
489.46	19653.48
489.64	19796.25
489.81	20070.09
489.99	20357.98
490.17	20290.10
490.35	20173.08
490.53	20596.71
490.70	20119.24
490.88	20472.67
491.06	20865.88
491.24	20802.68
491.41	20594.37
491.59	20699.70
491.77	20634.16
491.95	21158.44
492.13	21333.98
492.30	21411.22
492.48	21750.60
492.66	21607.83
492.84	22017.42
493.01	21972.95
493.19	21879.33
493.37	22466.80
493.54	22127.42
493.72	22494.89
493.90	22824.90
494.08	22717.24
494.25	23035.55
494.43	23250.88
494.61	23393.65
494.79	23414.72
494.96	23318.76
495.14	23515.36
495.32	23601.96
495.49	23723.67
495.67	24030.28
495.85	24088.79
496.02	24198.80
496.20	24151.99
496.38	24900.96
496.55	24519.45
496.73	24950.11
496.91	24912.66
497.09	24755.85
497.26	25118.63
497.44	25041.39
497.62	25015.65
497.79	25663.97
497.97	25404.17
498.14	25546.95
498.32	25483.75
498.50	25685.04
498.67	26068.89
498.85	25958.88
499.03	25965.90
499.20	26139.10
499.38	26228.04
499.56	25902.71
499.73	26225.70
499.91	26345.07
500.08	26717.22
500.26	26305.28
500.44	26464.44
500.61	27005.10
500.79	26878.71
500.97	26958.29
501.14	27152.55
501.32	27211.07
501.49	26918.50
501.67	27182.98
501.84	27468.53
502.02	27358.52
502.20	27630.02
502.37	27906.21
502.55	27370.22
502.72	27948.34
502.90	28247.93
503.07	28086.43
503.25	27812.59
503.43	28481.98
503.60	27971.74
503.78	27878.12
503.95	28187.07
504.13	28788.59
504.30	28229.20
504.48	28924.34
504.65	28680.92
504.83	29046.05
505.01	28905.62
505.18	28910.30
505.36	29378.40
505.53	29383.09
505.71	29961.20
505.88	29867.58
506.06	29577.35
506.23	29722.46
506.41	29362.02
506.58	29991.62
506.76	29888.64
506.93	30000.99
507.11	29914.39
507.28	30153.12
507.46	29661.61
507.63	29900.34
507.81	30335.68
507.98	29830.13
508.16	30174.19
508.33	30445.69
508.50	30740.60
508.68	30792.09
508.85	31370.20
509.03	30841.24
509.20	31108.06
509.38	31316.37
509.55	31250.83
509.73	31395.95
509.90	31264.88
510.08	31463.82
510.25	31983.42
510.42	31615.96
510.60	31672.13
510.77	31941.29
510.95	32259.60
511.12	31927.25
511.30	32229.18
511.47	32320.46
511.64	32559.19
511.82	32308.76
511.99	32311.10
512.17	32472.59
512.34	32549.83
512.51	32465.57
512.69	32711.33
512.86	32507.70
513.04	32804.95
513.21	32800.27
513.38	32748.78
513.56	32676.22
513.73	32797.93
513.90	32826.01
514.08	32851.76
514.25	33118.58
514.43	32966.45
514.60	33270.72
514.77	32994.53
514.95	33486.04
515.12	33628.82
515.29	33598.39
515.47	33872.23
515.64	33837.12
515.81	33785.63
515.99	33551.58
516.16	33490.73
516.33	33614.77
516.51	33544.56
516.68	33046.02
516.85	33481.36
517.03	33549.24
517.20	33933.09
517.37	34155.44
517.54	34604.82
517.72	34352.04
517.89	33720.10
518.06	33813.72
518.24	34117.99
518.41	34256.08
518.58	34536.94
518.75	34230.33
518.93	34440.98
519.10	34728.87
519.27	35101.01
519.45	34799.08
519.62	35332.73
519.79	35257.83
519.96	35466.14
520.14	35416.99
520.31	35103.35
520.48	35353.79
520.65	35370.18
520.83	35761.05
521.00	35779.77
521.17	35398.26
521.34	35981.06
521.52	36002.12
521.69	36116.81
521.86	36048.93
522.03	36184.68
522.20	36327.45
522.38	36442.14
522.55	36573.21
522.72	36580.23
522.89	36285.33
523.07	36421.08
523.24	36465.55
523.41	36715.98
523.58	36730.03
523.75	37434.53
523.92	36985.15
524.10	37214.52
524.27	37092.81
524.44	37261.33
524.61	37322.18
524.78	37486.02
524.96	37631.13
525.13	37354.95
525.30	37904.98
525.47	37642.84
525.64	37703.69
525.81	37631.13
525.98	37322.18
526.16	37455.59
526.33	37282.39
526.50	37493.04
526.67	37373.67
526.84	37422.83
527.01	37193.45
527.18	37944.76
527.36	37897.95
527.53	37710.71
527.70	38246.69
527.87	38288.82
528.04	38529.90
528.21	38291.16
528.38	38719.48
528.55	38419.89
528.72	38719.48
528.89	39096.31
529.07	38696.08
529.24	38712.46
529.41	38698.42
529.58	38569.69
529.75	38775.66
529.92	39070.56
530.09	39084.61
530.26	39112.69
530.43	38930.13
530.60	38541.60
530.77	39222.70
530.94	39697.83
531.11	39232.06
531.28	39328.02
531.46	39524.63
531.63	39456.75
531.80	39386.54
531.97	39559.73
532.14	39634.63
532.31	39208.65
532.48	39655.70
532.65	39627.61
532.82	39159.50
532.99	39594.84
533.16	39821.87
533.33	40076.99
533.50	39608.89
533.67	39859.32
533.84	39772.72
534.01	40140.19
534.18	40046.57
534.35	40229.13
534.52	40261.90
534.69	40374.24
534.86	40886.82
535.03	40210.40
535.20	40432.75
535.37	40690.21
535.54	41055.34
535.71	40818.94
535.88	40741.71
536.05	40664.47
536.22	40811.92
536.38	40559.14
536.55	40772.13
536.72	40231.47
536.89	40297.00
537.06	40587.23
537.23	40680.85
537.40	41102.15
537.57	40917.25
537.74	40877.46
537.91	41486.00
538.08	41095.13
538.25	41291.73
538.42	40989.80
538.59	41406.42
538.75	40971.08
538.92	41373.65
539.09	41474.29
539.26	41385.35
539.43	41022.57
539.60	41249.60
539.77	41134.92
539.94	41181.73
540.11	41317.48
540.28	41715.37
540.44	41406.42
540.61	41780.90
540.78	41315.14
540.95	41689.62
541.12	41586.64
541.29	41766.86
541.46	41434.50
541.62	41909.63
541.79	42000.91
541.96	41263.64
542.13	41511.74
542.30	41839.42
542.47	41930.70
542.63	41830.05
542.80	41766.86
542.97	42258.37
543.14	42436.25
543.31	42366.04
543.48	42518.17
543.64	42848.19
543.81	42848.19
543.98	42803.72
544.15	42651.58
544.32	42429.23
544.48	43044.79
544.65	42953.51
544.82	43122.03
544.99	42873.93
545.16	42939.47
545.32	42504.13
545.49	42995.64
545.66	43323.32
545.83	43295.23
546.00	43164.16
546.16	43147.78
546.33	42749.88
546.50	42937.13
546.67	43323.32
546.83	42171.77
547.00	43133.73
547.17	42897.34
547.34	43196.93
547.50	43054.15
547.67	43351.40
547.84	42920.74
548.00	43782.06
548.17	43775.04
548.34	43054.15
548.51	43950.58
548.67	43683.76
548.84	43494.18
549.01	43430.98
549.18	43192.25
549.34	43604.18
549.51	43569.07
549.68	44123.78
549.84	43487.15
550.01	44074.63
550.18	43674.40
550.34	43966.96
550.51	44023.14
550.68	43784.40
550.84	42923.08
551.01	43894.41
551.18	44055.90
551.34	43840.57
551.51	44322.72
551.68	44135.48
551.84	44315.70
552.01	43875.68
552.18	44023.14
552.34	44032.50
552.51	44240.81
552.68	44350.81
552.84	44374.22
553.01	44830.62
553.18	43803.13
553.34	44601.25
553.51	44287.62
553.67	44353.15
553.84	44605.93
554.01	44765.09
554.17	44921.90
554.34	44753.38
554.51	44697.21
554.67	44594.23
554.84	44399.96
555.00	44271.23
555.17	44638.70
555.33	44893.82
555.50	44554.44
555.67	44395.28
555.83	44690.19
556.00	44739.34
556.16	44917.22
556.33	44725.30
556.50	44704.23
556.66	44762.75
556.83	44257.19
556.99	44425.71
557.16	44493.58
557.32	44683.17
557.49	44903.18
557.65	44538.05
557.82	44858.71
557.98	45059.99
558.15	44917.22
558.32	44987.44
558.48	44907.86
558.65	44479.54
558.81	44959.35
558.98	44786.15
559.14	45352.56
559.31	44903.18
559.47	45088.08
559.64	45092.76
559.80	45340.86
559.97	45052.97
560.13	45055.31
560.30	45193.40
560.46	45064.67
560.63	45113.83
560.79	45191.06
560.96	45483.63
561.12	45397.03
561.29	44641.04
561.45	45130.21
561.61	45184.04
561.78	45284.68
561.94	45029.57
562.11	45626.40
562.27	45418.10
562.44	45139.57
562.60	45315.11
562.77	45766.84
562.93	45354.90
563.10	45647.47
563.26	45006.16
563.42	45635.77
563.59	45165.32
563.75	45525.76
563.92	45668.53
564.08	45546.82
564.24	45888.54
564.41	45291.71
564.57	45336.18
564.74	45333.84
564.90	45361.92
565.07	45429.80
565.23	45277.66
565.39	45551.51
565.56	45453.20
565.72	45144.25
565.88	45614.70
566.05	45008.50
566.21	45200.43
566.38	45619.38
566.54	45481.29
566.70	45998.55
566.87	45928.33
567.03	46071.10
567.19	46033.66
567.36	46089.83
567.52	45888.54
567.68	45776.20
567.85	45705.98
568.01	46227.92
568.17	45591.30
568.34	45673.21
568.50	45361.92
568.66	45483.63
568.83	45579.59
568.99	45654.49
569.15	45801.94
569.32	45820.67
569.48	45385.33
569.64	45743.43
569.81	46031.32
569.97	45741.09
570.13	45879.18
570.30	45113.83
570.46	45436.82
570.62	45621.72
570.78	45291.71
570.95	44989.78
571.11	45944.72
571.27	45249.58
571.43	45860.46
571.60	45354.90
571.76	45385.33
571.92	46059.40
572.09	45532.78
572.25	45925.99
572.41	45869.82
572.57	45549.17
572.74	46483.04
572.90	45722.37
573.06	46279.41
573.22	45986.85
573.38	45937.69
573.55	45982.16
573.71	46192.81
573.87	46092.17
574.03	45577.25
574.20	46054.72
574.36	45937.69
574.52	45808.96
574.68	45661.51
574.84	45855.78
575.01	45930.67
575.17	45687.26
575.33	45607.68
575.49	46108.55
575.65	46057.06
575.82	46260.69
575.98	46167.07
576.14	45888.54
576.30	45951.74
576.46	45755.13
576.62	45715.34
576.79	45570.23
576.95	45387.67
577.11	45949.40
577.27	45968.12
577.43	45769.18
577.59	45577.25
577.75	45663.85
577.92	45471.93
578.08	45446.18
578.24	45588.95
578.40	45841.73
578.56	46176.43
578.72	45734.07
578.88	45963.44
579.04	45900.25
579.21	45514.06
579.37	45626.40
579.53	46167.07
579.69	45865.14
579.85	45933.01
580.01	45605.34
580.17	45635.77
580.33	46050.04
580.49	46043.02
580.65	46157.70
580.82	46050.04
580.98	46026.63
581.14	45544.48
581.30	45914.29
581.46	46085.15
581.62	45792.58
581.78	45799.60
581.94	46248.99
582.10	46188.13
582.26	46146.00
582.42	46017.27
582.58	45961.10
582.74	45792.58
582.90	46108.55
583.06	46043.02
583.22	45956.42
583.38	46588.36
583.54	46342.61
583.70	46246.65
583.86	46124.94
584.02	45771.52
584.18	45773.86
584.34	46005.57
584.50	46134.30
584.66	46131.96
584.82	46277.07
584.98	46178.77
585.14	46106.21
585.30	45902.59
585.46	45993.87
585.62	45558.53
585.78	46094.51
585.94	45684.92
586.10	46038.34
586.26	45879.18
586.42	46309.84
586.58	46218.56
586.74	46054.72
586.90	46113.23
587.06	45930.67
587.22	45965.78
587.38	45893.22
587.54	46230.26
587.70	46398.78
587.86	46237.28
588.02	45694.28
588.18	46181.11
588.34	46000.89
588.49	45633.42
588.65	45205.11
588.81	45516.40
588.97	45736.41
589.13	45663.85
589.29	45717.68
589.45	45663.85
589.61	45619.38
589.77	45977.48
589.93	46164.73
590.08	46316.86
590.24	45830.03
590.40	46167.07
590.56	46384.74
590.72	46284.09
590.88	45595.98
591.04	46237.28
591.20	46480.70
591.35	46384.74
591.51	46644.54
591.67	46031.32
591.83	45940.04
591.99	45785.56
592.15	45799.60
592.31	46284.09
592.46	45600.66
592.62	46314.52
592.78	45925.99
592.94	46148.34
593.10	46829.44
593.26	46080.47
593.41	46281.75
593.57	46199.83
593.73	45661.51
593.89	46122.60
594.05	46246.65
594.20	46265.37
594.36	46094.51
594.52	46089.83
594.68	46389.42
594.84	46192.81
594.99	46181.11
595.15	46007.91
595.31	46288.77
595.47	45947.06
595.62	46461.97
595.78	46370.69
595.94	46740.50
596.10	46183.45
596.25	46223.24
596.41	45844.07
596.57	46185.79
596.73	46342.61
596.88	45958.76
597.04	46373.03
597.20	46387.08
597.36	45876.84
597.51	46597.73
597.67	46117.92
597.83	46281.75
597.99	46230.26
598.14	45783.22
598.30	46129.62
598.46	46499.42
598.61	46312.18
598.77	45696.62
598.93	46003.23
599.09	46532.19
599.24	46405.80
599.40	46454.95
599.56	46366.01
599.71	46157.70
599.87	46387.08
600.03	45888.54
600.18	46078.13
600.34	46223.24
600.50	46178.77
600.65	46153.02
600.81	46466.66
600.97	46323.88
601.12	46204.52
601.28	45743.43
601.44	46284.09
601.59	46295.80
601.75	46131.96
601.91	46108.55
602.06	45867.48
602.22	46241.96
602.37	46108.55
602.53	46326.22
602.69	46387.08
602.84	46012.59
603.00	45734.07
603.16	46377.72
603.31	46059.40
603.47	46220.90
603.62	45867.48
603.78	46148.34
603.94	46314.52
604.09	46368.35
604.25	45904.93
604.40	46181.11
604.56	45944.72
604.71	46705.39
604.87	46026.63
605.03	46052.38
605.18	46213.88
605.34	45942.38
605.49	45949.40
605.65	45900.25
605.80	45930.67
605.96	46087.49
606.12	46323.88
606.27	46007.91
606.43	45628.74
606.58	45586.61
606.74	45839.39
606.89	45813.65
607.05	45839.39
607.20	46183.45
607.36	46010.25
607.51	46595.38
607.67	45799.60
607.82	46017.27
607.98	45722.37
608.13	45727.05
608.29	45977.48
608.44	45521.08
608.60	45385.33
608.75	45666.19
608.91	45780.88
609.06	45907.27
609.22	45996.21
609.37	45584.27
609.53	45443.84
609.68	46195.15
609.84	45518.74
609.99	45689.60
610.15	45067.02
610.30	45668.53
610.46	45027.23
610.61	45511.72
610.76	45490.65
610.92	45820.67
611.07	45928.33
611.23	46005.57
611.38	45773.86
611.54	45310.43
611.69	45296.39
611.84	45235.53
612.00	45205.11
612.15	45059.99
612.31	45607.68
612.46	45378.31
612.62	45577.25
612.77	45336.18
612.92	45474.27
613.08	45617.04
613.23	45289.37
613.39	44531.03
613.54	44566.14
613.69	44676.15
613.85	44676.15
614.00	45275.32
614.15	44961.69
614.31	45181.70
614.46	45148.93
614.62	45172.34
614.77	44734.66
614.92	45270.64
615.08	44793.17
615.23	44957.01
615.38	44954.67
615.54	44924.24
615.69	44292.30
615.84	44573.16
616.00	44734.66
616.15	44800.19
616.30	44772.11
616.46	44673.81
616.61	44287.62
616.76	44381.24
616.92	44306.34
617.07	44603.59
617.22	44121.44
617.37	44811.90
617.53	44832.96
617.68	44708.91
617.83	44573.16
617.99	44638.70
618.14	44694.87
618.29	44421.03
618.45	44495.92
618.60	43978.67
618.75	44140.16
618.90	44275.91
619.06	44514.65
619.21	44493.58
619.36	44528.69
619.51	43985.69
619.67	44102.71
619.82	44308.68
619.97	44081.65
620.12	43856.96
620.28	43709.50
620.43	44182.29
620.58	43901.43
620.73	43976.33
620.89	43978.67
621.04	44325.07
621.19	43964.62
621.34	44130.80
621.49	43718.87
621.65	43529.28
621.80	44470.18
621.95	43894.41
622.10	43814.83
622.25	43531.62
622.41	44095.69
622.56	43466.09
622.71	44069.95
622.86	43316.29
623.01	43625.25
623.16	43885.04
623.32	43440.34
623.47	43840.57
623.62	43618.22
623.77	43377.15
623.92	44205.70
624.07	43599.50
624.23	43028.41
624.38	43241.40
624.53	43356.08
624.68	43648.65
624.83	43318.64
624.98	43379.49
625.13	43388.85
625.29	43173.52
625.44	43075.22
625.59	43445.02
625.74	42707.76
625.89	43105.65
626.04	42583.71
626.19	42747.54
626.34	43026.07
626.49	43122.03
626.65	42944.15
626.80	43065.86
626.95	42845.85
627.10	42642.22
627.25	42595.41
627.40	42490.09
627.55	42721.80
627.70	42160.07
627.85	42553.28
628.00	42595.41
628.15	42787.33
628.30	42864.57
628.45	42674.99
628.60	42380.08
628.76	42595.41
628.91	42529.87
629.06	41982.19
629.21	42045.38
629.36	42291.14
629.51	42106.24
629.66	42204.54
629.81	42183.48
629.96	42129.64
630.11	42295.82
630.26	42525.19
630.41	42384.76
630.56	41773.88
630.71	42017.30
630.86	42169.43
631.01	41853.46
631.16	42211.56
631.31	41703.67
631.46	41713.03
631.61	41918.99
631.76	41855.80
631.91	42012.62
632.06	42155.39
632.21	41813.67
632.36	41979.85
632.51	41439.18
632.66	41570.25
632.81	42122.62
632.96	41434.50
633.10	41373.65
633.25	41336.20
633.40	41769.20
633.55	41785.58
633.70	41443.87
633.85	41572.60
634.00	41837.08
634.15	41656.85
634.30	41425.14
634.45	41560.89
634.60	41453.23
634.75	41535.15
634.90	41762.18
635.05	41455.57
635.19	41483.66
635.34	41275.35
635.49	41537.49
635.64	40910.22
635.79	41165.34
635.94	41212.15
636.09	41354.93
636.24	40645.74
636.39	40748.73
636.53	41216.83
636.68	40982.78
636.83	40931.29
636.98	41111.51
637.13	40634.04
637.28	41214.49
637.43	41380.67
637.57	41151.30
637.72	40730.00
637.87	41074.06
638.02	41268.33
638.17	40964.06
638.32	40942.99
638.46	40638.72
638.61	40570.85
638.76	40175.30
638.91	40685.53
639.06	40430.41
639.20	40760.43
639.35	40751.07
639.50	40584.89
639.65	40671.49
639.80	40610.64
639.94	40659.79
640.09	40521.69
640.24	40250.19
640.39	40247.85
640.54	40418.71
640.68	40306.37
640.83	40240.83
640.98	40348.50
641.13	40051.25
641.27	40156.57
641.42	39756.34
641.57	39978.69
641.72	40254.87
641.86	39814.85
642.01	40268.92
642.16	39571.44
642.31	39667.40
642.45	40114.44
642.60	39271.85
642.75	40121.46
642.90	40212.74
643.04	40514.67
643.19	39974.01
643.34	40037.20
643.48	39592.50
643.63	39992.73
643.78	39569.10
643.93	39922.52
644.07	39505.90
644.22	39533.99
644.37	39445.05
644.51	39735.27
644.66	39597.18
644.81	39477.82
644.95	39569.10
645.10	39938.90
645.25	39770.38
645.39	39562.08
645.54	39295.25
645.69	39309.30
645.83	39056.52
645.98	38944.17
646.13	39580.80
646.27	39416.96
646.42	39098.65
646.57	39342.06
646.71	39194.61
646.86	39562.08
647.00	39086.95
647.15	39133.76
647.30	39171.21
647.44	39239.08
647.59	39030.77
647.74	38457.34
647.88	38656.29
648.03	38855.23
648.17	38583.73
648.32	38953.54
648.47	38614.16
648.61	38525.22
648.76	39299.94
648.90	38721.82
649.05	38747.57
649.20	38866.94
649.34	38955.88
649.49	38609.48
649.63	38710.12
649.78	38691.40
649.92	38721.82
650.07	38550.96
650.21	38628.20
650.36	38944.17
650.51	38834.17
650.65	38899.70
650.80	39140.78
650.94	38452.66
651.09	38689.06
651.23	38099.24
651.38	38569.69
651.52	38302.87
651.67	38368.40
651.81	38000.94
651.96	38382.45
652.10	38122.65
652.25	38197.54
652.39	38136.69
652.54	38274.78
652.68	38464.36
652.83	38146.05
652.97	38436.28
653.12	38298.19
653.26	38185.84
653.41	37949.45
653.55	37921.36
653.70	37855.82
653.84	37961.15
653.99	37823.06
654.13	38291.16
654.27	37626.45
654.42	37839.44
654.56	37909.66
654.71	38089.88
654.85	37785.61
655.00	38026.68
655.14	37586.66
655.29	37565.60
655.43	37338.57
655.57	36804.92
655.72	37160.69
655.86	37427.51
656.01	36905.57
656.15	36900.89
656.30	36861.10
656.44	37357.29
656.58	37273.03
656.73	37111.53
656.87	37373.67
657.01	37055.36
657.16	36919.61
657.30	36692.58
657.45	37020.25
657.59	36889.18
657.73	37383.04
657.88	37406.44
658.02	37099.83
658.16	37188.77
658.31	37031.96
658.45	37134.94
658.60	36694.92
658.74	37315.16
658.88	37137.28
659.03	37099.83
659.17	36383.63
659.31	37074.09
659.46	36271.28
659.60	36924.29
659.74	36910.25
659.89	36385.97
660.03	36935.99
660.17	36580.23
660.32	36591.94
660.46	36718.32
660.60	36477.25
660.74	36472.57
660.89	36425.76
661.03	36257.24
661.17	36088.72
661.32	35967.01
661.46	35840.62
661.60	35833.60
661.74	35810.20
661.89	35660.40
662.03	35990.42
662.17	35754.02
662.31	36074.68
662.46	36357.88
662.60	36474.91
662.74	35700.19
662.88	35709.55
663.03	35728.28
663.17	35494.22
663.31	35393.58
663.45	35325.71
663.60	35541.03
663.74	35108.04
663.88	35571.46
664.02	35288.26
664.17	35367.84
664.31	34873.98
664.45	35021.44
664.59	34937.18
664.73	34883.34
664.88	34738.23
665.02	34110.97
665.16	34548.65
665.30	34370.77
665.44	34539.29
665.59	34771.00
665.73	34581.42
665.87	34403.53
666.01	34658.65
666.15	34050.11
666.29	34328.64
666.44	34532.26
666.58	34410.56
666.72	34478.43
666.86	34188.21
667.00	34054.79
667.14	34174.16
667.28	34532.26
667.43	34108.63
667.57	34167.14
667.71	34110.97
667.85	34080.54
667.99	34724.19
668.13	33926.07
668.27	34209.27
668.41	34007.98
668.56	33614.77
668.70	33860.53
668.84	33422.85
668.98	33308.16
669.12	33425.19
669.26	33500.09
669.40	33062.41
669.54	33209.86
669.68	33031.98
669.82	32659.84
669.96	32882.19
670.10	32910.27
670.25	33125.60
670.39	32999.21
670.53	32933.68
670.67	32816.65
670.81	33179.43
670.95	32842.40
671.09	32514.72
671.23	32374.29
671.37	32458.55
671.51	32418.76
671.65	32093.43
671.79	31707.24
671.93	31896.82
672.07	32456.21
672.21	31592.55
672.35	31934.27
672.49	32151.94
672.63	32168.32
672.77	31707.24
672.91	31740.00
673.05	31962.36
673.19	31463.82
673.33	31531.70
673.47	31325.73
673.61	31189.98
673.75	31157.21
673.89	31068.27
674.03	31372.54
674.17	31517.65
674.31	30878.69
674.45	31667.45
674.59	31009.76
674.73	31321.05
674.87	31009.76
675.01	30925.50
675.15	30644.63
675.29	30675.06
675.43	30553.35
675.56	30738.26
675.70	30817.83
675.84	30436.33
675.98	29170.10
676.12	30228.02
676.26	30375.47
676.40	30206.95
676.54	29975.24
676.68	30143.76
676.82	29591.39
676.96	29902.68
677.10	30237.38
677.23	29376.06
677.37	29214.57
677.51	29624.16
677.65	28961.79
677.79	28814.34
677.93	28884.55
678.07	28622.41
678.21	28797.95
678.34	28601.35
678.48	28425.81
678.62	28381.34
678.76	28254.95
678.90	28467.94
679.04	28231.54
679.18	28500.70
679.31	27878.12
679.45	27831.31
679.59	28013.87
679.73	28009.19
679.87	27655.77
680.00	27328.10
680.14	27899.19
680.28	27559.81
680.42	27421.72
680.56	27229.79
680.70	27700.24
680.83	27257.88
680.97	27180.64
681.11	27220.43
681.25	27192.34
681.39	26810.84
681.52	26977.01
681.66	26895.10
681.80	26600.19
681.94	26529.97
682.07	26639.98
682.21	26242.09
682.35	26492.52
682.49	26118.04
682.62	26153.15
682.76	25935.48
682.90	25914.41
683.04	26045.48
683.17	26249.11
683.31	25476.73
683.45	25916.75
683.59	25876.96
683.72	25603.12
683.86	25001.60
684.00	25139.69
684.13	25221.61
684.27	24823.72
684.41	25198.21
684.55	24987.56
684.68	24833.08
684.82	24800.32
684.96	24702.01
685.09	24645.84
685.23	24472.64
685.37	24627.12
685.50	24367.32
685.64	24659.88
685.78	24397.74
685.91	24159.01
686.05	23758.78
686.19	23922.62
686.32	23623.03
686.46	23314.08
686.60	23178.33
686.73	23253.22
686.87	23103.43
687.01	23119.81
687.14	22785.12
687.28	22675.11
687.42	22829.59
687.55	22939.59
687.69	22965.34
687.82	22817.88
687.96	23082.36
688.10	22181.26
688.23	22572.13
688.37	22295.94
688.50	22405.95
688.64	22499.57
688.78	22309.99
688.91	22267.86
689.05	21979.97
689.18	21741.24
689.32	21509.52
689.46	22022.10
689.59	22141.47
689.73	22040.82
689.86	21645.27
690.00	21661.66
690.13	21369.09
690.27	21109.29
690.41	21242.70
690.54	21106.95
690.68	21422.92
690.81	21177.17
690.95	21043.76
691.08	21207.59
691.22	21088.23
691.35	20823.75
691.49	20851.83
691.62	21104.61
691.76	20617.78
691.89	20954.82
692.03	20460.96
692.16	20308.83
692.30	20233.93
692.43	20173.08
692.57	19779.87
692.70	20086.48
692.84	19751.78
692.97	19491.98
693.11	19875.83
693.24	19601.99
693.38	19501.34
693.51	19946.05
693.65	19527.09
693.78	19473.26
693.92	19384.32
694.05	19316.44
694.19	19269.63
694.32	19222.82
694.45	19197.07
694.59	18766.42
694.72	18717.26
694.86	18567.47
694.99	18558.11
695.13	18874.08
695.26	18593.22
695.39	18225.75
695.53	18780.46
695.66	18298.31
695.80	18223.41
695.93	18118.09
696.07	18415.34
696.20	18249.16
696.33	17811.48
696.47	18010.42
696.60	17834.88
696.73	17825.52
696.87	17928.50
697.00	17631.26
697.14	17628.92
697.27	17273.15
697.40	17376.14
697.54	17338.69
697.67	17099.95
697.80	16882.28
697.94	16879.94
698.07	16879.94
698.21	17003.99
698.34	17015.69
698.47	16966.54
698.61	16774.62
698.74	16791.00
698.87	16180.12
699.01	16718.45
699.14	16449.28
699.27	16196.51
699.40	16035.01
699.54	16194.17
699.67	16032.67
699.80	15974.16
699.94	16030.33
700.07	16023.31
700.20	15868.83
700.34	16027.99
700.47	15885.22
700.60	15768.19
700.73	15786.91
700.87	15861.81
701.00	15538.82
701.13	15290.72
701.26	15302.42
701.40	15194.76
701.53	15129.22
701.66	15023.90
701.79	14867.08
701.93	14808.57
702.06	15180.71
702.19	14871.76
702.32	14740.69
702.46	14902.19
702.59	14757.08
702.72	14609.62
702.85	14754.74
702.99	14710.27
703.12	14288.97
703.25	14148.54
703.38	14462.17
703.51	14415.36
703.65	14150.88
703.78	13834.91
703.91	14019.81
704.04	14071.30
704.17	14017.47
704.31	13736.60
704.44	13516.59
704.57	13823.20
704.70	13612.56
704.83	13624.26
704.96	13554.04
705.10	13530.64
705.23	13469.78
>>>>>End Processed Spectral Data<<<<<
