SpectraSuite Data File
++++++++++++++++++++++++++++++++++++
Date: Fri Oct 25 11:33:40 EDT 2013
User: price-jones
Dark Spectrum Present: No
Reference Spectrum Present: No
Number of Sampled Component Spectra: 1
Spectrometers: USB2+H05261
Integration Time (usec): 100000 (USB2+H05261)
Spectra Averaged: 1 (USB2+H05261)
Boxcar Smoothing: 0 (USB2+H05261)
Correct for Electrical Dark: No (USB2+H05261)
Strobe/Lamp Enabled: No (USB2+H05261)
Correct for Detector Non-linearity: No (USB2+H05261)
Correct for Stray Light: No (USB2+H05261)
Number of Pixels in Processed Spectrum: 2048
>>>>>Begin Processed Spectral Data<<<<<
365.73	229.37
365.92	229.37
366.12	229.37
366.32	175.54
366.52	138.09
366.72	187.24
366.91	196.60
367.11	187.24
367.31	184.90
367.51	142.77
367.70	161.50
367.90	205.97
368.10	156.82
368.30	189.58
368.49	196.60
368.69	217.67
368.89	220.01
369.09	217.67
369.28	187.24
369.48	149.79
369.68	257.46
369.87	271.50
370.07	168.52
370.27	229.37
370.47	285.55
370.66	505.56
370.86	526.62
371.06	475.13
371.25	571.09
371.45	479.81
371.65	617.90
371.84	554.71
372.04	543.00
372.24	573.43
372.44	575.77
372.63	589.82
372.83	643.65
373.03	594.50
373.22	510.24
373.42	578.11
373.62	723.23
373.81	678.76
374.01	678.76
374.21	674.07
374.40	716.20
374.60	657.69
374.79	727.91
374.99	770.04
375.19	653.01
375.38	692.80
375.58	624.92
375.78	603.86
375.97	634.29
376.17	734.93
376.37	737.27
376.56	678.76
376.76	704.50
376.95	741.95
377.15	765.36
377.35	688.12
377.54	683.44
377.74	557.05
377.93	767.70
378.13	657.69
378.33	758.33
378.52	664.71
378.72	760.67
378.91	737.27
379.11	671.73
379.31	667.05
379.50	716.20
379.70	746.63
379.89	765.36
380.09	732.59
380.28	678.76
380.48	688.12
380.68	725.57
380.87	737.27
381.07	793.44
381.26	772.38
381.46	779.40
381.65	833.23
381.85	814.51
382.04	748.97
382.24	805.14
382.43	781.74
382.63	737.27
382.83	770.04
383.02	929.19
383.22	842.59
383.41	821.53
383.61	760.67
383.80	821.53
384.00	814.51
384.19	791.10
384.39	758.33
384.58	861.32
384.78	856.64
384.97	875.36
385.17	793.44
385.36	809.83
385.56	723.23
385.75	851.96
385.95	858.98
386.14	898.77
386.34	877.70
386.53	819.19
386.72	894.08
386.92	875.36
387.11	922.17
387.31	870.68
387.50	870.68
387.70	844.93
387.89	837.91
388.09	873.02
388.28	854.30
388.48	968.98
388.67	1027.50
388.86	973.66
389.06	924.51
389.25	1029.84
389.45	957.28
389.64	980.68
389.84	894.08
390.03	973.66
390.22	1032.18
390.42	959.62
390.61	945.58
390.81	1004.09
391.00	985.37
391.19	1036.86
391.39	950.26
391.58	971.32
391.78	992.39
391.97	912.81
392.16	1027.50
392.36	1067.28
392.55	1041.54
392.75	1083.67
392.94	1130.48
393.13	1041.54
393.33	957.28
393.52	1074.31
393.71	1102.39
393.91	1109.41
394.10	1121.12
394.29	1130.48
394.49	1060.26
394.68	1186.65
394.88	1153.88
395.07	1156.22
395.26	1104.73
395.46	1097.71
395.65	1118.78
395.84	1186.65
396.04	1156.22
396.23	1214.74
396.42	1240.48
396.62	1188.99
396.81	1280.27
397.00	1287.29
397.19	1123.46
397.39	1177.29
397.58	1338.79
397.77	1184.31
397.97	1273.25
398.16	1280.27
398.35	1336.45
398.55	1233.46
398.74	1287.29
398.93	1282.61
399.12	1256.87
399.32	1277.93
399.51	1343.47
399.70	1420.71
399.90	1406.66
400.09	1336.45
400.28	1444.11
400.47	1418.36
400.67	1458.15
400.86	1373.89
401.05	1404.32
401.24	1399.64
401.44	1547.09
401.63	1493.26
401.82	1430.07
402.01	1483.90
402.21	1493.26
402.40	1514.33
402.59	1502.62
402.78	1561.14
402.97	1483.90
403.17	1554.12
403.36	1502.62
403.55	1507.30
403.74	1638.38
403.93	1561.14
404.13	1654.76
404.32	1607.95
404.51	1556.46
404.70	1621.99
404.89	1636.03
405.09	1764.76
405.28	1713.27
405.47	1692.21
405.66	1717.95
405.85	1657.10
406.05	1703.91
406.24	1769.44
406.43	1762.42
406.62	1746.04
406.81	1872.43
407.00	1736.68
407.20	1682.85
407.39	1853.70
407.58	1860.73
407.77	1966.05
407.96	1933.28
408.15	1909.88
408.34	1849.02
408.54	1966.05
408.73	1886.47
408.92	1877.11
409.11	1853.70
409.30	2059.67
409.49	1980.09
409.68	2031.58
409.87	2080.74
410.07	2054.99
410.26	2150.95
410.45	2094.78
410.64	1991.80
410.83	2122.87
411.02	2005.84
411.21	2132.23
411.40	2211.81
411.59	2139.25
411.78	2218.83
411.98	2076.06
412.17	2179.04
412.36	2296.07
412.55	2354.58
412.74	2389.69
412.93	2291.38
413.12	2235.21
413.31	2452.88
413.50	2429.48
413.69	2532.46
413.88	2473.95
414.07	2483.31
414.26	2532.46
414.45	2593.31
414.64	2572.25
414.83	2640.12
415.02	2544.16
415.22	2609.70
415.41	2675.23
415.60	2670.55
415.79	2696.30
415.98	2640.12
416.17	2710.34
416.36	2759.49
416.55	2768.85
416.74	2841.41
416.93	2722.04
417.12	2787.58
417.31	2778.22
417.50	2745.45
417.69	3012.27
417.88	2949.08
418.07	2895.24
418.26	2988.86
418.45	2984.18
418.64	3091.85
418.83	3059.08
419.02	2979.50
419.21	3155.04
419.39	3028.65
419.58	3094.19
419.77	3169.09
419.96	3162.06
420.15	3185.47
420.34	3176.11
420.53	3157.38
420.72	3260.37
420.91	3309.52
421.10	3199.51
421.29	3293.13
421.48	3234.62
421.67	3297.81
421.86	3201.85
422.05	3241.64
422.24	3311.86
422.43	3356.33
422.61	3351.65
422.80	3449.95
422.99	3489.74
423.18	3396.12
423.37	3522.51
423.56	3454.63
423.75	3363.35
423.94	3400.80
424.13	3166.74
424.32	3372.71
424.50	3531.87
424.69	3384.41
424.88	3468.67
425.07	3435.91
425.26	3243.98
425.45	3339.94
425.64	3358.67
425.83	3332.92
426.01	3613.79
426.20	3590.38
426.39	3599.74
426.58	3480.38
426.77	3501.44
426.96	3480.38
427.15	3597.40
427.33	3569.32
427.52	3531.87
427.71	3616.13
427.90	3595.06
428.09	3616.13
428.28	3658.26
428.46	3585.70
428.65	3772.94
428.84	3873.59
429.03	3684.00
429.22	3667.62
429.40	3840.82
429.59	3740.18
429.78	3700.39
429.97	3798.69
430.16	3782.31
430.34	3798.69
430.53	3990.61
430.72	3812.73
430.91	3761.24
431.10	3941.46
431.28	4053.81
431.47	4117.00
431.66	4060.83
431.85	3985.93
432.03	4114.66
432.22	4138.07
432.41	4053.81
432.60	4109.98
432.79	4166.15
432.97	4126.36
433.16	4070.19
433.35	4053.81
433.54	4074.87
433.72	4135.73
433.91	4248.07
434.10	4219.99
434.28	4145.09
434.47	4248.07
434.66	4224.67
434.85	4301.90
435.03	4355.74
435.22	4297.22
435.41	4482.13
435.59	4292.54
435.78	4367.44
435.97	4355.74
436.16	4365.10
436.34	4461.06
436.53	4472.76
436.72	4526.60
436.90	4411.91
437.09	4418.93
437.28	4561.70
437.46	4531.28
437.65	4545.32
437.84	4716.18
438.02	4645.96
438.21	4692.77
438.40	4688.09
438.58	4720.86
438.77	4760.65
438.96	4734.90
439.14	4695.11
439.33	4835.55
439.52	4854.27
439.70	4933.85
439.89	4994.70
440.08	4952.57
440.26	4992.36
440.45	5067.26
440.63	5022.79
440.82	5245.14
441.01	5055.56
441.19	5142.16
441.38	5298.97
441.57	5242.80
441.75	5408.98
441.94	5401.96
442.12	5324.72
442.31	5540.05
442.50	5500.26
442.68	5411.32
442.87	5345.78
443.05	5408.98
443.24	5556.43
443.43	5612.60
443.61	5605.58
443.80	5696.86
443.98	5481.53
444.17	5139.82
444.35	5556.43
444.54	5668.78
444.73	5816.23
444.91	5619.63
445.10	5689.84
445.28	5526.00
445.47	5593.88
445.65	5776.44
445.84	5621.97
446.02	5628.99
446.21	5827.93
446.39	5654.73
446.58	5792.83
446.77	5591.54
446.95	5430.04
447.14	5769.42
447.32	5636.01
447.51	5708.57
447.69	5853.68
447.88	5746.02
448.06	5774.10
448.25	5717.93
448.43	6026.88
448.62	5935.60
448.80	5811.55
448.99	5867.72
449.17	5991.77
449.36	5738.99
449.54	6012.84
449.73	6080.71
449.91	6258.59
450.10	5987.09
450.28	6237.53
450.46	6040.92
450.65	6246.89
450.83	6162.63
451.02	6188.38
451.20	6267.95
451.39	6260.93
451.57	6223.48
451.76	6183.70
451.94	6258.59
452.13	6361.58
452.31	6331.15
452.49	6125.18
452.68	6293.70
452.86	6193.06
453.05	6361.58
453.23	6300.72
453.42	6466.90
453.60	6237.53
453.78	6417.75
453.97	6387.32
454.15	6513.71
454.34	6506.69
454.52	6595.63
454.70	6595.63
454.89	6581.59
455.07	6616.69
455.26	6707.98
455.44	6806.28
455.62	6602.65
455.81	6539.46
455.99	6836.70
456.17	6860.11
456.36	6803.94
456.54	6843.73
456.73	6869.47
456.91	7042.67
457.09	7091.82
457.28	7014.59
457.46	6925.65
457.64	7066.08
457.83	7077.78
458.01	7026.29
458.19	7201.83
458.38	7225.23
458.56	7281.41
458.74	7358.64
458.93	7152.68
459.11	7316.51
459.29	7353.96
459.48	7386.73
459.66	7297.79
459.84	7173.74
460.03	7529.50
460.21	7379.71
460.39	7602.06
460.57	7398.43
460.76	7522.48
460.94	7407.80
461.12	7562.27
461.31	7662.91
461.49	7515.46
461.67	7499.08
461.85	7784.62
462.04	7644.19
462.22	8116.98
462.40	7903.99
462.59	7798.66
462.77	7915.69
462.95	7913.35
463.13	7782.28
463.32	7925.05
463.50	8025.70
463.68	7939.10
463.86	8093.57
464.05	7737.81
464.23	7815.05
464.41	8039.74
464.59	7932.08
464.78	8121.66
464.96	8093.57
465.14	7936.76
465.32	8142.72
465.50	8161.45
465.69	8285.50
465.87	8044.42
466.05	8109.96
466.23	8334.65
466.41	8107.62
466.60	8308.90
466.78	8070.17
466.96	8093.57
467.14	8063.15
467.32	8355.71
467.51	8505.51
467.69	8442.31
467.87	8528.91
468.05	8386.14
468.23	8388.48
468.41	8390.82
468.60	8224.64
468.78	8503.17
468.96	8383.80
469.14	8475.08
469.32	8720.84
469.50	8500.83
469.69	8549.98
469.87	8442.31
470.05	8765.31
470.23	8706.79
470.41	8786.37
470.59	8760.63
470.77	8596.79
470.95	8762.97
471.14	9081.28
471.32	8833.18
471.50	8990.00
471.68	9273.20
471.86	9233.41
472.04	9104.68
472.22	9256.82
472.40	9102.34
472.58	9235.75
472.77	9291.93
472.95	9331.72
473.13	9792.80
473.31	9301.29
473.49	9432.36
473.67	9359.80
473.85	9469.81
474.03	9678.12
474.21	9769.40
474.39	9806.84
474.57	9736.63
474.75	9944.94
474.93	10115.80
475.12	9956.64
475.30	9893.44
475.48	9996.43
475.66	10200.05
475.84	10129.84
476.02	10349.85
476.20	10406.02
476.38	10394.32
476.56	10516.03
476.74	10750.08
476.92	10338.15
477.10	10565.18
477.28	10705.61
477.46	10719.65
477.64	11030.94
477.82	11040.31
478.00	11283.72
478.18	10803.91
478.36	11344.58
478.54	11426.50
478.72	11363.30
478.90	11367.98
479.08	11520.12
479.26	11595.01
479.44	11515.44
479.62	11786.94
479.80	11999.93
479.98	11646.51
480.16	12411.86
480.34	12147.38
480.52	12374.41
480.70	12238.66
480.88	12088.87
481.06	12432.93
481.24	12596.76
481.41	12664.64
481.59	12655.28
481.77	12964.23
481.95	12884.65
482.13	12903.37
482.31	13085.94
482.49	13565.74
482.67	13165.51
482.85	13387.86
483.03	13635.96
483.21	13799.80
483.39	13844.27
483.57	13696.82
483.74	13844.27
483.92	13968.32
484.10	14113.43
484.28	14298.33
484.46	14338.12
484.64	14618.99
484.82	14490.26
485.00	14665.80
485.18	15037.94
485.35	15360.94
485.53	14960.70
485.71	15248.59
485.89	15817.34
486.07	15253.27
486.25	15503.71
486.43	15529.45
486.61	15583.29
486.78	15976.50
486.96	15943.73
487.14	16053.73
487.32	16032.67
487.50	16437.58
487.68	16133.31
487.85	16491.41
488.03	16943.14
488.21	16929.09
488.39	16964.20
488.57	17067.19
488.75	17390.18
488.92	17530.61
489.10	17350.39
489.28	17603.17
489.46	17797.43
489.64	17734.24
489.81	18097.02
489.99	18242.14
490.17	18200.01
490.35	18576.83
490.53	18586.19
490.70	18508.96
490.88	18651.73
491.06	18738.33
491.24	18948.98
491.41	18885.78
491.59	19461.55
491.77	19129.20
491.95	19580.92
492.13	19562.20
492.30	19826.68
492.48	19545.81
492.66	19871.15
492.84	19924.98
493.01	20411.81
493.19	20002.22
493.37	20276.06
493.54	20645.87
493.72	20826.09
493.90	20847.15
494.08	20952.48
494.25	20849.49
494.43	21167.80
494.61	21287.17
494.79	21200.57
494.96	21214.62
495.14	21614.85
495.32	21640.59
495.49	21811.45
495.67	21804.43
495.85	22143.81
496.02	22312.33
496.20	22511.27
496.38	22326.37
496.55	22567.45
496.73	23108.11
496.91	23098.75
497.09	22993.42
497.26	23246.20
497.44	22778.09
497.62	23220.45
497.79	23435.78
497.97	23353.87
498.14	23908.57
498.32	23981.13
498.50	24166.03
498.67	24147.31
498.85	23733.03
499.03	23887.51
499.20	24063.05
499.38	23985.81
499.56	24397.74
499.73	24470.30
499.91	24421.15
500.08	24758.19
500.26	24863.51
500.44	24758.19
500.61	24947.77
500.79	25001.60
500.97	25043.73
501.14	25881.64
501.32	25460.35
501.49	25067.14
501.67	25425.24
501.84	25584.40
502.02	25460.35
502.20	25825.47
502.37	25469.71
502.55	25816.11
502.72	26022.08
502.90	26043.14
503.07	25635.89
503.25	26209.32
503.43	25724.83
503.60	26361.45
503.78	26529.97
503.95	26216.34
504.13	26794.45
504.30	27023.83
504.48	26733.60
504.65	26857.65
504.83	27126.81
505.01	27105.74
505.18	27442.78
505.36	27786.84
505.53	27014.46
505.71	27552.79
505.88	27491.93
506.06	27402.99
506.23	27711.94
506.41	27761.09
506.58	27627.68
506.76	27896.85
506.93	28100.47
507.11	28098.13
507.28	28147.28
507.46	28311.12
507.63	28554.54
507.81	28435.17
507.98	28570.92
508.16	28465.60
508.33	28493.68
508.50	29078.82
508.68	28924.34
508.85	29067.11
509.03	29048.39
509.20	29212.23
509.38	29926.09
509.55	29097.54
509.73	29443.94
509.90	29872.26
510.08	29275.42
510.25	29949.50
510.42	29799.70
510.60	30113.33
510.77	29975.24
510.95	30396.54
511.12	30199.93
511.30	30050.14
511.47	29944.81
511.64	29926.09
511.82	30286.53
511.99	30246.74
512.17	30445.69
512.34	30417.60
512.51	30962.95
512.69	31154.87
512.86	30913.80
513.04	31096.36
513.21	31204.02
513.38	30972.31
513.56	31079.97
513.73	31222.75
513.90	31019.12
514.08	31262.54
514.25	31377.22
514.43	31278.92
514.60	31658.09
514.77	31779.79
514.95	31618.30
515.12	31824.26
515.29	31587.87
515.47	31819.58
515.64	32376.63
515.81	32105.13
515.99	32098.11
516.16	32292.37
516.33	32442.17
516.51	32371.95
516.68	32374.29
516.85	32842.40
517.03	32404.72
517.20	32847.08
517.37	32580.26
517.54	32961.76
517.72	32877.51
517.89	33415.83
518.06	33029.64
518.24	33226.24
518.41	32989.85
518.58	32751.12
518.75	33006.23
518.93	33331.57
519.10	33467.32
519.27	33710.74
519.45	33631.16
519.62	33366.68
519.79	34410.56
519.96	33474.34
520.14	34089.90
520.31	33743.50
520.48	34209.27
520.65	33710.74
520.83	34295.87
521.00	34686.74
521.17	34445.66
521.34	34668.02
521.52	34445.66
521.69	34712.49
521.86	34831.85
522.03	34792.06
522.20	34895.05
522.38	35089.31
522.55	35262.51
522.72	34827.17
522.89	35049.52
523.07	35452.09
523.24	35599.55
523.41	35407.62
523.58	35122.08
523.75	35557.42
523.92	35426.35
524.10	35585.50
524.27	35695.51
524.44	35548.06
524.61	35789.13
524.78	36058.29
524.96	35955.31
525.13	36226.81
525.30	36149.57
525.47	36229.15
525.64	35849.99
525.81	36444.48
525.98	36767.48
526.16	36158.94
526.33	36381.29
526.50	36624.70
526.67	36428.10
526.84	36392.99
527.01	36514.70
527.18	36814.29
527.36	36786.20
527.53	36514.70
527.70	37209.84
527.87	37003.87
528.04	37212.18
528.21	37132.60
528.38	37268.35
528.55	37151.32
528.72	37551.56
528.89	37930.72
529.07	37326.86
529.24	37200.47
529.41	37406.44
529.58	37319.84
529.75	37315.16
529.92	37869.87
530.09	37893.27
530.26	37450.91
530.43	38052.43
530.60	37687.31
530.77	37804.33
530.94	37649.86
531.11	37893.27
531.28	37563.26
531.46	37968.17
531.63	38174.14
531.80	38082.86
531.97	38122.65
532.14	38249.03
532.31	37996.26
532.48	38356.70
532.65	38836.51
532.82	38426.92
532.99	38817.78
533.16	38581.39
533.33	38962.90
533.50	38948.85
533.67	38698.42
533.84	38817.78
534.01	38998.01
534.18	39100.99
534.35	39512.92
534.52	39168.87
534.69	40191.68
534.86	39225.04
535.03	39056.52
535.20	39239.08
535.37	39908.47
535.54	39501.22
535.71	39100.99
535.88	39702.51
536.05	39625.27
536.22	39969.33
536.38	39861.66
536.55	39658.04
536.72	39786.77
536.89	39494.20
537.06	39807.83
537.23	40233.81
537.40	40091.04
537.57	39974.01
537.74	40030.18
537.91	40524.04
538.08	40126.14
538.25	39915.50
538.42	40250.19
538.59	40470.20
538.75	40121.46
538.92	40172.96
539.09	40914.90
539.26	41001.50
539.43	40407.01
539.60	40715.96
539.77	40648.08
539.94	41036.61
540.11	41223.86
540.28	41111.51
540.44	40769.79
540.61	41139.60
540.78	40549.78
540.95	40718.30
541.12	40790.86
541.29	40835.33
541.46	40687.87
541.62	41092.79
541.79	41050.66
541.96	40978.10
542.13	41329.18
542.30	40879.80
542.47	41565.57
542.63	41766.86
542.80	41607.70
542.97	42108.58
543.14	42120.28
543.31	41841.76
543.48	41724.73
543.64	42459.66
543.81	41855.80
543.98	42256.03
544.15	41893.25
544.32	42134.32
544.48	42321.57
544.65	42457.32
544.82	42239.65
544.99	42181.13
545.16	42218.58
545.32	42007.94
545.49	42614.13
545.66	42511.15
545.83	42480.72
546.00	42880.95
546.16	42426.89
546.33	42424.55
546.50	42525.19
546.67	42906.70
546.83	42096.88
547.00	42974.58
547.17	42906.70
547.34	43292.89
547.50	43171.18
547.67	43112.67
547.84	43084.58
548.00	43026.07
548.17	43707.16
548.34	43388.85
548.51	43365.45
548.67	43271.82
548.84	43084.58
549.01	43447.36
549.18	43180.54
549.34	43597.16
549.51	43999.73
549.68	43665.03
549.84	43519.92
550.01	43871.00
550.18	43423.96
550.34	43800.79
550.51	43789.08
550.68	43826.53
550.84	43732.91
551.01	43849.94
551.18	43702.48
551.34	43842.92
551.51	43997.39
551.68	44261.87
551.84	44013.77
552.01	43873.34
552.18	43929.51
552.34	44301.66
552.51	44301.66
552.68	43927.17
552.84	44348.47
553.01	44289.96
553.18	44067.61
553.34	44119.10
553.51	44198.68
553.67	44421.03
553.84	44690.19
554.01	44933.60
554.17	44355.49
554.34	44954.67
554.51	44662.10
554.67	44832.96
554.84	44683.17
555.00	44280.60
555.17	44858.71
555.33	44987.44
555.50	45052.97
555.67	44865.73
555.83	44662.10
556.00	45134.89
556.16	45677.90
556.33	44971.05
556.50	45504.70
556.66	44982.76
556.83	44818.92
556.99	45207.45
557.16	44940.63
557.32	45280.00
557.49	45497.67
557.65	44893.82
557.82	45090.42
557.98	45191.06
558.15	45226.17
558.32	45598.32
558.48	45118.51
558.65	45251.92
558.81	45790.24
558.98	45165.32
559.14	45385.33
559.31	45385.33
559.47	44854.03
559.64	45184.04
559.80	45350.22
559.97	45588.95
560.13	45551.51
560.30	45691.94
560.46	46127.28
560.63	46057.06
560.79	45390.01
560.96	45970.46
561.12	45846.41
561.29	45921.31
561.45	45825.35
561.61	45530.44
561.78	45902.59
561.94	45713.00
562.11	45963.44
562.27	45558.53
562.44	45738.75
562.60	46176.43
562.77	45551.51
562.93	45584.27
563.10	46382.40
563.26	45769.18
563.42	46239.62
563.59	45797.26
563.75	45684.92
563.92	46059.40
564.08	45909.61
564.24	45942.38
564.41	46167.07
564.57	45656.83
564.74	46267.71
564.90	45914.29
565.07	45771.52
565.23	45956.42
565.39	46284.09
565.56	46548.57
565.72	46375.37
565.88	46511.13
566.05	46258.35
566.21	46419.84
566.38	46356.65
566.54	46195.15
566.70	46431.55
566.87	46122.60
567.03	46272.39
567.19	46574.32
567.36	46469.00
567.52	46480.70
567.68	46670.28
567.85	46419.84
568.01	46557.94
568.17	46492.40
568.34	46820.08
568.50	46639.86
568.66	46157.70
568.83	46625.81
568.99	46838.80
569.15	46410.48
569.32	46625.81
569.48	46611.77
569.64	46937.10
569.81	46681.98
569.97	46693.69
570.13	46738.16
570.30	47152.43
570.46	46897.31
570.62	47014.34
570.78	46506.44
570.95	46663.26
571.11	47035.41
571.27	46824.76
571.43	46768.58
571.60	46988.60
571.76	46913.70
571.92	46450.27
572.09	47019.02
572.25	46731.14
572.41	46972.21
572.57	46803.69
572.74	47002.64
572.90	46909.02
573.06	46897.31
573.22	47075.19
573.38	47077.54
573.55	47461.38
573.71	47255.42
573.87	47152.43
574.03	47000.30
574.20	47208.61
574.36	46960.51
574.52	47332.65
574.68	46986.25
574.84	46873.91
575.01	47257.76
575.17	47012.00
575.33	47236.69
575.49	47002.64
575.65	47145.41
575.82	47416.91
575.98	47175.84
576.14	47339.68
576.30	47639.26
576.46	46993.28
576.62	47271.80
576.79	46937.10
576.95	46906.68
577.11	46836.46
577.27	46796.67
577.43	47213.29
577.59	47271.80
577.75	47484.79
577.92	46831.78
578.08	47264.78
578.24	47356.06
578.40	47250.74
578.56	47583.09
578.72	47358.40
578.88	47185.20
579.04	47374.78
579.21	47224.99
579.37	47058.81
579.53	47414.57
579.69	47042.43
579.85	47316.27
580.01	47433.30
580.17	47412.23
580.33	47416.91
580.49	46733.48
580.65	47189.88
580.82	47262.44
580.98	46644.54
581.14	46899.65
581.30	47395.85
581.46	46803.69
581.62	47201.58
581.78	47276.48
581.94	47700.12
582.10	47278.82
582.26	47646.29
582.42	47232.01
582.58	47374.78
582.74	47615.86
582.90	47119.66
583.06	47807.78
583.22	47068.17
583.38	47330.31
583.54	47517.56
583.70	47489.47
583.86	47583.09
584.02	46916.04
584.18	47547.98
584.34	47339.68
584.50	47683.73
584.66	47901.40
584.82	47526.92
584.98	47739.91
585.14	47957.58
585.30	47473.09
585.46	47292.86
585.62	47334.99
585.78	47887.36
585.94	47409.89
586.10	47653.31
586.26	47349.04
586.42	47545.64
586.58	47489.47
586.74	47040.09
586.90	47547.98
587.06	47461.38
587.22	47330.31
587.38	47271.80
587.54	47704.80
587.70	47763.31
587.86	48034.81
588.02	47545.64
588.18	47257.76
588.34	47496.49
588.49	47323.29
588.65	47693.10
588.81	47594.79
588.97	47519.90
589.13	47440.32
589.29	47770.33
589.45	47524.58
589.61	47814.80
589.77	47962.26
589.93	48025.45
590.08	47690.76
590.24	48257.17
590.40	48439.73
590.56	47950.56
590.72	47772.67
590.88	47299.89
591.04	47540.96
591.20	47859.27
591.35	47936.51
591.51	48210.35
591.67	48140.14
591.83	47955.24
591.99	47955.24
592.15	47672.03
592.31	48025.45
592.46	47817.14
592.62	47550.32
592.78	48582.50
592.94	48357.81
593.10	48289.93
593.26	48301.64
593.41	48376.53
593.57	47995.03
593.73	48271.21
593.89	48364.83
594.05	48669.10
594.20	48458.45
594.36	48708.89
594.52	48381.21
594.68	48002.05
594.84	48034.81
594.99	48540.37
595.15	48301.64
595.31	48224.40
595.47	48189.29
595.62	48215.04
595.78	47672.03
595.94	48444.41
596.10	48360.15
596.25	48458.45
596.41	48545.05
596.57	48163.54
596.73	48367.17
596.88	48175.25
597.04	48325.04
597.20	48416.32
597.36	48477.18
597.51	48439.73
597.67	48296.95
597.83	48140.14
597.99	47868.64
598.14	48528.67
598.30	48421.00
598.46	48418.66
598.61	48224.40
598.77	48292.27
598.93	48451.43
599.09	48406.96
599.24	48643.35
599.40	48439.73
599.56	48629.31
599.71	48437.39
599.87	48858.68
600.03	48685.48
600.18	48488.88
600.34	48552.07
600.50	48399.94
600.65	48659.74
600.81	48421.00
600.97	48783.79
601.12	48383.55
601.28	48161.20
601.44	47999.71
601.59	48079.28
601.75	48060.56
601.91	48678.46
602.06	48729.95
602.22	48687.82
602.37	48252.48
602.53	48257.17
602.69	48573.14
602.84	48154.18
603.00	48406.96
603.16	48165.88
603.31	48526.33
603.47	48339.08
603.62	49036.56
603.78	48811.87
603.94	48247.80
604.09	48346.11
604.25	48212.70
604.40	48289.93
604.56	48137.80
604.71	48898.47
604.87	48023.11
605.03	48332.06
605.18	48477.18
605.34	48521.65
605.49	48112.05
605.65	48545.05
605.80	48208.01
605.96	48130.78
606.12	48114.39
606.27	48215.04
606.43	48156.52
606.58	48182.27
606.74	48252.48
606.89	48217.38
607.05	48523.99
607.20	48182.27
607.36	48053.54
607.51	48140.14
607.67	47931.83
607.82	48257.17
607.98	48502.92
608.13	47903.74
608.29	48376.53
608.44	48074.60
608.60	48086.31
608.75	48294.61
608.91	47978.64
609.06	47779.70
609.22	48158.86
609.37	48142.48
609.53	48369.51
609.68	48158.86
609.84	48311.00
609.99	48374.19
610.15	47938.85
610.30	48198.65
610.46	48074.60
610.61	48186.95
610.76	48189.29
610.92	47629.90
611.07	47817.14
611.23	47707.14
611.38	47791.40
611.54	47969.28
611.69	47983.32
611.84	47814.80
612.00	48346.11
612.15	47697.78
612.31	48037.16
612.46	47416.91
612.62	47749.27
612.77	47896.72
612.92	48107.37
613.08	47988.00
613.23	47817.14
613.39	47870.98
613.54	47320.95
613.69	47803.10
613.85	47798.42
614.00	47793.74
614.15	47873.32
614.31	47569.05
614.46	47753.95
614.62	47440.32
614.77	47456.70
614.92	47557.35
615.08	47793.74
615.23	47297.55
615.38	47737.57
615.54	47646.29
615.69	47681.39
615.84	47405.21
616.00	47540.96
616.15	47339.68
616.30	47538.62
616.46	47234.35
616.61	47716.50
616.76	47772.67
616.92	47728.20
617.07	47604.16
617.22	47367.76
617.37	47070.51
617.53	47779.70
617.68	47564.37
617.83	47381.80
617.99	47739.91
618.14	47709.48
618.29	47033.07
618.45	47096.26
618.60	47107.96
618.75	46656.24
618.90	46953.49
619.06	47480.11
619.21	47463.72
619.36	47166.48
619.51	47292.86
619.67	47136.05
619.82	46979.23
619.97	47519.90
620.12	47168.82
620.28	46801.35
620.43	47143.07
620.58	47480.11
620.73	47232.01
620.89	47470.75
621.04	47285.84
621.19	46974.55
621.34	46993.28
621.49	46593.04
621.65	47072.85
621.80	46906.68
621.95	46813.05
622.10	46761.56
622.25	46733.48
622.41	46958.17
622.56	46885.61
622.71	47093.92
622.86	46801.35
623.01	47004.98
623.16	46384.74
623.32	46759.22
623.47	46525.17
623.62	46813.05
623.77	46279.41
623.92	46817.74
624.07	46815.40
624.23	46595.38
624.38	46429.21
624.53	46534.53
624.68	46681.98
624.83	45989.19
624.98	46122.60
625.13	46190.47
625.29	46480.70
625.44	46307.50
625.59	46323.88
625.74	46342.61
625.89	45907.27
626.04	45888.54
626.19	46110.89
626.34	46700.71
626.49	46270.05
626.65	45888.54
626.80	45970.46
626.95	45790.24
627.10	45806.62
627.25	46232.60
627.40	45769.18
627.55	45755.13
627.70	45911.95
627.85	45930.67
628.00	46085.15
628.15	45329.16
628.30	45291.71
628.45	45755.13
628.60	45373.63
628.76	45675.55
628.91	45654.49
629.06	45399.37
629.21	45427.46
629.36	45427.46
629.51	45481.29
629.66	45986.85
629.81	45488.31
629.96	45876.84
630.11	45469.59
630.26	45310.43
630.41	45762.15
630.56	45558.53
630.71	45420.44
630.86	45422.78
631.01	44954.67
631.16	45558.53
631.31	45603.00
631.46	45551.51
631.61	45872.16
631.76	45265.96
631.91	45207.45
632.06	45811.31
632.21	45567.89
632.36	45691.94
632.51	45017.86
632.66	45324.47
632.81	45237.87
632.96	45474.27
633.10	45137.23
633.25	44910.20
633.40	45062.33
633.55	45249.58
633.70	45010.84
633.85	45085.74
634.00	44935.95
634.15	44996.80
634.30	44868.07
634.45	45221.49
634.60	44980.42
634.75	45055.31
634.90	45205.11
635.05	45249.58
635.19	44711.25
635.34	45041.27
635.49	44629.34
635.64	45221.49
635.79	44954.67
635.94	44987.44
636.09	45043.61
636.24	44683.17
636.39	44762.75
636.53	44844.66
636.68	44669.12
636.83	44423.37
636.98	44273.57
637.13	44074.63
637.28	44196.34
637.43	44346.13
637.57	44509.97
637.72	43936.54
637.87	44744.02
638.02	44315.70
638.17	44142.50
638.32	44135.48
638.46	43524.60
638.61	43995.05
638.76	43871.00
638.91	43955.26
639.06	43887.39
639.20	44065.27
639.35	44051.22
639.50	43758.66
639.65	44093.35
639.80	44205.70
639.94	44589.55
640.09	43735.25
640.24	43990.37
640.39	43494.18
640.54	43643.97
640.68	44023.14
640.83	43999.73
640.98	43735.25
641.13	43386.51
641.27	44074.63
641.42	43833.55
641.57	43941.22
641.72	43849.94
641.86	43620.56
642.01	43051.81
642.16	43531.62
642.31	43175.86
642.45	43856.96
642.60	43742.27
642.75	43606.52
642.90	43320.98
643.04	43641.63
643.19	43615.88
643.34	43143.09
643.48	42878.61
643.63	43349.06
643.78	43330.34
643.93	43798.44
644.07	43274.16
644.22	43409.92
644.37	43313.95
644.51	43688.44
644.66	43433.32
644.81	42988.62
644.95	43360.76
645.10	43023.73
645.25	42773.29
645.39	42789.67
645.54	43323.32
645.69	42794.36
645.83	42754.57
645.98	43061.18
646.13	42618.81
646.27	42995.64
646.42	42719.46
646.57	42803.72
646.71	43009.68
646.86	43136.07
647.00	42719.46
647.15	43061.18
647.30	42546.26
647.44	42876.27
647.59	42873.93
647.74	42279.44
647.88	42541.58
648.03	42873.93
648.17	43236.72
648.32	42799.04
648.47	42990.96
648.61	42815.42
648.76	42431.57
648.90	42920.74
649.05	42653.92
649.20	42508.81
649.34	42426.89
649.49	42501.79
649.63	42356.67
649.78	42637.54
649.92	42630.52
650.07	43227.35
650.21	42501.79
650.36	42555.62
650.51	42464.34
650.65	42265.39
650.80	42206.88
650.94	42328.59
651.09	42382.42
651.23	42017.30
651.38	41661.54
651.52	41888.57
651.67	42087.51
651.81	41806.65
651.96	42447.96
652.10	41474.29
652.25	42036.02
652.39	41626.43
652.54	42068.79
652.68	42445.62
652.83	41975.17
652.97	41853.46
653.12	41773.88
653.26	41778.56
653.41	41799.63
653.55	41902.61
653.70	41951.76
653.84	41958.78
653.99	42108.58
654.13	42323.91
654.27	41771.54
654.42	41387.69
654.56	41511.74
654.71	41406.42
654.85	41820.69
655.00	41495.36
655.14	41832.39
655.29	41640.47
655.43	42080.49
655.57	41556.21
655.72	40959.38
655.86	41368.97
656.01	41158.32
656.15	41024.91
656.30	41219.17
656.44	41560.89
656.58	41383.01
656.73	41148.96
656.87	41158.32
657.01	41060.02
657.16	41291.73
657.30	41258.96
657.45	41460.25
657.59	40907.88
657.73	40701.92
657.88	40992.14
658.02	41212.15
658.16	41120.87
658.31	41256.62
658.45	40762.77
658.60	40601.27
658.74	41134.92
658.88	40942.99
659.03	40762.77
659.17	40701.92
659.31	40224.45
659.46	40671.49
659.60	40706.60
659.74	40622.34
659.89	40264.24
660.03	40484.25
660.17	40367.22
660.32	40549.78
660.46	39709.53
660.60	39714.21
660.74	40189.34
660.89	39924.86
661.03	40079.33
661.17	39817.19
661.32	39723.57
661.46	39894.43
661.60	39606.55
661.74	39658.04
661.89	39526.97
662.03	39894.43
662.17	39625.27
662.31	39658.04
662.46	39730.59
662.60	39295.25
662.74	39023.75
662.88	39409.94
663.03	38988.64
663.17	38962.90
663.31	39271.85
663.45	38848.21
663.60	39711.87
663.74	39210.99
663.88	39126.74
664.02	38508.83
664.17	39143.12
664.31	38735.87
664.45	38983.96
664.59	38911.41
664.73	38438.62
664.88	38794.38
665.02	38560.33
665.16	38548.62
665.30	38368.40
665.44	38541.60
665.59	38246.69
665.73	37961.15
665.87	38026.68
666.01	37914.34
666.15	38223.29
666.29	37827.74
666.44	38361.38
666.58	38242.01
666.72	37762.20
666.86	37851.14
667.00	37811.35
667.14	37287.07
667.28	37626.45
667.43	37464.96
667.57	37647.52
667.71	38005.62
667.85	37755.18
667.99	37706.03
668.13	37099.83
668.27	37291.76
668.41	37090.47
668.56	36636.41
668.70	37158.34
668.84	36694.92
668.98	36591.94
669.12	37029.62
669.26	37277.71
669.40	36474.91
669.54	36833.01
669.68	36924.29
669.82	36650.45
669.96	36577.89
670.10	36156.60
670.25	36322.77
670.39	36161.28
670.53	36479.59
670.67	36226.81
670.81	36720.66
670.95	36055.95
671.09	36156.60
671.23	35704.87
671.37	35749.34
671.51	36053.61
671.65	35646.36
671.79	35468.48
671.93	35496.56
672.07	35868.71
672.21	35861.69
672.35	35281.24
672.49	35393.58
672.63	35211.02
672.77	34927.81
672.91	34993.35
673.05	35091.65
673.19	34969.94
673.33	34749.93
673.47	34625.89
673.61	34663.33
673.75	34822.49
673.89	34895.05
674.03	34274.80
674.17	34141.39
674.31	34106.29
674.45	34059.48
674.59	34157.78
674.73	34043.09
674.87	33858.19
675.01	33584.35
675.15	33804.36
675.29	33495.41
675.43	33654.56
675.56	33762.23
675.70	33448.60
675.84	33392.42
675.98	32641.11
676.12	33298.80
676.26	33254.33
676.40	33464.98
676.54	32488.98
676.68	32236.20
676.82	32416.42
676.96	32833.04
677.10	32783.88
677.23	32418.76
677.37	32381.31
677.51	32329.82
677.65	32215.13
677.79	32266.63
677.93	32116.83
678.07	32350.88
678.21	31810.22
678.34	31548.08
678.48	31288.28
678.62	31887.46
678.76	31222.75
678.90	31164.23
679.04	31356.16
679.18	31466.16
679.31	31094.02
679.45	31159.55
679.59	31159.55
679.73	30546.33
679.87	30113.33
680.00	30611.87
680.14	30635.27
680.28	30632.93
680.42	30291.21
680.56	30267.81
680.70	29788.00
680.83	29600.76
680.97	30087.59
681.11	30085.25
681.25	29490.75
681.39	29350.32
681.52	29675.65
681.66	29198.18
681.80	28718.37
681.94	28952.43
682.07	28891.57
682.21	29125.63
682.35	28835.40
682.49	28662.20
682.62	28769.86
682.76	28521.77
682.90	28687.95
683.04	28308.78
683.17	28376.66
683.31	28582.62
683.45	28194.09
683.59	27910.89
683.72	28119.20
683.86	27868.76
684.00	27887.48
684.13	27770.46
684.27	27281.28
684.41	27089.36
684.55	27513.00
684.68	27080.00
684.82	26904.46
684.96	26986.38
685.09	27166.60
685.23	27122.13
685.37	27487.25
685.50	27166.60
685.64	27140.85
685.78	26160.17
685.91	26508.91
686.05	26349.75
686.19	25982.29
686.32	26047.82
686.46	25745.89
686.60	25818.45
686.73	26024.42
686.87	26094.63
687.01	26242.09
687.14	25820.79
687.28	25558.65
687.42	25568.01
687.55	24884.58
687.69	25266.08
687.82	24711.38
687.96	25113.95
688.10	25076.50
688.23	24968.84
688.37	25048.41
688.50	25420.56
688.64	24751.17
688.78	24479.66
688.91	24421.15
689.05	24421.15
689.18	23969.43
689.32	23573.88
689.46	23810.27
689.59	23814.95
689.73	23927.30
689.86	23927.30
690.00	23742.39
690.13	23723.67
690.27	23637.07
690.41	23236.84
690.54	23342.16
690.68	23611.32
690.81	22663.41
690.95	22951.29
691.08	22892.78
691.22	22560.42
691.35	22705.54
691.49	22614.26
691.62	22801.50
691.76	22038.48
691.89	22167.21
692.03	21874.65
692.16	21834.86
692.30	22202.32
692.43	21806.77
692.57	21792.73
692.70	21895.71
692.84	21837.20
692.97	21652.30
693.11	21443.99
693.24	21263.77
693.38	21298.88
693.51	20800.34
693.65	21057.80
693.78	21099.93
693.92	20842.47
694.05	20688.00
694.19	20528.84
694.32	20704.38
694.45	21039.08
694.59	20397.77
694.72	20711.40
694.86	20521.82
694.99	20070.09
695.13	20255.00
695.26	19934.34
695.39	19789.23
695.53	19917.96
695.66	19814.98
695.80	19721.35
695.93	19775.19
696.07	19257.93
696.20	19007.49
696.33	19126.86
696.47	19054.30
696.60	18953.66
696.73	19000.47
696.87	19129.20
697.00	19058.98
697.14	18885.78
697.27	18656.41
697.40	18621.30
697.54	18497.25
697.67	18274.90
697.80	18295.97
697.94	18319.37
698.07	18204.69
698.21	18022.12
698.34	17977.65
698.47	18008.08
698.61	17624.23
698.74	17877.01
698.87	17708.49
699.01	17404.22
699.14	17664.02
699.27	17626.57
699.40	17598.49
699.54	17277.83
699.67	17167.83
699.80	17029.74
699.94	17034.42
700.07	17275.49
700.20	17247.41
700.34	16669.30
700.47	16704.40
700.60	16915.05
700.73	16702.06
700.87	16636.53
701.00	16343.96
701.13	16306.51
701.26	16194.17
701.40	16236.30
701.53	16243.32
701.66	16175.44
701.79	16145.02
701.93	15566.90
702.06	15679.25
702.19	15665.21
702.32	15510.73
702.46	15662.86
702.59	15681.59
702.72	15733.08
702.85	15538.82
702.99	15597.33
703.12	15316.47
703.25	15466.26
703.38	15150.29
703.51	14967.73
703.65	14916.23
703.78	14808.57
703.91	14637.71
704.04	14471.53
704.17	14497.28
704.31	14324.08
704.44	14546.43
704.57	14548.77
704.70	14216.41
704.83	14008.11
704.96	14061.94
705.10	14071.30
705.23	14099.39
>>>>>End Processed Spectral Data<<<<<
