SpectraSuite Data File
++++++++++++++++++++++++++++++++++++
Date: Fri Oct 25 11:33:47 EDT 2013
User: price-jones
Dark Spectrum Present: No
Reference Spectrum Present: No
Number of Sampled Component Spectra: 1
Spectrometers: USB2+H05261
Integration Time (usec): 100000 (USB2+H05261)
Spectra Averaged: 1 (USB2+H05261)
Boxcar Smoothing: 0 (USB2+H05261)
Correct for Electrical Dark: No (USB2+H05261)
Strobe/Lamp Enabled: No (USB2+H05261)
Correct for Detector Non-linearity: No (USB2+H05261)
Correct for Stray Light: No (USB2+H05261)
Number of Pixels in Processed Spectrum: 2048
>>>>>Begin Processed Spectral Data<<<<<
365.73	236.39
365.92	236.39
366.12	236.39
366.32	191.92
366.52	128.73
366.72	194.26
366.91	203.63
367.11	220.01
367.31	161.50
367.51	220.01
367.70	238.73
367.90	201.29
368.10	163.84
368.30	168.52
368.49	210.65
368.69	227.03
368.89	191.92
369.09	112.35
369.28	222.35
369.48	229.37
369.68	266.82
369.87	250.44
370.07	264.48
370.27	306.61
370.47	374.49
370.66	470.45
370.86	507.90
371.06	540.66
371.25	470.45
371.45	472.79
371.65	594.50
371.84	472.79
372.04	514.92
372.24	564.07
372.44	657.69
372.63	564.07
372.83	599.18
373.03	641.31
373.22	603.86
373.42	575.77
373.62	568.75
373.81	587.47
374.01	688.12
374.21	725.57
374.40	627.26
374.60	610.88
374.79	631.94
374.99	613.22
375.19	674.07
375.38	692.80
375.58	657.69
375.78	653.01
375.97	664.71
376.17	784.08
376.37	730.25
376.56	664.71
376.76	573.43
376.95	720.88
377.15	674.07
377.35	695.14
377.54	643.65
377.74	662.37
377.93	688.12
378.13	683.44
378.33	727.91
378.52	716.20
378.72	830.89
378.91	709.18
379.11	767.70
379.31	739.61
379.50	763.01
379.70	734.93
379.89	690.46
380.09	791.10
380.28	711.52
380.48	688.12
380.68	718.54
380.87	741.95
381.07	641.31
381.26	730.25
381.46	779.40
381.65	774.72
381.85	758.33
382.04	858.98
382.24	793.44
382.43	788.76
382.63	741.95
382.83	807.48
383.02	767.70
383.22	798.12
383.41	814.51
383.61	748.97
383.80	880.04
384.00	802.80
384.19	882.38
384.39	800.46
384.58	901.11
384.78	835.57
384.97	784.08
385.17	798.12
385.36	814.51
385.56	800.46
385.75	877.70
385.95	882.38
386.14	940.90
386.34	828.55
386.53	828.55
386.72	856.64
386.92	910.47
387.11	959.62
387.31	840.25
387.50	882.38
387.70	887.06
387.89	938.55
388.09	908.13
388.28	868.34
388.48	940.90
388.67	912.81
388.86	943.24
389.06	903.45
389.25	980.68
389.45	926.85
389.64	938.55
389.84	926.85
390.03	959.62
390.22	1086.01
390.42	976.00
390.61	950.26
390.81	945.58
391.00	1043.88
391.19	1039.20
391.39	1043.88
391.58	999.41
391.78	990.05
391.97	1088.35
392.16	1060.26
392.36	1086.01
392.55	1128.14
392.75	1015.79
392.94	1025.15
393.13	1032.18
393.33	1086.01
393.52	1135.16
393.71	1071.97
393.91	1111.75
394.10	983.02
394.29	1090.69
394.49	1170.27
394.68	1107.07
394.88	1163.25
395.07	1188.99
395.26	1107.07
395.46	1146.86
395.65	1153.88
395.84	1167.93
396.04	1224.10
396.23	1282.61
396.42	1235.80
396.62	1261.55
396.81	1191.33
397.00	1256.87
397.19	1181.97
397.39	1177.29
397.58	1259.21
397.77	1146.86
397.97	1238.14
398.16	1259.21
398.35	1313.04
398.55	1336.45
398.74	1341.13
398.93	1334.11
399.12	1303.68
399.32	1348.15
399.51	1409.00
399.70	1315.38
399.90	1364.53
400.09	1366.87
400.28	1441.77
400.47	1472.20
400.67	1420.71
400.86	1446.45
401.05	1558.80
401.24	1441.77
401.44	1446.45
401.63	1530.71
401.82	1591.56
402.01	1458.15
402.21	1453.47
402.40	1380.92
402.59	1458.15
402.78	1551.78
402.97	1497.94
403.17	1568.16
403.36	1542.41
403.55	1554.12
403.74	1570.50
403.93	1671.14
404.13	1629.01
404.32	1638.38
404.51	1586.88
404.70	1640.72
404.89	1596.25
405.09	1664.12
405.28	1668.80
405.47	1715.61
405.66	1629.01
405.85	1762.42
406.05	1743.70
406.24	1685.19
406.43	1849.02
406.62	1846.68
406.81	1837.32
407.00	1820.94
407.20	1668.80
407.39	1732.00
407.58	1863.07
407.77	1785.83
407.96	1823.28
408.15	1987.11
408.34	1813.92
408.54	1973.07
408.73	1923.92
408.92	1956.69
409.11	1909.88
409.30	1947.33
409.49	1863.07
409.68	1987.11
409.87	2050.31
410.07	2050.31
410.26	2008.18
410.45	2040.95
410.64	2136.91
410.83	2085.42
411.02	2165.00
411.21	2225.85
411.40	2134.57
411.59	2125.21
411.78	2120.53
411.98	2200.10
412.17	2195.42
412.36	2221.17
412.55	2246.91
412.74	2310.11
412.93	2300.75
413.12	2490.33
413.31	2335.85
413.50	2532.46
413.69	2373.30
413.88	2487.99
414.07	2476.29
414.26	2520.76
414.45	2593.31
414.64	2609.70
414.83	2626.08
415.02	2537.14
415.22	2619.06
415.41	2626.08
415.60	2640.12
415.79	2616.72
415.98	2757.15
416.17	2771.19
416.36	2644.81
416.55	2801.62
416.74	2803.96
416.93	2768.85
417.12	2874.18
417.31	2848.43
417.50	2899.92
417.69	2888.22
417.88	3000.57
418.07	2918.65
418.26	2897.58
418.45	2995.89
418.64	3084.83
418.83	3112.91
419.02	2970.14
419.21	3133.98
419.39	3169.09
419.58	3014.61
419.77	3068.44
419.96	3150.36
420.15	3061.42
420.34	3211.22
420.53	3126.96
420.72	3173.77
420.91	3229.94
421.10	3138.66
421.29	3328.24
421.48	3248.66
421.67	3283.77
421.86	3349.31
422.05	3258.03
422.24	3241.64
422.43	3391.44
422.61	3365.69
422.80	3375.05
422.99	3454.63
423.18	3428.88
423.37	3375.05
423.56	3400.80
423.75	3473.36
423.94	3265.05
424.13	3239.30
424.32	3225.26
424.50	3403.14
424.69	3592.72
424.88	3644.21
425.07	3353.99
425.26	3475.70
425.45	3410.16
425.64	3356.33
425.83	3375.05
426.01	3361.01
426.20	3503.78
426.39	3506.12
426.58	3433.57
426.77	3529.53
426.96	3534.21
427.15	3534.21
427.33	3648.90
427.52	3733.15
427.71	3791.67
427.90	3646.55
428.09	3637.19
428.28	3822.09
428.46	3644.21
428.65	3604.42
428.84	3875.93
429.03	3791.67
429.22	3630.17
429.40	3873.59
429.59	3824.44
429.78	3583.36
429.97	3726.13
430.16	3770.60
430.34	3744.86
430.53	3864.22
430.72	3868.91
430.91	3913.38
431.10	3836.14
431.28	3985.93
431.47	3929.76
431.66	4067.85
431.85	3983.59
432.03	4131.05
432.22	4025.72
432.41	4025.72
432.60	4056.15
432.79	4007.00
432.97	4004.66
433.16	4133.39
433.35	4086.58
433.54	4262.12
433.72	4215.30
433.91	4224.67
434.10	4322.97
434.28	4224.67
434.47	4152.11
434.66	4287.86
434.85	4301.90
435.03	4341.69
435.22	4229.35
435.41	4395.53
435.59	4425.95
435.78	4463.40
435.97	4402.55
436.16	4383.82
436.34	4372.12
436.53	4521.92
436.72	4442.34
436.90	4479.79
437.09	4540.64
437.28	4519.57
437.46	4353.40
437.65	4470.42
437.84	4535.96
438.02	4617.88
438.21	4681.07
438.40	4528.94
438.58	4807.46
438.77	4875.34
438.96	4753.63
439.14	4788.74
439.33	4983.00
439.52	4973.64
439.70	4971.30
439.89	4917.47
440.08	4954.91
440.26	5020.45
440.45	4994.70
440.63	5149.18
440.82	5331.74
441.01	5085.98
441.19	5228.76
441.38	5252.16
441.57	5287.27
441.75	5308.34
441.94	5247.48
442.12	5259.18
442.31	5432.38
442.50	5462.81
442.68	5502.60
442.87	5441.75
443.05	5603.24
443.24	5605.58
443.43	5526.00
443.61	5535.37
443.80	5678.14
443.98	5511.96
444.17	5408.98
444.35	5444.09
444.54	5504.94
444.73	5713.25
444.91	5633.67
445.10	5598.56
445.28	5708.57
445.47	5423.02
445.65	5703.89
445.84	5841.98
446.02	5792.83
446.21	5734.31
446.39	5685.16
446.58	5767.08
446.77	5846.66
446.95	5682.82
447.14	5675.80
447.32	5881.77
447.51	5699.20
447.69	5760.06
447.88	5811.55
448.06	5930.92
448.25	5881.77
448.43	5893.47
448.62	5785.80
448.80	5731.97
448.99	5968.37
449.17	5858.36
449.36	5853.68
449.54	6104.12
449.73	6181.35
449.91	6101.78
450.10	6059.65
450.28	6153.27
450.46	6211.78
450.65	6258.59
450.83	6272.64
451.02	6092.41
451.20	6303.06
451.39	6244.55
451.57	6305.40
451.76	6457.54
451.94	6251.57
452.13	6349.87
452.31	6183.70
452.49	6167.31
452.68	6237.53
452.86	6284.34
453.05	6466.90
453.23	6373.28
453.42	6445.84
453.60	6298.38
453.78	6392.00
453.97	6349.87
454.15	6480.94
454.34	6436.47
454.52	6338.17
454.70	6593.29
454.89	6614.35
455.07	6743.08
455.26	6509.03
455.44	6679.89
455.62	6642.44
455.81	6864.79
455.99	6778.19
456.17	6803.94
456.36	6820.32
456.54	6864.79
456.73	6918.62
456.91	6986.50
457.09	6951.39
457.28	7028.63
457.46	7045.01
457.64	7208.85
457.83	7056.72
458.01	7108.21
458.19	7405.46
458.38	7030.97
458.56	7229.91
458.74	7283.75
458.93	7260.34
459.11	7176.08
459.29	7155.02
459.48	7318.86
459.66	7225.23
459.84	7403.11
460.03	7372.69
460.21	7407.80
460.39	7412.48
460.57	7508.44
460.76	7459.29
460.94	7447.58
461.12	7545.89
461.31	7756.54
461.49	7581.00
461.67	7386.73
461.85	7679.30
462.04	7742.49
462.22	8023.36
462.40	7735.47
462.59	7831.43
462.77	7740.15
462.95	7939.10
463.13	7695.68
463.32	7852.50
463.50	7726.11
463.68	8011.65
463.86	7981.23
464.05	7808.03
464.23	7957.82
464.41	7864.20
464.59	7838.45
464.78	8056.12
464.96	8032.72
465.14	7939.10
465.32	7875.90
465.50	8224.64
465.69	8102.93
465.87	8018.68
466.05	8358.05
466.23	8116.98
466.41	8241.03
466.60	8442.31
466.78	8318.26
466.96	8273.79
467.14	8222.30
467.32	8430.61
467.51	8500.83
467.69	8180.17
467.87	8425.93
468.05	8531.25
468.23	8271.45
468.41	8219.96
468.60	8643.60
468.78	8486.78
468.96	8428.27
469.14	8437.63
469.32	8608.49
469.50	8386.14
469.69	8795.73
469.87	8777.01
470.05	8746.58
470.23	8938.51
470.41	8589.77
470.59	8898.72
470.77	8891.70
470.95	8821.48
471.14	9252.14
471.32	8835.52
471.50	9137.45
471.68	8975.95
471.86	9172.56
472.04	9067.24
472.22	9350.44
472.40	8943.19
472.58	9231.07
472.77	9252.14
472.95	9390.23
473.13	9657.05
473.31	9312.99
473.49	9355.12
473.67	9315.33
473.85	9500.23
474.03	9846.63
474.21	9895.78
474.39	9699.18
474.57	9762.37
474.75	9900.47
474.93	9928.55
475.12	10104.09
475.30	10136.86
475.48	10214.10
475.66	9933.23
475.84	10045.58
476.02	10183.67
476.20	10289.00
476.38	10331.12
476.56	10640.08
476.74	10555.82
476.92	10644.76
477.10	10710.29
477.28	10689.23
477.46	10733.70
477.64	10656.46
477.82	10965.41
478.00	11094.14
478.18	11122.23
478.36	11178.40
478.54	11375.00
478.72	11424.15
478.90	11555.22
479.08	11775.24
479.26	11531.82
479.44	11620.76
479.62	11826.73
479.80	11866.52
479.98	12107.59
480.16	12074.82
480.34	11894.60
480.52	12255.04
480.70	12482.08
480.88	12414.20
481.06	12287.81
481.24	12538.25
481.41	12655.28
481.59	12886.99
481.77	12919.76
481.95	12894.01
482.13	13235.73
482.31	13156.15
482.49	13336.37
482.67	13099.98
482.85	13504.89
483.03	13516.59
483.21	13722.56
483.39	13755.33
483.57	13738.94
483.74	14012.79
483.92	13860.65
484.10	14036.19
484.28	14237.48
484.46	14724.31
484.64	14635.37
484.82	14913.89
485.00	14600.26
485.18	14867.08
485.35	15211.14
485.53	15040.28
485.71	15236.89
485.89	15417.11
486.07	15300.08
486.25	15599.67
486.43	15653.50
486.61	15707.34
486.78	15719.04
486.96	15967.13
487.14	16079.48
487.32	16383.75
487.50	16594.40
487.68	16552.27
487.85	16554.61
488.03	16961.86
488.21	17013.35
488.39	17020.38
488.57	17359.75
488.75	17221.66
488.92	17518.91
489.10	17397.20
489.28	17661.68
489.46	17900.42
489.64	17729.56
489.81	18185.96
489.99	18492.57
490.17	18118.09
490.35	18494.91
490.53	18459.81
490.70	18696.20
490.88	18675.13
491.06	18932.59
491.24	18925.57
491.41	19211.12
491.59	19328.14
491.77	19009.83
491.95	19473.26
492.13	19646.46
492.30	19477.94
492.48	19894.55
492.66	19871.15
492.84	20133.29
493.01	20212.87
493.19	19992.86
493.37	20545.22
493.54	20421.17
493.72	20720.76
493.90	20950.14
494.08	20570.97
494.25	21263.77
494.43	21198.23
494.61	20971.20
494.79	21102.27
494.96	21324.62
495.14	21376.11
495.32	21645.27
495.49	21848.90
495.67	22132.11
495.85	21893.37
496.02	22022.10
496.20	22143.81
496.38	22335.73
496.55	22602.55
496.73	22813.20
496.91	22817.88
497.09	22885.76
497.26	23023.85
497.44	22927.89
497.62	22754.69
497.79	23372.59
497.97	23316.42
498.14	23608.98
498.32	23789.20
498.50	23793.89
498.67	24093.47
498.85	23999.85
499.03	24318.17
499.20	24315.83
499.38	23943.68
499.56	24285.40
499.73	24664.57
499.91	24690.31
500.08	24751.17
500.26	24849.47
500.44	24819.04
500.61	24800.32
500.79	25092.88
500.97	25060.12
501.14	25532.90
501.32	25511.84
501.49	25312.89
501.67	25310.55
501.84	25937.82
502.02	25528.22
502.20	26267.83
502.37	25956.54
502.55	26183.57
502.72	26185.91
502.90	25909.73
503.07	26178.89
503.25	26366.13
503.43	26071.23
503.60	26354.43
503.78	26625.93
503.95	26909.14
504.13	26778.07
504.30	26740.62
504.48	26544.02
504.65	26855.31
504.83	27054.25
505.01	27182.98
505.18	27283.62
505.36	27417.04
505.53	27037.87
505.71	27594.92
505.88	27426.40
506.06	27227.45
506.23	27667.47
506.41	27866.42
506.58	27793.86
506.76	27969.40
506.93	27990.47
507.11	27667.47
507.28	27999.83
507.46	28238.56
507.63	28599.01
507.81	28823.70
507.98	28463.25
508.16	28453.89
508.33	28718.37
508.50	28741.78
508.68	28877.53
508.85	29102.22
509.03	28783.91
509.20	29125.63
509.38	29420.53
509.55	29120.95
509.73	29741.19
509.90	29326.91
510.08	29366.70
510.25	29610.12
510.42	29610.12
510.60	29893.32
510.77	29879.28
510.95	29907.37
511.12	30153.12
511.30	29652.25
511.47	30525.27
511.64	30242.06
511.82	30125.04
511.99	30548.67
512.17	30668.04
512.34	30272.49
512.51	30862.30
512.69	31147.85
512.86	30841.24
513.04	31307.01
513.21	30862.30
513.38	30941.88
513.56	31274.24
513.73	31058.91
513.90	30899.75
514.08	31220.41
514.25	31674.47
514.43	31676.81
514.60	31754.05
514.77	31899.16
514.95	31737.66
515.12	31475.52
515.29	31887.46
515.47	32432.80
515.64	32123.85
515.81	32114.49
515.99	32119.17
516.16	32247.90
516.33	32112.15
516.51	32744.09
516.68	32311.10
516.85	32514.72
517.03	32606.00
517.20	32308.76
517.37	33020.28
517.54	32996.87
517.72	32617.71
517.89	32788.56
518.06	33139.65
518.24	33036.66
518.41	32924.32
518.58	33081.13
518.75	33024.96
518.93	33429.87
519.10	33427.53
519.27	33453.28
519.45	33876.91
519.62	33727.12
519.79	33703.71
519.96	33582.01
520.14	33736.48
520.31	33991.60
520.48	34195.23
520.65	34218.63
520.83	34462.05
521.00	34724.19
521.17	34178.84
521.34	34541.63
521.52	34644.61
521.69	34410.56
521.86	34696.10
522.03	34876.32
522.20	35098.67
522.38	35089.31
522.55	34604.82
522.72	34792.06
522.89	35040.16
523.07	35503.59
523.24	35159.53
523.41	35665.08
523.58	35037.82
523.75	35445.07
523.92	35550.40
524.10	35508.27
524.27	35573.80
524.44	35700.19
524.61	35681.47
524.78	35892.12
524.96	36116.81
525.13	36306.39
525.30	36664.49
525.47	36488.95
525.64	35894.46
525.81	36182.34
525.98	36353.20
526.16	36416.40
526.33	36123.83
526.50	36868.12
526.67	36219.79
526.84	36584.91
527.01	36837.69
527.18	36987.49
527.36	36786.20
527.53	37518.79
527.70	37312.82
527.87	37242.60
528.04	37378.36
528.21	37228.56
528.38	36896.20
528.55	37165.37
528.72	37404.10
528.89	37031.96
529.07	37345.59
529.24	37415.80
529.41	37195.79
529.58	37251.97
529.75	37752.84
529.92	37610.07
530.09	38167.12
530.26	37710.71
530.43	37666.24
530.60	37818.38
530.77	37825.40
530.94	37851.14
531.11	37680.28
531.28	38529.90
531.46	38389.47
531.63	38181.16
531.80	38136.69
531.97	38888.00
532.14	38927.79
532.31	38270.10
532.48	38349.68
532.65	38553.30
532.82	38429.26
532.99	38394.15
533.16	38305.21
533.33	38944.17
533.50	38635.22
533.67	38981.62
533.84	38658.63
534.01	38983.96
534.18	38960.56
534.35	39161.84
534.52	39098.65
534.69	39276.53
534.86	39276.53
535.03	38974.60
535.20	39491.86
535.37	39555.05
535.54	39721.23
535.71	39590.16
535.88	39777.40
536.05	39922.52
536.22	40156.57
536.38	39653.36
536.55	39632.29
536.72	39889.75
536.89	39693.15
537.06	39578.46
537.23	40259.55
537.40	39966.99
537.57	39974.01
537.74	39985.71
537.91	40292.32
538.08	40119.12
538.25	39859.32
538.42	39983.37
538.59	40727.66
538.75	39885.07
538.92	40229.13
539.09	40727.66
539.26	40467.86
539.43	40158.91
539.60	40414.03
539.77	40437.44
539.94	40851.71
540.11	40830.65
540.28	41137.26
540.44	40964.06
540.61	41109.17
540.78	40847.03
540.95	41153.64
541.12	40563.82
541.29	40989.80
541.46	40989.80
541.62	41282.37
541.79	41399.40
541.96	40737.02
542.13	40641.06
542.30	41514.08
542.47	41071.72
542.63	41240.24
542.80	41818.35
542.97	42047.72
543.14	42171.77
543.31	41851.12
543.48	41696.64
543.64	41862.82
543.81	41825.37
543.98	41902.61
544.15	42017.30
544.32	42295.82
544.48	42689.03
544.65	42321.57
544.82	42106.24
544.99	42181.13
545.16	42239.65
545.32	42150.71
545.49	42653.92
545.66	42438.59
545.83	42890.32
546.00	42511.15
546.16	42766.27
546.33	42244.33
546.50	42607.11
546.67	42946.49
546.83	42459.66
547.00	42597.75
547.17	42906.70
547.34	42623.50
547.50	42965.21
547.67	43311.61
547.84	42705.41
548.00	43040.11
548.17	43587.80
548.34	43131.39
548.51	43335.02
548.67	43208.63
548.84	43477.79
549.01	43643.97
549.18	43206.29
549.34	43281.19
549.51	43278.85
549.68	43606.52
549.84	43276.51
550.01	43700.14
550.18	43351.40
550.34	43707.16
550.51	44098.03
550.68	43831.21
550.84	43426.30
551.01	44069.95
551.18	43597.16
551.34	43604.18
551.51	43931.86
551.68	43662.69
551.84	43578.43
552.01	44095.69
552.18	44215.06
552.34	43992.71
552.51	43875.68
552.68	43978.67
552.84	44346.13
553.01	43735.25
553.18	44404.64
553.34	44177.61
553.51	43871.00
553.67	44428.05
553.84	44392.94
554.01	44493.58
554.17	44648.06
554.34	45008.50
554.51	44304.00
554.67	45017.86
554.84	44767.43
555.00	44524.01
555.17	44650.40
555.33	44570.82
555.50	44601.25
555.67	44341.45
555.83	44708.91
556.00	45024.89
556.16	44996.80
556.33	45172.34
556.50	45095.10
556.66	44706.57
556.83	44683.17
556.99	44964.03
557.16	45312.77
557.32	45380.65
557.49	45698.96
557.65	45017.86
557.82	44739.34
557.98	45088.08
558.15	44898.50
558.32	45390.01
558.48	45366.60
558.65	45382.99
558.81	45029.57
558.98	45069.36
559.14	45141.91
559.31	45277.66
559.47	45198.09
559.64	45427.46
559.80	45464.91
559.97	45593.64
560.13	45394.69
560.30	45434.48
560.46	45783.22
560.63	45560.87
560.79	45794.92
560.96	45558.53
561.12	45612.36
561.29	45429.80
561.45	45963.44
561.61	45647.47
561.78	45549.17
561.94	45797.26
562.11	45844.07
562.27	45731.73
562.44	45790.24
562.60	45806.62
562.77	46038.34
562.93	45970.46
563.10	46031.32
563.26	45801.94
563.42	46417.50
563.59	45797.26
563.75	45656.83
563.92	45904.93
564.08	46014.93
564.24	46071.10
564.41	45937.69
564.57	46258.35
564.74	46021.95
564.90	45862.80
565.07	46071.10
565.23	46272.39
565.39	46251.33
565.56	46358.99
565.72	46291.12
565.88	46546.23
566.05	46457.29
566.21	46244.30
566.38	46017.27
566.54	46543.89
566.70	46300.48
566.87	46546.23
567.03	45942.38
567.19	46436.23
567.36	46354.31
567.52	46401.12
567.68	46075.79
567.85	46607.09
568.01	46094.51
568.17	46471.34
568.34	46298.14
568.50	46630.49
568.66	46721.77
568.83	46583.68
568.99	46656.24
569.15	46213.88
569.32	46733.48
569.48	46429.21
569.64	46864.55
569.81	46445.59
569.97	46724.11
570.13	46672.62
570.30	46169.41
570.46	46742.84
570.62	46586.02
570.78	46616.45
570.95	46590.70
571.11	46775.61
571.27	46553.26
571.43	46387.08
571.60	47210.95
571.76	46632.83
571.92	46878.59
572.09	46469.00
572.25	46916.04
572.41	46424.53
572.57	46766.24
572.74	47194.56
572.90	46546.23
573.06	46614.11
573.22	47035.41
573.38	46904.34
573.55	46904.34
573.71	47330.31
573.87	47012.00
574.03	47213.29
574.20	47100.94
574.36	46806.03
574.52	47164.14
574.68	46862.21
574.84	47192.22
575.01	47433.30
575.17	46749.86
575.33	46995.62
575.49	47201.58
575.65	46813.05
575.82	47002.64
575.98	47119.66
576.14	47147.75
576.30	46838.80
576.46	46852.84
576.62	47056.47
576.79	47065.83
576.95	46710.07
577.11	46930.08
577.27	47042.43
577.43	47026.04
577.59	46972.21
577.75	46791.99
577.92	46789.65
578.08	47276.48
578.24	47248.39
578.40	47166.48
578.56	47084.56
578.72	46857.52
578.88	47107.96
579.04	47681.39
579.21	46787.31
579.37	47100.94
579.53	47313.93
579.69	47107.96
579.85	46761.56
580.01	47173.50
580.17	47154.77
580.33	47339.68
580.49	47093.92
580.65	47435.64
580.82	47182.86
580.98	46822.42
581.14	47393.51
581.30	47346.70
581.46	47243.71
581.62	47508.19
581.78	47056.47
581.94	47124.35
582.10	47056.47
582.26	47395.85
582.42	47419.25
582.58	47316.27
582.74	46946.47
582.90	47461.38
583.06	47262.44
583.22	47035.41
583.38	47058.81
583.54	47468.40
583.70	47454.36
583.86	47657.99
584.02	47000.30
584.18	47831.19
584.34	47826.51
584.50	47812.46
584.66	47571.39
584.82	47250.74
584.98	47669.69
585.14	47473.09
585.30	47215.63
585.46	47430.96
585.62	47285.84
585.78	47276.48
585.94	47407.55
586.10	47019.02
586.26	46827.10
586.42	47189.88
586.58	47611.18
586.74	47459.04
586.90	47194.56
587.06	47407.55
587.22	47643.94
587.38	47023.70
587.54	47824.17
587.70	47711.82
587.86	47955.24
588.02	47325.63
588.18	47393.51
588.34	47344.36
588.49	47580.75
588.65	47697.78
588.81	47611.18
588.97	47477.77
589.13	47281.16
589.29	47662.67
589.45	47723.52
589.61	47990.34
589.77	47812.46
589.93	47711.82
590.08	47730.54
590.24	47604.16
590.40	48165.88
590.56	48219.72
590.72	47798.42
590.88	47566.71
591.04	47524.58
591.20	48004.39
591.35	48090.99
591.51	48128.44
591.67	48144.82
591.83	48444.41
591.99	48074.60
592.15	48006.73
592.31	47601.82
592.46	47629.90
592.62	47775.02
592.78	48016.09
592.94	48245.46
593.10	48172.91
593.26	48168.22
593.41	48189.29
593.57	48299.30
593.73	48294.61
593.89	48048.86
594.05	48189.29
594.20	47730.54
594.36	48395.26
594.52	48261.85
594.68	47971.62
594.84	48055.88
594.99	48421.00
595.15	48123.75
595.31	48549.73
595.47	48336.74
595.62	47849.91
595.78	48034.81
595.94	48467.81
596.10	47901.40
596.25	48172.91
596.41	48308.66
596.57	48058.22
596.73	48004.39
596.88	48378.87
597.04	48233.76
597.20	47880.34
597.36	48205.67
597.51	48421.00
597.67	48100.35
597.83	48392.92
597.99	48123.75
598.14	48439.73
598.30	48119.07
598.46	48210.35
598.61	48219.72
598.77	48339.08
598.93	48512.28
599.09	48233.76
599.24	48648.03
599.40	48055.88
599.56	48285.25
599.71	48788.47
599.87	48919.54
600.03	48601.22
600.18	48222.06
600.34	48385.89
600.50	48245.46
600.65	48037.16
600.81	48545.05
600.97	48788.47
601.12	48528.67
601.28	48540.37
601.44	48545.05
601.59	48413.98
601.75	47992.68
601.91	48505.26
602.06	48090.99
602.22	48601.22
602.37	47896.72
602.53	48212.70
602.69	48479.52
602.84	48266.53
603.00	48254.82
603.16	48346.11
603.31	48332.06
603.47	48547.39
603.62	48299.30
603.78	48334.40
603.94	48154.18
604.09	48058.22
604.25	48329.72
604.40	48385.89
604.56	48247.80
604.71	49069.33
604.87	48196.31
605.03	48552.07
605.18	48095.67
605.34	48664.42
605.49	47718.84
605.65	48245.46
605.80	48355.47
605.96	48023.11
606.12	48156.52
606.27	48147.16
606.43	48048.86
606.58	48308.66
606.74	48203.33
606.89	47868.64
607.05	48507.60
607.20	48250.14
607.36	48144.82
607.51	48432.71
607.67	47957.58
607.82	48076.94
607.98	48521.65
608.13	48062.90
608.29	48322.70
608.44	48311.00
608.60	48027.79
608.75	47915.45
608.91	48254.82
609.06	48116.73
609.22	48369.51
609.37	48226.74
609.53	48254.82
609.68	48378.87
609.84	47732.89
609.99	48105.03
610.15	48172.91
610.30	48030.13
610.46	48048.86
610.61	48018.43
610.76	48329.72
610.92	47732.89
611.07	48191.63
611.23	47601.82
611.38	48090.99
611.54	47873.32
611.69	48278.23
611.84	47697.78
612.00	47842.89
612.15	47875.66
612.31	47985.66
612.46	47306.91
612.62	47494.15
612.77	47730.54
612.92	47849.91
613.08	47646.29
613.23	47533.94
613.39	47646.29
613.54	47564.37
613.69	48147.16
613.85	47426.28
614.00	47793.74
614.15	47920.13
614.31	47718.84
614.46	47716.50
614.62	47547.98
614.77	47779.70
614.92	47445.00
615.08	47789.06
615.23	47688.42
615.38	47730.54
615.54	47592.45
615.69	47753.95
615.84	47625.22
616.00	47545.64
616.15	47625.22
616.30	47278.82
616.46	47639.26
616.61	47484.79
616.76	47744.59
616.92	47180.52
617.07	47632.24
617.22	47274.14
617.37	46803.69
617.53	47571.39
617.68	47330.31
617.83	47550.32
617.99	47445.00
618.14	47161.79
618.29	47171.16
618.45	47124.35
618.60	47178.18
618.75	47028.38
618.90	46937.10
619.06	46920.72
619.21	47154.77
619.36	47515.22
619.51	47019.02
619.67	46780.29
619.82	46871.57
619.97	47201.58
620.12	46810.71
620.28	47004.98
620.43	47192.22
620.58	47154.77
620.73	46883.27
620.89	47409.89
621.04	47049.45
621.19	47019.02
621.34	46916.04
621.49	46595.38
621.65	47110.30
621.80	46745.18
621.95	46923.06
622.10	46878.59
622.25	46913.70
622.41	46909.02
622.56	46707.73
622.71	46801.35
622.86	46916.04
623.01	46927.74
623.16	46693.69
623.32	46454.95
623.47	46988.60
623.62	46864.55
623.77	46244.30
623.92	46632.83
624.07	46195.15
624.23	46864.55
624.38	46740.50
624.53	46534.53
624.68	46099.19
624.83	46506.44
624.98	46415.16
625.13	46267.71
625.29	46258.35
625.44	46796.67
625.59	46394.10
625.74	46461.97
625.89	45759.81
626.04	45972.80
626.19	45993.87
626.34	45827.69
626.49	46218.56
626.65	45762.15
626.80	45958.76
626.95	45839.39
627.10	45741.09
627.25	46192.81
627.40	45923.65
627.55	45918.97
627.70	45769.18
627.85	45989.19
628.00	46361.33
628.15	46024.29
628.30	45532.78
628.45	45443.84
628.60	45537.46
628.76	45535.12
628.91	45900.25
629.06	45640.45
629.21	45544.48
629.36	45649.81
629.51	45528.10
629.66	45827.69
629.81	45439.16
629.96	45523.42
630.11	45249.58
630.26	45001.48
630.41	45298.73
630.56	45151.27
630.71	45041.27
630.86	45265.96
631.01	45261.28
631.16	44825.94
631.31	45488.31
631.46	44954.67
631.61	45422.78
631.76	45338.52
631.91	45521.08
632.06	45413.41
632.21	45324.47
632.36	45516.40
632.51	45193.40
632.66	45390.01
632.81	45113.83
632.96	45191.06
633.10	44793.17
633.25	45364.26
633.40	44889.13
633.55	45268.30
633.70	45298.73
633.85	44940.63
634.00	45038.93
634.15	44774.45
634.30	44664.44
634.45	44652.74
634.60	44804.88
634.75	45083.40
634.90	44928.92
635.05	44825.94
635.19	44786.15
635.34	44722.96
635.49	44374.22
635.64	44547.42
635.79	44699.55
635.94	45186.38
636.09	44547.42
636.24	44781.47
636.39	44549.76
636.53	44772.11
636.68	44409.32
636.83	44247.83
636.98	44222.08
637.13	43824.19
637.28	44416.35
637.43	44343.79
637.57	44320.38
637.72	44198.68
637.87	44364.85
638.02	44439.75
638.17	44315.70
638.32	44058.24
638.46	43950.58
638.61	43746.95
638.76	44048.88
638.91	43978.67
639.06	44287.62
639.20	43674.40
639.35	43988.03
639.50	43412.26
639.65	44088.67
639.80	44467.84
639.94	44259.53
640.09	43981.01
640.24	44243.15
640.39	43459.07
640.54	43313.95
640.68	43798.44
640.83	44285.28
640.98	43491.83
641.13	44116.76
641.27	44065.27
641.42	44142.50
641.57	43845.26
641.72	43601.84
641.86	43868.66
642.01	43133.73
642.16	43412.26
642.31	42916.06
642.45	43753.97
642.60	43189.91
642.75	43538.65
642.90	43412.26
643.04	43625.25
643.19	43414.60
643.34	42834.14
643.48	43522.26
643.63	43339.70
643.78	43566.73
643.93	43482.47
644.07	43442.68
644.22	43133.73
644.37	42789.67
644.51	43402.89
644.66	43033.09
644.81	42944.15
644.95	43131.39
645.10	43007.34
645.25	42909.04
645.39	42660.94
645.54	43201.61
645.69	42405.83
645.83	42316.89
645.98	42471.36
646.13	42639.88
646.27	42934.79
646.42	42476.04
646.57	42759.25
646.71	42932.45
646.86	42574.34
647.00	42759.25
647.15	42747.54
647.30	43005.00
647.44	42389.44
647.59	42445.62
647.74	42909.04
647.88	42618.81
648.03	42864.57
648.17	42759.25
648.32	43033.09
648.47	42658.60
648.61	42543.92
648.76	42464.34
648.90	42443.27
649.05	42127.30
649.20	42223.26
649.34	42445.62
649.49	42548.60
649.63	42480.72
649.78	42492.43
649.92	42719.46
650.07	42979.26
650.21	42609.45
650.36	42171.77
650.51	42396.46
650.65	42541.58
650.80	42279.44
650.94	42162.41
651.09	41860.48
651.23	41729.41
651.38	41703.67
651.52	41956.44
651.67	41839.42
651.81	41935.38
651.96	41647.49
652.10	41530.47
652.25	41411.10
652.39	41846.44
652.54	42092.19
652.68	41647.49
652.83	41879.21
652.97	41797.29
653.12	41523.44
653.26	41769.20
653.41	41598.34
653.55	41647.49
653.70	42272.42
653.84	42066.45
653.99	42237.31
654.13	41645.15
654.27	41539.83
654.42	41586.64
654.56	41174.70
654.71	41926.02
654.85	41209.81
655.00	41780.90
655.14	41242.58
655.29	41617.07
655.43	42216.24
655.57	41471.95
655.72	41460.25
655.86	41043.63
656.01	41132.57
656.15	40701.92
656.30	41308.11
656.44	41275.35
656.58	41069.38
656.73	41446.21
656.87	40734.68
657.01	40631.70
657.16	40774.47
657.30	41209.81
657.45	41172.36
657.59	40882.14
657.73	40399.99
657.88	40612.98
658.02	41322.16
658.16	40952.35
658.31	40870.43
658.45	41045.97
658.60	40650.42
658.74	40432.75
658.88	40364.88
659.03	40655.11
659.17	40453.82
659.31	40411.69
659.46	40240.83
659.60	40451.48
659.74	40477.22
659.89	40261.90
660.03	39601.86
660.17	40231.47
660.32	40444.46
660.46	40074.65
660.60	39754.00
660.74	39882.73
660.89	40196.36
661.03	39725.91
661.17	39365.47
661.32	39192.27
661.46	39735.27
661.60	39515.26
661.74	39723.57
661.89	39541.01
662.03	39299.94
662.17	39168.87
662.31	39517.60
662.46	39700.17
662.60	39431.01
662.74	39241.42
662.88	39082.27
663.03	38813.10
663.17	38955.88
663.31	38721.82
663.45	38836.51
663.60	39061.20
663.74	39288.23
663.88	39084.61
664.02	38560.33
664.17	39145.46
664.31	38714.80
664.45	38686.71
664.59	38848.21
664.73	38323.93
664.88	38466.70
665.02	38682.03
665.16	38270.10
665.30	38628.20
665.44	38368.40
665.59	38316.91
665.73	37895.61
665.87	37778.59
666.01	38330.95
666.15	37818.38
666.29	37677.94
666.44	38279.46
666.58	38050.09
666.72	37696.67
666.86	37890.93
667.00	37951.79
667.14	37689.65
667.28	37549.21
667.43	37549.21
667.57	37546.87
667.71	37366.65
667.85	37376.01
667.99	37773.91
668.13	37357.29
668.27	37144.30
668.41	37153.66
668.56	36957.06
668.70	36968.76
668.84	36643.43
668.98	36849.39
669.12	36910.25
669.26	36392.99
669.40	36964.08
669.54	36814.29
669.68	36605.98
669.82	36355.54
669.96	36495.97
670.10	35824.24
670.25	36287.67
670.39	36123.83
670.53	36135.53
670.67	36168.30
670.81	36425.76
670.95	36172.98
671.09	35732.96
671.23	35597.21
671.37	35688.49
671.51	35548.06
671.65	35498.91
671.79	35526.99
671.93	35592.53
672.07	35489.54
672.21	35515.29
672.35	35311.66
672.49	35189.95
672.63	35204.00
672.77	34778.02
672.91	35461.46
673.05	34773.34
673.19	35316.34
673.33	34646.95
673.47	34740.57
673.61	34864.62
673.75	34583.76
673.89	34560.35
674.03	34410.56
674.17	34136.71
674.31	34043.09
674.45	34110.97
674.59	33989.26
674.73	34244.38
674.87	33762.23
675.01	33483.70
675.15	33607.75
675.29	33329.23
675.43	33713.08
675.56	33500.09
675.70	33659.24
675.84	33027.30
675.98	32114.49
676.12	33310.50
676.26	33151.35
676.40	33113.90
676.54	32793.25
676.68	32828.35
676.82	32538.13
676.96	32910.27
677.10	32549.83
677.23	32261.94
677.37	32680.90
677.51	32615.37
677.65	32063.00
677.79	32231.52
677.93	31969.38
678.07	31674.47
678.21	31847.67
678.34	31431.05
678.48	31374.88
678.62	31159.55
678.76	31105.72
678.90	31445.10
679.04	31255.51
679.18	31496.59
679.31	31096.36
679.45	30976.99
679.59	30487.82
679.73	30955.93
679.87	30412.92
680.00	30541.65
680.14	30391.86
680.28	30394.20
680.42	30251.42
680.56	30363.77
680.70	29916.73
680.83	30270.15
680.97	29926.09
681.11	29736.51
681.25	29422.87
681.39	29645.23
681.52	29598.41
681.66	28933.70
681.80	28657.52
681.94	28716.03
682.07	28636.45
682.21	28833.06
682.35	28606.03
682.49	28774.55
682.62	28790.93
682.76	28470.28
682.90	28573.26
683.04	28645.82
683.17	28451.55
683.31	28168.35
683.45	28088.77
683.59	28048.98
683.72	27318.73
683.86	27960.04
684.00	27632.36
684.13	27885.14
684.27	27330.44
684.41	27337.46
684.55	27309.37
684.68	27269.58
684.82	26925.52
684.96	26834.24
685.09	26817.86
685.23	27023.83
685.37	27316.39
685.50	27082.34
685.64	27023.83
685.78	26307.62
685.91	26462.10
686.05	26314.64
686.19	25663.97
686.32	26111.02
686.46	25895.69
686.60	25539.93
686.73	26204.64
686.87	25408.86
687.01	25757.60
687.14	25406.52
687.28	25628.87
687.42	25558.65
687.55	25420.56
687.69	25118.63
687.82	24694.99
687.96	24919.68
688.10	25113.95
688.23	24933.73
688.37	25177.14
688.50	25193.53
688.64	24858.83
688.78	24706.70
688.91	24566.26
689.05	24175.39
689.18	23882.83
689.32	23861.76
689.46	23669.84
689.59	23824.31
689.73	24013.90
689.86	24072.41
690.00	24074.75
690.13	23903.89
690.27	23321.10
690.41	23243.86
690.54	22728.94
690.68	23475.57
690.81	23131.51
690.95	23033.21
691.08	22888.10
691.22	22611.92
691.35	22862.35
691.49	22948.95
691.62	22803.84
691.76	22031.46
691.89	22183.60
692.03	21916.78
692.16	21898.05
692.30	22005.72
692.43	21687.40
692.57	21596.12
692.70	21568.04
692.84	21324.62
692.97	21504.84
693.11	21404.20
693.24	21137.38
693.38	21165.46
693.51	21064.82
693.65	21020.35
693.78	21165.46
693.92	20545.22
694.05	20746.51
694.19	20556.93
694.32	20790.98
694.45	20762.89
694.59	20908.01
694.72	20699.70
694.86	20432.88
694.99	20154.35
695.13	19793.91
695.26	19817.32
695.39	19843.06
695.53	19819.66
695.66	19747.10
695.80	19632.41
695.93	19845.40
696.07	19286.01
696.20	18810.89
696.33	18885.78
696.47	18871.74
696.60	18815.57
696.73	18918.55
696.87	18988.77
697.00	18775.78
697.14	18927.91
697.27	18782.80
697.40	18504.28
697.54	18417.68
697.67	18450.44
697.80	18298.31
697.94	18324.05
698.07	18026.81
698.21	17949.57
698.34	17954.25
698.47	18087.66
698.61	17703.81
698.74	17659.34
698.87	17888.71
699.01	17554.02
699.14	17565.72
699.27	17589.13
699.40	17350.39
699.54	17385.50
699.67	17135.06
699.80	17209.96
699.94	16758.24
700.07	17083.57
700.20	16828.45
700.34	16610.78
700.47	16772.28
700.60	16727.81
700.73	16720.79
700.87	16318.22
701.00	16299.49
701.13	16362.69
701.26	16079.48
701.40	16203.53
701.53	16002.24
701.66	16023.31
701.79	16107.57
701.93	15529.45
702.06	15407.75
702.19	15499.03
702.32	15630.10
702.46	15599.67
702.59	15833.72
702.72	15580.95
702.85	15571.58
702.99	15496.69
703.12	15222.84
703.25	15236.89
703.38	15063.69
703.51	15138.58
703.65	14885.81
703.78	14647.07
703.91	14654.09
704.04	14480.89
704.17	14335.78
704.31	14523.02
704.44	14530.05
704.57	14501.96
704.70	14265.57
704.83	14288.97
704.96	14174.28
705.10	14064.28
705.23	14043.21
>>>>>End Processed Spectral Data<<<<<
