SpectraSuite Data File
++++++++++++++++++++++++++++++++++++
Date: Fri Oct 25 11:33:55 EDT 2013
User: price-jones
Dark Spectrum Present: No
Reference Spectrum Present: No
Number of Sampled Component Spectra: 1
Spectrometers: USB2+H05261
Integration Time (usec): 100000 (USB2+H05261)
Spectra Averaged: 1 (USB2+H05261)
Boxcar Smoothing: 0 (USB2+H05261)
Correct for Electrical Dark: No (USB2+H05261)
Strobe/Lamp Enabled: No (USB2+H05261)
Correct for Detector Non-linearity: No (USB2+H05261)
Correct for Stray Light: No (USB2+H05261)
Number of Pixels in Processed Spectrum: 2048
>>>>>Begin Processed Spectral Data<<<<<
365.73	330.02
365.92	330.02
366.12	330.02
366.32	175.54
366.52	142.77
366.72	128.73
366.91	124.05
367.11	177.88
367.31	147.45
367.51	203.63
367.70	231.71
367.90	189.58
368.10	161.50
368.30	205.97
368.49	173.20
368.69	163.84
368.89	224.69
369.09	177.88
369.28	177.88
369.48	93.62
369.68	212.99
369.87	236.39
370.07	212.99
370.27	259.80
370.47	322.99
370.66	489.17
370.86	538.32
371.06	657.69
371.25	512.58
371.45	514.92
371.65	528.96
371.84	491.51
372.04	512.58
372.24	557.05
372.44	585.13
372.63	589.82
372.83	671.73
373.03	592.16
373.22	531.30
373.42	620.24
373.62	599.18
373.81	624.92
374.01	660.03
374.21	685.78
374.40	615.56
374.60	622.58
374.79	617.90
374.99	660.03
375.19	674.07
375.38	683.44
375.58	627.26
375.78	692.80
375.97	685.78
376.17	697.48
376.37	718.54
376.56	727.91
376.76	699.82
376.95	748.97
377.15	725.57
377.35	617.90
377.54	692.80
377.74	650.67
377.93	641.31
378.13	748.97
378.33	758.33
378.52	770.04
378.72	744.29
378.91	734.93
379.11	720.88
379.31	711.52
379.50	695.14
379.70	737.27
379.89	741.95
380.09	706.84
380.28	711.52
380.48	692.80
380.68	662.37
380.87	781.74
381.07	709.18
381.26	706.84
381.46	704.50
381.65	746.63
381.85	718.54
382.04	767.70
382.24	870.68
382.43	809.83
382.63	791.10
382.83	770.04
383.02	828.55
383.22	779.40
383.41	770.04
383.61	854.30
383.80	833.23
384.00	784.08
384.19	823.87
384.39	805.14
384.58	807.48
384.78	842.59
384.97	866.00
385.17	763.01
385.36	847.27
385.56	851.96
385.75	830.89
385.95	875.36
386.14	833.23
386.34	917.49
386.53	915.15
386.72	809.83
386.92	968.98
387.11	858.98
387.31	898.77
387.50	896.43
387.70	880.04
387.89	912.81
388.09	884.72
388.28	856.64
388.48	903.45
388.67	901.11
388.86	910.47
389.06	905.79
389.25	936.21
389.45	938.55
389.64	952.60
389.84	999.41
390.03	912.81
390.22	950.26
390.42	957.28
390.61	959.62
390.81	891.74
391.00	1008.77
391.19	964.30
391.39	1020.47
391.58	1046.22
391.78	1104.73
391.97	1050.90
392.16	1048.56
392.36	1086.01
392.55	1123.46
392.75	1027.50
392.94	1015.79
393.13	1083.67
393.33	1032.18
393.52	1114.10
393.71	1095.37
393.91	1116.44
394.10	1081.33
394.29	1118.78
394.49	1001.75
394.68	1022.81
394.88	1104.73
395.07	1144.52
395.26	1139.84
395.46	1149.20
395.65	1121.12
395.84	1203.04
396.04	1217.08
396.23	1142.18
396.42	1191.33
396.62	1193.67
396.81	1233.46
397.00	1219.42
397.19	1254.53
397.39	1186.65
397.58	1277.93
397.77	1184.31
397.97	1266.23
398.16	1287.29
398.35	1263.89
398.55	1240.48
398.74	1247.51
398.93	1315.38
399.12	1341.13
399.32	1287.29
399.51	1376.24
399.70	1416.02
399.90	1336.45
400.09	1392.62
400.28	1350.49
400.47	1385.60
400.67	1369.21
400.86	1437.09
401.05	1409.00
401.24	1514.33
401.44	1460.49
401.63	1476.88
401.82	1409.00
402.01	1479.22
402.21	1514.33
402.40	1465.18
402.59	1469.86
402.78	1509.65
402.97	1516.67
403.17	1479.22
403.36	1528.37
403.55	1666.46
403.74	1621.99
403.93	1575.18
404.13	1629.01
404.32	1610.29
404.51	1593.90
404.70	1621.99
404.89	1661.78
405.09	1724.97
405.28	1647.74
405.47	1664.12
405.66	1643.06
405.85	1675.82
406.05	1776.47
406.24	1767.10
406.43	1706.25
406.62	1849.02
406.81	1806.89
407.00	1713.27
407.20	1746.04
407.39	1750.72
407.58	1891.15
407.77	1916.90
407.96	1837.32
408.15	1893.49
408.34	1802.21
408.54	1839.66
408.73	1860.73
408.92	1837.32
409.11	1830.30
409.30	1886.47
409.49	2015.20
409.68	1966.05
409.87	1989.46
410.07	2066.69
410.26	2062.01
410.45	2052.65
410.64	2193.08
410.83	2069.03
411.02	2186.06
411.21	2249.25
411.40	2157.97
411.59	2129.89
411.78	2188.40
411.98	2253.94
412.17	2225.85
412.36	2179.04
412.55	2249.25
412.74	2232.87
412.93	2338.20
413.12	2239.89
413.31	2413.09
413.50	2377.98
413.69	2427.14
413.88	2567.57
414.07	2569.91
414.26	2602.68
414.45	2511.39
414.64	2499.69
414.83	2471.61
415.02	2569.91
415.22	2574.59
415.41	2640.12
415.60	2630.76
415.79	2764.17
415.98	2715.02
416.17	2740.77
416.36	2778.22
416.55	2743.11
416.74	2731.41
416.93	2698.64
417.12	2801.62
417.31	2810.98
417.50	2939.71
417.69	2944.39
417.88	2911.63
418.07	2913.97
418.26	2951.42
418.45	2993.55
418.64	3066.10
418.83	2965.46
419.02	3028.65
419.21	3129.30
419.39	3138.66
419.58	3059.08
419.77	2979.50
419.96	3215.90
420.15	3105.89
420.34	3145.68
420.53	3075.46
420.72	3173.77
420.91	3164.40
421.10	3215.90
421.29	3293.13
421.48	3218.24
421.67	3197.17
421.86	3283.77
422.05	3267.39
422.24	3349.31
422.43	3309.52
422.61	3424.20
422.80	3499.10
422.99	3382.07
423.18	3361.01
423.37	3452.29
423.56	3307.18
423.75	3328.24
423.94	3232.28
424.13	3236.96
424.32	3197.17
424.50	3494.42
424.69	3461.65
424.88	3592.72
425.07	3452.29
425.26	3262.71
425.45	3283.77
425.64	3368.03
425.83	3478.04
426.01	3590.38
426.20	3440.59
426.39	3559.95
426.58	3503.78
426.77	3440.59
426.96	3552.93
427.15	3520.17
427.33	3508.46
427.52	3496.76
427.71	3492.08
427.90	3578.68
428.09	3719.11
428.28	3555.27
428.46	3756.56
428.65	3564.64
428.84	3808.05
429.03	3625.49
429.22	3644.21
429.40	3761.24
429.59	3737.84
429.78	3555.27
429.97	3639.53
430.16	3740.18
430.34	3772.94
430.53	3929.76
430.72	3758.90
430.91	3803.37
431.10	3742.52
431.28	3880.61
431.47	3939.12
431.66	3922.74
431.85	3950.82
432.03	4168.49
432.22	4152.11
432.41	3908.69
432.60	4014.02
432.79	4063.17
432.97	4124.02
433.16	4056.15
433.35	4145.09
433.54	4201.26
433.72	4210.62
433.91	4191.90
434.10	4100.62
434.28	4058.49
434.47	4339.35
434.66	4332.33
434.85	4262.12
435.03	4301.90
435.22	4241.05
435.41	4259.78
435.59	4475.10
435.78	4348.72
435.97	4463.40
436.16	4388.50
436.34	4463.40
436.53	4355.74
436.72	4493.83
436.90	4411.91
437.09	4507.87
437.28	4402.55
437.46	4470.42
437.65	4601.49
437.84	4517.23
438.02	4557.02
438.21	4463.40
438.40	4472.76
438.58	4739.58
438.77	4683.41
438.96	4711.50
439.14	4753.63
439.33	4880.02
439.52	5039.17
439.70	4924.49
439.89	5036.83
440.08	5130.45
440.26	5132.79
440.45	5043.85
440.63	5076.62
440.82	5191.31
441.01	5067.26
441.19	5203.01
441.38	5310.68
441.57	5210.03
441.75	5210.03
441.94	5338.76
442.12	5259.18
442.31	5479.19
442.50	5423.02
442.68	5387.91
442.87	5455.79
443.05	5474.51
443.24	5490.90
443.43	5474.51
443.61	5535.37
443.80	5657.07
443.98	5341.10
444.17	5366.85
444.35	5535.37
444.54	5575.16
444.73	5689.84
444.91	5561.11
445.10	5710.91
445.28	5554.09
445.47	5390.25
445.65	5614.95
445.84	5762.40
446.02	5664.10
446.21	5776.44
446.39	5685.16
446.58	5682.82
446.77	5874.74
446.95	5640.69
447.14	5668.78
447.32	5689.84
447.51	5778.78
447.69	5785.80
447.88	5727.29
448.06	5701.54
448.25	5717.93
448.43	5825.59
448.62	5762.40
448.80	5668.78
448.99	5757.72
449.17	5966.03
449.36	5778.78
449.54	6043.26
449.73	5998.79
449.91	5989.43
450.10	6010.50
450.28	6169.65
450.46	6125.18
450.65	6174.33
450.83	6113.48
451.02	6061.99
451.20	6225.82
451.39	6186.04
451.57	6073.69
451.76	6026.88
451.94	6064.33
452.13	6221.14
452.31	6111.14
452.49	6090.07
452.68	6232.85
452.86	6279.66
453.05	6424.77
453.23	6457.54
453.42	6375.62
453.60	6286.68
453.78	6333.49
453.97	6239.87
454.15	6303.06
454.34	6464.56
454.52	6581.59
454.70	6527.75
454.89	6462.22
455.07	6576.91
455.26	6754.79
455.44	6745.42
455.62	6686.91
455.81	6583.93
455.99	6799.26
456.17	6689.25
456.36	6759.47
456.54	6747.76
456.73	6944.37
456.91	7066.08
457.09	6810.96
457.28	7192.47
457.46	6995.86
457.64	7122.25
457.83	6911.60
458.01	6991.18
458.19	7145.66
458.38	6881.18
458.56	7211.19
458.74	7056.72
458.93	7157.36
459.11	7115.23
459.29	7194.81
459.48	7148.00
459.66	7112.89
459.84	7248.64
460.03	7461.63
460.21	7468.65
460.39	7492.05
460.57	7480.35
460.76	7304.81
460.94	7440.56
461.12	7456.95
461.31	7496.74
461.49	7241.62
461.67	7433.54
461.85	7599.72
462.04	7592.70
462.22	8149.75
462.40	7786.96
462.59	7620.78
462.77	7576.31
462.95	7747.17
463.13	7756.54
463.32	7709.72
463.50	7810.37
463.68	7808.03
463.86	7981.23
464.05	7815.05
464.23	7658.23
464.41	8002.29
464.59	7658.23
464.78	8063.15
464.96	8011.65
465.14	7793.98
465.32	7948.46
465.50	8063.15
465.69	8098.25
465.87	8217.62
466.05	8100.59
466.23	8063.15
466.41	8135.70
466.60	8456.36
466.78	8124.00
466.96	8056.12
467.14	8346.35
467.32	8329.97
467.51	8219.96
467.69	8215.28
467.87	8348.69
468.05	8369.76
468.23	8362.73
468.41	8149.75
468.60	8299.54
468.78	8439.97
468.96	8234.00
469.14	8470.40
469.32	8542.96
469.50	8444.65
469.69	8662.32
469.87	8711.47
470.05	8641.26
470.23	8676.37
470.41	8781.69
470.59	8945.53
470.77	8772.33
470.95	8842.54
471.14	8940.85
471.32	8819.14
471.50	8990.00
471.68	9090.64
471.86	9163.20
472.04	9118.73
472.22	9336.40
472.40	9048.51
472.58	8936.17
472.77	9343.42
472.95	9231.07
473.13	9420.66
473.31	9195.96
473.49	9303.63
473.67	9362.14
473.85	9490.87
474.03	9783.44
474.21	9729.61
474.39	9860.68
474.57	9731.95
474.75	9661.73
474.93	9680.46
475.12	9881.74
475.30	9996.43
475.48	9839.61
475.66	10073.67
475.84	9973.02
476.02	10132.18
476.20	10101.75
476.38	10354.53
476.56	10553.48
476.74	10518.37
476.92	10504.32
477.10	10466.88
477.28	10817.96
477.46	10815.62
477.64	10623.69
477.82	10789.87
478.00	11173.72
478.18	11005.20
478.36	11124.57
478.54	11108.18
478.72	11115.20
478.90	11611.40
479.08	11463.94
479.26	11573.95
479.44	11775.24
479.62	11557.57
479.80	11763.53
479.98	11861.84
480.16	12210.57
480.34	11918.01
480.52	12163.76
480.70	12135.68
480.88	12133.34
481.06	12409.52
481.24	12393.14
481.41	12606.13
481.59	12933.80
481.77	12784.01
481.95	12926.78
482.13	12903.37
482.31	13004.02
482.49	13128.06
482.67	13383.18
482.85	13385.52
483.03	13490.85
483.21	13633.62
483.39	13884.06
483.57	13827.88
483.74	13762.35
483.92	14061.94
484.10	14080.66
484.28	14235.14
484.46	14494.94
484.64	14728.99
484.82	14333.44
485.00	14670.48
485.18	14728.99
485.35	14888.15
485.53	14724.31
485.71	15145.61
485.89	15192.42
486.07	15499.03
486.25	15279.02
486.43	15318.81
486.61	15693.29
486.78	15758.83
486.96	15667.55
487.14	15880.53
487.32	16116.93
487.50	16280.77
487.68	16362.69
487.85	16297.15
488.03	16592.06
488.21	16685.68
488.39	16730.15
488.57	17247.41
488.75	17039.10
488.92	17181.87
489.10	17144.42
489.28	17530.61
489.46	17687.43
489.64	17731.90
489.81	17996.38
489.99	18127.45
490.17	18167.24
490.35	18494.91
490.53	18410.65
490.70	18611.94
490.88	18518.32
491.06	18558.11
491.24	19136.22
491.41	19225.16
491.59	19019.19
491.77	18817.91
491.95	19342.19
492.13	19506.02
492.30	19601.99
492.48	19513.05
492.66	19494.32
492.84	19721.35
493.01	20191.80
493.19	19967.11
493.37	20229.25
493.54	20327.55
493.72	20599.05
493.90	20519.48
494.08	20659.91
494.25	20795.66
494.43	20844.81
494.61	21235.68
494.79	21113.97
494.96	21231.00
495.14	21308.24
495.32	21603.14
495.49	21628.89
495.67	21884.01
495.85	21539.95
496.02	22082.95
496.20	22286.58
496.38	22377.86
496.55	22298.28
496.73	23009.81
496.91	22728.94
497.09	22874.06
497.26	22780.43
497.44	22771.07
497.62	23204.07
497.79	22953.63
497.97	23255.56
498.14	23723.67
498.32	23463.87
498.50	23578.56
498.67	24114.54
498.85	23885.17
499.03	23803.25
499.20	23927.30
499.38	24049.00
499.56	24280.72
499.73	24187.10
499.91	24077.09
500.08	24570.94
500.26	24755.85
500.44	24648.18
500.61	24704.35
500.79	24531.15
500.97	24655.20
501.14	25193.53
501.32	24978.20
501.49	25207.57
501.67	25118.63
501.84	25455.67
502.02	25247.36
502.20	25497.80
502.37	25603.12
502.55	25703.76
502.72	25797.38
502.90	25902.71
503.07	25633.55
503.25	25788.02
503.43	25668.66
503.60	26190.59
503.78	26171.87
503.95	26373.16
504.13	26642.32
504.30	26581.46
504.48	26544.02
504.65	26920.84
504.83	26843.60
505.01	27021.48
505.18	26576.78
505.36	27157.24
505.53	27248.52
505.71	27367.88
505.88	27292.99
506.06	27260.22
506.23	27520.02
506.41	27098.72
506.58	27597.26
506.76	27683.86
506.93	27700.24
507.11	27695.56
507.28	27667.47
507.46	27835.99
507.63	28460.91
507.81	28290.06
507.98	28081.75
508.16	28023.23
508.33	28716.03
508.50	28278.35
508.68	28720.71
508.85	29069.45
509.03	28978.17
509.20	28774.55
509.38	29062.43
509.55	29235.63
509.73	29291.80
509.90	29142.01
510.08	29347.98
510.25	29465.00
510.42	30064.18
510.60	29418.19
510.77	29942.47
510.95	29677.99
511.12	29628.84
511.30	29701.40
511.47	29823.11
511.64	29752.89
511.82	30235.04
511.99	30387.18
512.17	30263.13
512.34	30155.46
512.51	30712.51
512.69	30806.13
512.86	30829.54
513.04	30553.35
513.21	31028.48
513.38	31065.93
513.56	30848.26
513.73	30808.47
513.90	30845.92
514.08	31168.91
514.25	31072.95
514.43	31346.79
514.60	31529.36
514.77	31173.60
514.95	31810.22
515.12	31433.39
515.29	31747.03
515.47	31335.09
515.64	31938.95
515.81	31548.08
515.99	31634.68
516.16	32407.06
516.33	32306.41
516.51	31945.97
516.68	32320.46
516.85	32348.54
517.03	32283.01
517.20	32622.39
517.37	32718.35
517.54	32620.05
517.72	32421.10
517.89	32376.63
518.06	32797.93
518.24	32636.43
518.41	32577.92
518.58	33125.60
518.75	32765.16
518.93	33401.79
519.10	32917.29
519.27	33001.55
519.45	33401.79
519.62	33586.69
519.79	33680.31
519.96	33453.28
520.14	33682.65
520.31	33399.44
520.48	33776.27
520.65	33347.95
520.83	34136.71
521.00	34169.48
521.17	34527.58
521.34	34459.71
521.52	34377.79
521.69	34775.68
521.86	34637.59
522.03	34660.99
522.20	34930.16
522.38	34843.56
522.55	35000.37
522.72	34932.50
522.89	34689.08
523.07	35365.49
523.24	34862.28
523.41	35129.10
523.58	34916.11
523.75	35283.58
523.92	35091.65
524.10	35262.51
524.27	35442.73
524.44	35096.33
524.61	35599.55
524.78	35845.30
524.96	35728.28
525.13	35945.95
525.30	36051.27
525.47	36172.98
525.64	35789.13
525.81	35796.15
525.98	36442.14
526.16	36177.66
526.33	36020.84
526.50	36392.99
526.67	36198.73
526.84	36453.84
527.01	36229.15
527.18	36304.05
527.36	36278.30
527.53	36842.37
527.70	37167.71
527.87	36535.76
528.04	37029.62
528.21	36765.14
528.38	37275.37
528.55	37422.83
528.72	36683.22
528.89	37251.97
529.07	37006.21
529.24	37134.94
529.41	37404.10
529.58	37361.97
529.75	37464.96
529.92	36959.40
530.09	37418.14
530.26	37872.21
530.43	37783.27
530.60	36989.83
530.77	37436.87
530.94	37869.87
531.11	37553.90
531.28	37652.20
531.46	37607.73
531.63	37923.70
531.80	37930.72
531.97	37907.32
532.14	37940.08
532.31	38050.09
532.48	38625.86
532.65	38455.00
532.82	37996.26
532.99	38337.98
533.16	38485.43
533.33	38679.69
533.50	38352.02
533.67	38242.01
533.84	38368.40
534.01	38815.44
534.18	38794.38
534.35	39213.34
534.52	38670.33
534.69	39079.92
534.86	39129.08
535.03	38918.43
535.20	39243.76
535.37	39328.02
535.54	39379.51
535.71	39225.04
535.88	39243.76
536.05	39215.68
536.22	39629.95
536.38	39400.58
536.55	39440.37
536.72	39648.68
536.89	39276.53
537.06	39646.33
537.23	39917.84
537.40	39414.62
537.57	39459.09
537.74	39517.60
537.91	39983.37
538.08	39501.22
538.25	39732.93
538.42	39906.13
538.59	40081.67
538.75	39763.36
538.92	40074.65
539.09	40093.38
539.26	40053.59
539.43	40165.93
539.60	40409.35
539.77	40924.27
539.94	40755.75
540.11	40402.33
540.28	40552.12
540.44	40935.97
540.61	40273.60
540.78	40397.65
540.95	40615.32
541.12	40526.38
541.29	40275.94
541.46	40671.49
541.62	40727.66
541.79	41214.49
541.96	40467.86
542.13	40772.13
542.30	40907.88
542.47	41053.00
542.63	41113.85
542.80	41427.48
542.97	41682.60
543.14	41308.11
543.31	41193.43
543.48	41462.59
543.64	42047.72
543.81	41546.85
543.98	41874.52
544.15	41736.43
544.32	41865.16
544.48	42518.17
544.65	41539.83
544.82	42232.63
544.99	41640.47
545.16	42401.14
545.32	42288.80
545.49	42192.84
545.66	42525.19
545.83	42143.69
546.00	42384.76
546.16	42429.23
546.33	42087.51
546.50	42211.56
546.67	42464.34
546.83	42000.91
547.00	42309.86
547.17	42359.02
547.34	42351.99
547.50	43061.18
547.67	42845.85
547.84	42773.29
548.00	42724.14
548.17	43222.67
548.34	42761.59
548.51	42965.21
548.67	42806.06
548.84	43246.08
549.01	42728.82
549.18	42981.60
549.34	43363.11
549.51	43386.51
549.68	43229.69
549.84	42621.16
550.01	43335.02
550.18	42944.15
550.34	43136.07
550.51	43543.33
550.68	43306.93
550.84	43414.60
551.01	43470.77
551.18	43208.63
551.34	43445.02
551.51	43480.13
551.68	43576.09
551.84	43288.21
552.01	43309.27
552.18	44006.75
552.34	43185.22
552.51	43732.91
552.68	43962.28
552.84	43842.92
553.01	43917.81
553.18	43676.74
553.34	44406.98
553.51	43711.84
553.67	44414.01
553.84	43831.21
554.01	44135.48
554.17	43856.96
554.34	44477.20
554.51	43627.59
554.67	44582.52
554.84	44397.62
555.00	44334.43
555.17	44662.10
555.33	44704.23
555.50	44509.97
555.67	44257.19
555.83	44507.63
556.00	44706.57
556.16	44718.28
556.33	44467.84
556.50	44788.49
556.66	44280.60
556.83	44219.74
556.99	44875.09
557.16	44748.70
557.32	44842.32
557.49	44828.28
557.65	44917.22
557.82	44652.74
557.98	44971.05
558.15	44842.32
558.32	44729.98
558.48	44973.39
558.65	44938.29
558.81	44793.17
558.98	44732.32
559.14	44535.71
559.31	45031.91
559.47	44708.91
559.64	45134.89
559.80	45172.34
559.97	45324.47
560.13	45294.05
560.30	45200.43
560.46	45324.47
560.63	45111.49
560.79	45560.87
560.96	45516.40
561.12	45729.39
561.29	45539.80
561.45	45666.19
561.61	45525.76
561.78	45422.78
561.94	45397.03
562.11	45202.77
562.27	45450.86
562.44	45507.04
562.60	45944.72
562.77	45649.81
562.93	45301.07
563.10	45633.42
563.26	45382.99
563.42	46206.86
563.59	45783.22
563.75	45617.04
563.92	45542.14
564.08	45663.85
564.24	45743.43
564.41	45343.20
564.57	45900.25
564.74	45968.12
564.90	45408.73
565.07	45553.85
565.23	45911.95
565.39	45914.29
565.56	45574.91
565.72	45979.82
565.88	45837.05
566.05	46129.62
566.21	45869.82
566.38	46078.13
566.54	46101.53
566.70	46178.77
566.87	45827.69
567.03	46003.23
567.19	46096.85
567.36	45670.87
567.52	46265.37
567.68	46223.24
567.85	45979.82
568.01	46494.74
568.17	45584.27
568.34	46209.20
568.50	46295.80
568.66	45918.97
568.83	46321.54
568.99	46321.54
569.15	45963.44
569.32	46712.41
569.48	46162.39
569.64	46267.71
569.81	46494.74
569.97	46569.64
570.13	46447.93
570.30	46239.62
570.46	46337.93
570.62	46642.20
570.78	46464.32
570.95	46195.15
571.11	46525.17
571.27	46071.10
571.43	45949.40
571.60	46700.71
571.76	46234.94
571.92	46813.05
572.09	46429.21
572.25	46412.82
572.41	46178.77
572.57	46438.57
572.74	46976.89
572.90	46358.99
573.06	46501.76
573.22	46433.89
573.38	46485.38
573.55	46700.71
573.71	47187.54
573.87	46621.13
574.03	46726.46
574.20	46890.29
574.36	46480.70
574.52	46696.03
574.68	46534.53
574.84	46440.91
575.01	47023.70
575.17	47026.04
575.33	46939.44
575.49	46431.55
575.65	46504.10
575.82	46890.29
575.98	46822.42
576.14	47480.11
576.30	46939.44
576.46	46611.77
576.62	46822.42
576.79	46511.13
576.95	46291.12
577.11	46642.20
577.27	46801.35
577.43	46518.15
577.59	46454.95
577.75	47089.24
577.92	46293.46
578.08	46986.25
578.24	46953.49
578.40	46841.14
578.56	46941.78
578.72	46930.08
578.88	47093.92
579.04	46408.14
579.21	47147.75
579.37	47019.02
579.53	46983.91
579.69	47012.00
579.85	46824.76
580.01	46890.29
580.17	46550.91
580.33	47129.03
580.49	47012.00
580.65	46628.15
580.82	47075.19
580.98	46829.44
581.14	46897.31
581.30	47164.14
581.46	46864.55
581.62	46607.09
581.78	46527.51
581.94	47072.85
582.10	46543.89
582.26	47241.37
582.42	46658.58
582.58	46976.89
582.74	47093.92
582.90	46958.17
583.06	47239.03
583.22	47086.90
583.38	46595.38
583.54	47150.09
583.70	47208.61
583.86	46948.81
584.02	46824.76
584.18	47306.91
584.34	47470.75
584.50	47442.66
584.66	47318.61
584.82	47154.77
584.98	47576.07
585.14	47332.65
585.30	46726.46
585.46	47379.46
585.62	46852.84
585.78	47358.40
585.94	46691.35
586.10	46754.54
586.26	46485.38
586.42	47372.44
586.58	47449.68
586.74	47201.58
586.90	47262.44
587.06	47026.04
587.22	47526.92
587.38	46927.74
587.54	47302.23
587.70	47388.83
587.86	47098.60
588.02	46618.79
588.18	47012.00
588.34	47002.64
588.49	47337.33
588.65	47072.85
588.81	47276.48
588.97	47077.54
589.13	47367.76
589.29	47295.21
589.45	47309.25
589.61	47398.19
589.77	47487.13
589.93	47283.50
590.08	47576.07
590.24	47484.79
590.40	47772.67
590.56	47842.89
590.72	47632.24
590.88	47416.91
591.04	47435.64
591.20	47515.22
591.35	47599.47
591.51	47753.95
591.67	47878.00
591.83	47749.27
591.99	47590.11
592.15	47515.22
592.31	47414.57
592.46	47440.32
592.62	47356.06
592.78	47477.77
592.94	48020.77
593.10	47910.77
593.26	47882.68
593.41	48280.57
593.57	48037.16
593.73	47613.52
593.89	48112.05
594.05	48479.52
594.20	47936.51
594.36	48236.10
594.52	47470.75
594.68	47863.96
594.84	47615.86
594.99	48020.77
595.15	47695.44
595.31	48018.43
595.47	47892.04
595.62	48060.56
595.78	47962.26
595.94	47988.00
596.10	47833.53
596.25	48355.47
596.41	48250.14
596.57	47491.81
596.73	47922.47
596.88	47842.89
597.04	47393.51
597.20	48156.52
597.36	47861.61
597.51	48112.05
597.67	47547.98
597.83	47730.54
597.99	47842.89
598.14	47646.29
598.30	47559.69
598.46	47449.68
598.61	48322.70
598.77	47899.06
598.93	48254.82
599.09	48006.73
599.24	48142.48
599.40	47770.33
599.56	47739.91
599.71	48275.89
599.87	48556.75
600.03	48479.52
600.18	48116.73
600.34	48102.69
600.50	48233.76
600.65	48203.33
600.81	48142.48
600.97	48289.93
601.12	48011.41
601.28	48011.41
601.44	48025.45
601.59	48119.07
601.75	47896.72
601.91	47894.38
602.06	48170.57
602.22	48086.31
602.37	48165.88
602.53	48245.46
602.69	48062.90
602.84	48318.02
603.00	47428.62
603.16	47920.13
603.31	48055.88
603.47	48093.33
603.62	47910.77
603.78	48079.28
603.94	47945.87
604.09	47646.29
604.25	47833.53
604.40	47878.00
604.56	48198.65
604.71	48456.11
604.87	47882.68
605.03	47693.10
605.18	48126.10
605.34	48109.71
605.49	47566.71
605.65	48303.98
605.80	47882.68
605.96	48179.93
606.12	47995.03
606.27	47863.96
606.43	47512.88
606.58	48175.25
606.74	47819.49
606.89	47842.89
607.05	48329.72
607.20	47824.17
607.36	47784.38
607.51	47906.08
607.67	47791.40
607.82	47611.18
607.98	47908.43
608.13	47702.46
608.29	47753.95
608.44	47915.45
608.60	47782.04
608.75	47433.30
608.91	47672.03
609.06	47379.46
609.22	48147.16
609.37	47489.47
609.53	48184.61
609.68	47915.45
609.84	47723.52
609.99	47866.30
610.15	47800.76
610.30	47929.49
610.46	47533.94
610.61	47695.44
610.76	47941.19
610.92	47365.42
611.07	47365.42
611.23	47627.56
611.38	47313.93
611.54	47482.45
611.69	47559.69
611.84	47585.43
612.00	47650.97
612.15	47330.31
612.31	47409.89
612.46	47566.71
612.62	47342.02
612.77	47653.31
612.92	47784.38
613.08	47339.68
613.23	47421.59
613.39	46836.46
613.54	46937.10
613.69	47580.75
613.85	47089.24
614.00	47667.35
614.15	47559.69
614.31	46693.69
614.46	47150.09
614.62	47454.36
614.77	47281.16
614.92	47147.75
615.08	47161.79
615.23	47255.42
615.38	47550.32
615.54	47210.95
615.69	47248.39
615.84	47334.99
616.00	47519.90
616.15	47016.68
616.30	47562.03
616.46	46962.85
616.61	47257.76
616.76	47386.49
616.92	46892.63
617.07	47447.34
617.22	47374.78
617.37	46298.14
617.53	47370.10
617.68	47131.37
617.83	46918.38
617.99	47545.64
618.14	47175.84
618.29	47014.34
618.45	46719.43
618.60	46665.60
618.75	46588.36
618.90	46487.72
619.06	47009.66
619.21	46532.19
619.36	47445.00
619.51	46513.47
619.67	46391.76
619.82	46513.47
619.97	46880.93
620.12	46178.77
620.28	46328.56
620.43	46883.27
620.58	46471.34
620.73	46525.17
620.89	46948.81
621.04	47370.10
621.19	46539.21
621.34	46562.62
621.49	46206.86
621.65	47133.71
621.80	46934.76
621.95	46438.57
622.10	46492.40
622.25	46560.28
622.41	45989.19
622.56	46717.09
622.71	46511.13
622.86	46122.60
623.01	46459.63
623.16	46270.05
623.32	46337.93
623.47	46220.90
623.62	46265.37
623.77	46328.56
623.92	46918.38
624.07	46146.00
624.23	46185.79
624.38	46511.13
624.53	46234.94
624.68	46092.17
624.83	46176.43
624.98	46164.73
625.13	45848.75
625.29	45949.40
625.44	45921.31
625.59	46277.07
625.74	45937.69
625.89	45467.25
626.04	45890.88
626.19	45958.76
626.34	45937.69
626.49	45427.46
626.65	45476.61
626.80	45490.65
626.95	45397.03
627.10	45251.92
627.25	45853.44
627.40	45968.12
627.55	45654.49
627.70	45628.74
627.85	45925.99
628.00	45940.04
628.15	45518.74
628.30	45324.47
628.45	45008.50
628.60	44683.17
628.76	45209.79
628.91	45649.81
629.06	45172.34
629.21	45113.83
629.36	45500.01
629.51	45233.19
629.66	46007.91
629.81	45378.31
629.96	45289.37
630.11	45235.53
630.26	45120.85
630.41	44975.73
630.56	44882.11
630.71	45460.23
630.86	45064.67
631.01	44964.03
631.16	44671.46
631.31	45160.64
631.46	44802.53
631.61	44828.28
631.76	44947.65
631.91	44697.21
632.06	45411.07
632.21	45188.72
632.36	45148.93
632.51	44652.74
632.66	44669.12
632.81	44940.63
632.96	44755.72
633.10	44818.92
633.25	44854.03
633.40	44973.39
633.55	45336.18
633.70	44964.03
633.85	44839.98
634.00	44348.47
634.15	44428.05
634.30	44381.24
634.45	44236.12
634.60	44339.11
634.75	44526.35
634.90	44650.40
635.05	44158.89
635.19	44549.76
635.34	44392.94
635.49	44605.93
635.64	44343.79
635.79	44535.71
635.94	44598.91
636.09	44596.57
636.24	44556.78
636.39	44437.41
636.53	44561.46
636.68	44044.20
636.83	44130.80
636.98	44144.84
637.13	43714.19
637.28	43885.04
637.43	43908.45
637.57	43810.15
637.72	44023.14
637.87	43988.03
638.02	43744.61
638.17	43927.17
638.32	43643.97
638.46	43358.42
638.61	43831.21
638.76	43557.37
638.91	44121.44
639.06	43536.30
639.20	43585.46
639.35	43297.57
639.50	43154.80
639.65	43868.66
639.80	44301.66
639.94	43590.14
640.09	43627.59
640.24	43744.61
640.39	43185.22
640.54	43143.09
640.68	43349.06
640.83	43344.38
640.98	43257.78
641.13	43271.82
641.27	43379.49
641.42	43517.58
641.57	43391.19
641.72	43384.17
641.86	42988.62
642.01	43182.88
642.16	42899.68
642.31	42581.37
642.45	43470.77
642.60	42960.53
642.75	42658.60
642.90	43267.14
643.04	43536.30
643.19	42890.32
643.34	42916.06
643.48	42682.01
643.63	42632.86
643.78	43009.68
643.93	43306.93
644.07	43058.84
644.22	42749.88
644.37	42703.07
644.51	42892.66
644.66	42618.81
644.81	42712.44
644.95	42763.93
645.10	42684.35
645.25	42424.55
645.39	42731.16
645.54	42466.68
645.69	42569.66
645.83	42401.14
645.98	42703.07
646.13	42298.16
646.27	42492.43
646.42	42719.46
646.57	42789.67
646.71	42288.80
646.86	42480.72
647.00	42244.33
647.15	42714.78
647.30	42351.99
647.44	42401.14
647.59	42710.10
647.74	42340.29
647.88	42272.42
648.03	42550.94
648.17	42770.95
648.32	42590.73
648.47	42366.04
648.61	41991.55
648.76	42059.43
648.90	42043.04
649.05	42206.88
649.20	41808.99
649.34	42216.24
649.49	42567.32
649.63	42284.12
649.78	42335.61
649.92	42099.22
650.07	42548.60
650.21	42230.29
650.36	42057.09
650.51	42038.36
650.65	42110.92
650.80	42429.23
650.94	42738.18
651.09	41968.15
651.23	41305.77
651.38	41603.02
651.52	41486.00
651.67	41600.68
651.81	41617.07
651.96	41745.80
652.10	41268.33
652.25	41813.67
652.39	41530.47
652.54	42162.41
652.68	41006.19
652.83	41141.94
652.97	41563.23
653.12	41546.85
653.26	41390.03
653.41	41528.13
653.55	41523.44
653.70	41750.48
653.84	41443.87
653.99	41579.62
654.13	41673.24
654.27	41368.97
654.42	41034.27
654.56	40954.69
654.71	41256.62
654.85	41125.55
655.00	41312.80
655.14	41579.62
655.29	41216.83
655.43	41628.77
655.57	41097.47
655.72	40886.82
655.86	40547.44
656.01	40926.61
656.15	40786.18
656.30	40823.62
656.44	40928.95
656.58	40952.35
656.73	41099.81
656.87	40641.06
657.01	40570.85
657.16	41090.44
657.30	40676.17
657.45	40940.65
657.59	41022.57
657.73	40168.27
657.88	40449.14
658.02	40465.52
658.16	40725.32
658.31	40210.40
658.45	40533.40
658.60	40121.46
658.74	40250.19
658.88	40669.15
659.03	40264.24
659.17	40229.13
659.31	40114.44
659.46	39927.20
659.60	40371.90
659.74	39854.64
659.89	39566.76
660.03	39557.39
660.17	40109.76
660.32	39796.13
660.46	39601.86
660.60	39866.34
660.74	39562.08
660.89	39978.69
661.03	39496.54
661.17	39438.03
661.32	39641.65
661.46	39709.53
661.60	39159.50
661.74	38951.20
661.89	39468.45
662.03	39358.45
662.17	39386.54
662.31	38979.28
662.46	39309.30
662.60	38895.02
662.74	38944.17
662.88	38560.33
663.03	38541.60
663.17	38721.82
663.31	38539.26
663.45	38820.13
663.60	39246.10
663.74	38752.25
663.88	38604.80
664.02	38373.08
664.17	39061.20
664.31	38415.21
664.45	38141.37
664.59	38555.64
664.73	37907.32
664.88	38115.62
665.02	38202.22
665.16	38089.88
665.30	38171.80
665.44	37823.06
665.59	37603.05
665.73	37731.78
665.87	37776.25
666.01	37806.67
666.15	37652.20
666.29	37757.52
666.44	37610.07
666.58	37947.11
666.72	37525.81
666.86	37464.96
667.00	37479.00
667.14	37317.50
667.28	37476.66
667.43	37432.19
667.57	37415.80
667.71	37340.91
667.85	37317.50
667.99	37244.94
668.13	36924.29
668.27	36879.82
668.41	36725.35
668.56	36318.09
668.70	35868.71
668.84	36371.92
668.98	36465.55
669.12	36306.39
669.26	36383.63
669.40	36547.47
669.54	36996.85
669.68	36205.75
669.82	36400.01
669.96	35721.26
670.10	35910.84
670.25	36135.53
670.39	35999.78
670.53	36135.53
670.67	35651.04
670.81	36430.44
670.95	35924.88
671.09	35702.53
671.23	35372.52
671.37	35702.53
671.51	35611.25
671.65	35335.07
671.79	35042.50
671.93	35494.22
672.07	35489.54
672.21	35346.77
672.35	34890.37
672.49	34822.49
672.63	34885.68
672.77	34953.56
672.91	34813.13
673.05	34738.23
673.19	34543.97
673.33	34396.51
673.47	34581.42
673.61	34452.69
673.75	34033.73
673.89	34108.63
674.03	34036.07
674.17	33570.30
674.31	33853.51
674.45	33853.51
674.59	34078.20
674.73	33883.94
674.87	33216.88
675.01	33200.50
675.15	33441.57
675.29	33177.09
675.43	33221.56
675.56	33570.30
675.70	33443.91
675.84	32683.24
675.98	32203.43
676.12	32456.21
676.26	33230.93
676.40	32933.68
676.54	32598.98
676.68	32659.84
676.82	32266.63
676.96	32334.50
677.10	32589.62
677.23	32245.56
677.37	32121.51
677.51	31772.77
677.65	32437.48
677.79	31950.65
677.93	31894.48
678.07	31917.89
678.21	31594.89
678.34	31189.98
678.48	31136.15
678.62	31091.68
678.76	31014.44
678.90	30899.75
679.04	31094.02
679.18	31115.08
679.31	30574.42
679.45	30478.46
679.59	30555.69
679.73	30342.70
679.87	30288.87
680.00	30204.61
680.14	30286.53
680.28	30108.65
680.42	30110.99
680.56	29659.27
680.70	29682.67
680.83	29525.86
680.97	29221.59
681.11	29598.41
681.25	29209.89
681.39	28973.49
681.52	29369.04
681.66	29282.44
681.80	28655.18
681.94	28734.76
682.07	28779.23
682.21	28659.86
682.35	28222.18
682.49	28264.31
682.62	28797.95
682.76	28577.94
682.90	28229.20
683.04	27929.61
683.17	28020.89
683.31	28156.64
683.45	27901.53
683.59	27569.17
683.72	27335.12
683.86	27410.01
684.00	27445.12
684.13	27681.52
684.27	27351.50
684.41	27058.93
684.55	27089.36
684.68	26962.97
684.82	26305.28
684.96	26838.92
685.09	26740.62
685.23	26899.78
685.37	27173.62
685.50	26974.67
685.64	26857.65
685.78	26338.05
685.91	26176.55
686.05	25996.33
686.19	25654.61
686.32	25942.50
686.46	25502.48
686.60	25504.82
686.73	25708.44
686.87	25214.59
687.01	25331.62
687.14	25369.07
687.28	25149.06
687.42	25319.92
687.55	25228.63
687.69	25130.33
687.82	24655.20
687.96	24510.09
688.10	24577.97
688.23	24549.88
688.37	24776.91
688.50	24449.24
688.64	24367.32
688.78	24116.88
688.91	24315.83
689.05	23988.15
689.18	23627.71
689.32	23131.51
689.46	23910.91
689.59	23215.77
689.73	23665.16
689.86	23723.67
690.00	23468.55
690.13	23599.62
690.27	22955.97
690.41	23351.52
690.54	23009.81
690.68	22995.76
690.81	22700.86
690.95	22808.52
691.08	22670.43
691.22	22459.78
691.35	22155.51
691.49	22583.83
691.62	22499.57
691.76	22010.40
691.89	22111.04
692.03	21511.86
692.16	21738.90
692.30	21830.18
692.43	21720.17
692.57	21177.17
692.70	21563.36
692.84	21628.89
692.97	21132.70
693.11	21443.99
693.24	21041.42
693.38	21118.65
693.51	20870.56
693.65	20732.47
693.78	20620.12
693.92	20671.61
694.05	20381.38
694.19	20350.96
694.32	20463.30
694.45	20657.57
694.59	20580.33
694.72	20262.02
694.86	20231.59
694.99	20070.09
695.13	19838.38
695.26	19623.05
695.39	19456.87
695.53	19735.40
695.66	19438.15
695.80	19330.48
695.93	19536.45
696.07	19389.00
696.20	18834.29
696.33	18700.88
696.47	18761.73
696.60	19009.83
696.73	18714.92
696.87	18710.24
697.00	18717.26
697.14	18427.04
697.27	18277.24
697.40	18302.99
697.54	18415.34
697.67	18471.51
697.80	18265.54
697.94	17877.01
698.07	18174.26
698.21	17937.87
698.34	18031.49
698.47	17851.27
698.61	17240.39
698.74	17582.10
698.87	17530.61
699.01	17664.02
699.14	17439.33
699.27	17364.43
699.40	17198.26
699.54	17095.27
699.67	17090.59
699.80	17050.80
699.94	16662.27
700.07	16713.77
700.20	16601.42
700.34	16638.87
700.47	16603.76
700.60	16929.09
700.73	16439.92
700.87	16259.70
701.00	16210.55
701.13	16107.57
701.26	15775.21
701.40	15803.30
701.53	16173.10
701.66	15960.11
701.79	15815.00
701.93	15618.39
702.06	15487.32
702.19	15564.56
702.32	15421.79
702.46	15681.59
702.59	15639.46
702.72	15447.54
702.85	15480.30
702.99	15267.31
703.12	15063.69
703.25	15089.43
703.38	14920.92
703.51	14675.16
703.65	14764.10
703.78	14640.05
703.91	14422.38
704.04	14450.47
704.17	14349.82
704.31	14253.86
704.44	14422.38
704.57	14572.18
704.70	14263.22
704.83	13748.31
704.96	13820.86
705.10	13724.90
705.23	13792.78
>>>>>End Processed Spectral Data<<<<<
