SpectraSuite Data File
++++++++++++++++++++++++++++++++++++
Date: Fri Oct 25 11:34:03 EDT 2013
User: price-jones
Dark Spectrum Present: No
Reference Spectrum Present: No
Number of Sampled Component Spectra: 1
Spectrometers: USB2+H05261
Integration Time (usec): 100000 (USB2+H05261)
Spectra Averaged: 1 (USB2+H05261)
Boxcar Smoothing: 0 (USB2+H05261)
Correct for Electrical Dark: No (USB2+H05261)
Strobe/Lamp Enabled: No (USB2+H05261)
Correct for Detector Non-linearity: No (USB2+H05261)
Correct for Stray Light: No (USB2+H05261)
Number of Pixels in Processed Spectrum: 2048
>>>>>Begin Processed Spectral Data<<<<<
365.73	231.71
365.92	231.71
366.12	231.71
366.32	215.33
366.52	180.22
366.72	243.42
366.91	194.26
367.11	187.24
367.31	145.11
367.51	180.22
367.70	121.71
367.90	168.52
368.10	189.58
368.30	215.33
368.49	163.84
368.69	215.33
368.89	245.76
369.09	259.80
369.28	189.58
369.48	156.82
369.68	168.52
369.87	220.01
370.07	290.23
370.27	299.59
370.47	294.91
370.66	554.71
370.86	489.17
371.06	430.66
371.25	603.86
371.45	519.60
371.65	557.05
371.84	503.22
372.04	526.62
372.24	603.86
372.44	519.60
372.63	601.52
372.83	594.50
373.03	524.28
373.22	629.60
373.42	634.29
373.62	624.92
373.81	634.29
374.01	643.65
374.21	533.64
374.40	655.35
374.60	622.58
374.79	638.97
374.99	617.90
375.19	582.79
375.38	580.45
375.58	664.71
375.78	664.71
375.97	671.73
376.17	699.82
376.37	669.39
376.56	732.59
376.76	685.78
376.95	690.46
377.15	660.03
377.35	643.65
377.54	676.41
377.74	678.76
377.93	699.82
378.13	648.33
378.33	737.27
378.52	695.14
378.72	718.54
378.91	704.50
379.11	751.31
379.31	660.03
379.50	711.52
379.70	784.08
379.89	767.70
380.09	730.25
380.28	805.14
380.48	720.88
380.68	739.61
380.87	767.70
381.07	784.08
381.26	873.02
381.46	781.74
381.65	732.59
381.85	774.72
382.04	727.91
382.24	709.18
382.43	685.78
382.63	767.70
382.83	737.27
383.02	816.85
383.22	812.17
383.41	737.27
383.61	774.72
383.80	896.43
384.00	800.46
384.19	807.48
384.39	777.06
384.58	795.78
384.78	755.99
384.97	840.25
385.17	830.89
385.36	800.46
385.56	847.27
385.75	873.02
385.95	870.68
386.14	933.87
386.34	873.02
386.53	931.53
386.72	882.38
386.92	863.66
387.11	807.48
387.31	875.36
387.50	877.70
387.70	882.38
387.89	1013.45
388.09	849.61
388.28	940.90
388.48	898.77
388.67	910.47
388.86	905.79
389.06	940.90
389.25	915.15
389.45	891.74
389.64	1034.52
389.84	961.96
390.03	966.64
390.22	990.05
390.42	903.45
390.61	854.30
390.81	954.94
391.00	957.28
391.19	1004.09
391.39	1015.79
391.58	954.94
391.78	1011.11
391.97	987.71
392.16	966.64
392.36	1064.94
392.55	1046.22
392.75	1034.52
392.94	1034.52
393.13	1013.45
393.33	1111.75
393.52	1053.24
393.71	1088.35
393.91	1036.86
394.10	1128.14
394.29	1008.77
394.49	1043.88
394.68	1128.14
394.88	1060.26
395.07	1090.69
395.26	1088.35
395.46	1090.69
395.65	1144.52
395.84	1151.54
396.04	1181.97
396.23	1179.63
396.42	1231.12
396.62	1142.18
396.81	1296.66
397.00	1228.78
397.19	1210.06
397.39	1212.40
397.58	1247.51
397.77	1268.57
397.97	1203.04
398.16	1299.00
398.35	1282.61
398.55	1284.95
398.74	1282.61
398.93	1259.21
399.12	1282.61
399.32	1259.21
399.51	1242.82
399.70	1355.17
399.90	1322.40
400.09	1306.02
400.28	1380.92
400.47	1334.11
400.67	1409.00
400.86	1444.11
401.05	1465.18
401.24	1495.60
401.44	1406.66
401.63	1432.41
401.82	1404.32
402.01	1430.07
402.21	1383.26
402.40	1523.69
402.59	1476.88
402.78	1483.90
402.97	1479.22
403.17	1551.78
403.36	1486.24
403.55	1558.80
403.74	1563.48
403.93	1530.71
404.13	1640.72
404.32	1591.56
404.51	1526.03
404.70	1565.82
404.89	1626.67
405.09	1575.18
405.28	1572.84
405.47	1741.36
405.66	1664.12
405.85	1652.42
406.05	1657.10
406.24	1654.76
406.43	1767.10
406.62	1746.04
406.81	1729.66
407.00	1804.55
407.20	1734.34
407.39	1753.06
407.58	1804.55
407.77	1898.17
407.96	1846.68
408.15	1963.71
408.34	1980.09
408.54	1834.98
408.73	1849.02
408.92	1795.19
409.11	1944.99
409.30	1954.35
409.49	1952.01
409.68	2066.69
409.87	2036.27
410.07	2069.03
410.26	1982.43
410.45	1987.11
410.64	2059.67
410.83	2073.71
411.02	1954.35
411.21	2202.44
411.40	2069.03
411.59	2211.81
411.78	2104.14
411.98	2218.83
412.17	2172.02
412.36	2209.47
412.55	2324.15
412.74	2366.28
412.93	2363.94
413.12	2286.70
413.31	2424.80
413.50	2349.90
413.69	2214.15
413.88	2352.24
414.07	2399.05
414.26	2401.39
414.45	2600.34
414.64	2502.03
414.83	2637.78
415.02	2574.59
415.22	2708.00
415.41	2705.66
415.60	2527.78
415.79	2700.98
415.98	2752.47
416.17	2574.59
416.36	2672.89
416.55	2752.47
416.74	2825.03
416.93	2637.78
417.12	2693.96
417.31	2801.62
417.50	2836.73
417.69	2874.18
417.88	2843.75
418.07	2916.31
418.26	2904.60
418.45	2909.29
418.64	3007.59
418.83	3023.97
419.02	3007.59
419.21	3061.42
419.39	3000.57
419.58	2825.03
419.77	2993.55
419.96	3166.74
420.15	3070.78
420.34	3122.27
420.53	3213.56
420.72	3087.17
420.91	3241.64
421.10	3234.62
421.29	3353.99
421.48	3225.26
421.67	3126.96
421.86	3248.66
422.05	3213.56
422.24	3075.46
422.43	3307.18
422.61	3229.94
422.80	3391.44
422.99	3337.60
423.18	3389.10
423.37	3358.67
423.56	3332.92
423.75	3424.20
423.94	3229.94
424.13	3152.70
424.32	3246.32
424.50	3403.14
424.69	3445.27
424.88	3447.61
425.07	3384.41
425.26	3431.23
425.45	3438.25
425.64	3400.80
425.83	3318.88
426.01	3349.31
426.20	3405.48
426.39	3524.85
426.58	3316.54
426.77	3485.06
426.96	3485.06
427.15	3400.80
427.33	3447.61
427.52	3499.10
427.71	3658.26
427.90	3562.30
428.09	3581.02
428.28	3574.00
428.46	3662.94
428.65	3613.79
428.84	3768.26
429.03	3698.05
429.22	3672.30
429.40	3709.75
429.59	3590.38
429.78	3609.11
429.97	3571.66
430.16	3569.32
430.34	3637.19
430.53	3747.20
430.72	3801.03
430.91	3777.62
431.10	3801.03
431.28	3864.22
431.47	3871.25
431.66	4086.58
431.85	3901.67
432.03	3969.55
432.22	3957.85
432.41	4004.66
432.60	4021.04
432.79	3995.29
432.97	3943.80
433.16	3962.53
433.35	4065.51
433.54	4117.00
433.72	4084.23
433.91	4030.40
434.10	4184.88
434.28	4100.62
434.47	4053.81
434.66	4219.99
434.85	4231.69
435.03	4147.43
435.22	4243.39
435.41	4287.86
435.59	4311.27
435.78	4334.67
435.97	4344.03
436.16	4224.67
436.34	4390.84
436.53	4266.80
436.72	4463.40
436.90	4344.03
437.09	4395.53
437.28	4365.10
437.46	4561.70
437.65	4465.74
437.84	4535.96
438.02	4608.51
438.21	4573.41
438.40	4507.87
438.58	4369.78
438.77	4657.67
438.96	4610.86
439.14	4751.29
439.33	4863.63
439.52	4849.59
439.70	4795.76
439.89	4793.42
440.08	4931.51
440.26	4734.90
440.45	4938.53
440.63	4865.97
440.82	5142.16
441.01	5008.75
441.19	5193.65
441.38	5233.44
441.57	5130.45
441.75	5085.98
441.94	5507.28
442.12	5329.40
442.31	5453.45
442.50	5427.70
442.68	5284.93
442.87	5313.02
443.05	5502.60
443.24	5394.93
443.43	5317.70
443.61	5301.31
443.80	5563.45
443.98	5380.89
444.17	5184.29
444.35	5420.68
444.54	5593.88
444.73	5493.24
444.91	5439.40
445.10	5504.94
445.28	5317.70
445.47	5418.34
445.65	5542.39
445.84	5579.84
446.02	5657.07
446.21	5788.14
446.39	5551.75
446.58	5654.73
446.77	5675.80
446.95	5441.75
447.14	5593.88
447.32	5682.82
447.51	5741.33
447.69	5736.65
447.88	5612.60
448.06	5657.07
448.25	5692.18
448.43	5724.95
448.62	5554.09
448.80	5717.93
448.99	5865.38
449.17	5865.38
449.36	5624.31
449.54	5844.32
449.73	6066.67
449.91	5912.19
450.10	5994.11
450.28	5996.45
450.46	6122.84
450.65	5898.15
450.83	6073.69
451.02	6076.03
451.20	6099.44
451.39	6115.82
451.57	6003.47
451.76	6106.46
451.94	5921.56
452.13	6113.48
452.31	5991.77
452.49	6005.81
452.68	6345.19
452.86	6209.44
453.05	6387.32
453.23	6293.70
453.42	6050.28
453.60	6270.30
453.78	6251.57
453.97	6211.78
454.15	6303.06
454.34	6197.74
454.52	6342.85
454.70	6373.28
454.89	6630.74
455.07	6464.56
455.26	6572.22
455.44	6422.43
455.62	6614.35
455.81	6436.47
455.99	6597.97
456.17	6614.35
456.36	6715.00
456.54	6843.73
456.73	6813.30
456.91	6944.37
457.09	6841.39
457.28	7091.82
457.46	6853.09
457.64	7070.76
457.83	6827.34
458.01	6874.15
458.19	7248.64
458.38	6963.09
458.56	7119.91
458.74	7075.44
458.93	7115.23
459.11	6937.35
459.29	7248.64
459.48	7030.97
459.66	7187.79
459.84	7290.77
460.03	7304.81
460.21	7487.37
460.39	7155.02
460.57	7377.37
460.76	7339.92
460.94	7431.20
461.12	7339.92
461.31	7475.67
461.49	7265.02
461.67	7321.20
461.85	7597.38
462.04	7360.98
462.22	7967.18
462.40	7667.60
462.59	7541.21
462.77	7761.22
462.95	7609.08
463.13	7466.31
463.32	7655.89
463.50	7772.92
463.68	7864.20
463.86	7796.32
464.05	7730.79
464.23	7744.83
464.41	7871.22
464.59	7714.41
464.78	7976.55
464.96	7953.14
465.14	7583.34
465.32	7737.81
465.50	8149.75
465.69	7859.52
465.87	7772.92
466.05	7969.52
466.23	8088.89
466.41	8093.57
466.60	8156.77
466.78	8065.49
466.96	7925.05
467.14	7988.25
467.32	8196.56
467.51	8344.01
467.69	8016.33
467.87	8067.83
468.05	8273.79
468.23	7974.21
468.41	8264.43
468.60	8306.56
468.78	8358.05
468.96	8138.04
469.14	8313.58
469.32	8439.97
469.50	8402.52
469.69	8404.86
469.87	8575.72
470.05	8545.30
470.23	8751.26
470.41	8552.32
470.59	8767.65
470.77	8678.71
470.95	8872.97
471.14	8940.85
471.32	8758.28
471.50	8784.03
471.68	8809.78
471.86	8936.17
472.04	9018.08
472.22	9116.39
472.40	9078.94
472.58	8912.76
472.77	9107.02
472.95	9198.31
473.13	9589.17
473.31	9210.01
473.49	9109.36
473.67	9373.85
473.85	9341.08
474.03	9472.15
474.21	9404.27
474.39	9394.91
474.57	9617.26
474.75	9778.76
474.93	9987.07
475.12	9561.09
475.30	9891.10
475.48	9654.71
475.66	9982.38
475.84	10029.20
476.02	9895.78
476.20	9973.02
476.38	10284.31
476.56	10270.27
476.74	10312.40
476.92	10391.98
477.10	10171.97
477.28	10434.11
477.46	10614.33
477.64	10743.06
477.82	10829.66
478.00	10787.53
478.18	10855.40
478.36	10998.18
478.54	11002.86
478.72	11075.42
478.90	11318.83
479.08	11482.67
479.26	11613.74
479.44	11325.85
479.62	11541.18
479.80	11707.36
479.98	11815.02
480.16	12091.21
480.34	12032.69
480.52	12025.67
480.70	12030.35
480.88	11953.12
481.06	12212.92
481.24	12276.11
481.41	12276.11
481.59	12451.65
481.77	12407.18
481.95	12688.04
482.13	12360.37
482.31	12807.41
482.49	13067.21
482.67	12912.74
482.85	13020.40
483.03	13420.63
483.21	13565.74
483.39	13504.89
483.57	13219.35
483.74	13530.64
483.92	13839.59
484.10	13610.22
484.28	13881.72
484.46	14129.81
484.64	14331.10
484.82	13919.17
485.00	14293.65
485.18	14707.93
485.35	14600.26
485.53	14677.50
485.71	14717.29
485.89	15110.50
486.07	14972.41
486.25	15304.76
486.43	15307.10
486.61	15391.36
486.78	15499.03
486.96	15639.46
487.14	15655.84
487.32	15871.17
487.50	16170.76
487.68	16002.24
487.85	16369.71
488.03	16549.93
488.21	16732.49
488.39	16460.99
488.57	16844.84
488.75	16776.96
488.92	17135.06
489.10	17209.96
489.28	17523.59
489.46	17418.27
489.64	17165.49
489.81	17703.81
489.99	17769.35
490.17	17855.95
490.35	17968.29
490.53	18068.94
490.70	18270.22
490.88	18328.74
491.06	18621.30
491.24	18427.04
491.41	18892.80
491.59	18892.80
491.77	18904.51
491.95	19190.05
492.13	18869.40
492.30	19267.29
492.48	19255.59
492.66	19494.32
492.84	19641.78
493.01	20119.24
493.19	19494.32
493.37	20149.67
493.54	19880.51
493.72	20189.46
493.90	19913.28
494.08	20191.80
494.25	20472.67
494.43	20617.78
494.61	20678.63
494.79	20608.42
494.96	20786.30
495.14	21032.05
495.32	21369.09
495.49	20905.66
495.67	21551.65
495.85	21729.53
496.02	21750.60
496.20	21701.45
496.38	21923.80
496.55	22256.15
496.73	22389.56
496.91	22300.62
497.09	22209.34
497.26	22537.02
497.44	22279.56
497.62	22775.75
497.79	22955.97
497.97	22817.88
498.14	23161.94
498.32	23213.43
498.50	23271.95
498.67	23433.44
498.85	23232.16
499.03	23793.89
499.20	23386.63
499.38	23697.92
499.56	23828.99
499.73	24175.39
499.91	24322.85
500.08	24180.07
500.26	23906.23
500.44	24503.07
500.61	24182.42
500.79	24112.20
500.97	24575.62
501.14	24629.46
501.32	24685.63
501.49	24812.02
501.67	25085.86
501.84	25174.80
502.02	25083.52
502.20	25263.74
502.37	25446.30
502.55	25167.78
502.72	25586.74
502.90	25462.69
503.07	25514.18
503.25	25886.32
503.43	25565.67
503.60	25951.86
503.78	26036.12
503.95	25666.31
504.13	25818.45
504.30	25930.80
504.48	26183.57
504.65	26448.05
504.83	26127.40
505.01	26312.30
505.18	26782.75
505.36	26789.77
505.53	26754.66
505.71	26824.88
505.88	26841.26
506.06	26436.35
506.23	27080.00
506.41	27012.12
506.58	27047.23
506.76	27269.58
506.93	27459.16
507.11	27529.38
507.28	27681.52
507.46	27674.49
507.63	27793.86
507.81	27875.78
507.98	27576.19
508.16	27938.97
508.33	27775.14
508.50	27943.66
508.68	28334.53
508.85	28250.27
509.03	28350.91
509.20	28407.08
509.38	28711.35
509.55	28795.61
509.73	28889.23
509.90	29170.10
510.08	28680.92
510.25	28662.20
510.42	29249.67
510.60	28945.41
510.77	28992.22
510.95	29535.22
511.12	29081.16
511.30	29862.90
511.47	29567.99
511.64	29479.05
511.82	30132.06
511.99	29287.12
512.17	29851.19
512.34	29806.72
512.51	30082.91
512.69	30274.83
512.86	30136.74
513.04	30230.36
513.21	30267.81
513.38	30335.68
513.56	30448.03
513.73	30426.96
513.90	30532.29
514.08	30913.80
514.25	30686.76
514.43	31255.51
514.60	31019.12
514.77	31012.10
514.95	30981.67
515.12	31061.25
515.29	30635.27
515.47	31445.10
515.64	31445.10
515.81	31262.54
515.99	31608.93
516.16	31695.53
516.33	31732.98
516.51	31945.97
516.68	31419.35
516.85	31648.72
517.03	31861.71
517.20	32149.60
517.37	31702.56
517.54	32142.58
517.72	32339.18
517.89	32297.05
518.06	32254.92
518.24	32308.76
518.41	32484.30
518.58	32484.30
518.75	32458.55
518.93	33195.82
519.10	32818.99
519.27	32512.38
519.45	32697.28
519.62	33308.16
519.79	33043.68
519.96	33263.69
520.14	32788.56
520.31	33046.02
520.48	33193.48
520.65	33472.00
520.83	33773.93
521.00	33523.49
521.17	33689.67
521.34	33731.80
521.52	33944.79
521.69	33883.94
521.86	33844.15
522.03	34211.61
522.20	34256.08
522.38	34340.34
522.55	34251.40
522.72	34546.31
522.89	34356.72
523.07	35103.35
523.24	34426.94
523.41	34714.83
523.58	34857.60
523.75	34780.36
523.92	34588.44
524.10	34824.83
524.27	34953.56
524.44	35416.99
524.61	35597.21
524.78	35192.30
524.96	35187.61
525.13	35470.82
525.30	35526.99
525.47	35611.25
525.64	35431.03
525.81	35405.28
525.98	36027.87
526.16	35562.10
526.33	35608.91
526.50	36091.06
526.67	35880.41
526.84	35866.37
527.01	35974.03
527.18	35821.90
527.36	36058.29
527.53	35995.10
527.70	36343.84
527.87	36348.52
528.04	36224.47
528.21	36292.35
528.38	36683.22
528.55	36364.90
528.72	36465.55
528.89	36297.03
529.07	36687.90
529.24	36268.94
529.41	36608.32
529.58	36737.05
529.75	36945.36
529.92	37013.23
530.09	37329.20
530.26	36982.80
530.43	37134.94
530.60	36650.45
530.77	36830.67
530.94	37022.59
531.11	36821.31
531.28	37488.36
531.46	37406.44
531.63	37738.80
531.80	37392.40
531.97	37551.56
532.14	37649.86
532.31	37457.93
532.48	37631.13
532.65	38059.45
532.82	37640.50
532.99	37965.83
533.16	37460.27
533.33	38330.95
533.50	38410.53
533.67	38110.94
533.84	37986.89
534.01	38022.00
534.18	37912.00
534.35	38677.35
534.52	38422.23
534.69	38567.35
534.86	38719.48
535.03	38230.31
535.20	38703.10
535.37	38714.80
535.54	38857.57
535.71	38557.99
535.88	38721.82
536.05	38948.85
536.22	38953.54
536.38	38930.13
536.55	38855.23
536.72	38824.81
536.89	38452.66
537.06	39351.43
537.23	39147.80
537.40	38806.08
537.57	38700.76
537.74	39126.74
537.91	39800.81
538.08	39189.93
538.25	39028.43
538.42	39180.57
538.59	39433.35
538.75	39503.56
538.92	39915.50
539.09	39859.32
539.26	39711.87
539.43	39466.11
539.60	39974.01
539.77	39414.62
539.94	39959.97
540.11	40318.07
540.28	39641.65
540.44	39889.75
540.61	40002.10
540.78	39894.43
540.95	40301.68
541.12	40217.43
541.29	40177.64
541.46	40486.59
541.62	39819.53
541.79	40718.30
541.96	39786.77
542.13	40435.10
542.30	40636.38
542.47	40383.60
542.63	40734.68
542.80	40879.80
542.97	41273.01
543.14	41081.08
543.31	40996.82
543.48	41078.74
543.64	41237.90
543.81	41200.45
543.98	41146.62
544.15	41305.77
544.32	41312.80
544.48	41507.06
544.65	41429.82
544.82	41123.21
544.99	41184.07
545.16	41317.48
545.32	41399.40
545.49	41722.39
545.66	41984.53
545.83	41900.27
546.00	41759.84
546.16	41647.49
546.33	41848.78
546.50	41528.13
546.67	42080.49
546.83	41567.91
547.00	41560.89
547.17	41846.44
547.34	41656.85
547.50	41823.03
547.67	42307.52
547.84	42122.62
548.00	42199.86
548.17	42466.68
548.34	42185.82
548.51	42775.63
548.67	42546.26
548.84	42396.46
549.01	42197.52
549.18	42099.22
549.34	43026.07
549.51	42780.31
549.68	42740.52
549.84	42483.06
550.01	42932.45
550.18	42532.22
550.34	42796.70
550.51	42967.55
550.68	42623.50
550.84	42490.09
551.01	43320.98
551.18	43068.20
551.34	42384.76
551.51	43016.71
551.68	43253.10
551.84	43154.80
552.01	43026.07
552.18	43159.48
552.34	43129.05
552.51	43171.18
552.68	42836.48
552.84	43185.22
553.01	43201.61
553.18	42944.15
553.34	43164.16
553.51	43777.38
553.67	43292.89
553.84	43360.76
554.01	43313.95
554.17	43503.54
554.34	43828.87
554.51	43688.44
554.67	44093.35
554.84	43971.64
555.00	43796.10
555.17	43976.33
555.33	44186.97
555.50	43569.07
555.67	43800.79
555.83	44107.40
556.00	43934.20
556.16	44406.98
556.33	43966.96
556.50	43803.13
556.66	43805.47
556.83	43744.61
556.99	44711.25
557.16	44067.61
557.32	44243.15
557.49	44409.32
557.65	44275.91
557.82	44502.95
557.98	44617.63
558.15	44802.53
558.32	44570.82
558.48	44168.25
558.65	44231.44
558.81	44289.96
558.98	43969.30
559.14	44259.53
559.31	44439.75
559.47	44411.67
559.64	44568.48
559.80	44194.00
559.97	44769.77
560.13	44540.39
560.30	44559.12
560.46	44928.92
560.63	44793.17
560.79	44783.81
560.96	44882.11
561.12	45097.44
561.29	44748.70
561.45	44706.57
561.61	44861.05
561.78	44863.39
561.94	44825.94
562.11	45029.57
562.27	44690.19
562.44	44634.02
562.60	45265.96
562.77	45162.98
562.93	44741.68
563.10	45165.32
563.26	44818.92
563.42	45081.06
563.59	44772.11
563.75	44940.63
563.92	44952.33
564.08	45198.09
564.24	45015.52
564.41	45003.82
564.57	45366.60
564.74	45268.30
564.90	45069.36
565.07	45361.92
565.23	44917.22
565.39	44959.35
565.56	45287.03
565.72	45460.23
565.88	45162.98
566.05	45492.99
566.21	45354.90
566.38	45357.24
566.54	45757.47
566.70	45635.77
566.87	45338.52
567.03	45565.55
567.19	45961.10
567.36	45244.90
567.52	45139.57
567.68	46005.57
567.85	45516.40
568.01	45881.52
568.17	45567.89
568.34	45471.93
568.50	45425.12
568.66	45434.48
568.83	45535.12
568.99	46103.87
569.15	45373.63
569.32	45418.10
569.48	45399.37
569.64	46092.17
569.81	45982.16
569.97	46012.59
570.13	45876.84
570.30	45673.21
570.46	45705.98
570.62	46373.03
570.78	45951.74
570.95	46007.91
571.11	46328.56
571.27	45603.00
571.43	45586.61
571.60	45450.86
571.76	45319.79
571.92	45708.32
572.09	45624.06
572.25	45907.27
572.41	45397.03
572.57	46092.17
572.74	46632.83
572.90	45977.48
573.06	45698.96
573.22	46319.20
573.38	45764.49
573.55	45982.16
573.71	45961.10
573.87	45780.88
574.03	46012.59
574.20	46258.35
574.36	45993.87
574.52	46251.33
574.68	45848.75
574.84	46199.83
575.01	46115.58
575.17	46094.51
575.33	46251.33
575.49	45984.51
575.65	46370.69
575.82	46298.14
575.98	46005.57
576.14	46258.35
576.30	46368.35
576.46	46146.00
576.62	45935.35
576.79	46178.77
576.95	46335.59
577.11	45448.52
577.27	45581.93
577.43	46176.43
577.59	46108.55
577.75	46511.13
577.92	45785.56
578.08	45858.12
578.24	46244.30
578.40	46031.32
578.56	46656.24
578.72	46543.89
578.88	46389.42
579.04	46000.89
579.21	46169.41
579.37	46656.24
579.53	46677.30
579.69	46138.98
579.85	45965.78
580.01	46272.39
580.17	46637.51
580.33	46548.57
580.49	46333.24
580.65	46078.13
580.82	46560.28
580.98	46351.97
581.14	46176.43
581.30	46377.72
581.46	46265.37
581.62	46330.90
581.78	46150.68
581.94	46564.96
582.10	46253.67
582.26	46511.13
582.42	46375.37
582.58	46291.12
582.74	46789.65
582.90	46358.99
583.06	46745.18
583.22	46260.69
583.38	46614.11
583.54	46410.48
583.70	46291.12
583.86	46794.33
584.02	46124.94
584.18	46962.85
584.34	46567.30
584.50	46581.34
584.66	46693.69
584.82	46707.73
584.98	46431.55
585.14	46965.19
585.30	46110.89
585.46	46780.29
585.62	46464.32
585.78	46611.77
585.94	45958.76
586.10	46553.26
586.26	46298.14
586.42	46728.80
586.58	46527.51
586.74	46433.89
586.90	46452.61
587.06	46333.24
587.22	46979.23
587.38	46344.95
587.54	46829.44
587.70	46813.05
587.86	46452.61
588.02	46501.76
588.18	46424.53
588.34	46777.95
588.49	47028.38
588.65	46480.70
588.81	46422.19
588.97	46761.56
589.13	46761.56
589.29	46686.67
589.45	46820.08
589.61	46866.89
589.77	46976.89
589.93	46784.97
590.08	47089.24
590.24	47402.87
590.40	46993.28
590.56	47332.65
590.72	46979.23
590.88	46969.87
591.04	47042.43
591.20	47208.61
591.35	46972.21
591.51	47466.06
591.67	47040.09
591.83	47166.48
591.99	46934.76
592.15	47033.07
592.31	46422.19
592.46	46777.95
592.62	47091.58
592.78	46766.24
592.94	47379.46
593.10	46946.47
593.26	47562.03
593.41	47430.96
593.57	46679.64
593.73	47044.77
593.89	47590.11
594.05	47547.98
594.20	47072.85
594.36	47414.57
594.52	47171.16
594.68	47276.48
594.84	46953.49
594.99	47562.03
595.15	47264.78
595.31	47161.79
595.47	47566.71
595.62	47229.67
595.78	47540.96
595.94	47339.68
596.10	47351.38
596.25	47208.61
596.41	47529.26
596.57	46719.43
596.73	47557.35
596.88	47632.24
597.04	47456.70
597.20	47765.65
597.36	46962.85
597.51	47246.05
597.67	47349.04
597.83	47285.84
597.99	47430.96
598.14	47264.78
598.30	47323.29
598.46	47419.25
598.61	47505.85
598.77	47437.98
598.93	47388.83
599.09	47000.30
599.24	47412.23
599.40	47643.94
599.56	47463.72
599.71	47887.36
599.87	48306.32
600.03	47948.21
600.18	47400.53
600.34	47306.91
600.50	46993.28
600.65	47068.17
600.81	47587.77
600.97	47426.28
601.12	47260.10
601.28	47419.25
601.44	47643.94
601.59	47622.88
601.75	47388.83
601.91	47632.24
602.06	47707.14
602.22	47878.00
602.37	47454.36
602.53	47770.33
602.69	47447.34
602.84	47325.63
603.00	47440.32
603.16	47587.77
603.31	47370.10
603.47	47739.91
603.62	47847.57
603.78	47538.62
603.94	47473.09
604.09	47873.32
604.25	47026.04
604.40	47042.43
604.56	47239.03
604.71	48105.03
604.87	47360.74
605.03	47187.54
605.18	47171.16
605.34	47229.67
605.49	46904.34
605.65	47442.66
605.80	47346.70
605.96	47470.75
606.12	47220.31
606.27	47772.67
606.43	47086.90
606.58	47650.97
606.74	47119.66
606.89	47580.75
607.05	47428.62
607.20	47236.69
607.36	47320.95
607.51	47241.37
607.67	47269.46
607.82	47274.14
607.98	47334.99
608.13	46831.78
608.29	47538.62
608.44	46880.93
608.60	46946.47
608.75	47271.80
608.91	47262.44
609.06	47187.54
609.22	47131.37
609.37	46951.15
609.53	46990.94
609.68	47433.30
609.84	47393.51
609.99	47140.73
610.15	47388.83
610.30	47316.27
610.46	47063.49
610.61	46923.06
610.76	47049.45
610.92	47072.85
611.07	46658.58
611.23	46827.10
611.38	46848.16
611.54	47089.24
611.69	47030.72
611.84	46925.40
612.00	46887.95
612.15	46831.78
612.31	47143.07
612.46	46937.10
612.62	46822.42
612.77	46831.78
612.92	46911.36
613.08	46913.70
613.23	46852.84
613.39	46677.30
613.54	46356.65
613.69	47070.51
613.85	46677.30
614.00	46892.63
614.15	47157.11
614.31	46611.77
614.46	46859.87
614.62	46632.83
614.77	46616.45
614.92	46911.36
615.08	46883.27
615.23	46735.82
615.38	46799.01
615.54	47236.69
615.69	46969.87
615.84	46471.34
616.00	47105.62
616.15	46361.33
616.30	46653.90
616.46	46431.55
616.61	46349.63
616.76	46583.68
616.92	46644.54
617.07	46543.89
617.22	46845.82
617.37	46082.81
617.53	46506.44
617.68	46557.94
617.83	46251.33
617.99	46738.16
618.14	46796.67
618.29	46677.30
618.45	46014.93
618.60	45900.25
618.75	45862.80
618.90	46185.79
619.06	46146.00
619.21	46192.81
619.36	46438.57
619.51	45958.76
619.67	45780.88
619.82	46160.05
619.97	46309.84
620.12	45954.08
620.28	46630.49
620.43	46293.46
620.58	46492.40
620.73	46340.27
620.89	46234.94
621.04	46686.67
621.19	45806.62
621.34	45841.73
621.49	45801.94
621.65	45698.96
621.80	46363.67
621.95	46021.95
622.10	45886.20
622.25	45883.86
622.41	45773.86
622.56	45752.79
622.71	46195.15
622.86	45865.14
623.01	45694.28
623.16	45659.17
623.32	45804.28
623.47	45731.73
623.62	46129.62
623.77	45897.91
623.92	45940.04
624.07	45649.81
624.23	45640.45
624.38	45647.47
624.53	45467.25
624.68	45268.30
624.83	45097.44
624.98	45867.48
625.13	45146.59
625.29	45359.58
625.44	45291.71
625.59	45759.81
625.74	45345.54
625.89	45228.51
626.04	44949.99
626.19	45275.32
626.34	45184.04
626.49	45036.59
626.65	44835.30
626.80	44921.90
626.95	45029.57
627.10	45256.60
627.25	44879.77
627.40	45303.41
627.55	44966.37
627.70	44982.76
627.85	45198.09
628.00	45057.65
628.15	44720.62
628.30	44861.05
628.45	44222.08
628.60	44790.83
628.76	44861.05
628.91	44594.23
629.06	44935.95
629.21	44573.16
629.36	44460.82
629.51	44603.59
629.66	44896.16
629.81	44657.42
629.96	44886.79
630.11	44893.82
630.26	44435.07
630.41	44514.65
630.56	44533.37
630.71	44533.37
630.86	44414.01
631.01	44339.11
631.16	44247.83
631.31	44002.07
631.46	44423.37
631.61	44524.01
631.76	44734.66
631.91	44793.17
632.06	44334.43
632.21	44346.13
632.36	44659.76
632.51	44041.86
632.66	44229.10
632.81	43800.79
632.96	44491.24
633.10	43849.94
633.25	44130.80
633.40	44479.54
633.55	44463.16
633.70	43966.96
633.85	43847.60
634.00	43899.09
634.15	43854.62
634.30	43669.72
634.45	44098.03
634.60	43875.68
634.75	43772.70
634.90	44259.53
635.05	43613.54
635.19	43805.47
635.34	43922.49
635.49	44044.20
635.64	44002.07
635.79	44004.41
635.94	43660.35
636.09	43606.52
636.24	43725.89
636.39	43681.42
636.53	43629.93
636.68	43227.35
636.83	43426.30
636.98	43519.92
637.13	43398.21
637.28	43419.28
637.43	43318.64
637.57	43452.05
637.72	43480.13
637.87	43367.79
638.02	43346.72
638.17	42794.36
638.32	43143.09
638.46	42873.93
638.61	43133.73
638.76	43466.09
638.91	43185.22
639.06	43311.61
639.20	42607.11
639.35	42927.77
639.50	42913.72
639.65	43161.82
639.80	43178.20
639.94	43082.24
640.09	43449.70
640.24	43248.42
640.39	42501.79
640.54	42548.60
640.68	42721.80
640.83	42930.11
640.98	42930.11
641.13	42394.12
641.27	42866.91
641.42	42677.33
641.57	43112.67
641.72	42632.86
641.86	42115.60
642.01	42373.06
642.16	42653.92
642.31	42265.39
642.45	42611.79
642.60	42101.56
642.75	42190.50
642.90	42607.11
643.04	42817.76
643.19	42241.99
643.34	42387.10
643.48	41860.48
643.63	42373.06
643.78	42588.39
643.93	42773.29
644.07	42506.47
644.22	42691.37
644.37	42436.25
644.51	42394.12
644.66	42670.31
644.81	42480.72
644.95	42230.29
645.10	42188.16
645.25	42155.39
645.39	42047.72
645.54	42024.32
645.69	41708.35
645.83	41680.26
645.98	42029.00
646.13	41961.12
646.27	41741.11
646.42	41748.14
646.57	42057.09
646.71	42115.60
646.86	41970.49
647.00	42139.00
647.15	42045.38
647.30	42363.70
647.44	41610.04
647.59	41972.83
647.74	41827.71
647.88	42171.77
648.03	42092.19
648.17	42211.56
648.32	41933.04
648.47	41752.82
648.61	41490.68
648.76	41656.85
648.90	41118.53
649.05	41743.45
649.20	41097.47
649.34	41525.78
649.49	41462.59
649.63	41715.37
649.78	41450.89
649.92	41682.60
650.07	41883.89
650.21	41825.37
650.36	41738.77
650.51	41322.16
650.65	41797.29
650.80	41762.18
650.94	41633.45
651.09	41123.21
651.23	41139.60
651.38	41586.64
651.52	40524.04
651.67	40870.43
651.81	41301.09
651.96	41336.20
652.10	41008.53
652.25	40563.82
652.39	41113.85
652.54	41282.37
652.68	40671.49
652.83	41001.50
652.97	40877.46
653.12	40802.56
653.26	41022.57
653.41	40816.60
653.55	40708.94
653.70	41125.55
653.84	41481.31
653.99	41301.09
654.13	40765.11
654.27	40865.75
654.42	40999.16
654.56	40552.12
654.71	40521.69
654.85	40856.39
655.00	40954.69
655.14	40601.27
655.29	40809.58
655.43	40847.03
655.57	40774.47
655.72	40084.01
655.86	40278.28
656.01	40158.91
656.15	40294.66
656.30	40133.17
656.44	40847.03
656.58	40509.99
656.73	40610.64
656.87	40177.64
657.01	40055.93
657.16	40205.72
657.30	40116.78
657.45	39665.06
657.59	39906.13
657.73	40006.78
657.88	39803.15
658.02	39880.39
658.16	40100.40
658.31	40648.08
658.45	39910.82
658.60	39707.19
658.74	40327.43
658.88	39903.79
659.03	39679.10
659.17	39674.42
659.31	39356.11
659.46	39693.15
659.60	39697.83
659.74	39124.40
659.89	38850.55
660.03	39431.01
660.17	39536.33
660.32	39063.54
660.46	38983.96
660.60	38522.88
660.74	38796.72
660.89	39108.01
661.03	38892.68
661.17	38960.56
661.32	38536.92
661.46	38820.13
661.60	38850.55
661.74	38623.52
661.89	38808.42
662.03	38735.87
662.17	38501.81
662.31	38333.29
662.46	38565.01
662.60	38497.13
662.74	38450.32
662.88	38422.23
663.03	37965.83
663.17	38251.38
663.31	37647.52
663.45	38410.53
663.60	38494.79
663.74	38382.45
663.88	38693.74
664.02	37530.49
664.17	38637.56
664.31	38073.49
664.45	37904.98
664.59	38064.13
664.73	37668.58
664.88	38117.96
665.02	37453.25
665.16	37593.68
665.30	37544.53
665.44	37677.94
665.59	37216.86
665.73	36856.42
665.87	37163.03
666.01	37558.58
666.15	37401.76
666.29	36851.73
666.44	37563.26
666.58	37453.25
666.72	37111.53
666.86	37078.77
667.00	36847.05
667.14	36650.45
667.28	36786.20
667.43	36804.92
667.57	36914.93
667.71	36919.61
667.85	36533.42
667.99	36914.93
668.13	36734.71
668.27	36315.75
668.41	36327.45
668.56	35739.98
668.70	36020.84
668.84	36268.94
668.98	35693.17
669.12	36030.21
669.26	35929.56
669.40	36205.75
669.54	36315.75
669.68	35723.60
669.82	35480.18
669.96	35587.85
670.10	35491.88
670.25	35817.22
670.39	35306.98
670.53	35831.26
670.67	35402.94
670.81	35255.49
670.95	35220.38
671.09	34705.46
671.23	34789.72
671.37	34918.45
671.51	35030.80
671.65	35033.14
671.79	35278.89
671.93	34888.03
672.07	35040.16
672.21	35016.75
672.35	34721.85
672.49	34668.02
672.63	34747.59
672.77	34600.14
672.91	34410.56
673.05	34408.22
673.19	34448.00
673.33	34265.44
673.47	34185.86
673.61	33963.51
673.75	33783.29
673.89	33640.52
674.03	33439.23
674.17	33539.88
674.31	33235.61
674.45	32971.13
674.59	33647.54
674.73	33310.50
674.87	32762.82
675.01	33085.81
675.15	32669.20
675.29	32662.18
675.43	32804.95
675.56	33008.58
675.70	32807.29
675.84	32680.90
675.98	32011.51
676.12	32414.08
676.26	32304.07
676.40	32304.07
676.54	31606.59
676.68	31864.05
676.82	31363.18
676.96	31903.84
677.10	31962.36
677.23	31800.86
677.37	31440.42
677.51	31473.18
677.65	31580.85
677.79	31690.85
677.93	31466.16
678.07	31117.42
678.21	30878.69
678.34	30897.41
678.48	30897.41
678.62	30661.02
678.76	30906.77
678.90	30321.64
679.04	30859.96
679.18	30717.19
679.31	30387.18
679.45	29975.24
679.59	29841.83
679.73	30019.71
679.87	29790.34
680.00	29769.27
680.14	29717.78
680.28	29546.92
680.42	29823.11
680.56	29703.74
680.70	29291.80
680.83	29198.18
680.97	29102.22
681.11	29570.33
681.25	29291.80
681.39	28772.21
681.52	28727.74
681.66	28589.64
681.80	28346.23
681.94	28393.04
682.07	28996.90
682.21	28273.67
682.35	28257.29
682.49	28222.18
682.62	27812.59
682.76	27777.48
682.90	28041.96
683.04	27543.42
683.17	27559.81
683.31	27295.33
683.45	27615.98
683.59	27410.01
683.72	27080.00
683.86	27087.02
684.00	26637.64
684.13	27026.17
684.27	26817.86
684.41	26813.18
684.55	26647.00
684.68	26639.98
684.82	26328.69
684.96	26595.51
685.09	26663.38
685.23	26333.37
685.37	26544.02
685.50	26476.14
685.64	25989.31
685.78	25645.25
685.91	25790.36
686.05	25706.10
686.19	24943.09
686.32	25348.00
686.46	24936.07
686.60	25186.50
686.73	25214.59
686.87	24905.64
687.01	25191.19
687.14	24739.46
687.28	25069.48
687.42	24898.62
687.55	24631.80
687.69	24587.33
687.82	24507.75
687.96	24606.05
688.10	24634.14
688.23	24479.66
688.37	24159.01
688.50	24203.48
688.64	23978.79
688.78	23826.65
688.91	23913.25
689.05	23737.71
689.18	23616.01
689.32	22841.29
689.46	23302.37
689.59	23290.67
689.73	23360.89
689.86	23407.70
690.00	23229.82
690.13	23096.41
690.27	22869.37
690.41	23058.96
690.54	22721.92
690.68	22852.99
690.81	22513.61
690.95	22424.67
691.08	22284.24
691.22	22036.14
691.35	22207.00
691.49	21979.97
691.62	22338.07
691.76	21596.12
691.89	21869.97
692.03	21385.47
692.16	21521.23
692.30	21619.53
692.43	21544.63
692.57	21055.46
692.70	21219.30
692.84	21212.28
692.97	20877.58
693.11	20711.40
693.24	20587.35
693.38	20713.74
693.51	20503.09
693.65	20472.67
693.78	20458.62
693.92	20278.40
694.05	20168.40
694.19	20205.84
694.32	20058.39
694.45	20290.10
694.59	20163.72
694.72	20051.37
694.86	19772.85
694.99	19796.25
695.13	19264.95
695.26	19054.30
695.39	19248.57
695.53	19407.72
695.66	19260.27
695.80	18979.40
695.93	19208.78
696.07	18871.74
696.20	18581.51
696.33	18504.28
696.47	18422.36
696.60	18768.76
696.73	18944.30
696.87	18604.92
697.00	18609.60
697.14	18239.79
697.27	18235.11
697.40	18125.11
697.54	17991.70
697.67	18284.26
697.80	17869.99
697.94	17701.47
698.07	17757.64
698.21	17481.46
698.34	17811.48
698.47	17664.02
698.61	17256.77
698.74	17249.75
698.87	17326.99
699.01	17174.85
699.14	17233.36
699.27	16877.60
699.40	16704.40
699.54	16863.56
699.67	16903.35
699.80	16823.77
699.94	16798.02
700.07	16788.66
700.20	16599.08
700.34	16123.95
700.47	16332.26
700.60	16266.72
700.73	16285.45
700.87	15941.39
701.00	16027.99
701.13	15962.45
701.26	15770.53
701.40	15719.04
701.53	15480.30
701.66	15616.05
701.79	15700.31
701.93	15342.21
702.06	15199.44
702.19	15061.35
702.32	15138.58
702.46	15503.71
702.59	15360.94
702.72	15255.61
702.85	15267.31
702.99	15157.31
703.12	14850.70
703.25	14719.63
703.38	14600.26
703.51	14616.65
703.65	14869.42
703.78	14401.32
703.91	14120.45
704.04	14211.73
704.17	13998.74
704.31	13989.38
704.44	14094.71
704.57	14139.18
704.70	14031.51
704.83	14022.15
704.96	14005.77
705.10	13689.79
705.23	13605.53
>>>>>End Processed Spectral Data<<<<<
