SpectraSuite Data File
++++++++++++++++++++++++++++++++++++
Date: Fri Oct 25 10:48:18 EDT 2013
User: price-jones
Dark Spectrum Present: No
Reference Spectrum Present: No
Number of Sampled Component Spectra: 1
Spectrometers: USB2+H05261
Integration Time (usec): 100000 (USB2+H05261)
Spectra Averaged: 1 (USB2+H05261)
Boxcar Smoothing: 0 (USB2+H05261)
Correct for Electrical Dark: No (USB2+H05261)
Strobe/Lamp Enabled: No (USB2+H05261)
Correct for Detector Non-linearity: No (USB2+H05261)
Correct for Stray Light: No (USB2+H05261)
Number of Pixels in Processed Spectrum: 2048
>>>>>Begin Processed Spectral Data<<<<<
365.73	205.97
365.92	205.97
366.12	205.97
366.32	63.19
366.52	21.06
366.72	102.98
366.91	23.41
367.11	121.71
367.31	0.00
367.51	21.06
367.70	72.56
367.90	9.36
368.10	32.77
368.30	77.24
368.49	72.56
368.69	79.58
368.89	35.11
369.09	14.04
369.28	42.13
369.48	84.26
369.68	37.45
369.87	119.37
370.07	126.39
370.27	133.41
370.47	203.63
370.66	369.80
370.86	397.89
371.06	512.58
371.25	528.96
371.45	440.02
371.65	498.53
371.84	514.92
372.04	468.11
372.24	491.51
372.44	533.64
372.63	472.79
372.83	571.09
373.03	557.05
373.22	550.03
373.42	543.00
373.62	599.18
373.81	636.63
374.01	610.88
374.21	547.69
374.40	559.39
374.60	664.71
374.79	624.92
374.99	657.69
375.19	608.54
375.38	634.29
375.58	620.24
375.78	697.48
375.97	568.75
376.17	587.47
376.37	615.56
376.56	690.46
376.76	592.16
376.95	610.88
377.15	608.54
377.35	704.50
377.54	697.48
377.74	653.01
377.93	678.76
378.13	690.46
378.33	671.73
378.52	688.12
378.72	711.52
378.91	746.63
379.11	662.37
379.31	702.16
379.50	657.69
379.70	748.97
379.89	720.88
380.09	746.63
380.28	744.29
380.48	809.83
380.68	744.29
380.87	702.16
381.07	732.59
381.26	784.08
381.46	620.24
381.65	681.10
381.85	692.80
382.04	812.17
382.24	763.01
382.43	657.69
382.63	755.99
382.83	695.14
383.02	786.42
383.22	737.27
383.41	802.80
383.61	826.21
383.80	812.17
384.00	856.64
384.19	699.82
384.39	805.14
384.58	828.55
384.78	870.68
384.97	866.00
385.17	908.13
385.36	844.93
385.56	863.66
385.75	856.64
385.95	901.11
386.14	877.70
386.34	777.06
386.53	823.87
386.72	851.96
386.92	896.43
387.11	873.02
387.31	882.38
387.50	856.64
387.70	908.13
387.89	945.58
388.09	940.90
388.28	910.47
388.48	938.55
388.67	983.02
388.86	1025.15
389.06	1013.45
389.25	961.96
389.45	980.68
389.64	1125.80
389.84	1006.43
390.03	1064.94
390.22	1090.69
390.42	1022.81
390.61	1027.50
390.81	1020.47
391.00	1025.15
391.19	1043.88
391.39	1116.44
391.58	1078.99
391.78	1071.97
391.97	1130.48
392.16	1139.84
392.36	1046.22
392.55	1008.77
392.75	1055.58
392.94	985.37
393.13	1036.86
393.33	1057.92
393.52	1160.91
393.71	1177.29
393.91	1287.29
394.10	1235.80
394.29	1191.33
394.49	1266.23
394.68	1240.48
394.88	1282.61
395.07	1322.40
395.26	1247.51
395.46	1406.66
395.65	1282.61
395.84	1359.85
396.04	1226.44
396.23	1263.89
396.42	1252.19
396.62	1177.29
396.81	1336.45
397.00	1261.55
397.19	1392.62
397.39	1430.07
397.58	1294.32
397.77	1434.75
397.97	1504.96
398.16	1563.48
398.35	1526.03
398.55	1448.79
398.74	1542.41
398.93	1619.65
399.12	1558.80
399.32	1563.48
399.51	1511.99
399.70	1549.43
399.90	1577.52
400.09	1621.99
400.28	1689.87
400.47	1722.63
400.67	1680.50
400.86	1720.29
401.05	1626.67
401.24	1748.38
401.44	1757.74
401.63	1884.13
401.82	1771.79
402.01	1736.68
402.21	1685.19
402.40	1900.52
402.59	1912.22
402.78	1830.30
402.97	1888.81
403.17	1877.11
403.36	1844.34
403.55	1886.47
403.74	1949.67
403.93	1856.04
404.13	1804.55
404.32	1837.32
404.51	1909.88
404.70	2036.27
404.89	1940.30
405.09	1954.35
405.28	1977.75
405.47	2019.88
405.66	1956.69
405.85	2069.03
406.05	2064.35
406.24	1982.43
406.43	2064.35
406.62	2111.16
406.81	2188.40
407.00	2052.65
407.20	2066.69
407.39	2148.61
407.58	2136.91
407.77	2207.13
407.96	2253.94
408.15	2305.43
408.34	2354.58
408.54	2326.49
408.73	2380.32
408.92	2377.98
409.11	2349.90
409.30	2228.19
409.49	2382.67
409.68	2277.34
409.87	2513.74
410.07	2335.85
410.26	2478.63
410.45	2457.56
410.64	2483.31
410.83	2478.63
411.02	2602.68
411.21	2715.02
411.40	2696.30
411.59	2813.32
411.78	2621.40
411.98	2623.74
412.17	2642.46
412.36	2731.41
412.55	2703.32
412.74	2710.34
412.93	2803.96
413.12	2722.04
413.31	2977.16
413.50	2846.09
413.69	2965.46
413.88	3023.97
414.07	3028.65
414.26	3007.59
414.45	3002.91
414.64	3000.57
414.83	3070.78
415.02	3075.46
415.22	3082.49
415.41	3269.73
415.60	3239.30
415.79	3248.66
415.98	3365.69
416.17	3302.50
416.36	3159.72
416.55	3260.37
416.74	3398.46
416.93	3384.41
417.12	3311.86
417.31	3316.54
417.50	3419.52
417.69	3475.70
417.88	3618.47
418.07	3571.66
418.26	3506.12
418.45	3569.32
418.64	3669.96
418.83	3772.94
419.02	3695.71
419.21	3721.45
419.39	3592.72
419.58	3520.17
419.77	3672.30
419.96	3761.24
420.15	3861.88
420.34	3786.99
420.53	3805.71
420.72	3770.60
420.91	3885.29
421.10	3892.31
421.29	4060.83
421.48	3936.78
421.67	3992.95
421.86	3896.99
422.05	3932.10
422.24	3712.09
422.43	3892.31
422.61	3955.51
422.80	4117.00
422.99	3990.61
423.18	4046.79
423.37	4100.62
423.56	4002.32
423.75	3920.40
423.94	3941.46
424.13	3850.18
424.32	3859.54
424.50	3983.59
424.69	4098.28
424.88	4046.79
425.07	4084.23
425.26	3896.99
425.45	3983.59
425.64	4044.45
425.83	4021.04
426.01	4079.55
426.20	4072.53
426.39	4152.11
426.58	4119.34
426.77	4007.00
426.96	4049.13
427.15	3920.40
427.33	4138.07
427.52	3971.89
427.71	4229.35
427.90	4184.88
428.09	4208.28
428.28	4306.59
428.46	4346.37
428.65	4245.73
428.84	4337.01
429.03	4358.08
429.22	4327.65
429.40	4322.97
429.59	4166.15
429.78	3964.87
429.97	4124.02
430.16	4117.00
430.34	4210.62
430.53	4210.62
430.72	4248.07
430.91	4299.56
431.10	4531.28
431.28	4681.07
431.47	4683.41
431.66	4844.91
431.85	4587.45
432.03	4795.76
432.22	4624.90
432.41	4706.82
432.60	4720.86
432.79	4793.42
432.97	4901.08
433.16	4870.65
433.35	4842.57
433.54	4875.34
433.72	4690.43
433.91	4828.53
434.10	4877.68
434.28	4910.44
434.47	4863.63
434.66	5020.45
434.85	5057.90
435.03	4957.25
435.22	5104.71
435.41	5305.99
435.59	5156.20
435.78	5135.14
435.97	5200.67
436.16	5231.10
436.34	5277.91
436.53	5163.22
436.72	5308.34
436.90	5167.90
437.09	5371.53
437.28	5247.48
437.46	5310.68
437.65	5256.84
437.84	5210.03
438.02	5322.38
438.21	5322.38
438.40	5205.35
438.58	5497.92
438.77	5600.90
438.96	5570.48
439.14	5717.93
439.33	5694.52
439.52	5874.74
439.70	5685.16
439.89	5795.17
440.08	5685.16
440.26	5774.10
440.45	5785.80
440.63	5860.70
440.82	6153.27
441.01	6061.99
441.19	6141.57
441.38	6090.07
441.57	6296.04
441.75	6396.68
441.94	6438.81
442.12	6487.96
442.31	6604.99
442.50	6574.56
442.68	6553.50
442.87	6373.28
443.05	6338.17
443.24	6513.71
443.43	6628.40
443.61	6796.92
443.80	6836.70
443.98	6429.45
444.17	6303.06
444.35	6726.70
444.54	6810.96
444.73	6768.83
444.91	6569.88
445.10	6370.94
445.28	6525.41
445.47	6719.68
445.65	6675.21
445.84	6595.63
446.02	6729.04
446.21	6670.53
446.39	6682.23
446.58	6998.20
446.77	6932.67
446.95	6722.02
447.14	6930.33
447.32	6918.62
447.51	6754.79
447.69	6780.53
447.88	6738.40
448.06	6822.66
448.25	6801.60
448.43	7087.14
448.62	6733.72
448.80	6857.77
448.99	6815.64
449.17	7115.23
449.36	6932.67
449.54	6953.73
449.73	7236.94
449.91	7225.23
450.10	7234.60
450.28	7370.35
450.46	7358.64
450.65	7269.70
450.83	7353.96
451.02	7300.13
451.20	7426.52
451.39	7508.44
451.57	7396.09
451.76	7232.26
451.94	7393.75
452.13	7417.16
452.31	7330.56
452.49	7241.62
452.68	7358.64
452.86	7349.28
453.05	7356.30
453.23	7461.63
453.42	7372.69
453.60	7241.62
453.78	7590.36
453.97	7641.85
454.15	7613.76
454.34	7489.71
454.52	7714.41
454.70	7632.49
454.89	7700.36
455.07	7770.58
455.26	7779.94
455.44	7812.71
455.62	7819.73
455.81	7882.92
455.99	7922.71
456.17	8004.63
456.36	7981.23
456.54	8091.23
456.73	8168.47
456.91	8259.75
457.09	8449.33
457.28	8351.03
457.46	8161.45
457.64	8500.83
457.83	8329.97
458.01	8009.31
458.19	8369.76
458.38	8329.97
458.56	8437.63
458.74	8491.46
458.93	8578.06
459.11	8329.97
459.29	8531.25
459.48	8582.74
459.66	8697.43
459.84	8592.11
460.03	8744.24
460.21	8620.19
460.39	8706.79
460.57	8732.54
460.76	8781.69
460.94	8791.05
461.12	8751.26
461.31	8746.58
461.49	8767.65
461.67	8915.10
461.85	8966.59
462.04	8840.20
462.22	9535.34
462.40	9102.34
462.59	9043.83
462.77	9022.77
462.95	9280.22
463.13	8990.00
463.32	8929.14
463.50	9217.03
463.68	9179.58
463.86	9069.58
464.05	9114.05
464.23	9090.64
464.41	9186.60
464.59	8980.64
464.78	9362.14
464.96	9294.27
465.14	9268.52
465.32	9434.70
465.50	9699.18
465.69	9437.04
465.87	9624.28
466.05	9350.44
466.23	9493.21
466.41	9446.40
466.60	9593.86
466.78	9404.27
466.96	9376.19
467.14	9523.64
467.32	9745.99
467.51	9830.25
467.69	9357.46
467.87	9568.11
468.05	9802.16
468.23	9586.83
468.41	9598.54
468.60	9820.89
468.78	9647.69
468.96	9703.86
469.14	9788.12
469.32	10015.15
469.50	9767.06
469.69	9947.28
469.87	9942.60
470.05	10139.20
470.23	10066.64
470.41	10036.22
470.59	10066.64
470.77	10101.75
470.95	10207.08
471.14	10209.42
471.32	10335.81
471.50	10366.23
471.68	10363.89
471.86	10464.54
472.04	10492.62
472.22	10579.22
472.40	10487.94
472.58	10441.13
472.77	10476.24
472.95	10689.23
473.13	10977.11
473.31	10656.46
473.49	10773.49
473.67	10771.15
473.85	10794.55
474.03	10991.16
474.21	11211.17
474.39	11208.83
474.57	11222.87
474.75	11218.19
474.93	11370.32
475.12	11274.36
475.30	11524.80
475.48	11651.19
475.66	11417.13
475.84	11438.20
476.02	11674.59
476.20	11508.41
476.38	11894.60
476.56	11810.34
476.74	12079.50
476.92	12025.67
477.10	12098.23
477.28	12362.71
477.46	12264.41
477.64	12449.31
477.82	12505.48
478.00	12798.05
478.18	12769.96
478.36	12985.29
478.54	12947.84
478.72	13128.06
478.90	13282.54
479.08	13245.09
479.26	13535.32
479.44	13448.72
479.62	13614.90
479.80	13694.47
479.98	13818.52
480.16	13834.91
480.34	13923.85
480.52	13806.82
480.70	13998.74
480.88	13973.00
481.06	14401.32
481.24	14160.24
481.41	14553.45
481.59	14534.73
481.77	14464.51
481.95	14728.99
482.13	15051.99
482.31	14717.29
482.49	14981.77
482.67	15126.88
482.85	15559.88
483.03	15594.99
483.21	15489.67
483.39	15702.65
483.57	15585.63
483.74	15857.13
483.92	15840.75
484.10	15819.68
484.28	16044.37
484.46	16442.26
484.64	16460.99
484.82	16414.18
485.00	16659.93
485.18	16678.66
485.35	16765.26
485.53	16500.78
485.71	16425.88
485.89	16994.63
486.07	16847.18
486.25	16840.15
486.43	17081.23
486.61	17483.80
486.78	17652.32
486.96	17607.85
487.14	18120.43
487.32	17930.84
487.50	18253.84
487.68	18733.65
487.85	18712.58
488.03	18785.14
488.21	18951.32
488.39	18965.36
488.57	18991.11
488.75	19187.71
488.92	19381.98
489.10	19721.35
489.28	19646.46
489.46	20194.14
489.64	20147.33
489.81	20655.23
489.99	20435.22
490.17	20702.04
490.35	20889.28
490.53	20582.67
490.70	20800.34
490.88	21144.40
491.06	21207.59
491.24	21076.52
491.41	21357.39
491.59	21275.47
491.77	21046.10
491.95	21774.00
492.13	21659.32
492.30	21874.65
492.48	22153.17
492.66	22593.19
492.84	22298.28
493.01	22352.12
493.19	22134.45
493.37	22572.13
493.54	22909.16
493.72	22576.81
493.90	22813.20
494.08	23473.23
494.25	23297.69
494.43	23819.63
494.61	23707.29
494.79	23550.47
494.96	23672.18
495.14	23927.30
495.32	24254.97
495.49	24159.01
495.67	24037.30
495.85	24177.73
496.02	24746.48
496.20	24790.95
496.38	24812.02
496.55	24861.17
496.73	25610.14
496.91	25502.48
497.09	25446.30
497.26	25642.91
497.44	25455.67
497.62	25736.53
497.79	25940.16
497.97	25556.31
498.14	25951.86
498.32	26066.55
498.50	26459.76
498.67	26387.20
498.85	26424.65
499.03	26728.92
499.20	26703.17
499.38	26698.49
499.56	27108.08
499.73	26962.97
499.91	27019.14
500.08	27033.19
500.26	26955.95
500.44	27126.81
500.61	26852.97
500.79	27314.05
500.97	27662.79
501.14	27477.89
501.32	27859.40
501.49	27388.95
501.67	28058.34
501.84	27995.15
502.02	28048.98
502.20	28470.28
502.37	28561.56
502.55	28364.95
502.72	28451.55
502.90	28844.76
503.07	28498.36
503.25	28428.15
503.43	28624.75
503.60	28903.28
503.78	28837.74
503.95	28879.87
504.13	28961.79
504.30	29020.30
504.48	28788.59
504.65	29202.86
504.83	29675.65
505.01	29773.95
505.18	29642.88
505.36	30270.15
505.53	29717.78
505.71	30433.99
505.88	30005.67
506.06	29851.19
506.23	30043.12
506.41	30010.35
506.58	30602.50
506.76	30513.56
506.93	30658.68
507.11	30759.32
507.28	30672.72
507.46	30611.87
507.63	30534.63
507.81	30717.19
507.98	30703.15
508.16	30768.68
508.33	30878.69
508.50	31314.03
508.68	31489.57
508.85	31552.76
509.03	31800.86
509.20	31613.62
509.38	31974.06
509.55	31941.29
509.73	31723.62
509.90	32027.89
510.08	32451.53
510.25	32329.82
510.42	32065.34
510.60	32456.21
510.77	32505.36
510.95	32636.43
511.12	32734.73
511.30	32718.35
511.47	33200.50
511.64	33055.39
511.82	33106.88
511.99	32762.82
512.17	32788.56
512.34	32713.67
512.51	32816.65
512.69	33656.90
512.86	33516.47
513.04	33369.02
513.21	33762.23
513.38	33181.77
513.56	33603.07
513.73	33523.49
513.90	33834.78
514.08	33745.84
514.25	33795.00
514.43	33804.36
514.60	33764.57
514.77	33853.51
514.95	34677.38
515.12	34146.08
515.29	34333.32
515.47	34855.26
515.64	34642.27
515.81	34307.57
515.99	34689.08
516.16	34651.63
516.33	34338.00
516.51	34410.56
516.68	34286.51
516.85	33940.11
517.03	34162.46
517.20	34366.09
517.37	34941.86
517.54	34923.13
517.72	34759.30
517.89	34508.86
518.06	34438.64
518.24	34771.00
518.41	35185.27
518.58	34607.16
518.75	35330.39
518.93	35728.28
519.10	35718.92
519.27	35718.92
519.45	35672.10
519.62	36311.07
519.79	36367.24
519.96	36055.95
520.14	36135.53
520.31	36102.76
520.48	36346.18
520.65	36133.19
520.83	36517.04
521.00	36458.52
521.17	36893.86
521.34	36715.98
521.52	36809.61
521.69	36849.39
521.86	37095.15
522.03	37212.18
522.20	36720.66
522.38	36673.85
522.55	37247.29
522.72	37076.43
522.89	36973.44
523.07	37479.00
523.24	37523.47
523.41	37691.99
523.58	37361.97
523.75	37748.16
523.92	37598.37
524.10	38176.48
524.27	37816.04
524.44	38265.42
524.61	37919.02
524.78	38064.13
524.96	38071.15
525.13	38487.77
525.30	38808.42
525.47	38719.48
525.64	38445.64
525.81	38174.14
525.98	38368.40
526.16	38218.61
526.33	37839.44
526.50	38520.54
526.67	38153.07
526.84	38036.05
527.01	37933.06
527.18	38499.47
527.36	39030.77
527.53	39019.07
527.70	39445.05
527.87	38759.27
528.04	39086.95
528.21	39239.08
528.38	39143.12
528.55	39817.19
528.72	39632.29
528.89	39990.39
529.07	39447.39
529.24	39271.85
529.41	39793.79
529.58	39323.34
529.75	39374.83
529.92	39917.84
530.09	39957.63
530.26	40027.84
530.43	40123.80
530.60	39903.79
530.77	39749.32
530.94	40388.28
531.11	40416.37
531.28	40072.31
531.46	40360.20
531.63	40371.90
531.80	40591.91
531.97	40318.07
532.14	40233.81
532.31	39964.65
532.48	40355.52
532.65	40500.63
532.82	40463.18
532.99	40624.68
533.16	40704.26
533.33	40081.67
533.50	40765.11
533.67	40631.70
533.84	40596.59
534.01	40636.38
534.18	41017.89
534.35	40926.61
534.52	41230.88
534.69	41352.58
534.86	41319.82
535.03	41315.14
535.20	41361.95
535.37	41427.48
535.54	41867.50
535.71	41167.68
535.88	41399.40
536.05	41434.50
536.22	41750.48
536.38	41303.43
536.55	41806.65
536.72	41830.05
536.89	41600.68
537.06	41530.47
537.23	41724.73
537.40	41167.68
537.57	41792.61
537.74	42010.28
537.91	42539.24
538.08	42253.69
538.25	41694.30
538.42	42197.52
538.59	42010.28
538.75	42003.25
538.92	42103.90
539.09	42337.95
539.26	42424.55
539.43	42241.99
539.60	42129.64
539.77	41804.31
539.94	42204.54
540.11	42059.43
540.28	42216.24
540.44	42635.20
540.61	42148.37
540.78	42408.17
540.95	42045.38
541.12	42277.10
541.29	42401.14
541.46	42564.98
541.62	42941.81
541.79	42590.73
541.96	42323.91
542.13	43084.58
542.30	42829.46
542.47	42754.57
542.63	43189.91
542.80	43133.73
542.97	43260.12
543.14	43370.13
543.31	43407.58
543.48	43342.04
543.64	43878.02
543.81	43775.04
543.98	43690.78
544.15	43477.79
544.32	43852.28
544.48	43538.65
544.65	43681.42
544.82	44179.95
544.99	43564.39
545.16	43782.06
545.32	43360.76
545.49	44217.40
545.66	44114.42
545.83	44292.30
546.00	43903.77
546.16	43943.56
546.33	44350.81
546.50	44165.91
546.67	43732.91
546.83	43718.87
547.00	44065.27
547.17	43997.39
547.34	43995.05
547.50	44390.60
547.67	44177.61
547.84	44287.62
548.00	44678.49
548.17	44559.12
548.34	44587.21
548.51	44800.19
548.67	44769.77
548.84	44926.58
549.01	44524.01
549.18	44905.52
549.34	44744.02
549.51	44566.14
549.68	44732.32
549.84	44769.77
550.01	45048.29
550.18	44737.00
550.34	44624.65
550.51	45059.99
550.68	44542.74
550.84	44928.92
551.01	44928.92
551.18	44456.14
551.34	44935.95
551.51	45071.70
551.68	45413.41
551.84	45352.56
552.01	45214.47
552.18	44825.94
552.34	45125.53
552.51	45588.95
552.68	45097.44
552.84	45617.04
553.01	45265.96
553.18	45230.85
553.34	45312.77
553.51	45443.84
553.67	45551.51
553.84	45619.38
554.01	45612.36
554.17	45713.00
554.34	45825.35
554.51	45464.91
554.67	45677.90
554.84	45139.57
555.00	45495.33
555.17	45626.40
555.33	45827.69
555.50	45406.39
555.67	45670.87
555.83	46127.28
556.00	45727.05
556.16	45862.80
556.33	45722.37
556.50	46138.98
556.66	45748.11
556.83	45701.30
556.99	45935.35
557.16	45556.19
557.32	45553.85
557.49	46047.70
557.65	45598.32
557.82	45766.84
557.98	45841.73
558.15	46178.77
558.32	46054.72
558.48	45649.81
558.65	45925.99
558.81	46202.18
558.98	45771.52
559.14	45537.46
559.31	45689.60
559.47	46272.39
559.64	46206.86
559.80	46726.46
559.97	46452.61
560.13	46150.68
560.30	45888.54
560.46	46548.57
560.63	46181.11
560.79	46473.68
560.96	46733.48
561.12	46429.21
561.29	46216.22
561.45	46190.47
561.61	46248.99
561.78	46319.20
561.94	45844.07
562.11	46061.74
562.27	46344.95
562.44	46307.50
562.60	46447.93
562.77	46918.38
562.93	46342.61
563.10	46887.95
563.26	46321.54
563.42	46677.30
563.59	46178.77
563.75	46043.02
563.92	47133.71
564.08	46447.93
564.24	47068.17
564.41	47021.36
564.57	46457.29
564.74	46447.93
564.90	46550.91
565.07	46632.83
565.23	46506.44
565.39	46213.88
565.56	46625.81
565.72	46841.14
565.88	46141.32
566.05	46679.64
566.21	46974.55
566.38	46637.51
566.54	46284.09
566.70	46923.06
566.87	46810.71
567.03	46506.44
567.19	46983.91
567.36	46742.84
567.52	46731.14
567.68	46843.48
567.85	46450.27
568.01	46415.16
568.17	46614.11
568.34	46768.58
568.50	47140.73
568.66	46726.46
568.83	47012.00
568.99	46295.80
569.15	46930.08
569.32	46490.06
569.48	46637.51
569.64	46787.31
569.81	46721.77
569.97	46478.36
570.13	46923.06
570.30	46525.17
570.46	46457.29
570.62	46478.36
570.78	46813.05
570.95	46733.48
571.11	46946.47
571.27	46958.17
571.43	46948.81
571.60	47056.47
571.76	46761.56
571.92	46630.49
572.09	46775.61
572.25	47203.92
572.41	46555.60
572.57	46777.95
572.74	47262.44
572.90	47002.64
573.06	46820.08
573.22	47065.83
573.38	46649.22
573.55	46731.14
573.71	47082.22
573.87	46934.76
574.03	46185.79
574.20	47091.58
574.36	46700.71
574.52	46944.12
574.68	47028.38
574.84	47217.97
575.01	46885.61
575.17	47124.35
575.33	46693.69
575.49	46597.73
575.65	47002.64
575.82	47468.40
575.98	46815.40
576.14	47009.66
576.30	47112.64
576.46	47234.35
576.62	47143.07
576.79	46553.26
576.95	46506.44
577.11	47023.70
577.27	47309.25
577.43	47068.17
577.59	46775.61
577.75	46667.94
577.92	46602.41
578.08	46323.88
578.24	46302.82
578.40	46937.10
578.56	47002.64
578.72	46799.01
578.88	47213.29
579.04	46845.82
579.21	46532.19
579.37	46925.40
579.53	46693.69
579.69	46909.02
579.85	46927.74
580.01	46918.38
580.17	46780.29
580.33	47360.74
580.49	47349.04
580.65	47409.89
580.82	47042.43
580.98	47082.22
581.14	46691.35
581.30	47250.74
581.46	47430.96
581.62	46953.49
581.78	46848.16
581.94	47278.82
582.10	46717.09
582.26	47290.52
582.42	47086.90
582.58	47234.35
582.74	47182.86
582.90	47180.52
583.06	47255.42
583.22	47377.12
583.38	47100.94
583.54	46958.17
583.70	46955.83
583.86	47171.16
584.02	46983.91
584.18	47185.20
584.34	46983.91
584.50	47019.02
584.66	47182.86
584.82	47271.80
584.98	47239.03
585.14	47173.50
585.30	47019.02
585.46	46892.63
585.62	47047.11
585.78	46827.10
585.94	47077.54
586.10	46703.05
586.26	46780.29
586.42	47311.59
586.58	47210.95
586.74	47594.79
586.90	46808.37
587.06	47063.49
587.22	47145.41
587.38	46845.82
587.54	47433.30
587.70	47271.80
587.86	47433.30
588.02	47232.01
588.18	47407.55
588.34	47358.40
588.49	46817.74
588.65	46614.11
588.81	46642.20
588.97	46766.24
589.13	46705.39
589.29	46700.71
589.45	47044.77
589.61	46714.75
589.77	47243.71
589.93	47180.52
590.08	47124.35
590.24	47269.46
590.40	47288.18
590.56	47365.42
590.72	46885.61
590.88	46845.82
591.04	47166.48
591.20	47515.22
591.35	47154.77
591.51	47693.10
591.67	47374.78
591.83	47145.41
591.99	46747.52
592.15	47012.00
592.31	47117.32
592.46	47271.80
592.62	47222.65
592.78	47381.80
592.94	47189.88
593.10	46976.89
593.26	46990.94
593.41	47330.31
593.57	47522.24
593.73	47220.31
593.89	47021.36
594.05	47353.72
594.20	47545.64
594.36	47384.15
594.52	47185.20
594.68	47042.43
594.84	47365.42
594.99	47545.64
595.15	47337.33
595.31	47194.56
595.47	46946.47
595.62	47360.74
595.78	47065.83
595.94	47894.38
596.10	47281.16
596.25	47512.88
596.41	47555.00
596.57	46904.34
596.73	47470.75
596.88	47613.52
597.04	47426.28
597.20	47400.53
597.36	47393.51
597.51	47660.33
597.67	47297.55
597.83	47407.55
597.99	47695.44
598.14	46951.15
598.30	47253.08
598.46	47107.96
598.61	47035.41
598.77	47206.26
598.93	47587.77
599.09	47416.91
599.24	47498.83
599.40	47377.12
599.56	47487.13
599.71	47339.68
599.87	47377.12
600.03	47166.48
600.18	47529.26
600.34	47344.36
600.50	47349.04
600.65	47143.07
600.81	47847.57
600.97	47765.65
601.12	47386.49
601.28	47569.05
601.44	47019.02
601.59	47114.98
601.75	46948.81
601.91	46923.06
602.06	47068.17
602.22	47255.42
602.37	47388.83
602.53	47695.44
602.69	47573.73
602.84	47257.76
603.00	47164.14
603.16	47332.65
603.31	47278.82
603.47	47402.87
603.62	46777.95
603.78	47690.76
603.94	47363.08
604.09	47583.09
604.25	47241.37
604.40	47342.02
604.56	47161.79
604.71	47409.89
604.87	47295.21
605.03	47224.99
605.18	47173.50
605.34	47178.18
605.49	47208.61
605.65	47384.15
605.80	47119.66
605.96	47306.91
606.12	46834.12
606.27	47529.26
606.43	47051.79
606.58	47030.72
606.74	47213.29
606.89	47100.94
607.05	47489.47
607.20	47124.35
607.36	46892.63
607.51	47484.79
607.67	47103.28
607.82	47175.84
607.98	47227.33
608.13	46665.60
608.29	47040.09
608.44	46834.12
608.60	46398.78
608.75	46740.50
608.91	46681.98
609.06	46784.97
609.22	46834.12
609.37	46656.24
609.53	46876.25
609.68	46871.57
609.84	46618.79
609.99	46801.35
610.15	46808.37
610.30	46417.50
610.46	46553.26
610.61	46380.06
610.76	46494.74
610.92	46756.88
611.07	46871.57
611.23	46733.48
611.38	46529.85
611.54	46101.53
611.69	46691.35
611.84	46557.94
612.00	46534.53
612.15	46382.40
612.31	46579.00
612.46	46485.38
612.62	46267.71
612.77	46366.01
612.92	46911.36
613.08	46459.63
613.23	46625.81
613.39	46377.72
613.54	46237.28
613.69	46026.63
613.85	45895.56
614.00	46295.80
614.15	46408.14
614.31	46138.98
614.46	46036.00
614.62	46103.87
614.77	46251.33
614.92	46162.39
615.08	45921.31
615.23	45940.04
615.38	46323.88
615.54	45876.84
615.69	46064.08
615.84	45713.00
616.00	46251.33
616.15	45736.41
616.30	45783.22
616.46	45523.42
616.61	45649.81
616.76	45970.46
616.92	45553.85
617.07	45401.71
617.22	45521.08
617.37	45663.85
617.53	45584.27
617.68	45794.92
617.83	45914.29
617.99	45380.65
618.14	45881.52
618.29	45743.43
618.45	45605.34
618.60	45275.32
618.75	45333.84
618.90	45682.58
619.06	45801.94
619.21	45500.01
619.36	45258.94
619.51	45488.31
619.67	45017.86
619.82	45268.30
619.97	45694.28
620.12	45123.19
620.28	45050.63
620.43	45406.39
620.58	45282.34
620.73	45172.34
620.89	45134.89
621.04	45244.90
621.19	44928.92
621.34	45375.97
621.49	45256.60
621.65	45305.75
621.80	45394.69
621.95	44865.73
622.10	44877.43
622.25	44938.29
622.41	44884.45
622.56	44673.81
622.71	45357.24
622.86	44706.57
623.01	44935.95
623.16	45052.97
623.32	45022.54
623.47	44666.78
623.62	44952.33
623.77	44821.26
623.92	44942.97
624.07	44519.33
624.23	44182.29
624.38	44643.38
624.53	44575.50
624.68	44980.42
624.83	44540.39
624.98	44406.98
625.13	44657.42
625.29	44488.90
625.44	43768.02
625.59	44313.36
625.74	43786.74
625.89	44151.87
626.04	44196.34
626.19	44210.38
626.34	44163.57
626.49	43941.22
626.65	44390.60
626.80	44203.36
626.95	43725.89
627.10	43714.19
627.25	43950.58
627.40	43438.00
627.55	43402.89
627.70	42939.47
627.85	43445.02
628.00	43985.69
628.15	43845.26
628.30	43627.59
628.45	43756.32
628.60	43505.88
628.76	44144.84
628.91	43810.15
629.06	43744.61
629.21	43711.84
629.36	43482.47
629.51	43702.48
629.66	43384.17
629.81	43674.40
629.96	43234.38
630.11	43337.36
630.26	43625.25
630.41	43370.13
630.56	43009.68
630.71	43194.59
630.86	43445.02
631.01	43150.12
631.16	43185.22
631.31	43103.31
631.46	42593.07
631.61	42710.10
631.76	42616.47
631.91	43037.77
632.06	43269.48
632.21	43168.84
632.36	43597.16
632.51	42656.26
632.66	43185.22
632.81	42319.23
632.96	42850.53
633.10	42665.63
633.25	42555.62
633.40	42672.65
633.55	42923.08
633.70	42653.92
633.85	42934.79
634.00	42574.34
634.15	42733.50
634.30	43243.74
634.45	42869.25
634.60	42492.43
634.75	42834.14
634.90	42176.45
635.05	42855.21
635.19	42887.98
635.34	42653.92
635.49	42590.73
635.64	42960.53
635.79	42508.81
635.94	42988.62
636.09	42452.64
636.24	42272.42
636.39	41933.04
636.53	42398.80
636.68	42019.64
636.83	42241.99
636.98	42267.73
637.13	41933.04
637.28	42660.94
637.43	42464.34
637.57	42583.71
637.72	42473.70
637.87	42052.41
638.02	42131.98
638.17	42501.79
638.32	41619.41
638.46	41607.70
638.61	41729.41
638.76	41642.81
638.91	42087.51
639.06	41825.37
639.20	41968.15
639.35	42164.75
639.50	41972.83
639.65	42005.59
639.80	42204.54
639.94	41975.17
640.09	41682.60
640.24	41682.60
640.39	41167.68
640.54	41422.80
640.68	41209.81
640.83	41500.04
640.98	41368.97
641.13	40964.06
641.27	41532.81
641.42	41483.66
641.57	41549.19
641.72	41308.11
641.86	40992.14
642.01	41069.38
642.16	41099.81
642.31	41350.24
642.45	40914.90
642.60	41064.70
642.75	40411.69
642.90	41301.09
643.04	40957.03
643.19	40786.18
643.34	41170.02
643.48	41195.77
643.63	41022.57
643.78	41090.44
643.93	40547.44
644.07	40650.42
644.22	41001.50
644.37	40781.49
644.51	41017.89
644.66	40971.08
644.81	41085.76
644.95	40671.49
645.10	40739.36
645.25	40664.47
645.39	41071.72
645.54	40825.96
645.69	40519.35
645.83	40751.07
645.98	40926.61
646.13	40559.14
646.27	40236.15
646.42	40367.22
646.57	40402.33
646.71	40360.20
646.86	40430.41
647.00	40481.91
647.15	40165.93
647.30	40350.84
647.44	40051.25
647.59	40198.70
647.74	40573.19
647.88	40144.87
648.03	39922.52
648.17	40163.59
648.32	39751.66
648.47	40385.94
648.61	40257.21
648.76	40669.15
648.90	40182.32
649.05	40184.66
649.20	40095.72
649.34	40533.40
649.49	39770.38
649.63	39477.82
649.78	40116.78
649.92	39323.34
650.07	39894.43
650.21	39669.74
650.36	39833.58
650.51	39875.71
650.65	40184.66
650.80	40282.96
650.94	40266.58
651.09	39662.72
651.23	39683.78
651.38	39618.25
651.52	39466.11
651.67	39634.63
651.81	40039.54
651.96	39262.49
652.10	39503.56
652.25	39108.01
652.39	39398.24
652.54	39913.16
652.68	39337.38
652.83	39480.16
652.97	39861.66
653.12	39232.06
653.26	39468.45
653.41	39044.82
653.55	39136.10
653.70	38700.76
653.84	39608.89
653.99	39065.88
654.13	39026.09
654.27	38974.60
654.42	39124.40
654.56	38962.90
654.71	39079.92
654.85	39171.21
655.00	38857.57
655.14	38693.74
655.29	38763.95
655.43	38497.13
655.57	38129.67
655.72	38174.14
655.86	38359.04
656.01	38129.67
656.15	38237.33
656.30	38192.86
656.44	38263.08
656.58	38321.59
656.73	38068.81
656.87	38099.24
657.01	37874.55
657.16	38216.27
657.30	38059.45
657.45	38389.47
657.59	38462.02
657.73	38134.35
657.88	38389.47
658.02	38342.66
658.16	38019.66
658.31	38525.22
658.45	38689.06
658.60	38052.43
658.74	38124.99
658.88	38124.99
659.03	37701.35
659.17	37649.86
659.31	38022.00
659.46	37680.28
659.60	37649.86
659.74	37780.93
659.89	37607.73
660.03	37464.96
660.17	38047.75
660.32	37226.22
660.46	38258.40
660.60	37497.72
660.74	37343.25
660.89	37846.46
661.03	36868.12
661.17	37324.52
661.32	36594.28
661.46	37205.16
661.60	36971.10
661.74	37247.29
661.89	37322.18
662.03	37111.53
662.17	37078.77
662.31	36776.84
662.46	36933.65
662.60	37242.60
662.74	37310.48
662.88	36821.31
663.03	36610.66
663.17	36875.14
663.31	36156.60
663.45	36655.13
663.60	36940.68
663.74	36666.83
663.88	36840.03
664.02	36514.70
664.17	35873.39
664.31	36306.39
664.45	36304.05
664.59	36392.99
664.73	36175.32
664.88	36091.06
665.02	35840.62
665.16	35957.65
665.30	36348.52
665.44	35964.67
665.59	35629.98
665.73	35859.35
665.87	35449.75
666.01	35976.37
666.15	35204.00
666.29	35658.06
666.44	35700.19
666.58	35409.96
666.72	36058.29
666.86	35747.00
667.00	35644.02
667.14	35115.06
667.28	35295.28
667.43	34773.34
667.57	35314.00
667.71	35096.33
667.85	35105.70
667.99	34873.98
668.13	34321.62
668.27	34918.45
668.41	35119.74
668.56	34429.28
668.70	34649.29
668.84	34637.59
668.98	34705.46
669.12	34546.31
669.26	34534.60
669.40	34656.31
669.54	34148.42
669.68	33841.81
669.82	33926.07
669.96	33872.23
670.10	33837.12
670.25	34204.59
670.39	33853.51
670.53	33872.23
670.67	33357.32
670.81	34113.31
670.95	34103.95
671.09	34155.44
671.23	33455.62
671.37	33701.37
671.51	33549.24
671.65	33684.99
671.79	33476.68
671.93	33226.24
672.07	33156.03
672.21	33404.13
672.35	32872.82
672.49	33216.88
672.63	33326.89
672.77	32957.08
672.91	33151.35
673.05	32994.53
673.19	32584.94
673.33	32753.46
673.47	32547.49
673.61	32299.39
673.75	32203.43
673.89	31938.95
674.03	31913.20
674.17	32065.34
674.31	32163.64
674.45	32002.14
674.59	32074.70
674.73	32023.21
674.87	32046.62
675.01	32072.36
675.15	31915.54
675.29	31845.33
675.43	31777.45
675.56	31747.03
675.70	31681.49
675.84	31225.09
675.98	30576.76
676.12	30817.83
676.26	31281.26
676.40	31028.48
676.54	30810.81
676.68	30909.11
676.82	30412.92
676.96	30855.28
677.10	30794.43
677.23	30976.99
677.37	30642.29
677.51	30417.60
677.65	30628.25
677.79	29923.75
677.93	30129.72
678.07	30235.04
678.21	29727.14
678.34	29752.89
678.48	29862.90
678.62	29432.24
678.76	29591.39
678.90	29605.44
679.04	29720.12
679.18	29766.93
679.31	29312.87
679.45	29024.98
679.59	28926.68
679.73	28971.15
679.87	28889.23
680.00	28992.22
680.14	28683.27
680.28	28287.71
680.42	28327.50
680.56	28549.85
680.70	28428.15
680.83	28208.14
680.97	28283.03
681.11	27936.63
681.25	28063.02
681.39	27803.22
681.52	28151.96
681.66	27707.26
681.80	27784.50
681.94	27302.35
682.07	27314.05
682.21	27498.95
682.35	27515.34
682.49	27302.35
682.62	27290.65
682.76	26782.75
682.90	26895.10
683.04	27140.85
683.17	26677.43
683.31	26473.80
683.45	26459.76
683.59	26251.45
683.72	26511.25
683.86	26363.79
684.00	26071.23
684.13	26235.06
684.27	26375.50
684.41	25982.29
684.55	25397.15
684.68	25743.55
684.82	25741.21
684.96	25570.35
685.09	25432.26
685.23	25659.29
685.37	25497.80
685.50	25635.89
685.64	25528.22
685.78	25348.00
685.91	25174.80
686.05	25294.17
686.19	24685.63
686.32	25036.71
686.46	24472.64
686.60	24336.89
686.73	24280.72
686.87	23756.44
687.01	24039.64
687.14	23552.81
687.28	23878.15
687.42	23917.93
687.55	23580.90
687.69	23681.54
687.82	23634.73
687.96	23484.94
688.10	23843.04
688.23	23197.05
688.37	23260.24
688.50	22930.23
688.64	22897.46
688.78	22941.93
688.91	22607.23
689.05	22869.37
689.18	22581.49
689.32	22391.91
689.46	22403.61
689.59	22600.21
689.73	22925.55
689.86	22366.16
690.00	22309.99
690.13	22530.00
690.27	22581.49
690.41	22658.73
690.54	22099.34
690.68	22094.66
690.81	21813.79
690.95	21654.64
691.08	21727.19
691.22	21493.14
691.35	21525.91
691.49	21645.27
691.62	21614.85
691.76	21474.42
691.89	21385.47
692.03	21317.60
692.16	21195.89
692.30	21263.77
692.43	21142.06
692.57	20737.15
692.70	20683.31
692.84	20744.17
692.97	20666.93
693.11	20278.40
693.24	20079.46
693.38	20308.83
693.51	20191.80
693.65	20135.63
693.78	20409.47
693.92	20037.33
694.05	20154.35
694.19	19941.36
694.32	19721.35
694.45	19784.55
694.59	19864.13
694.72	19339.85
694.86	19501.34
694.99	19014.51
695.13	19126.86
695.26	19168.99
695.39	18897.49
695.53	19314.10
695.66	19026.21
695.80	19007.49
695.93	18822.59
696.07	18251.50
696.20	18897.49
696.33	18960.68
696.47	18518.32
696.60	18508.96
696.73	18272.56
696.87	18305.33
697.00	18228.09
697.14	18295.97
697.27	18178.94
697.40	17933.18
697.54	17975.31
697.67	17942.55
697.80	17972.97
697.94	17554.02
698.07	17624.23
698.21	17642.96
698.34	17715.51
698.47	17486.14
698.61	17060.16
698.74	17156.13
698.87	16905.69
699.01	16982.93
699.14	16917.39
699.27	17064.85
699.40	16989.95
699.54	16765.26
699.67	16739.51
699.80	16496.10
699.94	16641.21
700.07	16465.67
700.20	16358.00
700.34	16479.71
700.47	16463.33
700.60	16308.85
700.73	16252.68
700.87	16056.08
701.00	16079.48
701.13	16037.35
701.26	16072.46
701.40	15929.69
701.53	15712.02
701.66	15896.92
701.79	15487.32
701.93	15363.28
702.06	15428.81
702.19	15115.18
702.32	15337.53
702.46	15295.40
702.59	15150.29
702.72	15033.26
702.85	15075.39
702.99	15269.66
703.12	15098.80
703.25	14995.81
703.38	14867.08
703.51	14890.49
703.65	14806.23
703.78	14380.25
703.91	14597.92
704.04	14665.80
704.17	14497.28
704.31	14508.98
704.44	14242.16
704.57	14143.86
704.70	13958.96
704.83	14214.07
704.96	14420.04
705.10	14286.63
705.23	14148.54
>>>>>End Processed Spectral Data<<<<<
