SpectraSuite Data File
++++++++++++++++++++++++++++++++++++
Date: Fri Oct 25 10:44:48 EDT 2013
User: price-jones
Dark Spectrum Present: No
Reference Spectrum Present: No
Number of Sampled Component Spectra: 1
Spectrometers: USB2+H05261
Integration Time (usec): 100000 (USB2+H05261)
Spectra Averaged: 1 (USB2+H05261)
Boxcar Smoothing: 0 (USB2+H05261)
Correct for Electrical Dark: No (USB2+H05261)
Strobe/Lamp Enabled: No (USB2+H05261)
Correct for Detector Non-linearity: No (USB2+H05261)
Correct for Stray Light: No (USB2+H05261)
Number of Pixels in Processed Spectrum: 2048
>>>>>Begin Processed Spectral Data<<<<<
365.73	84.26
365.92	84.26
366.12	84.26
366.32	51.49
366.52	60.85
366.72	2.34
366.91	58.51
367.11	60.85
367.31	0.00
367.51	117.03
367.70	11.70
367.90	60.85
368.10	0.00
368.30	30.43
368.49	32.77
368.69	23.41
368.89	65.54
369.09	21.06
369.28	67.88
369.48	0.00
369.68	63.19
369.87	112.35
370.07	53.83
370.27	119.37
370.47	205.97
370.66	327.68
370.86	430.66
371.06	437.68
371.25	423.64
371.45	477.47
371.65	409.59
371.84	500.87
372.04	421.30
372.24	421.30
372.44	498.53
372.63	465.77
372.83	468.11
373.03	449.38
373.22	451.72
373.42	430.66
373.62	528.96
373.81	543.00
374.01	500.87
374.21	571.09
374.40	514.92
374.60	507.90
374.79	521.94
374.99	596.84
375.19	500.87
375.38	550.03
375.58	533.64
375.78	580.45
375.97	571.09
376.17	648.33
376.37	566.41
376.56	543.00
376.76	585.13
376.95	552.37
377.15	561.73
377.35	641.31
377.54	582.79
377.74	603.86
377.93	624.92
378.13	662.37
378.33	596.84
378.52	566.41
378.72	641.31
378.91	657.69
379.11	594.50
379.31	608.54
379.50	624.92
379.70	629.60
379.89	685.78
380.09	634.29
380.28	617.90
380.48	702.16
380.68	638.97
380.87	629.60
381.07	629.60
381.26	695.14
381.46	685.78
381.65	664.71
381.85	631.94
382.04	695.14
382.24	681.10
382.43	716.20
382.63	741.95
382.83	688.12
383.02	716.20
383.22	660.03
383.41	636.63
383.61	758.33
383.80	720.88
384.00	777.06
384.19	702.16
384.39	763.01
384.58	758.33
384.78	695.14
384.97	758.33
385.17	758.33
385.36	688.12
385.56	758.33
385.75	814.51
385.95	847.27
386.14	777.06
386.34	788.76
386.53	746.63
386.72	772.38
386.92	802.80
387.11	802.80
387.31	861.32
387.50	809.83
387.70	826.21
387.89	758.33
388.09	819.19
388.28	800.46
388.48	826.21
388.67	861.32
388.86	805.14
389.06	870.68
389.25	929.19
389.45	849.61
389.64	938.55
389.84	903.45
390.03	950.26
390.22	912.81
390.42	875.36
390.61	924.51
390.81	896.43
391.00	1057.92
391.19	896.43
391.39	945.58
391.58	875.36
391.78	945.58
391.97	936.21
392.16	959.62
392.36	1001.75
392.55	990.05
392.75	903.45
392.94	945.58
393.13	980.68
393.33	903.45
393.52	933.87
393.71	994.73
393.91	1116.44
394.10	1055.58
394.29	1093.03
394.49	1100.05
394.68	1163.25
394.88	1160.91
395.07	1111.75
395.26	1088.35
395.46	1093.03
395.65	1043.88
395.84	1109.41
396.04	1137.50
396.23	1107.07
396.42	1055.58
396.62	1067.28
396.81	1226.44
397.00	1123.46
397.19	1128.14
397.39	1172.61
397.58	1214.74
397.77	1203.04
397.97	1219.42
398.16	1303.68
398.35	1345.81
398.55	1238.14
398.74	1369.21
398.93	1350.49
399.12	1308.36
399.32	1277.93
399.51	1369.21
399.70	1404.32
399.90	1315.38
400.09	1331.76
400.28	1413.68
400.47	1406.66
400.67	1493.26
400.86	1514.33
401.05	1423.05
401.24	1448.79
401.44	1469.86
401.63	1493.26
401.82	1535.39
402.01	1516.67
402.21	1540.07
402.40	1540.07
402.59	1526.03
402.78	1556.46
402.97	1526.03
403.17	1682.85
403.36	1523.69
403.55	1603.27
403.74	1638.38
403.93	1556.46
404.13	1614.97
404.32	1675.82
404.51	1696.89
404.70	1755.40
404.89	1614.97
405.09	1746.04
405.28	1685.19
405.47	1692.21
405.66	1846.68
405.85	1767.10
406.05	1729.66
406.24	1802.21
406.43	1795.19
406.62	1858.39
406.81	1893.49
407.00	1818.60
407.20	1809.23
407.39	1930.94
407.58	1966.05
407.77	1912.22
407.96	1914.56
408.15	1975.41
408.34	2052.65
408.54	1926.26
408.73	1912.22
408.92	1914.56
409.11	1989.46
409.30	2054.99
409.49	1977.75
409.68	2045.63
409.87	1949.67
410.07	2087.76
410.26	2038.61
410.45	2087.76
410.64	2073.71
410.83	2176.70
411.02	2251.60
411.21	2272.66
411.40	2265.64
411.59	2277.34
411.78	2338.20
411.98	2242.23
412.17	2291.38
412.36	2373.30
412.55	2441.18
412.74	2382.67
412.93	2471.61
413.12	2506.71
413.31	2513.74
413.50	2403.73
413.69	2574.59
413.88	2509.05
414.07	2562.89
414.26	2616.72
414.45	2670.55
414.64	2668.21
414.83	2679.91
415.02	2787.58
415.22	2834.39
415.41	2815.66
415.60	2757.15
415.79	2773.53
415.98	2932.69
416.17	2899.92
416.36	2911.63
416.55	2881.20
416.74	2899.92
416.93	2913.97
417.12	2906.95
417.31	3098.87
417.50	2988.86
417.69	3073.12
417.88	3066.10
418.07	2923.33
418.26	3131.64
418.45	3021.63
418.64	3232.28
418.83	3049.72
419.02	3126.96
419.21	3129.30
419.39	3232.28
419.58	3243.98
419.77	3234.62
419.96	3314.20
420.15	3384.41
420.34	3302.50
420.53	3272.07
420.72	3508.46
420.91	3351.65
421.10	3503.78
421.29	3342.28
421.48	3346.97
421.67	3508.46
421.86	3358.67
422.05	3365.69
422.24	3375.05
422.43	3377.39
422.61	3412.50
422.80	3566.98
422.99	3524.85
423.18	3651.24
423.37	3599.74
423.56	3616.13
423.75	3440.59
423.94	3566.98
424.13	3276.75
424.32	3480.38
424.50	3454.63
424.69	3480.38
424.88	3719.11
425.07	3555.27
425.26	3611.45
425.45	3508.46
425.64	3534.21
425.83	3482.72
426.01	3609.11
426.20	3655.92
426.39	3653.58
426.58	3421.86
426.77	3475.70
426.96	3543.57
427.15	3637.19
427.33	3789.33
427.52	3749.54
427.71	3623.15
427.90	3684.00
428.09	3857.20
428.28	3770.60
428.46	3831.46
428.65	3712.09
428.84	3775.28
429.03	3922.74
429.22	3688.68
429.40	3831.46
429.59	3829.12
429.78	3566.98
429.97	3585.70
430.16	3742.52
430.34	3765.92
430.53	3948.48
430.72	3915.72
430.91	3908.69
431.10	3999.98
431.28	3992.95
431.47	4198.92
431.66	4021.04
431.85	4070.19
432.03	4175.52
432.22	4231.69
432.41	4210.62
432.60	4278.50
432.79	4126.36
432.97	4236.37
433.16	4390.84
433.35	4227.01
433.54	4241.05
433.72	4222.33
433.91	4208.28
434.10	4332.33
434.28	4142.75
434.47	4311.27
434.66	4425.95
434.85	4299.56
435.03	4463.40
435.22	4514.89
435.41	4620.22
435.59	4496.17
435.78	4624.90
435.97	4573.41
436.16	4610.86
436.34	4667.03
436.53	4741.93
436.72	4660.01
436.90	4493.83
437.09	4498.51
437.28	4620.22
437.46	4861.29
437.65	4599.15
437.84	4734.90
438.02	4777.03
438.21	4713.84
438.40	4793.42
438.58	4847.25
438.77	4826.18
438.96	4959.60
439.14	4983.00
439.33	4912.78
439.52	5055.56
439.70	5057.90
439.89	5198.33
440.08	5160.88
440.26	5071.94
440.45	5008.75
440.63	5273.23
440.82	5535.37
441.01	5364.51
441.19	5373.87
441.38	5444.09
441.57	5357.49
441.75	5476.85
441.94	5713.25
442.12	5561.11
442.31	5774.10
442.50	5783.46
442.68	5516.64
442.87	5593.88
443.05	5680.48
443.24	5717.93
443.43	5680.48
443.61	5809.21
443.80	6008.16
443.98	5640.69
444.17	5654.73
444.35	5788.14
444.54	5926.24
444.73	5872.40
444.91	5933.26
445.10	5799.85
445.28	5944.96
445.47	5657.07
445.65	5893.47
445.84	5851.34
446.02	6024.54
446.21	5783.46
446.39	5830.27
446.58	5996.45
446.77	5977.73
446.95	5874.74
447.14	5973.05
447.32	6019.86
447.51	5886.45
447.69	5996.45
447.88	6071.35
448.06	5991.77
448.25	6017.52
448.43	6040.92
448.62	6052.63
448.80	5926.24
448.99	6122.84
449.17	6045.60
449.36	6066.67
449.54	6307.74
449.73	6310.08
449.91	6448.18
450.10	6408.39
450.28	6377.96
450.46	6377.96
450.65	6300.72
450.83	6359.24
451.02	6375.62
451.20	6604.99
451.39	6502.01
451.57	6544.14
451.76	6361.58
451.94	6420.09
452.13	6516.05
452.31	6363.92
452.49	6392.00
452.68	6614.35
452.86	6445.84
453.05	6722.02
453.23	6691.59
453.42	6602.65
453.60	6604.99
453.78	6715.00
453.97	6548.82
454.15	6640.10
454.34	6630.74
454.52	6747.76
454.70	6740.74
454.89	6871.81
455.07	6841.39
455.26	7037.99
455.44	6857.77
455.62	6939.69
455.81	6890.54
455.99	6981.82
456.17	7098.84
456.36	7014.59
456.54	7052.03
456.73	7248.64
456.91	7470.99
457.09	7316.51
457.28	7426.52
457.46	7150.34
457.64	7545.89
457.83	7211.19
458.01	7185.44
458.19	7435.88
458.38	7335.24
458.56	7461.63
458.74	7382.05
458.93	7351.62
459.11	7375.03
459.29	7370.35
459.48	7672.28
459.66	7595.04
459.84	7609.08
460.03	7796.32
460.21	7737.81
460.39	7573.97
460.57	7695.68
460.76	7625.47
460.94	7899.31
461.12	7859.52
461.31	8021.02
461.49	7836.11
461.67	7719.09
461.85	7953.14
462.04	8044.42
462.22	8063.15
462.40	8018.68
462.59	8013.99
462.77	7988.25
462.95	8191.88
463.13	8088.89
463.32	8184.85
463.50	8355.71
463.68	8063.15
463.86	8049.10
464.05	8107.62
464.23	8093.57
464.41	8234.00
464.59	8006.97
464.78	8166.13
464.96	8098.25
465.14	8065.49
465.32	8196.56
465.50	8355.71
465.69	8332.31
465.87	8306.56
466.05	8222.30
466.23	8245.71
466.41	8278.47
466.60	8430.61
466.78	8320.60
466.96	8407.20
467.14	8386.14
467.32	8472.74
467.51	8449.33
467.69	8432.95
467.87	8521.89
468.05	8472.74
468.23	8521.89
468.41	8479.76
468.60	8596.79
468.78	8683.39
468.96	8681.05
469.14	8578.06
469.32	8777.01
469.50	8425.93
469.69	8769.99
469.87	9076.60
470.05	8929.14
470.23	8828.50
470.41	9179.58
470.59	9259.16
470.77	8903.40
470.95	8903.40
471.14	9165.54
471.32	9205.33
471.50	9348.10
471.68	9308.31
471.86	9434.70
472.04	9488.53
472.22	9497.89
472.40	9334.06
472.58	9500.23
472.77	9572.79
472.95	9624.28
473.13	10012.81
473.31	9671.09
473.49	9689.82
473.67	9404.27
473.85	9708.54
474.03	9916.85
474.21	9914.51
474.39	9987.07
474.57	9966.00
474.75	10178.99
474.93	10087.71
475.12	9898.13
475.30	10314.74
475.48	10162.61
475.66	10223.46
475.84	10359.21
476.02	10509.01
476.20	10408.36
476.38	10483.26
476.56	10862.43
476.74	10824.98
476.92	10850.72
477.10	10899.87
477.28	11131.59
477.46	11075.42
477.64	10934.98
477.82	11403.09
478.00	11248.61
478.18	11356.28
478.36	11503.73
478.54	11674.59
478.72	11569.27
478.90	11592.67
479.08	11906.31
479.26	12091.21
479.44	12074.82
479.62	11817.36
479.80	12131.00
479.98	12187.17
480.16	12435.27
480.34	12421.22
480.52	12556.97
480.70	12648.26
480.88	12116.95
481.06	12418.88
481.24	12578.04
481.41	12989.97
481.59	12980.61
481.77	13249.77
481.95	12954.87
482.13	13584.47
482.31	13404.25
482.49	13540.00
482.67	13481.49
482.85	13568.09
483.03	13752.99
483.21	13933.21
483.39	14111.09
483.57	13853.63
483.74	14125.13
483.92	14523.02
484.10	14230.46
484.28	14293.65
484.46	14721.97
484.64	14899.85
484.82	14483.24
485.00	14890.49
485.18	14909.21
485.35	15166.67
485.53	14651.75
485.71	15159.65
485.89	15192.42
486.07	15360.94
486.25	15269.66
486.43	15510.73
486.61	15728.40
486.78	15936.71
486.96	15866.49
487.14	16273.74
487.32	16175.44
487.50	16507.80
487.68	16767.60
487.85	16882.28
488.03	16779.30
488.21	16814.41
488.39	17036.76
488.57	17104.64
488.75	17184.21
488.92	17570.40
489.10	17434.65
489.28	17816.16
489.46	17919.14
489.64	17928.50
489.81	18183.62
489.99	18600.24
490.17	18370.86
490.35	18588.53
490.53	18546.40
490.70	18904.51
490.88	18586.19
491.06	18672.79
491.24	19073.03
491.41	18827.27
491.59	19260.27
491.77	19239.20
491.95	19417.08
492.13	19758.80
492.30	19807.95
492.48	19831.36
492.66	19695.61
492.84	19894.55
493.01	20194.14
493.19	20357.98
493.37	20311.17
493.54	20561.61
493.72	20788.64
493.90	20989.92
494.08	21015.67
494.25	21195.89
494.43	21523.57
494.61	21214.62
494.79	21289.51
494.96	21170.15
495.14	21586.76
495.32	21614.85
495.49	21685.06
495.67	21982.31
495.85	22106.36
496.02	22340.41
496.20	22422.33
496.38	22499.57
496.55	22733.62
496.73	22642.34
496.91	22951.29
497.09	23330.46
497.26	23073.00
497.44	22951.29
497.62	23473.23
497.79	23417.06
497.97	23407.70
498.14	23379.61
498.32	23356.21
498.50	23620.69
498.67	24133.26
498.85	23772.82
499.03	24217.52
499.20	24013.90
499.38	23857.08
499.56	24128.58
499.73	24362.64
499.91	24444.56
500.08	24664.57
500.26	24526.47
500.44	24711.38
500.61	24753.51
500.79	24512.43
500.97	25153.74
501.14	25139.69
501.32	25256.72
501.49	25432.26
501.67	25516.52
501.84	25385.45
502.02	25340.98
502.20	25743.55
502.37	25715.47
502.55	25170.12
502.72	25898.03
502.90	25827.81
503.07	25696.74
503.25	26302.94
503.43	25816.11
503.60	26012.71
503.78	25996.33
503.95	26052.50
504.13	26471.46
504.30	26429.33
504.48	26831.90
504.65	26745.30
504.83	26834.24
505.01	26768.71
505.18	26677.43
505.36	27253.20
505.53	27644.07
505.71	27388.95
505.88	27281.28
506.06	27421.72
506.23	27484.91
506.41	27213.41
506.58	27833.65
506.76	27571.51
506.93	27672.15
507.11	27655.77
507.28	28086.43
507.46	27718.96
507.63	28191.75
507.81	27922.59
507.98	28142.60
508.16	28416.44
508.33	28301.76
508.50	28163.67
508.68	28659.86
508.85	28678.58
509.03	28617.73
509.20	28580.28
509.38	29219.25
509.55	28982.85
509.73	29333.93
509.90	28917.32
510.08	29017.96
510.25	28772.21
510.42	29490.75
510.60	29207.55
510.77	29362.02
510.95	29972.90
511.12	29619.48
511.30	29951.84
511.47	30176.53
511.64	30003.33
511.82	30139.08
511.99	30295.89
512.17	30110.99
512.34	30284.19
512.51	30314.62
512.69	30532.29
512.86	30237.38
513.04	30513.56
513.21	30899.75
513.38	30242.06
513.56	30546.33
513.73	30820.17
513.90	30506.54
514.08	30581.44
514.25	30972.31
514.43	30930.18
514.60	31297.64
514.77	31208.70
514.95	31426.37
515.12	31218.07
515.29	31150.19
515.47	31545.74
515.64	31742.35
515.81	31615.96
515.99	31763.41
516.16	32004.49
516.33	31512.97
516.51	31929.59
516.68	31257.85
516.85	31777.45
517.03	32037.25
517.20	31718.94
517.37	32311.10
517.54	31985.76
517.72	31756.39
517.89	32037.25
518.06	32065.34
518.24	32130.87
518.41	31999.80
518.58	32472.59
518.75	32411.74
518.93	32690.26
519.10	32517.06
519.27	33090.49
519.45	32669.20
519.62	32587.28
519.79	33373.70
519.96	32933.68
520.14	33132.62
520.31	33500.09
520.48	33261.35
520.65	33130.28
520.83	33682.65
521.00	33284.76
521.17	33329.23
521.34	33837.12
521.52	33738.82
521.69	33366.68
521.86	33968.19
522.03	33514.13
522.20	33970.54
522.38	34235.02
522.55	34223.31
522.72	34096.92
522.89	34155.44
523.07	34293.53
523.24	34073.52
523.41	35119.74
523.58	34422.26
523.75	34653.97
523.92	34459.71
524.10	35108.04
524.27	35044.84
524.44	35065.91
524.61	35281.24
524.78	35267.19
524.96	35168.89
525.13	35110.38
525.30	35311.66
525.47	35358.47
525.64	35534.01
525.81	35646.36
525.98	35211.02
526.16	35145.48
526.33	35260.17
526.50	35681.47
526.67	35557.42
526.84	35250.81
527.01	35299.96
527.18	36093.40
527.36	36149.57
527.53	36119.15
527.70	35887.43
527.87	36128.51
528.04	35828.92
528.21	35824.24
528.38	36126.17
528.55	36378.95
528.72	36334.48
528.89	36467.89
529.07	36238.51
529.24	36128.51
529.41	36304.05
529.58	36470.23
529.75	36304.05
529.92	36896.20
530.09	36683.22
530.26	36804.92
530.43	36720.66
530.60	36383.63
530.77	36617.68
530.94	36978.12
531.11	36701.94
531.28	37273.03
531.46	37027.28
531.63	37434.53
531.80	37404.10
531.97	37031.96
532.14	36683.22
532.31	37364.31
532.48	37443.89
532.65	37200.47
532.82	37425.17
532.99	37596.03
533.16	37329.20
533.33	37635.81
533.50	37855.82
533.67	37872.21
533.84	37890.93
534.01	37792.63
534.18	37912.00
534.35	37921.36
534.52	37736.46
534.69	38202.22
534.86	38515.86
535.03	37689.65
535.20	38574.37
535.37	38522.88
535.54	38665.65
535.71	38394.15
535.88	38380.10
536.05	38174.14
536.22	38429.26
536.38	38562.67
536.55	38457.34
536.72	38529.90
536.89	38686.71
537.06	38712.46
537.23	38658.63
537.40	38614.16
537.57	39152.48
537.74	39070.56
537.91	39091.63
538.08	39225.04
538.25	38501.81
538.42	39063.54
538.59	39044.82
538.75	38787.36
538.92	39466.11
539.09	38885.66
539.26	39292.91
539.43	39491.86
539.60	39281.21
539.77	38888.00
539.94	39388.88
540.11	39309.30
540.28	39573.78
540.44	39129.08
540.61	39047.16
540.78	39344.41
540.95	39360.79
541.12	39068.22
541.29	39793.79
541.46	39313.98
541.62	39168.87
541.79	39791.45
541.96	39466.11
542.13	39576.12
542.30	39835.92
542.47	39845.28
542.63	39871.03
542.80	40055.93
542.97	40451.48
543.14	40289.98
543.31	40266.58
543.48	40341.47
543.64	40797.88
543.81	40605.95
543.98	40610.64
544.15	40201.04
544.32	40552.12
544.48	40755.75
544.65	40825.96
544.82	40563.82
544.99	40456.16
545.16	40727.66
545.32	40591.91
545.49	41067.04
545.66	41338.54
545.83	41067.04
546.00	41163.00
546.16	41350.24
546.33	40950.01
546.50	40861.07
546.67	41013.21
546.83	40912.56
547.00	40835.33
547.17	40919.59
547.34	40727.66
547.50	41556.21
547.67	41553.87
547.84	41244.92
548.00	41397.06
548.17	41354.93
548.34	41713.03
548.51	41979.85
548.67	41806.65
548.84	41478.97
549.01	41488.34
549.18	41656.85
549.34	41837.08
549.51	41879.21
549.68	41263.64
549.84	41710.69
550.01	41963.46
550.18	41895.59
550.34	41893.25
550.51	42117.94
550.68	41862.82
550.84	41511.74
551.01	42066.45
551.18	42518.17
551.34	41633.45
551.51	41902.61
551.68	41900.27
551.84	42087.51
552.01	41792.61
552.18	42045.38
552.34	41605.36
552.51	42394.12
552.68	42305.18
552.84	42653.92
553.01	42026.66
553.18	42403.49
553.34	42227.95
553.51	42134.32
553.67	42499.45
553.84	42389.44
554.01	42504.13
554.17	42440.93
554.34	42562.64
554.51	42747.54
554.67	42829.46
554.84	42967.55
555.00	42642.22
555.17	42679.67
555.33	42703.07
555.50	42836.48
555.67	42937.13
555.83	42518.17
556.00	42506.47
556.16	42792.01
556.33	43398.21
556.50	43051.81
556.66	42951.17
556.83	42464.34
556.99	43234.38
557.16	43065.86
557.32	43028.41
557.49	43115.01
557.65	43164.16
557.82	43292.89
557.98	43005.00
558.15	43084.58
558.32	42972.24
558.48	43105.65
558.65	43063.52
558.81	42866.91
558.98	42906.70
559.14	42930.11
559.31	43119.69
559.47	43232.04
559.64	43459.07
559.80	43604.18
559.97	43501.20
560.13	43098.62
560.30	43175.86
560.46	43267.14
560.63	43667.37
560.79	43690.78
560.96	43391.19
561.12	43342.04
561.29	43548.01
561.45	43150.12
561.61	43257.78
561.78	43344.38
561.94	43400.55
562.11	43730.57
562.27	43234.38
562.44	43208.63
562.60	43697.80
562.77	43791.42
562.93	43573.75
563.10	43796.10
563.26	43037.77
563.42	43744.61
563.59	44039.52
563.75	43590.14
563.92	43662.69
564.08	44004.41
564.24	44081.65
564.41	43934.20
564.57	43545.67
564.74	43667.37
564.90	43679.08
565.07	43459.07
565.23	43969.30
565.39	43517.58
565.56	43882.70
565.72	43597.16
565.88	43587.80
566.05	43704.82
566.21	44201.02
566.38	43522.26
566.54	43885.04
566.70	44402.30
566.87	44046.54
567.03	44079.31
567.19	44184.63
567.36	44311.02
567.52	43793.76
567.68	44252.51
567.85	43995.05
568.01	43887.39
568.17	43611.20
568.34	44357.83
568.50	44076.97
568.66	44198.68
568.83	44430.39
568.99	43966.96
569.15	43599.50
569.32	43597.16
569.48	44210.38
569.64	44179.95
569.81	43931.86
569.97	44105.06
570.13	44390.60
570.30	43735.25
570.46	44151.87
570.62	44058.24
570.78	43887.39
570.95	43772.70
571.11	44594.23
571.27	44100.37
571.43	43969.30
571.60	44308.68
571.76	44013.77
571.92	44339.11
572.09	44196.34
572.25	43604.18
572.41	44048.88
572.57	44385.92
572.74	44601.25
572.90	44416.35
573.06	44341.45
573.22	44114.42
573.38	44189.31
573.55	43833.55
573.71	44201.02
573.87	43592.48
574.03	44189.31
574.20	44292.30
574.36	43784.40
574.52	44261.87
574.68	44184.63
574.84	44247.83
575.01	44350.81
575.17	43976.33
575.33	43627.59
575.49	43779.72
575.65	44343.79
575.82	44451.45
575.98	44186.97
576.14	44360.17
576.30	44086.33
576.46	44500.61
576.62	44460.82
576.79	44516.99
576.95	44296.98
577.11	44444.43
577.27	44404.64
577.43	44526.35
577.59	44622.31
577.75	44289.96
577.92	43739.93
578.08	43906.11
578.24	43995.05
578.40	44048.88
578.56	44467.84
578.72	44191.65
578.88	44828.28
579.04	44758.06
579.21	44580.18
579.37	44531.03
579.53	44378.90
579.69	44147.18
579.85	44037.18
580.01	44552.10
580.17	44261.87
580.33	44861.05
580.49	44652.74
580.65	44954.67
580.82	44596.57
580.98	44191.65
581.14	44367.20
581.30	44561.46
581.46	44828.28
581.62	44804.88
581.78	44107.40
581.94	44783.81
582.10	44194.00
582.26	43992.71
582.42	44622.31
582.58	44362.51
582.74	44238.47
582.90	44837.64
583.06	44893.82
583.22	44722.96
583.38	44549.76
583.54	44392.94
583.70	44390.60
583.86	44479.54
584.02	44144.84
584.18	44701.89
584.34	44809.56
584.50	44734.66
584.66	44311.02
584.82	44189.31
584.98	44774.45
585.14	44446.77
585.30	44509.97
585.46	44322.72
585.62	44563.80
585.78	44170.59
585.94	44151.87
586.10	44458.48
586.26	44404.64
586.42	44442.09
586.58	44772.11
586.74	44893.82
586.90	44030.16
587.06	44456.14
587.22	44416.35
587.38	44039.52
587.54	44556.78
587.70	44870.41
587.86	44729.98
588.02	44699.55
588.18	44865.73
588.34	44271.23
588.49	44034.84
588.65	44144.84
588.81	44334.43
588.97	44622.31
589.13	44795.51
589.29	44247.83
589.45	44659.76
589.61	44765.09
589.77	44236.12
589.93	44458.48
590.08	44610.61
590.24	44760.40
590.40	44758.06
590.56	44954.67
590.72	44673.81
590.88	44563.80
591.04	44690.19
591.20	44793.17
591.35	45200.43
591.51	45511.72
591.67	45099.78
591.83	45249.58
591.99	44545.08
592.15	44814.24
592.31	44680.83
592.46	44711.25
592.62	45022.54
592.78	44978.07
592.94	44896.16
593.10	45174.68
593.26	45294.05
593.41	44664.44
593.57	44928.92
593.73	44435.07
593.89	44758.06
594.05	44722.96
594.20	44839.98
594.36	45151.27
594.52	44589.55
594.68	44802.53
594.84	44587.21
594.99	45244.90
595.15	44545.08
595.31	44739.34
595.47	44746.36
595.62	44704.23
595.78	45088.08
595.94	45455.54
596.10	45170.00
596.25	44889.13
596.41	45284.68
596.57	44751.04
596.73	45471.93
596.88	44439.75
597.04	44669.12
597.20	44849.35
597.36	45373.63
597.51	44994.46
597.67	45350.22
597.83	44704.23
597.99	45186.38
598.14	44980.42
598.30	44802.53
598.46	44605.93
598.61	44870.41
598.77	44549.76
598.93	44732.32
599.09	44566.14
599.24	45174.68
599.40	45326.81
599.56	45347.88
599.71	45188.72
599.87	45455.54
600.03	44835.30
600.18	44584.86
600.34	45258.94
600.50	45223.83
600.65	45202.77
600.81	45038.93
600.97	44823.60
601.12	45289.37
601.28	45015.52
601.44	45010.84
601.59	44905.52
601.75	44739.34
601.91	44545.08
602.06	44877.43
602.22	45544.48
602.37	45106.80
602.53	45113.83
602.69	45628.74
602.84	45179.36
603.00	44638.70
603.16	44851.69
603.31	44758.06
603.47	44519.33
603.62	44772.11
603.78	44809.56
603.94	44809.56
604.09	45375.97
604.25	45230.85
604.40	45242.56
604.56	44671.46
604.71	45226.17
604.87	44598.91
605.03	45315.11
605.18	44694.87
605.34	44664.44
605.49	44378.90
605.65	44788.49
605.80	44947.65
605.96	44680.83
606.12	44980.42
606.27	44861.05
606.43	44807.22
606.58	44722.96
606.74	44720.62
606.89	44596.57
607.05	44722.96
607.20	44751.04
607.36	44540.39
607.51	44849.35
607.67	45212.13
607.82	44762.75
607.98	44669.12
608.13	44514.65
608.29	44566.14
608.44	43852.28
608.60	44217.40
608.75	44428.05
608.91	44444.43
609.06	44231.44
609.22	44561.46
609.37	43941.22
609.53	44591.89
609.68	44292.30
609.84	44531.03
609.99	44114.42
610.15	44418.69
610.30	44320.38
610.46	44463.16
610.61	44311.02
610.76	44399.96
610.92	44435.07
611.07	44053.56
611.23	43863.98
611.38	44741.68
611.54	44629.34
611.69	44062.93
611.84	44086.33
612.00	44196.34
612.15	43784.40
612.31	44095.69
612.46	44053.56
612.62	44212.72
612.77	43906.11
612.92	44304.00
613.08	44032.50
613.23	44282.94
613.39	44201.02
613.54	43548.01
613.69	44163.57
613.85	44013.77
614.00	44030.16
614.15	44619.97
614.31	44133.14
614.46	44205.70
614.62	44133.14
614.77	43817.17
614.92	44229.10
615.08	44083.99
615.23	44023.14
615.38	43313.95
615.54	43416.94
615.69	43548.01
615.84	43758.66
616.00	43772.70
616.15	43395.87
616.30	43463.75
616.46	43152.46
616.61	43166.50
616.76	43580.78
616.92	42799.04
617.07	42958.19
617.22	43152.46
617.37	42953.51
617.53	43512.90
617.68	43346.72
617.83	43669.72
617.99	43501.20
618.14	43306.93
618.29	43414.60
618.45	43173.52
618.60	43335.02
618.75	43423.96
618.90	43519.92
619.06	43601.84
619.21	43690.78
619.36	43480.13
619.51	43548.01
619.67	43145.44
619.82	43505.88
619.97	42983.94
620.12	43196.93
620.28	42777.97
620.43	43044.79
620.58	42981.60
620.73	43222.67
620.89	43131.39
621.04	43126.71
621.19	43250.76
621.34	43042.45
621.49	42789.67
621.65	42342.63
621.80	43054.15
621.95	42813.08
622.10	42712.44
622.25	42426.89
622.41	42183.48
622.56	42639.88
622.71	42852.87
622.86	42583.71
623.01	42646.90
623.16	42506.47
623.32	42719.46
623.47	42803.72
623.62	42794.36
623.77	42293.48
623.92	42199.86
624.07	42403.49
624.23	42424.55
624.38	42029.00
624.53	42595.41
624.68	42642.22
624.83	42370.72
624.98	42588.39
625.13	42181.13
625.29	42148.37
625.44	42370.72
625.59	42141.35
625.74	41710.69
625.89	41993.89
626.04	41504.72
626.19	42469.02
626.34	41771.54
626.49	42260.71
626.65	42384.76
626.80	42073.47
626.95	41963.46
627.10	42302.84
627.25	41373.65
627.40	41757.50
627.55	41579.62
627.70	41184.07
627.85	41500.04
628.00	41427.48
628.15	41668.56
628.30	41338.54
628.45	41635.79
628.60	41778.56
628.76	41865.16
628.91	41682.60
629.06	41544.51
629.21	41179.39
629.36	41598.34
629.51	41354.93
629.66	41153.64
629.81	41256.62
629.96	41202.79
630.11	41230.88
630.26	41792.61
630.41	41764.52
630.56	41486.00
630.71	41071.72
630.86	41214.49
631.01	40919.59
631.16	41305.77
631.31	41399.40
631.46	40786.18
631.61	40957.03
631.76	41148.96
631.91	40807.24
632.06	41144.28
632.21	41518.76
632.36	41689.62
632.51	40573.19
632.66	40996.82
632.81	40575.53
632.96	40570.85
633.10	40751.07
633.25	41067.04
633.40	40947.67
633.55	40645.74
633.70	41106.83
633.85	40772.13
634.00	40540.42
634.15	40952.35
634.30	40783.83
634.45	40725.32
634.60	40343.81
634.75	40598.93
634.90	40151.89
635.05	40266.58
635.19	40397.65
635.34	40636.38
635.49	40849.37
635.64	40119.12
635.79	40177.64
635.94	40570.85
636.09	40397.65
636.24	40364.88
636.39	40268.92
636.53	40357.86
636.68	40034.86
636.83	40058.27
636.98	40404.67
637.13	39669.74
637.28	40336.79
637.43	40392.97
637.57	40076.99
637.72	39835.92
637.87	39746.98
638.02	40259.55
638.17	39772.72
638.32	40004.44
638.46	39786.77
638.61	39721.23
638.76	39889.75
638.91	40016.14
639.06	39859.32
639.20	40069.97
639.35	39789.11
639.50	39735.27
639.65	39812.51
639.80	39978.69
639.94	39868.69
640.09	39533.99
640.24	39541.01
640.39	39496.54
640.54	39683.78
640.68	39585.48
640.83	39714.21
640.98	39718.89
641.13	39164.18
641.27	39445.05
641.42	39456.75
641.57	39288.23
641.72	39140.78
641.86	39178.23
642.01	39201.63
642.16	38983.96
642.31	38752.25
642.45	38895.02
642.60	38955.88
642.75	39208.65
642.90	39210.99
643.04	39241.42
643.19	38838.85
643.34	38892.68
643.48	38944.17
643.63	38827.15
643.78	38497.13
643.93	38766.29
644.07	38925.45
644.22	38761.61
644.37	38476.07
644.51	38759.27
644.66	39108.01
644.81	39005.03
644.95	38710.12
645.10	38845.87
645.25	38932.47
645.39	38644.59
645.54	38562.67
645.69	38773.31
645.83	38836.51
645.98	38405.85
646.13	38429.26
646.27	38855.23
646.42	38780.34
646.57	38609.48
646.71	38733.53
646.86	39096.31
647.00	39131.42
647.15	38733.53
647.30	38630.54
647.44	38263.08
647.59	38419.89
647.74	38609.48
647.88	38087.54
648.03	38569.69
648.17	38230.31
648.32	38026.68
648.47	38300.53
648.61	38185.84
648.76	38080.52
648.90	38403.51
649.05	38024.34
649.20	38160.09
649.34	38305.21
649.49	38092.22
649.63	38209.25
649.78	37834.76
649.92	37507.08
650.07	38223.29
650.21	37572.62
650.36	38148.39
650.51	37567.94
650.65	38361.38
650.80	38295.85
650.94	38174.14
651.09	37820.72
651.23	37455.59
651.38	37926.04
651.52	37677.94
651.67	37537.51
651.81	37944.76
651.96	37699.01
652.10	37844.12
652.25	37053.02
652.39	37486.02
652.54	37654.54
652.68	37713.05
652.83	37701.35
652.97	37462.61
653.12	37352.61
653.26	37336.23
653.41	37113.87
653.55	37336.23
653.70	37249.63
653.84	37371.33
653.99	37212.18
654.13	37006.21
654.27	37106.85
654.42	37055.36
654.56	37439.21
654.71	37390.06
654.85	37095.15
655.00	37280.05
655.14	36912.59
655.29	37076.43
655.43	36994.51
655.57	36985.15
655.72	36940.68
655.86	36493.63
656.01	36879.82
656.15	36914.93
656.30	36807.26
656.44	36432.78
656.58	36664.49
656.73	37092.81
656.87	36699.60
657.01	36828.33
657.16	36711.30
657.30	36512.36
657.45	36123.83
657.59	36371.92
657.73	36503.00
657.88	36584.91
658.02	36811.95
658.16	36872.80
658.31	36935.99
658.45	36287.67
658.60	36072.34
658.74	36334.48
658.88	36517.04
659.03	36339.16
659.17	36074.68
659.31	35990.42
659.46	35814.88
659.60	36318.09
659.74	36030.21
659.89	35737.64
660.03	35662.74
660.17	36121.49
660.32	36002.12
660.46	36088.72
660.60	35903.82
660.74	35725.94
660.89	35515.29
661.03	35538.69
661.17	35559.76
661.32	35501.25
661.46	35812.54
661.60	35435.71
661.74	35622.95
661.89	35604.23
662.03	35388.90
662.17	35000.37
662.31	34831.85
662.46	35632.32
662.60	35199.32
662.74	35522.31
662.88	35147.82
663.03	34635.25
663.17	34991.01
663.31	34850.58
663.45	34862.28
663.60	34953.56
663.74	34707.80
663.88	34616.52
664.02	34799.08
664.17	34902.07
664.31	34714.83
664.45	34593.12
664.59	34370.77
664.73	34045.43
664.88	34251.40
665.02	33984.58
665.16	34211.61
665.30	34389.49
665.44	33986.92
665.59	33874.57
665.73	34204.59
665.87	33986.92
666.01	34518.22
666.15	33869.89
666.29	34057.14
666.44	34536.94
666.58	34417.58
666.72	33804.36
666.86	33949.47
667.00	33944.79
667.14	33614.77
667.28	33450.94
667.43	33167.73
667.57	33940.11
667.71	33294.12
667.85	33476.68
667.99	33081.13
668.13	33256.67
668.27	33319.87
668.41	33240.29
668.56	33039.00
668.70	33369.02
668.84	33369.02
668.98	32926.66
669.12	33120.92
669.26	32587.28
669.40	32315.78
669.54	32596.64
669.68	32917.29
669.82	32615.37
669.96	32439.82
670.10	32456.21
670.25	32657.49
670.39	32402.38
670.53	32390.67
670.67	31927.25
670.81	32769.84
670.95	32308.76
671.09	32126.19
671.23	31835.97
671.37	32460.89
671.51	31854.69
671.65	31857.03
671.79	31690.85
671.93	31569.15
672.07	32077.04
672.21	32116.83
672.35	31824.26
672.49	31555.10
672.63	31662.77
672.77	31388.92
672.91	31353.82
673.05	31400.63
673.19	31463.82
673.33	30902.09
673.47	31103.38
673.61	31119.76
673.75	30745.28
673.89	30506.54
674.03	30780.39
674.17	30742.94
674.31	30438.67
674.45	30803.79
674.59	30693.79
674.73	30890.39
674.87	30494.84
675.01	30541.65
675.15	30642.29
675.29	30742.94
675.43	29944.81
675.56	30045.46
675.70	30073.54
675.84	29876.94
675.98	29371.38
676.12	29893.32
676.26	30141.42
676.40	29858.21
676.54	29986.94
676.68	29652.25
676.82	29331.59
676.96	29795.02
677.10	29172.44
677.23	29041.37
677.37	29390.11
677.51	29118.60
677.65	28952.43
677.79	28414.10
677.93	28655.18
678.07	28734.76
678.21	28144.94
678.34	28266.65
678.48	28240.90
678.62	28128.56
678.76	28261.97
678.90	27840.67
679.04	27697.90
679.18	28053.66
679.31	27363.20
679.45	27611.30
679.59	27285.97
679.73	27304.69
679.87	27428.74
680.00	27131.49
680.14	27173.62
680.28	27091.70
680.42	27349.16
680.56	27274.26
680.70	27058.93
680.83	27353.84
680.97	26843.60
681.11	26904.46
681.25	26679.77
681.39	26480.82
681.52	26548.70
681.66	26370.82
681.80	26466.78
681.94	26597.85
682.07	26602.53
682.21	26256.13
682.35	26312.30
682.49	26321.66
682.62	25956.54
682.76	25795.04
682.90	25818.45
683.04	25692.06
683.17	25638.23
683.31	25387.79
683.45	25579.71
683.59	25380.77
683.72	25205.23
683.86	25235.66
684.00	24847.13
684.13	25191.19
684.27	24980.54
684.41	24725.42
684.55	24659.88
684.68	24727.76
684.82	24673.93
684.96	24512.43
685.09	24367.32
685.23	24357.96
685.37	24081.77
685.50	24269.01
685.64	24203.48
685.78	23892.19
685.91	23749.42
686.05	23601.96
686.19	23843.04
686.32	23250.88
686.46	23445.15
686.60	23061.30
686.73	23096.41
686.87	23112.79
687.01	22970.02
687.14	22817.88
687.28	23082.36
687.42	22860.01
687.55	23000.44
687.69	22862.35
687.82	22738.30
687.96	22775.75
688.10	22714.90
688.23	22419.99
688.37	22125.08
688.50	22141.47
688.64	22075.93
688.78	21958.91
688.91	22043.17
689.05	22085.30
689.18	22279.56
689.32	21542.29
689.46	21816.13
689.59	21898.05
689.73	21675.70
689.86	21781.03
690.00	21113.97
690.13	21448.67
690.27	21593.78
690.41	21081.21
690.54	20868.22
690.68	20699.70
690.81	21039.08
690.95	20826.09
691.08	20638.84
691.22	20828.43
691.35	20751.19
691.49	21015.67
691.62	20606.08
691.76	20271.38
691.89	20264.36
692.03	20170.74
692.16	20201.16
692.30	20182.44
692.43	20056.05
692.57	19826.68
692.70	19723.69
692.84	19974.13
692.97	19655.82
693.11	19197.07
693.24	19534.11
693.38	19377.30
693.51	19405.38
693.65	19304.74
693.78	19501.34
693.92	19407.72
694.05	19094.09
694.19	19157.28
694.32	18853.02
694.45	18857.70
694.59	18717.26
694.72	18686.84
694.86	18508.96
694.99	18696.20
695.13	18429.38
695.26	18134.47
695.39	18342.78
695.53	18246.82
695.66	18291.29
695.80	18087.66
695.93	18090.00
696.07	17858.29
696.20	18085.32
696.33	18176.60
696.47	17556.36
696.60	17474.44
696.73	17572.74
696.87	17635.94
697.00	17720.20
697.14	17521.25
697.27	17224.00
697.40	17195.92
697.54	17156.13
697.67	17298.90
697.80	16812.07
697.94	16596.74
698.07	16842.50
698.21	16765.26
698.34	16496.10
698.47	16570.99
698.61	16535.88
698.74	16327.58
698.87	16376.73
699.01	16105.23
699.14	15868.83
699.27	16070.12
699.40	15964.79
699.54	15817.34
699.67	15786.91
699.80	15981.18
699.94	15761.17
700.07	15885.22
700.20	15873.51
700.34	15545.84
700.47	15594.99
700.60	15925.00
700.73	15590.31
700.87	15667.55
701.00	15382.00
701.13	15222.84
701.26	15269.66
701.40	15136.24
701.53	15016.88
701.66	15211.14
701.79	14808.57
701.93	14785.16
702.06	14499.62
702.19	14780.48
702.32	14576.86
702.46	14675.16
702.59	14604.94
702.72	14370.89
702.85	14415.36
702.99	14576.86
703.12	14380.25
703.25	14176.62
703.38	14340.46
703.51	14073.64
703.65	14078.32
703.78	13823.20
703.91	14019.81
704.04	14085.34
704.17	13848.95
704.31	13767.03
704.44	13783.41
704.57	13743.63
704.70	13657.03
704.83	13584.47
704.96	13565.74
705.10	13575.11
705.23	13322.33
>>>>>End Processed Spectral Data<<<<<
