SpectraSuite Data File
++++++++++++++++++++++++++++++++++++
Date: Fri Oct 25 11:33:22 EDT 2013
User: price-jones
Dark Spectrum Present: No
Reference Spectrum Present: No
Number of Sampled Component Spectra: 1
Spectrometers: USB2+H05261
Integration Time (usec): 100000 (USB2+H05261)
Spectra Averaged: 1 (USB2+H05261)
Boxcar Smoothing: 0 (USB2+H05261)
Correct for Electrical Dark: No (USB2+H05261)
Strobe/Lamp Enabled: No (USB2+H05261)
Correct for Detector Non-linearity: No (USB2+H05261)
Correct for Stray Light: No (USB2+H05261)
Number of Pixels in Processed Spectrum: 2048
>>>>>Begin Processed Spectral Data<<<<<
365.73	306.61
365.92	306.61
366.12	306.61
366.32	194.26
366.52	184.90
366.72	198.95
366.91	184.90
367.11	189.58
367.31	117.03
367.51	191.92
367.70	189.58
367.90	236.39
368.10	168.52
368.30	145.11
368.49	152.13
368.69	208.31
368.89	147.45
369.09	203.63
369.28	248.10
369.48	234.05
369.68	234.05
369.87	203.63
370.07	191.92
370.27	285.55
370.47	355.76
370.66	517.26
370.86	510.24
371.06	578.11
371.25	559.39
371.45	505.56
371.65	596.84
371.84	533.64
372.04	592.16
372.24	589.82
372.44	624.92
372.63	578.11
372.83	599.18
373.03	634.29
373.22	578.11
373.42	671.73
373.62	582.79
373.81	629.60
374.01	669.39
374.21	592.16
374.40	638.97
374.60	671.73
374.79	674.07
374.99	620.24
375.19	587.47
375.38	695.14
375.58	648.33
375.78	739.61
375.97	674.07
376.17	725.57
376.37	737.27
376.56	720.88
376.76	671.73
376.95	653.01
377.15	617.90
377.35	627.26
377.54	695.14
377.74	671.73
377.93	650.67
378.13	744.29
378.33	641.31
378.52	699.82
378.72	744.29
378.91	777.06
379.11	688.12
379.31	706.84
379.50	734.93
379.70	730.25
379.89	851.96
380.09	702.16
380.28	748.97
380.48	688.12
380.68	690.46
380.87	795.78
381.07	676.41
381.26	732.59
381.46	727.91
381.65	767.70
381.85	770.04
382.04	753.65
382.24	814.51
382.43	786.42
382.63	725.57
382.83	786.42
383.02	851.96
383.22	830.89
383.41	704.50
383.61	842.59
383.80	844.93
384.00	763.01
384.19	800.46
384.39	781.74
384.58	821.53
384.78	765.36
384.97	802.80
385.17	786.42
385.36	830.89
385.56	875.36
385.75	851.96
385.95	884.72
386.14	842.59
386.34	807.48
386.53	901.11
386.72	877.70
386.92	922.17
387.11	912.81
387.31	854.30
387.50	833.23
387.70	882.38
387.89	912.81
388.09	910.47
388.28	898.77
388.48	961.96
388.67	898.77
388.86	950.26
389.06	924.51
389.25	973.66
389.45	947.92
389.64	983.02
389.84	976.00
390.03	898.77
390.22	866.00
390.42	997.07
390.61	1025.15
390.81	1001.75
391.00	1064.94
391.19	952.60
391.39	990.05
391.58	1029.84
391.78	1036.86
391.97	1053.24
392.16	966.64
392.36	1022.81
392.55	1008.77
392.75	1069.62
392.94	985.37
393.13	1083.67
393.33	1020.47
393.52	1090.69
393.71	1036.86
393.91	1118.78
394.10	1109.41
394.29	1057.92
394.49	1069.62
394.68	1090.69
394.88	1083.67
395.07	1200.69
395.26	1186.65
395.46	1217.08
395.65	1055.58
395.84	1200.69
396.04	1231.12
396.23	1149.20
396.42	1177.29
396.62	1137.50
396.81	1097.71
397.00	1184.31
397.19	1259.21
397.39	1188.99
397.58	1240.48
397.77	1289.64
397.97	1270.91
398.16	1277.93
398.35	1275.59
398.55	1231.12
398.74	1172.61
398.93	1263.89
399.12	1256.87
399.32	1423.05
399.51	1341.13
399.70	1362.19
399.90	1385.60
400.09	1329.42
400.28	1345.81
400.47	1249.85
400.67	1425.39
400.86	1369.21
401.05	1385.60
401.24	1432.41
401.44	1476.88
401.63	1455.81
401.82	1511.99
402.01	1490.92
402.21	1497.94
402.40	1406.66
402.59	1556.46
402.78	1502.62
402.97	1547.09
403.17	1556.46
403.36	1563.48
403.55	1528.37
403.74	1540.07
403.93	1614.97
404.13	1673.48
404.32	1568.16
404.51	1526.03
404.70	1675.82
404.89	1570.50
405.09	1680.50
405.28	1687.53
405.47	1680.50
405.66	1689.87
405.85	1778.81
406.05	1769.44
406.24	1764.76
406.43	1799.87
406.62	1830.30
406.81	1827.96
407.00	1729.66
407.20	1753.06
407.39	1830.30
407.58	1851.36
407.77	1956.69
407.96	1961.37
408.15	1813.92
408.34	1907.54
408.54	1888.81
408.73	2012.86
408.92	1907.54
409.11	1923.92
409.30	2054.99
409.49	1961.37
409.68	1977.75
409.87	2045.63
410.07	1968.39
410.26	2150.95
410.45	2040.95
410.64	2113.50
410.83	2080.74
411.02	2078.40
411.21	2169.68
411.40	2190.74
411.59	2221.17
411.78	2176.70
411.98	2099.46
412.17	2239.89
412.36	2225.85
412.55	2246.91
412.74	2310.11
412.93	2345.22
413.12	2363.94
413.31	2539.48
413.50	2326.49
413.69	2368.62
413.88	2546.50
414.07	2478.63
414.26	2450.54
414.45	2548.84
414.64	2473.95
414.83	2518.42
415.02	2630.76
415.22	2626.08
415.41	2691.62
415.60	2654.17
415.79	2700.98
415.98	2750.13
416.17	2715.02
416.36	2703.32
416.55	2813.32
416.74	2736.09
416.93	2794.60
417.12	2754.81
417.31	2855.45
417.50	2874.18
417.69	3023.97
417.88	3063.76
418.07	3030.99
418.26	2881.20
418.45	3009.93
418.64	3012.27
418.83	3073.12
419.02	2993.55
419.21	3101.21
419.39	3206.53
419.58	3061.42
419.77	3152.70
419.96	3164.40
420.15	3150.36
420.34	3136.32
420.53	3227.60
420.72	3222.92
420.91	3194.83
421.10	3169.09
421.29	3365.69
421.48	3253.34
421.67	3269.73
421.86	3478.04
422.05	3421.86
422.24	3276.75
422.43	3452.29
422.61	3412.50
422.80	3489.74
422.99	3513.14
423.18	3501.44
423.37	3520.17
423.56	3515.48
423.75	3309.52
423.94	3438.25
424.13	3164.40
424.32	3349.31
424.50	3543.57
424.69	3632.51
424.88	3536.55
425.07	3588.04
425.26	3368.03
425.45	3431.23
425.64	3417.18
425.83	3499.10
426.01	3478.04
426.20	3389.10
426.39	3602.08
426.58	3531.87
426.77	3524.85
426.96	3562.30
427.15	3557.61
427.33	3574.00
427.52	3695.71
427.71	3740.18
427.90	3651.24
428.09	3742.52
428.28	3646.55
428.46	3684.00
428.65	3590.38
428.84	3822.09
429.03	3772.94
429.22	3728.47
429.40	3885.29
429.59	3686.34
429.78	3602.08
429.97	3772.94
430.16	3744.86
430.34	3913.38
430.53	3950.82
430.72	3936.78
430.91	3889.97
431.10	3889.97
431.28	3967.21
431.47	4021.04
431.66	3960.19
431.85	4091.26
432.03	4091.26
432.22	4280.84
432.41	4140.41
432.60	4219.99
432.79	4007.00
432.97	4196.58
433.16	4049.13
433.35	4121.68
433.54	4046.79
433.72	4191.90
433.91	4271.48
434.10	4217.65
434.28	4124.02
434.47	4327.65
434.66	4203.60
434.85	4315.95
435.03	4362.76
435.22	4475.10
435.41	4465.74
435.59	4402.55
435.78	4383.82
435.97	4510.21
436.16	4353.40
436.34	4243.39
436.53	4550.00
436.72	4596.81
436.90	4344.03
437.09	4561.70
437.28	4482.13
437.46	4451.70
437.65	4655.33
437.84	4624.90
438.02	4568.73
438.21	4603.83
438.40	4662.35
438.58	4772.35
438.77	4851.93
438.96	4730.22
439.14	4887.04
439.33	4786.40
439.52	4851.93
439.70	4865.97
439.89	4896.40
440.08	4933.85
440.26	5069.60
440.45	4858.95
440.63	5158.54
440.82	5188.97
441.01	4901.08
441.19	5226.42
441.38	5153.86
441.57	5207.69
441.75	5458.13
441.94	5434.72
442.12	5472.17
442.31	5444.09
442.50	5345.78
442.68	5458.13
442.87	5469.83
443.05	5624.31
443.24	5631.33
443.43	5458.13
443.61	5666.44
443.80	5736.65
443.98	5521.32
444.17	5404.30
444.35	5547.07
444.54	5673.46
444.73	5809.21
444.91	5696.86
445.10	5804.53
445.28	5811.55
445.47	5680.48
445.65	5614.95
445.84	5717.93
446.02	5762.40
446.21	5682.82
446.39	5689.84
446.58	5760.06
446.77	5944.96
446.95	5549.41
447.14	5699.20
447.32	5963.68
447.51	5689.84
447.69	5804.53
447.88	5797.51
448.06	5769.42
448.25	5809.21
448.43	5809.21
448.62	5912.19
448.80	5689.84
448.99	5919.21
449.17	5933.26
449.36	5853.68
449.54	6017.52
449.73	6162.63
449.91	6157.95
450.10	6193.06
450.28	6083.05
450.46	6209.44
450.65	6143.91
450.83	6057.31
451.02	6164.97
451.20	6415.41
451.39	6310.08
451.57	6111.14
451.76	6263.27
451.94	6342.85
452.13	6221.14
452.31	6183.70
452.49	6221.14
452.68	6413.07
452.86	6469.24
453.05	6286.68
453.23	6450.52
453.42	6457.54
453.60	6532.44
453.78	6579.25
453.97	6312.42
454.15	6516.05
454.34	6408.39
454.52	6576.91
454.70	6710.32
454.89	6525.41
455.07	6532.44
455.26	6696.27
455.44	6815.64
455.62	6649.46
455.81	6724.36
455.99	6806.28
456.17	6832.02
456.36	6867.13
456.54	6970.12
456.73	6942.03
456.91	7047.35
457.09	7026.29
457.28	7180.76
457.46	7124.59
457.64	7136.29
457.83	6967.77
458.01	7063.74
458.19	7213.53
458.38	7166.72
458.56	7258.00
458.74	7183.10
458.93	7241.62
459.11	7208.85
459.29	7274.38
459.48	7290.77
459.66	7262.68
459.84	7478.01
460.03	7510.78
460.21	7353.96
460.39	7258.00
460.57	7485.03
460.76	7527.16
460.94	7506.10
461.12	7543.55
461.31	7538.87
461.49	7426.52
461.67	7335.24
461.85	7599.72
462.04	7658.23
462.22	8231.66
462.40	7728.45
462.59	7693.34
462.77	7662.91
462.95	7777.60
463.13	7740.15
463.32	7978.89
463.50	7733.13
463.68	7962.50
463.86	7838.45
464.05	7939.10
464.23	8039.74
464.41	8114.64
464.59	7815.05
464.78	8084.21
464.96	8032.72
465.14	7990.59
465.32	8138.04
465.50	8079.53
465.69	8205.92
465.87	8138.04
466.05	8191.88
466.23	8135.70
466.41	8112.30
466.60	8374.44
466.78	8273.79
466.96	8320.60
467.14	8226.98
467.32	8308.90
467.51	8365.07
467.69	8086.55
467.87	8294.86
468.05	8489.12
468.23	8336.99
468.41	8116.98
468.60	8568.70
468.78	8435.29
468.96	8294.86
469.14	8788.71
469.32	8767.65
469.50	8578.06
469.69	8938.51
469.87	8805.10
470.05	8879.99
470.23	8954.89
470.41	8615.51
470.59	8980.64
470.77	8657.64
470.95	8847.22
471.14	9179.58
471.32	8842.54
471.50	9128.09
471.68	9153.84
471.86	9085.96
472.04	9266.18
472.22	9345.76
472.40	9338.74
472.58	9240.44
472.77	9465.13
472.95	9458.10
473.13	9671.09
473.31	9483.85
473.49	9584.49
473.67	9558.75
473.85	9490.87
474.03	9767.06
474.21	9734.29
474.39	9823.23
474.57	9811.53
474.75	9865.36
474.93	10059.62
475.12	10099.41
475.30	10094.73
475.48	10209.42
475.66	10382.62
475.84	10279.63
476.02	10265.59
476.20	10277.29
476.38	10644.76
476.56	10581.56
476.74	10530.07
476.92	10771.15
477.10	10551.14
477.28	10946.69
477.46	10677.52
477.64	10689.23
477.82	11115.20
478.00	11208.83
478.18	11037.97
478.36	11176.06
478.54	11482.67
478.72	11562.25
478.90	11763.53
479.08	11798.64
479.26	11712.04
479.44	11721.40
479.62	11995.25
479.80	11967.16
479.98	12028.01
480.16	12198.87
480.34	12231.64
480.52	12379.09
480.70	12341.64
480.88	11934.39
481.06	12390.80
481.24	12418.88
481.41	12503.14
481.59	12842.52
481.77	12751.24
481.95	13036.78
482.13	13376.16
482.31	13128.06
482.49	13334.03
482.67	13528.30
482.85	13633.62
483.03	13612.56
483.21	13713.20
483.39	14118.11
483.57	13998.74
483.74	13963.64
483.92	14092.37
484.10	13944.91
484.28	14317.06
484.46	14455.15
484.64	14672.82
484.82	14682.18
485.00	14698.56
485.18	14993.47
485.35	14977.09
485.53	15115.18
485.71	15208.80
485.89	15428.81
486.07	15367.96
486.25	15557.54
486.43	15606.69
486.61	15815.00
486.78	15709.68
486.96	15971.82
487.14	16386.09
487.32	16126.29
487.50	16191.83
487.68	16631.85
487.85	16783.98
488.03	17027.40
488.21	16835.47
488.39	17074.21
488.57	17121.02
488.75	17315.28
488.92	17680.41
489.10	17774.03
489.28	17671.04
489.46	18078.30
489.64	17675.73
489.81	18221.07
489.99	18101.70
490.17	18398.95
490.35	18448.10
490.53	18450.44
490.70	18967.70
490.88	19009.83
491.06	18789.82
491.24	19199.41
491.41	19098.77
491.59	19300.06
491.77	19396.02
491.95	19569.22
492.13	19709.65
492.30	19681.56
492.48	19719.01
492.66	19763.48
492.84	19934.34
493.01	20336.91
493.19	20208.19
493.37	20482.03
493.54	20472.67
493.72	20786.30
493.90	20802.68
494.08	20769.91
494.25	20999.29
494.43	21399.52
494.61	21378.45
494.79	21415.90
494.96	21425.26
495.14	21970.61
495.32	21769.32
495.49	21741.24
495.67	21783.37
495.85	22160.19
496.02	22169.55
496.20	22766.39
496.38	22501.91
496.55	22750.01
496.73	22967.68
496.91	22906.82
497.09	22735.96
497.26	23033.21
497.44	22984.06
497.62	23323.44
497.79	23431.10
497.97	23161.94
498.14	23726.01
498.32	24013.90
498.50	24142.63
498.67	24077.09
498.85	23784.52
499.03	24191.78
499.20	24025.60
499.38	24238.59
499.56	24510.09
499.73	24379.02
499.91	24474.98
500.08	24917.34
500.26	24781.59
500.44	24769.89
500.61	25092.88
500.79	24702.01
500.97	25294.17
501.14	25228.63
501.32	25387.79
501.49	25291.83
501.67	25558.65
501.84	25441.62
502.02	25678.02
502.20	25905.05
502.37	25928.45
502.55	25596.10
502.72	26373.16
502.90	26092.29
503.07	26216.34
503.25	26333.37
503.43	26192.94
503.60	26340.39
503.78	26663.38
503.95	26698.49
504.13	26775.73
504.30	26665.72
504.48	26881.05
504.65	26958.29
504.83	27204.05
505.01	27260.22
505.18	27175.96
505.36	27733.01
505.53	27208.73
505.71	27402.99
505.88	27648.75
506.06	27426.40
506.23	28051.32
506.41	27688.54
506.58	27728.33
506.76	28196.43
506.93	28081.75
507.11	28123.88
507.28	28259.63
507.46	28720.71
507.63	28346.23
507.81	28257.29
507.98	28577.94
508.16	28467.94
508.33	29027.32
508.50	28793.27
508.68	28933.70
508.85	29198.18
509.03	28680.92
509.20	29256.70
509.38	29418.19
509.55	29567.99
509.73	29586.71
509.90	29954.18
510.08	29773.95
510.25	29598.41
510.42	29692.04
510.60	29993.97
510.77	30052.48
510.95	30279.51
511.12	29778.64
511.30	30274.83
511.47	30118.01
511.64	30426.96
511.82	30555.69
511.99	30768.68
512.17	30602.50
512.34	30469.09
512.51	31030.82
512.69	31412.33
512.86	30787.41
513.04	31019.12
513.21	31407.65
513.38	31194.66
513.56	31456.80
513.73	31611.28
513.90	31089.34
514.08	31529.36
514.25	31842.99
514.43	31852.35
514.60	31950.65
514.77	31807.88
514.95	32084.06
515.12	31655.75
515.29	31590.21
515.47	32407.06
515.64	32011.51
515.81	32311.10
515.99	32144.92
516.16	32404.72
516.33	32229.18
516.51	32847.08
516.68	32552.17
516.85	32739.41
517.03	33226.24
517.20	33076.45
517.37	32708.99
517.54	32938.36
517.72	33055.39
517.89	33296.46
518.06	33362.00
518.24	33167.73
518.41	33329.23
518.58	33172.41
518.75	33170.07
518.93	33764.57
519.10	33069.43
519.27	33546.90
519.45	33633.50
519.62	33965.85
519.79	34007.98
519.96	33596.05
520.14	34232.68
520.31	33858.19
520.48	34511.20
520.65	34485.45
520.83	34366.09
521.00	34969.94
521.17	34749.93
521.34	34731.21
521.52	34768.66
521.69	35040.16
521.86	35075.27
522.03	34817.81
522.20	35072.93
522.38	35180.59
522.55	35077.61
522.72	35145.48
522.89	35168.89
523.07	35852.33
523.24	35611.25
523.41	35335.07
523.58	35175.91
523.75	36037.23
523.92	35459.12
524.10	35901.48
524.27	36053.61
524.44	36205.75
524.61	36449.16
524.78	35971.69
524.96	36259.58
525.13	36526.40
525.30	36332.14
525.47	36954.72
525.64	36180.00
525.81	36472.57
525.98	36535.76
526.16	36292.35
526.33	36790.88
526.50	36917.27
526.67	36858.76
526.84	37172.39
527.01	36404.69
527.18	36610.66
527.36	37111.53
527.53	37174.73
527.70	37434.53
527.87	37591.34
528.04	37179.41
528.21	37244.94
528.38	37329.20
528.55	37434.53
528.72	37226.22
528.89	37270.69
529.07	37088.13
529.24	37755.18
529.41	37851.14
529.58	37577.30
529.75	37546.87
529.92	38242.01
530.09	37734.12
530.26	38003.28
530.43	38412.87
530.60	37516.45
530.77	38106.26
530.94	38155.41
531.11	37654.54
531.28	38335.63
531.46	38242.01
531.63	38597.77
531.80	38431.60
531.97	38433.94
532.14	38679.69
532.31	38323.93
532.48	38534.58
532.65	38752.25
532.82	38810.76
532.99	38820.13
533.16	38803.74
533.33	38969.92
533.50	39063.54
533.67	39033.11
533.84	38979.28
534.01	38918.43
534.18	38834.17
534.35	39618.25
534.52	39531.65
534.69	39777.40
534.86	39777.40
535.03	39346.75
535.20	39913.16
535.37	39936.56
535.54	40020.82
535.71	39426.32
535.88	39639.31
536.05	39716.55
536.22	39915.50
536.38	39852.30
536.55	40004.44
536.72	40051.25
536.89	39681.44
537.06	40416.37
537.23	40161.25
537.40	39913.16
537.57	39765.70
537.74	39997.41
537.91	40575.53
538.08	40346.15
538.25	40392.97
538.42	40638.72
538.59	40627.02
538.75	40715.96
538.92	40655.11
539.09	41214.49
539.26	40531.06
539.43	40797.88
539.60	40954.69
539.77	40790.86
539.94	41113.85
540.11	40964.06
540.28	40884.48
540.44	41638.13
540.61	40994.48
540.78	40854.05
540.95	40598.93
541.12	41118.53
541.29	41024.91
541.46	41008.53
541.62	41251.94
541.79	41708.35
541.96	41099.81
542.13	41228.54
542.30	41375.99
542.47	41706.01
542.63	41565.57
542.80	42010.28
542.97	42071.13
543.14	42007.94
543.31	42120.28
543.48	41944.74
543.64	41907.29
543.81	42286.46
543.98	42302.84
544.15	42061.77
544.32	42246.67
544.48	42405.83
544.65	42415.19
544.82	42373.06
544.99	42298.16
545.16	42663.28
545.32	42501.79
545.49	43019.05
545.66	42951.17
545.83	42955.85
546.00	42883.30
546.16	42995.64
546.33	42653.92
546.50	42555.62
546.67	43215.65
546.83	42480.72
547.00	42883.30
547.17	42710.10
547.34	42766.27
547.50	43246.08
547.67	43681.42
547.84	43351.40
548.00	43438.00
548.17	43679.08
548.34	43737.59
548.51	43545.67
548.67	43473.11
548.84	43562.05
549.01	43391.19
549.18	43650.99
549.34	43590.14
549.51	43606.52
549.68	43566.73
549.84	43618.22
550.01	43941.22
550.18	43501.20
550.34	43910.79
550.51	43669.72
550.68	44081.65
550.84	43718.87
551.01	44362.51
551.18	44002.07
551.34	43997.39
551.51	44123.78
551.68	43999.73
551.84	43763.34
552.01	44102.71
552.18	44320.38
552.34	43973.98
552.51	44411.67
552.68	44240.81
552.84	44306.34
553.01	44662.10
553.18	44423.37
553.34	44830.62
553.51	44566.14
553.67	44509.97
553.84	44694.87
554.01	44634.02
554.17	44650.40
554.34	45326.81
554.51	44957.01
554.67	44673.81
554.84	45148.93
555.00	44804.88
555.17	44832.96
555.33	44786.15
555.50	44809.56
555.67	44650.40
555.83	45003.82
556.00	45123.19
556.16	44872.75
556.33	45502.35
556.50	45228.51
556.66	45390.01
556.83	45535.12
556.99	45340.86
557.16	45448.52
557.32	45289.37
557.49	45516.40
557.65	44959.35
557.82	45029.57
557.98	45132.55
558.15	45221.49
558.32	45577.25
558.48	45230.85
558.65	45258.94
558.81	45525.76
558.98	45787.90
559.14	45514.06
559.31	45628.74
559.47	45811.31
559.64	45865.14
559.80	45525.76
559.97	45918.97
560.13	45373.63
560.30	46043.02
560.46	45958.76
560.63	45879.18
560.79	45654.49
560.96	46031.32
561.12	45911.95
561.29	46412.82
561.45	46017.27
561.61	45935.35
561.78	46181.11
561.94	45869.82
562.11	46043.02
562.27	45752.79
562.44	45947.06
562.60	46101.53
562.77	45886.20
562.93	45865.14
563.10	46696.03
563.26	46251.33
563.42	46567.30
563.59	45703.64
563.75	46286.43
563.92	46150.68
564.08	46085.15
564.24	46426.87
564.41	45874.50
564.57	46265.37
564.74	46225.58
564.90	46384.74
565.07	46312.18
565.23	45975.14
565.39	46593.04
565.56	46513.47
565.72	46457.29
565.88	46637.51
566.05	46553.26
566.21	46452.61
566.38	46674.96
566.54	46607.09
566.70	46604.75
566.87	46429.21
567.03	46595.38
567.19	46775.61
567.36	46855.18
567.52	46143.66
567.68	46939.44
567.85	46733.48
568.01	46745.18
568.17	46700.71
568.34	46834.12
568.50	47056.47
568.66	46265.37
568.83	46653.90
568.99	46642.20
569.15	46630.49
569.32	46429.21
569.48	46775.61
569.64	46981.57
569.81	46801.35
569.97	46939.44
570.13	47119.66
570.30	46555.60
570.46	46986.25
570.62	47351.38
570.78	46829.44
570.95	46794.33
571.11	47124.35
571.27	46834.12
571.43	46754.54
571.60	46787.31
571.76	46714.75
571.92	46546.23
572.09	46904.34
572.25	47004.98
572.41	46607.09
572.57	47023.70
572.74	47227.33
572.90	47040.09
573.06	47297.55
573.22	47117.32
573.38	47309.25
573.55	47271.80
573.71	47852.25
573.87	47208.61
574.03	46993.28
574.20	47248.39
574.36	47398.19
574.52	47669.69
574.68	47477.77
574.84	47367.76
575.01	47241.37
575.17	47072.85
575.33	47749.27
575.49	46946.47
575.65	47093.92
575.82	47400.53
575.98	47192.22
576.14	47459.04
576.30	47723.52
576.46	47276.48
576.62	47285.84
576.79	47194.56
576.95	47079.88
577.11	46939.44
577.27	47154.77
577.43	47416.91
577.59	46925.40
577.75	47229.67
577.92	46899.65
578.08	46902.00
578.24	47124.35
578.40	47711.82
578.56	47213.29
578.72	47180.52
578.88	47365.42
579.04	47510.53
579.21	47363.08
579.37	47618.20
579.53	47760.97
579.69	47103.28
579.85	47388.83
580.01	47079.88
580.17	47437.98
580.33	47372.44
580.49	47545.64
580.65	47466.06
580.82	47208.61
580.98	47402.87
581.14	47250.74
581.30	47793.74
581.46	47342.02
581.62	47215.63
581.78	46946.47
581.94	47150.09
582.10	47269.46
582.26	47594.79
582.42	47508.19
582.58	47580.75
582.74	47421.59
582.90	47400.53
583.06	47798.42
583.22	47456.70
583.38	47887.36
583.54	47800.76
583.70	47295.21
583.86	47880.34
584.02	47367.76
584.18	48030.13
584.34	47540.96
584.50	47988.00
584.66	47791.40
584.82	47587.77
584.98	47824.17
585.14	47578.41
585.30	47505.85
585.46	47878.00
585.62	47449.68
585.78	47828.85
585.94	47442.66
586.10	47292.86
586.26	47915.45
586.42	47770.33
586.58	47683.73
586.74	47709.48
586.90	48032.47
587.06	47468.40
587.22	47711.82
587.38	47737.57
587.54	47648.63
587.70	47948.21
587.86	47672.03
588.02	47704.80
588.18	47718.84
588.34	47655.65
588.49	47828.85
588.65	47604.16
588.81	47704.80
588.97	47849.91
589.13	47749.27
589.29	47852.25
589.45	47714.16
589.61	47496.49
589.77	48030.13
589.93	47964.60
590.08	47885.02
590.24	47936.51
590.40	48311.00
590.56	48172.91
590.72	48294.61
590.88	47938.85
591.04	47604.16
591.20	48163.54
591.35	48039.50
591.51	48514.62
591.67	48217.38
591.83	48318.02
591.99	48133.12
592.15	47803.10
592.31	47611.18
592.46	47929.49
592.62	48451.43
592.78	48626.97
592.94	48098.01
593.10	48538.03
593.26	48779.10
593.41	48568.46
593.57	48362.49
593.73	48339.08
593.89	48769.74
594.05	48329.72
594.20	48388.24
594.36	49003.80
594.52	48418.66
594.68	48123.75
594.84	47887.36
594.99	48685.48
595.15	48392.92
595.31	48516.96
595.47	47756.29
595.62	47922.47
595.78	48486.54
595.94	48329.72
596.10	48217.38
596.25	48580.16
596.41	48772.08
596.57	48704.21
596.73	48271.21
596.88	48659.74
597.04	48231.42
597.20	48603.56
597.36	48662.08
597.51	48285.25
597.67	48259.51
597.83	48521.65
597.99	48392.92
598.14	48226.74
598.30	48708.89
598.46	48273.55
598.61	48921.88
598.77	48676.12
598.93	48816.55
599.09	48713.57
599.24	48804.85
599.40	48421.00
599.56	48706.55
599.71	48917.20
599.87	49006.14
600.03	48739.32
600.18	48112.05
600.34	48355.47
600.50	48776.76
600.65	48397.60
600.81	48839.96
600.97	48619.95
601.12	48793.15
601.28	48633.99
601.44	48229.08
601.59	48430.36
601.75	48418.66
601.91	48914.86
602.06	48589.52
602.22	48671.44
602.37	48275.89
602.53	48498.24
602.69	48432.71
602.84	48130.78
603.00	48186.95
603.16	48341.42
603.31	48477.18
603.47	48636.33
603.62	48720.59
603.78	48870.39
603.94	48947.62
604.09	48299.30
604.25	48472.49
604.40	48500.58
604.56	48381.21
604.71	48683.14
604.87	48444.41
605.03	48311.00
605.18	48699.53
605.34	48378.87
605.49	48500.58
605.65	48811.87
605.80	48751.02
605.96	48538.03
606.12	48631.65
606.27	48591.86
606.43	48222.06
606.58	48140.14
606.74	48519.31
606.89	48406.96
607.05	48713.57
607.20	48495.90
607.36	48479.52
607.51	48355.47
607.67	48484.20
607.82	48383.55
607.98	48594.20
608.13	48500.58
608.29	48446.75
608.44	48390.58
608.60	48006.73
608.75	48311.00
608.91	48783.79
609.06	47672.03
609.22	48584.84
609.37	48069.92
609.53	48357.81
609.68	48392.92
609.84	48219.72
609.99	48102.69
610.15	48507.60
610.30	48357.81
610.46	48390.58
610.61	48327.38
610.76	48341.42
610.92	48044.18
611.07	48100.35
611.23	48004.39
611.38	48020.77
611.54	48107.37
611.69	47854.59
611.84	48259.51
612.00	47945.87
612.15	48109.71
612.31	48339.08
612.46	47709.48
612.62	48130.78
612.77	47938.85
612.92	48425.68
613.08	47810.12
613.23	48275.89
613.39	47971.62
613.54	47529.26
613.69	47810.12
613.85	47592.45
614.00	47955.24
614.15	47686.07
614.31	47669.69
614.46	48002.05
614.62	47824.17
614.77	47859.27
614.92	47920.13
615.08	48048.86
615.23	47760.97
615.38	47775.02
615.54	47835.87
615.69	47707.14
615.84	47709.48
616.00	48350.79
616.15	47449.68
616.30	47803.10
616.46	47999.71
616.61	47742.25
616.76	47676.71
616.92	47229.67
617.07	47657.99
617.22	47791.40
617.37	47054.13
617.53	47725.86
617.68	47723.52
617.83	47573.73
617.99	47964.60
618.14	47686.07
618.29	46944.12
618.45	47419.25
618.60	47161.79
618.75	47194.56
618.90	47203.92
619.06	47442.66
619.21	47299.89
619.36	47648.63
619.51	47171.16
619.67	47342.02
619.82	47496.49
619.97	47578.41
620.12	47428.62
620.28	47459.04
620.43	47704.80
620.58	47253.08
620.73	47384.15
620.89	47650.97
621.04	47356.06
621.19	47229.67
621.34	46997.96
621.49	47026.04
621.65	47009.66
621.80	47084.56
621.95	46885.61
622.10	46951.15
622.25	47152.43
622.41	46843.48
622.56	46726.46
622.71	47131.37
622.86	47105.62
623.01	47072.85
623.16	47009.66
623.32	46733.48
623.47	46993.28
623.62	46499.42
623.77	47012.00
623.92	46951.15
624.07	46670.28
624.23	46791.99
624.38	46494.74
624.53	46726.46
624.68	46642.20
624.83	46625.81
624.98	46597.73
625.13	46155.36
625.29	46726.46
625.44	46733.48
625.59	46581.34
625.74	46265.37
625.89	46127.28
626.04	46536.87
626.19	47084.56
626.34	46174.09
626.49	45933.01
626.65	46181.11
626.80	46529.85
626.95	45785.56
627.10	45911.95
627.25	46513.47
627.40	46522.83
627.55	46569.64
627.70	45647.47
627.85	46424.53
628.00	46153.02
628.15	46281.75
628.30	45766.84
628.45	45595.98
628.60	45291.71
628.76	45729.39
628.91	46096.85
629.06	45509.38
629.21	45687.26
629.36	45872.16
629.51	45703.64
629.66	46202.18
629.81	45794.92
629.96	45785.56
630.11	45834.71
630.26	45483.63
630.41	45954.08
630.56	45619.38
630.71	45907.27
630.86	45673.21
631.01	45563.21
631.16	45694.28
631.31	45153.62
631.46	45495.33
631.61	46052.38
631.76	45598.32
631.91	45439.16
632.06	45694.28
632.21	45696.62
632.36	45928.33
632.51	45350.22
632.66	45500.01
632.81	45294.05
632.96	45221.49
633.10	45191.06
633.25	45184.04
633.40	45523.42
633.55	45380.65
633.70	45521.08
633.85	44790.83
634.00	45097.44
634.15	45050.63
634.30	44961.69
634.45	45249.58
634.60	45254.26
634.75	45492.99
634.90	45216.81
635.05	45492.99
635.19	44858.71
635.34	44900.84
635.49	45109.14
635.64	44797.85
635.79	45074.04
635.94	44666.78
636.09	45095.10
636.24	44975.73
636.39	44994.46
636.53	44856.37
636.68	44807.22
636.83	44737.00
636.98	44378.90
637.13	44512.31
637.28	44048.88
637.43	44355.49
637.57	44877.43
637.72	44208.04
637.87	44240.81
638.02	44978.07
638.17	44547.42
638.32	44533.37
638.46	44329.75
638.61	44371.88
638.76	44430.39
638.91	44362.51
639.06	43943.56
639.20	43592.48
639.35	44346.13
639.50	43714.19
639.65	44390.60
639.80	43981.01
639.94	44568.48
640.09	44287.62
640.24	44329.75
640.39	43955.26
640.54	43501.20
640.68	44229.10
640.83	44463.16
640.98	43791.42
641.13	43931.86
641.27	44254.85
641.42	44011.43
641.57	43636.95
641.72	43875.68
641.86	43742.27
642.01	43665.03
642.16	43367.79
642.31	43477.79
642.45	44154.21
642.60	43562.05
642.75	43407.58
642.90	44320.38
643.04	43784.40
643.19	43611.20
643.34	43573.75
643.48	42609.45
643.63	43267.14
643.78	43363.11
643.93	43756.32
644.07	43665.03
644.22	43332.68
644.37	43419.28
644.51	43721.21
644.66	43349.06
644.81	43452.05
644.95	43533.96
645.10	43100.97
645.25	43360.76
645.39	42792.01
645.54	43381.83
645.69	42789.67
645.83	42782.65
645.98	43072.88
646.13	43047.13
646.27	42934.79
646.42	42937.13
646.57	42953.51
646.71	43360.76
646.86	42953.51
647.00	42927.77
647.15	42920.74
647.30	43250.76
647.44	42593.07
647.59	42997.98
647.74	42630.52
647.88	43367.79
648.03	42792.01
648.17	43414.60
648.32	43084.58
648.47	43325.66
648.61	42576.69
648.76	42581.37
648.90	42906.70
649.05	42766.27
649.20	42553.28
649.34	42820.10
649.49	42672.65
649.63	42969.90
649.78	42581.37
649.92	42777.97
650.07	43009.68
650.21	42993.30
650.36	42995.64
650.51	42625.84
650.65	42738.18
650.80	42361.36
650.94	42513.49
651.09	42211.56
651.23	42131.98
651.38	42337.95
651.52	41918.99
651.67	41979.85
651.81	41801.97
651.96	42660.94
652.10	41865.16
652.25	41654.51
652.39	42225.60
652.54	42354.33
652.68	41900.27
652.83	42272.42
652.97	42225.60
653.12	41984.53
653.26	42213.90
653.41	41982.19
653.55	42120.28
653.70	41848.78
653.84	42176.45
653.99	42155.39
654.13	41935.38
654.27	41720.05
654.42	42136.66
654.56	41591.32
654.71	41694.30
654.85	42085.17
655.00	41989.21
655.14	41706.01
655.29	41928.36
655.43	42293.48
655.57	41706.01
655.72	41551.53
655.86	41808.99
656.01	41486.00
656.15	41015.55
656.30	41453.23
656.44	41497.70
656.58	41448.55
656.73	41469.61
656.87	41425.14
657.01	40999.16
657.16	41205.13
657.30	40893.84
657.45	41158.32
657.59	41357.27
657.73	40987.46
657.88	41249.60
658.02	41600.68
658.16	41427.48
658.31	41375.99
658.45	41469.61
658.60	41148.96
658.74	40954.69
658.88	40521.69
659.03	40914.90
659.17	40645.74
659.31	40795.54
659.46	40589.57
659.60	40825.96
659.74	40687.87
659.89	40734.68
660.03	40423.39
660.17	40598.93
660.32	40374.24
660.46	40484.25
660.60	40048.91
660.74	40430.41
660.89	40301.68
661.03	40027.84
661.17	40079.33
661.32	40364.88
661.46	40388.28
661.60	40032.52
661.74	39887.41
661.89	39988.05
662.03	40301.68
662.17	39819.53
662.31	39604.20
662.46	39276.53
662.60	39728.25
662.74	39636.97
662.88	39124.40
663.03	39143.12
663.17	39054.18
663.31	39150.14
663.45	39391.22
663.60	39276.53
663.74	39419.30
663.88	38981.62
664.02	39007.37
664.17	39629.95
664.31	39257.81
664.45	39321.00
664.59	39093.97
664.73	38710.12
664.88	39098.65
665.02	38525.22
665.16	38897.36
665.30	38934.81
665.44	38522.88
665.59	38485.43
665.73	38188.18
665.87	38134.35
666.01	38719.48
666.15	38122.65
666.29	38363.72
666.44	38312.23
666.58	38227.97
666.72	37979.87
666.86	37937.74
667.00	37762.20
667.14	37546.87
667.28	38148.39
667.43	37816.04
667.57	38153.07
667.71	37872.21
667.85	38223.29
667.99	37453.25
668.13	37481.34
668.27	37603.05
668.41	37291.76
668.56	37053.02
668.70	36928.97
668.84	36870.46
668.98	36837.69
669.12	37212.18
669.26	37551.56
669.40	36886.84
669.54	36577.89
669.68	36842.37
669.82	36559.17
669.96	36503.00
670.10	36517.04
670.25	36425.76
670.39	36308.73
670.53	36540.44
670.67	36437.46
670.81	36652.79
670.95	36718.32
671.09	36098.08
671.23	35662.74
671.37	36170.64
671.51	35913.18
671.65	36112.13
671.79	35920.20
671.93	36156.60
672.07	35959.99
672.21	36299.37
672.35	35459.12
672.49	35515.29
672.63	35494.22
672.77	35515.29
672.91	35360.81
673.05	35512.95
673.19	35150.17
673.33	34778.02
673.47	35475.50
673.61	35157.19
673.75	34735.89
673.89	34899.73
674.03	34349.70
674.17	34567.37
674.31	34532.26
674.45	34174.16
674.59	34216.29
674.73	34291.19
674.87	33834.78
675.01	33951.81
675.15	33853.51
675.29	33654.56
675.43	33797.34
675.56	33818.40
675.70	33532.86
675.84	33472.00
675.98	32496.00
676.12	33790.31
676.26	33631.16
676.40	33387.74
676.54	32980.49
676.68	33221.56
676.82	32582.60
676.96	32531.11
677.10	32968.79
677.23	32362.59
677.37	32821.33
677.51	32781.54
677.65	32205.77
677.79	32257.26
677.93	32634.09
678.07	32257.26
678.21	31768.09
678.34	32271.31
678.48	31487.23
678.62	31669.79
678.76	31398.29
678.90	31730.64
679.04	31482.55
679.18	31721.28
679.31	31438.08
679.45	31152.53
679.59	31110.40
679.73	31150.19
679.87	30726.55
680.00	30541.65
680.14	30855.28
680.28	30843.58
680.42	30771.02
680.56	30410.58
680.70	30057.16
680.83	30237.38
680.97	29654.59
681.11	30136.74
681.25	30080.56
681.39	29837.15
681.52	29986.94
681.66	29172.44
681.80	28989.88
681.94	28821.36
682.07	29109.24
682.21	28952.43
682.35	28599.01
682.49	28669.22
682.62	28968.81
682.76	28701.99
682.90	28922.00
683.04	28596.67
683.17	28723.05
683.31	28519.43
683.45	28243.24
683.59	27934.29
683.72	28079.41
683.86	28030.26
684.00	27840.67
684.13	27681.52
684.27	27227.45
684.41	27527.04
684.55	27697.90
684.68	27323.41
684.82	27281.28
684.96	27311.71
685.09	27536.40
685.23	27503.64
685.37	27410.01
685.50	27253.20
685.64	27026.17
685.78	26927.86
685.91	26525.29
686.05	26511.25
686.19	25839.51
686.32	26192.94
686.46	26038.46
686.60	25827.81
686.73	26298.26
686.87	25710.78
687.01	25986.97
687.14	25556.31
687.28	25638.23
687.42	25638.23
687.55	25516.52
687.69	25404.17
687.82	25017.99
687.96	25163.10
688.10	25207.57
688.23	24957.13
688.37	25404.17
688.50	25034.37
688.64	24727.76
688.78	25013.31
688.91	24645.84
689.05	24683.29
689.18	24313.48
689.32	24044.32
689.46	23777.50
689.59	24058.37
689.73	23992.83
689.86	24435.19
690.00	23920.28
690.13	24133.26
690.27	23527.06
690.41	23875.80
690.54	23096.41
690.68	23351.52
690.81	23213.43
690.95	22993.42
691.08	22951.29
691.22	22852.99
691.35	22705.54
691.49	23175.98
691.62	22712.56
691.76	22455.10
691.89	22141.47
692.03	22071.25
692.16	22008.06
692.30	22239.77
692.43	22003.38
692.57	21605.49
692.70	21743.58
692.84	21708.47
692.97	21654.64
693.11	21453.35
693.24	21500.16
693.38	21137.38
693.51	21149.08
693.65	21411.22
693.78	20917.37
693.92	21069.50
694.05	20912.69
694.19	20821.41
694.32	20900.98
694.45	21069.50
694.59	20922.05
694.72	20559.27
694.86	20540.54
694.99	20297.13
695.13	20135.63
695.26	19896.89
695.39	19913.28
695.53	19772.85
695.66	19829.02
695.80	19882.85
695.93	19768.16
696.07	19339.85
696.20	19176.01
696.33	19267.29
696.47	19051.96
696.60	19145.58
696.73	19300.06
696.87	19353.89
697.00	18967.70
697.14	19119.84
697.27	18764.07
697.40	18616.62
697.54	18640.03
697.67	18785.14
697.80	18544.06
697.94	18654.07
698.07	18401.29
698.21	18324.05
698.34	18321.71
698.47	18125.11
698.61	17453.37
698.74	17944.89
698.87	17757.64
699.01	17439.33
699.14	17703.81
699.27	17717.86
699.40	17338.69
699.54	17577.42
699.67	17397.20
699.80	17294.22
699.94	17170.17
700.07	17348.05
700.20	16996.97
700.34	16542.91
700.47	17022.72
700.60	17135.06
700.73	17001.65
700.87	16400.13
701.00	16594.40
701.13	16575.67
701.26	16468.01
701.40	16147.36
701.53	16044.37
701.66	16255.02
701.79	16126.29
701.93	16182.46
702.06	15604.35
702.19	15817.34
702.32	15590.31
702.46	15873.51
702.59	15763.51
702.72	15669.89
702.85	15515.41
702.99	15382.00
703.12	15370.30
703.25	15154.97
703.38	15208.80
703.51	15117.52
703.65	15098.80
703.78	14839.00
703.91	14822.61
704.04	14862.40
704.17	14637.71
704.31	14558.13
704.44	14464.51
704.57	14314.72
704.70	14464.51
704.83	14363.87
704.96	14403.66
705.10	14040.87
705.23	13954.27
>>>>>End Processed Spectral Data<<<<<
