SpectraSuite Data File
++++++++++++++++++++++++++++++++++++
Date: Fri Oct 25 11:34:38 EDT 2013
User: price-jones
Dark Spectrum Present: No
Reference Spectrum Present: No
Number of Sampled Component Spectra: 1
Spectrometers: USB2+H05261
Integration Time (usec): 100000 (USB2+H05261)
Spectra Averaged: 1 (USB2+H05261)
Boxcar Smoothing: 0 (USB2+H05261)
Correct for Electrical Dark: No (USB2+H05261)
Strobe/Lamp Enabled: No (USB2+H05261)
Correct for Detector Non-linearity: No (USB2+H05261)
Correct for Stray Light: No (USB2+H05261)
Number of Pixels in Processed Spectrum: 2048
>>>>>Begin Processed Spectral Data<<<<<
365.73	257.46
365.92	257.46
366.12	257.46
366.32	236.39
366.52	177.88
366.72	184.90
366.91	156.82
367.11	170.86
367.31	161.50
367.51	156.82
367.70	187.24
367.90	170.86
368.10	210.65
368.30	168.52
368.49	170.86
368.69	194.26
368.89	250.44
369.09	269.16
369.28	212.99
369.48	290.23
369.68	196.60
369.87	224.69
370.07	229.37
370.27	301.93
370.47	358.10
370.66	521.94
370.86	519.60
371.06	512.58
371.25	531.30
371.45	489.17
371.65	496.19
371.84	566.41
372.04	503.22
372.24	634.29
372.44	528.96
372.63	629.60
372.83	638.97
373.03	631.94
373.22	599.18
373.42	580.45
373.62	627.26
373.81	660.03
374.01	678.76
374.21	638.97
374.40	606.20
374.60	603.86
374.79	601.52
374.99	620.24
375.19	685.78
375.38	744.29
375.58	622.58
375.78	608.54
375.97	641.31
376.17	641.31
376.37	676.41
376.56	737.27
376.76	671.73
376.95	697.48
377.15	711.52
377.35	685.78
377.54	685.78
377.74	641.31
377.93	690.46
378.13	730.25
378.33	711.52
378.52	582.79
378.72	617.90
378.91	748.97
379.11	657.69
379.31	711.52
379.50	606.20
379.70	683.44
379.89	812.17
380.09	711.52
380.28	730.25
380.48	699.82
380.68	699.82
380.87	697.48
381.07	777.06
381.26	835.57
381.46	734.93
381.65	688.12
381.85	697.48
382.04	725.57
382.24	795.78
382.43	765.36
382.63	823.87
382.83	732.59
383.02	746.63
383.22	760.67
383.41	784.08
383.61	781.74
383.80	868.34
384.00	861.32
384.19	720.88
384.39	763.01
384.58	739.61
384.78	812.17
384.97	847.27
385.17	866.00
385.36	861.32
385.56	905.79
385.75	737.27
385.95	802.80
386.14	873.02
386.34	807.48
386.53	830.89
386.72	763.01
386.92	828.55
387.11	858.98
387.31	912.81
387.50	880.04
387.70	875.36
387.89	856.64
388.09	933.87
388.28	884.72
388.48	896.43
388.67	910.47
388.86	929.19
389.06	898.77
389.25	887.06
389.45	947.92
389.64	875.36
389.84	997.07
390.03	938.55
390.22	919.83
390.42	943.24
390.61	952.60
390.81	919.83
391.00	931.53
391.19	957.28
391.39	976.00
391.58	922.17
391.78	994.73
391.97	1064.94
392.16	997.07
392.36	1006.43
392.55	1027.50
392.75	1036.86
392.94	1020.47
393.13	1060.26
393.33	1062.60
393.52	1078.99
393.71	1067.28
393.91	1029.84
394.10	1013.45
394.29	1071.97
394.49	985.37
394.68	1102.39
394.88	1001.75
395.07	1174.95
395.26	1137.50
395.46	1102.39
395.65	1083.67
395.84	1025.15
396.04	1233.46
396.23	1139.84
396.42	1219.42
396.62	1149.20
396.81	1172.61
397.00	1123.46
397.19	1158.57
397.39	1181.97
397.58	1214.74
397.77	1142.18
397.97	1198.35
398.16	1224.10
398.35	1172.61
398.55	1156.22
398.74	1306.02
398.93	1275.59
399.12	1282.61
399.32	1238.14
399.51	1191.33
399.70	1245.16
399.90	1249.85
400.09	1355.17
400.28	1228.78
400.47	1308.36
400.67	1261.55
400.86	1299.00
401.05	1362.19
401.24	1301.34
401.44	1420.71
401.63	1394.96
401.82	1362.19
402.01	1448.79
402.21	1390.28
402.40	1306.02
402.59	1439.43
402.78	1500.28
402.97	1423.05
403.17	1502.62
403.36	1458.15
403.55	1495.60
403.74	1488.58
403.93	1521.35
404.13	1561.14
404.32	1561.14
404.51	1507.30
404.70	1547.09
404.89	1582.20
405.09	1565.82
405.28	1605.61
405.47	1600.93
405.66	1617.31
405.85	1668.80
406.05	1694.55
406.24	1675.82
406.43	1713.27
406.62	1762.42
406.81	1732.00
407.00	1717.95
407.20	1708.59
407.39	1743.70
407.58	1823.28
407.77	1797.53
407.96	1762.42
408.15	1804.55
408.34	1790.51
408.54	1881.79
408.73	1830.30
408.92	1783.49
409.11	1905.20
409.30	1877.11
409.49	1863.07
409.68	1830.30
409.87	1944.99
410.07	1912.22
410.26	1954.35
410.45	1961.37
410.64	1980.09
410.83	2090.10
411.02	2071.37
411.21	2066.69
411.40	2108.82
411.59	1984.77
411.78	2019.88
411.98	2059.67
412.17	2132.23
412.36	2113.50
412.55	2265.64
412.74	2263.30
412.93	2249.25
413.12	2321.81
413.31	2335.85
413.50	2284.36
413.69	2251.60
413.88	2298.41
414.07	2317.13
414.26	2319.47
414.45	2307.77
414.64	2310.11
414.83	2408.41
415.02	2492.67
415.22	2464.58
415.41	2445.86
415.60	2366.28
415.79	2532.46
415.98	2635.44
416.17	2609.70
416.36	2555.86
416.55	2677.57
416.74	2691.62
416.93	2656.51
417.12	2796.94
417.31	2703.32
417.50	2719.70
417.69	2773.53
417.88	2780.56
418.07	2843.75
418.26	2750.13
418.45	2829.71
418.64	2988.86
418.83	2960.78
419.02	2935.03
419.21	2935.03
419.39	2911.63
419.58	2935.03
419.77	2949.08
419.96	2986.52
420.15	3038.02
420.34	2993.55
420.53	3052.06
420.72	3199.51
420.91	3035.67
421.10	3042.70
421.29	3176.11
421.48	3096.53
421.67	3077.80
421.86	3080.14
422.05	3059.08
422.24	3087.17
422.43	3253.34
422.61	3185.47
422.80	3185.47
422.99	3243.98
423.18	3349.31
423.37	3316.54
423.56	3176.11
423.75	3255.69
423.94	3166.74
424.13	3009.93
424.32	3115.25
424.50	3269.73
424.69	3138.66
424.88	3243.98
425.07	3208.87
425.26	3169.09
425.45	3246.32
425.64	3215.90
425.83	3330.58
426.01	3489.74
426.20	3253.34
426.39	3379.73
426.58	3311.86
426.77	3346.97
426.96	3370.37
427.15	3433.57
427.33	3351.65
427.52	3403.14
427.71	3564.64
427.90	3393.78
428.09	3520.17
428.28	3454.63
428.46	3440.59
428.65	3508.46
428.84	3644.21
429.03	3648.90
429.22	3471.01
429.40	3585.70
429.59	3499.10
429.78	3611.45
429.97	3459.31
430.16	3583.36
430.34	3641.87
430.53	3777.62
430.72	3681.66
430.91	3676.98
431.10	3740.18
431.28	3721.45
431.47	3798.69
431.66	3815.07
431.85	3719.11
432.03	3859.54
432.22	4004.66
432.41	3794.01
432.60	3791.67
432.79	3850.18
432.97	3915.72
433.16	3805.71
433.35	3901.67
433.54	3953.16
433.72	3964.87
433.91	4004.66
434.10	4109.98
434.28	4056.15
434.47	4128.70
434.66	4037.42
434.85	4205.94
435.03	4114.66
435.22	3992.95
435.41	4163.81
435.59	4173.18
435.78	4259.78
435.97	4170.83
436.16	4109.98
436.34	4194.24
436.53	4269.14
436.72	4327.65
436.90	4236.37
437.09	4454.04
437.28	4320.63
437.46	4379.14
437.65	4297.22
437.84	4292.54
438.02	4454.04
438.21	4468.08
438.40	4376.80
438.58	4657.67
438.77	4606.17
438.96	4540.64
439.14	4470.42
439.33	4648.30
439.52	4641.28
439.70	4704.48
439.89	4786.40
440.08	4779.37
440.26	4720.86
440.45	4657.67
440.63	4800.44
440.82	4938.53
441.01	4826.18
441.19	4950.23
441.38	5036.83
441.57	4821.50
441.75	5069.60
441.94	5184.29
442.12	5252.16
442.31	5195.99
442.50	5179.61
442.68	5128.11
442.87	5231.10
443.05	5018.11
443.24	5301.31
443.43	5334.08
443.61	5235.78
443.80	5444.09
443.98	5305.99
444.17	4947.89
444.35	5221.74
444.54	5289.61
444.73	5298.97
444.91	5249.82
445.10	5303.65
445.28	5320.04
445.47	5317.70
445.65	5385.57
445.84	5357.49
446.02	5488.56
446.21	5305.99
446.39	5455.79
446.58	5376.21
446.77	5453.45
446.95	5423.02
447.14	5298.97
447.32	5490.90
447.51	5441.75
447.69	5575.16
447.88	5404.30
448.06	5458.13
448.25	5547.07
448.43	5598.56
448.62	5579.84
448.80	5584.52
448.99	5558.77
449.17	5596.22
449.36	5591.54
449.54	5781.12
449.73	5729.63
449.91	5792.83
450.10	5722.61
450.28	5886.45
450.46	5891.13
450.65	5804.53
450.83	5891.13
451.02	5898.15
451.20	5757.72
451.39	5923.90
451.57	6092.41
451.76	5799.85
451.94	5755.38
452.13	6069.01
452.31	5966.03
452.49	6083.05
452.68	5769.42
452.86	6113.48
453.05	6090.07
453.23	6127.52
453.42	6045.60
453.60	5928.58
453.78	6092.41
453.97	6087.73
454.15	6085.39
454.34	6059.65
454.52	6120.50
454.70	6125.18
454.89	6164.97
455.07	6141.57
455.26	6359.24
455.44	6452.86
455.62	6235.19
455.81	6345.19
455.99	6312.42
456.17	6394.34
456.36	6476.26
456.54	6436.47
456.73	6534.78
456.91	6775.85
457.09	6539.46
457.28	6651.80
457.46	6689.25
457.64	6707.98
457.83	6633.08
458.01	6752.45
458.19	6785.21
458.38	6799.26
458.56	6876.49
458.74	6967.77
458.93	6827.34
459.11	6768.83
459.29	6796.92
459.48	7045.01
459.66	6724.36
459.84	6780.53
460.03	7157.36
460.21	6977.14
460.39	7028.63
460.57	6911.60
460.76	7096.50
460.94	7002.88
461.12	7103.53
461.31	7133.95
461.49	6979.48
461.67	7194.81
461.85	7211.19
462.04	7297.79
462.22	7606.74
462.40	7370.35
462.59	7377.37
462.77	7309.49
462.95	7372.69
463.13	7440.56
463.32	7377.37
463.50	7466.31
463.68	7400.77
463.86	7424.18
464.05	7529.50
464.23	7487.37
464.41	7700.36
464.59	7492.05
464.78	7826.75
464.96	7592.70
465.14	7412.48
465.32	7693.34
465.50	7576.31
465.69	7737.81
465.87	7756.54
466.05	7829.09
466.23	7653.55
466.41	7667.60
466.60	7936.76
466.78	7733.13
466.96	7686.32
467.14	7721.43
467.32	7789.30
467.51	7936.76
467.69	7808.03
467.87	7918.03
468.05	8037.40
468.23	7906.33
468.41	7903.99
468.60	7948.46
468.78	8194.22
468.96	7845.48
469.14	8182.51
469.32	8395.50
469.50	7936.76
469.69	8140.38
469.87	8407.20
470.05	8271.45
470.23	8191.88
470.41	8276.13
470.59	8369.76
470.77	8112.30
470.95	8437.63
471.14	8388.48
471.32	8418.91
471.50	8631.90
471.68	8393.16
471.86	8755.94
472.04	8676.37
472.22	8791.05
472.40	8758.28
472.58	8662.32
472.77	8769.99
472.95	8826.16
473.13	9301.29
473.31	8901.06
473.49	9027.45
473.67	8870.63
473.85	9301.29
474.03	9004.04
474.21	9163.20
474.39	9231.07
474.57	9160.86
474.75	9387.89
474.93	9406.61
475.12	9376.19
475.30	9584.49
475.48	9401.93
475.66	9511.94
475.84	9647.69
476.02	9664.07
476.20	9415.98
476.38	9954.30
476.56	9998.77
476.74	10068.98
476.92	9970.68
477.10	9827.91
477.28	10012.81
477.46	10101.75
477.64	10183.67
477.82	10326.44
478.00	10675.18
478.18	10560.50
478.36	10607.31
478.54	10721.99
478.72	10768.80
478.90	10916.26
479.08	10895.19
479.26	11035.63
479.44	11143.29
479.62	11014.56
479.80	11108.18
479.98	11400.75
480.16	11644.17
480.34	11545.86
480.52	11365.64
480.70	11566.93
480.88	11517.78
481.06	11609.06
481.24	11702.68
481.41	12035.03
481.59	12107.59
481.77	12100.57
481.95	12091.21
482.13	12346.33
482.31	11976.52
482.49	12734.85
482.67	12610.81
482.85	12807.41
483.03	12837.84
483.21	13043.81
483.39	13118.70
483.57	12936.14
483.74	13081.25
483.92	13221.69
484.10	13235.73
484.28	13518.93
484.46	13675.75
484.64	13973.00
484.82	13764.69
485.00	14066.62
485.18	14057.26
485.35	14139.18
485.53	14188.33
485.71	14356.85
485.89	14427.06
486.07	14270.25
486.25	14679.84
486.43	14668.14
486.61	14916.23
486.78	14904.53
486.96	15014.54
487.14	15236.89
487.32	15447.54
487.50	15482.64
487.68	15461.58
487.85	15749.46
488.03	15585.63
488.21	16119.27
488.39	16060.76
488.57	16327.58
488.75	15906.28
488.92	16470.35
489.10	16802.71
489.28	16416.52
489.46	16568.65
489.64	16734.83
489.81	17282.52
489.99	17142.08
490.17	17214.64
490.35	17228.68
490.53	17687.43
490.70	17825.52
490.88	17535.29
491.06	17720.20
491.24	18066.60
491.41	17998.72
491.59	18092.34
491.77	17895.74
491.95	18272.56
492.13	18445.76
492.30	18429.38
492.48	18565.13
492.66	18750.03
492.84	18815.57
493.01	19028.56
493.19	19164.31
493.37	19353.89
493.54	19311.76
493.72	19433.47
493.90	19161.97
494.08	19686.25
494.25	19784.55
494.43	19868.81
494.61	19817.32
494.79	19967.11
494.96	20285.42
495.14	20123.93
495.32	20585.01
495.49	20807.36
495.67	20666.93
495.85	20879.92
496.02	20807.36
496.20	21053.12
496.38	20994.61
496.55	21352.71
496.73	21907.41
496.91	21036.74
497.09	21357.39
497.26	21937.84
497.44	21598.46
497.62	21893.37
497.79	22270.20
497.97	21893.37
498.14	22207.00
498.32	22143.81
498.50	22375.52
498.67	22417.65
498.85	22450.42
499.03	22640.00
499.20	22881.08
499.38	22955.97
499.56	23211.09
499.73	23030.87
499.91	23288.33
500.08	23475.57
500.26	23161.94
500.44	23250.88
500.61	23625.37
500.79	23044.91
500.97	23754.10
501.14	23875.80
501.32	24004.53
501.49	23843.04
501.67	23964.75
501.84	24292.42
502.02	23831.33
502.20	24592.01
502.37	24102.84
502.55	24400.08
502.72	24308.80
502.90	24594.35
503.07	24247.95
503.25	24533.50
503.43	24610.73
503.60	24893.94
503.78	25020.33
503.95	24709.04
504.13	25109.27
504.30	25298.85
504.48	24912.66
504.65	25109.27
504.83	25455.67
505.01	25376.09
505.18	25605.46
505.36	25902.71
505.53	25900.37
505.71	25813.77
505.88	26408.26
506.06	25584.40
506.23	26562.74
506.41	26120.38
506.58	26263.15
506.76	25738.87
506.93	26469.12
507.11	26375.50
507.28	26438.69
507.46	26450.39
507.63	26803.82
507.81	26838.92
507.98	26850.63
508.16	27056.59
508.33	27150.21
508.50	27147.87
508.68	27014.46
508.85	27241.50
509.03	27667.47
509.20	27459.16
509.38	27683.86
509.55	27470.87
509.73	27733.01
509.90	27873.44
510.08	27983.44
510.25	27599.60
510.42	28135.58
510.60	27917.91
510.77	27854.72
510.95	28472.62
511.12	28243.24
511.30	28531.13
511.47	28339.21
511.64	28332.18
511.82	28767.52
511.99	28067.70
512.17	28732.42
512.34	28807.31
512.51	28952.43
512.69	28992.22
512.86	29039.03
513.04	29113.92
513.21	29057.75
513.38	29345.64
513.56	29366.70
513.73	29291.80
513.90	29493.09
514.08	29500.11
514.25	29778.64
514.43	30171.85
514.60	29757.57
514.77	29575.01
514.95	30426.96
515.12	30082.91
515.29	29673.31
515.47	30185.89
515.64	30211.64
515.81	30199.93
515.99	30466.75
516.16	30740.60
516.33	30115.67
516.51	30988.69
516.68	30181.21
516.85	30642.29
517.03	30841.24
517.20	30789.75
517.37	30890.39
517.54	31079.97
517.72	31211.04
517.89	30937.20
518.06	31168.91
518.24	31477.86
518.41	31335.09
518.58	31161.89
518.75	31133.81
518.93	31496.59
519.10	31211.04
519.27	31775.11
519.45	31569.15
519.62	31662.77
519.79	31667.45
519.96	31470.84
520.14	32233.86
520.31	32353.23
520.48	32161.30
520.65	32304.07
520.83	32486.64
521.00	32713.67
521.17	32732.39
521.34	32126.19
521.52	32573.24
521.69	32491.32
521.86	32615.37
522.03	33036.66
522.20	33226.24
522.38	32952.40
522.55	32978.15
522.72	32788.56
522.89	33134.96
523.07	33720.10
523.24	33139.65
523.41	33584.35
523.58	33046.02
523.75	33539.88
523.92	33715.42
524.10	33542.22
524.27	33673.29
524.44	33827.76
524.61	33900.32
524.78	33797.34
524.96	34464.39
525.13	33916.70
525.30	34024.37
525.47	34232.68
525.64	33954.15
525.81	34316.93
525.98	34157.78
526.16	34188.21
526.33	34150.76
526.50	34394.17
526.67	34424.60
526.84	34614.18
527.01	34689.08
527.18	34562.69
527.36	34539.29
527.53	34806.11
527.70	35208.68
527.87	34684.40
528.04	34335.66
528.21	35035.48
528.38	35108.04
528.55	35314.00
528.72	34913.77
528.89	35019.10
529.07	35281.24
529.24	35353.79
529.41	35424.01
529.58	35290.60
529.75	35402.94
529.92	35442.73
530.09	35681.47
530.26	35367.84
530.43	35655.72
530.60	35564.44
530.77	35503.59
530.94	35732.96
531.11	35629.98
531.28	35644.02
531.46	35615.93
531.63	35637.00
531.80	36112.13
531.97	36158.94
532.14	35971.69
532.31	36126.17
532.48	36142.55
532.65	36320.43
532.82	36531.08
532.99	36151.91
533.16	36189.36
533.33	36549.81
533.50	36533.42
533.67	36488.95
533.84	36428.10
534.01	36587.25
534.18	36790.88
534.35	37060.04
534.52	37336.23
534.69	37160.69
534.86	36945.36
535.03	37057.70
535.20	37446.23
535.37	37266.01
535.54	37237.92
535.71	37502.40
535.88	37223.88
536.05	37083.45
536.22	37457.93
536.38	37745.82
536.55	37350.27
536.72	37544.53
536.89	37305.80
537.06	37397.08
537.23	37902.64
537.40	37352.61
537.57	37368.99
537.74	37780.93
537.91	37984.55
538.08	37935.40
538.25	37687.31
538.42	37893.27
538.59	38220.95
538.75	38031.36
538.92	38190.52
539.09	38576.71
539.26	38396.49
539.43	38356.70
539.60	38426.92
539.77	37996.26
539.94	38525.22
540.11	38590.75
540.28	38213.93
540.44	38466.70
540.61	38340.32
540.78	38359.04
540.95	38410.53
541.12	38300.53
541.29	38227.97
541.46	38752.25
541.62	38873.96
541.79	38579.05
541.96	38965.24
542.13	38752.25
542.30	39033.11
542.47	39243.76
542.63	39494.20
542.80	39353.77
542.97	39440.37
543.14	39522.29
543.31	39138.44
543.48	39346.75
543.64	39716.55
543.81	39550.37
543.98	39606.55
544.15	39962.31
544.32	39484.84
544.48	40254.87
544.65	39562.08
544.82	39955.29
544.99	39950.60
545.16	39903.79
545.32	39831.24
545.49	40673.83
545.66	40257.21
545.83	40652.76
546.00	40198.70
546.16	40552.12
546.33	40201.04
546.50	40041.88
546.67	40493.61
546.83	40037.20
547.00	40198.70
547.17	40423.39
547.34	40521.69
547.50	40840.01
547.67	40781.49
547.84	40409.35
548.00	40704.26
548.17	41331.52
548.34	41003.85
548.51	41193.43
548.67	41081.08
548.84	40687.87
549.01	40774.47
549.18	40847.03
549.34	40446.80
549.51	41034.27
549.68	41050.66
549.84	40842.35
550.01	41092.79
550.18	40603.61
550.34	41411.10
550.51	41549.19
550.68	41703.67
550.84	41006.19
551.01	41336.20
551.18	41181.73
551.34	41116.19
551.51	41488.34
551.68	41696.64
551.84	41478.97
552.01	41214.49
552.18	41738.77
552.34	41902.61
552.51	41415.78
552.68	41380.67
552.84	41954.10
553.01	41652.17
553.18	41680.26
553.34	41745.80
553.51	41572.60
553.67	41862.82
553.84	42068.79
554.01	41977.51
554.17	41890.91
554.34	42176.45
554.51	41986.87
554.67	42337.95
554.84	42206.88
555.00	41989.21
555.17	42419.87
555.33	41876.86
555.50	42223.26
555.67	42422.21
555.83	42232.63
556.00	42450.30
556.16	42880.95
556.33	42408.17
556.50	42593.07
556.66	42424.55
556.83	42064.11
556.99	42953.51
557.16	42649.24
557.32	42689.03
557.49	42447.96
557.65	42586.05
557.82	42342.63
557.98	42724.14
558.15	42693.71
558.32	42646.90
558.48	42506.47
558.65	43068.20
558.81	42625.84
558.98	43161.82
559.14	42424.55
559.31	42705.41
559.47	42820.10
559.64	42756.91
559.80	42763.93
559.97	43180.54
560.13	42766.27
560.30	43075.22
560.46	43487.15
560.63	42820.10
560.79	43515.24
560.96	43299.91
561.12	42913.72
561.29	43264.80
561.45	43447.36
561.61	42705.41
561.78	43086.92
561.94	43290.55
562.11	43377.15
562.27	43433.32
562.44	43330.34
562.60	43496.52
562.77	43140.75
562.93	43367.79
563.10	43501.20
563.26	43510.56
563.42	43505.88
563.59	43082.24
563.75	43517.58
563.92	43208.63
564.08	43351.40
564.24	43889.73
564.41	43463.75
564.57	43599.50
564.74	43746.95
564.90	43835.89
565.07	43613.54
565.23	43786.74
565.39	43590.14
565.56	43667.37
565.72	43482.47
565.88	43913.13
566.05	43650.99
566.21	43896.75
566.38	43618.22
566.54	43959.94
566.70	43590.14
566.87	43931.86
567.03	43950.58
567.19	44243.15
567.36	44130.80
567.52	43814.83
567.68	43981.01
567.85	43920.15
568.01	43941.22
568.17	43683.76
568.34	44231.44
568.50	44442.09
568.66	43679.08
568.83	44325.07
568.99	43955.26
569.15	44072.29
569.32	43585.46
569.48	44072.29
569.64	44186.97
569.81	44362.51
569.97	44268.89
570.13	44545.08
570.30	43817.17
570.46	44432.73
570.62	44205.70
570.78	43845.26
570.95	44023.14
571.11	45041.27
571.27	43765.68
571.43	44130.80
571.60	43889.73
571.76	44346.13
571.92	44065.27
572.09	44355.49
572.25	44392.94
572.41	43981.01
572.57	44172.93
572.74	44917.22
572.90	43997.39
573.06	44189.31
573.22	44594.23
573.38	44299.32
573.55	44854.03
573.71	44341.45
573.87	44638.70
574.03	44545.08
574.20	44603.59
574.36	44566.14
574.52	44886.79
574.68	44357.83
574.84	44615.29
575.01	44577.84
575.17	44491.24
575.33	44605.93
575.49	44177.61
575.65	44783.81
575.82	44540.39
575.98	44371.88
576.14	44765.09
576.30	44584.86
576.46	44465.50
576.62	44451.45
576.79	44107.40
576.95	44690.19
577.11	44076.97
577.27	44252.51
577.43	44266.55
577.59	44732.32
577.75	44289.96
577.92	44158.89
578.08	44612.95
578.24	44474.86
578.40	44783.81
578.56	44619.97
578.72	44708.91
578.88	44783.81
579.04	44861.05
579.21	44437.41
579.37	44648.06
579.53	44451.45
579.69	44821.26
579.85	44650.40
580.01	44512.31
580.17	44797.85
580.33	45045.95
580.49	44704.23
580.65	44854.03
580.82	44844.66
580.98	44701.89
581.14	44296.98
581.30	44856.37
581.46	44952.33
581.62	44519.33
581.78	44762.75
581.94	44519.33
582.10	44966.37
582.26	45067.02
582.42	45057.65
582.58	44905.52
582.74	44924.24
582.90	44917.22
583.06	44924.24
583.22	44444.43
583.38	45104.46
583.54	45158.30
583.70	44729.98
583.86	45017.86
584.02	44992.12
584.18	44898.50
584.34	45347.88
584.50	45193.40
584.66	44912.54
584.82	44964.03
584.98	45120.85
585.14	45305.75
585.30	44458.48
585.46	44535.71
585.62	44907.86
585.78	44973.39
585.94	45200.43
586.10	45074.04
586.26	44439.75
586.42	44385.92
586.58	45240.21
586.74	44626.99
586.90	45125.53
587.06	45022.54
587.22	45083.40
587.38	45055.31
587.54	45207.45
587.70	45633.42
587.86	44868.07
588.02	45144.25
588.18	45118.51
588.34	44907.86
588.49	44781.47
588.65	45071.70
588.81	45235.53
588.97	45120.85
589.13	45130.21
589.29	44879.77
589.45	45024.89
589.61	44877.43
589.77	45291.71
589.93	45111.49
590.08	45284.68
590.24	45862.80
590.40	45710.66
590.56	45771.52
590.72	45368.94
590.88	45242.56
591.04	45382.99
591.20	45462.57
591.35	45565.55
591.51	45687.26
591.67	45436.82
591.83	45345.54
591.99	45137.23
592.15	45401.71
592.31	45535.12
592.46	45610.02
592.62	44987.44
592.78	45897.91
592.94	45570.23
593.10	45759.81
593.26	45907.27
593.41	45581.93
593.57	45633.42
593.73	45298.73
593.89	45876.84
594.05	45851.09
594.20	45141.91
594.36	46019.61
594.52	45624.06
594.68	45673.21
594.84	45455.54
594.99	45595.98
595.15	45394.69
595.31	45605.34
595.47	45436.82
595.62	45734.07
595.78	45425.12
595.94	45890.88
596.10	45839.39
596.25	45769.18
596.41	45769.18
596.57	45366.60
596.73	46176.43
596.88	45474.27
597.04	45715.34
597.20	45925.99
597.36	45769.18
597.51	45600.66
597.67	45984.51
597.83	45996.21
597.99	45916.63
598.14	45352.56
598.30	46124.94
598.46	45841.73
598.61	45984.51
598.77	45649.81
598.93	46106.21
599.09	46007.91
599.24	45963.44
599.40	45883.86
599.56	45790.24
599.71	46335.59
599.87	46349.63
600.03	46256.01
600.18	45764.49
600.34	45872.16
600.50	46160.05
600.65	45717.68
600.81	45701.30
600.97	45982.16
601.12	46199.83
601.28	45916.63
601.44	45851.09
601.59	45603.00
601.75	45734.07
601.91	46272.39
602.06	46010.25
602.22	46071.10
602.37	45792.58
602.53	45897.91
602.69	45851.09
602.84	45862.80
603.00	45390.01
603.16	45694.28
603.31	45581.93
603.47	46162.39
603.62	45989.19
603.78	45965.78
603.94	45890.88
604.09	45844.07
604.25	45549.17
604.40	45663.85
604.56	46007.91
604.71	46085.15
604.87	46026.63
605.03	45294.05
605.18	45593.64
605.34	45537.46
605.49	45500.01
605.65	45799.60
605.80	45394.69
605.96	45443.84
606.12	45813.65
606.27	45528.10
606.43	45989.19
606.58	45731.73
606.74	45982.16
606.89	45794.92
607.05	45970.46
607.20	45696.62
607.36	46138.98
607.51	45537.46
607.67	45544.48
607.82	45635.77
607.98	45900.25
608.13	45656.83
608.29	45490.65
608.44	45612.36
608.60	45177.02
608.75	45525.76
608.91	45448.52
609.06	45134.89
609.22	45930.67
609.37	45326.81
609.53	45825.35
609.68	45684.92
609.84	44973.39
609.99	45647.47
610.15	45628.74
610.30	45530.44
610.46	45413.41
610.61	45619.38
610.76	45387.67
610.92	45390.01
611.07	45010.84
611.23	44992.12
611.38	45420.44
611.54	45390.01
611.69	45387.67
611.84	45619.38
612.00	45111.49
612.15	44863.39
612.31	45537.46
612.46	45432.14
612.62	45462.57
612.77	45221.49
612.92	45429.80
613.08	45251.92
613.23	45579.59
613.39	45106.80
613.54	44903.18
613.69	45425.12
613.85	45345.54
614.00	44931.26
614.15	45202.77
614.31	44957.01
614.46	44556.78
614.62	45111.49
614.77	45158.30
614.92	44727.64
615.08	45256.60
615.23	45193.40
615.38	45415.76
615.54	44861.05
615.69	45223.83
615.84	44891.48
616.00	45280.00
616.15	45045.95
616.30	45146.59
616.46	44751.04
616.61	44769.77
616.76	45043.61
616.92	44540.39
617.07	45265.96
617.22	44729.98
617.37	44313.36
617.53	44779.13
617.68	45069.36
617.83	44872.75
617.99	45008.50
618.14	44994.46
618.29	44732.32
618.45	44315.70
618.60	44657.42
618.75	44367.20
618.90	44488.90
619.06	44879.77
619.21	45144.25
619.36	45064.67
619.51	44502.95
619.67	44669.12
619.82	44769.77
619.97	44624.65
620.12	44205.70
620.28	44320.38
620.43	44512.31
620.58	44636.36
620.73	44554.44
620.89	44683.17
621.04	44891.48
621.19	44074.63
621.34	44374.22
621.49	44147.18
621.65	44559.12
621.80	44121.44
621.95	44154.21
622.10	44299.32
622.25	44254.85
622.41	44142.50
622.56	43863.98
622.71	44189.31
622.86	43681.42
623.01	44414.01
623.16	43990.37
623.32	43992.71
623.47	43981.01
623.62	44395.28
623.77	44208.04
623.92	44418.69
624.07	44217.40
624.23	44472.52
624.38	44376.56
624.53	43765.68
624.68	44055.90
624.83	43768.02
624.98	44069.95
625.13	43288.21
625.29	43796.10
625.44	43592.48
625.59	43763.34
625.74	43608.86
625.89	43096.28
626.04	43723.55
626.19	43508.22
626.34	43531.62
626.49	43718.87
626.65	43241.40
626.80	43283.53
626.95	43276.51
627.10	43147.78
627.25	43475.45
627.40	43580.78
627.55	43065.86
627.70	43234.38
627.85	43505.88
628.00	43688.44
628.15	43353.74
628.30	43180.54
628.45	43021.39
628.60	42787.33
628.76	42995.64
628.91	43447.36
629.06	42756.91
629.21	43068.20
629.36	42862.23
629.51	43138.41
629.66	43274.16
629.81	43147.78
629.96	42717.12
630.11	42962.87
630.26	42759.25
630.41	43061.18
630.56	43040.11
630.71	43339.70
630.86	42597.75
631.01	42834.14
631.16	43107.99
631.31	42731.16
631.46	42621.16
631.61	42932.45
631.76	43026.07
631.91	42932.45
632.06	43442.68
632.21	42909.04
632.36	42951.17
632.51	42326.25
632.66	42337.95
632.81	42082.83
632.96	42272.42
633.10	42450.30
633.25	42642.22
633.40	42658.60
633.55	42321.57
633.70	42682.01
633.85	42557.96
634.00	42305.18
634.15	42021.98
634.30	42300.50
634.45	42127.30
634.60	42251.35
634.75	42340.29
634.90	42309.86
635.05	42061.77
635.19	42277.10
635.34	42330.93
635.49	41989.21
635.64	42548.60
635.79	41961.12
635.94	42000.91
636.09	42667.97
636.24	42178.79
636.39	42029.00
636.53	42359.02
636.68	42064.11
636.83	41558.55
636.98	41745.80
637.13	41682.60
637.28	41661.54
637.43	41823.03
637.57	41703.67
637.72	41598.34
637.87	41425.14
638.02	41918.99
638.17	41530.47
638.32	41584.30
638.46	41408.76
638.61	41050.66
638.76	41371.31
638.91	41586.64
639.06	41420.46
639.20	41268.33
639.35	41375.99
639.50	41354.93
639.65	41366.63
639.80	41607.70
639.94	41680.26
640.09	41549.19
640.24	41734.09
640.39	41235.56
640.54	40971.08
640.68	41153.64
640.83	41443.87
640.98	40999.16
641.13	41240.24
641.27	41226.20
641.42	41188.75
641.57	41331.52
641.72	41488.34
641.86	41181.73
642.01	40872.78
642.16	40877.46
642.31	40566.16
642.45	41048.32
642.60	40994.48
642.75	40664.47
642.90	40898.52
643.04	40730.00
643.19	40870.43
643.34	40942.99
643.48	40746.39
643.63	40268.92
643.78	40863.41
643.93	40755.75
644.07	41050.66
644.22	41053.00
644.37	40346.15
644.51	40299.34
644.66	40449.14
644.81	40907.88
644.95	40477.22
645.10	40807.24
645.25	40856.39
645.39	40041.88
645.54	39966.99
645.69	39887.41
645.83	40402.33
645.98	40175.30
646.13	40399.99
646.27	40357.86
646.42	40210.40
646.57	40245.51
646.71	40584.89
646.86	40208.06
647.00	40465.52
647.15	40170.61
647.30	40275.94
647.44	40067.63
647.59	40051.25
647.74	40034.86
647.88	40308.71
648.03	40191.68
648.17	40610.64
648.32	40147.21
648.47	40299.34
648.61	39529.31
648.76	40149.55
648.90	39587.82
649.05	39997.41
649.20	39716.55
649.34	40172.96
649.49	40062.95
649.63	40046.57
649.78	40109.76
649.92	40205.72
650.07	40402.33
650.21	40285.30
650.36	40109.76
650.51	39449.73
650.65	40037.20
650.80	39798.47
650.94	39627.61
651.09	39948.26
651.23	39599.52
651.38	39550.37
651.52	39187.59
651.67	39248.44
651.81	39501.22
651.96	39613.57
652.10	39372.49
652.25	38988.64
652.39	39435.69
652.54	39508.24
652.68	39409.94
652.83	39473.13
652.97	38953.54
653.12	38972.26
653.26	39157.16
653.41	38895.02
653.55	39349.09
653.70	39503.56
653.84	39239.08
653.99	39370.15
654.13	39342.06
654.27	39290.57
654.42	39000.35
654.56	38955.88
654.71	39150.14
654.85	39416.96
655.00	39154.82
655.14	39344.41
655.29	39454.41
655.43	39335.04
655.57	39105.67
655.72	38644.59
655.86	38649.27
656.01	38710.12
656.15	38237.33
656.30	38520.54
656.44	38890.34
656.58	38803.74
656.73	38623.52
656.87	38405.85
657.01	38396.49
657.16	38600.12
657.30	38660.97
657.45	38813.10
657.59	38529.90
657.73	38412.87
657.88	38284.14
658.02	38480.75
658.16	38742.89
658.31	38447.98
658.45	38628.20
658.60	38022.00
658.74	38499.47
658.88	38698.42
659.03	37872.21
659.17	38045.41
659.31	38031.36
659.46	37839.44
659.60	38192.86
659.74	38110.94
659.89	37429.85
660.03	37659.22
660.17	37818.38
660.32	38136.69
660.46	37591.34
660.60	37233.24
660.74	37394.74
660.89	37804.33
661.03	37338.57
661.17	37392.40
661.32	37085.79
661.46	37366.65
661.60	37418.14
661.74	37418.14
661.89	37373.67
662.03	36987.49
662.17	37322.18
662.31	37113.87
662.46	37186.43
662.60	37476.66
662.74	36753.43
662.88	37024.93
663.03	36362.56
663.17	36584.91
663.31	36411.71
663.45	36479.59
663.60	37207.50
663.74	36713.64
663.88	36598.96
664.02	36477.25
664.17	37048.34
664.31	36180.00
664.45	36135.53
664.59	36673.85
664.73	36119.15
664.88	36327.45
665.02	36070.00
665.16	35969.35
665.30	36355.54
665.44	35990.42
665.59	35690.83
665.73	35620.61
665.87	35864.03
666.01	35714.23
666.15	36077.02
666.29	35601.89
666.44	36034.89
666.58	35756.36
666.72	35580.82
666.86	35379.54
667.00	35391.24
667.14	35529.33
667.28	35246.13
667.43	35040.16
667.57	35487.20
667.71	35180.59
667.85	35459.12
667.99	34934.84
668.13	34714.83
668.27	34920.79
668.41	34668.02
668.56	34401.19
668.70	34628.23
668.84	34579.07
668.98	34132.03
669.12	34649.29
669.26	34532.26
669.40	34345.02
669.54	34522.90
669.68	34504.18
669.82	34431.62
669.96	34176.50
670.10	33708.40
670.25	33986.92
670.39	33905.00
670.53	34246.72
670.67	33958.83
670.81	34366.09
670.95	34305.23
671.09	33741.16
671.23	33656.90
671.37	33865.21
671.51	33490.73
671.65	33750.52
671.79	33518.81
671.93	33738.82
672.07	33308.16
672.21	33130.28
672.35	33167.73
672.49	32891.55
672.63	33205.18
672.77	33179.43
672.91	33144.33
673.05	32886.87
673.19	32327.48
673.33	32610.68
673.47	32488.98
673.61	32210.45
673.75	32758.14
673.89	32407.06
674.03	31934.27
674.17	31971.72
674.31	31955.33
674.45	32187.05
674.59	32058.32
674.73	32203.43
674.87	31857.03
675.01	31543.40
675.15	31709.58
675.29	31482.55
675.43	31377.22
675.56	31892.14
675.70	31262.54
675.84	31510.63
675.98	29956.52
676.12	31140.83
676.26	30993.37
676.40	30803.79
676.54	30654.00
676.68	30639.95
676.82	30443.35
676.96	30637.61
677.10	30405.90
677.23	30251.42
677.37	30466.75
677.51	30597.82
677.65	30314.62
677.79	30129.72
677.93	29912.05
678.07	29846.51
678.21	29628.84
678.34	29518.84
678.48	29287.12
678.62	29301.17
678.76	29099.88
678.90	29277.76
679.04	29326.91
679.18	29280.10
679.31	28975.83
679.45	29076.48
679.59	28596.67
679.73	28844.76
679.87	28556.88
680.00	28334.53
680.14	28512.41
680.28	28606.03
680.42	28437.51
680.56	28009.19
680.70	28641.14
680.83	28133.24
680.97	27976.42
681.11	28065.36
681.25	27899.19
681.39	27669.81
681.52	27377.25
681.66	26984.04
681.80	26693.81
681.94	27063.61
682.07	26974.67
682.21	27023.83
682.35	26607.21
682.49	27000.42
682.62	26623.59
682.76	26939.57
682.90	26857.65
683.04	26799.13
683.17	26771.05
683.31	26267.83
683.45	26195.28
683.59	25710.78
683.72	26024.42
683.86	25954.20
684.00	25902.71
684.13	25937.82
684.27	25495.46
684.41	25565.67
684.55	25951.86
684.68	25568.01
684.82	25132.67
684.96	25048.41
685.09	25195.87
685.23	25029.69
685.37	25462.69
685.50	25205.23
685.64	25001.60
685.78	25013.31
685.91	24776.91
686.05	24610.73
686.19	24060.71
686.32	24306.46
686.46	24156.67
686.60	23667.50
686.73	24229.23
686.87	24084.11
687.01	24137.94
687.14	24306.46
687.28	23770.48
687.42	23534.09
687.55	23639.41
687.69	23756.44
687.82	23316.42
687.96	23498.98
688.10	23133.86
688.23	23396.00
688.37	23185.35
688.50	23440.47
688.64	23084.70
688.78	22607.23
688.91	22960.66
689.05	22918.53
689.18	22295.94
689.32	21855.92
689.46	22099.34
689.59	22504.25
689.73	22349.78
689.86	22422.33
690.00	22127.42
690.13	22073.59
690.27	22122.74
690.41	22108.70
690.54	21905.07
690.68	21701.45
690.81	21441.65
690.95	21649.96
691.08	21322.28
691.22	21261.43
691.35	21245.04
691.49	21219.30
691.62	21149.08
691.76	20931.41
691.89	20788.64
692.03	20467.98
692.16	20404.79
692.30	20573.31
692.43	20500.75
692.57	20217.55
692.70	20463.30
692.84	20301.81
692.97	19976.47
693.11	20105.20
693.24	19695.61
693.38	19990.52
693.51	19707.31
693.65	19550.49
693.78	19541.13
693.92	19522.41
694.05	19599.65
694.19	19321.12
694.32	19447.51
694.45	19491.98
694.59	19482.62
694.72	19356.23
694.86	18824.93
694.99	18782.80
695.13	18778.12
695.26	18530.02
695.39	18515.98
695.53	18497.25
695.66	18625.98
695.80	18363.84
695.93	18518.32
696.07	18026.81
696.20	17827.86
696.33	18242.14
696.47	17872.33
696.60	17708.49
696.73	18129.79
696.87	17937.87
697.00	17628.92
697.14	17722.54
697.27	17659.34
697.40	17240.39
697.54	17296.56
697.67	17174.85
697.80	17158.47
697.94	17167.83
698.07	17202.94
698.21	17144.42
698.34	17231.02
698.47	16500.78
698.61	16259.70
698.74	16439.92
698.87	16292.47
699.01	16278.43
699.14	16435.24
699.27	16379.07
699.40	16290.13
699.54	16081.82
699.67	16130.97
699.80	16358.00
699.94	15929.69
700.07	15915.64
700.20	15915.64
700.34	15917.98
700.47	15665.21
700.60	15639.46
700.73	15768.19
700.87	15700.31
701.00	15185.40
701.13	15328.17
701.26	15316.47
701.40	15122.20
701.53	15009.86
701.66	14679.84
701.79	15091.77
701.93	14766.44
702.06	14846.02
702.19	14478.55
702.32	14738.35
702.46	14972.41
702.59	14373.23
702.72	14380.25
702.85	14464.51
702.99	14445.79
703.12	14162.58
703.25	14286.63
703.38	14239.82
703.51	14153.22
703.65	14228.12
703.78	13755.33
703.91	13638.30
704.04	13764.69
704.17	13563.40
704.31	13642.98
704.44	13305.95
704.57	13518.93
704.70	13378.50
704.83	13195.94
704.96	13116.36
705.10	13092.96
705.23	12964.23
>>>>>End Processed Spectral Data<<<<<
