SpectraSuite Data File
++++++++++++++++++++++++++++++++++++
Date: Fri Oct 25 10:44:00 EDT 2013
User: price-jones
Dark Spectrum Present: No
Reference Spectrum Present: No
Number of Sampled Component Spectra: 1
Spectrometers: USB2+H05261
Integration Time (usec): 100000 (USB2+H05261)
Spectra Averaged: 1 (USB2+H05261)
Boxcar Smoothing: 0 (USB2+H05261)
Correct for Electrical Dark: No (USB2+H05261)
Strobe/Lamp Enabled: No (USB2+H05261)
Correct for Detector Non-linearity: No (USB2+H05261)
Correct for Stray Light: No (USB2+H05261)
Number of Pixels in Processed Spectrum: 2048
>>>>>Begin Processed Spectral Data<<<<<
365.73	131.07
365.92	131.07
366.12	131.07
366.32	53.83
366.52	42.13
366.72	65.54
366.91	32.77
367.11	16.38
367.31	0.00
367.51	0.00
367.70	63.19
367.90	23.41
368.10	49.15
368.30	21.06
368.49	0.00
368.69	67.88
368.89	63.19
369.09	44.47
369.28	0.00
369.48	37.45
369.68	72.56
369.87	79.58
370.07	72.56
370.27	131.07
370.47	149.79
370.66	379.17
370.86	475.13
371.06	430.66
371.25	521.94
371.45	498.53
371.65	447.04
371.84	393.21
372.04	498.53
372.24	531.30
372.44	496.19
372.63	433.00
372.83	507.90
373.03	533.64
373.22	503.22
373.42	493.85
373.62	491.51
373.81	531.30
374.01	603.86
374.21	526.62
374.40	582.79
374.60	507.90
374.79	678.76
374.99	617.90
375.19	545.34
375.38	615.56
375.58	582.79
375.78	641.31
375.97	554.71
376.17	603.86
376.37	573.43
376.56	582.79
376.76	638.97
376.95	580.45
377.15	634.29
377.35	620.24
377.54	657.69
377.74	601.52
377.93	620.24
378.13	660.03
378.33	667.05
378.52	589.82
378.72	636.63
378.91	603.86
379.11	617.90
379.31	615.56
379.50	585.13
379.70	786.42
379.89	786.42
380.09	702.16
380.28	645.99
380.48	739.61
380.68	638.97
380.87	716.20
381.07	746.63
381.26	788.76
381.46	723.23
381.65	741.95
381.85	847.27
382.04	711.52
382.24	779.40
382.43	657.69
382.63	711.52
382.83	690.46
383.02	739.61
383.22	866.00
383.41	763.01
383.61	837.91
383.80	744.29
384.00	725.57
384.19	802.80
384.39	795.78
384.58	777.06
384.78	823.87
384.97	875.36
385.17	828.55
385.36	819.19
385.56	854.30
385.75	844.93
385.95	830.89
386.14	833.23
386.34	807.48
386.53	933.87
386.72	793.44
386.92	828.55
387.11	971.32
387.31	931.53
387.50	844.93
387.70	861.32
387.89	924.51
388.09	828.55
388.28	926.85
388.48	870.68
388.67	919.83
388.86	929.19
389.06	1048.56
389.25	931.53
389.45	1055.58
389.64	1025.15
389.84	1022.81
390.03	1046.22
390.22	971.32
390.42	1086.01
390.61	1015.79
390.81	1055.58
391.00	1064.94
391.19	1107.07
391.39	1135.16
391.58	1100.05
391.78	1041.54
391.97	1090.69
392.16	1083.67
392.36	1114.10
392.55	1076.65
392.75	945.58
392.94	959.62
393.13	1095.37
393.33	1043.88
393.52	994.73
393.71	1153.88
393.91	1118.78
394.10	1100.05
394.29	1142.18
394.49	1170.27
394.68	1198.35
394.88	1184.31
395.07	1193.67
395.26	1228.78
395.46	1233.46
395.65	1284.95
395.84	1184.31
396.04	1191.33
396.23	1184.31
396.42	1170.27
396.62	1181.97
396.81	1221.76
397.00	1181.97
397.19	1188.99
397.39	1411.34
397.58	1390.28
397.77	1355.17
397.97	1446.45
398.16	1418.36
398.35	1530.71
398.55	1481.56
398.74	1528.37
398.93	1554.12
399.12	1519.01
399.32	1547.09
399.51	1640.72
399.70	1593.90
399.90	1668.80
400.09	1584.54
400.28	1659.44
400.47	1689.87
400.67	1636.03
400.86	1720.29
401.05	1671.14
401.24	1696.89
401.44	1664.12
401.63	1813.92
401.82	1832.64
402.01	1717.95
402.21	1790.51
402.40	1762.42
402.59	1818.60
402.78	1820.94
402.97	1837.32
403.17	1792.85
403.36	1774.13
403.55	1949.67
403.74	1900.52
403.93	1849.02
404.13	1884.13
404.32	1921.58
404.51	1923.92
404.70	1952.01
404.89	1944.99
405.09	2029.24
405.28	2010.52
405.47	1961.37
405.66	2003.50
405.85	1952.01
406.05	2054.99
406.24	2113.50
406.43	2181.38
406.62	2132.23
406.81	2179.04
407.00	2108.82
407.20	2078.40
407.39	2118.18
407.58	2127.55
407.77	2160.31
407.96	2167.34
408.15	2228.19
408.34	2249.25
408.54	2415.43
408.73	2408.41
408.92	2352.24
409.11	2359.26
409.30	2356.92
409.49	2249.25
409.68	2310.11
409.87	2275.00
410.07	2267.98
410.26	2408.41
410.45	2382.67
410.64	2413.09
410.83	2476.29
411.02	2539.48
411.21	2565.23
411.40	2712.68
411.59	2553.52
411.78	2696.30
411.98	2593.31
412.17	2710.34
412.36	2810.98
412.55	2693.96
412.74	2757.15
412.93	2708.00
413.12	2677.57
413.31	2979.50
413.50	2759.49
413.69	2913.97
413.88	2960.78
414.07	2930.35
414.26	3016.95
414.45	3075.46
414.64	3070.78
414.83	3073.12
415.02	3126.96
415.22	3178.45
415.41	3112.91
415.60	3169.09
415.79	3204.19
415.98	3197.17
416.17	3353.99
416.36	3295.47
416.55	3337.60
416.74	3330.58
416.93	3309.52
417.12	3405.48
417.31	3396.12
417.50	3361.01
417.69	3559.95
417.88	3515.48
418.07	3482.72
418.26	3508.46
418.45	3508.46
418.64	3646.55
418.83	3599.74
419.02	3609.11
419.21	3733.15
419.39	3604.42
419.58	3698.05
419.77	3620.81
419.96	3705.07
420.15	3709.75
420.34	3709.75
420.53	3920.40
420.72	3819.75
420.91	3955.51
421.10	3875.93
421.29	3925.08
421.48	3873.59
421.67	3810.39
421.86	3826.78
422.05	3892.31
422.24	3833.80
422.43	3911.04
422.61	4002.32
422.80	3967.21
422.99	4009.34
423.18	4028.06
423.37	4077.21
423.56	3969.55
423.75	3969.55
423.94	3967.21
424.13	3735.50
424.32	3894.65
424.50	4016.36
424.69	4042.11
424.88	4133.39
425.07	3857.20
425.26	3953.16
425.45	3988.27
425.64	3962.53
425.83	4058.49
426.01	4079.55
426.20	4014.02
426.39	4133.39
426.58	4051.47
426.77	4063.17
426.96	4023.38
427.15	3969.55
427.33	4030.40
427.52	4091.26
427.71	4189.56
427.90	4142.75
428.09	4219.99
428.28	4294.88
428.46	4269.14
428.65	4114.66
428.84	4365.10
429.03	4346.37
429.22	4067.85
429.40	4379.14
429.59	4074.87
429.78	4037.42
429.97	4044.45
430.16	3971.89
430.34	4161.47
430.53	4269.14
430.72	4367.44
430.91	4236.37
431.10	4440.00
431.28	4557.02
431.47	4903.42
431.66	4667.03
431.85	4606.17
432.03	4695.11
432.22	4844.91
432.41	4634.26
432.60	4685.75
432.79	4847.25
432.97	4723.20
433.16	4805.12
433.35	4599.15
433.54	4720.86
433.72	4690.43
433.91	4660.01
434.10	4828.53
434.28	4880.02
434.47	4929.17
434.66	4992.36
434.85	4987.68
435.03	5015.77
435.22	5043.85
435.41	5170.24
435.59	5085.98
435.78	5165.56
435.97	5191.31
436.16	5322.38
436.34	5411.32
436.53	5275.57
436.72	5263.86
436.90	5121.09
437.09	5245.14
437.28	5170.24
437.46	5153.86
437.65	5224.08
437.84	5200.67
438.02	5233.44
438.21	5226.42
438.40	5263.86
438.58	5432.38
438.77	5561.11
438.96	5406.64
439.14	5664.10
439.33	5556.43
439.52	5722.61
439.70	5652.39
439.89	5776.44
440.08	5818.57
440.26	5846.66
440.45	5877.09
440.63	5928.58
440.82	6120.50
441.01	6033.90
441.19	6073.69
441.38	6216.46
441.57	6347.53
441.75	6408.39
441.94	6375.62
442.12	6375.62
442.31	6392.00
442.50	6448.18
442.68	6244.55
442.87	6434.13
443.05	6382.64
443.24	6518.39
443.43	6523.07
443.61	6532.44
443.80	6752.45
443.98	6396.68
444.17	6450.52
444.35	6619.04
444.54	6654.14
444.73	6572.22
444.91	6445.84
445.10	6445.84
445.28	6403.71
445.47	6661.16
445.65	6602.65
445.84	6651.80
446.02	6590.95
446.21	6757.13
446.39	6792.23
446.58	6700.95
446.77	6832.02
446.95	6619.04
447.14	6881.18
447.32	6780.53
447.51	6738.40
447.69	6916.28
447.88	6970.12
448.06	6951.39
448.25	6782.87
448.43	6869.47
448.62	6885.86
448.80	6834.36
448.99	6899.90
449.17	6913.94
449.36	6911.60
449.54	7115.23
449.73	7084.80
449.91	7255.66
450.10	7049.69
450.28	7480.35
450.46	7269.70
450.65	7396.09
450.83	7293.11
451.02	7150.34
451.20	7356.30
451.39	7368.01
451.57	7419.50
451.76	7386.73
451.94	7180.76
452.13	7218.21
452.31	7459.29
452.49	7030.97
452.68	7206.51
452.86	7311.83
453.05	7332.90
453.23	7494.40
453.42	7543.55
453.60	7583.34
453.78	7691.00
453.97	7517.80
454.15	7686.32
454.34	7613.76
454.52	7691.00
454.70	7527.16
454.89	7749.51
455.07	7693.34
455.26	7765.90
455.44	7889.95
455.62	7920.37
455.81	7957.82
455.99	7985.91
456.17	7983.57
456.36	8128.68
456.54	8229.32
456.73	8145.06
456.91	8334.65
457.09	8077.19
457.28	8322.94
457.46	8109.96
457.64	8201.24
457.83	8360.39
458.01	8074.85
458.19	8439.97
458.38	8313.58
458.56	8407.20
458.74	8482.10
458.93	8336.99
459.11	8418.91
459.29	8379.12
459.48	8425.93
459.66	8472.74
459.84	8411.89
460.03	8685.73
460.21	8772.33
460.39	8685.73
460.57	8762.97
460.76	8779.35
460.94	8678.71
461.12	8702.11
461.31	8786.37
461.49	8926.80
461.67	8580.40
461.85	9085.96
462.04	9006.38
462.22	9006.38
462.40	9041.49
462.59	8929.14
462.77	8978.30
462.95	8922.12
463.13	8945.53
463.32	9008.72
463.50	9032.13
463.68	9282.56
463.86	9092.98
464.05	9102.34
464.23	8863.61
464.41	9247.46
464.59	9060.21
464.78	9486.19
464.96	8982.98
465.14	9104.68
465.32	9350.44
465.50	9738.97
465.69	9385.55
465.87	9100.00
466.05	9200.65
466.23	9371.50
466.41	9404.27
466.60	9479.17
466.78	9437.04
466.96	9408.95
467.14	9565.77
467.32	9584.49
467.51	9771.74
467.69	9324.69
467.87	9598.54
468.05	9785.78
468.23	9664.07
468.41	9525.98
468.60	9589.17
468.78	9575.13
468.96	9837.27
469.14	9827.91
469.32	9820.89
469.50	9692.16
469.69	9898.13
469.87	9973.02
470.05	10111.11
470.23	9984.73
470.41	9872.38
470.59	9954.30
470.77	9994.09
470.95	10115.80
471.14	10537.09
471.32	10136.86
471.50	10509.01
471.68	10558.16
471.86	10399.00
472.04	10347.51
472.22	10766.46
472.40	10466.88
472.58	10375.59
472.77	10775.83
472.95	10832.00
473.13	10965.41
473.31	10808.59
473.49	10780.51
473.67	10731.36
473.85	10878.81
474.03	11236.91
474.21	11215.85
474.39	11239.25
474.57	11122.23
474.75	11063.71
474.93	11159.67
475.12	11328.19
475.30	11382.03
475.48	11243.93
475.66	11494.37
475.84	11286.06
476.02	11737.79
476.20	11506.07
476.38	11889.92
476.56	11838.43
476.74	12102.91
476.92	11686.29
477.10	11864.18
477.28	12374.41
477.46	12224.62
477.64	12496.12
477.82	12456.33
478.00	12774.64
478.18	12566.34
478.36	12826.14
478.54	12755.92
478.72	13046.15
478.90	13350.42
479.08	13343.39
479.26	13167.85
479.44	13191.26
479.62	13277.86
479.80	13741.29
479.98	13706.18
480.16	14036.19
480.34	13701.50
480.52	14092.37
480.70	14340.46
480.88	13785.76
481.06	14272.59
481.24	14139.18
481.41	14497.28
481.59	14698.56
481.77	14841.34
481.95	14565.15
482.13	14710.27
482.31	14679.84
482.49	14916.23
482.67	15110.50
482.85	15213.48
483.03	15445.20
483.21	15538.82
483.39	15604.35
483.57	15630.10
483.74	15651.16
483.92	15920.32
484.10	15616.05
484.28	16161.40
484.46	16449.28
484.64	16718.45
484.82	16372.05
485.00	16273.74
485.18	16741.85
485.35	17046.12
485.53	16418.86
485.71	16315.87
485.89	16690.36
486.07	16517.16
486.25	17118.68
486.43	17111.66
486.61	17256.77
486.78	17476.78
486.96	17855.95
487.14	17891.06
487.32	17933.18
487.50	18288.95
487.68	18445.76
487.85	18274.90
488.03	18675.13
488.21	19021.53
488.39	18743.01
488.57	18998.13
488.75	19014.51
488.92	19538.79
489.10	19587.94
489.28	19803.27
489.46	20088.82
489.64	19714.33
489.81	20255.00
489.99	20273.72
490.17	20615.44
490.35	20837.79
490.53	20847.15
490.70	20910.35
490.88	20762.89
491.06	20854.17
491.24	20950.14
491.41	20898.64
491.59	21090.57
491.77	21172.49
491.95	21427.60
492.13	21671.02
492.30	21764.64
492.48	22171.89
492.66	21858.26
492.84	22195.30
493.01	22253.81
493.19	22431.69
493.37	22476.16
493.54	22618.94
493.72	22841.29
493.90	22747.67
494.08	23012.15
494.25	23508.34
494.43	23367.91
494.61	23796.23
494.79	23758.78
494.96	23798.57
495.14	23744.73
495.32	24334.55
495.49	24114.54
495.67	24451.58
495.85	24489.03
496.02	24779.25
496.20	25029.69
496.38	24746.48
496.55	24994.58
496.73	25378.43
496.91	25186.50
497.09	25797.38
497.26	25560.99
497.44	25385.45
497.62	25415.88
497.79	25986.97
497.97	25558.65
498.14	26010.37
498.32	26340.39
498.50	25947.18
498.67	26008.03
498.85	26515.93
499.03	26813.18
499.20	26682.11
499.38	26518.27
499.56	26558.06
499.73	26768.71
499.91	27023.83
500.08	26979.36
500.26	26548.70
500.44	26754.66
500.61	27087.02
500.79	26827.22
500.97	27262.56
501.14	27047.23
501.32	27569.17
501.49	27475.55
501.67	27550.45
501.84	27613.64
502.02	27555.13
502.20	27803.22
502.37	28465.60
502.55	28166.01
502.72	28435.17
502.90	28423.47
503.07	28386.02
503.25	28683.27
503.43	28486.66
503.60	28643.48
503.78	28559.22
503.95	28357.93
504.13	28776.89
504.30	29027.32
504.48	28788.59
504.65	29125.63
504.83	29500.11
505.01	29600.76
505.18	29530.54
505.36	30099.29
505.53	29958.86
505.71	30106.31
505.88	29905.02
506.06	30125.04
506.23	29921.41
506.41	30094.61
506.58	30490.16
506.76	30092.27
506.93	30532.29
507.11	30244.40
507.28	30675.06
507.46	30433.99
507.63	30342.70
507.81	30607.19
507.98	30382.49
508.16	30703.15
508.33	31328.07
508.50	31281.26
508.68	31056.57
508.85	31288.28
509.03	31150.19
509.20	32013.85
509.38	31417.01
509.55	31505.95
509.73	31784.48
509.90	31803.20
510.08	31321.05
510.25	31908.52
510.42	32156.62
510.60	32402.38
510.77	32081.72
510.95	32486.64
511.12	32390.67
511.30	32381.31
511.47	32786.22
511.64	33046.02
511.82	33057.73
511.99	32865.80
512.17	32723.03
512.34	32697.28
512.51	32910.27
512.69	33462.64
512.86	33024.96
513.04	33329.23
513.21	33244.97
513.38	33242.63
513.56	33354.97
513.73	32683.24
513.90	33710.74
514.08	33666.27
514.25	33413.49
514.43	33366.68
514.60	33722.44
514.77	33961.17
514.95	33958.83
515.12	34356.72
515.29	34113.31
515.47	34223.31
515.64	34948.88
515.81	34293.53
515.99	34300.55
516.16	34031.39
516.33	33982.24
516.51	33790.31
516.68	33692.01
516.85	33631.16
517.03	34038.41
517.20	34031.39
517.37	34888.03
517.54	35124.42
517.72	34724.19
517.89	34244.38
518.06	34445.66
518.24	34747.59
518.41	34518.22
518.58	34574.39
518.75	34686.74
518.93	35047.18
519.10	35084.63
519.27	35658.06
519.45	35136.12
519.62	35735.30
519.79	35739.98
519.96	35515.29
520.14	36070.00
520.31	35625.29
520.48	35826.58
520.65	36156.60
520.83	35938.93
521.00	36683.22
521.17	36238.51
521.34	36641.09
521.52	36343.84
521.69	36608.32
521.86	36912.59
522.03	36694.92
522.20	36657.47
522.38	36495.97
522.55	36781.52
522.72	36655.13
522.89	36442.14
523.07	36952.38
523.24	37420.48
523.41	37453.25
523.58	37017.91
523.75	37993.92
523.92	37769.22
524.10	37687.31
524.27	37607.73
524.44	37647.52
524.61	37834.76
524.78	37975.19
524.96	37919.02
525.13	37727.10
525.30	38426.92
525.47	38628.20
525.64	37635.81
525.81	38227.97
525.98	37846.46
526.16	37710.71
526.33	37790.29
526.50	38429.26
526.67	37869.87
526.84	37694.33
527.01	37975.19
527.18	38029.02
527.36	38541.60
527.53	38754.59
527.70	38567.35
527.87	38396.49
528.04	38623.52
528.21	38712.46
528.38	39051.84
528.55	39651.02
528.72	39845.28
528.89	39342.06
529.07	38766.29
529.24	39229.72
529.41	39384.19
529.58	39526.97
529.75	39115.03
529.92	39503.56
530.09	39356.11
530.26	39267.17
530.43	39896.77
530.60	39594.84
530.77	39871.03
530.94	39988.05
531.11	40297.00
531.28	39550.37
531.46	40074.65
531.63	40140.19
531.80	39931.88
531.97	39606.55
532.14	39959.97
532.31	39906.13
532.48	39693.15
532.65	40147.21
532.82	39997.41
532.99	39992.73
533.16	40079.33
533.33	40432.75
533.50	40992.14
533.67	40648.08
533.84	40552.12
534.01	40587.23
534.18	40449.14
534.35	40641.06
534.52	40318.07
534.69	40877.46
534.86	41177.04
535.03	40755.75
535.20	41249.60
535.37	41439.18
535.54	41347.90
535.71	40957.03
535.88	41258.96
536.05	41104.49
536.22	41048.32
536.38	41478.97
536.55	41752.82
536.72	41333.86
536.89	41010.87
537.06	41331.52
537.23	41687.28
537.40	41556.21
537.57	41338.54
537.74	41743.45
537.91	41776.22
538.08	41443.87
538.25	41813.67
538.42	41645.15
538.59	42043.04
538.75	41188.75
538.92	41804.31
539.09	41628.77
539.26	41830.05
539.43	42092.19
539.60	41773.88
539.77	41642.81
539.94	41881.55
540.11	41837.08
540.28	42005.59
540.44	41825.37
540.61	41965.81
540.78	41904.95
540.95	41998.57
541.12	42234.97
541.29	42429.23
541.46	42237.31
541.62	42703.07
541.79	42515.83
541.96	42499.45
542.13	42642.22
542.30	42087.51
542.47	42569.66
542.63	42557.96
542.80	42536.90
542.97	42946.49
543.14	42979.26
543.31	42976.92
543.48	43093.94
543.64	43473.11
543.81	43250.76
543.98	43510.56
544.15	43423.96
544.32	43208.63
544.48	43636.95
544.65	43381.83
544.82	43473.11
544.99	43096.28
545.16	43566.73
545.32	43587.80
545.49	43519.92
545.66	44219.74
545.83	43765.68
546.00	44051.22
546.16	43805.47
546.33	43810.15
546.50	43217.99
546.67	43824.19
546.83	43615.88
547.00	43650.99
547.17	43302.25
547.34	43517.58
547.50	43587.80
547.67	44273.57
547.84	44156.55
548.00	44112.08
548.17	44163.57
548.34	44161.23
548.51	44086.33
548.67	44493.58
548.84	44266.55
549.01	44074.63
549.18	44299.32
549.34	44392.94
549.51	44470.18
549.68	44699.55
549.84	44362.51
550.01	44928.92
550.18	44350.81
550.34	44772.11
550.51	44582.52
550.68	44395.28
550.84	43899.09
551.01	44631.68
551.18	44648.06
551.34	44634.02
551.51	44856.37
551.68	44989.78
551.84	44666.78
552.01	44622.31
552.18	44662.10
552.34	44835.30
552.51	44910.20
552.68	44582.52
552.84	44474.86
553.01	45006.16
553.18	45104.46
553.34	44858.71
553.51	44858.71
553.67	45261.28
553.84	45059.99
554.01	45064.67
554.17	45158.30
554.34	45600.66
554.51	45324.47
554.67	45446.18
554.84	45172.34
555.00	45265.96
555.17	45099.78
555.33	44924.24
555.50	45460.23
555.67	45216.81
555.83	45741.09
556.00	45366.60
556.16	45647.47
556.33	45249.58
556.50	45418.10
556.66	45907.27
556.83	45244.90
556.99	45675.55
557.16	45869.82
557.32	45591.30
557.49	45949.40
557.65	45118.51
557.82	45904.93
557.98	45677.90
558.15	45485.97
558.32	45783.22
558.48	45483.63
558.65	45780.88
558.81	45605.34
558.98	45425.12
559.14	45256.60
559.31	45315.11
559.47	45771.52
559.64	46012.59
559.80	45734.07
559.97	45645.13
560.13	45668.53
560.30	45631.08
560.46	45717.68
560.63	45949.40
560.79	46237.28
560.96	46033.66
561.12	46021.95
561.29	45780.88
561.45	46054.72
561.61	46000.89
561.78	45722.37
561.94	45603.00
562.11	45808.96
562.27	46169.41
562.44	45724.71
562.60	46131.96
562.77	46307.50
562.93	45727.05
563.10	46354.31
563.26	45741.09
563.42	46218.56
563.59	45811.31
563.75	46136.64
563.92	46288.77
564.08	45879.18
564.24	46160.05
564.41	46454.95
564.57	45586.61
564.74	45818.33
564.90	46028.98
565.07	45977.48
565.23	46014.93
565.39	45916.63
565.56	46122.60
565.72	46066.42
565.88	46000.89
566.05	46190.47
566.21	46209.20
566.38	46033.66
566.54	46529.85
566.70	46567.30
566.87	46770.93
567.03	46141.32
567.19	46904.34
567.36	47054.13
567.52	46234.94
567.68	46595.38
567.85	46274.73
568.01	46122.60
568.17	46321.54
568.34	46312.18
568.50	46436.23
568.66	46272.39
568.83	46241.96
568.99	45839.39
569.15	46616.45
569.32	46209.20
569.48	45998.55
569.64	46541.55
569.81	46232.60
569.97	46415.16
570.13	46270.05
570.30	46082.81
570.46	45586.61
570.62	45839.39
570.78	46160.05
570.95	46216.22
571.11	46476.02
571.27	46389.42
571.43	46443.25
571.60	46735.82
571.76	46370.69
571.92	46279.41
572.09	46429.21
572.25	46602.41
572.41	46604.75
572.57	46609.43
572.74	46642.20
572.90	46749.86
573.06	46265.37
573.22	46501.76
573.38	46333.24
573.55	46141.32
573.71	46518.15
573.87	46387.08
574.03	46445.59
574.20	46469.00
574.36	46237.28
574.52	46277.07
574.68	46316.86
574.84	46469.00
575.01	45991.53
575.17	46227.92
575.33	46356.65
575.49	46384.74
575.65	46401.12
575.82	46440.91
575.98	45998.55
576.14	46784.97
576.30	46403.46
576.46	46588.36
576.62	46525.17
576.79	46227.92
576.95	45827.69
577.11	46103.87
577.27	46181.11
577.43	46829.44
577.59	46036.00
577.75	46251.33
577.92	45837.05
578.08	46106.21
578.24	45888.54
578.40	46192.81
578.56	46394.10
578.72	45867.48
578.88	46609.43
579.04	46511.13
579.21	46564.96
579.37	46176.43
579.53	46829.44
579.69	46057.06
579.85	46419.84
580.01	46705.39
580.17	46295.80
580.33	46581.34
580.49	46504.10
580.65	46686.67
580.82	46632.83
580.98	46571.98
581.14	46153.02
581.30	47210.95
581.46	46696.03
581.62	46656.24
581.78	46862.21
581.94	47089.24
582.10	46632.83
582.26	46368.35
582.42	47173.50
582.58	46693.69
582.74	46541.55
582.90	47089.24
583.06	46864.55
583.22	46642.20
583.38	46906.68
583.54	46923.06
583.70	46656.24
583.86	46611.77
584.02	46452.61
584.18	46733.48
584.34	46307.50
584.50	46684.33
584.66	46569.64
584.82	46064.08
584.98	46780.29
585.14	46637.51
585.30	46569.64
585.46	46557.94
585.62	46223.24
585.78	46157.70
585.94	46333.24
586.10	46260.69
586.26	46234.94
586.42	46843.48
586.58	47147.75
586.74	46492.40
586.90	46623.47
587.06	46658.58
587.22	46373.03
587.38	46761.56
587.54	46527.51
587.70	46953.49
587.86	46618.79
588.02	46356.65
588.18	46539.21
588.34	46366.01
588.49	45958.76
588.65	45778.54
588.81	46050.04
588.97	46363.67
589.13	46169.41
589.29	45886.20
589.45	46314.52
589.61	46141.32
589.77	46649.22
589.93	46574.32
590.08	46820.08
590.24	46759.22
590.40	46644.54
590.56	46885.61
590.72	46705.39
590.88	46532.19
591.04	46761.56
591.20	47239.03
591.35	47000.30
591.51	46953.49
591.67	46667.94
591.83	46504.10
591.99	46602.41
592.15	47049.45
592.31	46876.25
592.46	46993.28
592.62	46660.92
592.78	47033.07
592.94	47107.96
593.10	46564.96
593.26	46733.48
593.41	46581.34
593.57	46588.36
593.73	46398.78
593.89	46677.30
594.05	46658.58
594.20	46904.34
594.36	46712.41
594.52	46415.16
594.68	46653.90
594.84	46518.15
594.99	46969.87
595.15	46799.01
595.31	46618.79
595.47	46796.67
595.62	46948.81
595.78	46745.18
595.94	46813.05
596.10	47171.16
596.25	47327.97
596.41	46857.52
596.57	46349.63
596.73	46850.50
596.88	46382.40
597.04	46513.47
597.20	46689.01
597.36	46761.56
597.51	46693.69
597.67	46403.46
597.83	46712.41
597.99	47145.41
598.14	46548.57
598.30	46923.06
598.46	46726.46
598.61	47110.30
598.77	45881.52
598.93	46939.44
599.09	46967.53
599.24	47372.44
599.40	46939.44
599.56	46784.97
599.71	46801.35
599.87	46707.73
600.03	46471.34
600.18	46780.29
600.34	46380.06
600.50	46899.65
600.65	46316.86
600.81	46777.95
600.97	46983.91
601.12	46979.23
601.28	46691.35
601.44	46824.76
601.59	46754.54
601.75	45907.27
601.91	46534.53
602.06	46822.42
602.22	46714.75
602.37	46667.94
602.53	46607.09
602.69	46733.48
602.84	46330.90
603.00	46595.38
603.16	46560.28
603.31	46499.42
603.47	46700.71
603.62	46930.08
603.78	46696.03
603.94	46707.73
604.09	46960.51
604.25	46911.36
604.40	46632.83
604.56	46630.49
604.71	46574.32
604.87	46380.06
605.03	46469.00
605.18	46511.13
605.34	46138.98
605.49	46220.90
605.65	46274.73
605.80	46581.34
605.96	46869.23
606.12	46333.24
606.27	46836.46
606.43	46403.46
606.58	46375.37
606.74	46260.69
606.89	46902.00
607.05	46377.72
607.20	46768.58
607.36	46267.71
607.51	46604.75
607.67	46677.30
607.82	46415.16
607.98	46614.11
608.13	46349.63
608.29	46089.83
608.44	46319.20
608.60	46073.45
608.75	46253.67
608.91	45933.01
609.06	46295.80
609.22	46061.74
609.37	46052.38
609.53	46309.84
609.68	46415.16
609.84	45961.10
609.99	46052.38
610.15	45495.33
610.30	45631.08
610.46	45507.04
610.61	46061.74
610.76	45869.82
610.92	46401.12
611.07	46342.61
611.23	46284.09
611.38	45930.67
611.54	46080.47
611.69	45944.72
611.84	45787.90
612.00	45595.98
612.15	45773.86
612.31	45970.46
612.46	46157.70
612.62	46284.09
612.77	46033.66
612.92	45984.51
613.08	45521.08
613.23	45633.42
613.39	45492.99
613.54	45411.07
613.69	45607.68
613.85	45361.92
614.00	45738.75
614.15	46124.94
614.31	45565.55
614.46	46150.68
614.62	45741.09
614.77	45951.74
614.92	45867.48
615.08	45605.34
615.23	45310.43
615.38	45624.06
615.54	45008.50
615.69	45418.10
615.84	44914.88
616.00	45766.84
616.15	45118.51
616.30	45038.93
616.46	45162.98
616.61	44816.58
616.76	45074.04
616.92	44856.37
617.07	45209.79
617.22	44725.30
617.37	44851.69
617.53	45593.64
617.68	45542.14
617.83	45333.84
617.99	45081.06
618.14	45153.62
618.29	44926.58
618.45	44790.83
618.60	44868.07
618.75	45104.46
618.90	44524.01
619.06	44928.92
619.21	44847.00
619.36	45109.14
619.51	44474.86
619.67	44896.16
619.82	45371.28
619.97	45198.09
620.12	44603.59
620.28	44484.22
620.43	44800.19
620.58	44701.89
620.73	44605.93
620.89	44390.60
621.04	44851.69
621.19	44526.35
621.34	44729.98
621.49	44472.52
621.65	44421.03
621.80	44643.38
621.95	44624.65
622.10	44301.66
622.25	44395.28
622.41	44201.02
622.56	44168.25
622.71	44016.11
622.86	44488.90
623.01	44147.18
623.16	43756.32
623.32	44060.58
623.47	44013.77
623.62	44105.06
623.77	44004.41
623.92	44287.62
624.07	44081.65
624.23	43665.03
624.38	43791.42
624.53	43887.39
624.68	44098.03
624.83	44261.87
624.98	43587.80
625.13	43117.35
625.29	43971.64
625.44	43344.38
625.59	43508.22
625.74	43487.15
625.89	43012.02
626.04	43428.64
626.19	43430.98
626.34	43456.73
626.49	43636.95
626.65	43634.61
626.80	43569.07
626.95	43611.20
627.10	43487.15
627.25	43084.58
627.40	42674.99
627.55	43054.15
627.70	42384.76
627.85	43332.68
628.00	43138.41
628.15	43147.78
628.30	42869.25
628.45	43126.71
628.60	43150.12
628.76	43313.95
628.91	43061.18
629.06	42572.00
629.21	42501.79
629.36	42672.65
629.51	42775.63
629.66	42340.29
629.81	42454.98
629.96	42780.31
630.11	42342.63
630.26	42962.87
630.41	42974.58
630.56	42597.75
630.71	42277.10
630.86	42562.64
631.01	42403.49
631.16	42572.00
631.31	42202.20
631.46	42148.37
631.61	42375.40
631.76	42286.46
631.91	42527.53
632.06	42707.76
632.21	42284.12
632.36	42628.18
632.51	42010.28
632.66	42462.00
632.81	42328.59
632.96	41900.27
633.10	42124.96
633.25	42534.56
633.40	42450.30
633.55	42134.32
633.70	42246.67
633.85	42429.23
634.00	41947.08
634.15	42583.71
634.30	42291.14
634.45	41490.68
634.60	41752.82
634.75	41680.26
634.90	42057.09
635.05	41736.43
635.19	41565.57
635.34	42190.50
635.49	41486.00
635.64	41490.68
635.79	41703.67
635.94	41563.23
636.09	41614.72
636.24	41570.25
636.39	41631.11
636.53	41324.50
636.68	41750.48
636.83	41830.05
636.98	41565.57
637.13	41528.13
637.28	41961.12
637.43	41579.62
637.57	41649.83
637.72	41577.28
637.87	41301.09
638.02	41434.50
638.17	41666.22
638.32	41668.56
638.46	41432.16
638.61	41144.28
638.76	41177.04
638.91	40945.33
639.06	41235.56
639.20	41193.43
639.35	41476.63
639.50	41188.75
639.65	41146.62
639.80	41397.06
639.94	40919.59
640.09	40996.82
640.24	41186.41
640.39	40477.22
640.54	40486.59
640.68	40739.36
640.83	40973.42
640.98	40746.39
641.13	40381.26
641.27	40856.39
641.42	40470.20
641.57	40397.65
641.72	40163.59
641.86	40266.58
642.01	40154.23
642.16	40425.73
642.31	40334.45
642.45	40346.15
642.60	40554.46
642.75	40378.92
642.90	40353.18
643.04	40666.81
643.19	40158.91
643.34	40582.55
643.48	39966.99
643.63	40065.29
643.78	40095.72
643.93	40563.82
644.07	40364.88
644.22	40137.85
644.37	40332.11
644.51	40165.93
644.66	39908.47
644.81	40224.45
644.95	40116.78
645.10	39945.92
645.25	40442.12
645.39	40322.75
645.54	39959.97
645.69	39880.39
645.83	39842.94
645.98	39838.26
646.13	39545.69
646.27	40191.68
646.42	39515.26
646.57	39548.03
646.71	39276.53
646.86	39730.59
647.00	39735.27
647.15	39571.44
647.30	39653.36
647.44	39365.47
647.59	39679.10
647.74	39143.12
647.88	39480.16
648.03	39894.43
648.17	39620.59
648.32	39255.46
648.47	39103.33
648.61	38815.44
648.76	39758.68
648.90	39213.34
649.05	39400.58
649.20	38836.51
649.34	39058.86
649.49	38993.32
649.63	39171.21
649.78	39234.40
649.92	39044.82
650.07	39189.93
650.21	39115.03
650.36	38925.45
650.51	39311.64
650.65	39849.96
650.80	39505.90
650.94	39519.95
651.09	39014.39
651.23	38878.64
651.38	39339.72
651.52	38426.92
651.67	38911.41
651.81	38962.90
651.96	38944.17
652.10	38869.28
652.25	38775.66
652.39	38892.68
652.54	38663.31
652.68	38845.87
652.83	38895.02
652.97	38909.07
653.12	38705.44
653.26	38778.00
653.41	38288.82
653.55	38005.62
653.70	38607.14
653.84	38880.98
653.99	38342.66
654.13	38120.31
654.27	38501.81
654.42	38403.51
654.56	37989.24
654.71	38742.89
654.85	38452.66
655.00	38499.47
655.14	37691.99
655.29	37811.35
655.43	37717.73
655.57	37933.06
655.72	37675.60
655.86	37450.91
656.01	37731.78
656.15	37635.81
656.30	37579.64
656.44	37560.92
656.58	37912.00
656.73	37570.28
656.87	37834.76
657.01	37551.56
657.16	37310.48
657.30	37263.67
657.45	37074.09
657.59	37687.31
657.73	37364.31
657.88	37502.40
658.02	38017.32
658.16	38059.45
658.31	37432.19
658.45	38185.84
658.60	37598.37
658.74	37755.18
658.88	37359.63
659.03	37427.51
659.17	37429.85
659.31	37134.94
659.46	37060.04
659.60	37001.53
659.74	37212.18
659.89	36828.33
660.03	36809.61
660.17	36999.19
660.32	37165.37
660.46	37366.65
660.60	37024.93
660.74	36989.83
660.89	37069.40
661.03	36650.45
661.17	36594.28
661.32	36641.09
661.46	36615.34
661.60	36931.31
661.74	36327.45
661.89	36617.68
662.03	36767.48
662.17	36184.68
662.31	36414.05
662.46	36538.10
662.60	36381.29
662.74	36311.07
662.88	35849.99
663.03	36273.62
663.17	35604.23
663.31	35976.37
663.45	36290.01
663.60	36084.04
663.74	35651.04
663.88	35688.49
664.02	35456.78
664.17	35901.48
664.31	35466.14
664.45	35597.21
664.59	35821.90
664.73	35402.94
664.88	35676.79
665.02	35328.05
665.16	35325.71
665.30	35159.53
665.44	35407.62
665.59	35482.52
665.73	35077.61
665.87	35236.77
666.01	35000.37
666.15	34979.31
666.29	34843.56
666.44	35260.17
666.58	34944.20
666.72	34738.23
666.86	34813.13
667.00	34628.23
667.14	34309.91
667.28	34169.48
667.43	34728.87
667.57	34651.63
667.71	34714.83
667.85	34698.44
667.99	34473.75
668.13	34302.89
668.27	34408.22
668.41	34117.99
668.56	34518.22
668.70	34794.40
668.84	33970.54
668.98	33706.05
669.12	33205.18
669.26	33942.45
669.40	33460.30
669.54	33780.95
669.68	34064.16
669.82	33530.51
669.96	33631.16
670.10	33427.53
670.25	33301.14
670.39	33036.66
670.53	33350.29
670.67	33050.70
670.81	33319.87
670.95	33106.88
671.09	33095.18
671.23	33116.24
671.37	33060.07
671.51	32556.85
671.65	32631.75
671.79	32439.82
671.93	32683.24
672.07	32648.13
672.21	32577.92
672.35	32561.53
672.49	32556.85
672.63	32570.90
672.77	32739.41
672.91	32655.15
673.05	32437.48
673.19	32393.01
673.33	31714.26
673.47	31716.60
673.61	31976.40
673.75	31868.73
673.89	32137.90
674.03	31351.48
674.17	31768.09
674.31	31819.58
674.45	31583.19
674.59	31543.40
674.73	31840.65
674.87	31557.44
675.01	31758.73
675.15	30958.27
675.29	30806.13
675.43	30906.77
675.56	31131.47
675.70	31147.85
675.84	30478.46
675.98	30075.88
676.12	30731.23
676.26	30728.89
676.40	30698.47
676.54	30824.86
676.68	30738.26
676.82	30141.42
676.96	30663.36
677.10	30251.42
677.23	30206.95
677.37	29890.98
677.51	29603.10
677.65	29347.98
677.79	29411.17
677.93	29685.01
678.07	29298.83
678.21	29284.78
678.34	29216.91
678.48	29015.62
678.62	28678.58
678.76	28835.40
678.90	28463.25
679.04	28907.96
679.18	28606.03
679.31	28194.09
679.45	28346.23
679.59	28044.30
679.73	28467.94
679.87	28081.75
680.00	28552.20
680.14	27976.42
680.28	27906.21
680.42	28158.99
680.56	27948.34
680.70	27777.48
680.83	27885.14
680.97	27335.12
681.11	27615.98
681.25	27419.38
681.39	27484.91
681.52	27466.19
681.66	27594.92
681.80	27351.50
681.94	26986.38
682.07	26944.25
682.21	26888.07
682.35	26654.02
682.49	26892.76
682.62	26712.53
682.76	26242.09
682.90	26209.32
683.04	26328.69
683.17	26298.26
683.31	26129.74
683.45	26082.93
683.59	26132.08
683.72	25989.31
683.86	26005.69
684.00	26225.70
684.13	25811.43
684.27	25706.10
684.41	25717.81
684.55	25521.20
684.68	25212.25
684.82	25558.65
684.96	25532.90
685.09	25050.75
685.23	24467.96
685.37	24931.39
685.50	24849.47
685.64	25062.46
685.78	24390.72
685.91	24594.35
686.05	24563.92
686.19	24093.47
686.32	24180.07
686.46	23990.49
686.60	23534.09
686.73	23412.38
686.87	23365.57
687.01	23353.87
687.14	23049.60
687.28	23349.18
687.42	23164.28
687.55	23300.03
687.69	23213.43
687.82	23218.11
687.96	23524.72
688.10	22939.59
688.23	22759.37
688.37	22855.33
688.50	22628.30
688.64	22857.67
688.78	22415.31
688.91	22457.44
689.05	22576.81
689.18	22099.34
689.32	22113.38
689.46	22328.71
689.59	22363.82
689.73	22249.13
689.86	22071.25
690.00	21916.78
690.13	21975.29
690.27	21738.90
690.41	21678.04
690.54	21231.00
690.68	21376.11
690.81	21495.48
690.95	21357.39
691.08	21333.98
691.22	21373.77
691.35	21380.79
691.49	21219.30
691.62	21071.84
691.76	21092.91
691.89	20872.90
692.03	20837.79
692.16	20575.65
692.30	20599.05
692.43	20535.86
692.57	20332.23
692.70	20266.70
692.84	20255.00
692.97	19765.82
693.11	20437.56
693.24	19971.79
693.38	19679.22
693.51	19527.09
693.65	19969.45
693.78	19344.53
693.92	19501.34
694.05	19695.61
694.19	19440.49
694.32	19566.88
694.45	19166.65
694.59	19133.88
694.72	18874.08
694.86	19075.37
694.99	18981.74
695.13	19194.73
695.26	18876.42
695.39	18864.72
695.53	18993.45
695.66	18848.33
695.80	18902.17
695.93	18665.77
696.07	18424.70
696.20	18347.46
696.33	18466.83
696.47	18455.12
696.60	18104.04
696.73	17853.61
696.87	17980.00
697.00	17869.99
697.14	17940.21
697.27	17530.61
697.40	17823.18
697.54	17439.33
697.67	17413.59
697.80	17376.14
697.94	17158.47
698.07	16982.93
698.21	17390.18
698.34	17188.89
698.47	16989.95
698.61	16695.04
698.74	16877.60
698.87	16898.67
699.01	16709.08
699.14	16702.06
699.27	16313.53
699.40	16521.84
699.54	16498.44
699.67	16287.79
699.80	16308.85
699.94	16276.09
700.07	16168.42
700.20	16238.64
700.34	16018.63
700.47	15985.86
700.60	16077.14
700.73	15990.54
700.87	15779.89
701.00	15665.21
701.13	15690.95
701.26	15414.77
701.40	15470.94
701.53	15587.97
701.66	15482.64
701.79	15384.34
701.93	15276.68
702.06	15073.05
702.19	14974.75
702.32	14941.98
702.46	14939.64
702.59	14628.35
702.72	14949.00
702.85	15007.52
702.99	14909.21
703.12	14738.35
703.25	14450.47
703.38	14785.16
703.51	14586.22
703.65	14555.79
703.78	14548.77
703.91	13980.02
704.04	13860.65
704.17	13989.38
704.31	14333.44
704.44	14066.62
704.57	14291.31
704.70	13902.78
704.83	13652.34
704.96	13841.93
705.10	13982.36
705.23	13937.89
>>>>>End Processed Spectral Data<<<<<
