SpectraSuite Data File
++++++++++++++++++++++++++++++++++++
Date: Fri Oct 25 11:34:07 EDT 2013
User: price-jones
Dark Spectrum Present: No
Reference Spectrum Present: No
Number of Sampled Component Spectra: 1
Spectrometers: USB2+H05261
Integration Time (usec): 100000 (USB2+H05261)
Spectra Averaged: 1 (USB2+H05261)
Boxcar Smoothing: 0 (USB2+H05261)
Correct for Electrical Dark: No (USB2+H05261)
Strobe/Lamp Enabled: No (USB2+H05261)
Correct for Detector Non-linearity: No (USB2+H05261)
Correct for Stray Light: No (USB2+H05261)
Number of Pixels in Processed Spectrum: 2048
>>>>>Begin Processed Spectral Data<<<<<
365.73	315.97
365.92	315.97
366.12	315.97
366.32	198.95
366.52	177.88
366.72	166.18
366.91	177.88
367.11	154.48
367.31	177.88
367.51	175.54
367.70	121.71
367.90	184.90
368.10	124.05
368.30	203.63
368.49	177.88
368.69	184.90
368.89	215.33
369.09	222.35
369.28	220.01
369.48	231.71
369.68	208.31
369.87	224.69
370.07	229.37
370.27	234.05
370.47	346.40
370.66	440.02
370.86	454.06
371.06	535.98
371.25	601.52
371.45	575.77
371.65	568.75
371.84	601.52
372.04	589.82
372.24	514.92
372.44	554.71
372.63	547.69
372.83	589.82
373.03	653.01
373.22	631.94
373.42	610.88
373.62	624.92
373.81	751.31
374.01	653.01
374.21	566.41
374.40	667.05
374.60	543.00
374.79	624.92
374.99	601.52
375.19	662.37
375.38	655.35
375.58	634.29
375.78	674.07
375.97	692.80
376.17	664.71
376.37	678.76
376.56	638.97
376.76	624.92
376.95	664.71
377.15	695.14
377.35	655.35
377.54	676.41
377.74	720.88
377.93	723.23
378.13	674.07
378.33	779.40
378.52	730.25
378.72	744.29
378.91	674.07
379.11	669.39
379.31	690.46
379.50	636.63
379.70	704.50
379.89	751.31
380.09	753.65
380.28	678.76
380.48	697.48
380.68	755.99
380.87	711.52
381.07	669.39
381.26	730.25
381.46	781.74
381.65	774.72
381.85	730.25
382.04	821.53
382.24	814.51
382.43	844.93
382.63	840.25
382.83	805.14
383.02	816.85
383.22	777.06
383.41	802.80
383.61	821.53
383.80	774.72
384.00	760.67
384.19	770.04
384.39	847.27
384.58	786.42
384.78	753.65
384.97	823.87
385.17	905.79
385.36	753.65
385.56	816.85
385.75	816.85
385.95	870.68
386.14	861.32
386.34	802.80
386.53	821.53
386.72	837.91
386.92	854.30
387.11	873.02
387.31	835.57
387.50	854.30
387.70	802.80
387.89	844.93
388.09	819.19
388.28	809.83
388.48	915.15
388.67	940.90
388.86	823.87
389.06	868.34
389.25	933.87
389.45	912.81
389.64	983.02
389.84	1027.50
390.03	990.05
390.22	1011.11
390.42	997.07
390.61	837.91
390.81	954.94
391.00	915.15
391.19	1083.67
391.39	978.34
391.58	1076.65
391.78	980.68
391.97	1041.54
392.16	1020.47
392.36	1062.60
392.55	1043.88
392.75	1027.50
392.94	987.71
393.13	1015.79
393.33	978.34
393.52	1022.81
393.71	1132.82
393.91	1057.92
394.10	1078.99
394.29	997.07
394.49	1074.31
394.68	1097.71
394.88	1135.16
395.07	1067.28
395.26	1095.37
395.46	1048.56
395.65	1097.71
395.84	1135.16
396.04	1324.74
396.23	1238.14
396.42	1205.38
396.62	1135.16
396.81	1123.46
397.00	1179.63
397.19	1247.51
397.39	1170.27
397.58	1217.08
397.77	1273.25
397.97	1228.78
398.16	1247.51
398.35	1263.89
398.55	1317.72
398.74	1291.98
398.93	1359.85
399.12	1247.51
399.32	1275.59
399.51	1404.32
399.70	1320.06
399.90	1322.40
400.09	1378.58
400.28	1390.28
400.47	1387.94
400.67	1390.28
400.86	1273.25
401.05	1371.55
401.24	1390.28
401.44	1348.15
401.63	1439.43
401.82	1355.17
402.01	1451.13
402.21	1472.20
402.40	1427.73
402.59	1411.34
402.78	1544.75
402.97	1423.05
403.17	1486.24
403.36	1460.49
403.55	1561.14
403.74	1544.75
403.93	1526.03
404.13	1612.63
404.32	1589.22
404.51	1554.12
404.70	1568.16
404.89	1540.07
405.09	1652.42
405.28	1638.38
405.47	1621.99
405.66	1668.80
405.85	1652.42
406.05	1659.44
406.24	1654.76
406.43	1666.46
406.62	1713.27
406.81	1790.51
407.00	1792.85
407.20	1804.55
407.39	1823.28
407.58	1837.32
407.77	1916.90
407.96	1849.02
408.15	1853.70
408.34	1720.29
408.54	1968.39
408.73	1944.99
408.92	1842.00
409.11	1933.28
409.30	1982.43
409.49	1926.26
409.68	1987.11
409.87	1975.41
410.07	1954.35
410.26	1935.62
410.45	2099.46
410.64	1987.11
410.83	2038.61
411.02	2052.65
411.21	2120.53
411.40	2043.29
411.59	2195.42
411.78	2134.57
411.98	2146.27
412.17	2200.10
412.36	2204.78
412.55	2221.17
412.74	2445.86
412.93	2324.15
413.12	2211.81
413.31	2377.98
413.50	2342.88
413.69	2326.49
413.88	2464.58
414.07	2464.58
414.26	2356.92
414.45	2560.55
414.64	2473.95
414.83	2539.48
415.02	2644.81
415.22	2572.25
415.41	2471.61
415.60	2579.27
415.79	2637.78
415.98	2726.72
416.17	2722.04
416.36	2747.79
416.55	2696.30
416.74	2864.82
416.93	2700.98
417.12	2803.96
417.31	2780.56
417.50	2855.45
417.69	2871.84
417.88	2850.77
418.07	2883.54
418.26	2878.86
418.45	2925.67
418.64	3063.76
418.83	2949.08
419.02	3007.59
419.21	3049.72
419.39	3007.59
419.58	3094.19
419.77	2878.86
419.96	3026.31
420.15	3061.42
420.34	2937.37
420.53	3185.47
420.72	3136.32
420.91	3190.15
421.10	3220.58
421.29	3201.85
421.48	3248.66
421.67	3227.60
421.86	3241.64
422.05	3241.64
422.24	3321.22
422.43	3211.22
422.61	3428.88
422.80	3269.73
422.99	3290.79
423.18	3297.81
423.37	3396.12
423.56	3417.18
423.75	3337.60
423.94	3428.88
424.13	3236.96
424.32	3220.58
424.50	3332.92
424.69	3358.67
424.88	3412.50
425.07	3349.31
425.26	3442.93
425.45	3351.65
425.64	3368.03
425.83	3393.78
426.01	3536.55
426.20	3480.38
426.39	3431.23
426.58	3407.82
426.77	3307.18
426.96	3513.14
427.15	3356.33
427.33	3419.52
427.52	3384.41
427.71	3550.59
427.90	3449.95
428.09	3555.27
428.28	3681.66
428.46	3667.62
428.65	3672.30
428.84	3665.28
429.03	3667.62
429.22	3613.79
429.40	3723.79
429.59	3618.47
429.78	3581.02
429.97	3534.21
430.16	3786.99
430.34	3815.07
430.53	3758.90
430.72	3817.41
430.91	3847.84
431.10	3756.56
431.28	3761.24
431.47	3894.65
431.66	3808.05
431.85	4086.58
432.03	3995.29
432.22	3946.14
432.41	3880.61
432.60	3967.21
432.79	3976.57
432.97	3962.53
433.16	4135.73
433.35	4100.62
433.54	4028.06
433.72	4119.34
433.91	4156.79
434.10	4093.60
434.28	4081.89
434.47	4077.21
434.66	4224.67
434.85	4208.28
435.03	4124.02
435.22	4287.86
435.41	4428.29
435.59	4369.78
435.78	4273.82
435.97	4184.88
436.16	4280.84
436.34	4367.44
436.53	4458.72
436.72	4329.99
436.90	4334.67
437.09	4479.79
437.28	4454.04
437.46	4496.17
437.65	4538.30
437.84	4559.36
438.02	4470.42
438.21	4535.96
438.40	4447.02
438.58	4760.65
438.77	4580.43
438.96	4643.62
439.14	4704.48
439.33	4645.96
439.52	4786.40
439.70	4741.93
439.89	4840.23
440.08	4840.23
440.26	4936.19
440.45	4915.12
440.63	5043.85
440.82	5160.88
441.01	5046.20
441.19	5259.18
441.38	5041.51
441.57	5195.99
441.75	5221.74
441.94	5336.42
442.12	5226.42
442.31	5249.82
442.50	5359.83
442.68	5336.42
442.87	5160.88
443.05	5320.04
443.24	5575.16
443.43	5355.15
443.61	5518.98
443.80	5486.22
443.98	5469.83
444.17	5184.29
444.35	5490.90
444.54	5362.17
444.73	5614.95
444.91	5390.25
445.10	5575.16
445.28	5561.11
445.47	5549.41
445.65	5575.16
445.84	5643.03
446.02	5661.76
446.21	5743.67
446.39	5423.02
446.58	5589.20
446.77	5713.25
446.95	5636.01
447.14	5640.69
447.32	5589.20
447.51	5537.71
447.69	5621.97
447.88	5680.48
448.06	5558.77
448.25	5722.61
448.43	5823.25
448.62	5738.99
448.80	5764.74
448.99	5685.16
449.17	5849.00
449.36	5708.57
449.54	5811.55
449.73	5956.66
449.91	6148.59
450.10	6005.81
450.28	5961.34
450.46	5996.45
450.65	6001.13
450.83	5933.26
451.02	6111.14
451.20	6113.48
451.39	6085.39
451.57	5996.45
451.76	6003.47
451.94	6171.99
452.13	6164.97
452.31	6214.12
452.49	6087.73
452.68	6274.98
452.86	6176.67
453.05	6249.23
453.23	6209.44
453.42	6162.63
453.60	6157.95
453.78	6223.48
453.97	6155.61
454.15	6389.66
454.34	6253.91
454.52	6413.07
454.70	6394.34
454.89	6612.01
455.07	6452.86
455.26	6417.75
455.44	6537.12
455.62	6389.66
455.81	6583.93
455.99	6595.63
456.17	6574.56
456.36	6504.35
456.54	6855.43
456.73	6649.46
456.91	6977.14
457.09	6796.92
457.28	6855.43
457.46	6740.74
457.64	7045.01
457.83	7087.14
458.01	6991.18
458.19	7056.72
458.38	6923.30
458.56	7122.25
458.74	6946.71
458.93	7063.74
459.11	7166.72
459.29	7199.49
459.48	7192.47
459.66	7063.74
459.84	7148.00
460.03	7302.47
460.21	7351.62
460.39	7419.50
460.57	7384.39
460.76	7227.57
460.94	7215.87
461.12	7398.43
461.31	7363.33
461.49	7440.56
461.67	7272.04
461.85	7386.73
462.04	7239.28
462.22	7936.76
462.40	7499.08
462.59	7639.51
462.77	7611.42
462.95	7510.78
463.13	7618.44
463.32	7557.59
463.50	7761.22
463.68	7784.62
463.86	7747.17
464.05	7506.10
464.23	7719.09
464.41	8018.68
464.59	7672.28
464.78	8091.23
464.96	8035.06
465.14	7878.24
465.32	8112.30
465.50	7974.21
465.69	7990.59
465.87	7768.24
466.05	7885.26
466.23	8063.15
466.41	8170.81
466.60	8191.88
466.78	7936.76
466.96	7805.69
467.14	8100.59
467.32	8175.49
467.51	8196.56
467.69	7985.91
467.87	8248.05
468.05	8203.58
468.23	8098.25
468.41	8133.36
468.60	8226.98
468.78	8369.76
468.96	8243.37
469.14	8454.02
469.32	8519.55
469.50	8292.52
469.69	8437.63
469.87	8585.08
470.05	8535.93
470.23	8603.81
470.41	8482.10
470.59	8685.73
470.77	8617.85
470.95	8582.74
471.14	8517.21
471.32	8636.58
471.50	8940.85
471.68	8858.93
471.86	8781.69
472.04	8861.27
472.22	9242.78
472.40	8833.18
472.58	9001.70
472.77	9214.69
472.95	9067.24
473.13	9465.13
473.31	9249.80
473.49	9235.75
473.67	9376.19
473.85	9495.55
474.03	9338.74
474.21	9399.59
474.39	9572.79
474.57	9528.32
474.75	9799.82
474.93	9804.50
475.12	9832.59
475.30	10047.92
475.48	9715.56
475.66	9951.96
475.84	9909.83
476.02	9884.08
476.20	9973.02
476.38	10197.71
476.56	10394.32
476.74	10270.27
476.92	10132.18
477.10	10167.29
477.28	10520.71
477.46	10429.43
477.64	10672.84
477.82	10532.41
478.00	11023.92
478.18	10998.18
478.36	10963.07
478.54	11234.57
478.72	11229.89
478.90	11332.87
479.08	11232.23
479.26	11365.64
479.44	11396.07
479.62	11634.80
479.80	11428.84
479.98	11714.38
480.16	11999.93
480.34	11772.89
480.52	12084.19
480.70	12262.07
480.88	11976.52
481.06	11833.75
481.24	12308.88
481.41	12236.32
481.59	12463.35
481.77	12662.30
481.95	12362.71
482.13	12741.88
482.31	12779.32
482.49	13078.91
482.67	12915.08
482.85	13050.83
483.03	13116.36
483.21	13465.10
483.39	13415.95
483.57	13525.96
483.74	13659.37
483.92	13823.20
484.10	13523.62
484.28	13982.36
484.46	14300.67
484.64	14326.42
484.82	14094.71
485.00	14384.93
485.18	14539.41
485.35	14752.40
485.53	14691.54
485.71	14736.01
485.89	14986.45
486.07	15101.14
486.25	15070.71
486.43	15192.42
486.61	15339.87
486.78	15363.28
486.96	15676.91
487.14	15578.61
487.32	15590.31
487.50	16098.20
487.68	16276.09
487.85	16259.70
488.03	16528.86
488.21	16542.91
488.39	16641.21
488.57	16875.26
488.75	17118.68
488.92	16978.25
489.10	17231.02
489.28	17226.34
489.46	17479.12
489.64	17202.94
489.81	17729.56
489.99	17813.82
490.17	17980.00
490.35	17923.82
490.53	18104.04
490.70	18611.94
490.88	18052.55
491.06	18515.98
491.24	18373.21
491.41	18623.64
491.59	18909.19
491.77	18649.39
491.95	19180.69
492.13	19023.87
492.30	19274.31
492.48	19307.08
492.66	19468.58
492.84	19826.68
493.01	19693.27
493.19	19611.35
493.37	19864.13
493.54	19950.73
493.72	20084.14
493.90	20037.33
494.08	20329.89
494.25	20765.23
494.43	20531.18
494.61	20795.66
494.79	20884.60
494.96	20858.85
495.14	20903.32
495.32	21146.74
495.49	21212.28
495.67	21303.56
495.85	21408.88
496.02	21673.36
496.20	21364.41
496.38	21769.32
496.55	21977.63
496.73	22415.31
496.91	21935.50
497.09	22431.69
497.26	22389.56
497.44	22410.63
497.62	22684.47
497.79	23096.41
497.97	22794.48
498.14	23367.91
498.32	22815.54
498.50	23358.55
498.67	23367.91
498.85	23358.55
499.03	23506.00
499.20	23417.06
499.38	23903.89
499.56	23442.81
499.73	23723.67
499.91	24027.94
500.08	24297.10
500.26	23805.59
500.44	24189.44
500.61	24032.62
500.79	24051.34
500.97	24540.52
501.14	24685.63
501.32	25010.96
501.49	24910.32
501.67	24877.55
501.84	24795.64
502.02	24835.42
502.20	25202.89
502.37	25174.80
502.55	25198.21
502.72	25397.15
502.90	25228.63
503.07	25406.52
503.25	25841.85
503.43	25692.06
503.60	25762.28
503.78	25703.76
503.95	25993.99
504.13	25855.90
504.30	26057.18
504.48	25860.58
504.65	26078.25
504.83	26838.92
505.01	26284.22
505.18	26396.56
505.36	26843.60
505.53	26572.10
505.71	26824.88
505.88	27063.61
506.06	26890.41
506.23	26850.63
506.41	26967.65
506.58	27218.09
506.76	27187.66
506.93	27412.35
507.11	27686.20
507.28	27524.70
507.46	27346.82
507.63	27758.75
507.81	28041.96
507.98	27800.88
508.16	27988.13
508.33	27786.84
508.50	28133.24
508.68	28283.03
508.85	28297.08
509.03	28095.79
509.20	28517.09
509.38	28706.67
509.55	28407.08
509.73	28875.19
509.90	28608.37
510.08	28922.00
510.25	28753.48
510.42	28762.84
510.60	29144.35
510.77	29132.65
510.95	29633.52
511.12	29165.42
511.30	29301.17
511.47	29785.66
511.64	29500.11
511.82	29895.66
511.99	29378.40
512.17	29750.55
512.34	29930.77
512.51	30033.75
512.69	29979.92
512.86	30345.05
513.04	30026.73
513.21	30010.35
513.38	30658.68
513.56	30663.36
513.73	30162.48
513.90	30646.97
514.08	30471.43
514.25	31075.29
514.43	30766.34
514.60	30714.85
514.77	30721.87
514.95	31159.55
515.12	31094.02
515.29	31180.62
515.47	31534.04
515.64	31470.84
515.81	31089.34
515.99	31175.94
516.16	31798.52
516.33	31625.32
516.51	31611.28
516.68	31637.02
516.85	31740.00
517.03	31915.54
517.20	32048.96
517.37	32091.09
517.54	32498.34
517.72	31952.99
517.89	32264.28
518.06	31962.36
518.24	32240.88
518.41	32339.18
518.58	32556.85
518.75	32313.44
518.93	32449.19
519.10	33057.73
519.27	32840.06
519.45	32826.01
519.62	32877.51
519.79	32996.87
519.96	32865.80
520.14	32945.38
520.31	33099.86
520.48	33413.49
520.65	33244.97
520.83	33832.44
521.00	33476.68
521.17	33340.93
521.34	33656.90
521.52	33914.36
521.69	34033.73
521.86	34106.29
522.03	33717.76
522.20	34000.96
522.38	34597.80
522.55	33947.13
522.72	34424.60
522.89	34178.84
523.07	34866.96
523.24	34719.51
523.41	34597.80
523.58	34052.45
523.75	35037.82
523.92	34756.96
524.10	34829.51
524.27	34981.65
524.44	34810.79
524.61	35115.06
524.78	35033.14
524.96	35070.59
525.13	34998.03
525.30	35407.62
525.47	35037.82
525.64	35330.39
525.81	35728.28
525.98	35604.23
526.16	35332.73
526.33	35632.32
526.50	35833.60
526.67	35814.88
526.84	35807.86
527.01	35599.55
527.18	35873.39
527.36	36151.91
527.53	35990.42
527.70	36641.09
527.87	36507.68
528.04	36282.98
528.21	36505.34
528.38	36147.23
528.55	36313.41
528.72	36086.38
528.89	36662.15
529.07	36444.48
529.24	36364.90
529.41	36762.79
529.58	36676.19
529.75	36400.01
529.92	37074.09
530.09	36493.63
530.26	36699.60
530.43	37076.43
530.60	37020.25
530.77	36926.63
530.94	36575.55
531.11	36957.06
531.28	37064.72
531.46	36919.61
531.63	37544.53
531.80	37446.23
531.97	37319.84
532.14	37511.77
532.31	37535.17
532.48	37565.60
532.65	37790.29
532.82	37682.62
532.99	37879.23
533.16	37727.10
533.33	37794.97
533.50	38270.10
533.67	38302.87
533.84	37563.26
534.01	38162.43
534.18	38022.00
534.35	38485.43
534.52	38354.36
534.69	38642.24
534.86	38225.63
535.03	38033.71
535.20	38309.89
535.37	38869.28
535.54	38899.70
535.71	38436.28
535.88	38918.43
536.05	38560.33
536.22	38773.31
536.38	38817.78
536.55	38969.92
536.72	39208.65
536.89	38616.50
537.06	38630.54
537.23	39360.79
537.40	39061.20
537.57	38752.25
537.74	38469.04
537.91	39639.31
538.08	38930.13
538.25	39086.95
538.42	39445.05
538.59	39800.81
538.75	39622.93
538.92	39487.18
539.09	39723.57
539.26	39697.83
539.43	39365.47
539.60	39922.52
539.77	39613.57
539.94	40011.46
540.11	39744.64
540.28	39964.65
540.44	39974.01
540.61	40165.93
540.78	39728.25
540.95	40187.00
541.12	39754.00
541.29	40149.55
541.46	39878.05
541.62	39985.71
541.79	40224.45
541.96	40163.59
542.13	40037.20
542.30	40179.98
542.47	40612.98
542.63	40374.24
542.80	40676.17
542.97	41240.24
543.14	41113.85
543.31	40928.95
543.48	40676.17
543.64	40900.86
543.81	41099.81
543.98	41130.23
544.15	40945.33
544.32	41336.20
544.48	41663.88
544.65	41268.33
544.82	41404.08
544.99	41195.77
545.16	41170.02
545.32	41481.31
545.49	42094.53
545.66	41626.43
545.83	41942.40
546.00	41787.92
546.16	41675.58
546.33	41530.47
546.50	41558.55
546.67	42244.33
546.83	41471.95
547.00	41769.20
547.17	41790.27
547.34	41968.15
547.50	42223.26
547.67	42309.86
547.84	42113.26
548.00	42150.71
548.17	42539.24
548.34	42272.42
548.51	42567.32
548.67	42307.52
548.84	42340.29
549.01	42038.36
549.18	42026.66
549.34	42513.49
549.51	42651.58
549.68	42377.74
549.84	41940.06
550.01	42871.59
550.18	41975.17
550.34	42550.94
550.51	42649.24
550.68	42782.65
550.84	42377.74
551.01	43012.02
551.18	42665.63
551.34	42408.17
551.51	42834.14
551.68	42981.60
551.84	42803.72
552.01	42801.38
552.18	42827.12
552.34	42969.90
552.51	42948.83
552.68	42988.62
552.84	42983.94
553.01	43206.29
553.18	43456.73
553.34	43255.44
553.51	42864.57
553.67	43323.32
553.84	43524.60
554.01	43566.73
554.17	43143.09
554.34	43765.68
554.51	43395.87
554.67	43915.47
554.84	43559.71
555.00	43690.78
555.17	43140.75
555.33	43751.63
555.50	43798.44
555.67	43482.47
555.83	43913.13
556.00	43445.02
556.16	44093.35
556.33	44212.72
556.50	44205.70
556.66	43681.42
556.83	43866.32
556.99	44081.65
557.16	44264.21
557.32	44540.39
557.49	44245.49
557.65	43749.29
557.82	44076.97
557.98	44322.72
558.15	44624.65
558.32	44149.53
558.48	43732.91
558.65	44261.87
558.81	44603.59
558.98	44100.37
559.14	44205.70
559.31	44257.19
559.47	44065.27
559.64	44549.76
559.80	44526.35
559.97	44638.70
560.13	44058.24
560.30	44467.84
560.46	45123.19
560.63	44933.60
560.79	45258.94
560.96	45214.47
561.12	44966.37
561.29	44636.36
561.45	44889.13
561.61	44521.67
561.78	44596.57
561.94	44538.05
562.11	44516.99
562.27	44851.69
562.44	45048.29
562.60	45034.25
562.77	45303.41
562.93	44926.58
563.10	45034.25
563.26	44954.67
563.42	45287.03
563.59	44638.70
563.75	44832.96
563.92	45067.02
564.08	44631.68
564.24	44800.19
564.41	45195.74
564.57	44889.13
564.74	44945.31
564.90	45212.13
565.07	45233.19
565.23	45237.87
565.39	44957.01
565.56	45123.19
565.72	45165.32
565.88	44931.26
566.05	45045.95
566.21	45483.63
566.38	45228.51
566.54	45287.03
566.70	45429.80
566.87	45450.86
567.03	45071.70
567.19	45411.07
567.36	45780.88
567.52	45340.86
567.68	45631.08
567.85	45455.54
568.01	45659.17
568.17	45345.54
568.34	45427.46
568.50	45476.61
568.66	45277.66
568.83	45483.63
568.99	45319.79
569.15	45619.38
569.32	45387.67
569.48	45612.36
569.64	45715.34
569.81	45687.26
569.97	45815.99
570.13	46003.23
570.30	45074.04
570.46	45132.55
570.62	45521.08
570.78	45764.49
570.95	45874.50
571.11	45918.97
571.27	45794.92
571.43	45848.75
571.60	45935.35
571.76	45448.52
571.92	45181.70
572.09	45916.63
572.25	45467.25
572.41	45588.95
572.57	45553.85
572.74	46050.04
572.90	45895.56
573.06	46040.68
573.22	45785.56
573.38	45750.45
573.55	45701.30
573.71	45830.03
573.87	45588.95
574.03	46157.70
574.20	46230.26
574.36	46061.74
574.52	46195.15
574.68	46038.34
574.84	46014.93
575.01	46244.30
575.17	46305.16
575.33	45839.39
575.49	46078.13
575.65	46433.89
575.82	46410.48
575.98	46099.19
576.14	46284.09
576.30	46265.37
576.46	46237.28
576.62	46162.39
576.79	46373.03
576.95	45731.73
577.11	45895.56
577.27	45895.56
577.43	46150.68
577.59	46195.15
577.75	46064.08
577.92	46024.29
578.08	45879.18
578.24	46085.15
578.40	46195.15
578.56	46492.40
578.72	45818.33
578.88	45984.51
579.04	46263.03
579.21	45986.85
579.37	46096.85
579.53	46300.48
579.69	45914.29
579.85	46038.34
580.01	46534.53
580.17	46204.52
580.33	46344.95
580.49	46518.15
580.65	46335.59
580.82	46567.30
580.98	46019.61
581.14	45949.40
581.30	46340.27
581.46	45879.18
581.62	46183.45
581.78	46017.27
581.94	46417.50
582.10	46162.39
582.26	46312.18
582.42	46450.27
582.58	46251.33
582.74	46293.46
582.90	46417.50
583.06	46366.01
583.22	46244.30
583.38	46333.24
583.54	46398.78
583.70	46557.94
583.86	46431.55
584.02	46387.08
584.18	46415.16
584.34	46543.89
584.50	46742.84
584.66	46784.97
584.82	46108.55
584.98	46808.37
585.14	46480.70
585.30	46115.58
585.46	47152.43
585.62	46574.32
585.78	46438.57
585.94	46373.03
586.10	46461.97
586.26	46380.06
586.42	46305.16
586.58	46239.62
586.74	46384.74
586.90	46415.16
587.06	46494.74
587.22	46389.42
587.38	46080.47
587.54	46206.86
587.70	46890.29
587.86	46817.74
588.02	46211.54
588.18	46527.51
588.34	46373.03
588.49	46586.02
588.65	46356.65
588.81	46850.50
588.97	46799.01
589.13	46586.02
589.29	46494.74
589.45	46696.03
589.61	46721.77
589.77	46340.27
589.93	46363.67
590.08	46899.65
590.24	46880.93
590.40	47585.43
590.56	46857.52
590.72	46770.93
590.88	46740.50
591.04	46934.76
591.20	46871.57
591.35	46972.21
591.51	47290.52
591.67	47208.61
591.83	47236.69
591.99	46876.25
592.15	46810.71
592.31	46763.90
592.46	46733.48
592.62	47058.81
592.78	46932.42
592.94	47248.39
593.10	47276.48
593.26	47185.20
593.41	47131.37
593.57	47103.28
593.73	47206.26
593.89	47220.31
594.05	47100.94
594.20	47475.43
594.36	47332.65
594.52	47564.37
594.68	47061.15
594.84	46920.72
594.99	47512.88
595.15	47302.23
595.31	46843.48
595.47	47468.40
595.62	47136.05
595.78	47119.66
595.94	47365.42
596.10	46813.05
596.25	47047.11
596.41	47316.27
596.57	47145.41
596.73	46848.16
596.88	47222.65
597.04	47402.87
597.20	47363.08
597.36	47084.56
597.51	47304.57
597.67	47377.12
597.83	47030.72
597.99	47526.92
598.14	47241.37
598.30	47143.07
598.46	46979.23
598.61	47763.31
598.77	47367.76
598.93	47388.83
599.09	47290.52
599.24	47686.07
599.40	47543.30
599.56	47412.23
599.71	47601.82
599.87	48011.41
600.03	47426.28
600.18	47430.96
600.34	47342.02
600.50	47292.86
600.65	47161.79
600.81	47730.54
600.97	47604.16
601.12	47690.76
601.28	47718.84
601.44	47299.89
601.59	47086.90
601.75	47557.35
601.91	47309.25
602.06	47374.78
602.22	47473.09
602.37	47356.06
602.53	47250.74
602.69	47608.84
602.84	47042.43
603.00	46993.28
603.16	47447.34
603.31	47229.67
603.47	47739.91
603.62	47309.25
603.78	47409.89
603.94	47337.33
604.09	47253.08
604.25	47405.21
604.40	47679.05
604.56	47494.15
604.71	47749.27
604.87	47320.95
605.03	47192.22
605.18	47056.47
605.34	47306.91
605.49	47033.07
605.65	47580.75
605.80	47012.00
605.96	47543.30
606.12	47320.95
606.27	47363.08
606.43	46955.83
606.58	47454.36
606.74	47405.21
606.89	47217.97
607.05	47290.52
607.20	47136.05
607.36	47236.69
607.51	46740.50
607.67	47171.16
607.82	46848.16
607.98	47257.76
608.13	47098.60
608.29	47330.31
608.44	47484.79
608.60	46972.21
608.75	47379.46
608.91	46988.60
609.06	46937.10
609.22	46927.74
609.37	46761.56
609.53	47351.38
609.68	47068.17
609.84	47178.18
609.99	47480.11
610.15	47117.32
610.30	46862.21
610.46	47026.04
610.61	46513.47
610.76	47004.98
610.92	46923.06
611.07	46679.64
611.23	46796.67
611.38	46700.71
611.54	46721.77
611.69	47028.38
611.84	47267.12
612.00	46761.56
612.15	46890.29
612.31	46972.21
612.46	46536.87
612.62	46511.13
612.77	46593.04
612.92	47114.98
613.08	46199.83
613.23	47201.58
613.39	46934.76
613.54	46735.82
613.69	46742.84
613.85	46550.91
614.00	46712.41
614.15	47044.77
614.31	46602.41
614.46	46602.41
614.62	46923.06
614.77	46670.28
614.92	46579.00
615.08	46784.97
615.23	46892.63
615.38	46773.27
615.54	46997.96
615.69	46625.81
615.84	46534.53
616.00	46930.08
616.15	46307.50
616.30	46630.49
616.46	46511.13
616.61	46045.36
616.76	46609.43
616.92	46464.32
617.07	46309.84
617.22	46358.99
617.37	45956.42
617.53	46115.58
617.68	45907.27
617.83	46361.33
617.99	46602.41
618.14	46560.28
618.29	46241.96
618.45	46059.40
618.60	46113.23
618.75	46014.93
618.90	45724.71
619.06	45846.41
619.21	46225.58
619.36	46976.89
619.51	45841.73
619.67	45837.05
619.82	45673.21
619.97	46309.84
620.12	46045.36
620.28	45780.88
620.43	46443.25
620.58	46284.09
620.73	46216.22
620.89	45895.56
621.04	46075.79
621.19	46326.22
621.34	45734.07
621.49	45581.93
621.65	46096.85
621.80	46295.80
621.95	46096.85
622.10	45972.80
622.25	45591.30
622.41	45930.67
622.56	45673.21
622.71	45687.26
622.86	45579.59
623.01	46099.19
623.16	45851.09
623.32	45633.42
623.47	45743.43
623.62	45808.96
623.77	45628.74
623.92	45420.44
624.07	45717.68
624.23	45815.99
624.38	45787.90
624.53	45607.68
624.68	45127.87
624.83	45675.55
624.98	45326.81
625.13	44992.12
625.29	45291.71
625.44	45684.92
625.59	45464.91
625.74	45242.56
625.89	44884.45
626.04	44818.92
626.19	45109.14
626.34	45495.33
626.49	44828.28
626.65	44842.32
626.80	45280.00
626.95	44552.10
627.10	44739.34
627.25	44903.18
627.40	44755.72
627.55	45221.49
627.70	44556.78
627.85	44882.11
628.00	44884.45
628.15	44886.79
628.30	44655.08
628.45	44308.68
628.60	44411.67
628.76	44442.09
628.91	44961.69
629.06	44416.35
629.21	44350.81
629.36	44664.44
629.51	44360.17
629.66	44467.84
629.81	44395.28
629.96	44912.54
630.11	44414.01
630.26	44362.51
630.41	44664.44
630.56	44465.50
630.71	44416.35
630.86	44212.72
631.01	44491.24
631.16	44435.07
631.31	44608.27
631.46	44236.12
631.61	44507.63
631.76	44533.37
631.91	44367.20
632.06	44954.67
632.21	44519.33
632.36	44687.85
632.51	44020.80
632.66	44378.90
632.81	43906.11
632.96	44264.21
633.10	43889.73
633.25	44102.71
633.40	44140.16
633.55	44371.88
633.70	43938.88
633.85	43791.42
634.00	43536.30
634.15	43545.67
634.30	43978.67
634.45	43936.54
634.60	44327.41
634.75	43971.64
634.90	43407.58
635.05	43856.96
635.19	43454.39
635.34	43702.48
635.49	43847.60
635.64	43742.27
635.79	43842.92
635.94	43625.25
636.09	43555.03
636.24	43842.92
636.39	43313.95
636.53	43669.72
636.68	43171.18
636.83	43524.60
636.98	43138.41
637.13	43236.72
637.28	43346.72
637.43	43019.05
637.57	43672.06
637.72	43232.04
637.87	43274.16
638.02	43154.80
638.17	43093.94
638.32	42857.55
638.46	42911.38
638.61	42866.91
638.76	42967.55
638.91	43442.68
639.06	42349.65
639.20	42672.65
639.35	42651.58
639.50	42426.89
639.65	42820.10
639.80	42990.96
639.94	43283.53
640.09	43089.26
640.24	42789.67
640.39	42625.84
640.54	42644.56
640.68	42951.17
640.83	42953.51
640.98	42836.48
641.13	42604.77
641.27	42885.64
641.42	42639.88
641.57	42714.78
641.72	42447.96
641.86	42724.14
642.01	42089.85
642.16	42649.24
642.31	42054.75
642.45	42539.24
642.60	42043.04
642.75	42059.43
642.90	42314.55
643.04	42316.89
643.19	42452.64
643.34	42529.87
643.48	42220.92
643.63	41865.16
643.78	42174.11
643.93	42574.34
644.07	42239.65
644.22	42153.05
644.37	42127.30
644.51	42319.23
644.66	42274.76
644.81	42220.92
644.95	42157.73
645.10	42209.22
645.25	41689.62
645.39	41827.71
645.54	41687.28
645.69	41736.43
645.83	41827.71
645.98	41567.91
646.13	41834.74
646.27	41689.62
646.42	41872.18
646.57	41965.81
646.71	41886.23
646.86	42328.59
647.00	41989.21
647.15	42211.56
647.30	41900.27
647.44	41848.78
647.59	42064.11
647.74	41354.93
647.88	41972.83
648.03	41748.14
648.17	41865.16
648.32	41783.24
648.47	41762.18
648.61	41230.88
648.76	41411.10
648.90	41612.38
649.05	41460.25
649.20	41792.61
649.34	41780.90
649.49	41715.37
649.63	41680.26
649.78	41315.14
649.92	41366.63
650.07	41593.66
650.21	41495.36
650.36	41776.22
650.51	41034.27
650.65	41530.47
650.80	41441.53
650.94	41464.93
651.09	40940.65
651.23	41081.08
651.38	41275.35
651.52	40737.02
651.67	40818.94
651.81	41064.70
651.96	40935.97
652.10	40521.69
652.25	40832.99
652.39	40851.71
652.54	40898.52
652.68	40535.74
652.83	40659.79
652.97	40954.69
653.12	40540.42
653.26	40418.71
653.41	40573.19
653.55	40760.43
653.70	41055.34
653.84	41045.97
653.99	40704.26
654.13	40643.40
654.27	40638.72
654.42	40849.37
654.56	40465.52
654.71	40545.10
654.85	40779.15
655.00	40994.48
655.14	40561.48
655.29	40800.22
655.43	40823.62
655.57	40282.96
655.72	39999.76
655.86	40329.77
656.01	40154.23
656.15	39938.90
656.30	39957.63
656.44	40446.80
656.58	40367.22
656.73	39920.18
656.87	39924.86
657.01	39959.97
657.16	40105.08
657.30	39878.05
657.45	40123.80
657.59	39400.58
657.73	39658.04
657.88	39718.89
658.02	40046.57
658.16	40502.97
658.31	39660.38
658.45	40135.51
658.60	39660.38
658.74	40020.82
658.88	39674.42
659.03	39367.81
659.17	39339.72
659.31	39367.81
659.46	39374.83
659.60	39367.81
659.74	39428.66
659.89	38972.26
660.03	38892.68
660.17	39140.78
660.32	39051.84
660.46	39274.19
660.60	38768.63
660.74	39433.35
660.89	39201.63
661.03	38822.47
661.17	38857.57
661.32	38693.74
661.46	38670.33
661.60	38960.56
661.74	39023.75
661.89	38962.90
662.03	38663.31
662.17	38892.68
662.31	38345.00
662.46	38532.24
662.60	38199.88
662.74	38174.14
662.88	38230.31
663.03	37926.04
663.17	38045.41
663.31	38050.09
663.45	38108.60
663.60	38525.22
663.74	38204.56
663.88	37717.73
664.02	37886.25
664.17	37867.53
664.31	37881.57
664.45	37708.37
664.59	37647.52
664.73	37715.39
664.88	37432.19
665.02	37160.69
665.16	37769.22
665.30	37406.44
665.44	37535.17
665.59	37556.24
665.73	37214.52
665.87	36968.76
666.01	36907.91
666.15	37137.28
666.29	36783.86
666.44	37254.31
666.58	37137.28
666.72	37013.23
666.86	36641.09
667.00	36921.95
667.14	36933.65
667.28	36381.29
667.43	36254.90
667.57	36774.50
667.71	36547.47
667.85	36865.78
667.99	36491.29
668.13	36505.34
668.27	36039.57
668.41	35922.54
668.56	36011.48
668.70	35784.45
668.84	35646.36
668.98	35927.22
669.12	35924.88
669.26	35714.23
669.40	35988.08
669.54	36039.57
669.68	36088.72
669.82	35583.16
669.96	35660.40
670.10	35058.88
670.25	35201.66
670.39	35122.08
670.53	35182.93
670.67	35019.10
670.81	35641.68
670.95	35028.46
671.09	35040.16
671.23	34827.17
671.37	35030.80
671.51	34403.53
671.65	34939.52
671.79	34848.24
671.93	34768.66
672.07	34841.21
672.21	34541.63
672.35	34398.85
672.49	34335.66
672.63	34452.69
672.77	34134.37
672.91	34387.15
673.05	34541.63
673.19	34010.32
673.33	33944.79
673.47	33982.24
673.61	33582.01
673.75	33347.95
673.89	33844.15
674.03	33530.51
674.17	33207.52
674.31	33006.23
674.45	33376.04
674.59	32938.36
674.73	33472.00
674.87	33055.39
675.01	33081.13
675.15	32917.29
675.29	32535.79
675.43	32608.34
675.56	32837.72
675.70	32671.54
675.84	32563.87
675.98	31283.60
676.12	32147.26
676.26	32643.45
676.40	32041.93
676.54	32126.19
676.68	31866.39
676.82	31674.47
676.96	31955.33
677.10	31922.57
677.23	31768.09
677.37	31976.40
677.51	31285.94
677.65	31517.65
677.79	31421.69
677.93	31260.20
678.07	30953.58
678.21	31243.81
678.34	30906.77
678.48	30799.11
678.62	30265.47
678.76	30293.55
678.90	30363.77
679.04	30646.97
679.18	30345.05
679.31	30485.48
679.45	29834.81
679.59	30190.57
679.73	29888.64
679.87	29521.18
680.00	29677.99
680.14	29621.82
680.28	29500.11
680.42	29748.21
680.56	29315.21
680.70	29188.82
680.83	28617.73
680.97	29167.76
681.11	29055.41
681.25	28823.70
681.39	28673.90
681.52	28608.37
681.66	28367.29
681.80	28180.05
681.94	28126.22
682.07	28154.30
682.21	27892.16
682.35	27763.43
682.49	28004.51
682.62	28243.24
682.76	27901.53
682.90	27962.38
683.04	27782.16
683.17	27770.46
683.31	27292.99
683.45	27285.97
683.59	27028.51
683.72	26993.40
683.86	26906.80
684.00	26679.77
684.13	26735.94
684.27	26876.37
684.41	26827.22
684.55	27136.17
684.68	26768.71
684.82	26202.30
684.96	26396.56
685.09	26384.86
685.23	26298.26
685.37	26672.74
685.50	26426.99
685.64	26228.04
685.78	25912.07
685.91	25624.18
686.05	25479.07
686.19	25596.10
686.32	25338.64
686.46	24973.52
686.60	24910.32
686.73	25109.27
686.87	25039.05
687.01	25212.25
687.14	24821.38
687.28	24856.49
687.42	24753.51
687.55	24393.06
687.69	24547.54
687.82	24547.54
687.96	24247.95
688.10	24395.40
688.23	24077.09
688.37	24355.61
688.50	24205.82
688.64	24196.46
688.78	23950.70
688.91	23623.03
689.05	23803.25
689.18	23587.92
689.32	22995.76
689.46	23145.56
689.59	23136.20
689.73	23463.87
689.86	23520.04
690.00	23349.18
690.13	23276.63
690.27	22700.86
690.41	23044.91
690.54	22691.49
690.68	22621.28
690.81	22434.03
690.95	22483.19
691.08	22232.75
691.22	22136.79
691.35	21762.30
691.49	22150.83
691.62	22122.74
691.76	21556.33
691.89	21736.56
692.03	21212.28
692.16	21469.73
692.30	21549.31
692.43	21362.07
692.57	20903.32
692.70	20952.48
692.84	21226.32
692.97	20496.07
693.11	20863.54
693.24	20758.21
693.38	20400.11
693.51	20479.69
693.65	20348.62
693.78	20238.61
693.92	20173.08
694.05	20376.70
694.19	20301.81
694.32	20042.01
694.45	19969.45
694.59	20414.15
694.72	19957.75
694.86	19721.35
694.99	19648.80
695.13	19185.37
695.26	19028.56
695.39	19044.94
695.53	19468.58
695.66	19414.74
695.80	18965.36
695.93	19180.69
696.07	19124.52
696.20	18684.50
696.33	18258.52
696.47	18642.37
696.60	18654.07
696.73	18611.94
696.87	18593.22
697.00	18515.98
697.14	18429.38
697.27	18078.30
697.40	18129.79
697.54	18246.82
697.67	17881.69
697.80	18036.17
697.94	17783.39
698.07	17530.61
698.21	17687.43
698.34	17334.01
698.47	17584.44
698.61	17156.13
698.74	17186.55
698.87	17151.45
699.01	16980.59
699.14	17151.45
699.27	16755.90
699.40	16739.51
699.54	16657.59
699.67	16678.66
699.80	16652.91
699.94	16552.27
700.07	16617.80
700.20	16891.65
700.34	16353.32
700.47	16374.39
700.60	16540.57
700.73	16500.78
700.87	16358.00
701.00	15655.84
701.13	15810.32
701.26	15620.74
701.40	15623.08
701.53	15587.97
701.66	15728.40
701.79	15463.92
701.93	15220.50
702.06	15246.25
702.19	15133.90
702.32	15564.56
702.46	15428.81
702.59	15089.43
702.72	15356.25
702.85	14918.57
702.99	14995.81
703.12	14670.48
703.25	14934.96
703.38	14672.82
703.51	14569.83
703.65	14389.61
703.78	14375.57
703.91	14113.43
704.04	14469.19
704.17	14272.59
704.31	14132.15
704.44	14083.00
704.57	14045.55
704.70	13921.51
704.83	13853.63
704.96	13764.69
705.10	13568.09
705.23	13462.76
>>>>>End Processed Spectral Data<<<<<
