SpectraSuite Data File
++++++++++++++++++++++++++++++++++++
Date: Fri Oct 25 11:34:07 EDT 2013
User: price-jones
Dark Spectrum Present: No
Reference Spectrum Present: No
Number of Sampled Component Spectra: 1
Spectrometers: USB2+H05261
Integration Time (usec): 100000 (USB2+H05261)
Spectra Averaged: 1 (USB2+H05261)
Boxcar Smoothing: 0 (USB2+H05261)
Correct for Electrical Dark: No (USB2+H05261)
Strobe/Lamp Enabled: No (USB2+H05261)
Correct for Detector Non-linearity: No (USB2+H05261)
Correct for Stray Light: No (USB2+H05261)
Number of Pixels in Processed Spectrum: 2048
>>>>>Begin Processed Spectral Data<<<<<
365.73	280.86
365.92	280.86
366.12	280.86
366.32	205.97
366.52	168.52
366.72	262.14
366.91	128.73
367.11	170.86
367.31	201.29
367.51	191.92
367.70	173.20
367.90	177.88
368.10	208.31
368.30	236.39
368.49	252.78
368.69	170.86
368.89	208.31
369.09	182.56
369.28	147.45
369.48	196.60
369.68	231.71
369.87	234.05
370.07	259.80
370.27	264.48
370.47	308.95
370.66	428.32
370.86	421.30
371.06	533.64
371.25	599.18
371.45	589.82
371.65	596.84
371.84	608.54
372.04	559.39
372.24	538.32
372.44	552.37
372.63	589.82
372.83	596.84
373.03	535.98
373.22	561.73
373.42	671.73
373.62	617.90
373.81	681.10
374.01	664.71
374.21	638.97
374.40	650.67
374.60	660.03
374.79	655.35
374.99	723.23
375.19	664.71
375.38	627.26
375.58	657.69
375.78	660.03
375.97	678.76
376.17	676.41
376.37	695.14
376.56	692.80
376.76	615.56
376.95	697.48
377.15	629.60
377.35	746.63
377.54	615.56
377.74	641.31
377.93	741.95
378.13	713.86
378.33	748.97
378.52	671.73
378.72	648.33
378.91	674.07
379.11	653.01
379.31	676.41
379.50	767.70
379.70	732.59
379.89	711.52
380.09	781.74
380.28	709.18
380.48	760.67
380.68	706.84
380.87	739.61
381.07	753.65
381.26	765.36
381.46	779.40
381.65	755.99
381.85	730.25
382.04	786.42
382.24	753.65
382.43	812.17
382.63	781.74
382.83	727.91
383.02	842.59
383.22	812.17
383.41	812.17
383.61	737.27
383.80	828.55
384.00	816.85
384.19	786.42
384.39	884.72
384.58	781.74
384.78	800.46
384.97	805.14
385.17	802.80
385.36	847.27
385.56	889.40
385.75	821.53
385.95	755.99
386.14	809.83
386.34	866.00
386.53	887.06
386.72	788.76
386.92	908.13
387.11	835.57
387.31	903.45
387.50	882.38
387.70	866.00
387.89	887.06
388.09	866.00
388.28	802.80
388.48	898.77
388.67	940.90
388.86	959.62
389.06	1015.79
389.25	830.89
389.45	926.85
389.64	933.87
389.84	922.17
390.03	931.53
390.22	931.53
390.42	947.92
390.61	884.72
390.81	959.62
391.00	1041.54
391.19	931.53
391.39	999.41
391.58	1029.84
391.78	938.55
391.97	987.71
392.16	1118.78
392.36	1027.50
392.55	1001.75
392.75	985.37
392.94	1004.09
393.13	1053.24
393.33	1078.99
393.52	1029.84
393.71	1076.65
393.91	1067.28
394.10	1081.33
394.29	1123.46
394.49	1025.15
394.68	1139.84
394.88	1123.46
395.07	1188.99
395.26	1116.44
395.46	1057.92
395.65	1179.63
395.84	1163.25
396.04	1179.63
396.23	1226.44
396.42	1198.35
396.62	1163.25
396.81	1207.72
397.00	1118.78
397.19	1266.23
397.39	1224.10
397.58	1282.61
397.77	1280.27
397.97	1284.95
398.16	1240.48
398.35	1303.68
398.55	1261.55
398.74	1287.29
398.93	1327.08
399.12	1270.91
399.32	1268.57
399.51	1348.15
399.70	1240.48
399.90	1252.19
400.09	1418.36
400.28	1406.66
400.47	1413.68
400.67	1451.13
400.86	1345.81
401.05	1352.83
401.24	1364.53
401.44	1441.77
401.63	1455.81
401.82	1399.64
402.01	1324.74
402.21	1516.67
402.40	1404.32
402.59	1418.36
402.78	1418.36
402.97	1568.16
403.17	1570.50
403.36	1540.07
403.55	1420.71
403.74	1570.50
403.93	1589.22
404.13	1568.16
404.32	1549.43
404.51	1526.03
404.70	1650.08
404.89	1638.38
405.09	1694.55
405.28	1694.55
405.47	1579.86
405.66	1701.57
405.85	1661.78
406.05	1647.74
406.24	1834.98
406.43	1692.21
406.62	1689.87
406.81	1687.53
407.00	1717.95
407.20	1762.42
407.39	1720.29
407.58	1827.96
407.77	1783.49
407.96	1755.40
408.15	1830.30
408.34	1856.04
408.54	1863.07
408.73	1944.99
408.92	1788.17
409.11	1856.04
409.30	1893.49
409.49	1982.43
409.68	2008.18
409.87	2031.58
410.07	2115.84
410.26	1942.64
410.45	2008.18
410.64	2008.18
410.83	2057.33
411.02	2165.00
411.21	2108.82
411.40	2122.87
411.59	2132.23
411.78	2092.44
411.98	2127.55
412.17	2188.40
412.36	2202.44
412.55	2207.13
412.74	2307.77
412.93	2331.17
413.12	2249.25
413.31	2445.86
413.50	2242.23
413.69	2368.62
413.88	2438.84
414.07	2434.16
414.26	2417.77
414.45	2518.42
414.64	2476.29
414.83	2523.10
415.02	2616.72
415.22	2583.95
415.41	2469.27
415.60	2581.61
415.79	2628.42
415.98	2757.15
416.17	2708.00
416.36	2614.38
416.55	2658.85
416.74	2698.64
416.93	2691.62
417.12	2750.13
417.31	2787.58
417.50	2881.20
417.69	2911.63
417.88	2846.09
418.07	2986.52
418.26	2937.37
418.45	2888.22
418.64	2932.69
418.83	2981.84
419.02	3040.36
419.21	3026.31
419.39	3009.93
419.58	2993.55
419.77	2972.48
419.96	3173.77
420.15	3133.98
420.34	2979.50
420.53	3115.25
420.72	3190.15
420.91	3236.96
421.10	3178.45
421.29	3227.60
421.48	3119.93
421.67	3241.64
421.86	3185.47
422.05	3211.22
422.24	3101.21
422.43	3318.88
422.61	3171.43
422.80	3332.92
422.99	3262.71
423.18	3258.03
423.37	3386.76
423.56	3323.56
423.75	3403.14
423.94	3403.14
424.13	3133.98
424.32	3124.62
424.50	3400.80
424.69	3506.12
424.88	3328.24
425.07	3384.41
425.26	3363.35
425.45	3353.99
425.64	3412.50
425.83	3379.73
426.01	3417.18
426.20	3339.94
426.39	3391.44
426.58	3398.46
426.77	3318.88
426.96	3428.88
427.15	3389.10
427.33	3482.72
427.52	3456.97
427.71	3618.47
427.90	3510.80
428.09	3679.32
428.28	3559.95
428.46	3571.66
428.65	3548.25
428.84	3726.13
429.03	3796.35
429.22	3566.98
429.40	3712.09
429.59	3754.22
429.78	3597.40
429.97	3588.04
430.16	3794.01
430.34	3756.56
430.53	3768.26
430.72	3857.20
430.91	3854.86
431.10	3770.60
431.28	3941.46
431.47	3831.46
431.66	4119.34
431.85	3847.84
432.03	4067.85
432.22	4091.26
432.41	3974.23
432.60	3988.27
432.79	3969.55
432.97	4018.70
433.16	4023.38
433.35	3999.98
433.54	4009.34
433.72	4184.88
433.91	4189.56
434.10	4194.24
434.28	4067.85
434.47	4023.38
434.66	4241.05
434.85	4255.09
435.03	4266.80
435.22	4194.24
435.41	4290.20
435.59	4348.72
435.78	4351.06
435.97	4332.33
436.16	4273.82
436.34	4470.42
436.53	4578.09
436.72	4465.74
436.90	4421.27
437.09	4425.95
437.28	4418.93
437.46	4491.49
437.65	4486.81
437.84	4458.72
438.02	4514.89
438.21	4512.55
438.40	4610.86
438.58	4786.40
438.77	4765.33
438.96	4564.04
439.14	4880.02
439.33	4732.56
439.52	4765.33
439.70	4788.74
439.89	4847.25
440.08	4861.29
440.26	4992.36
440.45	4912.78
440.63	4887.04
440.82	5064.92
441.01	4968.96
441.19	5041.51
441.38	5048.54
441.57	5163.22
441.75	5165.56
441.94	5385.57
442.12	5378.55
442.31	5270.89
442.50	5364.51
442.68	5289.61
442.87	5432.38
443.05	5453.45
443.24	5345.78
443.43	5401.96
443.61	5586.86
443.80	5579.84
443.98	5291.95
444.17	5188.97
444.35	5586.86
444.54	5661.76
444.73	5518.98
444.91	5479.19
445.10	5617.29
445.28	5551.75
445.47	5364.51
445.65	5514.30
445.84	5511.96
446.02	5495.58
446.21	5537.71
446.39	5430.04
446.58	5657.07
446.77	5603.24
446.95	5467.49
447.14	5734.31
447.32	5647.71
447.51	5654.73
447.69	5537.71
447.88	5437.06
448.06	5636.01
448.25	5610.26
448.43	5563.45
448.62	5490.90
448.80	5591.54
448.99	5710.91
449.17	5804.53
449.36	5675.80
449.54	5839.64
449.73	5916.87
449.91	5982.41
450.10	6008.16
450.28	5959.00
450.46	5886.45
450.65	5879.43
450.83	6038.58
451.02	6111.14
451.20	6094.76
451.39	6090.07
451.57	6115.82
451.76	6069.01
451.94	6019.86
452.13	6183.70
452.31	6267.95
452.49	5966.03
452.68	6345.19
452.86	6176.67
453.05	6118.16
453.23	6396.68
453.42	6321.79
453.60	6167.31
453.78	6204.76
453.97	6169.65
454.15	6314.77
454.34	6193.06
454.52	6328.81
454.70	6431.79
454.89	6354.55
455.07	6574.56
455.26	6427.11
455.44	6513.71
455.62	6541.80
455.81	6731.38
455.99	6712.66
456.17	6527.75
456.36	6710.32
456.54	6574.56
456.73	6764.15
456.91	6862.45
457.09	6916.28
457.28	6918.62
457.46	6836.70
457.64	6897.56
457.83	6946.71
458.01	6902.24
458.19	7026.29
458.38	6904.58
458.56	6923.30
458.74	7084.80
458.93	7016.93
459.11	7208.85
459.29	7084.80
459.48	7140.97
459.66	7166.72
459.84	7215.87
460.03	7131.61
460.21	7267.36
460.39	7157.36
460.57	7215.87
460.76	7269.70
460.94	7241.62
461.12	7487.37
461.31	7344.60
461.49	7302.47
461.67	7384.39
461.85	7447.58
462.04	7452.27
462.22	7887.61
462.40	7660.57
462.59	7630.15
462.77	7475.67
462.95	7653.55
463.13	7548.23
463.32	7555.25
463.50	7705.04
463.68	7557.59
463.86	7824.41
464.05	7662.91
464.23	7737.81
464.41	7864.20
464.59	7648.87
464.78	7943.78
464.96	7812.71
465.14	7815.05
465.32	7967.18
465.50	7990.59
465.69	7960.16
465.87	7976.55
466.05	8004.63
466.23	7946.12
466.41	8154.43
466.60	8018.68
466.78	7941.44
466.96	8028.04
467.14	7936.76
467.32	8189.53
467.51	8198.90
467.69	8147.40
467.87	8201.24
468.05	8184.85
468.23	8156.77
468.41	8311.24
468.60	8360.39
468.78	8285.50
468.96	8234.00
469.14	8212.94
469.32	8524.23
469.50	8252.73
469.69	8503.17
469.87	8514.87
470.05	8624.87
470.23	8671.68
470.41	8669.34
470.59	8559.34
470.77	8627.21
470.95	8746.58
471.14	8891.70
471.32	8620.19
471.50	8798.07
471.68	8814.46
471.86	8994.68
472.04	8840.20
472.22	9151.49
472.40	8805.10
472.58	8940.85
472.77	9268.52
472.95	9308.31
473.13	9633.64
473.31	9088.30
473.49	9537.68
473.67	9212.35
473.85	9289.59
474.03	9458.10
474.21	9432.36
474.39	9572.79
474.57	9673.43
474.75	9762.37
474.93	9874.72
475.12	9790.46
475.30	9675.77
475.48	9675.77
475.66	9987.07
475.84	10024.51
476.02	10017.49
476.20	9935.57
476.38	10127.50
476.56	10553.48
476.74	10195.37
476.92	10450.49
477.10	10314.74
477.28	10558.16
477.46	10281.97
477.64	10464.54
477.82	10860.09
478.00	10885.83
478.18	10855.40
478.36	11080.10
478.54	10920.94
478.72	11197.12
478.90	11442.88
479.08	11304.79
479.26	11372.66
479.44	11332.87
479.62	11440.54
479.80	11637.14
479.98	11803.32
480.16	12107.59
480.34	11800.98
480.52	11992.90
480.70	11822.05
480.88	11910.99
481.06	12102.91
481.24	12266.75
481.41	12222.28
481.59	12299.52
481.77	12358.03
481.95	12362.71
482.13	12528.89
482.31	12669.32
482.49	12915.08
482.67	13057.85
482.85	13193.60
483.03	13139.77
483.21	13287.22
483.39	13469.78
483.57	13434.68
483.74	13701.50
483.92	13839.59
484.10	13678.09
484.28	14003.43
484.46	14338.12
484.64	14537.07
484.82	14176.62
485.00	14602.60
485.18	14546.43
485.35	14890.49
485.53	14675.16
485.71	15005.17
485.89	15033.26
486.07	15096.46
486.25	15220.50
486.43	15332.85
486.61	15489.67
486.78	15470.94
486.96	15506.05
487.14	15845.43
487.32	16030.33
487.50	16119.27
487.68	16121.61
487.85	16297.15
488.03	16620.14
488.21	16292.47
488.39	16589.72
488.57	16542.91
488.75	16795.68
488.92	16957.18
489.10	17200.60
489.28	17266.13
489.46	17408.90
489.64	17277.83
489.81	17928.50
489.99	17830.20
490.17	17752.96
490.35	17867.65
490.53	17989.36
490.70	18405.97
490.88	17961.27
491.06	18361.50
491.24	18565.13
491.41	18394.27
491.59	18867.06
491.77	18860.04
491.95	18934.93
492.13	19304.74
492.30	19267.29
492.48	19077.71
492.66	19351.55
492.84	19412.40
493.01	19618.37
493.19	19686.25
493.37	19899.23
493.54	20159.03
493.72	20191.80
493.90	20350.96
494.08	20247.97
494.25	20592.03
494.43	20538.20
494.61	20835.45
494.79	20840.13
494.96	20790.98
495.14	21106.95
495.32	21408.88
495.49	21200.57
495.67	21656.98
495.85	21216.96
496.02	21696.77
496.20	22005.72
496.38	21886.35
496.55	21905.07
496.73	22228.07
496.91	22410.63
497.09	22487.87
497.26	22553.40
497.44	22520.63
497.62	22356.80
497.79	22834.27
497.97	22988.74
498.14	22993.42
498.32	23180.67
498.50	23222.80
498.67	23157.26
498.85	23580.90
499.03	23559.83
499.20	23468.55
499.38	23510.68
499.56	23955.38
499.73	24297.10
499.91	24144.97
500.08	24315.83
500.26	24044.32
500.44	23999.85
500.61	24482.00
500.79	24334.55
500.97	24601.37
501.14	24816.70
501.32	24940.75
501.49	24858.83
501.67	24975.86
501.84	24989.90
502.02	24833.08
502.20	24882.24
502.37	25268.42
502.55	25462.69
502.72	25441.62
502.90	25399.49
503.07	25535.24
503.25	25785.68
503.43	25582.06
503.60	25797.38
503.78	25944.84
503.95	26031.44
504.13	26270.17
504.30	26192.94
504.48	26178.89
504.65	26579.12
504.83	26412.95
505.01	26342.73
505.18	26934.88
505.36	26546.36
505.53	26490.18
505.71	26778.07
505.88	27012.12
506.06	27023.83
506.23	27276.60
506.41	27002.76
506.58	27220.43
506.76	27098.72
506.93	27770.46
507.11	27278.94
507.28	27407.67
507.46	27667.47
507.63	27220.43
507.81	28161.33
507.98	27779.82
508.16	28034.94
508.33	28041.96
508.50	28060.68
508.68	28320.48
508.85	28261.97
509.03	28463.25
509.20	28680.92
509.38	28666.88
509.55	28826.04
509.73	28627.09
509.90	28645.82
510.08	28414.10
510.25	28978.17
510.42	28875.19
510.60	29071.79
510.77	29123.29
510.95	29401.81
511.12	29399.47
511.30	29500.11
511.47	29589.05
511.64	29738.85
511.82	29556.28
511.99	29202.86
512.17	29933.11
512.34	29642.88
512.51	30054.82
512.69	30249.08
512.86	30199.93
513.04	30230.36
513.21	30094.61
513.38	30012.69
513.56	30614.21
513.73	30450.37
513.90	30415.26
514.08	30450.37
514.25	30602.50
514.43	30742.94
514.60	31021.46
514.77	30714.85
514.95	30904.43
515.12	30803.79
515.29	30967.63
515.47	31089.34
515.64	31676.81
515.81	31194.66
515.99	31243.81
516.16	31868.73
516.33	31573.83
516.51	31728.30
516.68	31852.35
516.85	31871.07
517.03	31903.84
517.20	31826.60
517.37	31957.67
517.54	31985.76
517.72	32463.23
517.89	32233.86
518.06	32334.50
518.24	32203.43
518.41	31957.67
518.58	32479.61
518.75	32315.78
518.93	32926.66
519.10	32704.31
519.27	32666.86
519.45	32755.80
519.62	32847.08
519.79	33364.34
519.96	32797.93
520.14	33064.75
520.31	33212.20
520.48	33383.06
520.65	33113.90
520.83	33553.92
521.00	33535.20
521.17	33626.48
521.34	33628.82
521.52	33961.17
521.69	33907.34
521.86	33464.98
522.03	34211.61
522.20	34349.70
522.38	34000.96
522.55	34366.09
522.72	33900.32
522.89	34625.89
523.07	34883.34
523.24	34291.19
523.41	34621.20
523.58	34602.48
523.75	34609.50
523.92	34616.52
524.10	34937.18
524.27	35037.82
524.44	35005.05
524.61	34862.28
524.78	35459.12
524.96	35239.11
525.13	35002.71
525.30	35398.26
525.47	35295.28
525.64	35349.11
525.81	35592.53
525.98	35377.20
526.16	35519.97
526.33	35662.74
526.50	35594.87
526.67	35669.76
526.84	35967.01
527.01	35365.49
527.18	35969.35
527.36	35831.26
527.53	35999.78
527.70	36233.83
527.87	36416.40
528.04	35945.95
528.21	36187.02
528.38	36421.08
528.55	36392.99
528.72	36275.96
528.89	36278.30
529.07	36123.83
529.24	36390.65
529.41	36467.89
529.58	36493.63
529.75	37139.62
529.92	36917.27
530.09	36943.02
530.26	37015.57
530.43	36774.50
530.60	36584.91
530.77	36802.58
530.94	37141.96
531.11	36847.05
531.28	36807.26
531.46	37233.24
531.63	37104.51
531.80	37258.99
531.97	37205.16
532.14	37816.04
532.31	37500.06
532.48	37748.16
532.65	37436.87
532.82	37675.60
532.99	37546.87
533.16	37670.92
533.33	38239.67
533.50	37886.25
533.67	37638.15
533.84	37825.40
534.01	38171.80
534.18	38005.62
534.35	38480.75
534.52	38129.67
534.69	38803.74
534.86	38527.56
535.03	38206.90
535.20	38557.99
535.37	38476.07
535.54	38581.39
535.71	38560.33
535.88	39002.69
536.05	38810.76
536.22	38831.83
536.38	39056.52
536.55	38625.86
536.72	38452.66
536.89	38644.59
537.06	39042.48
537.23	39351.43
537.40	38686.71
537.57	39119.71
537.74	39377.17
537.91	39311.64
538.08	39299.94
538.25	39288.23
538.42	39346.75
538.59	39648.68
538.75	39426.32
538.92	39538.67
539.09	40278.28
539.26	39831.24
539.43	39651.02
539.60	39770.38
539.77	39576.12
539.94	40133.17
540.11	39847.62
540.28	40041.88
540.44	40161.25
540.61	40051.25
540.78	39800.81
540.95	39878.05
541.12	39868.69
541.29	40116.78
541.46	40093.38
541.62	40334.45
541.79	40030.18
541.96	39992.73
542.13	40261.90
542.30	40257.21
542.47	40542.76
542.63	40622.34
542.80	40781.49
542.97	41130.23
543.14	41273.01
543.31	41081.08
543.48	40708.94
543.64	41776.22
543.81	41233.22
543.98	41385.35
544.15	40748.73
544.32	41130.23
544.48	41476.63
544.65	41638.13
544.82	41399.40
544.99	41090.44
545.16	40861.07
545.32	41284.71
545.49	41570.25
545.66	41656.85
545.83	41780.90
546.00	41467.27
546.16	41736.43
546.33	41572.60
546.50	41179.39
546.67	42319.23
546.83	41408.76
547.00	41708.35
547.17	41862.82
547.34	41710.69
547.50	41778.56
547.67	42225.60
547.84	42188.16
548.00	42305.18
548.17	42569.66
548.34	42185.82
548.51	41916.65
548.67	42206.88
548.84	42450.30
549.01	42445.62
549.18	41970.49
549.34	42258.37
549.51	42810.74
549.68	42436.25
549.84	42770.95
550.01	42864.57
550.18	42302.84
550.34	42487.74
550.51	42983.94
550.68	42660.94
550.84	42391.78
551.01	43208.63
551.18	43030.75
551.34	42850.53
551.51	42532.22
551.68	42581.37
551.84	42962.87
552.01	43061.18
552.18	42979.26
552.34	43000.32
552.51	43009.68
552.68	42855.21
552.84	43306.93
553.01	43215.65
553.18	43051.81
553.34	43405.23
553.51	43459.07
553.67	43086.92
553.84	43798.44
554.01	43700.14
554.17	43501.20
554.34	43688.44
554.51	43234.38
554.67	43667.37
554.84	44154.21
555.00	43463.75
555.17	43871.00
555.33	43526.94
555.50	43828.87
555.67	43459.07
555.83	43676.74
556.00	43892.07
556.16	44304.00
556.33	44418.69
556.50	44081.65
556.66	43995.05
556.83	43959.94
556.99	44100.37
557.16	44722.96
557.32	44357.83
557.49	44638.70
557.65	43889.73
557.82	43693.12
557.98	44238.47
558.15	44488.90
558.32	44657.42
558.48	43938.88
558.65	43817.17
558.81	44158.89
558.98	44486.56
559.14	44208.04
559.31	44526.35
559.47	44259.53
559.64	44662.10
559.80	44467.84
559.97	44421.03
560.13	44095.69
560.30	44669.12
560.46	44961.69
560.63	44418.69
560.79	44882.11
560.96	44980.42
561.12	44402.30
561.29	45230.85
561.45	44802.53
561.61	45158.30
561.78	44877.43
561.94	44734.66
562.11	44634.02
562.27	44964.03
562.44	44781.47
562.60	45099.78
562.77	44692.53
562.93	44781.47
563.10	45230.85
563.26	44832.96
563.42	45392.35
563.59	44727.64
563.75	44898.50
563.92	45099.78
564.08	44854.03
564.24	45202.77
564.41	45294.05
564.57	44900.84
564.74	45085.74
564.90	45074.04
565.07	44924.24
565.23	45006.16
565.39	45191.06
565.56	45343.20
565.72	44907.86
565.88	45701.30
566.05	44996.80
566.21	45233.19
566.38	45256.60
566.54	45813.65
566.70	45855.78
566.87	45715.34
567.03	44996.80
567.19	45820.67
567.36	45764.49
567.52	45202.77
567.68	46302.82
567.85	45631.08
568.01	45801.94
568.17	45226.17
568.34	45542.14
568.50	45713.00
568.66	45621.72
568.83	45586.61
568.99	45895.56
569.15	45736.41
569.32	45326.81
569.48	45392.35
569.64	45689.60
569.81	45565.55
569.97	45876.84
570.13	45951.74
570.30	45563.21
570.46	45808.96
570.62	45839.39
570.78	45766.84
570.95	45551.51
571.11	46150.68
571.27	45804.28
571.43	45521.08
571.60	45998.55
571.76	45326.81
571.92	45642.79
572.09	45642.79
572.25	45698.96
572.41	45846.41
572.57	45687.26
572.74	46146.00
572.90	45799.60
573.06	46033.66
573.22	46066.42
573.38	45834.71
573.55	46185.79
573.71	46267.71
573.87	46157.70
574.03	46380.06
574.20	46419.84
574.36	46120.26
574.52	46230.26
574.68	46012.59
574.84	46167.07
575.01	46031.32
575.17	46120.26
575.33	45886.20
575.49	46277.07
575.65	46036.00
575.82	46040.68
575.98	45689.60
576.14	46738.16
576.30	46007.91
576.46	46220.90
576.62	46209.20
576.79	46026.63
576.95	45783.22
577.11	45804.28
577.27	46026.63
577.43	45956.42
577.59	46445.59
577.75	46052.38
577.92	45837.05
578.08	46024.29
578.24	46181.11
578.40	46569.64
578.56	46073.45
578.72	46422.19
578.88	46075.79
579.04	46361.33
579.21	46366.01
579.37	46433.89
579.53	46487.72
579.69	46248.99
579.85	46246.65
580.01	46209.20
580.17	46768.58
580.33	46213.88
580.49	46480.70
580.65	46361.33
580.82	46684.33
580.98	46146.00
581.14	46108.55
581.30	46396.44
581.46	46146.00
581.62	46590.70
581.78	46373.03
581.94	46518.15
582.10	46380.06
582.26	46454.95
582.42	46181.11
582.58	46569.64
582.74	46328.56
582.90	46040.68
583.06	46824.76
583.22	46490.06
583.38	46609.43
583.54	46459.63
583.70	46335.59
583.86	46506.44
584.02	46167.07
584.18	46630.49
584.34	46630.49
584.50	47089.24
584.66	46504.10
584.82	46504.10
584.98	46499.42
585.14	46403.46
585.30	46433.89
585.46	46337.93
585.62	46375.37
585.78	46562.62
585.94	45890.88
586.10	46064.08
586.26	46316.86
586.42	46110.89
586.58	46452.61
586.74	46260.69
586.90	46520.49
587.06	46660.92
587.22	46789.65
587.38	46436.23
587.54	46649.22
587.70	46836.46
587.86	46295.80
588.02	46370.69
588.18	46394.10
588.34	46787.31
588.49	46597.73
588.65	46459.63
588.81	46513.47
588.97	46866.89
589.13	46248.99
589.29	47220.31
589.45	47175.84
589.61	47054.13
589.77	46993.28
589.93	46857.52
590.08	46621.13
590.24	46979.23
590.40	47260.10
590.56	47271.80
590.72	47084.56
590.88	46735.82
591.04	46405.80
591.20	46897.31
591.35	46670.28
591.51	47150.09
591.67	46988.60
591.83	47262.44
591.99	47145.41
592.15	47016.68
592.31	46981.57
592.46	46628.15
592.62	46902.00
592.78	46639.86
592.94	47026.04
593.10	47159.45
593.26	46972.21
593.41	47484.79
593.57	47138.39
593.73	46983.91
593.89	47447.34
594.05	47428.62
594.20	47061.15
594.36	47264.78
594.52	47199.24
594.68	47316.27
594.84	46946.47
594.99	47657.99
595.15	47131.37
595.31	47414.57
595.47	47224.99
595.62	47166.48
595.78	46946.47
595.94	47299.89
596.10	46962.85
596.25	47274.14
596.41	47634.58
596.57	46808.37
596.73	47306.91
596.88	47517.56
597.04	47016.68
597.20	47522.24
597.36	47550.32
597.51	47051.79
597.67	47028.38
597.83	47487.13
597.99	47442.66
598.14	47194.56
598.30	47178.18
598.46	47318.61
598.61	47634.58
598.77	47529.26
598.93	47557.35
599.09	47189.88
599.24	47749.27
599.40	47323.29
599.56	47459.04
599.71	47772.67
599.87	47702.46
600.03	47810.12
600.18	47491.81
600.34	47536.28
600.50	47250.74
600.65	47358.40
600.81	47775.02
600.97	47213.29
601.12	47466.06
601.28	47358.40
601.44	47491.81
601.59	47615.86
601.75	47295.21
601.91	47187.54
602.06	47730.54
602.22	47688.42
602.37	47611.18
602.53	47325.63
602.69	47538.62
602.84	47260.10
603.00	47056.47
603.16	47372.44
603.31	47351.38
603.47	47421.59
603.62	47372.44
603.78	47725.86
603.94	47358.40
604.09	47597.13
604.25	47487.13
604.40	47657.99
604.56	47346.70
604.71	47566.71
604.87	47196.90
605.03	46969.87
605.18	47061.15
605.34	47180.52
605.49	47159.45
605.65	47276.48
605.80	47138.39
605.96	47327.97
606.12	47220.31
606.27	47187.54
606.43	47395.85
606.58	47641.60
606.74	47288.18
606.89	47157.11
607.05	47447.34
607.20	47096.26
607.36	47480.11
607.51	47281.16
607.67	47229.67
607.82	47129.03
607.98	47545.64
608.13	47203.92
608.29	47400.53
608.44	47393.51
608.60	46934.76
608.75	47440.32
608.91	47196.90
609.06	46958.17
609.22	47250.74
609.37	47035.41
609.53	47751.61
609.68	47388.83
609.84	47063.49
609.99	47224.99
610.15	46763.90
610.30	47061.15
610.46	46775.61
610.61	46909.02
610.76	46951.15
610.92	46681.98
611.07	46925.40
611.23	46361.33
611.38	46763.90
611.54	47189.88
611.69	46960.51
611.84	47334.99
612.00	47334.99
612.15	46473.68
612.31	47239.03
612.46	46508.79
612.62	46780.29
612.77	46829.44
612.92	47019.02
613.08	46646.88
613.23	46927.74
613.39	46909.02
613.54	46555.60
613.69	46761.56
613.85	46759.22
614.00	46579.00
614.15	46946.47
614.31	46490.06
614.46	46794.33
614.62	46398.78
614.77	46784.97
614.92	46773.27
615.08	46731.14
615.23	46939.44
615.38	47140.73
615.54	46829.44
615.69	46649.22
615.84	46349.63
616.00	46658.58
616.15	46698.37
616.30	46307.50
616.46	46866.89
616.61	46686.67
616.76	46412.82
616.92	46148.34
617.07	46534.53
617.22	46639.86
617.37	46431.55
617.53	46557.94
617.68	46204.52
617.83	46351.97
617.99	46375.37
618.14	46492.40
618.29	46295.80
618.45	46375.37
618.60	46096.85
618.75	45968.12
618.90	45900.25
619.06	45975.14
619.21	46277.07
619.36	46548.57
619.51	46197.49
619.67	45834.71
619.82	46309.84
619.97	46223.24
620.12	46188.13
620.28	45514.06
620.43	46562.62
620.58	46019.61
620.73	46300.48
620.89	46178.77
621.04	46190.47
621.19	46204.52
621.34	45572.57
621.49	45783.22
621.65	45787.90
621.80	46248.99
621.95	46085.15
622.10	45865.14
622.25	45694.28
622.41	45865.14
622.56	46043.02
622.71	45614.70
622.86	45769.18
623.01	45916.63
623.16	45874.50
623.32	45780.88
623.47	45787.90
623.62	45340.86
623.77	45979.82
623.92	45846.41
624.07	45689.60
624.23	45741.09
624.38	45453.20
624.53	45511.72
624.68	45340.86
624.83	45607.68
624.98	45450.86
625.13	45411.07
625.29	45301.07
625.44	45752.79
625.59	45457.88
625.74	45329.16
625.89	45106.80
626.04	45027.23
626.19	45378.31
626.34	45071.70
626.49	44903.18
626.65	44753.38
626.80	44945.31
626.95	45181.70
627.10	44870.41
627.25	45207.45
627.40	45303.41
627.55	45041.27
627.70	44648.06
627.85	45242.56
628.00	45172.34
628.15	44641.04
628.30	44587.21
628.45	44575.50
628.60	44636.36
628.76	44327.41
628.91	45226.17
629.06	44650.40
629.21	44748.70
629.36	44296.98
629.51	44208.04
629.66	44835.30
629.81	44645.72
629.96	44638.70
630.11	44713.59
630.26	44711.25
630.41	44369.54
630.56	44191.65
630.71	44229.10
630.86	44528.69
631.01	43931.86
631.16	44208.04
631.31	44432.73
631.46	44470.18
631.61	44624.65
631.76	44128.46
631.91	44502.95
632.06	44505.29
632.21	44332.09
632.36	44650.40
632.51	43672.06
632.66	44362.51
632.81	43908.45
632.96	43969.30
633.10	43566.73
633.25	44112.08
633.40	44341.45
633.55	44531.03
633.70	44105.06
633.85	44477.20
634.00	43690.78
634.15	43835.89
634.30	43854.62
634.45	43777.38
634.60	44083.99
634.75	43896.75
634.90	43835.89
635.05	44219.74
635.19	43711.84
635.34	43814.83
635.49	43634.61
635.64	43435.66
635.79	43924.83
635.94	43756.32
636.09	43978.67
636.24	43225.01
636.39	43868.66
636.53	43515.24
636.68	43103.31
636.83	43164.16
636.98	43550.35
637.13	43391.19
637.28	43545.67
637.43	43365.45
637.57	43313.95
637.72	43206.29
637.87	43370.13
638.02	43665.03
638.17	43133.73
638.32	43309.27
638.46	42714.78
638.61	42906.70
638.76	43182.88
638.91	43051.81
639.06	43012.02
639.20	42546.26
639.35	42773.29
639.50	42534.56
639.65	43316.29
639.80	43182.88
639.94	42773.29
640.09	43320.98
640.24	43187.56
640.39	42651.58
640.54	42504.13
640.68	42649.24
640.83	43349.06
640.98	43122.03
641.13	42616.47
641.27	42869.25
641.42	42852.87
641.57	42974.58
641.72	42532.22
641.86	42211.56
642.01	42492.43
642.16	42487.74
642.31	42059.43
642.45	42483.06
642.60	41991.55
642.75	42674.99
642.90	42593.07
643.04	42745.20
643.19	42223.26
643.34	42256.03
643.48	42068.79
643.63	42026.66
643.78	42103.90
643.93	42529.87
644.07	42330.93
644.22	42431.57
644.37	42319.23
644.51	42588.39
644.66	42347.31
644.81	42024.32
644.95	42220.92
645.10	41876.86
645.25	42005.59
645.39	41858.14
645.54	42185.82
645.69	41869.84
645.83	41993.89
645.98	41638.13
646.13	41654.51
646.27	41411.10
646.42	41455.57
646.57	41677.92
646.71	41846.44
646.86	42279.44
647.00	41530.47
647.15	41736.43
647.30	41773.88
647.44	41228.54
647.59	41661.54
647.74	41436.84
647.88	41656.85
648.03	41848.78
648.17	42054.75
648.32	41961.12
648.47	41982.19
648.61	41483.66
648.76	41364.29
648.90	41139.60
649.05	41546.85
649.20	41406.42
649.34	41462.59
649.49	41415.78
649.63	41691.96
649.78	41085.76
649.92	41748.14
650.07	41834.74
650.21	41794.95
650.36	41244.92
650.51	41446.21
650.65	41240.24
650.80	41118.53
650.94	41235.56
651.09	41074.06
651.23	40697.24
651.38	40781.49
651.52	41074.06
651.67	40978.10
651.81	40828.30
651.96	40921.93
652.10	40863.41
652.25	41041.29
652.39	40748.73
652.54	41045.97
652.68	41076.40
652.83	41081.08
652.97	40746.39
653.12	40624.68
653.26	40737.02
653.41	41050.66
653.55	40900.86
653.70	40755.75
653.84	40905.54
653.99	40678.51
654.13	40542.76
654.27	40577.87
654.42	40912.56
654.56	40620.00
654.71	40957.03
654.85	40526.38
655.00	40542.76
655.14	40348.50
655.29	40832.99
655.43	40275.94
655.57	40198.70
655.72	40566.16
655.86	40252.53
656.01	40587.23
656.15	40196.36
656.30	40428.07
656.44	40140.19
656.58	40233.81
656.73	40444.46
656.87	40325.09
657.01	39849.96
657.16	40385.94
657.30	39702.51
657.45	39817.19
657.59	39613.57
657.73	39271.85
657.88	39770.38
658.02	40018.48
658.16	40268.92
658.31	39913.16
658.45	39929.54
658.60	39742.30
658.74	40463.18
658.88	40170.61
659.03	39536.33
659.17	39283.55
659.31	39295.25
659.46	39398.24
659.60	39864.00
659.74	39145.46
659.89	39517.60
660.03	39096.31
660.17	39550.37
660.32	39615.91
660.46	39210.99
660.60	38810.76
660.74	39461.43
660.89	39498.88
661.03	38628.20
661.17	38733.53
661.32	38635.22
661.46	38960.56
661.60	38916.09
661.74	38466.70
661.89	38707.78
662.03	39143.12
662.17	38323.93
662.31	38504.15
662.46	39044.82
662.60	38176.48
662.74	38057.11
662.88	38258.40
663.03	37729.44
663.17	37823.06
663.31	38251.38
663.45	38345.00
663.60	38499.47
663.74	38160.09
663.88	38562.67
664.02	37691.99
664.17	38190.52
664.31	37354.95
664.45	37851.14
664.59	37661.56
664.73	37771.57
664.88	37897.95
665.02	37544.53
665.16	37605.39
665.30	37888.59
665.44	37476.66
665.59	36964.08
665.73	37500.06
665.87	36685.56
666.01	37254.31
666.15	37493.04
666.29	37184.09
666.44	37703.69
666.58	36973.44
666.72	37038.98
666.86	37226.22
667.00	36863.44
667.14	36620.02
667.28	36470.23
667.43	36793.22
667.57	36678.54
667.71	37010.89
667.85	36795.56
667.99	36582.57
668.13	36341.50
668.27	36156.60
668.41	36067.66
668.56	36079.36
668.70	35936.59
668.84	36203.41
668.98	35770.41
669.12	35971.69
669.26	35777.43
669.40	35709.55
669.54	36098.08
669.68	35868.71
669.82	35929.56
669.96	35246.13
670.10	35409.96
670.25	35105.70
670.39	35412.31
670.53	35175.91
670.67	35456.78
670.81	35604.23
670.95	35335.07
671.09	35110.38
671.23	35063.57
671.37	35098.67
671.51	34759.30
671.65	35033.14
671.79	35014.41
671.93	34836.53
672.07	34983.99
672.21	34586.10
672.35	34440.98
672.49	34476.09
672.63	34300.55
672.77	34127.35
672.91	34597.80
673.05	33848.83
673.19	34031.39
673.33	33991.60
673.47	33839.47
673.61	33479.02
673.75	33462.64
673.89	33734.14
674.03	33289.44
674.17	33329.23
674.31	33560.94
674.45	32950.06
674.59	32938.36
674.73	33249.65
674.87	33350.29
675.01	32678.56
675.15	32687.92
675.29	32505.36
675.43	32474.93
675.56	32713.67
675.70	32903.25
675.84	32573.24
675.98	31505.95
676.12	32081.72
676.26	32325.14
676.40	32271.31
676.54	31756.39
676.68	31887.46
676.82	30984.01
676.96	31915.54
677.10	32086.40
677.23	31922.57
677.37	31906.18
677.51	31747.03
677.65	31393.61
677.79	31323.39
677.93	31285.94
678.07	31005.08
678.21	31037.84
678.34	30548.67
678.48	30583.78
678.62	31037.84
678.76	30375.47
678.90	30387.18
679.04	30764.00
679.18	30342.70
679.31	30073.54
679.45	29879.28
679.59	30099.29
679.73	29928.43
679.87	29720.12
680.00	29715.44
680.14	29586.71
680.28	29846.51
680.42	29476.71
680.56	29551.60
680.70	29167.76
680.83	29029.66
680.97	28709.01
681.11	29273.08
681.25	29235.63
681.39	28797.95
681.52	28603.69
681.66	28470.28
681.80	28013.87
681.94	28077.07
682.07	28177.71
682.21	28107.49
682.35	28268.99
682.49	28086.43
682.62	28088.77
682.76	28276.01
682.90	27733.01
683.04	27983.44
683.17	28219.84
683.31	27498.95
683.45	27344.48
683.59	27257.88
683.72	27395.97
683.86	26808.50
684.00	26742.96
684.13	26946.59
684.27	26618.91
684.41	26874.03
684.55	26817.86
684.68	26178.89
684.82	26455.08
684.96	26197.62
685.09	26459.76
685.23	26005.69
685.37	26733.60
685.50	26068.89
685.64	26361.45
685.78	25970.58
685.91	25937.82
686.05	25472.05
686.19	25401.83
686.32	25420.56
686.46	25329.28
686.60	24505.41
686.73	25207.57
686.87	25060.12
687.01	25312.89
687.14	25067.14
687.28	24870.53
687.42	24737.12
687.55	24566.26
687.69	24507.75
687.82	24294.76
687.96	24388.38
688.10	24273.70
688.23	24489.03
688.37	24489.03
688.50	24020.92
688.64	24046.66
688.78	23573.88
688.91	23908.57
689.05	23695.58
689.18	23590.26
689.32	22918.53
689.46	23222.80
689.59	23339.82
689.73	23356.21
689.86	23318.76
690.00	23012.15
690.13	23014.49
690.27	22925.55
690.41	22841.29
690.54	22256.15
690.68	22761.71
690.81	22085.30
690.95	22239.77
691.08	22129.77
691.22	21944.86
691.35	22017.42
691.49	21989.33
691.62	22286.58
691.76	21692.08
691.89	21542.29
692.03	21312.92
692.16	21221.64
692.30	21516.54
692.43	21069.50
692.57	20973.54
692.70	20992.26
692.84	21198.23
692.97	20727.78
693.11	20608.42
693.24	20814.38
693.38	20659.91
693.51	20386.07
693.65	20395.43
693.78	20533.52
693.92	20264.36
694.05	19983.49
694.19	20304.15
694.32	20173.08
694.45	20063.07
694.59	20175.42
694.72	20252.66
694.86	19531.77
694.99	19510.71
695.13	19295.38
695.26	19716.67
695.39	19370.27
695.53	19271.97
695.66	19159.63
695.80	19225.16
695.93	19087.07
696.07	19154.94
696.20	18869.40
696.33	18544.06
696.47	18523.00
696.60	18462.15
696.73	18726.63
696.87	18995.79
697.00	18101.70
697.14	18314.69
697.27	18218.73
697.40	17921.48
697.54	17799.77
697.67	18129.79
697.80	18111.07
697.94	17907.44
698.07	17685.09
698.21	17734.24
698.34	17692.11
698.47	17425.29
698.61	17097.61
698.74	17270.81
698.87	17032.08
699.01	17163.15
699.14	17326.99
699.27	17118.68
699.40	16905.69
699.54	16877.60
699.67	16615.46
699.80	16688.02
699.94	16594.40
700.07	16606.10
700.20	16704.40
700.34	16320.56
700.47	16549.93
700.60	16269.06
700.73	16182.46
700.87	16145.02
701.00	15840.75
701.13	15817.34
701.26	15765.85
701.40	15868.83
701.53	15564.56
701.66	15602.01
701.79	15576.27
701.93	15246.25
702.06	15276.68
702.19	15197.10
702.32	15290.72
702.46	15033.26
702.59	15279.02
702.72	15330.51
702.85	15180.71
702.99	15129.22
703.12	14813.25
703.25	14780.48
703.38	14689.20
703.51	14520.68
703.65	14406.00
703.78	14356.85
703.91	14225.78
704.04	14384.93
704.17	14087.68
704.31	14101.73
704.44	13994.06
704.57	14001.08
704.70	14061.94
704.83	13820.86
704.96	13825.54
705.10	13371.48
705.23	13673.41
>>>>>End Processed Spectral Data<<<<<
