SpectraSuite Data File
++++++++++++++++++++++++++++++++++++
Date: Fri Oct 25 10:47:30 EDT 2013
User: price-jones
Dark Spectrum Present: No
Reference Spectrum Present: No
Number of Sampled Component Spectra: 1
Spectrometers: USB2+H05261
Integration Time (usec): 100000 (USB2+H05261)
Spectra Averaged: 1 (USB2+H05261)
Boxcar Smoothing: 0 (USB2+H05261)
Correct for Electrical Dark: No (USB2+H05261)
Strobe/Lamp Enabled: No (USB2+H05261)
Correct for Detector Non-linearity: No (USB2+H05261)
Correct for Stray Light: No (USB2+H05261)
Number of Pixels in Processed Spectrum: 2048
>>>>>Begin Processed Spectral Data<<<<<
365.73	114.69
365.92	114.69
366.12	114.69
366.32	44.47
366.52	60.85
366.72	35.11
366.91	74.90
367.11	98.30
367.31	0.00
367.51	0.00
367.70	91.28
367.90	88.94
368.10	74.90
368.30	112.35
368.49	65.54
368.69	93.62
368.89	77.24
369.09	16.38
369.28	37.45
369.48	110.01
369.68	91.28
369.87	98.30
370.07	149.79
370.27	121.71
370.47	250.44
370.66	442.36
370.86	322.99
371.06	454.06
371.25	477.47
371.45	386.19
371.65	440.02
371.84	428.32
372.04	533.64
372.24	454.06
372.44	444.70
372.63	440.02
372.83	505.56
373.03	496.19
373.22	547.69
373.42	449.38
373.62	475.13
373.81	538.32
374.01	489.17
374.21	543.00
374.40	510.24
374.60	561.73
374.79	440.02
374.99	456.40
375.19	526.62
375.38	498.53
375.58	603.86
375.78	491.51
375.97	521.94
376.17	603.86
376.37	554.71
376.56	517.26
376.76	638.97
376.95	547.69
377.15	587.47
377.35	620.24
377.54	578.11
377.74	599.18
377.93	601.52
378.13	620.24
378.33	671.73
378.52	573.43
378.72	608.54
378.91	582.79
379.11	599.18
379.31	620.24
379.50	613.22
379.70	685.78
379.89	671.73
380.09	655.35
380.28	559.39
380.48	709.18
380.68	568.75
380.87	528.96
381.07	610.88
381.26	582.79
381.46	681.10
381.65	660.03
381.85	702.16
382.04	603.86
382.24	704.50
382.43	713.86
382.63	645.99
382.83	692.80
383.02	730.25
383.22	716.20
383.41	681.10
383.61	702.16
383.80	674.07
384.00	711.52
384.19	704.50
384.39	730.25
384.58	828.55
384.78	755.99
384.97	823.87
385.17	690.46
385.36	634.29
385.56	695.14
385.75	739.61
385.95	746.63
386.14	779.40
386.34	807.48
386.53	739.61
386.72	802.80
386.92	781.74
387.11	814.51
387.31	805.14
387.50	837.91
387.70	826.21
387.89	772.38
388.09	795.78
388.28	770.04
388.48	798.12
388.67	891.74
388.86	760.67
389.06	877.70
389.25	966.64
389.45	908.13
389.64	816.85
389.84	873.02
390.03	1004.09
390.22	901.11
390.42	844.93
390.61	898.77
390.81	922.17
391.00	924.51
391.19	940.90
391.39	966.64
391.58	1004.09
391.78	947.92
391.97	990.05
392.16	894.08
392.36	1025.15
392.55	1004.09
392.75	978.34
392.94	943.24
393.13	966.64
393.33	997.07
393.52	896.43
393.71	973.66
393.91	882.38
394.10	990.05
394.29	980.68
394.49	1013.45
394.68	1020.47
394.88	1053.24
395.07	1074.31
395.26	1088.35
395.46	1004.09
395.65	1128.14
395.84	1172.61
396.04	1170.27
396.23	1100.05
396.42	1114.10
396.62	1074.31
396.81	1160.91
397.00	1107.07
397.19	1210.06
397.39	1118.78
397.58	1207.72
397.77	1296.66
397.97	1163.25
398.16	1299.00
398.35	1228.78
398.55	1289.64
398.74	1329.42
398.93	1289.64
399.12	1240.48
399.32	1174.95
399.51	1343.47
399.70	1261.55
399.90	1303.68
400.09	1423.05
400.28	1434.75
400.47	1418.36
400.67	1387.94
400.86	1373.89
401.05	1383.26
401.24	1401.98
401.44	1378.58
401.63	1364.53
401.82	1336.45
402.01	1430.07
402.21	1479.22
402.40	1540.07
402.59	1441.77
402.78	1507.30
402.97	1465.18
403.17	1519.01
403.36	1507.30
403.55	1472.20
403.74	1516.67
403.93	1572.84
404.13	1586.88
404.32	1654.76
404.51	1577.52
404.70	1715.61
404.89	1626.67
405.09	1715.61
405.28	1703.91
405.47	1666.46
405.66	1757.74
405.85	1689.87
406.05	1762.42
406.24	1685.19
406.43	1659.44
406.62	1696.89
406.81	1820.94
407.00	1886.47
407.20	1762.42
407.39	1769.44
407.58	1849.02
407.77	1949.67
407.96	1837.32
408.15	1827.96
408.34	1933.28
408.54	1947.33
408.73	1923.92
408.92	1973.07
409.11	1987.11
409.30	1893.49
409.49	1982.43
409.68	2012.86
409.87	2012.86
410.07	1947.33
410.26	2017.54
410.45	2015.20
410.64	2127.55
410.83	2101.80
411.02	2176.70
411.21	2115.84
411.40	2090.10
411.59	2188.40
411.78	2284.36
411.98	2169.68
412.17	2352.24
412.36	2272.66
412.55	2340.54
412.74	2396.71
412.93	2331.17
413.12	2249.25
413.31	2530.12
413.50	2352.24
413.69	2544.16
413.88	2459.90
414.07	2438.84
414.26	2544.16
414.45	2492.67
414.64	2605.02
414.83	2525.44
415.02	2532.46
415.22	2785.24
415.41	2729.06
415.60	2750.13
415.79	2750.13
415.98	2722.04
416.17	2867.16
416.36	2766.51
416.55	2677.57
416.74	2766.51
416.93	2848.43
417.12	2780.56
417.31	2853.11
417.50	2956.10
417.69	3117.59
417.88	2909.29
418.07	2965.46
418.26	2918.65
418.45	2920.99
418.64	3155.04
418.83	3021.63
419.02	3005.25
419.21	3169.09
419.39	3045.04
419.58	3052.06
419.77	3126.96
419.96	3141.00
420.15	3286.11
420.34	3227.60
420.53	3220.58
420.72	3232.28
420.91	3243.98
421.10	3342.28
421.29	3276.75
421.48	3311.86
421.67	3342.28
421.86	3246.32
422.05	3365.69
422.24	3356.33
422.43	3314.20
422.61	3323.56
422.80	3475.70
422.99	3391.44
423.18	3496.76
423.37	3480.38
423.56	3480.38
423.75	3382.07
423.94	3456.97
424.13	3201.85
424.32	3356.33
424.50	3536.55
424.69	3445.27
424.88	3438.25
425.07	3368.03
425.26	3475.70
425.45	3389.10
425.64	3363.35
425.83	3424.20
426.01	3517.83
426.20	3480.38
426.39	3545.91
426.58	3494.42
426.77	3508.46
426.96	3630.17
427.15	3468.67
427.33	3562.30
427.52	3438.25
427.71	3707.41
427.90	3700.39
428.09	3669.96
428.28	3646.55
428.46	3684.00
428.65	3651.24
428.84	3913.38
429.03	3913.38
429.22	3700.39
429.40	3623.15
429.59	3808.05
429.78	3513.14
429.97	3585.70
430.16	3679.32
430.34	3735.50
430.53	3822.09
430.72	3735.50
430.91	3868.91
431.10	3733.15
431.28	3974.23
431.47	4046.79
431.66	4105.30
431.85	3899.33
432.03	4154.45
432.22	4079.55
432.41	4035.08
432.60	4060.83
432.79	4173.18
432.97	4325.31
433.16	4100.62
433.35	3981.25
433.54	4100.62
433.72	4163.81
433.91	4067.85
434.10	4252.75
434.28	4044.45
434.47	4273.82
434.66	4292.54
434.85	4360.42
435.03	4386.16
435.22	4283.18
435.41	4512.55
435.59	4627.24
435.78	4454.04
435.97	4454.04
436.16	4451.70
436.34	4470.42
436.53	4589.79
436.72	4568.73
436.90	4372.12
437.09	4557.02
437.28	4414.25
437.46	4533.62
437.65	4479.79
437.84	4683.41
438.02	4596.81
438.21	4690.43
438.40	4550.00
438.58	4580.43
438.77	4819.16
438.96	4702.14
439.14	4924.49
439.33	5013.43
439.52	4713.84
439.70	4870.65
439.89	4917.47
440.08	5071.94
440.26	4901.08
440.45	4961.94
440.63	5090.67
440.82	5217.05
441.01	5149.18
441.19	5144.50
441.38	5282.59
441.57	5109.39
441.75	5451.11
441.94	5624.31
442.12	5509.62
442.31	5540.05
442.50	5544.73
442.68	5521.32
442.87	5617.29
443.05	5483.88
443.24	5722.61
443.43	5668.78
443.61	5650.05
443.80	5734.31
443.98	5603.24
444.17	5439.40
444.35	5575.16
444.54	5657.07
444.73	5572.82
444.91	5650.05
445.10	5645.37
445.28	5537.71
445.47	5596.22
445.65	5607.92
445.84	5865.38
446.02	5746.02
446.21	5792.83
446.39	5757.72
446.58	5806.87
446.77	5788.14
446.95	5500.26
447.14	5741.33
447.32	5757.72
447.51	5720.27
447.69	5699.20
447.88	5788.14
448.06	5895.81
448.25	5858.36
448.43	5834.96
448.62	5734.31
448.80	5858.36
448.99	5930.92
449.17	6064.33
449.36	5839.64
449.54	6061.99
449.73	6160.29
449.91	6136.88
450.10	6150.93
450.28	6211.78
450.46	6218.80
450.65	6361.58
450.83	6125.18
451.02	6242.21
451.20	6239.87
451.39	6370.94
451.57	6249.23
451.76	6143.91
451.94	6256.25
452.13	6480.94
452.31	6338.17
452.49	6225.82
452.68	6387.32
452.86	6317.11
453.05	6363.92
453.23	6473.92
453.42	6352.21
453.60	6359.24
453.78	6445.84
453.97	6511.37
454.15	6417.75
454.34	6345.19
454.52	6626.06
454.70	6626.06
454.89	6642.44
455.07	6583.93
455.26	6682.23
455.44	6534.78
455.62	6771.17
455.81	6736.06
455.99	6705.63
456.17	6806.28
456.36	6862.45
456.54	6981.82
456.73	6986.50
456.91	7087.14
457.09	7066.08
457.28	7054.37
457.46	6986.50
457.64	7171.40
457.83	7148.00
458.01	7117.57
458.19	7300.13
458.38	7035.65
458.56	7215.87
458.74	7269.70
458.93	7138.63
459.11	7218.21
459.29	7199.49
459.48	7398.43
459.66	7176.08
459.84	7243.96
460.03	7438.22
460.21	7400.77
460.39	7435.88
460.57	7419.50
460.76	7588.02
460.94	7522.48
461.12	7527.16
461.31	7534.18
461.49	7548.23
461.67	7492.05
461.85	7503.76
462.04	7508.44
462.22	8163.79
462.40	7805.69
462.59	7833.77
462.77	7777.60
462.95	7843.14
463.13	7915.69
463.32	7683.98
463.50	7885.26
463.68	7896.97
463.86	8159.11
464.05	7868.88
464.23	7911.01
464.41	8011.65
464.59	7831.43
464.78	8245.71
464.96	7857.18
465.14	8149.75
465.32	7976.55
465.50	8126.34
465.69	8241.03
465.87	8070.17
466.05	8079.53
466.23	8212.94
466.41	8063.15
466.60	8383.80
466.78	8133.36
466.96	8063.15
467.14	8224.64
467.32	8217.62
467.51	8442.31
467.69	8077.19
467.87	8276.13
468.05	8252.73
468.23	8308.90
468.41	8449.33
468.60	8388.48
468.78	8177.83
468.96	8404.86
469.14	8510.19
469.32	8575.72
469.50	8376.78
469.69	8659.98
469.87	8814.46
470.05	8753.60
470.23	8643.60
470.41	8748.92
470.59	8697.43
470.77	8711.47
470.95	8739.56
471.14	8940.85
471.32	8943.19
471.50	9020.42
471.68	9034.47
471.86	9158.52
472.04	9090.64
472.22	9167.88
472.40	9090.64
472.58	9245.12
472.77	9343.42
472.95	9238.09
473.13	9397.25
473.31	9437.04
473.49	9430.02
473.67	9294.27
473.85	9493.21
474.03	9774.08
474.21	9612.58
474.39	9680.46
474.57	9724.93
474.75	9827.91
474.93	9984.73
475.12	10064.30
475.30	9813.87
475.48	9933.23
475.66	10076.01
475.84	9968.34
476.02	10076.01
476.20	10279.63
476.38	10307.72
476.56	10527.73
476.74	10513.69
476.92	10354.53
477.10	10340.49
477.28	10803.91
477.46	10656.46
477.64	10700.93
477.82	10721.99
478.00	11162.01
478.18	11250.96
478.36	11192.44
478.54	11136.27
478.72	11344.58
478.90	11447.56
479.08	11564.59
479.26	11665.23
479.44	11775.24
479.62	11779.92
479.80	11934.39
479.98	11992.90
480.16	12086.53
480.34	11988.22
480.52	12306.54
480.70	12241.00
480.88	12056.10
481.06	12397.82
481.24	12355.69
481.41	12683.36
481.59	12706.77
481.77	12676.34
481.95	12753.58
482.13	12751.24
482.31	13006.36
482.49	13294.24
482.67	13387.86
482.85	13355.10
483.03	13474.46
483.21	13617.24
483.39	13628.94
483.57	13834.91
483.74	13809.16
483.92	13748.31
484.10	13912.14
484.28	14054.92
484.46	14118.11
484.64	14438.76
484.82	14354.51
485.00	14485.58
485.18	14740.69
485.35	14904.53
485.53	14686.86
485.71	14700.90
485.89	14932.62
486.07	14977.09
486.25	15066.03
486.43	15339.87
486.61	15520.09
486.78	15545.84
486.96	15716.70
487.14	15779.89
487.32	16006.92
487.50	16290.13
487.68	16343.96
487.85	16477.37
488.03	16699.72
488.21	16617.80
488.39	16566.31
488.57	16617.80
488.75	17057.82
488.92	16959.52
489.10	17355.07
489.28	17329.33
489.46	17635.94
489.64	17322.30
489.81	17841.90
489.99	18036.17
490.17	18029.15
490.35	18464.49
490.53	18235.11
490.70	18408.31
490.88	18424.70
491.06	18890.46
491.24	18778.12
491.41	18754.71
491.59	19037.92
491.77	18988.77
491.95	18984.09
492.13	19068.34
492.30	19243.88
492.48	19484.96
492.66	19461.55
492.84	19431.13
493.01	19819.66
493.19	19988.18
493.37	19894.55
493.54	20037.33
493.72	20381.38
493.90	20252.66
494.08	20437.56
494.25	20606.08
494.43	20980.56
494.61	20821.41
494.79	21221.64
494.96	20849.49
495.14	20947.79
495.32	20900.98
495.49	21490.80
495.67	21832.52
495.85	21593.78
496.02	21891.03
496.20	21844.22
496.38	21865.28
496.55	21954.22
496.73	22551.06
496.91	22338.07
497.09	22562.76
497.26	22717.24
497.44	22663.41
497.62	22883.42
497.79	22677.45
497.97	22679.79
498.14	23035.55
498.32	23550.47
498.50	23353.87
498.67	23637.07
498.85	23398.34
499.03	23709.63
499.20	23756.44
499.38	23632.39
499.56	23531.75
499.73	24030.28
499.91	23819.63
500.08	24123.90
500.26	23733.03
500.44	24126.24
500.61	24273.70
500.79	24161.35
500.97	24634.14
501.14	24493.71
501.32	24584.99
501.49	24732.44
501.67	24503.07
501.84	24858.83
502.02	25022.67
502.20	25266.08
502.37	25469.71
502.55	24996.92
502.72	25572.69
502.90	25443.96
503.07	25635.89
503.25	25600.78
503.43	25397.15
503.60	25891.01
503.78	25706.10
503.95	26080.59
504.13	25972.92
504.30	26197.62
504.48	25834.83
504.65	26214.00
504.83	26682.11
505.01	26478.48
505.18	26146.12
505.36	26815.52
505.53	26494.86
505.71	26857.65
505.88	26916.16
506.06	26529.97
506.23	26913.82
506.41	26845.94
506.58	27353.84
506.76	27250.86
506.93	27302.35
507.11	27098.72
507.28	27353.84
507.46	27407.67
507.63	27344.48
507.81	28154.30
507.98	27426.40
508.16	27908.55
508.33	27653.43
508.50	28151.96
508.68	28240.90
508.85	28273.67
509.03	28252.61
509.20	28489.00
509.38	28381.34
509.55	28390.70
509.73	28711.35
509.90	28769.86
510.08	28542.83
510.25	28594.32
510.42	29095.20
510.60	28889.23
510.77	29048.39
510.95	29020.30
511.12	29385.43
511.30	29322.23
511.47	29612.46
511.64	29355.00
511.82	29542.24
511.99	29556.28
512.17	29514.16
512.34	29523.52
512.51	29912.05
512.69	30087.59
512.86	30045.46
513.04	30211.64
513.21	30213.98
513.38	30349.73
513.56	29937.79
513.73	30099.29
513.90	30197.59
514.08	30543.99
514.25	30349.73
514.43	30595.48
514.60	30494.84
514.77	30761.66
514.95	30560.37
515.12	30663.36
515.29	30780.39
515.47	31381.90
515.64	31543.40
515.81	30862.30
515.99	31276.58
516.16	31379.56
516.33	31019.12
516.51	31171.25
516.68	31241.47
516.85	31264.88
517.03	31681.49
517.20	31433.39
517.37	31454.46
517.54	31676.81
517.72	31723.62
517.89	31777.45
518.06	31683.83
518.24	31597.23
518.41	31845.33
518.58	31735.32
518.75	31777.45
518.93	32208.11
519.10	32451.53
519.27	32414.08
519.45	32521.74
519.62	32617.71
519.79	32568.55
519.96	32343.86
520.14	32627.07
520.31	32582.60
520.48	33013.26
520.65	33120.92
520.83	32898.57
521.00	33329.23
521.17	33027.30
521.34	33280.08
521.52	33546.90
521.69	32996.87
521.86	33703.71
522.03	33399.44
522.20	33553.92
522.38	33703.71
522.55	33661.58
522.72	33645.20
522.89	33811.38
523.07	33848.83
523.24	34003.30
523.41	34010.32
523.58	33844.15
523.75	34644.61
523.92	34078.20
524.10	34279.49
524.27	34080.54
524.44	34684.40
524.61	34492.47
524.78	34291.19
524.96	34808.45
525.13	34749.93
525.30	35227.40
525.47	34635.25
525.64	34815.47
525.81	34881.00
525.98	34745.25
526.16	34895.05
526.33	34623.54
526.50	35431.03
526.67	35250.81
526.84	34593.12
527.01	34670.36
527.18	35138.46
527.36	35119.74
527.53	35711.89
527.70	36025.53
527.87	35873.39
528.04	35297.62
528.21	35597.21
528.38	35459.12
528.55	35770.41
528.72	36479.59
528.89	36123.83
529.07	35718.92
529.24	35976.37
529.41	36540.44
529.58	35665.08
529.75	35915.52
529.92	36088.72
530.09	36065.31
530.26	36385.97
530.43	36266.60
530.60	35955.31
530.77	35945.95
530.94	36147.23
531.11	36318.09
531.28	36699.60
531.46	36950.04
531.63	36875.14
531.80	37074.09
531.97	36809.61
532.14	36755.77
532.31	36858.76
532.48	36964.08
532.65	37156.00
532.82	36737.05
532.99	36765.14
533.16	36992.17
533.33	37165.37
533.50	37500.06
533.67	37427.51
533.84	37394.74
534.01	37261.33
534.18	37050.68
534.35	37544.53
534.52	37188.77
534.69	37450.91
534.86	37766.88
535.03	37570.28
535.20	38089.88
535.37	38405.85
535.54	38115.62
535.71	37677.94
535.88	37933.06
536.05	37907.32
536.22	38075.84
536.38	37699.01
536.55	37930.72
536.72	37757.52
536.89	38099.24
537.06	38101.58
537.23	38092.22
537.40	38026.68
537.57	38246.69
537.74	38328.61
537.91	38653.95
538.08	38508.83
538.25	38204.56
538.42	37968.17
538.59	39063.54
538.75	38300.53
538.92	38033.71
539.09	38726.50
539.26	38850.55
539.43	38944.17
539.60	39215.68
539.77	38698.42
539.94	38941.83
540.11	38780.34
540.28	38911.41
540.44	38944.17
540.61	38792.04
540.78	38911.41
540.95	38843.53
541.12	38883.32
541.29	38988.64
541.46	38976.94
541.62	39262.49
541.79	39077.58
541.96	39232.06
542.13	39096.31
542.30	39311.64
542.47	39655.70
542.63	39225.04
542.80	39416.96
542.97	40257.21
543.14	40332.11
543.31	39732.93
543.48	39948.26
543.64	40320.41
543.81	40285.30
543.98	39950.60
544.15	40041.88
544.32	40250.19
544.48	40229.13
544.65	40282.96
544.82	40341.47
544.99	39620.59
545.16	39936.56
545.32	40308.71
545.49	40449.14
545.66	40823.62
545.83	40802.56
546.00	40748.73
546.16	40718.30
546.33	40301.68
546.50	40130.83
546.67	40886.82
546.83	40409.35
547.00	40432.75
547.17	40732.34
547.34	40781.49
547.50	40795.54
547.67	41024.91
547.84	40849.37
548.00	41127.89
548.17	41050.66
548.34	41076.40
548.51	41095.13
548.67	41074.06
548.84	41240.24
549.01	41273.01
549.18	41277.69
549.34	41134.92
549.51	41551.53
549.68	41249.60
549.84	41408.76
550.01	41544.51
550.18	41495.36
550.34	41619.41
550.51	41507.06
550.68	41486.00
550.84	40814.26
551.01	41469.61
551.18	41361.95
551.34	41399.40
551.51	41701.32
551.68	41696.64
551.84	42150.71
552.01	41212.15
552.18	41645.15
552.34	41448.55
552.51	41462.59
552.68	42192.84
552.84	41762.18
553.01	42120.28
553.18	41808.99
553.34	42094.53
553.51	41869.84
553.67	42031.34
553.84	42389.44
554.01	42174.11
554.17	42298.16
554.34	42445.62
554.51	42281.78
554.67	42864.57
554.84	42536.90
555.00	42284.12
555.17	42038.36
555.33	42319.23
555.50	42033.68
555.67	42471.36
555.83	42579.03
556.00	42232.63
556.16	42712.44
556.33	42511.15
556.50	42525.19
556.66	42897.34
556.83	42181.13
556.99	42572.00
557.16	42852.87
557.32	42192.84
557.49	42946.49
557.65	42429.23
557.82	42499.45
557.98	42562.64
558.15	42747.54
558.32	43122.03
558.48	43161.82
558.65	42834.14
558.81	42988.62
558.98	42787.33
559.14	42955.85
559.31	43103.31
559.47	42628.18
559.64	43470.77
559.80	42431.57
559.97	43164.16
560.13	42674.99
560.30	43002.66
560.46	43117.35
560.63	42958.19
560.79	43152.46
560.96	43339.70
561.12	43019.05
561.29	43136.07
561.45	43283.53
561.61	43309.27
561.78	43164.16
561.94	43096.28
562.11	43005.00
562.27	42997.98
562.44	43222.67
562.60	43381.83
562.77	43278.85
562.93	43086.92
563.10	43215.65
563.26	43187.56
563.42	43433.32
563.59	43438.00
563.75	43402.89
563.92	43665.03
564.08	43395.87
564.24	43735.25
564.41	43632.27
564.57	43592.48
564.74	43484.81
564.90	43379.49
565.07	43597.16
565.23	43283.53
565.39	43290.55
565.56	43452.05
565.72	43442.68
565.88	43276.51
566.05	43480.13
566.21	43831.21
566.38	43784.40
566.54	43775.04
566.70	43842.92
566.87	43709.50
567.03	43360.76
567.19	43927.17
567.36	43817.17
567.52	43636.95
567.68	43786.74
567.85	43723.55
568.01	43856.96
568.17	43929.51
568.34	44154.21
568.50	43812.49
568.66	43522.26
568.83	43739.93
568.99	43805.47
569.15	43419.28
569.32	43840.57
569.48	43676.74
569.64	44201.02
569.81	43718.87
569.97	44006.75
570.13	43896.75
570.30	43817.17
570.46	43412.26
570.62	43737.59
570.78	43653.33
570.95	43370.13
571.11	43981.01
571.27	43770.36
571.43	43871.00
571.60	44238.47
571.76	43459.07
571.92	44006.75
572.09	43955.26
572.25	43758.66
572.41	43674.40
572.57	43751.63
572.74	44502.95
572.90	44093.35
573.06	43721.21
573.22	44002.07
573.38	44086.33
573.55	43800.79
573.71	44252.51
573.87	43639.29
574.03	43746.95
574.20	43828.87
574.36	43381.83
574.52	44182.29
574.68	43866.32
574.84	43997.39
575.01	44191.65
575.17	44034.84
575.33	43746.95
575.49	44168.25
575.65	44657.42
575.82	44308.68
575.98	44112.08
576.14	44641.04
576.30	44219.74
576.46	43945.90
576.62	43922.49
576.79	44376.56
576.95	43812.49
577.11	43681.42
577.27	44233.78
577.43	44493.58
577.59	44318.04
577.75	43768.02
577.92	43833.55
578.08	43599.50
578.24	43693.12
578.40	43833.55
578.56	44121.44
578.72	44002.07
578.88	44186.97
579.04	44566.14
579.21	44020.80
579.37	44095.69
579.53	44215.06
579.69	43896.75
579.85	43711.84
580.01	44156.55
580.17	44320.38
580.33	44435.07
580.49	44418.69
580.65	44507.63
580.82	44643.38
580.98	43786.74
581.14	43817.17
581.30	44687.85
581.46	44144.84
581.62	44584.86
581.78	44186.97
581.94	44910.20
582.10	44292.30
582.26	44194.00
582.42	44479.54
582.58	44350.81
582.74	44399.96
582.90	44161.23
583.06	44444.43
583.22	44395.28
583.38	44563.80
583.54	44243.15
583.70	44261.87
583.86	44346.13
584.02	44018.46
584.18	44156.55
584.34	44552.10
584.50	44336.77
584.66	44296.98
584.82	44306.34
584.98	44540.39
585.14	44388.26
585.30	44016.11
585.46	44186.97
585.62	44360.17
585.78	44339.11
585.94	43936.54
586.10	44453.79
586.26	44161.23
586.42	44484.22
586.58	44444.43
586.74	44591.89
586.90	43576.09
587.06	44376.56
587.22	44725.30
587.38	44109.74
587.54	44549.76
587.70	44439.75
587.86	44016.11
588.02	44332.09
588.18	44645.72
588.34	44294.64
588.49	43868.66
588.65	44018.46
588.81	44231.44
588.97	43915.47
589.13	44643.38
589.29	44215.06
589.45	44023.14
589.61	44128.46
589.77	44828.28
589.93	44767.43
590.08	44905.52
590.24	44989.78
590.40	44898.50
590.56	44924.24
590.72	45041.27
590.88	44322.72
591.04	44158.89
591.20	45029.57
591.35	44449.11
591.51	44854.03
591.67	44741.68
591.83	44758.06
591.99	44591.89
592.15	44432.73
592.31	44760.40
592.46	44186.97
592.62	44259.53
592.78	44704.23
592.94	44278.25
593.10	44898.50
593.26	44821.26
593.41	44877.43
593.57	44453.79
593.73	44715.93
593.89	44825.94
594.05	44849.35
594.20	44626.99
594.36	44928.92
594.52	44868.07
594.68	45078.72
594.84	44542.74
594.99	45148.93
595.15	44832.96
595.31	45001.48
595.47	44657.42
595.62	44568.48
595.78	44612.95
595.94	45186.38
596.10	44868.07
596.25	44762.75
596.41	44868.07
596.57	44868.07
596.73	44439.75
596.88	44250.17
597.04	44861.05
597.20	44573.16
597.36	44875.09
597.51	44772.11
597.67	44753.38
597.83	44669.12
597.99	44872.75
598.14	44783.81
598.30	45170.00
598.46	44931.26
598.61	44205.70
598.77	44423.37
598.93	44884.45
599.09	44177.61
599.24	45184.04
599.40	45184.04
599.56	44823.60
599.71	44781.47
599.87	45083.40
600.03	44664.44
600.18	44554.44
600.34	44905.52
600.50	45088.08
600.65	44711.25
600.81	45020.20
600.97	44968.71
601.12	45172.34
601.28	44868.07
601.44	44844.66
601.59	44940.63
601.75	44296.98
601.91	44746.36
602.06	44559.12
602.22	44959.35
602.37	44397.62
602.53	44795.51
602.69	44729.98
602.84	44744.02
603.00	44769.77
603.16	44793.17
603.31	44367.20
603.47	44685.51
603.62	44528.69
603.78	44973.39
603.94	44945.31
604.09	45099.78
604.25	45235.53
604.40	44591.89
604.56	45041.27
604.71	44662.10
604.87	44732.32
605.03	44882.11
605.18	44502.95
605.34	44622.31
605.49	44732.32
605.65	44575.50
605.80	44561.46
605.96	44685.51
606.12	45006.16
606.27	45116.17
606.43	44491.24
606.58	44694.87
606.74	44236.12
606.89	44472.52
607.05	44516.99
607.20	44587.21
607.36	44282.94
607.51	45244.90
607.67	44900.84
607.82	44617.63
607.98	44449.11
608.13	44767.43
608.29	44383.58
608.44	44439.75
608.60	44257.19
608.75	43931.86
608.91	43988.03
609.06	44395.28
609.22	44786.15
609.37	44371.88
609.53	44488.90
609.68	44451.45
609.84	44505.29
609.99	44877.43
610.15	44353.15
610.30	43971.64
610.46	44238.47
610.61	44301.66
610.76	44140.16
610.92	43931.86
611.07	44175.27
611.23	43840.57
611.38	43878.02
611.54	44215.06
611.69	43962.28
611.84	43873.34
612.00	43901.43
612.15	44055.90
612.31	44147.18
612.46	44088.67
612.62	44247.83
612.77	43988.03
612.92	44067.61
613.08	43831.21
613.23	44144.84
613.39	44102.71
613.54	43608.86
613.69	44245.49
613.85	43597.16
614.00	44126.12
614.15	44509.97
614.31	44044.20
614.46	44055.90
614.62	44217.40
614.77	43648.65
614.92	43887.39
615.08	43625.25
615.23	43409.92
615.38	43807.81
615.54	43697.80
615.69	43433.32
615.84	43426.30
616.00	43812.49
616.15	43274.16
616.30	43505.88
616.46	42829.46
616.61	43356.08
616.76	43562.05
616.92	43496.52
617.07	43297.57
617.22	43213.31
617.37	43196.93
617.53	43555.03
617.68	43269.48
617.83	43615.88
617.99	43576.09
618.14	43222.67
618.29	43330.34
618.45	43463.75
618.60	43335.02
618.75	43503.54
618.90	43168.84
619.06	43110.33
619.21	43496.52
619.36	43566.73
619.51	42635.20
619.67	43391.19
619.82	43189.91
619.97	43374.81
620.12	43349.06
620.28	42677.33
620.43	42773.29
620.58	43253.10
620.73	43037.77
620.89	42951.17
621.04	43098.62
621.19	43105.65
621.34	42895.00
621.49	42532.22
621.65	43005.00
621.80	43255.44
621.95	42204.54
622.10	42691.37
622.25	42473.70
622.41	42351.99
622.56	42410.51
622.71	42447.96
622.86	42834.14
623.01	42670.31
623.16	42789.67
623.32	42784.99
623.47	42609.45
623.62	42728.82
623.77	42202.20
623.92	42351.99
624.07	42635.20
624.23	42525.19
624.38	41993.89
624.53	42431.57
624.68	42307.52
624.83	42260.71
624.98	42433.91
625.13	42216.24
625.29	41808.99
625.44	41989.21
625.59	41694.30
625.74	41478.97
625.89	41984.53
626.04	41441.53
626.19	42146.03
626.34	42258.37
626.49	42087.51
626.65	41879.21
626.80	41982.19
626.95	42014.96
627.10	42087.51
627.25	41834.74
627.40	41897.93
627.55	41242.58
627.70	41263.64
627.85	41137.26
628.00	41780.90
628.15	42031.34
628.30	41507.06
628.45	41727.07
628.60	41324.50
628.76	41614.72
628.91	41441.53
629.06	41703.67
629.21	41270.67
629.36	41450.89
629.51	41539.83
629.66	41626.43
629.81	41383.01
629.96	41244.92
630.11	41493.02
630.26	41844.10
630.41	41486.00
630.56	41109.17
630.71	41139.60
630.86	41668.56
631.01	41174.70
631.16	41027.25
631.31	41017.89
631.46	40591.91
631.61	41361.95
631.76	41408.76
631.91	41045.97
632.06	40734.68
632.21	40844.69
632.36	41467.27
632.51	40924.27
632.66	41088.10
632.81	40598.93
632.96	40690.21
633.10	40488.93
633.25	40811.92
633.40	40940.65
633.55	41074.06
633.70	40935.97
633.85	40348.50
634.00	40598.93
634.15	40650.42
634.30	40835.33
634.45	40451.48
634.60	40142.53
634.75	40552.12
634.90	40804.90
635.05	40507.65
635.19	40460.84
635.34	40905.54
635.49	40194.02
635.64	40364.88
635.79	40119.12
635.94	40369.56
636.09	40407.01
636.24	40140.19
636.39	39686.12
636.53	39709.53
636.68	39962.31
636.83	39746.98
636.98	40545.10
637.13	40107.42
637.28	40165.93
637.43	39976.35
637.57	40334.45
637.72	39938.90
637.87	40201.04
638.02	40074.65
638.17	39833.58
638.32	39924.86
638.46	39641.65
638.61	39529.31
638.76	39531.65
638.91	39665.06
639.06	39852.30
639.20	39945.92
639.35	39814.85
639.50	39887.41
639.65	39548.03
639.80	39793.79
639.94	39714.21
640.09	39683.78
640.24	39433.35
640.39	39248.44
640.54	39487.18
640.68	39538.67
640.83	39636.97
640.98	39564.42
641.13	39337.38
641.27	39655.70
641.42	39180.57
641.57	39749.32
641.72	39414.62
641.86	39302.28
642.01	39267.17
642.16	39243.76
642.31	38813.10
642.45	39201.63
642.60	38953.54
642.75	38806.08
642.90	38990.98
643.04	38855.23
643.19	39061.20
643.34	39440.37
643.48	38780.34
643.63	39012.05
643.78	38597.77
643.93	39126.74
644.07	38878.64
644.22	38724.16
644.37	38857.57
644.51	38740.55
644.66	38632.88
644.81	39054.18
644.95	39091.63
645.10	39189.93
645.25	39243.76
645.39	39019.07
645.54	38939.49
645.69	38785.02
645.83	38780.34
645.98	38611.82
646.13	39091.63
646.27	38827.15
646.42	38494.79
646.57	38675.01
646.71	38843.53
646.86	38469.04
647.00	38543.94
647.15	38810.76
647.30	38419.89
647.44	38635.22
647.59	38525.22
647.74	38464.36
647.88	38377.76
648.03	38345.00
648.17	38389.47
648.32	38363.72
648.47	38637.56
648.61	38094.56
648.76	37991.58
648.90	38497.13
649.05	38237.33
649.20	38295.85
649.34	38515.86
649.49	37848.80
649.63	37804.33
649.78	38047.75
649.92	37944.76
650.07	38281.80
650.21	37757.52
650.36	38251.38
650.51	37827.74
650.65	38110.94
650.80	38337.98
650.94	38169.46
651.09	38085.20
651.23	38110.94
651.38	37621.77
651.52	38124.99
651.67	37729.44
651.81	37731.78
651.96	37413.46
652.10	37603.05
652.25	37624.11
652.39	37546.87
652.54	37832.42
652.68	37701.35
652.83	37687.31
652.97	37596.03
653.12	37521.13
653.26	37652.20
653.41	37741.14
653.55	37645.18
653.70	37263.67
653.84	37750.50
653.99	37659.22
654.13	37603.05
654.27	37479.00
654.42	37207.50
654.56	37439.21
654.71	37556.24
654.85	37280.05
655.00	37060.04
655.14	36776.84
655.29	36900.89
655.43	36919.61
655.57	36570.87
655.72	36884.50
655.86	36931.31
656.01	36793.22
656.15	36891.52
656.30	36650.45
656.44	36875.14
656.58	36706.62
656.73	36552.15
656.87	36877.48
657.01	36643.43
657.16	36570.87
657.30	36446.82
657.45	36390.65
657.59	36378.95
657.73	36833.01
657.88	36446.82
658.02	36779.18
658.16	36643.43
658.31	36493.63
658.45	36765.14
658.60	36467.89
658.74	36444.48
658.88	36746.41
659.03	36306.39
659.17	36247.88
659.31	36371.92
659.46	35997.44
659.60	36348.52
659.74	36093.40
659.89	35969.35
660.03	35976.37
660.17	35892.12
660.32	35931.90
660.46	36109.78
660.60	36149.57
660.74	35908.50
660.89	35833.60
661.03	35290.60
661.17	35819.56
661.32	35351.45
661.46	35304.64
661.60	35339.75
661.74	35615.93
661.89	35519.97
662.03	35138.46
662.17	35232.08
662.31	35318.68
662.46	35295.28
662.60	35393.58
662.74	35014.41
662.88	35318.68
663.03	34967.60
663.17	35225.06
663.31	34778.02
663.45	34773.34
663.60	34941.86
663.74	35103.35
663.88	34965.26
664.02	34761.64
664.17	35035.48
664.31	34525.24
664.45	34506.52
664.59	34822.49
664.73	34759.30
664.88	34417.58
665.02	34202.25
665.16	34330.98
665.30	34607.16
665.44	34436.30
665.59	33748.18
665.73	33867.55
665.87	33663.93
666.01	33956.49
666.15	34017.35
666.29	33855.85
666.44	34059.48
666.58	33647.54
666.72	34398.85
666.86	33769.25
667.00	34195.23
667.14	33532.86
667.28	33865.21
667.43	32978.15
667.57	33834.78
667.71	33530.51
667.85	33319.87
667.99	33523.49
668.13	33357.32
668.27	33149.01
668.41	33331.57
668.56	32898.57
668.70	33186.46
668.84	33247.31
668.98	32982.83
669.12	32823.67
669.26	33020.28
669.40	32795.59
669.54	32664.52
669.68	33036.66
669.82	32865.80
669.96	32779.20
670.10	32290.03
670.25	32793.25
670.39	32669.20
670.53	32608.34
670.67	32376.63
670.81	32500.68
670.95	32701.96
671.09	32423.44
671.23	32451.53
671.37	32596.64
671.51	31974.06
671.65	32095.77
671.79	31704.90
671.93	31456.80
672.07	32072.36
672.21	31716.60
672.35	31449.78
672.49	31709.58
672.63	31641.70
672.77	31704.90
672.91	31852.35
673.05	31260.20
673.19	31332.75
673.33	31321.05
673.47	31250.83
673.61	30967.63
673.75	30960.61
673.89	31119.76
674.03	30904.43
674.17	30639.95
674.31	30845.92
674.45	30731.23
674.59	30876.35
674.73	30937.20
674.87	30370.79
675.01	30546.33
675.15	30396.54
675.29	31019.12
675.43	30373.13
675.56	30490.16
675.70	30309.94
675.84	29963.54
675.98	29216.91
676.12	29949.50
676.26	29701.40
676.40	29621.82
676.54	29668.63
676.68	29799.70
676.82	29331.59
676.96	28968.81
677.10	28978.17
677.23	29174.78
677.37	29247.33
677.51	28964.13
677.65	29228.61
677.79	28662.20
677.93	28804.97
678.07	28758.16
678.21	28404.74
678.34	28547.51
678.48	28060.68
678.62	28786.25
678.76	28205.80
678.90	28016.21
679.04	28271.33
679.18	28315.80
679.31	27821.95
679.45	27737.69
679.59	27772.80
679.73	27353.84
679.87	27463.85
680.00	27646.41
680.14	27782.16
680.28	27328.10
680.42	27292.99
680.56	26977.01
680.70	27227.45
680.83	26967.65
680.97	26864.67
681.11	26469.12
681.25	26541.68
681.39	26635.30
681.52	27098.72
681.66	26614.23
681.80	26766.37
681.94	26316.98
682.07	26356.77
682.21	26260.81
682.35	25958.88
682.49	26094.63
682.62	26155.49
682.76	25972.92
682.90	26026.76
683.04	25675.68
683.17	25687.38
683.31	25724.83
683.45	25682.70
683.59	25324.60
683.72	25055.43
683.86	25259.06
684.00	25120.97
684.13	25298.85
684.27	25345.66
684.41	25413.54
684.55	24645.84
684.68	24343.91
684.82	24865.85
684.96	24594.35
685.09	24594.35
685.23	24692.65
685.37	24465.62
685.50	24004.53
685.64	24166.03
685.78	24222.20
685.91	24177.73
686.05	24098.16
686.19	23681.54
686.32	23775.16
686.46	23644.09
686.60	23606.64
686.73	23733.03
686.87	23541.11
687.01	23494.30
687.14	23232.16
687.28	23087.04
687.42	22883.42
687.55	22869.37
687.69	23042.57
687.82	22623.62
687.96	22752.35
688.10	22590.85
688.23	22665.75
688.37	22405.95
688.50	22085.30
688.64	22260.84
688.78	22080.61
688.91	22551.06
689.05	22382.54
689.18	22017.42
689.32	21348.03
689.46	21944.86
689.59	22214.02
689.73	22017.42
689.86	21621.87
690.00	21270.79
690.13	21483.78
690.27	21610.17
690.41	21469.73
690.54	21399.52
690.68	21090.57
690.81	20870.56
690.95	20746.51
691.08	20723.10
691.22	20599.05
691.35	20559.27
691.49	21109.29
691.62	20898.64
691.76	20716.08
691.89	20699.70
692.03	20184.78
692.16	20156.69
692.30	20477.35
692.43	20023.28
692.57	19604.33
692.70	19957.75
692.84	19969.45
692.97	19646.46
693.11	19634.75
693.24	19389.00
693.38	19529.43
693.51	19522.41
693.65	19494.32
693.78	19253.25
693.92	19133.88
694.05	19112.81
694.19	19110.47
694.32	19002.81
694.45	19187.71
694.59	18597.90
694.72	19049.62
694.86	18565.13
694.99	18583.85
695.13	18574.49
695.26	18441.08
695.39	18284.26
695.53	18178.94
695.66	18305.33
695.80	18384.91
695.93	18043.19
696.07	17858.29
696.20	17893.40
696.33	17858.29
696.47	18054.89
696.60	17713.17
696.73	17830.20
696.87	17811.48
697.00	17565.72
697.14	17603.17
697.27	17479.12
697.40	17523.59
697.54	17193.58
697.67	17029.74
697.80	17090.59
697.94	16807.39
698.07	16952.50
698.21	16793.34
698.34	16943.14
698.47	16734.83
698.61	16418.86
698.74	16233.96
698.87	16182.46
699.01	16358.00
699.14	16184.80
699.27	16299.49
699.40	16063.10
699.54	16145.02
699.67	16020.97
699.80	15943.73
699.94	15941.39
700.07	15936.71
700.20	15744.78
700.34	15590.31
700.47	15637.12
700.60	15751.81
700.73	15742.44
700.87	15428.81
701.00	15157.31
701.13	15370.30
701.26	15243.91
701.40	15424.13
701.53	15304.76
701.66	15176.03
701.79	15293.06
701.93	14827.29
702.06	14761.76
702.19	14782.82
702.32	14897.51
702.46	14621.33
702.59	14565.15
702.72	14586.22
702.85	14455.15
702.99	14352.16
703.12	14434.08
703.25	14602.60
703.38	14473.87
703.51	14066.62
703.65	14356.85
703.78	14090.02
703.91	13834.91
704.04	13750.65
704.17	14185.99
704.31	13895.76
704.44	13525.96
704.57	13528.30
704.70	13458.08
704.83	13565.74
704.96	13673.41
705.10	13331.69
705.23	13614.90
>>>>>End Processed Spectral Data<<<<<
