SpectraSuite Data File
++++++++++++++++++++++++++++++++++++
Date: Fri Oct 25 11:34:16 EDT 2013
User: price-jones
Dark Spectrum Present: No
Reference Spectrum Present: No
Number of Sampled Component Spectra: 1
Spectrometers: USB2+H05261
Integration Time (usec): 100000 (USB2+H05261)
Spectra Averaged: 1 (USB2+H05261)
Boxcar Smoothing: 0 (USB2+H05261)
Correct for Electrical Dark: No (USB2+H05261)
Strobe/Lamp Enabled: No (USB2+H05261)
Correct for Detector Non-linearity: No (USB2+H05261)
Correct for Stray Light: No (USB2+H05261)
Number of Pixels in Processed Spectrum: 2048
>>>>>Begin Processed Spectral Data<<<<<
365.73	287.89
365.92	287.89
366.12	287.89
366.32	198.95
366.52	182.56
366.72	198.95
366.91	131.07
367.11	142.77
367.31	217.67
367.51	201.29
367.70	212.99
367.90	112.35
368.10	241.08
368.30	220.01
368.49	175.54
368.69	184.90
368.89	177.88
369.09	189.58
369.28	175.54
369.48	262.14
369.68	210.65
369.87	248.10
370.07	208.31
370.27	308.95
370.47	388.53
370.66	440.02
370.86	454.06
371.06	571.09
371.25	533.64
371.45	503.22
371.65	578.11
371.84	601.52
372.04	561.73
372.24	559.39
372.44	543.00
372.63	603.86
372.83	660.03
373.03	575.77
373.22	550.03
373.42	660.03
373.62	657.69
373.81	669.39
374.01	550.03
374.21	617.90
374.40	648.33
374.60	599.18
374.79	641.31
374.99	662.37
375.19	638.97
375.38	603.86
375.58	660.03
375.78	645.99
375.97	671.73
376.17	653.01
376.37	669.39
376.56	669.39
376.76	683.44
376.95	643.65
377.15	734.93
377.35	631.94
377.54	681.10
377.74	676.41
377.93	711.52
378.13	697.48
378.33	730.25
378.52	713.86
378.72	608.54
378.91	730.25
379.11	653.01
379.31	650.67
379.50	716.20
379.70	723.23
379.89	676.41
380.09	734.93
380.28	709.18
380.48	683.44
380.68	784.08
380.87	681.10
381.07	737.27
381.26	814.51
381.46	779.40
381.65	772.38
381.85	765.36
382.04	751.31
382.24	709.18
382.43	739.61
382.63	791.10
382.83	781.74
383.02	877.70
383.22	856.64
383.41	779.40
383.61	774.72
383.80	667.05
384.00	823.87
384.19	868.34
384.39	863.66
384.58	905.79
384.78	732.59
384.97	774.72
385.17	711.52
385.36	760.67
385.56	821.53
385.75	856.64
385.95	744.29
386.14	868.34
386.34	849.61
386.53	819.19
386.72	755.99
386.92	952.60
387.11	868.34
387.31	950.26
387.50	901.11
387.70	823.87
387.89	957.28
388.09	849.61
388.28	915.15
388.48	842.59
388.67	884.72
388.86	912.81
389.06	957.28
389.25	849.61
389.45	952.60
389.64	954.94
389.84	938.55
390.03	954.94
390.22	858.98
390.42	1011.11
390.61	959.62
390.81	908.13
391.00	919.83
391.19	1032.18
391.39	992.39
391.58	1041.54
391.78	980.68
391.97	959.62
392.16	922.17
392.36	1064.94
392.55	1109.41
392.75	1004.09
392.94	1074.31
393.13	1029.84
393.33	1095.37
393.52	1102.39
393.71	1004.09
393.91	1048.56
394.10	1076.65
394.29	1048.56
394.49	1008.77
394.68	1048.56
394.88	1102.39
395.07	1167.93
395.26	1203.04
395.46	1118.78
395.65	1027.50
395.84	1100.05
396.04	1158.57
396.23	1078.99
396.42	1100.05
396.62	1226.44
396.81	1259.21
397.00	1238.14
397.19	1296.66
397.39	1107.07
397.58	1259.21
397.77	1128.14
397.97	1226.44
398.16	1249.85
398.35	1174.95
398.55	1256.87
398.74	1238.14
398.93	1306.02
399.12	1242.82
399.32	1296.66
399.51	1270.91
399.70	1315.38
399.90	1277.93
400.09	1378.58
400.28	1385.60
400.47	1373.89
400.67	1387.94
400.86	1397.30
401.05	1355.17
401.24	1411.34
401.44	1366.87
401.63	1465.18
401.82	1540.07
402.01	1441.77
402.21	1413.68
402.40	1303.68
402.59	1364.53
402.78	1416.02
402.97	1474.54
403.17	1432.41
403.36	1521.35
403.55	1467.52
403.74	1495.60
403.93	1528.37
404.13	1568.16
404.32	1558.80
404.51	1549.43
404.70	1549.43
404.89	1633.69
405.09	1650.08
405.28	1607.95
405.47	1586.88
405.66	1713.27
405.85	1668.80
406.05	1729.66
406.24	1685.19
406.43	1732.00
406.62	1724.97
406.81	1757.74
407.00	1668.80
407.20	1790.51
407.39	1715.61
407.58	1769.44
407.77	1816.26
407.96	1839.66
408.15	1753.06
408.34	1809.23
408.54	1909.88
408.73	1858.39
408.92	1858.39
409.11	1846.68
409.30	1886.47
409.49	1930.94
409.68	1898.17
409.87	1933.28
410.07	1937.96
410.26	1926.26
410.45	1886.47
410.64	1940.30
410.83	2038.61
411.02	2073.71
411.21	2090.10
411.40	2172.02
411.59	2101.80
411.78	2132.23
411.98	2193.08
412.17	2193.08
412.36	2179.04
412.55	2097.12
412.74	2277.34
412.93	2277.34
413.12	2195.42
413.31	2333.51
413.50	2300.75
413.69	2361.60
413.88	2410.75
414.07	2270.32
414.26	2338.20
414.45	2415.43
414.64	2483.31
414.83	2530.12
415.02	2492.67
415.22	2525.44
415.41	2595.65
415.60	2492.67
415.79	2612.04
415.98	2583.95
416.17	2619.06
416.36	2544.16
416.55	2668.21
416.74	2766.51
416.93	2738.43
417.12	2792.26
417.31	2883.54
417.50	2775.88
417.69	2878.86
417.88	2878.86
418.07	2705.66
418.26	2909.29
418.45	2829.71
418.64	3075.46
418.83	2881.20
419.02	2951.42
419.21	3002.91
419.39	3040.36
419.58	3019.29
419.77	2911.63
419.96	3002.91
420.15	3061.42
420.34	3019.29
420.53	3052.06
420.72	3241.64
420.91	3180.79
421.10	3239.30
421.29	3316.54
421.48	3075.46
421.67	3141.00
421.86	3262.71
422.05	3131.64
422.24	3173.77
422.43	3218.24
422.61	3241.64
422.80	3295.47
422.99	3281.43
423.18	3251.00
423.37	3412.50
423.56	3276.75
423.75	3213.56
423.94	3300.16
424.13	3094.19
424.32	3248.66
424.50	3330.58
424.69	3475.70
424.88	3440.59
425.07	3262.71
425.26	3274.41
425.45	3330.58
425.64	3227.60
425.83	3225.26
426.01	3461.65
426.20	3346.97
426.39	3517.83
426.58	3307.18
426.77	3393.78
426.96	3506.12
427.15	3269.73
427.33	3426.54
427.52	3323.56
427.71	3386.76
427.90	3534.21
428.09	3548.25
428.28	3520.17
428.46	3510.80
428.65	3527.19
428.84	3770.60
429.03	3602.08
429.22	3510.80
429.40	3545.91
429.59	3662.94
429.78	3566.98
429.97	3419.52
430.16	3630.17
430.34	3655.92
430.53	3702.73
430.72	3705.07
430.91	3819.75
431.10	3721.45
431.28	3714.43
431.47	3824.44
431.66	3829.12
431.85	3740.18
432.03	3922.74
432.22	3941.46
432.41	3974.23
432.60	3932.10
432.79	3983.59
432.97	3899.33
433.16	4002.32
433.35	3892.31
433.54	3990.61
433.72	4030.40
433.91	4016.36
434.10	4114.66
434.28	4021.04
434.47	4152.11
434.66	4189.56
434.85	4147.43
435.03	4152.11
435.22	4105.30
435.41	4278.50
435.59	4070.19
435.78	4332.33
435.97	4290.20
436.16	4264.46
436.34	4301.90
436.53	4320.63
436.72	4306.59
436.90	4358.08
437.09	4234.03
437.28	4322.97
437.46	4390.84
437.65	4280.84
437.84	4414.25
438.02	4432.97
438.21	4606.17
438.40	4400.21
438.58	4634.26
438.77	4692.77
438.96	4634.26
439.14	4704.48
439.33	4697.46
439.52	4720.86
439.70	4730.22
439.89	4807.46
440.08	4863.63
440.26	4704.48
440.45	4727.88
440.63	4985.34
440.82	4938.53
441.01	5053.22
441.19	5011.09
441.38	5165.56
441.57	5036.83
441.75	5116.41
441.94	5188.97
442.12	5235.78
442.31	5231.10
442.50	5301.31
442.68	5088.32
442.87	5331.74
443.05	5348.12
443.24	5383.23
443.43	5313.02
443.61	5348.12
443.80	5563.45
443.98	5348.12
444.17	5057.90
444.35	5413.66
444.54	5551.75
444.73	5490.90
444.91	5324.72
445.10	5352.81
445.28	5455.79
445.47	5343.44
445.65	5565.79
445.84	5537.71
446.02	5486.22
446.21	5490.90
446.39	5596.22
446.58	5577.50
446.77	5706.23
446.95	5448.77
447.14	5687.50
447.32	5657.07
447.51	5647.71
447.69	5476.85
447.88	5542.39
448.06	5558.77
448.25	5584.52
448.43	5720.27
448.62	5657.07
448.80	5551.75
448.99	5741.33
449.17	5603.24
449.36	5734.31
449.54	5851.34
449.73	5783.46
449.91	6017.52
450.10	5874.74
450.28	5858.36
450.46	5996.45
450.65	5905.17
450.83	5949.64
451.02	5774.10
451.20	5977.73
451.39	5951.98
451.57	6012.84
451.76	5902.83
451.94	5930.92
452.13	6162.63
452.31	5916.87
452.49	6143.91
452.68	5984.75
452.86	6125.18
453.05	6239.87
453.23	6164.97
453.42	6087.73
453.60	5989.43
453.78	6286.68
453.97	5994.11
454.15	6045.60
454.34	6181.35
454.52	6434.13
454.70	6331.15
454.89	6277.32
455.07	6448.18
455.26	6228.17
455.44	6422.43
455.62	6420.09
455.81	6530.09
455.99	6574.56
456.17	6471.58
456.36	6567.54
456.54	6443.49
456.73	6787.55
456.91	6771.17
457.09	6782.87
457.28	6869.47
457.46	6789.89
457.64	6958.41
457.83	6911.60
458.01	6787.55
458.19	7054.37
458.38	6771.17
458.56	6853.09
458.74	7012.24
458.93	6965.43
459.11	6864.79
459.29	7023.95
459.48	6967.77
459.66	7098.84
459.84	7143.32
460.03	7234.60
460.21	7255.66
460.39	7171.40
460.57	7056.72
460.76	7222.89
460.94	7178.42
461.12	7328.22
461.31	7370.35
461.49	7129.27
461.67	7236.94
461.85	7330.56
462.04	7393.75
462.22	7721.43
462.40	7541.21
462.59	7609.08
462.77	7431.20
462.95	7627.81
463.13	7515.46
463.32	7616.10
463.50	7641.85
463.68	7520.14
463.86	7627.81
464.05	7707.38
464.23	7658.23
464.41	7810.37
464.59	7480.35
464.78	7911.01
464.96	7803.35
465.14	7503.76
465.32	7957.82
465.50	7857.18
465.69	7948.46
465.87	7826.75
466.05	7655.89
466.23	7967.18
466.41	7845.48
466.60	7971.86
466.78	7971.86
466.96	7894.63
467.14	8016.33
467.32	8039.74
467.51	8138.04
467.69	7756.54
467.87	8203.58
468.05	8100.59
468.23	8049.10
468.41	8072.51
468.60	8147.40
468.78	8224.64
468.96	8170.81
469.14	8182.51
469.32	8425.93
469.50	8149.75
469.69	8451.67
469.87	8423.59
470.05	8180.17
470.23	8514.87
470.41	8395.50
470.59	8547.64
470.77	8573.38
470.95	8608.49
471.14	8805.10
471.32	8587.43
471.50	8641.26
471.68	8645.94
471.86	8746.58
472.04	8854.25
472.22	8922.12
472.40	8690.41
472.58	8905.74
472.77	9135.11
472.95	8990.00
473.13	9350.44
473.31	9128.09
473.49	9095.32
473.67	8973.61
473.85	9329.38
474.03	9338.74
474.21	9413.63
474.39	9462.79
474.57	9390.23
474.75	9549.39
474.93	9645.35
475.12	9481.51
475.30	9729.61
475.48	9645.35
475.66	9738.97
475.84	9947.28
476.02	9668.75
476.20	9973.02
476.38	10001.11
476.56	10382.62
476.74	10209.42
476.92	10033.88
477.10	10230.48
477.28	10342.83
477.46	10473.90
477.64	10265.59
477.82	10420.06
478.00	10745.40
478.18	10801.57
478.36	10827.32
478.54	10824.98
478.72	10995.84
478.90	11075.42
479.08	11356.28
479.26	11367.98
479.44	11330.53
479.62	11201.80
479.80	11398.41
479.98	11440.54
480.16	11847.79
480.34	11606.72
480.52	11857.15
480.70	11840.77
480.88	11634.80
481.06	11957.80
481.24	12044.40
481.41	12191.85
481.59	12388.46
481.77	12224.62
481.95	12482.08
482.13	12592.08
482.31	12451.65
482.49	12961.89
482.67	13006.36
482.85	13160.83
483.03	13174.88
483.21	13198.28
483.39	13268.50
483.57	13303.60
483.74	13563.40
483.92	13394.89
484.10	13551.70
484.28	13980.02
484.46	13858.31
484.64	14087.68
484.82	13963.64
485.00	14136.84
485.18	14265.57
485.35	14590.90
485.53	14569.83
485.71	14618.99
485.89	14728.99
486.07	14796.87
486.25	14881.13
486.43	14925.60
486.61	15159.65
486.78	15070.71
486.96	15335.19
487.14	15569.24
487.32	15817.34
487.50	15772.87
487.68	15871.17
487.85	15803.30
488.03	16095.86
488.21	16510.14
488.39	16397.79
488.57	16592.06
488.75	16690.36
488.92	16744.19
489.10	17046.12
489.28	16971.22
489.46	17296.56
489.64	17015.69
489.81	17689.77
489.99	17481.46
490.17	17514.23
490.35	17820.84
490.53	17767.01
490.70	17907.44
490.88	17872.33
491.06	18134.47
491.24	18506.62
491.41	18604.92
491.59	18838.97
491.77	18719.60
491.95	18565.13
492.13	18838.97
492.30	18970.04
492.48	19168.99
492.66	19197.07
492.84	18930.25
493.01	19391.34
493.19	19421.77
493.37	19545.81
493.54	19604.33
493.72	19992.86
493.90	19864.13
494.08	20219.89
494.25	20407.13
494.43	20437.56
494.61	20709.06
494.79	20500.75
494.96	20568.63
495.14	20741.83
495.32	20926.73
495.49	20620.12
495.67	20915.03
495.85	21247.38
496.02	21502.50
496.20	21280.15
496.38	21846.56
496.55	21511.86
496.73	22132.11
496.91	22164.87
497.09	21673.36
497.26	22153.17
497.44	22108.70
497.62	22412.97
497.79	22513.61
497.97	22537.02
498.14	22728.94
498.32	22820.22
498.50	23145.56
498.67	23061.30
498.85	22845.97
499.03	23281.31
499.20	23267.27
499.38	23531.75
499.56	23693.24
499.73	23407.70
499.91	23447.49
500.08	23917.93
500.26	23768.14
500.44	23805.59
500.61	24219.86
500.79	23800.91
500.97	24210.50
501.14	24491.37
501.32	24657.54
501.49	24615.41
501.67	24320.51
501.84	24966.49
502.02	24613.07
502.20	24622.44
502.37	24978.20
502.55	25266.08
502.72	25156.08
502.90	25301.19
503.07	25242.68
503.25	24929.05
503.43	24957.13
503.60	25324.60
503.78	25476.73
503.95	25362.04
504.13	25474.39
504.30	25837.17
504.48	25582.06
504.65	26120.38
504.83	26103.99
505.01	26419.97
505.18	25898.03
505.36	26026.76
505.53	26258.47
505.71	26338.05
505.88	26848.29
506.06	26368.48
506.23	26693.81
506.41	26448.05
506.58	26703.17
506.76	26906.80
506.93	27171.28
507.11	26916.16
507.28	27108.08
507.46	26782.75
507.63	27714.28
507.81	27442.78
507.98	27143.19
508.16	27653.43
508.33	28149.62
508.50	27545.76
508.68	27786.84
508.85	28238.56
509.03	27634.71
509.20	27875.78
509.38	28280.69
509.55	28505.38
509.73	28203.46
509.90	28346.23
510.08	28250.27
510.25	28348.57
510.42	28353.25
510.60	28751.14
510.77	28882.21
510.95	29315.21
511.12	28907.96
511.30	28943.06
511.47	29214.57
511.64	29308.19
511.82	29275.42
511.99	29322.23
512.17	29483.73
512.34	28964.13
512.51	29645.23
512.69	29727.14
512.86	29572.67
513.04	29900.34
513.21	29778.64
513.38	30118.01
513.56	30174.19
513.73	29989.28
513.90	30059.50
514.08	29715.44
514.25	30431.65
514.43	30246.74
514.60	30309.94
514.77	30347.39
514.95	30855.28
515.12	30630.59
515.29	30534.63
515.47	30995.71
515.64	30859.96
515.81	30504.20
515.99	31000.40
516.16	31709.58
516.33	31058.91
516.51	31510.63
516.68	31409.99
516.85	31363.18
517.03	31424.03
517.20	31325.73
517.37	31339.77
517.54	31475.52
517.72	31475.52
517.89	31615.96
518.06	31538.72
518.24	31732.98
518.41	31882.78
518.58	32027.89
518.75	31910.86
518.93	32334.50
519.10	32123.85
519.27	32587.28
519.45	32165.98
519.62	32414.08
519.79	32428.12
519.96	32662.18
520.14	32765.16
520.31	32400.04
520.48	32900.91
520.65	32704.31
520.83	33156.03
521.00	33247.31
521.17	33223.90
521.34	33394.76
521.52	33179.43
521.69	32975.81
521.86	33614.77
522.03	33237.95
522.20	33453.28
522.38	34190.55
522.55	33839.47
522.72	33809.04
522.89	34057.14
523.07	34419.92
523.24	33867.55
523.41	34218.63
523.58	34160.12
523.75	34094.58
523.92	34139.05
524.10	34553.33
524.27	34108.63
524.44	34146.08
524.61	34759.30
524.78	34448.00
524.96	34480.77
525.13	34759.30
525.30	34707.80
525.47	34983.99
525.64	34906.75
525.81	35173.57
525.98	35372.52
526.16	34988.67
526.33	35391.24
526.50	35424.01
526.67	34726.53
526.84	34967.60
527.01	35110.38
527.18	34813.13
527.36	35512.95
527.53	35756.36
527.70	36013.82
527.87	35976.37
528.04	35779.77
528.21	35784.45
528.38	35957.65
528.55	35892.12
528.72	35747.00
528.89	36084.04
529.07	35985.74
529.24	36119.15
529.41	36238.51
529.58	36081.70
529.75	36114.47
529.92	36077.02
530.09	35924.88
530.26	36318.09
530.43	36591.94
530.60	36353.20
530.77	36306.39
530.94	36479.59
531.11	36414.05
531.28	36531.08
531.46	36601.30
531.63	36987.49
531.80	36884.50
531.97	36870.46
532.14	36903.23
532.31	36840.03
532.48	37490.70
532.65	37577.30
532.82	36907.91
532.99	37539.85
533.16	37230.90
533.33	37518.79
533.50	37392.40
533.67	37050.68
533.84	37345.59
534.01	37766.88
534.18	37195.79
534.35	37897.95
534.52	37846.46
534.69	38227.97
534.86	38092.22
535.03	37797.31
535.20	37546.87
535.37	38209.25
535.54	37935.40
535.71	38113.28
535.88	38139.03
536.05	38183.50
536.22	38675.01
536.38	38148.39
536.55	38232.65
536.72	38190.52
536.89	38401.17
537.06	37963.49
537.23	38497.13
537.40	38375.42
537.57	39023.75
537.74	38387.13
537.91	38616.50
538.08	38712.46
538.25	38499.47
538.42	38684.37
538.59	39278.87
538.75	38866.94
538.92	39000.35
539.09	38852.89
539.26	39124.40
539.43	39159.50
539.60	38983.96
539.77	39112.69
539.94	38993.32
540.11	39543.35
540.28	39248.44
540.44	39398.24
540.61	39321.00
540.78	39655.70
540.95	39716.55
541.12	38981.62
541.29	39945.92
541.46	39344.41
541.62	39187.59
541.79	39798.47
541.96	39370.15
542.13	40058.27
542.30	39723.57
542.47	39679.10
542.63	39849.96
542.80	40266.58
542.97	40463.18
543.14	40563.82
543.31	40058.27
543.48	40250.19
543.64	40814.26
543.81	40664.47
543.98	40282.96
544.15	40378.92
544.32	40615.32
544.48	40950.01
544.65	40968.74
544.82	40713.62
544.99	40563.82
545.16	41219.17
545.32	40858.73
545.49	41401.74
545.66	41560.89
545.83	41151.30
546.00	41172.36
546.16	41214.49
546.33	41062.36
546.50	40790.86
546.67	41392.37
546.83	41209.81
547.00	41490.68
547.17	41401.74
547.34	41598.34
547.50	40964.06
547.67	41799.63
547.84	41654.51
548.00	41949.42
548.17	41839.42
548.34	41752.82
548.51	41708.35
548.67	41724.73
548.84	41902.61
549.01	41593.66
549.18	41507.06
549.34	42005.59
549.51	42087.51
549.68	42136.66
549.84	41874.52
550.01	41706.01
550.18	42249.01
550.34	42328.59
550.51	42373.06
550.68	42462.00
550.84	41696.64
551.01	42403.49
551.18	42094.53
551.34	42445.62
551.51	42363.70
551.68	41872.18
551.84	42227.95
552.01	42120.28
552.18	42464.34
552.34	42258.37
552.51	42520.51
552.68	42120.28
552.84	42506.47
553.01	42787.33
553.18	43009.68
553.34	42927.77
553.51	42969.90
553.67	42412.85
553.84	42646.90
554.01	43353.74
554.17	42719.46
554.34	42834.14
554.51	43168.84
554.67	43119.69
554.84	43278.85
555.00	42590.73
555.17	43222.67
555.33	43058.84
555.50	42997.98
555.67	43208.63
555.83	43463.75
556.00	43461.41
556.16	43959.94
556.33	43718.87
556.50	43140.75
556.66	43555.03
556.83	43007.34
556.99	44023.14
557.16	43447.36
557.32	43936.54
557.49	43475.45
557.65	43412.26
557.82	43548.01
557.98	43646.31
558.15	43545.67
558.32	43608.86
558.48	43323.32
558.65	43901.43
558.81	43627.59
558.98	43847.60
559.14	43548.01
559.31	43367.79
559.47	43786.74
559.64	43950.58
559.80	43892.07
559.97	44528.69
560.13	43655.67
560.30	44018.46
560.46	43976.33
560.63	44086.33
560.79	43992.71
560.96	44116.76
561.12	44144.84
561.29	44205.70
561.45	44093.35
561.61	44058.24
561.78	43772.70
561.94	44128.46
562.11	44465.50
562.27	44406.98
562.44	44170.59
562.60	44245.49
562.77	44215.06
562.93	44229.10
563.10	44233.78
563.26	44158.89
563.42	44914.88
563.59	44072.29
563.75	44053.56
563.92	44542.74
564.08	44587.21
564.24	44598.91
564.41	44753.38
564.57	44472.52
564.74	44608.27
564.90	44479.54
565.07	44729.98
565.23	44299.32
565.39	44428.05
565.56	44734.66
565.72	44528.69
565.88	44378.90
566.05	44793.17
566.21	44582.52
566.38	44507.63
566.54	44849.35
566.70	45153.62
566.87	44690.19
567.03	44495.92
567.19	44875.09
567.36	44650.40
567.52	44942.97
567.68	44776.79
567.85	44732.32
568.01	45219.15
568.17	44957.01
568.34	45170.00
568.50	44975.73
568.66	44924.24
568.83	44882.11
568.99	44776.79
569.15	45052.97
569.32	45069.36
569.48	44837.64
569.64	45052.97
569.81	44921.90
569.97	45329.16
570.13	44999.14
570.30	45425.12
570.46	45200.43
570.62	44966.37
570.78	45160.64
570.95	45221.49
571.11	45310.43
571.27	45010.84
571.43	44964.03
571.60	44957.01
571.76	45013.18
571.92	45312.77
572.09	45106.80
572.25	45270.64
572.41	44947.65
572.57	45198.09
572.74	46017.27
572.90	45387.67
573.06	45851.09
573.22	45619.38
573.38	45357.24
573.55	45455.54
573.71	45956.42
573.87	45354.90
574.03	45221.49
574.20	45319.79
574.36	45642.79
574.52	45551.51
574.68	45263.62
574.84	45855.78
575.01	45865.14
575.17	45631.08
575.33	45193.40
575.49	45457.88
575.65	45450.86
575.82	46010.25
575.98	45432.14
576.14	45801.94
576.30	45631.08
576.46	45787.90
576.62	45125.53
576.79	45666.19
576.95	45422.78
577.11	45345.54
577.27	45563.21
577.43	45291.71
577.59	45743.43
577.75	45471.93
577.92	45392.35
578.08	44959.35
578.24	45610.02
578.40	45336.18
578.56	45476.61
578.72	45593.64
578.88	45347.88
579.04	46138.98
579.21	45179.36
579.37	45975.14
579.53	45921.31
579.69	45673.21
579.85	45607.68
580.01	45642.79
580.17	45518.74
580.33	45977.48
580.49	45762.15
580.65	45890.88
580.82	45455.54
580.98	45509.38
581.14	45352.56
581.30	45961.10
581.46	45502.35
581.62	45818.33
581.78	45507.04
581.94	45652.15
582.10	45537.46
582.26	45727.05
582.42	45937.69
582.58	45380.65
582.74	45715.34
582.90	45755.13
583.06	45947.06
583.22	45624.06
583.38	45670.87
583.54	45584.27
583.70	45862.80
583.86	46136.64
584.02	45776.20
584.18	46368.35
584.34	46096.85
584.50	46136.64
584.66	46293.46
584.82	45975.14
584.98	46106.21
585.14	46000.89
585.30	45696.62
585.46	45659.17
585.62	45713.00
585.78	46160.05
585.94	45860.46
586.10	45797.26
586.26	45806.62
586.42	45581.93
586.58	45942.38
586.74	45628.74
586.90	45588.95
587.06	45855.78
587.22	45977.48
587.38	45834.71
587.54	46073.45
587.70	45970.46
587.86	46190.47
588.02	45535.12
588.18	45825.35
588.34	45944.72
588.49	45670.87
588.65	46157.70
588.81	46157.70
588.97	46110.89
589.13	46108.55
589.29	45930.67
589.45	46134.30
589.61	45858.12
589.77	46342.61
589.93	46176.43
590.08	46138.98
590.24	46684.33
590.40	46490.06
590.56	46848.16
590.72	46305.16
590.88	46014.93
591.04	46258.35
591.20	46487.72
591.35	46607.09
591.51	47016.68
591.67	46513.47
591.83	46239.62
591.99	46344.95
592.15	46136.64
592.31	46326.22
592.46	45729.39
592.62	46010.25
592.78	46440.91
592.94	46883.27
593.10	46539.21
593.26	46700.71
593.41	46656.24
593.57	46539.21
593.73	46635.17
593.89	46883.27
594.05	46649.22
594.20	46649.22
594.36	46820.08
594.52	46471.34
594.68	46836.46
594.84	46326.22
594.99	46508.79
595.15	46600.07
595.31	46855.18
595.47	46433.89
595.62	46625.81
595.78	46567.30
595.94	46646.88
596.10	46700.71
596.25	46621.13
596.41	46705.39
596.57	46199.83
596.73	47185.20
596.88	46234.94
597.04	46476.02
597.20	46740.50
597.36	46541.55
597.51	46768.58
597.67	46234.94
597.83	46712.41
597.99	46822.42
598.14	46337.93
598.30	46941.78
598.46	46845.82
598.61	47063.49
598.77	46759.22
598.93	46525.17
599.09	46780.29
599.24	47012.00
599.40	46635.17
599.56	46719.43
599.71	47239.03
599.87	47627.56
600.03	46897.31
600.18	46995.62
600.34	46581.34
600.50	46880.93
600.65	46944.12
600.81	46876.25
600.97	47187.54
601.12	46986.25
601.28	46749.86
601.44	46745.18
601.59	47030.72
601.75	46714.75
601.91	46602.41
602.06	47056.47
602.22	46820.08
602.37	46976.89
602.53	46911.36
602.69	47129.03
602.84	46611.77
603.00	46775.61
603.16	46506.44
603.31	46586.02
603.47	46806.03
603.62	46637.51
603.78	46525.17
603.94	46803.69
604.09	46644.54
604.25	46490.06
604.40	47040.09
604.56	46909.02
604.71	46925.40
604.87	46405.80
605.03	46628.15
605.18	46384.74
605.34	46855.18
605.49	46761.56
605.65	46944.12
605.80	46532.19
605.96	46445.59
606.12	46714.75
606.27	46763.90
606.43	46635.17
606.58	46485.38
606.74	46384.74
606.89	46635.17
607.05	46663.26
607.20	46990.94
607.36	46808.37
607.51	46920.72
607.67	46899.65
607.82	46328.56
607.98	46635.17
608.13	46857.52
608.29	46445.59
608.44	46602.41
608.60	46637.51
608.75	46897.31
608.91	46286.43
609.06	46548.57
609.22	46586.02
609.37	46248.99
609.53	46850.50
609.68	46649.22
609.84	46487.72
609.99	46656.24
610.15	46335.59
610.30	46450.27
610.46	46476.02
610.61	46040.68
610.76	46773.27
610.92	46157.70
611.07	46539.21
611.23	45851.09
611.38	46358.99
611.54	46504.10
611.69	46087.49
611.84	46335.59
612.00	46092.17
612.15	45806.62
612.31	46326.22
612.46	45893.22
612.62	46342.61
612.77	46326.22
612.92	46305.16
613.08	45815.99
613.23	45839.39
613.39	46148.34
613.54	46452.61
613.69	46506.44
613.85	46036.00
614.00	46220.90
614.15	46363.67
614.31	46417.50
614.46	45904.93
614.62	46136.64
614.77	46106.21
614.92	45951.74
615.08	45872.16
615.23	46171.75
615.38	46204.52
615.54	46162.39
615.69	45975.14
615.84	46028.98
616.00	46469.00
616.15	46281.75
616.30	45893.22
616.46	46532.19
616.61	45869.82
616.76	46335.59
616.92	45586.61
617.07	45792.58
617.22	45848.75
617.37	45514.06
617.53	46057.06
617.68	45925.99
617.83	45588.95
617.99	46012.59
618.14	46068.76
618.29	45502.35
618.45	45521.08
618.60	45682.58
618.75	45261.28
618.90	45572.57
619.06	45773.86
619.21	45464.91
619.36	45841.73
619.51	45572.57
619.67	45312.77
619.82	45404.05
619.97	45565.55
620.12	45453.20
620.28	45687.26
620.43	45333.84
620.58	45560.87
620.73	45808.96
620.89	45638.11
621.04	45434.48
621.19	45504.70
621.34	45507.04
621.49	45228.51
621.65	45214.47
621.80	45785.56
621.95	45111.49
622.10	45230.85
622.25	44912.54
622.41	44949.99
622.56	45045.95
622.71	44851.69
622.86	45153.62
623.01	45523.42
623.16	45258.94
623.32	44800.19
623.47	45102.12
623.62	45125.53
623.77	45059.99
623.92	45177.02
624.07	44861.05
624.23	45127.87
624.38	44935.95
624.53	44685.51
624.68	44776.79
624.83	44959.35
624.98	44643.38
625.13	44378.90
625.29	44580.18
625.44	45024.89
625.59	44683.17
625.74	44669.12
625.89	44554.44
626.04	44594.23
626.19	44650.40
626.34	44486.56
626.49	44488.90
626.65	44322.72
626.80	44268.89
626.95	44369.54
627.10	44114.42
627.25	44563.80
627.40	44692.53
627.55	44378.90
627.70	44226.76
627.85	44484.22
628.00	44535.71
628.15	44350.81
628.30	44065.27
628.45	44179.95
628.60	43810.15
628.76	43990.37
628.91	43964.62
629.06	43901.43
629.21	43852.28
629.36	43456.73
629.51	44018.46
629.66	44243.15
629.81	43943.56
629.96	44058.24
630.11	43522.26
630.26	44013.77
630.41	43803.13
630.56	43679.08
630.71	43683.76
630.86	43763.34
631.01	43613.54
631.16	43344.38
631.31	43995.05
631.46	43325.66
631.61	43915.47
631.76	43721.21
631.91	43992.71
632.06	44165.91
632.21	43936.54
632.36	44156.55
632.51	43622.90
632.66	43782.06
632.81	43508.22
632.96	43899.09
633.10	43384.17
633.25	43320.98
633.40	43615.88
633.55	43861.64
633.70	43351.40
633.85	43215.65
634.00	43215.65
634.15	43227.35
634.30	43384.17
634.45	43019.05
634.60	43721.21
634.75	43239.06
634.90	43739.93
635.05	43248.42
635.19	43012.02
635.34	43192.25
635.49	42902.02
635.64	43466.09
635.79	43110.33
635.94	42916.06
636.09	43262.46
636.24	43070.54
636.39	43089.26
636.53	43040.11
636.68	42733.50
636.83	42775.63
636.98	43023.73
637.13	42527.53
637.28	42759.25
637.43	42710.10
637.57	42796.70
637.72	42541.58
637.87	42588.39
638.02	42574.34
638.17	43082.24
638.32	42600.09
638.46	42312.20
638.61	42829.46
638.76	42284.12
638.91	42555.62
639.06	42611.79
639.20	42099.22
639.35	42319.23
639.50	42010.28
639.65	42462.00
639.80	42756.91
639.94	42443.27
640.09	42595.41
640.24	42630.52
640.39	42045.38
640.54	42160.07
640.68	42576.69
640.83	42272.42
640.98	42396.46
641.13	41916.65
641.27	42010.28
641.42	42251.35
641.57	41804.31
641.72	42438.59
641.86	42160.07
642.01	41631.11
642.16	42246.67
642.31	41670.90
642.45	42101.56
642.60	41394.71
642.75	42155.39
642.90	42384.76
643.04	42164.75
643.19	41729.41
643.34	41518.76
643.48	41387.69
643.63	41965.81
643.78	41649.83
643.93	41500.04
644.07	41734.09
644.22	41832.39
644.37	41794.95
644.51	41717.71
644.66	41518.76
644.81	41649.83
644.95	41610.04
645.10	41134.92
645.25	41294.07
645.39	41490.68
645.54	41146.62
645.69	40971.08
645.83	40786.18
645.98	41146.62
646.13	41375.99
646.27	40966.40
646.42	40912.56
646.57	40800.22
646.71	41734.09
646.86	41478.97
647.00	41207.47
647.15	41296.41
647.30	41448.55
647.44	41277.69
647.59	40612.98
647.74	40821.28
647.88	41265.99
648.03	41989.21
648.17	41294.07
648.32	41123.21
648.47	41301.09
648.61	41226.20
648.76	40903.20
648.90	40762.77
649.05	40203.38
649.20	41219.17
649.34	41305.77
649.49	41158.32
649.63	41015.55
649.78	41020.23
649.92	40730.00
650.07	41668.56
650.21	40865.75
650.36	41132.57
650.51	40947.67
650.65	40900.86
650.80	40814.26
650.94	41076.40
651.09	40718.30
651.23	40315.73
651.38	40542.76
651.52	40282.96
651.67	40610.64
651.81	40435.10
651.96	40737.02
652.10	40058.27
652.25	40350.84
652.39	40259.55
652.54	40612.98
652.68	40084.01
652.83	40360.20
652.97	40755.75
653.12	40517.01
653.26	40428.07
653.41	40458.50
653.55	40294.66
653.70	40168.27
653.84	40870.43
653.99	40538.08
654.13	40037.20
654.27	39533.99
654.42	39885.07
654.56	39931.88
654.71	39878.05
654.85	40353.18
655.00	40170.61
655.14	40259.55
655.29	40172.96
655.43	40187.00
655.57	39639.31
655.72	39578.46
655.86	39639.31
656.01	39674.42
656.15	39175.89
656.30	39718.89
656.44	39793.79
656.58	39882.73
656.73	39541.01
656.87	39124.40
657.01	39400.58
657.16	39569.10
657.30	39456.75
657.45	39508.24
657.59	39402.92
657.73	39061.20
657.88	39276.53
658.02	39571.44
658.16	39358.45
658.31	39704.85
658.45	39922.52
658.60	39306.96
658.74	38775.66
658.88	39040.14
659.03	39023.75
659.17	39030.77
659.31	39192.27
659.46	38511.17
659.60	39103.33
659.74	38607.14
659.89	38714.80
660.03	38064.13
660.17	38621.18
660.32	38953.54
660.46	38660.97
660.60	38504.15
660.74	38749.91
660.89	38742.89
661.03	38045.41
661.17	37834.76
661.32	38188.18
661.46	38333.29
661.60	38260.74
661.74	38288.82
661.89	38204.56
662.03	38426.92
662.17	37982.21
662.31	37811.35
662.46	38520.54
662.60	37743.48
662.74	37455.59
662.88	37773.91
663.03	37619.43
663.17	37350.27
663.31	37598.37
663.45	37694.33
663.60	38078.18
663.74	37970.51
663.88	37422.83
664.02	37668.58
664.17	37500.06
664.31	37364.31
664.45	36964.08
664.59	36987.49
664.73	37273.03
664.88	37160.69
665.02	36727.69
665.16	36978.12
665.30	36676.19
665.44	37247.29
665.59	37064.72
665.73	36671.51
665.87	36437.46
666.01	36472.57
666.15	36271.28
666.29	36652.79
666.44	37085.79
666.58	36641.09
666.72	36322.77
666.86	36526.40
667.00	36357.88
667.14	36016.16
667.28	36142.55
667.43	36500.65
667.57	36460.87
667.71	36346.18
667.85	36273.62
667.99	35981.06
668.13	35887.43
668.27	35700.19
668.41	35566.78
668.56	35522.31
668.70	35049.52
668.84	35526.99
668.98	35381.88
669.12	35487.20
669.26	35363.15
669.40	35541.03
669.54	35201.66
669.68	35510.61
669.82	35051.86
669.96	34958.24
670.10	34752.27
670.25	34668.02
670.39	34789.72
670.53	35168.89
670.67	34902.07
670.81	35129.10
670.95	34951.22
671.09	34754.61
671.23	34478.43
671.37	34604.82
671.51	34394.17
671.65	34302.89
671.79	34295.87
671.93	34424.60
672.07	34515.88
672.21	34242.04
672.35	34031.39
672.49	34433.96
672.63	33947.13
672.77	33797.34
672.91	33928.41
673.05	33905.00
673.19	33722.44
673.33	33359.66
673.47	33401.79
673.61	33450.94
673.75	33046.02
673.89	33067.09
674.03	32503.02
674.17	32797.93
674.31	32657.49
674.45	33006.23
674.59	32945.38
674.73	32891.55
674.87	32484.30
675.01	32046.62
675.15	32067.68
675.29	32173.00
675.43	32488.98
675.56	32273.65
675.70	32158.96
675.84	32215.13
675.98	30913.80
676.12	31564.46
676.26	32121.51
676.40	31880.44
676.54	31337.43
676.68	31386.58
676.82	31030.82
676.96	31402.97
677.10	31669.79
677.23	31140.83
677.37	31185.30
677.51	31077.63
677.65	30897.41
677.79	30845.92
677.93	30794.43
678.07	30714.85
678.21	30696.13
678.34	30555.69
678.48	30543.99
678.62	29923.75
678.76	30366.11
678.90	29731.83
679.04	30061.84
679.18	30359.09
679.31	29881.62
679.45	29570.33
679.59	29434.58
679.73	29200.52
679.87	29287.12
680.00	29530.54
680.14	29406.49
680.28	29146.69
680.42	29273.08
680.56	28865.83
680.70	28849.44
680.83	28542.83
680.97	29134.99
681.11	28638.80
681.25	28194.09
681.39	28533.47
681.52	28435.17
681.66	27960.04
681.80	27765.78
681.94	27513.00
682.07	27777.48
682.21	27728.33
682.35	27300.01
682.49	27887.48
682.62	27758.75
682.76	27903.87
682.90	27372.57
683.04	27206.39
683.17	27220.43
683.31	26937.23
683.45	27058.93
683.59	26607.21
683.72	26429.33
683.86	26508.91
684.00	26733.60
684.13	26806.16
684.27	26609.55
684.41	26436.35
684.55	26419.97
684.68	26342.73
684.82	25750.57
684.96	25565.67
685.09	26022.08
685.23	25671.00
685.37	25706.10
685.50	25696.74
685.64	25869.94
685.78	25783.34
685.91	25266.08
686.05	25013.31
686.19	24606.05
686.32	24718.40
686.46	24451.58
686.60	24489.03
686.73	24622.44
686.87	24732.44
687.01	24568.60
687.14	24622.44
687.28	24631.80
687.42	24535.84
687.55	24386.04
687.69	24648.18
687.82	23981.13
687.96	24072.41
688.10	24184.76
688.23	23824.31
688.37	24184.76
688.50	24100.50
688.64	23424.08
688.78	23821.97
688.91	23513.02
689.05	23587.92
689.18	23201.73
689.32	22955.97
689.46	22789.80
689.59	22890.44
689.73	23213.43
689.86	23131.51
690.00	22757.03
690.13	22717.24
690.27	22623.62
690.41	22609.58
690.54	22431.69
690.68	22150.83
690.81	22160.19
690.95	21841.88
691.08	22356.80
691.22	21958.91
691.35	21584.42
691.49	21675.70
691.62	21708.47
691.76	21345.69
691.89	21329.30
692.03	20954.82
692.16	21041.42
692.30	21362.07
692.43	20985.24
692.57	20685.65
692.70	20606.08
692.84	20704.38
692.97	20514.80
693.11	20444.58
693.24	20226.91
693.38	20137.97
693.51	20210.53
693.65	20020.94
693.78	20023.28
693.92	20084.14
694.05	19840.72
694.19	20170.74
694.32	19878.17
694.45	19953.07
694.59	20093.50
694.72	19908.60
694.86	19517.73
694.99	19304.74
695.13	19419.42
695.26	19229.84
695.39	18897.49
695.53	18813.23
695.66	18930.25
695.80	18934.93
695.93	18970.04
696.07	18911.53
696.20	18478.53
696.33	18534.70
696.47	18328.74
696.60	18104.04
696.73	18649.39
696.87	18249.16
697.00	18228.09
697.14	17867.65
697.27	17949.57
697.40	17736.58
697.54	17935.53
697.67	17638.28
697.80	17647.64
697.94	17673.39
698.07	17530.61
698.21	17282.52
698.34	17633.60
698.47	16945.48
698.61	16879.94
698.74	16985.27
698.87	16959.52
699.01	16681.00
699.14	16915.05
699.27	16795.68
699.40	16575.67
699.54	16432.90
699.67	16704.40
699.80	16248.00
699.94	16299.49
700.07	16369.71
700.20	16334.60
700.34	15901.60
700.47	15983.52
700.60	16329.92
700.73	16449.28
700.87	15976.50
701.00	15655.84
701.13	15737.76
701.26	15501.37
701.40	15674.57
701.53	15440.51
701.66	15527.11
701.79	15492.01
701.93	15136.24
702.06	14820.27
702.19	14855.38
702.32	15009.86
702.46	15143.27
702.59	15250.93
702.72	15117.52
702.85	15014.54
702.99	14527.71
703.12	14654.09
703.25	14572.18
703.38	14527.71
703.51	14813.25
703.65	14281.95
703.78	13877.04
703.91	14080.66
704.04	14073.64
704.17	13860.65
704.31	13877.04
704.44	14047.90
704.57	14019.81
704.70	13996.40
704.83	13504.89
704.96	13671.07
705.10	13469.78
705.23	13476.80
>>>>>End Processed Spectral Data<<<<<
