SpectraSuite Data File
++++++++++++++++++++++++++++++++++++
Date: Fri Oct 25 11:34:20 EDT 2013
User: price-jones
Dark Spectrum Present: No
Reference Spectrum Present: No
Number of Sampled Component Spectra: 1
Spectrometers: USB2+H05261
Integration Time (usec): 100000 (USB2+H05261)
Spectra Averaged: 1 (USB2+H05261)
Boxcar Smoothing: 0 (USB2+H05261)
Correct for Electrical Dark: No (USB2+H05261)
Strobe/Lamp Enabled: No (USB2+H05261)
Correct for Detector Non-linearity: No (USB2+H05261)
Correct for Stray Light: No (USB2+H05261)
Number of Pixels in Processed Spectrum: 2048
>>>>>Begin Processed Spectral Data<<<<<
365.73	294.91
365.92	294.91
366.12	294.91
366.32	245.76
366.52	168.52
366.72	264.48
366.91	128.73
367.11	241.08
367.31	182.56
367.51	145.11
367.70	145.11
367.90	201.29
368.10	142.77
368.30	128.73
368.49	159.16
368.69	250.44
368.89	95.96
369.09	191.92
369.28	175.54
369.48	220.01
369.68	248.10
369.87	273.84
370.07	238.73
370.27	297.25
370.47	393.21
370.66	468.11
370.86	571.09
371.06	521.94
371.25	561.73
371.45	554.71
371.65	554.71
371.84	519.60
372.04	531.30
372.24	568.75
372.44	533.64
372.63	587.47
372.83	596.84
373.03	531.30
373.22	550.03
373.42	547.69
373.62	603.86
373.81	617.90
374.01	720.88
374.21	634.29
374.40	650.67
374.60	791.10
374.79	655.35
374.99	634.29
375.19	596.84
375.38	606.20
375.58	636.63
375.78	610.88
375.97	580.45
376.17	662.37
376.37	681.10
376.56	734.93
376.76	638.97
376.95	667.05
377.15	713.86
377.35	671.73
377.54	622.58
377.74	699.82
377.93	629.60
378.13	657.69
378.33	718.54
378.52	685.78
378.72	699.82
378.91	641.31
379.11	713.86
379.31	702.16
379.50	683.44
379.70	695.14
379.89	706.84
380.09	690.46
380.28	737.27
380.48	739.61
380.68	711.52
380.87	746.63
381.07	641.31
381.26	805.14
381.46	739.61
381.65	755.99
381.85	690.46
382.04	795.78
382.24	770.04
382.43	760.67
382.63	793.44
382.83	786.42
383.02	774.72
383.22	915.15
383.41	842.59
383.61	816.85
383.80	863.66
384.00	706.84
384.19	732.59
384.39	823.87
384.58	774.72
384.78	795.78
384.97	819.19
385.17	819.19
385.36	812.17
385.56	849.61
385.75	847.27
385.95	917.49
386.14	894.08
386.34	891.74
386.53	833.23
386.72	828.55
386.92	786.42
387.11	844.93
387.31	938.55
387.50	840.25
387.70	858.98
387.89	795.78
388.09	919.83
388.28	812.17
388.48	926.85
388.67	973.66
388.86	959.62
389.06	894.08
389.25	901.11
389.45	933.87
389.64	947.92
389.84	964.30
390.03	1004.09
390.22	973.66
390.42	910.47
390.61	985.37
390.81	908.13
391.00	875.36
391.19	992.39
391.39	987.71
391.58	947.92
391.78	1036.86
391.97	1025.15
392.16	945.58
392.36	1020.47
392.55	954.94
392.75	1015.79
392.94	1034.52
393.13	1008.77
393.33	1034.52
393.52	1083.67
393.71	1015.79
393.91	1097.71
394.10	1074.31
394.29	1125.80
394.49	1015.79
394.68	1093.03
394.88	1111.75
395.07	1062.60
395.26	1144.52
395.46	1137.50
395.65	1118.78
395.84	1130.48
396.04	1217.08
396.23	1160.91
396.42	1139.84
396.62	1109.41
396.81	1174.95
397.00	1233.46
397.19	1135.16
397.39	1196.01
397.58	1259.21
397.77	1100.05
397.97	1235.80
398.16	1284.95
398.35	1252.19
398.55	1181.97
398.74	1235.80
398.93	1277.93
399.12	1242.82
399.32	1268.57
399.51	1240.48
399.70	1268.57
399.90	1221.76
400.09	1313.04
400.28	1352.83
400.47	1362.19
400.67	1413.68
400.86	1348.15
401.05	1474.54
401.24	1570.50
401.44	1376.24
401.63	1416.02
401.82	1453.47
402.01	1334.11
402.21	1432.41
402.40	1409.00
402.59	1481.56
402.78	1488.58
402.97	1493.26
403.17	1533.05
403.36	1467.52
403.55	1521.35
403.74	1600.93
403.93	1556.46
404.13	1554.12
404.32	1600.93
404.51	1551.78
404.70	1664.12
404.89	1533.05
405.09	1650.08
405.28	1675.82
405.47	1589.22
405.66	1638.38
405.85	1671.14
406.05	1713.27
406.24	1633.69
406.43	1703.91
406.62	1720.29
406.81	1755.40
407.00	1645.40
407.20	1746.04
407.39	1732.00
407.58	1813.92
407.77	1753.06
407.96	1767.10
408.15	1781.15
408.34	1813.92
408.54	1799.87
408.73	1963.71
408.92	1811.57
409.11	1959.03
409.30	1935.62
409.49	1919.24
409.68	1949.67
409.87	1952.01
410.07	1930.94
410.26	1975.41
410.45	2031.58
410.64	2008.18
410.83	2024.56
411.02	2169.68
411.21	2122.87
411.40	2083.08
411.59	2174.36
411.78	2134.57
411.98	2165.00
412.17	2146.27
412.36	2275.00
412.55	2242.23
412.74	2200.10
412.93	2359.26
413.12	2167.34
413.31	2363.94
413.50	2223.51
413.69	2324.15
413.88	2410.75
414.07	2392.03
414.26	2413.09
414.45	2382.67
414.64	2490.33
414.83	2459.90
415.02	2530.12
415.22	2544.16
415.41	2612.04
415.60	2506.71
415.79	2492.67
415.98	2682.25
416.17	2654.17
416.36	2640.12
416.55	2752.47
416.74	2766.51
416.93	2590.97
417.12	2832.05
417.31	2773.53
417.50	2759.49
417.69	2787.58
417.88	2928.01
418.07	2878.86
418.26	2787.58
418.45	2937.37
418.64	3005.25
418.83	2918.65
419.02	2862.48
419.21	2991.20
419.39	3014.61
419.58	3101.21
419.77	2937.37
419.96	2932.69
420.15	3038.02
420.34	3112.91
420.53	3033.33
420.72	3194.83
420.91	3199.51
421.10	3150.36
421.29	3162.06
421.48	3129.30
421.67	3246.32
421.86	3143.34
422.05	3213.56
422.24	3227.60
422.43	3339.94
422.61	3204.19
422.80	3288.45
422.99	3272.07
423.18	3372.71
423.37	3262.71
423.56	3368.03
423.75	3433.57
423.94	3199.51
424.13	3112.91
424.32	3201.85
424.50	3372.71
424.69	3368.03
424.88	3391.44
425.07	3279.09
425.26	3229.94
425.45	3328.24
425.64	3349.31
425.83	3330.58
426.01	3307.18
426.20	3424.20
426.39	3353.99
426.58	3419.52
426.77	3386.76
426.96	3449.95
427.15	3456.97
427.33	3433.57
427.52	3489.74
427.71	3538.89
427.90	3480.38
428.09	3574.00
428.28	3574.00
428.46	3651.24
428.65	3604.42
428.84	3700.39
429.03	3655.92
429.22	3634.85
429.40	3637.19
429.59	3669.96
429.78	3578.68
429.97	3520.17
430.16	3566.98
430.34	3707.41
430.53	3714.43
430.72	3684.00
430.91	3789.33
431.10	3808.05
431.28	3838.48
431.47	3992.95
431.66	4046.79
431.85	3913.38
432.03	3782.31
432.22	3932.10
432.41	3918.06
432.60	3957.85
432.79	3999.98
432.97	3920.40
433.16	3983.59
433.35	4098.28
433.54	3953.16
433.72	4119.34
433.91	4093.60
434.10	4182.54
434.28	4147.43
434.47	4198.92
434.66	4060.83
434.85	4276.16
435.03	4166.15
435.22	4227.01
435.41	4334.67
435.59	4299.56
435.78	4325.31
435.97	4313.61
436.16	4353.40
436.34	4215.30
436.53	4329.99
436.72	4374.46
436.90	4255.09
437.09	4458.72
437.28	4259.78
437.46	4409.57
437.65	4348.72
437.84	4416.59
438.02	4339.35
438.21	4505.53
438.40	4456.38
438.58	4568.73
438.77	4652.98
438.96	4648.30
439.14	4727.88
439.33	4788.74
439.52	4709.16
439.70	4917.47
439.89	4875.34
440.08	4884.70
440.26	5006.41
440.45	4863.63
440.63	5029.81
440.82	4912.78
441.01	5027.47
441.19	5001.72
441.38	5081.30
441.57	5123.43
441.75	5088.32
441.94	5275.57
442.12	5268.55
442.31	5336.42
442.50	5261.52
442.68	5233.44
442.87	5289.61
443.05	5380.89
443.24	5373.87
443.43	5329.40
443.61	5301.31
443.80	5568.13
443.98	5359.83
444.17	5181.95
444.35	5369.19
444.54	5357.49
444.73	5600.90
444.91	5472.17
445.10	5458.13
445.28	5411.32
445.47	5434.72
445.65	5542.39
445.84	5544.73
446.02	5554.09
446.21	5659.42
446.39	5575.16
446.58	5526.00
446.77	5406.64
446.95	5355.15
447.14	5652.39
447.32	5579.84
447.51	5507.28
447.69	5554.09
447.88	5469.83
448.06	5589.20
448.25	5397.28
448.43	5748.36
448.62	5753.04
448.80	5664.10
448.99	5703.89
449.17	5736.65
449.36	5582.18
449.54	5790.49
449.73	5827.93
449.91	6008.16
450.10	5799.85
450.28	5935.60
450.46	5856.02
450.65	6001.13
450.83	6017.52
451.02	5959.00
451.20	6073.69
451.39	6036.24
451.57	6066.67
451.76	5884.11
451.94	5900.49
452.13	6024.54
452.31	6022.20
452.49	5933.26
452.68	6230.51
452.86	6054.97
453.05	6052.63
453.23	6197.74
453.42	6127.52
453.60	6251.57
453.78	6228.17
453.97	6181.35
454.15	6321.79
454.34	6352.21
454.52	6230.51
454.70	6207.10
454.89	6333.49
455.07	6300.72
455.26	6305.40
455.44	6469.24
455.62	6431.79
455.81	6473.92
455.99	6497.33
456.17	6602.65
456.36	6607.33
456.54	6604.99
456.73	6691.59
456.91	6869.47
457.09	6684.57
457.28	6939.69
457.46	6757.13
457.64	6906.92
457.83	6759.47
458.01	6853.09
458.19	6951.39
458.38	6892.88
458.56	6707.98
458.74	7019.27
458.93	6876.49
459.11	7101.19
459.29	6731.38
459.48	6984.16
459.66	7089.48
459.84	7201.83
460.03	7316.51
460.21	7260.34
460.39	7143.32
460.57	7260.34
460.76	7424.18
460.94	7211.19
461.12	7246.30
461.31	7389.07
461.49	7054.37
461.67	7225.23
461.85	7506.10
462.04	7492.05
462.22	7943.78
462.40	7520.14
462.59	7454.61
462.77	7410.14
462.95	7590.36
463.13	7440.56
463.32	7569.29
463.50	7627.81
463.68	7599.72
463.86	7742.49
464.05	7538.87
464.23	7714.41
464.41	7700.36
464.59	7552.91
464.78	7885.26
464.96	7805.69
465.14	7850.16
465.32	7850.16
465.50	7798.66
465.69	7974.21
465.87	7864.20
466.05	7906.33
466.23	7812.71
466.41	7819.73
466.60	8107.62
466.78	7932.08
466.96	7845.48
467.14	7892.29
467.32	7859.52
467.51	8081.87
467.69	7995.27
467.87	8100.59
468.05	8248.05
468.23	8060.80
468.41	7988.25
468.60	8163.79
468.78	8341.67
468.96	8131.02
469.14	8315.92
469.32	8568.70
469.50	8067.83
469.69	8301.88
469.87	8500.83
470.05	8393.16
470.23	8557.00
470.41	8526.57
470.59	8540.61
470.77	8468.06
470.95	8472.74
471.14	8821.48
471.32	8416.57
471.50	8894.04
471.68	8709.13
471.86	8599.13
472.04	8711.47
472.22	9111.71
472.40	8812.12
472.58	8940.85
472.77	8922.12
472.95	8999.36
473.13	9062.55
473.31	9097.66
473.49	9441.72
473.67	9177.24
473.85	9144.47
474.03	9413.63
474.21	9397.25
474.39	9570.45
474.57	9493.21
474.75	9521.30
474.93	9645.35
475.12	9549.39
475.30	9762.37
475.48	9750.67
475.66	9673.43
475.84	9680.46
476.02	9783.44
476.20	10064.30
476.38	9966.00
476.56	10326.44
476.74	10244.52
476.92	10003.45
477.10	10251.55
477.28	10509.01
477.46	10186.01
477.64	10490.28
477.82	10448.15
478.00	10813.28
478.18	10642.42
478.36	10839.02
478.54	10689.23
478.72	10759.44
478.90	11091.80
479.08	11232.23
479.26	11431.18
479.44	11260.32
479.62	11477.99
479.80	11454.58
479.98	11487.35
480.16	11800.98
480.34	11667.57
480.52	11997.59
480.70	12086.53
480.88	11620.76
481.06	12095.89
481.24	11861.84
481.41	12383.77
481.59	12280.79
481.77	12423.56
481.95	12514.84
482.13	12741.88
482.31	12346.33
482.49	12798.05
482.67	12805.07
482.85	13064.87
483.03	13121.04
483.21	13139.77
483.39	13221.69
483.57	12978.27
483.74	13322.33
483.92	13607.87
484.10	13462.76
484.28	13860.65
484.46	14029.17
484.64	14221.10
484.82	14111.09
485.00	14118.11
485.18	14368.55
485.35	14523.02
485.53	14427.06
485.71	14787.50
485.89	14988.79
486.07	14890.49
486.25	14991.13
486.43	15180.71
486.61	15257.95
486.78	15279.02
486.96	15302.42
487.14	15517.75
487.32	15580.95
487.50	15793.94
487.68	15798.62
487.85	16208.21
488.03	16084.16
488.21	16224.59
488.39	16697.38
488.57	16589.72
488.75	16975.91
488.92	16751.21
489.10	16854.20
489.28	17114.00
489.46	17322.30
489.64	17170.17
489.81	17275.49
489.99	17329.33
490.17	17352.73
490.35	17832.54
490.53	17816.16
490.70	17809.14
490.88	17965.95
491.06	18235.11
491.24	18267.88
491.41	18312.35
491.59	18735.99
491.77	18717.26
491.95	18909.19
492.13	18906.85
492.30	19098.77
492.48	19199.41
492.66	18630.66
492.84	19271.97
493.01	19646.46
493.19	19433.47
493.37	19878.17
493.54	19789.23
493.72	19913.28
493.90	19824.34
494.08	20044.35
494.25	20318.19
494.43	19997.54
494.61	20507.77
494.79	20301.81
494.96	20734.81
495.14	20519.48
495.32	20936.09
495.49	20943.11
495.67	21057.80
495.85	21561.02
496.02	21345.69
496.20	21277.81
496.38	21774.00
496.55	21792.73
496.73	22169.55
496.91	21867.63
497.09	22150.83
497.26	22309.99
497.44	21984.65
497.62	22207.00
497.79	22920.87
497.97	22277.22
498.14	22934.91
498.32	23108.11
498.50	22724.26
498.67	23351.52
498.85	23295.35
499.03	23234.50
499.20	23442.81
499.38	23227.48
499.56	23328.12
499.73	23400.68
499.91	23466.21
500.08	23892.19
500.26	24081.77
500.44	23730.69
500.61	23985.81
500.79	23927.30
500.97	23960.06
501.14	24372.00
501.32	24168.37
501.49	24568.60
501.67	24372.00
501.84	24521.79
502.02	24648.18
502.20	24694.99
502.37	24884.58
502.55	24706.70
502.72	25142.03
502.90	25097.56
503.07	24690.31
503.25	25465.03
503.43	25186.50
503.60	25338.64
503.78	25413.54
503.95	25671.00
504.13	25436.94
504.30	25989.31
504.48	25853.56
504.65	25722.49
504.83	26120.38
505.01	26445.71
505.18	26139.10
505.36	26291.24
505.53	26331.03
505.71	26682.11
505.88	26611.89
506.06	26583.80
506.23	26726.58
506.41	26508.91
506.58	26857.65
506.76	26529.97
506.93	26967.65
507.11	27201.71
507.28	26859.99
507.46	26852.97
507.63	27269.58
507.81	27197.02
507.98	27461.51
508.16	27550.45
508.33	27613.64
508.50	27555.13
508.68	27660.45
508.85	28381.34
509.03	27817.27
509.20	27850.03
509.38	28329.84
509.55	28229.20
509.73	28294.74
509.90	28261.97
510.08	28540.49
510.25	28383.68
510.42	28615.39
510.60	28823.70
510.77	28985.19
510.95	29027.32
511.12	29198.18
511.30	29142.01
511.47	28847.10
511.64	29364.36
511.82	29289.46
511.99	29181.80
512.17	29165.42
512.34	29277.76
512.51	29827.79
512.69	29633.52
512.86	29766.93
513.04	29991.62
513.21	29902.68
513.38	30078.22
513.56	29722.46
513.73	30054.82
513.90	29844.17
514.08	30150.78
514.25	30302.92
514.43	30256.11
514.60	30682.08
514.77	30651.66
514.95	30623.57
515.12	30665.70
515.29	30508.88
515.47	30803.79
515.64	31082.31
515.81	30754.64
515.99	31098.70
516.16	31351.48
516.33	31175.94
516.51	31714.26
516.68	31091.68
516.85	31323.39
517.03	31676.81
517.20	31372.54
517.37	31732.98
517.54	31737.66
517.72	31695.53
517.89	31894.48
518.06	31637.02
518.24	31988.10
518.41	31791.50
518.58	32142.58
518.75	31725.96
518.93	32016.19
519.10	32264.28
519.27	32697.28
519.45	32243.22
519.62	32472.59
519.79	32671.54
519.96	32343.86
520.14	32383.65
520.31	32474.93
520.48	32744.09
520.65	32891.55
520.83	33315.19
521.00	33090.49
521.17	32954.74
521.34	33137.30
521.52	33696.69
521.69	33455.62
521.86	33450.94
522.03	33539.88
522.20	33645.20
522.38	33825.42
522.55	33708.40
522.72	34031.39
522.89	33954.15
523.07	34377.79
523.24	33752.87
523.41	33949.47
523.58	33783.29
523.75	34380.13
523.92	33834.78
524.10	34249.06
524.27	34401.19
524.44	34637.59
524.61	34635.25
524.78	35091.65
524.96	34738.23
525.13	34630.57
525.30	35159.53
525.47	35140.80
525.64	34909.09
525.81	34890.37
525.98	34946.54
526.16	35168.89
526.33	34834.19
526.50	35328.05
526.67	35012.07
526.84	35281.24
527.01	35332.73
527.18	35246.13
527.36	35459.12
527.53	35927.22
527.70	35503.59
527.87	35789.13
528.04	35683.81
528.21	35358.47
528.38	35751.68
528.55	35857.01
528.72	35777.43
528.89	35805.52
529.07	36158.94
529.24	35768.07
529.41	36456.18
529.58	36364.90
529.75	36292.35
529.92	35936.59
530.09	36290.01
530.26	36039.57
530.43	36287.67
530.60	36217.45
530.77	36783.86
530.94	36369.58
531.11	36517.04
531.28	36753.43
531.46	36992.17
531.63	36673.85
531.80	36776.84
531.97	37167.71
532.14	37109.19
532.31	36978.12
532.48	37244.94
532.65	37163.03
532.82	37053.02
532.99	37273.03
533.16	37134.94
533.33	37134.94
533.50	37904.98
533.67	37591.34
533.84	37291.76
534.01	37619.43
534.18	37188.77
534.35	37942.42
534.52	38139.03
534.69	37972.85
534.86	38047.75
535.03	38150.73
535.20	37907.32
535.37	38277.12
535.54	38623.52
535.71	37961.15
535.88	38326.27
536.05	38455.00
536.22	38281.80
536.38	38185.84
536.55	38445.64
536.72	38281.80
536.89	38487.77
537.06	38466.70
537.23	38707.78
537.40	38330.95
537.57	38010.30
537.74	38419.89
537.91	38574.37
538.08	38728.84
538.25	38342.66
538.42	38768.63
538.59	39112.69
538.75	38541.60
538.92	38836.51
539.09	39178.23
539.26	38960.56
539.43	39236.74
539.60	39243.76
539.77	39276.53
539.94	39487.18
540.11	39405.26
540.28	39751.66
540.44	39416.96
540.61	39379.51
540.78	39330.36
540.95	39491.86
541.12	39447.39
541.29	39543.35
541.46	39421.64
541.62	39751.66
541.79	39489.52
541.96	39400.58
542.13	39524.63
542.30	39943.58
542.47	39969.33
542.63	39814.85
542.80	39859.32
542.97	40378.92
543.14	40453.82
543.31	40381.26
543.48	39927.20
543.64	40669.15
543.81	40531.06
543.98	40800.22
544.15	40397.65
544.32	40868.09
544.48	41027.25
544.65	40697.24
544.82	40926.61
544.99	40484.25
545.16	40818.94
545.32	40676.17
545.49	41687.28
545.66	41212.15
545.83	40898.52
546.00	40713.62
546.16	41205.13
546.33	41102.15
546.50	40809.58
546.67	41106.83
546.83	41111.51
547.00	41116.19
547.17	40865.75
547.34	41310.46
547.50	41848.78
547.67	42047.72
547.84	41588.98
548.00	41413.44
548.17	42174.11
548.34	42171.77
548.51	41523.44
548.67	42129.64
548.84	41808.99
549.01	41883.89
549.18	41886.23
549.34	41858.14
549.51	41930.70
549.68	41923.68
549.84	42026.66
550.01	42171.77
550.18	41408.76
550.34	42237.31
550.51	41965.81
550.68	41834.74
550.84	41942.40
551.01	42487.74
551.18	42295.82
551.34	42234.97
551.51	42719.46
551.68	42686.69
551.84	42501.79
552.01	42333.27
552.18	42368.38
552.34	42148.37
552.51	42433.91
552.68	42567.32
552.84	42480.72
553.01	42852.87
553.18	43014.37
553.34	42691.37
553.51	43002.66
553.67	42665.63
553.84	43040.11
554.01	42792.01
554.17	42817.76
554.34	43023.73
554.51	42880.95
554.67	43086.92
554.84	43089.26
555.00	43313.95
555.17	43100.97
555.33	43187.56
555.50	43337.36
555.67	42913.72
555.83	43533.96
556.00	43398.21
556.16	44128.46
556.33	43873.34
556.50	43082.24
556.66	43725.89
556.83	43367.79
556.99	43618.22
557.16	43955.26
557.32	43524.60
557.49	43660.35
557.65	43576.09
557.82	43573.75
557.98	43758.66
558.15	43821.85
558.32	44095.69
558.48	43456.73
558.65	43791.42
558.81	43667.37
558.98	44039.52
559.14	43384.17
559.31	43892.07
559.47	44004.41
559.64	43936.54
559.80	43957.60
559.97	44102.71
560.13	43814.83
560.30	43786.74
560.46	44332.09
560.63	43856.96
560.79	44467.84
560.96	44151.87
561.12	44437.41
561.29	43826.53
561.45	44341.45
561.61	44060.58
561.78	43913.13
561.94	44378.90
562.11	44144.84
562.27	44002.07
562.44	44027.82
562.60	44509.97
562.77	44217.40
562.93	43758.66
563.10	44507.63
563.26	44282.94
563.42	45097.44
563.59	44147.18
563.75	44346.13
563.92	44175.27
564.08	44411.67
564.24	44374.22
564.41	44748.70
564.57	44533.37
564.74	45099.78
564.90	44624.65
565.07	44409.32
565.23	44568.48
565.39	44444.43
565.56	44673.81
565.72	44481.88
565.88	44594.23
566.05	44292.30
566.21	44470.18
566.38	44577.84
566.54	45038.93
566.70	44996.80
566.87	44839.98
567.03	44563.80
567.19	44849.35
567.36	44870.41
567.52	44975.73
567.68	45008.50
567.85	44814.24
568.01	45268.30
568.17	44711.25
568.34	44994.46
568.50	44994.46
568.66	44582.52
568.83	44854.03
568.99	44900.84
569.15	45329.16
569.32	44938.29
569.48	44526.35
569.64	45593.64
569.81	45329.16
569.97	45340.86
570.13	45144.25
570.30	44942.97
570.46	45104.46
570.62	45429.80
570.78	45333.84
570.95	45223.83
571.11	45345.54
571.27	45069.36
571.43	45076.38
571.60	44788.49
571.76	44989.78
571.92	45406.39
572.09	45331.50
572.25	45603.00
572.41	45116.17
572.57	45305.75
572.74	45645.13
572.90	45029.57
573.06	45261.28
573.22	45649.81
573.38	45607.68
573.55	45542.14
573.71	45244.90
573.87	45364.26
574.03	45055.31
574.20	45507.04
574.36	45851.09
574.52	45755.13
574.68	45628.74
574.84	45359.58
575.01	45598.32
575.17	45661.51
575.33	45539.80
575.49	45457.88
575.65	45408.73
575.82	45193.40
575.98	45340.86
576.14	45483.63
576.30	45326.81
576.46	45474.27
576.62	45455.54
576.79	45497.67
576.95	45378.31
577.11	44989.78
577.27	45436.82
577.43	45490.65
577.59	45481.29
577.75	45294.05
577.92	45743.43
578.08	45460.23
578.24	45525.76
578.40	45780.88
578.56	45478.95
578.72	45382.99
578.88	45949.40
579.04	45577.25
579.21	45401.71
579.37	45413.41
579.53	45855.78
579.69	45610.02
579.85	45612.36
580.01	45750.45
580.17	45535.12
580.33	45787.90
580.49	45467.25
580.65	45689.60
580.82	46045.36
580.98	45280.00
581.14	45415.76
581.30	45659.17
581.46	45544.48
581.62	45631.08
581.78	45109.14
581.94	45188.72
582.10	45762.15
582.26	45998.55
582.42	45872.16
582.58	45790.24
582.74	45911.95
582.90	45610.02
583.06	45797.26
583.22	45975.14
583.38	46061.74
583.54	45928.33
583.70	45755.13
583.86	46169.41
584.02	45977.48
584.18	45998.55
584.34	46485.38
584.50	45764.49
584.66	46171.75
584.82	45729.39
584.98	46251.33
585.14	46206.86
585.30	45581.93
585.46	45970.46
585.62	45675.55
585.78	45841.73
585.94	45776.20
586.10	46047.70
586.26	45713.00
586.42	45394.69
586.58	45872.16
586.74	45827.69
586.90	45830.03
587.06	45949.40
587.22	45504.70
587.38	46045.36
587.54	46377.72
587.70	46019.61
587.86	46192.81
588.02	45928.33
588.18	46277.07
588.34	46038.34
588.49	46167.07
588.65	45785.56
588.81	45834.71
588.97	45684.92
589.13	45991.53
589.29	45776.20
589.45	46513.47
589.61	46321.54
589.77	46302.82
589.93	46057.06
590.08	46543.89
590.24	46337.93
590.40	46424.53
590.56	46312.18
590.72	46225.58
590.88	46375.37
591.04	46052.38
591.20	46113.23
591.35	46380.06
591.51	46799.01
591.67	46454.95
591.83	46873.91
591.99	46263.03
592.15	46199.83
592.31	46384.74
592.46	46148.34
592.62	46012.59
592.78	46457.29
592.94	46763.90
593.10	46808.37
593.26	46738.16
593.41	46784.97
593.57	46490.06
593.73	46651.56
593.89	46684.33
594.05	46841.14
594.20	46457.29
594.36	47091.58
594.52	46696.03
594.68	46581.34
594.84	46487.72
594.99	47126.69
595.15	46576.66
595.31	46696.03
595.47	46822.42
595.62	46731.14
595.78	47105.62
595.94	46745.18
596.10	46611.77
596.25	46684.33
596.41	46857.52
596.57	46773.27
596.73	46803.69
596.88	46820.08
597.04	46679.64
597.20	46726.46
597.36	46419.84
597.51	46422.19
597.67	46373.03
597.83	46773.27
597.99	46906.68
598.14	46670.28
598.30	46213.88
598.46	46703.05
598.61	47131.37
598.77	46902.00
598.93	46852.84
599.09	47028.38
599.24	47098.60
599.40	46852.84
599.56	46653.90
599.71	47082.22
599.87	47145.41
600.03	46927.74
600.18	47014.34
600.34	46880.93
600.50	46473.68
600.65	46801.35
600.81	47253.08
600.97	46897.31
601.12	46883.27
601.28	46911.36
601.44	46539.21
601.59	46724.11
601.75	46635.17
601.91	46850.50
602.06	46742.84
602.22	47210.95
602.37	46728.80
602.53	46745.18
602.69	47002.64
602.84	46747.52
603.00	46539.21
603.16	46707.73
603.31	46834.12
603.47	46951.15
603.62	46719.43
603.78	46920.72
603.94	46930.08
604.09	47019.02
604.25	46485.38
604.40	46649.22
604.56	46689.01
604.71	47124.35
604.87	46525.17
605.03	46478.36
605.18	46656.24
605.34	46939.44
605.49	46485.38
605.65	46937.10
605.80	46394.10
605.96	46440.91
606.12	46534.53
606.27	47028.38
606.43	46335.59
606.58	46363.67
606.74	46717.09
606.89	46436.23
607.05	46780.29
607.20	46866.89
607.36	46625.81
607.51	46337.93
607.67	46457.29
607.82	46504.10
607.98	46689.01
608.13	46674.96
608.29	46689.01
608.44	46899.65
608.60	46504.10
608.75	46965.19
608.91	46370.69
609.06	46410.48
609.22	46712.41
609.37	46581.34
609.53	46302.82
609.68	46871.57
609.84	46307.50
609.99	46588.36
610.15	46656.24
610.30	46494.74
610.46	46382.40
610.61	46689.01
610.76	46630.49
610.92	46237.28
611.07	46527.51
611.23	46057.06
611.38	46564.96
611.54	46473.68
611.69	46597.73
611.84	46698.37
612.00	46017.27
612.15	46501.76
612.31	46525.17
612.46	45895.56
612.62	45869.82
612.77	46550.91
612.92	46667.94
613.08	46412.82
613.23	46237.28
613.39	46153.02
613.54	45647.47
613.69	46480.70
613.85	46227.92
614.00	45996.21
614.15	46230.26
614.31	46078.13
614.46	46045.36
614.62	46160.05
614.77	45759.81
614.92	45893.22
615.08	45989.19
615.23	46370.69
615.38	46295.80
615.54	45893.22
615.69	45886.20
615.84	45703.64
616.00	45888.54
616.15	46504.10
616.30	45940.04
616.46	45942.38
616.61	45584.27
616.76	45759.81
616.92	45385.33
617.07	46089.83
617.22	45511.72
617.37	45052.97
617.53	46094.51
617.68	45886.20
617.83	45607.68
617.99	46071.10
618.14	46274.73
618.29	45722.37
618.45	45413.41
618.60	45670.87
618.75	45619.38
618.90	45586.61
619.06	45387.67
619.21	45619.38
619.36	45984.51
619.51	45736.41
619.67	44980.42
619.82	45460.23
619.97	45841.73
620.12	45469.59
620.28	45317.45
620.43	45621.72
620.58	45319.79
620.73	45673.21
620.89	45518.74
621.04	45605.34
621.19	45532.78
621.34	45104.46
621.49	44921.90
621.65	45350.22
621.80	45422.78
621.95	45378.31
622.10	45151.27
622.25	45537.46
622.41	44727.64
622.56	45020.20
622.71	45137.23
622.86	45160.64
623.01	45368.94
623.16	44940.63
623.32	44732.32
623.47	44893.82
623.62	45144.25
623.77	45181.70
623.92	45118.51
624.07	45420.44
624.23	45198.09
624.38	44685.51
624.53	44692.53
624.68	44884.45
624.83	45034.25
624.98	44549.76
625.13	44404.64
625.29	44559.12
625.44	44917.22
625.59	44891.48
625.74	44669.12
625.89	44542.74
626.04	44376.56
626.19	44713.59
626.34	44671.46
626.49	44177.61
626.65	44271.23
626.80	44252.51
626.95	43812.49
627.10	44659.76
627.25	44308.68
627.40	44348.47
627.55	44488.90
627.70	44662.10
627.85	44327.41
628.00	44538.05
628.15	44325.07
628.30	44306.34
628.45	43983.35
628.60	43665.03
628.76	44231.44
628.91	44154.21
629.06	43770.36
629.21	43636.95
629.36	43695.46
629.51	44037.18
629.66	44362.51
629.81	43653.33
629.96	43936.54
630.11	43704.82
630.26	43646.31
630.41	43861.64
630.56	43718.87
630.71	43660.35
630.86	43515.24
631.01	43552.69
631.16	43772.70
631.31	43711.84
631.46	44023.14
631.61	44086.33
631.76	43910.79
631.91	43400.55
632.06	43938.88
632.21	44067.61
632.36	43971.64
632.51	43363.11
632.66	43611.20
632.81	43480.13
632.96	43332.68
633.10	43648.65
633.25	43669.72
633.40	43454.39
633.55	43758.66
633.70	42862.23
633.85	43381.83
634.00	43236.72
634.15	42873.93
634.30	43320.98
634.45	43157.14
634.60	43395.87
634.75	43615.88
634.90	43625.25
635.05	43140.75
635.19	42988.62
635.34	42803.72
635.49	43065.86
635.64	43077.56
635.79	43255.44
635.94	43157.14
636.09	42904.36
636.24	43288.21
636.39	43194.59
636.53	43016.71
636.68	42483.06
636.83	42637.54
636.98	42438.59
637.13	42593.07
637.28	42682.01
637.43	42176.45
637.57	43236.72
637.72	42562.64
637.87	42955.85
638.02	42204.54
638.17	42553.28
638.32	42344.97
638.46	41911.97
638.61	42319.23
638.76	42265.39
638.91	42506.47
639.06	42567.32
639.20	42412.85
639.35	42291.14
639.50	42052.41
639.65	42096.88
639.80	42569.66
639.94	42513.49
640.09	42326.25
640.24	42211.56
640.39	41687.28
640.54	41738.77
640.68	42113.26
640.83	42775.63
640.98	41748.14
641.13	41970.49
641.27	42710.10
641.42	42057.09
641.57	42405.83
641.72	42583.71
641.86	41752.82
642.01	41923.68
642.16	41834.74
642.31	41603.02
642.45	42120.28
642.60	41703.67
642.75	41783.24
642.90	42146.03
643.04	41771.54
643.19	41811.33
643.34	41794.95
643.48	41698.98
643.63	41221.52
643.78	42036.02
643.93	42089.85
644.07	41776.22
644.22	41907.29
644.37	41429.82
644.51	41324.50
644.66	41591.32
644.81	41591.32
644.95	41752.82
645.10	41710.69
645.25	41771.54
645.39	41549.19
645.54	41254.28
645.69	41031.93
645.83	41071.72
645.98	41181.73
646.13	41188.75
646.27	40856.39
646.42	40900.86
646.57	41471.95
646.71	41326.84
646.86	41397.06
647.00	41399.40
647.15	41265.99
647.30	41441.53
647.44	40905.54
647.59	41273.01
647.74	41109.17
647.88	40903.20
648.03	40982.78
648.17	41280.03
648.32	40898.52
648.47	41237.90
648.61	40772.13
648.76	40797.88
648.90	40673.83
649.05	40549.78
649.20	40636.38
649.34	40648.08
649.49	40767.45
649.63	40912.56
649.78	40638.72
649.92	40744.05
650.07	40973.42
650.21	40907.88
650.36	40781.49
650.51	40968.74
650.65	41099.81
650.80	40870.43
650.94	40779.15
651.09	40446.80
651.23	40596.59
651.38	40545.10
651.52	40360.20
651.67	40463.18
651.81	40687.87
651.96	40219.77
652.10	40041.88
652.25	40360.20
652.39	40769.79
652.54	40165.93
652.68	40203.38
652.83	40315.73
652.97	40488.93
653.12	40280.62
653.26	40369.56
653.41	40407.01
653.55	40098.06
653.70	40147.21
653.84	40304.02
653.99	40329.77
654.13	40151.89
654.27	39826.56
654.42	40191.68
654.56	39889.75
654.71	39894.43
654.85	40299.34
655.00	40027.84
655.14	40072.31
655.29	40177.64
655.43	40151.89
655.57	39807.83
655.72	39449.73
655.86	39566.76
656.01	39688.46
656.15	39243.76
656.30	39672.08
656.44	39416.96
656.58	39667.40
656.73	39718.89
656.87	39339.72
657.01	39416.96
657.16	39409.94
657.30	39152.48
657.45	39597.18
657.59	39213.34
657.73	39196.95
657.88	39178.23
658.02	39337.38
658.16	39782.09
658.31	39351.43
658.45	39260.15
658.60	39276.53
658.74	39290.57
658.88	39295.25
659.03	38983.96
659.17	38909.07
659.31	38539.26
659.46	38899.70
659.60	39313.98
659.74	39009.71
659.89	38616.50
660.03	38113.28
660.17	38604.80
660.32	38689.06
660.46	38801.40
660.60	38162.43
660.74	38621.18
660.89	38319.25
661.03	38068.81
661.17	38286.48
661.32	38539.26
661.46	38452.66
661.60	38237.33
661.74	38263.08
661.89	37708.37
662.03	38443.30
662.17	37722.41
662.31	38176.48
662.46	37979.87
662.60	37701.35
662.74	37715.39
662.88	37471.98
663.03	37600.71
663.17	37448.57
663.31	37179.41
663.45	37338.57
663.60	37804.33
663.74	37462.61
663.88	37237.92
664.02	37195.79
664.17	37289.42
664.31	36779.18
664.45	37357.29
664.59	37015.57
664.73	37113.87
664.88	36715.98
665.02	36891.52
665.16	36800.24
665.30	37034.30
665.44	36730.03
665.59	37001.53
665.73	36648.11
665.87	36290.01
666.01	36680.88
666.15	36816.63
666.29	36737.05
666.44	36690.24
666.58	35967.01
666.72	36306.39
666.86	36191.70
667.00	36215.11
667.14	36247.88
667.28	36177.66
667.43	36016.16
667.57	36285.33
667.71	36580.23
667.85	36369.58
667.99	36044.25
668.13	35803.17
668.27	35906.16
668.41	35555.08
668.56	35264.85
668.70	35564.44
668.84	35370.18
668.98	35070.59
669.12	35395.92
669.26	35431.03
669.40	35459.12
669.54	35339.75
669.68	35082.29
669.82	35260.17
669.96	34808.45
670.10	34440.98
670.25	35171.23
670.39	35044.84
670.53	34974.63
670.67	34684.40
670.81	34932.50
670.95	35040.16
671.09	34347.36
671.23	34426.94
671.37	34506.52
671.51	34541.63
671.65	34199.91
671.79	34251.40
671.93	34120.33
672.07	34370.77
672.21	34649.29
672.35	33673.29
672.49	34204.59
672.63	34015.01
672.77	33682.65
672.91	33961.17
673.05	33439.23
673.19	33546.90
673.33	33270.72
673.47	33139.65
673.61	33294.12
673.75	32692.60
673.89	33268.37
674.03	32631.75
674.17	32718.35
674.31	32994.53
674.45	32545.15
674.59	32601.32
674.73	32816.65
674.87	32844.74
675.01	32229.18
675.15	32336.84
675.29	31831.29
675.43	32039.59
675.56	32510.04
675.70	32116.83
675.84	31725.96
675.98	30782.73
676.12	31838.31
676.26	32210.45
676.40	31817.24
676.54	31370.20
676.68	31569.15
676.82	31314.03
676.96	31178.28
677.10	31541.06
677.23	31426.37
677.37	30984.01
677.51	31037.84
677.65	31103.38
677.79	30862.30
677.93	30841.24
678.07	30682.08
678.21	30490.16
678.34	30274.83
678.48	30270.15
678.62	30040.78
678.76	30139.08
678.90	30471.43
679.04	29930.77
679.18	30316.96
679.31	29696.72
679.45	29340.96
679.59	29642.88
679.73	29916.73
679.87	29563.31
680.00	29376.06
680.14	29682.67
680.28	29209.89
680.42	29074.13
680.56	28905.62
680.70	28671.56
680.83	28631.77
680.97	28713.69
681.11	29057.75
681.25	28456.23
681.39	28212.82
681.52	28512.41
681.66	27646.41
681.80	28030.26
681.94	27501.29
682.07	27728.33
682.21	27365.54
682.35	27536.40
682.49	27536.40
682.62	27220.43
682.76	27536.40
682.90	27082.34
683.04	27545.76
683.17	27080.00
683.31	27182.98
683.45	27070.64
683.59	26569.76
683.72	26354.43
683.86	26476.14
684.00	26319.32
684.13	26766.37
684.27	26249.11
684.41	26590.83
684.55	26380.18
684.68	26113.36
684.82	25708.44
684.96	25977.61
685.09	25942.50
685.23	25771.64
685.37	25748.23
685.50	25993.99
685.64	25521.20
685.78	25621.84
685.91	25706.10
686.05	24844.79
686.19	24959.47
686.32	24891.60
686.46	24805.00
686.60	24271.36
686.73	24666.91
686.87	24753.51
687.01	24884.58
687.14	24428.17
687.28	24444.56
687.42	24196.46
687.55	24154.33
687.69	24180.07
687.82	23821.97
687.96	23915.59
688.10	23939.00
688.23	23814.95
688.37	23878.15
688.50	23969.43
688.64	23632.39
688.78	23456.85
688.91	23274.29
689.05	23140.88
689.18	23110.45
689.32	22541.70
689.46	22752.35
689.59	22705.54
689.73	23028.53
689.86	23138.54
690.00	22761.71
690.13	22789.80
690.27	22293.60
690.41	22682.13
690.54	22415.31
690.68	21940.18
690.81	22335.73
690.95	22176.58
691.08	21996.35
691.22	21479.10
691.35	21876.99
691.49	21879.33
691.62	21561.02
691.76	21238.02
691.89	21268.45
692.03	20947.79
692.16	21111.63
692.30	21207.59
692.43	21067.16
692.57	20823.75
692.70	20547.56
692.84	20748.85
692.97	20365.00
693.11	20585.01
693.24	20173.08
693.38	20365.00
693.51	20390.75
693.65	20016.26
693.78	19880.51
693.92	19838.38
694.05	19955.41
694.19	19803.27
694.32	19868.81
694.45	19829.02
694.59	19765.82
694.72	19917.96
694.86	19477.94
694.99	19473.26
695.13	19056.64
695.26	19080.05
695.39	18815.57
695.53	19073.03
695.66	18771.10
695.80	18845.99
695.93	18721.95
696.07	18473.85
696.20	18623.64
696.33	18485.55
696.47	18232.77
696.60	18274.90
696.73	18412.99
696.87	18176.60
697.00	18150.85
697.14	17907.44
697.27	17830.20
697.40	17745.94
697.54	18022.12
697.67	17874.67
697.80	17757.64
697.94	17675.73
698.07	17558.70
698.21	17675.73
698.34	17422.95
698.47	16826.11
698.61	16769.94
698.74	16917.39
698.87	17020.38
699.01	16765.26
699.14	16854.20
699.27	16835.47
699.40	16479.71
699.54	16613.12
699.67	16650.57
699.80	16615.46
699.94	16152.04
700.07	16201.19
700.20	16341.62
700.34	16191.83
700.47	16369.71
700.60	16161.40
700.73	15995.22
700.87	15936.71
701.00	15594.99
701.13	15536.48
701.26	15639.46
701.40	15449.88
701.53	15452.22
701.66	15293.06
701.79	15332.85
701.93	15194.76
702.06	15023.90
702.19	15077.73
702.32	15040.28
702.46	15204.12
702.59	14930.28
702.72	15215.82
702.85	15094.11
702.99	14707.93
703.12	14499.62
703.25	14686.86
703.38	14331.10
703.51	14272.59
703.65	14382.59
703.78	14265.57
703.91	14256.20
704.04	14115.77
704.17	13984.70
704.31	13958.96
704.44	13965.98
704.57	13530.64
704.70	13661.71
704.83	13694.47
704.96	13565.74
705.10	13788.10
705.23	13493.19
>>>>>End Processed Spectral Data<<<<<
