SpectraSuite Data File
++++++++++++++++++++++++++++++++++++
Date: Fri Oct 25 11:34:03 EDT 2013
User: price-jones
Dark Spectrum Present: No
Reference Spectrum Present: No
Number of Sampled Component Spectra: 1
Spectrometers: USB2+H05261
Integration Time (usec): 100000 (USB2+H05261)
Spectra Averaged: 1 (USB2+H05261)
Boxcar Smoothing: 0 (USB2+H05261)
Correct for Electrical Dark: No (USB2+H05261)
Strobe/Lamp Enabled: No (USB2+H05261)
Correct for Detector Non-linearity: No (USB2+H05261)
Correct for Stray Light: No (USB2+H05261)
Number of Pixels in Processed Spectrum: 2048
>>>>>Begin Processed Spectral Data<<<<<
365.73	283.20
365.92	283.20
366.12	283.20
366.32	161.50
366.52	215.33
366.72	201.29
366.91	112.35
367.11	142.77
367.31	170.86
367.51	191.92
367.70	168.52
367.90	161.50
368.10	135.75
368.30	241.08
368.49	147.45
368.69	163.84
368.89	175.54
369.09	159.16
369.28	175.54
369.48	121.71
369.68	220.01
369.87	222.35
370.07	220.01
370.27	252.78
370.47	332.36
370.66	552.37
370.86	533.64
371.06	491.51
371.25	608.54
371.45	543.00
371.65	526.62
371.84	500.87
372.04	582.79
372.24	566.41
372.44	552.37
372.63	620.24
372.83	620.24
373.03	622.58
373.22	545.34
373.42	627.26
373.62	622.58
373.81	622.58
374.01	587.47
374.21	606.20
374.40	608.54
374.60	624.92
374.79	608.54
374.99	671.73
375.19	688.12
375.38	709.18
375.58	697.48
375.78	664.71
375.97	653.01
376.17	699.82
376.37	713.86
376.56	709.18
376.76	669.39
376.95	685.78
377.15	683.44
377.35	655.35
377.54	676.41
377.74	645.99
377.93	664.71
378.13	634.29
378.33	711.52
378.52	685.78
378.72	711.52
378.91	723.23
379.11	699.82
379.31	699.82
379.50	774.72
379.70	781.74
379.89	676.41
380.09	676.41
380.28	660.03
380.48	744.29
380.68	664.71
380.87	690.46
381.07	748.97
381.26	791.10
381.46	802.80
381.65	744.29
381.85	737.27
382.04	802.80
382.24	784.08
382.43	753.65
382.63	800.46
382.83	746.63
383.02	828.55
383.22	772.38
383.41	779.40
383.61	802.80
383.80	777.06
384.00	746.63
384.19	795.78
384.39	795.78
384.58	816.85
384.78	734.93
384.97	908.13
385.17	781.74
385.36	854.30
385.56	781.74
385.75	861.32
385.95	763.01
386.14	814.51
386.34	847.27
386.53	866.00
386.72	826.21
386.92	875.36
387.11	933.87
387.31	854.30
387.50	760.67
387.70	985.37
387.89	917.49
388.09	877.70
388.28	770.04
388.48	912.81
388.67	889.40
388.86	877.70
389.06	882.38
389.25	1004.09
389.45	957.28
389.64	837.91
389.84	912.81
390.03	987.71
390.22	968.98
390.42	971.32
390.61	957.28
390.81	961.96
391.00	926.85
391.19	940.90
391.39	889.40
391.58	1050.90
391.78	863.66
391.97	990.05
392.16	1013.45
392.36	1081.33
392.55	1081.33
392.75	1097.71
392.94	1034.52
393.13	1013.45
393.33	1081.33
393.52	1050.90
393.71	1116.44
393.91	1057.92
394.10	1090.69
394.29	1121.12
394.49	1100.05
394.68	1130.48
394.88	1060.26
395.07	1111.75
395.26	1109.41
395.46	1053.24
395.65	1207.72
395.84	1219.42
396.04	1207.72
396.23	1214.74
396.42	1151.54
396.62	1247.51
396.81	1179.63
397.00	1167.93
397.19	1228.78
397.39	1174.95
397.58	1130.48
397.77	1200.69
397.97	1217.08
398.16	1214.74
398.35	1270.91
398.55	1172.61
398.74	1228.78
398.93	1376.24
399.12	1242.82
399.32	1303.68
399.51	1289.64
399.70	1217.08
399.90	1411.34
400.09	1352.83
400.28	1392.62
400.47	1385.60
400.67	1282.61
400.86	1425.39
401.05	1343.47
401.24	1371.55
401.44	1430.07
401.63	1416.02
401.82	1514.33
402.01	1453.47
402.21	1430.07
402.40	1462.83
402.59	1493.26
402.78	1500.28
402.97	1486.24
403.17	1493.26
403.36	1474.54
403.55	1535.39
403.74	1593.90
403.93	1568.16
404.13	1575.18
404.32	1549.43
404.51	1551.78
404.70	1666.46
404.89	1584.54
405.09	1710.93
405.28	1624.33
405.47	1654.76
405.66	1673.48
405.85	1692.21
406.05	1664.12
406.24	1664.12
406.43	1767.10
406.62	1750.72
406.81	1732.00
407.00	1734.34
407.20	1713.27
407.39	1813.92
407.58	1778.81
407.77	1827.96
407.96	1860.73
408.15	1884.13
408.34	1893.49
408.54	1834.98
408.73	1872.43
408.92	1898.17
409.11	1919.24
409.30	1914.56
409.49	1975.41
409.68	1966.05
409.87	1919.24
410.07	2040.95
410.26	2024.56
410.45	2120.53
410.64	2150.95
410.83	2106.48
411.02	1989.46
411.21	2104.14
411.40	2050.31
411.59	2172.02
411.78	2150.95
411.98	2260.96
412.17	2183.72
412.36	2111.16
412.55	2228.19
412.74	2361.60
412.93	2235.21
413.12	2284.36
413.31	2495.01
413.50	2370.96
413.69	2410.75
413.88	2450.54
414.07	2340.54
414.26	2413.09
414.45	2473.95
414.64	2558.21
414.83	2511.39
415.02	2565.23
415.22	2518.42
415.41	2534.80
415.60	2537.14
415.79	2726.72
415.98	2686.94
416.17	2649.49
416.36	2651.83
416.55	2597.99
416.74	2715.02
416.93	2799.28
417.12	2832.05
417.31	2717.36
417.50	2829.71
417.69	2834.39
417.88	2902.26
418.07	2916.31
418.26	2902.26
418.45	2888.22
418.64	3019.29
418.83	2981.84
419.02	3056.74
419.21	3070.78
419.39	3089.51
419.58	2977.16
419.77	3009.93
419.96	3094.19
420.15	3094.19
420.34	3035.67
420.53	3101.21
420.72	3227.60
420.91	3239.30
421.10	3262.71
421.29	3241.64
421.48	3138.66
421.67	3274.41
421.86	3363.35
422.05	3253.34
422.24	3370.37
422.43	3267.39
422.61	3316.54
422.80	3288.45
422.99	3323.56
423.18	3353.99
423.37	3363.35
423.56	3370.37
423.75	3365.69
423.94	3363.35
424.13	3005.25
424.32	3241.64
424.50	3316.54
424.69	3372.71
424.88	3513.14
425.07	3255.69
425.26	3396.12
425.45	3440.59
425.64	3344.63
425.83	3272.07
426.01	3321.22
426.20	3421.86
426.39	3461.65
426.58	3349.31
426.77	3454.63
426.96	3503.78
427.15	3473.36
427.33	3403.14
427.52	3398.46
427.71	3478.04
427.90	3618.47
428.09	3660.60
428.28	3639.53
428.46	3721.45
428.65	3684.00
428.84	3754.22
429.03	3747.20
429.22	3625.49
429.40	3653.58
429.59	3770.60
429.78	3496.76
429.97	3609.11
430.16	3733.15
430.34	3719.11
430.53	3936.78
430.72	3974.23
430.91	3824.44
431.10	3880.61
431.28	3892.31
431.47	3894.65
431.66	3901.67
431.85	3911.04
432.03	3957.85
432.22	4009.34
432.41	3974.23
432.60	3957.85
432.79	3948.48
432.97	4147.43
433.16	4074.87
433.35	4124.02
433.54	4051.47
433.72	4121.68
433.91	4067.85
434.10	4159.13
434.28	4147.43
434.47	4042.11
434.66	4224.67
434.85	4273.82
435.03	4269.14
435.22	4344.03
435.41	4329.99
435.59	4163.81
435.78	4262.12
435.97	4327.65
436.16	4290.20
436.34	4299.56
436.53	4372.12
436.72	4519.57
436.90	4290.20
437.09	4470.42
437.28	4327.65
437.46	4451.70
437.65	4437.66
437.84	4458.72
438.02	4554.68
438.21	4667.03
438.40	4596.81
438.58	4746.61
438.77	4622.56
438.96	4636.60
439.14	4737.24
439.33	4784.06
439.52	4800.44
439.70	4880.02
439.89	4929.17
440.08	4952.57
440.26	4875.34
440.45	4943.21
440.63	5001.72
440.82	5090.67
441.01	4999.38
441.19	5071.94
441.38	5151.52
441.57	5139.82
441.75	5305.99
441.94	5338.76
442.12	5235.78
442.31	5453.45
442.50	5327.06
442.68	5214.71
442.87	5385.57
443.05	5324.72
443.24	5486.22
443.43	5441.75
443.61	5497.92
443.80	5593.88
443.98	5460.47
444.17	5252.16
444.35	5195.99
444.54	5605.58
444.73	5537.71
444.91	5593.88
445.10	5556.43
445.28	5549.41
445.47	5526.00
445.65	5439.40
445.84	5762.40
446.02	5717.93
446.21	5614.95
446.39	5783.46
446.58	5521.32
446.77	5621.97
446.95	5549.41
447.14	5605.58
447.32	5643.03
447.51	5640.69
447.69	5734.31
447.88	5666.44
448.06	5514.30
448.25	5675.80
448.43	5809.21
448.62	5577.50
448.80	5738.99
448.99	5820.91
449.17	5949.64
449.36	5886.45
449.54	5940.28
449.73	5881.77
449.91	6090.07
450.10	6078.37
450.28	5980.07
450.46	5886.45
450.65	6015.18
450.83	6122.84
451.02	6050.28
451.20	5975.39
451.39	6059.65
451.57	5977.73
451.76	6059.65
451.94	6008.16
452.13	6157.95
452.31	6022.20
452.49	6036.24
452.68	6207.10
452.86	6253.91
453.05	6282.00
453.23	6328.81
453.42	6293.70
453.60	6078.37
453.78	6487.96
453.97	6246.89
454.15	6298.38
454.34	6417.75
454.52	6494.99
454.70	6384.98
454.89	6408.39
455.07	6450.52
455.26	6595.63
455.44	6574.56
455.62	6499.67
455.81	6523.07
455.99	6696.27
456.17	6745.42
456.36	6621.38
456.54	6574.56
456.73	6700.95
456.91	6878.83
457.09	6792.23
457.28	7040.33
457.46	6808.62
457.64	6832.02
457.83	6902.24
458.01	6869.47
458.19	7002.88
458.38	7105.87
458.56	7049.69
458.74	6970.12
458.93	7119.91
459.11	6995.86
459.29	7133.95
459.48	7126.93
459.66	7225.23
459.84	7098.84
460.03	7365.67
460.21	7456.95
460.39	7337.58
460.57	7316.51
460.76	7332.90
460.94	7358.64
461.12	7375.03
461.31	7524.82
461.49	7368.01
461.67	7414.82
461.85	7564.61
462.04	7588.02
462.22	7789.30
462.40	7742.49
462.59	7681.64
462.77	7541.21
462.95	7646.53
463.13	7543.55
463.32	7728.45
463.50	7669.94
463.68	7831.43
463.86	7878.24
464.05	7749.51
464.23	7676.96
464.41	7831.43
464.59	7536.52
464.78	7974.21
464.96	7815.05
465.14	7735.47
465.32	7920.37
465.50	7978.89
465.69	7976.55
465.87	7964.84
466.05	8072.51
466.23	8198.90
466.41	8091.23
466.60	8044.42
466.78	8102.93
466.96	7852.50
467.14	8058.46
467.32	8163.79
467.51	8205.92
467.69	8161.45
467.87	8166.13
468.05	8255.07
468.23	8182.51
468.41	8208.26
468.60	8327.63
468.78	8322.94
468.96	8255.07
469.14	8489.12
469.32	8416.57
469.50	8479.76
469.69	8425.93
469.87	8482.10
470.05	8681.05
470.23	8753.60
470.41	8648.28
470.59	8627.21
470.77	8676.37
470.95	8774.67
471.14	8805.10
471.32	8627.21
471.50	8936.17
471.68	8786.37
471.86	8744.24
472.04	9188.94
472.22	9193.62
472.40	8924.46
472.58	9104.68
472.77	9083.62
472.95	9160.86
473.13	9554.07
473.31	9249.80
473.49	9284.91
473.67	9151.49
473.85	9373.85
474.03	9617.26
474.21	9490.87
474.39	9628.96
474.57	9703.86
474.75	9909.83
474.93	9703.86
475.12	9832.59
475.30	9940.26
475.48	9848.97
475.66	9970.68
475.84	9750.67
476.02	10024.51
476.20	10106.43
476.38	10181.33
476.56	10485.60
476.74	10270.27
476.92	10148.56
477.10	10410.70
477.28	10249.21
477.46	10476.24
477.64	10766.46
477.82	10796.89
478.00	11066.05
478.18	10820.30
478.36	11089.46
478.54	11133.93
478.72	11082.44
478.90	11386.71
479.08	11330.53
479.26	11410.11
479.44	11651.19
479.62	11618.42
479.80	11658.21
479.98	11583.31
480.16	12109.93
480.34	11922.69
480.52	12196.53
480.70	12046.74
480.88	11899.28
481.06	12018.65
481.24	12283.13
481.41	12327.60
481.59	12409.52
481.77	12753.58
481.95	12671.66
482.13	12905.71
482.31	12624.85
482.49	13259.13
482.67	12999.34
482.85	13317.65
483.03	13200.62
483.21	13418.29
483.39	13621.92
483.57	13720.22
483.74	13762.35
483.92	13870.01
484.10	13584.47
484.28	13928.53
484.46	14244.50
484.64	14429.40
484.82	14286.63
485.00	14398.98
485.18	14569.83
485.35	14698.56
485.53	14897.51
485.71	14869.42
485.89	15089.43
486.07	15105.82
486.25	15131.56
486.43	15248.59
486.61	15632.44
486.78	15513.07
486.96	15854.79
487.14	15742.44
487.32	15880.53
487.50	15983.52
487.68	15999.90
487.85	16142.67
488.03	16650.57
488.21	16910.37
488.39	16535.88
488.57	16861.22
488.75	16917.39
488.92	16954.84
489.10	17160.81
489.28	17125.70
489.46	17671.04
489.64	17376.14
489.81	17884.03
489.99	17586.79
490.17	17940.21
490.35	17991.70
490.53	18185.96
490.70	18295.97
490.88	18251.50
491.06	18450.44
491.24	18771.10
491.41	18710.24
491.59	19030.90
491.77	18649.39
491.95	19143.24
492.13	19030.90
492.30	19538.79
492.48	19674.54
492.66	19559.86
492.84	19452.19
493.01	19941.36
493.19	19871.15
493.37	20044.35
493.54	20318.19
493.72	20606.08
493.90	20421.17
494.08	20339.26
494.25	20875.24
494.43	20603.74
494.61	20884.60
494.79	20861.19
494.96	20812.04
495.14	20814.38
495.32	21411.22
495.49	21231.00
495.67	21322.28
495.85	21563.36
496.02	21809.11
496.20	21900.39
496.38	22040.82
496.55	21926.14
496.73	22642.34
496.91	22380.20
497.09	22473.82
497.26	22558.08
497.44	22466.80
497.62	22682.13
497.79	22862.35
497.97	23136.20
498.14	23068.32
498.32	23117.47
498.50	23398.34
498.67	23346.84
498.85	23391.31
499.03	23859.42
499.20	23489.62
499.38	23868.78
499.56	24016.24
499.73	24077.09
499.91	23976.45
500.08	24056.03
500.26	24400.08
500.44	24624.78
500.61	24554.56
500.79	23978.79
500.97	24442.21
501.14	24952.45
501.32	25025.01
501.49	24828.40
501.67	24793.29
501.84	25326.94
502.02	25355.02
502.20	25193.53
502.37	25418.22
502.55	25032.03
502.72	25399.49
502.90	25490.77
503.07	25575.03
503.25	25818.45
503.43	25900.37
503.60	25692.06
503.78	26164.85
503.95	25869.94
504.13	25989.31
504.30	26253.79
504.48	26064.21
504.65	26361.45
504.83	26628.27
505.01	26859.99
505.18	26705.51
505.36	27187.66
505.53	26689.13
505.71	27009.78
505.88	27126.81
506.06	26815.52
506.23	27229.79
506.41	27435.76
506.58	26972.33
506.76	27501.29
506.93	27360.86
507.11	27459.16
507.28	27702.58
507.46	27414.69
507.63	27894.50
507.81	28025.57
507.98	27709.60
508.16	28084.09
508.33	28046.64
508.50	28123.88
508.68	28046.64
508.85	28353.25
509.03	28297.08
509.20	28601.35
509.38	29008.60
509.55	29041.37
509.73	28685.61
509.90	29064.77
510.08	29050.73
510.25	28741.78
510.42	28739.44
510.60	29202.86
510.77	29284.78
510.95	29350.32
511.12	29214.57
511.30	29252.02
511.47	29551.60
511.64	29495.43
511.82	29685.01
511.99	29612.46
512.17	29827.79
512.34	29717.78
512.51	30099.29
512.69	30197.59
512.86	30258.45
513.04	30499.52
513.21	30326.32
513.38	30778.04
513.56	30700.81
513.73	30560.37
513.90	30752.30
514.08	30726.55
514.25	30979.33
514.43	30934.86
514.60	30829.54
514.77	30806.13
514.95	31351.48
515.12	31101.04
515.29	31309.35
515.47	31496.59
515.64	31747.03
515.81	31487.23
515.99	31295.30
516.16	32161.30
516.33	32175.34
516.51	31793.84
516.68	31585.53
516.85	31995.12
517.03	32210.45
517.20	32250.24
517.37	32158.96
517.54	32161.30
517.72	32418.76
517.89	32151.94
518.06	32212.79
518.24	32109.81
518.41	32229.18
518.58	32498.34
518.75	32376.63
518.93	32765.16
519.10	32926.66
519.27	32744.09
519.45	32975.81
519.62	33113.90
519.79	33603.07
519.96	32992.19
520.14	33046.02
520.31	33467.32
520.48	33139.65
520.65	33069.43
520.83	34003.30
521.00	33883.94
521.17	33582.01
521.34	33741.16
521.52	33656.90
521.69	33886.28
521.86	34052.45
522.03	33993.94
522.20	34026.71
522.38	34721.85
522.55	34031.39
522.72	34590.78
522.89	34560.35
523.07	34745.25
523.24	34476.09
523.41	34710.14
523.58	34368.43
523.75	35000.37
523.92	35012.07
524.10	34696.10
524.27	35173.57
524.44	35332.73
524.61	35466.14
524.78	35178.25
524.96	35908.50
525.13	35555.08
525.30	35342.09
525.47	35531.67
525.64	35559.76
525.81	35571.46
525.98	35852.33
526.16	35424.01
526.33	35599.55
526.50	36259.58
526.67	35498.91
526.84	36025.53
527.01	35901.48
527.18	35892.12
527.36	36156.60
527.53	36137.87
527.70	36687.90
527.87	36638.75
528.04	36397.67
528.21	36362.56
528.38	36428.10
528.55	36697.26
528.72	36587.25
528.89	36252.56
529.07	36484.27
529.24	36631.72
529.41	36833.01
529.58	36659.81
529.75	36765.14
529.92	37095.15
530.09	36907.91
530.26	37003.87
530.43	37041.32
530.60	36568.53
530.77	36790.88
530.94	37656.88
531.11	36638.75
531.28	37446.23
531.46	37331.54
531.63	37457.93
531.80	37371.33
531.97	37347.93
532.14	37493.04
532.31	37825.40
532.48	37809.01
532.65	37689.65
532.82	37514.11
532.99	37862.85
533.16	37680.28
533.33	38284.14
533.50	38256.06
533.67	37963.49
533.84	38024.34
534.01	38291.16
534.18	37806.67
534.35	38682.03
534.52	38380.10
534.69	38778.00
534.86	38944.17
535.03	38239.67
535.20	39002.69
535.37	38869.28
535.54	38918.43
535.71	38789.70
535.88	39288.23
536.05	38850.55
536.22	39246.10
536.38	38948.85
536.55	39229.72
536.72	39372.49
536.89	39093.97
537.06	39157.16
537.23	39770.38
537.40	39143.12
537.57	38960.56
537.74	39084.61
537.91	40119.12
538.08	39325.68
538.25	39234.40
538.42	39278.87
538.59	39777.40
538.75	39831.24
538.92	39796.13
539.09	39913.16
539.26	39580.80
539.43	39875.71
539.60	39754.00
539.77	39992.73
539.94	40187.00
540.11	40502.97
540.28	40259.55
540.44	39997.41
540.61	40175.30
540.78	39896.77
540.95	39739.96
541.12	39985.71
541.29	39835.92
541.46	40292.32
541.62	40346.15
541.79	40498.29
541.96	40280.62
542.13	40266.58
542.30	40509.99
542.47	40692.55
542.63	40739.36
542.80	41095.13
542.97	41200.45
543.14	41205.13
543.31	41312.80
543.48	40957.03
543.64	41811.33
543.81	41118.53
543.98	40999.16
544.15	40636.38
544.32	41488.34
544.48	41717.71
544.65	41385.35
544.82	41607.70
544.99	41181.73
545.16	41668.56
545.32	41792.61
545.49	41771.54
545.66	41921.34
545.83	42054.75
546.00	42050.06
546.16	41832.39
546.33	41773.88
546.50	41415.78
546.67	41750.48
546.83	41514.08
547.00	42143.69
547.17	41656.85
547.34	42021.98
547.50	42092.19
547.67	42593.07
547.84	42150.71
548.00	42630.52
548.17	42979.26
548.34	42564.98
548.51	42726.48
548.67	42557.96
548.84	42597.75
549.01	42539.24
549.18	42911.38
549.34	42719.46
549.51	42759.25
549.68	42733.50
549.84	42597.75
550.01	42665.63
550.18	42679.67
550.34	42815.42
550.51	42635.20
550.68	42880.95
550.84	42614.13
551.01	43363.11
551.18	42454.98
551.34	42857.55
551.51	43065.86
551.68	43096.28
551.84	43243.74
552.01	43210.97
552.18	42948.83
552.34	43077.56
552.51	43171.18
552.68	43178.20
552.84	43423.96
553.01	43498.86
553.18	43548.01
553.34	43873.34
553.51	43388.85
553.67	43236.72
553.84	43358.42
554.01	43536.30
554.17	43599.50
554.34	43770.36
554.51	43732.91
554.67	43964.62
554.84	44219.74
555.00	43622.90
555.17	44116.76
555.33	44240.81
555.50	44060.58
555.67	43896.75
555.83	43817.17
556.00	44231.44
556.16	44907.86
556.33	44411.67
556.50	44149.53
556.66	44507.63
556.83	43920.15
556.99	44421.03
557.16	44325.07
557.32	44453.79
557.49	44797.85
557.65	44208.04
557.82	44378.90
557.98	44399.96
558.15	44158.89
558.32	44664.44
558.48	44037.18
558.65	44371.88
558.81	44762.75
558.98	44442.09
559.14	44432.73
559.31	44549.76
559.47	44439.75
559.64	44744.02
559.80	44552.10
559.97	44839.98
560.13	44591.89
560.30	44336.77
560.46	44872.75
560.63	44795.51
560.79	44945.31
560.96	45092.76
561.12	45130.21
561.29	44718.28
561.45	45240.21
561.61	44634.02
561.78	44877.43
561.94	44769.77
562.11	44989.78
562.27	45043.61
562.44	44737.00
562.60	45195.74
562.77	45097.44
562.93	45162.98
563.10	45038.93
563.26	44854.03
563.42	45408.73
563.59	45202.77
563.75	45048.29
563.92	45270.64
564.08	45542.14
564.24	45497.67
564.41	45202.77
564.57	45034.25
564.74	45581.93
564.90	45277.66
565.07	45406.39
565.23	45111.49
565.39	45287.03
565.56	45366.60
565.72	45174.68
565.88	45125.53
566.05	45258.94
566.21	45591.30
566.38	45411.07
566.54	45422.78
566.70	45900.25
566.87	45666.19
567.03	45165.32
567.19	45715.34
567.36	45577.25
567.52	45340.86
567.68	45799.60
567.85	45642.79
568.01	45839.39
568.17	45553.85
568.34	45567.89
568.50	45806.62
568.66	45741.09
568.83	45757.47
568.99	45607.68
569.15	45914.29
569.32	45624.06
569.48	45612.36
569.64	46120.26
569.81	45663.85
569.97	45759.81
570.13	45663.85
570.30	45593.64
570.46	45579.59
570.62	45574.91
570.78	45790.24
570.95	45897.91
571.11	46110.89
571.27	46241.96
571.43	45680.24
571.60	45902.59
571.76	45858.12
571.92	45769.18
572.09	45612.36
572.25	45675.55
572.41	46003.23
572.57	46195.15
572.74	45970.46
572.90	45937.69
573.06	46206.86
573.22	46043.02
573.38	46504.10
573.55	46602.41
573.71	46192.81
573.87	46279.41
574.03	46358.99
574.20	46555.60
574.36	46230.26
574.52	46660.92
574.68	46422.19
574.84	46138.98
575.01	46450.27
575.17	46543.89
575.33	46485.38
575.49	46766.24
575.65	46085.15
575.82	46160.05
575.98	46286.43
576.14	46829.44
576.30	46684.33
576.46	46057.06
576.62	46185.79
576.79	46188.13
576.95	46319.20
577.11	46131.96
577.27	46246.65
577.43	46061.74
577.59	46253.67
577.75	46127.28
577.92	46253.67
578.08	46499.42
578.24	45998.55
578.40	46326.22
578.56	45734.07
578.72	46225.58
578.88	47117.32
579.04	46398.78
579.21	46171.75
579.37	46436.23
579.53	46344.95
579.69	46288.77
579.85	46244.30
580.01	46562.62
580.17	45949.40
580.33	46583.68
580.49	46155.36
580.65	46368.35
580.82	46337.93
580.98	46122.60
581.14	46043.02
581.30	46515.81
581.46	46506.44
581.62	46583.68
581.78	46239.62
581.94	46637.51
582.10	46597.73
582.26	46461.97
582.42	46286.43
582.58	46665.60
582.74	46464.32
582.90	46134.30
583.06	46761.56
583.22	46347.29
583.38	46270.05
583.54	46904.34
583.70	46597.73
583.86	46450.27
584.02	46810.71
584.18	47236.69
584.34	46586.02
584.50	46628.15
584.66	46990.94
584.82	46433.89
584.98	46784.97
585.14	47117.32
585.30	46637.51
585.46	46665.60
585.62	46511.13
585.78	46581.34
585.94	46553.26
586.10	46445.59
586.26	46368.35
586.42	46473.68
586.58	46841.14
586.74	46689.01
586.90	46548.57
587.06	47026.04
587.22	46787.31
587.38	46712.41
587.54	47210.95
587.70	47028.38
587.86	46733.48
588.02	46260.69
588.18	46583.68
588.34	46747.52
588.49	46674.96
588.65	46642.20
588.81	46546.23
588.97	46967.53
589.13	46555.60
589.29	46710.07
589.45	47122.01
589.61	47070.51
589.77	47154.77
589.93	46909.02
590.08	46728.80
590.24	47136.05
590.40	47599.47
590.56	47161.79
590.72	47264.78
590.88	46445.59
591.04	46813.05
591.20	46848.16
591.35	47372.44
591.51	47346.70
591.67	47327.97
591.83	47423.93
591.99	47122.01
592.15	47133.71
592.31	47213.29
592.46	47049.45
592.62	47033.07
592.78	47126.69
592.94	47650.97
593.10	47260.10
593.26	47433.30
593.41	47679.05
593.57	47267.12
593.73	47459.04
593.89	47655.65
594.05	47683.73
594.20	47332.65
594.36	47917.79
594.52	47306.91
594.68	47311.59
594.84	47587.77
594.99	47414.57
595.15	47370.10
595.31	47482.45
595.47	47042.43
595.62	47791.40
595.78	47746.93
595.94	47276.48
596.10	47337.33
596.25	47433.30
596.41	47442.66
596.57	47466.06
596.73	47356.06
596.88	46965.19
597.04	47325.63
597.20	47285.84
597.36	47763.31
597.51	47463.72
597.67	47056.47
597.83	47428.62
597.99	47152.43
598.14	47416.91
598.30	47320.95
598.46	47248.39
598.61	48044.18
598.77	47653.31
598.93	47594.79
599.09	47374.78
599.24	47681.39
599.40	47693.10
599.56	47327.97
599.71	47503.51
599.87	47997.37
600.03	47767.99
600.18	47196.90
600.34	47435.64
600.50	47529.26
600.65	47304.57
600.81	47643.94
600.97	47681.39
601.12	47910.77
601.28	47122.01
601.44	47178.18
601.59	47573.73
601.75	47363.08
601.91	47503.51
602.06	47339.68
602.22	47576.07
602.37	47702.46
602.53	47735.23
602.69	47482.45
602.84	47700.12
603.00	47473.09
603.16	47496.49
603.31	46916.04
603.47	47606.50
603.62	47494.15
603.78	47531.60
603.94	47573.73
604.09	47461.38
604.25	47529.26
604.40	47302.23
604.56	47475.43
604.71	48231.42
604.87	47538.62
605.03	47573.73
605.18	47215.63
605.34	47629.90
605.49	47391.17
605.65	47599.47
605.80	47131.37
605.96	47138.39
606.12	47295.21
606.27	47459.04
606.43	47180.52
606.58	47700.12
606.74	47409.89
606.89	47454.36
607.05	47569.05
607.20	47870.98
607.36	47615.86
607.51	47398.19
607.67	47157.11
607.82	47222.65
607.98	47421.59
608.13	47110.30
608.29	47306.91
608.44	47412.23
608.60	47466.06
608.75	47220.31
608.91	47035.41
609.06	46749.86
609.22	47437.98
609.37	47232.01
609.53	47423.93
609.68	47622.88
609.84	47597.13
609.99	47367.76
610.15	47196.90
610.30	47246.05
610.46	47320.95
610.61	47213.29
610.76	47653.31
610.92	47077.54
611.07	47325.63
611.23	46848.16
611.38	46913.70
611.54	47220.31
611.69	47489.47
611.84	47297.55
612.00	47192.22
612.15	46967.53
612.31	47110.30
612.46	46817.74
612.62	46799.01
612.77	47037.75
612.92	47096.26
613.08	46614.11
613.23	46857.52
613.39	46749.86
613.54	46892.63
613.69	46948.81
613.85	46480.70
614.00	47016.68
614.15	47187.54
614.31	46784.97
614.46	46553.26
614.62	46480.70
614.77	46440.91
614.92	46691.35
615.08	46766.24
615.23	46894.97
615.38	47030.72
615.54	46843.48
615.69	47044.77
615.84	46588.36
616.00	47103.28
616.15	46843.48
616.30	46834.12
616.46	46817.74
616.61	46623.47
616.76	46859.87
616.92	46555.60
617.07	46852.84
617.22	46440.91
617.37	46562.62
617.53	46534.53
617.68	46672.62
617.83	46536.87
617.99	46719.43
618.14	46997.96
618.29	46447.93
618.45	46241.96
618.60	46124.94
618.75	46164.73
618.90	46340.27
619.06	46017.27
619.21	46813.05
619.36	46438.57
619.51	46075.79
619.67	45977.48
619.82	46539.21
619.97	46227.92
620.12	46024.29
620.28	46323.88
620.43	46635.17
620.58	46326.22
620.73	46417.50
620.89	46602.41
621.04	46080.47
621.19	46211.54
621.34	45654.49
621.49	45900.25
621.65	46366.01
621.80	46389.42
621.95	46288.77
622.10	46026.63
622.25	45968.12
622.41	45804.28
622.56	45886.20
622.71	46281.75
622.86	45993.87
623.01	45771.52
623.16	46129.62
623.32	45717.68
623.47	45879.18
623.62	45670.87
623.77	45937.69
623.92	45872.16
624.07	45914.29
624.23	46103.87
624.38	45834.71
624.53	45755.13
624.68	45329.16
624.83	45743.43
624.98	45890.88
625.13	45544.48
625.29	45284.68
625.44	46043.02
625.59	45680.24
625.74	45530.44
625.89	45331.50
626.04	44989.78
626.19	45488.31
626.34	45368.94
626.49	45310.43
626.65	45244.90
626.80	45153.62
626.95	44495.92
627.10	44933.60
627.25	45195.74
627.40	45263.62
627.55	45270.64
627.70	44737.00
627.85	45071.70
628.00	45045.95
628.15	45340.86
628.30	44680.83
628.45	44744.02
628.60	44577.84
628.76	44987.44
628.91	44830.62
629.06	44491.24
629.21	44725.30
629.36	44659.76
629.51	44760.40
629.66	44952.33
629.81	44540.39
629.96	44842.32
630.11	44554.44
630.26	44491.24
630.41	44891.48
630.56	44769.77
630.71	44882.11
630.86	44423.37
631.01	44182.29
631.16	44123.78
631.31	44638.70
631.46	44346.13
631.61	44648.06
631.76	45193.40
631.91	44477.20
632.06	44987.44
632.21	44741.68
632.36	44905.52
632.51	44091.01
632.66	44842.32
632.81	44287.62
632.96	44463.16
633.10	44488.90
633.25	44362.51
633.40	44350.81
633.55	44638.70
633.70	43999.73
633.85	44128.46
634.00	43735.25
634.15	44002.07
634.30	44451.45
634.45	43910.79
634.60	43927.17
634.75	43945.90
634.90	44009.09
635.05	44280.60
635.19	44205.70
635.34	44215.06
635.49	43761.00
635.64	44130.80
635.79	44179.95
635.94	43992.71
636.09	43782.06
636.24	44016.11
636.39	43941.22
636.53	43983.35
636.68	43763.34
636.83	43456.73
636.98	43145.44
637.13	43213.31
637.28	43290.55
637.43	43217.99
637.57	44018.46
637.72	43299.91
637.87	43576.09
638.02	43674.40
638.17	43379.49
638.32	43730.57
638.46	42902.02
638.61	43229.69
638.76	42787.33
638.91	43227.35
639.06	43597.16
639.20	42852.87
639.35	43304.59
639.50	42803.72
639.65	43276.51
639.80	43463.75
639.94	43459.07
640.09	43222.67
640.24	43206.29
640.39	42677.33
640.54	42808.40
640.68	43192.25
640.83	43042.45
640.98	42742.86
641.13	42572.00
641.27	43555.03
641.42	42705.41
641.57	42684.35
641.72	42939.47
641.86	42995.64
642.01	42602.43
642.16	42539.24
642.31	42682.01
642.45	42749.88
642.60	42312.20
642.75	42450.30
642.90	43201.61
643.04	42689.03
643.19	42398.80
643.34	42204.54
643.48	42375.40
643.63	42377.74
643.78	42532.22
643.93	42597.75
644.07	42342.63
644.22	43005.00
644.37	42377.74
644.51	42504.13
644.66	42487.74
644.81	42389.44
644.95	42550.94
645.10	42422.21
645.25	42363.70
645.39	42340.29
645.54	41881.55
645.69	41989.21
645.83	41897.93
645.98	42000.91
646.13	41647.49
646.27	42045.38
646.42	41769.20
646.57	42021.98
646.71	42204.54
646.86	42005.59
647.00	42080.49
647.15	42232.63
647.30	41869.84
647.44	41717.71
647.59	41736.43
647.74	41790.27
647.88	42094.53
648.03	41881.55
648.17	42038.36
648.32	41940.06
648.47	42139.00
648.61	41766.86
648.76	41801.97
648.90	41127.89
649.05	41497.70
649.20	41706.01
649.34	41956.44
649.49	41963.46
649.63	42007.94
649.78	42155.39
649.92	41413.44
650.07	41832.39
650.21	41844.10
650.36	41790.27
650.51	41647.49
650.65	41848.78
650.80	41708.35
650.94	41193.43
651.09	41680.26
651.23	41296.41
651.38	41188.75
651.52	40751.07
651.67	40980.44
651.81	41022.57
651.96	41174.70
652.10	40973.42
652.25	40921.93
652.39	41181.73
652.54	41130.23
652.68	40722.98
652.83	40907.88
652.97	41277.69
653.12	41020.23
653.26	40638.72
653.41	41165.34
653.55	41233.22
653.70	40900.86
653.84	41560.89
653.99	40800.22
654.13	40994.48
654.27	40823.62
654.42	41022.57
654.56	40467.86
654.71	40720.64
654.85	40914.90
655.00	40563.82
655.14	40999.16
655.29	40989.80
655.43	40893.84
655.57	40577.87
655.72	40320.41
655.86	40669.15
656.01	40079.33
656.15	40502.97
656.30	40474.88
656.44	40339.13
656.58	40201.04
656.73	40725.32
656.87	39908.47
657.01	40025.50
657.16	40362.54
657.30	40100.40
657.45	40360.20
657.59	40013.80
657.73	40018.48
657.88	40062.95
658.02	40208.06
658.16	40210.40
658.31	40318.07
658.45	39842.94
658.60	39885.07
658.74	40456.16
658.88	40517.01
659.03	39704.85
659.17	39482.50
659.31	39765.70
659.46	39370.15
659.60	40107.42
659.74	39885.07
659.89	39058.86
660.03	39129.08
660.17	39681.44
660.32	39608.89
660.46	39440.37
660.60	39208.65
660.74	39264.83
660.89	39402.92
661.03	38843.53
661.17	39337.38
661.32	38803.74
661.46	39306.96
661.60	38841.19
661.74	38848.21
661.89	38904.38
662.03	38618.84
662.17	38852.89
662.31	38686.71
662.46	38796.72
662.60	38293.50
662.74	38618.84
662.88	38328.61
663.03	38492.45
663.17	38265.42
663.31	38352.02
663.45	38506.49
663.60	38593.09
663.74	38480.75
663.88	38132.01
664.02	37874.55
664.17	38476.07
664.31	37696.67
664.45	37926.04
664.59	37818.38
664.73	37649.86
664.88	37797.31
665.02	37769.22
665.16	37123.24
665.30	37607.73
665.44	37855.82
665.59	37134.94
665.73	37345.59
665.87	37055.36
666.01	37315.16
666.15	37453.25
666.29	37235.58
666.44	37219.20
666.58	37212.18
666.72	36907.91
666.86	37397.08
667.00	37027.28
667.14	36877.48
667.28	36535.76
667.43	36896.20
667.57	37125.58
667.71	36837.69
667.85	36704.28
667.99	36964.08
668.13	36072.34
668.27	36397.67
668.41	36503.00
668.56	36144.89
668.70	35838.28
668.84	35917.86
668.98	35800.83
669.12	36254.90
669.26	36442.14
669.40	36275.96
669.54	35718.92
669.68	36444.48
669.82	35580.82
669.96	35552.74
670.10	35384.22
670.25	35594.87
670.39	35751.68
670.53	35424.01
670.67	35655.72
670.81	35608.91
670.95	35526.99
671.09	35035.48
671.23	35274.21
671.37	35239.11
671.51	34904.41
671.65	34656.31
671.79	34771.00
671.93	34967.60
672.07	34850.58
672.21	34831.85
672.35	34295.87
672.49	34775.68
672.63	34794.40
672.77	34038.41
672.91	34499.50
673.05	34089.90
673.19	33893.30
673.33	33897.98
673.47	33769.25
673.61	34003.30
673.75	33879.25
673.89	33701.37
674.03	33942.45
674.17	33472.00
674.31	33329.23
674.45	33586.69
674.59	33628.82
674.73	33626.48
674.87	33287.10
675.01	33001.55
675.15	32753.46
675.29	32980.49
675.43	32753.46
675.56	32870.48
675.70	32671.54
675.84	32762.82
675.98	31536.38
676.12	32570.90
676.26	32678.56
676.40	32521.74
676.54	32208.11
676.68	32430.46
676.82	31599.57
676.96	32063.00
677.10	32170.66
677.23	31665.11
677.37	31751.71
677.51	31887.46
677.65	31402.97
677.79	31641.70
677.93	30998.06
678.07	31395.95
678.21	31304.67
678.34	30953.58
678.48	30756.98
678.62	30923.16
678.76	30642.29
678.90	30499.52
679.04	30483.14
679.18	30682.08
679.31	30043.12
679.45	30394.20
679.59	30183.55
679.73	30312.28
679.87	29874.60
680.00	29743.53
680.14	30316.96
680.28	29685.01
680.42	29460.32
680.56	29677.99
680.70	29621.82
680.83	29322.23
680.97	29457.98
681.11	29193.50
681.25	29163.08
681.39	28641.14
681.52	28985.19
681.66	28390.70
681.80	28535.81
681.94	28278.35
682.07	28278.35
682.21	28203.46
682.35	28046.64
682.49	28034.94
682.62	28198.77
682.76	28056.00
682.90	28098.13
683.04	27990.47
683.17	28100.47
683.31	27412.35
683.45	27449.80
683.59	27056.59
683.72	27012.12
683.86	27421.72
684.00	27218.09
684.13	27098.72
684.27	26883.39
684.41	26862.33
684.55	26911.48
684.68	26588.49
684.82	26471.46
684.96	26370.82
685.09	26312.30
685.23	26586.15
685.37	26328.69
685.50	26775.73
685.64	26216.34
685.78	26125.06
685.91	25930.80
686.05	25678.02
686.19	25025.01
686.32	25450.99
686.46	25923.77
686.60	25048.41
686.73	25092.88
686.87	24992.24
687.01	25266.08
687.14	25387.79
687.28	24739.46
687.42	25172.46
687.55	24744.14
687.69	24690.31
687.82	24563.92
687.96	24343.91
688.10	24594.35
688.23	24374.34
688.37	24313.48
688.50	24252.63
688.64	24147.31
688.78	23882.83
688.91	23981.13
689.05	23934.32
689.18	23281.31
689.32	23175.98
689.46	23269.61
689.59	23396.00
689.73	23569.19
689.86	23538.77
690.00	23180.67
690.13	23028.53
690.27	22820.22
690.41	22932.57
690.54	22782.77
690.68	22693.83
690.81	22427.01
690.95	22335.73
691.08	22099.34
691.22	22125.08
691.35	22183.60
691.49	22361.48
691.62	22249.13
691.76	21956.57
691.89	21940.18
692.03	21294.19
692.16	21474.42
692.30	21500.16
692.43	21455.69
692.57	21022.69
692.70	21233.34
692.84	21146.74
692.97	21067.16
693.11	21020.35
693.24	20697.36
693.38	20830.77
693.51	20727.78
693.65	20615.44
693.78	20620.12
693.92	20678.63
694.05	20460.96
694.19	20116.90
694.32	20212.87
694.45	20582.67
694.59	20526.50
694.72	20119.24
694.86	19571.56
694.99	19770.51
695.13	19946.05
695.26	19569.22
695.39	19325.80
695.53	19321.12
695.66	19419.42
695.80	19260.27
695.93	19173.67
696.07	18827.27
696.20	19023.87
696.33	18714.92
696.47	18745.35
696.60	18600.24
696.73	18710.24
696.87	18633.00
697.00	18485.55
697.14	18389.59
697.27	18354.48
697.40	18033.83
697.54	17994.04
697.67	18038.51
697.80	18052.55
697.94	17898.08
698.07	18085.32
698.21	17968.29
698.34	17912.12
698.47	17348.05
698.61	17036.76
698.74	17462.74
698.87	17200.60
699.01	16924.41
699.14	17261.45
699.27	17245.07
699.40	17280.18
699.54	16975.91
699.67	16776.96
699.80	16985.27
699.94	16802.71
700.07	16418.86
700.20	16475.03
700.34	16248.00
700.47	16325.24
700.60	16842.50
700.73	16465.67
700.87	16058.42
701.00	15667.55
701.13	16123.95
701.26	16168.42
701.40	15992.88
701.53	15541.16
701.66	15697.97
701.79	15630.10
701.93	15103.48
702.06	15229.87
702.19	15470.94
702.32	15403.07
702.46	15538.82
702.59	15426.47
702.72	15499.03
702.85	15276.68
702.99	15138.58
703.12	15199.44
703.25	14839.00
703.38	14661.12
703.51	14759.42
703.65	14691.54
703.78	14391.95
703.91	14324.08
704.04	14738.35
704.17	14132.15
704.31	14204.71
704.44	14005.77
704.57	14211.73
704.70	14085.34
704.83	13998.74
704.96	13720.22
705.10	13748.31
705.23	13666.39
>>>>>End Processed Spectral Data<<<<<
