SpectraSuite Data File
++++++++++++++++++++++++++++++++++++
Date: Fri Oct 25 10:46:59 EDT 2013
User: price-jones
Dark Spectrum Present: No
Reference Spectrum Present: No
Number of Sampled Component Spectra: 1
Spectrometers: USB2+H05261
Integration Time (usec): 100000 (USB2+H05261)
Spectra Averaged: 1 (USB2+H05261)
Boxcar Smoothing: 0 (USB2+H05261)
Correct for Electrical Dark: No (USB2+H05261)
Strobe/Lamp Enabled: No (USB2+H05261)
Correct for Detector Non-linearity: No (USB2+H05261)
Correct for Stray Light: No (USB2+H05261)
Number of Pixels in Processed Spectrum: 2048
>>>>>Begin Processed Spectral Data<<<<<
365.73	168.52
365.92	168.52
366.12	168.52
366.32	46.81
366.52	56.17
366.72	39.79
366.91	28.09
367.11	37.45
367.31	35.11
367.51	65.54
367.70	28.09
367.90	0.00
368.10	7.02
368.30	14.04
368.49	0.00
368.69	114.69
368.89	93.62
369.09	9.36
369.28	11.70
369.48	32.77
369.68	67.88
369.87	98.30
370.07	121.71
370.27	175.54
370.47	173.20
370.66	402.57
370.86	374.49
371.06	451.72
371.25	477.47
371.45	458.74
371.65	514.92
371.84	505.56
372.04	472.79
372.24	524.28
372.44	512.58
372.63	503.22
372.83	526.62
373.03	528.96
373.22	477.47
373.42	531.30
373.62	418.96
373.81	519.60
374.01	526.62
374.21	533.64
374.40	528.96
374.60	592.16
374.79	503.22
374.99	493.85
375.19	627.26
375.38	613.22
375.58	587.47
375.78	638.97
375.97	624.92
376.17	589.82
376.37	589.82
376.56	641.31
376.76	585.13
376.95	573.43
377.15	550.03
377.35	667.05
377.54	692.80
377.74	685.78
377.93	643.65
378.13	613.22
378.33	634.29
378.52	727.91
378.72	704.50
378.91	624.92
379.11	685.78
379.31	645.99
379.50	552.37
379.70	634.29
379.89	716.20
380.09	688.12
380.28	695.14
380.48	690.46
380.68	624.92
380.87	699.82
381.07	739.61
381.26	704.50
381.46	688.12
381.65	734.93
381.85	730.25
382.04	751.31
382.24	723.23
382.43	760.67
382.63	660.03
382.83	713.86
383.02	763.01
383.22	758.33
383.41	730.25
383.61	622.58
383.80	858.98
384.00	727.91
384.19	823.87
384.39	793.44
384.58	833.23
384.78	755.99
384.97	870.68
385.17	814.51
385.36	800.46
385.56	847.27
385.75	809.83
385.95	819.19
386.14	880.04
386.34	802.80
386.53	837.91
386.72	702.16
386.92	978.34
387.11	952.60
387.31	917.49
387.50	809.83
387.70	837.91
387.89	868.34
388.09	891.74
388.28	873.02
388.48	816.85
388.67	877.70
388.86	926.85
389.06	931.53
389.25	889.40
389.45	936.21
389.64	971.32
389.84	929.19
390.03	1090.69
390.22	976.00
390.42	1025.15
390.61	959.62
390.81	994.73
391.00	1020.47
391.19	952.60
391.39	999.41
391.58	985.37
391.78	997.07
391.97	990.05
392.16	954.94
392.36	997.07
392.55	1086.01
392.75	1069.62
392.94	1008.77
393.13	983.02
393.33	961.96
393.52	1078.99
393.71	1137.50
393.91	1036.86
394.10	1081.33
394.29	1142.18
394.49	1078.99
394.68	1196.01
394.88	1153.88
395.07	1142.18
395.26	1165.59
395.46	1167.93
395.65	1317.72
395.84	1203.04
396.04	1263.89
396.23	1146.86
396.42	1111.75
396.62	1207.72
396.81	1226.44
397.00	1291.98
397.19	1221.76
397.39	1299.00
397.58	1390.28
397.77	1268.57
397.97	1317.72
398.16	1355.17
398.35	1439.43
398.55	1467.52
398.74	1355.17
398.93	1476.88
399.12	1411.34
399.32	1322.40
399.51	1448.79
399.70	1514.33
399.90	1516.67
400.09	1516.67
400.28	1544.75
400.47	1570.50
400.67	1593.90
400.86	1572.84
401.05	1563.48
401.24	1612.63
401.44	1640.72
401.63	1661.78
401.82	1500.28
402.01	1626.67
402.21	1680.50
402.40	1645.40
402.59	1673.48
402.78	1661.78
402.97	1579.86
403.17	1657.10
403.36	1724.97
403.55	1652.42
403.74	1727.32
403.93	1792.85
404.13	1804.55
404.32	1753.06
404.51	1783.49
404.70	1839.66
404.89	1799.87
405.09	1891.15
405.28	1797.53
405.47	1820.94
405.66	1863.07
405.85	1898.17
406.05	1898.17
406.24	1914.56
406.43	1933.28
406.62	1902.86
406.81	2024.56
407.00	1851.36
407.20	1935.62
407.39	1940.30
407.58	2104.14
407.77	1989.46
407.96	2111.16
408.15	2003.50
408.34	1933.28
408.54	2141.59
408.73	2235.21
408.92	2118.18
409.11	2157.97
409.30	2141.59
409.49	2153.29
409.68	2097.12
409.87	2244.57
410.07	2256.28
410.26	2221.17
410.45	2230.53
410.64	2321.81
410.83	2310.11
411.02	2349.90
411.21	2359.26
411.40	2410.75
411.59	2459.90
411.78	2399.05
411.98	2431.82
412.17	2502.03
412.36	2462.24
412.55	2527.78
412.74	2572.25
412.93	2607.36
413.12	2597.99
413.31	2700.98
413.50	2619.06
413.69	2626.08
413.88	2719.70
414.07	2771.19
414.26	2834.39
414.45	2693.96
414.64	2829.71
414.83	2930.35
415.02	2848.43
415.22	2829.71
415.41	2946.73
415.60	3002.91
415.79	2988.86
415.98	3096.53
416.17	3035.67
416.36	3066.10
416.55	3098.87
416.74	3103.55
416.93	3162.06
417.12	3115.25
417.31	3136.32
417.50	3180.79
417.69	3194.83
417.88	3241.64
418.07	3253.34
418.26	3258.03
418.45	3318.88
418.64	3494.42
418.83	3262.71
419.02	3286.11
419.21	3513.14
419.39	3382.07
419.58	3346.97
419.77	3328.24
419.96	3639.53
420.15	3466.33
420.34	3482.72
420.53	3618.47
420.72	3758.90
420.91	3599.74
421.10	3550.59
421.29	3625.49
421.48	3506.12
421.67	3581.02
421.86	3641.87
422.05	3592.72
422.24	3574.00
422.43	3609.11
422.61	3548.25
422.80	3660.60
422.99	3639.53
423.18	3756.56
423.37	3847.84
423.56	3763.58
423.75	3796.35
423.94	3667.62
424.13	3459.31
424.32	3606.77
424.50	3854.86
424.69	3887.63
424.88	3939.12
425.07	3758.90
425.26	3695.71
425.45	3777.62
425.64	3775.28
425.83	3857.20
426.01	3840.82
426.20	3826.78
426.39	3892.31
426.58	3805.71
426.77	3693.37
426.96	3850.18
427.15	3882.95
427.33	3899.33
427.52	3843.16
427.71	3934.44
427.90	3899.33
428.09	4095.94
428.28	4016.36
428.46	4074.87
428.65	3864.22
428.84	4035.08
429.03	3915.72
429.22	4032.74
429.40	3939.12
429.59	3864.22
429.78	3754.22
429.97	3770.60
430.16	3880.61
430.34	4007.00
430.53	3932.10
430.72	4042.11
430.91	4058.49
431.10	4196.58
431.28	4318.29
431.47	4381.48
431.66	4278.50
431.85	4322.97
432.03	4287.86
432.22	4381.48
432.41	4526.60
432.60	4545.32
432.79	4428.29
432.97	4592.13
433.16	4491.49
433.35	4337.01
433.54	4418.93
433.72	4566.39
433.91	4519.57
434.10	4568.73
434.28	4482.13
434.47	4596.81
434.66	4664.69
434.85	4765.33
435.03	4751.29
435.22	4526.60
435.41	4856.61
435.59	4884.70
435.78	4805.12
435.97	4891.72
436.16	4912.78
436.34	5050.88
436.53	4901.08
436.72	4915.12
436.90	4807.46
437.09	4938.53
437.28	4877.68
437.46	4912.78
437.65	5025.13
437.84	4943.21
438.02	5027.47
438.21	4910.44
438.40	4835.55
438.58	5282.59
438.77	5097.69
438.96	5203.01
439.14	5317.70
439.33	5275.57
439.52	5247.48
439.70	5467.49
439.89	5420.68
440.08	5303.65
440.26	5465.15
440.45	5425.36
440.63	5547.07
440.82	5811.55
441.01	5577.50
441.19	5762.40
441.38	5785.80
441.57	5853.68
441.75	6019.86
441.94	6005.81
442.12	5994.11
442.31	5954.32
442.50	6008.16
442.68	5891.13
442.87	5996.45
443.05	6010.50
443.24	6101.78
443.43	5961.34
443.61	6202.42
443.80	6441.15
443.98	6045.60
444.17	5977.73
444.35	6230.51
444.54	6235.19
444.73	6328.81
444.91	6195.40
445.10	6328.81
445.28	6031.56
445.47	6083.05
445.65	6246.89
445.84	6200.08
446.02	6382.64
446.21	6394.34
446.39	6221.14
446.58	6331.15
446.77	6415.41
446.95	6160.29
447.14	6256.25
447.32	6476.26
447.51	6277.32
447.69	6069.01
447.88	6319.45
448.06	6204.76
448.25	6384.98
448.43	6443.49
448.62	6457.54
448.80	6525.41
448.99	6445.84
449.17	6530.09
449.36	6459.88
449.54	6869.47
449.73	6740.74
449.91	6614.35
450.10	6729.04
450.28	6855.43
450.46	6981.82
450.65	7000.54
450.83	6822.66
451.02	6846.07
451.20	6965.43
451.39	6829.68
451.57	6988.84
451.76	6927.99
451.94	6909.26
452.13	6944.37
452.31	6897.56
452.49	6825.00
452.68	6853.09
452.86	7037.99
453.05	7045.01
453.23	6946.71
453.42	6923.30
453.60	6974.80
453.78	7037.99
453.97	7089.48
454.15	6925.65
454.34	6939.69
454.52	7368.01
454.70	7215.87
454.89	7197.15
455.07	7269.70
455.26	7255.66
455.44	7379.71
455.62	7391.41
455.81	7323.54
455.99	7424.18
456.17	7541.21
456.36	7529.50
456.54	7578.65
456.73	7562.27
456.91	7644.19
457.09	7648.87
457.28	7854.84
457.46	7606.74
457.64	7974.21
457.83	7707.38
458.01	7691.00
458.19	7894.63
458.38	7761.22
458.56	8002.29
458.74	7868.88
458.93	7936.76
459.11	7836.11
459.29	8018.68
459.48	7929.74
459.66	7939.10
459.84	8049.10
460.03	8276.13
460.21	8119.32
460.39	8236.35
460.57	8023.36
460.76	8280.82
460.94	8194.22
461.12	8093.57
461.31	8325.29
461.49	8306.56
461.67	8329.97
461.85	8360.39
462.04	8299.54
462.22	8741.90
462.40	8554.66
462.59	8222.30
462.77	8603.81
462.95	8575.72
463.13	8355.71
463.32	8702.11
463.50	8540.61
463.68	8526.57
463.86	8676.37
464.05	8503.17
464.23	8510.19
464.41	8636.58
464.59	8449.33
464.78	8657.64
464.96	8697.43
465.14	8479.76
465.32	8844.88
465.50	8863.61
465.69	8793.39
465.87	8894.04
466.05	8805.10
466.23	9011.06
466.41	8905.74
466.60	9013.40
466.78	8975.95
466.96	8924.46
467.14	8734.88
467.32	9008.72
467.51	9050.85
467.69	8788.71
467.87	9064.89
468.05	9043.83
468.23	8985.32
468.41	8922.12
468.60	8879.99
468.78	9111.71
468.96	8961.91
469.14	9186.60
469.32	9338.74
469.50	9146.81
469.69	9415.98
469.87	9343.42
470.05	9591.52
470.23	9577.47
470.41	9474.49
470.59	9415.98
470.77	9432.36
470.95	9696.84
471.14	9734.29
471.32	9582.15
471.50	9671.09
471.68	9834.93
471.86	9776.42
472.04	9706.20
472.22	10171.97
472.40	10057.28
472.58	10012.81
472.77	9942.60
472.95	10066.64
473.13	10494.96
473.31	10298.36
473.49	10160.27
473.67	10120.48
473.85	10036.22
474.03	10436.45
474.21	10455.17
474.39	10450.49
474.57	10637.73
474.75	10733.70
474.93	10583.90
475.12	10822.64
475.30	10675.18
475.48	10946.69
475.66	10824.98
475.84	10904.56
476.02	11019.24
476.20	10984.13
476.38	11417.13
476.56	11494.37
476.74	11377.34
476.92	11335.21
477.10	11384.37
477.28	11520.12
477.46	11513.10
477.64	11463.94
477.82	11836.09
478.00	11929.71
478.18	11920.35
478.36	12102.91
478.54	12322.92
478.72	12210.57
478.90	12376.75
479.08	12493.78
479.26	12674.00
479.44	12685.70
479.62	12706.77
479.80	12791.03
479.98	12945.50
480.16	12952.52
480.34	12917.42
480.52	13324.67
480.70	13177.22
480.88	13256.79
481.06	13238.07
481.24	13600.85
481.41	13544.68
481.59	13996.40
481.77	13851.29
481.95	14005.77
482.13	13940.23
482.31	13862.99
482.49	14422.38
482.67	14090.02
482.85	14300.67
483.03	14630.69
483.21	14696.22
483.39	14682.18
483.57	14628.35
483.74	14787.50
483.92	15098.80
484.10	14892.83
484.28	15321.15
484.46	15487.32
484.64	15831.38
484.82	15604.35
485.00	15604.35
485.18	16023.31
485.35	15967.13
485.53	15651.16
485.71	15859.47
485.89	15892.24
486.07	16149.70
486.25	15871.17
486.43	16381.41
486.61	16795.68
486.78	16589.72
486.96	16856.54
487.14	17495.50
487.32	17289.54
487.50	17532.95
487.68	17523.59
487.85	17862.97
488.03	17872.33
488.21	18274.90
488.39	17984.68
488.57	18115.75
488.75	18097.02
488.92	18469.17
489.10	18649.39
489.28	18787.48
489.46	18883.44
489.64	18998.13
489.81	19365.59
489.99	19400.70
490.17	19396.02
490.35	19557.52
490.53	19606.67
490.70	19632.41
490.88	19800.93
491.06	20212.87
491.24	19840.72
491.41	20428.20
491.59	20098.18
491.77	20156.69
491.95	20332.23
492.13	20662.25
492.30	20397.77
492.48	20877.58
492.66	20720.76
492.84	21053.12
493.01	21376.11
493.19	21364.41
493.37	21612.51
493.54	21371.43
493.72	21774.00
493.90	21734.21
494.08	21996.35
494.25	22581.49
494.43	22434.03
494.61	22497.23
494.79	22305.31
494.96	22656.39
495.14	22771.07
495.32	22775.75
495.49	22787.46
495.67	22932.57
495.85	23204.07
496.02	23449.83
496.20	23309.40
496.38	23405.36
496.55	23386.63
496.73	24290.08
496.91	23908.57
497.09	23906.23
497.26	24381.36
497.44	24102.84
497.62	24364.98
497.79	24474.98
497.97	24147.31
498.14	24456.26
498.32	24680.95
498.50	25064.80
498.67	25188.85
498.85	25043.73
499.03	25605.46
499.20	25331.62
499.38	25252.04
499.56	25645.25
499.73	25687.38
499.91	25671.00
500.08	25788.02
500.26	25525.88
500.44	26155.49
500.61	25928.45
500.79	25862.92
500.97	26185.91
501.14	26429.33
501.32	26480.82
501.49	26300.60
501.67	26246.77
501.84	26548.70
502.02	26368.48
502.20	27016.80
502.37	27236.81
502.55	27150.21
502.72	26920.84
502.90	27496.61
503.07	27049.57
503.25	27683.86
503.43	27065.96
503.60	27557.47
503.78	27068.30
503.95	27187.66
504.13	27503.64
504.30	27725.99
504.48	27604.28
504.65	28271.33
504.83	28318.14
505.01	28339.21
505.18	28025.57
505.36	28865.83
505.53	28526.45
505.71	28594.32
505.88	28905.62
506.06	28741.78
506.23	28545.17
506.41	28716.03
506.58	28968.81
506.76	28751.14
506.93	29013.28
507.11	29095.20
507.28	29202.86
507.46	29085.84
507.63	29380.74
507.81	29347.98
507.98	29493.09
508.16	29600.76
508.33	29633.52
508.50	29809.06
508.68	29961.20
508.85	30153.12
509.03	29989.28
509.20	30157.80
509.38	30426.96
509.55	30230.36
509.73	30277.17
509.90	30239.72
510.08	30424.62
510.25	30139.08
510.42	30810.81
510.60	30948.90
510.77	30717.19
510.95	31044.87
511.12	31110.40
511.30	30960.61
511.47	31136.15
511.64	31459.14
511.82	31442.76
511.99	31105.72
512.17	31627.66
512.34	31119.76
512.51	31960.02
512.69	31676.81
512.86	31800.86
513.04	31826.60
513.21	31992.78
513.38	32191.73
513.56	32079.38
513.73	32074.70
513.90	32236.20
514.08	31828.95
514.25	31997.46
514.43	32528.77
514.60	32432.80
514.77	32964.10
514.95	32849.42
515.12	32753.46
515.29	33141.99
515.47	33228.59
515.64	33071.77
515.81	32929.00
515.99	33097.52
516.16	32959.42
516.33	33076.45
516.51	33149.01
516.68	32491.32
516.85	32828.35
517.03	32730.05
517.20	32968.79
517.37	33586.69
517.54	33460.30
517.72	33612.43
517.89	33553.92
518.06	33212.20
518.24	33661.58
518.41	33132.62
518.58	33563.28
518.75	33736.48
518.93	34246.72
519.10	33806.70
519.27	34050.11
519.45	34038.41
519.62	34501.84
519.79	34604.82
519.96	34462.05
520.14	34560.35
520.31	34511.20
520.48	34845.90
520.65	34518.22
520.83	34888.03
521.00	34946.54
521.17	35105.70
521.34	34916.11
521.52	35243.79
521.69	35604.23
521.86	35159.53
522.03	35526.99
522.20	35597.21
522.38	35194.64
522.55	35768.07
522.72	35484.86
522.89	35580.82
523.07	35945.95
523.24	35337.41
523.41	35672.10
523.58	35882.75
523.75	36053.61
523.92	36320.43
524.10	36400.01
524.27	36816.63
524.44	36009.14
524.61	36479.59
524.78	36957.06
524.96	36613.00
525.13	36891.52
525.30	36772.16
525.47	36856.42
525.64	36477.25
525.81	36500.65
525.98	36767.48
526.16	36390.65
526.33	36388.31
526.50	37319.84
526.67	36655.13
526.84	37322.18
527.01	36898.55
527.18	37275.37
527.36	37219.20
527.53	37081.11
527.70	37617.09
527.87	37638.15
528.04	37638.15
528.21	37202.82
528.38	37708.37
528.55	37537.51
528.72	37633.47
528.89	37895.61
529.07	37846.46
529.24	37806.67
529.41	38134.35
529.58	37916.68
529.75	37951.79
529.92	38110.94
530.09	38176.48
530.26	38672.67
530.43	37942.42
530.60	38106.26
530.77	38052.43
530.94	38740.55
531.11	38188.18
531.28	38855.23
531.46	38497.13
531.63	38850.55
531.80	38263.08
531.97	38677.35
532.14	38529.90
532.31	38590.75
532.48	38752.25
532.65	39056.52
532.82	38998.01
532.99	38990.98
533.16	38480.75
533.33	39009.71
533.50	39868.69
533.67	39372.49
533.84	38962.90
534.01	39360.79
534.18	39206.31
534.35	39409.94
534.52	39236.74
534.69	39545.69
534.86	39536.33
535.03	39381.85
535.20	39784.43
535.37	40098.06
535.54	40034.86
535.71	39847.62
535.88	39880.39
536.05	39849.96
536.22	39768.04
536.38	39653.36
536.55	39807.83
536.72	40130.83
536.89	39974.01
537.06	40229.13
537.23	40123.80
537.40	40278.28
537.57	40140.19
537.74	40236.15
537.91	40418.71
538.08	40187.00
538.25	39782.09
538.42	40397.65
538.59	40332.11
538.75	40360.20
538.92	40119.12
539.09	40762.77
539.26	40692.55
539.43	40378.92
539.60	40552.12
539.77	40566.16
539.94	40751.07
540.11	40507.65
540.28	40971.08
540.44	40800.22
540.61	40561.48
540.78	40718.30
540.95	40589.57
541.12	40893.84
541.29	40905.54
541.46	40807.24
541.62	40821.28
541.79	40987.46
541.96	40942.99
542.13	40666.81
542.30	41237.90
542.47	41418.12
542.63	41284.71
542.80	41422.80
542.97	41876.86
543.14	42110.92
543.31	41998.57
543.48	41792.61
543.64	42703.07
543.81	41876.86
543.98	42490.09
544.15	41897.93
544.32	41965.81
544.48	42106.24
544.65	42253.69
544.82	42227.95
544.99	41900.27
545.16	42110.92
545.32	42000.91
545.49	42302.84
545.66	42705.41
545.83	42611.79
546.00	42712.44
546.16	42445.62
546.33	42029.00
546.50	42237.31
546.67	42773.29
546.83	41977.51
547.00	42356.67
547.17	42277.10
547.34	42227.95
547.50	42777.97
547.67	42960.53
547.84	42679.67
548.00	42775.63
548.17	42995.64
548.34	42663.28
548.51	43412.26
548.67	43161.82
548.84	43386.51
549.01	42972.24
549.18	42707.76
549.34	42974.58
549.51	42995.64
549.68	43522.26
549.84	43316.29
550.01	43739.93
550.18	43356.08
550.34	43440.34
550.51	43234.38
550.68	43524.60
550.84	43515.24
551.01	43756.32
551.18	43480.13
551.34	43332.68
551.51	43473.11
551.68	43571.41
551.84	43927.17
552.01	43398.21
552.18	43468.43
552.34	43365.45
552.51	43543.33
552.68	43423.96
552.84	43669.72
553.01	43966.96
553.18	43810.15
553.34	43899.09
553.51	43709.50
553.67	43746.95
553.84	44280.60
554.01	43978.67
554.17	44144.84
554.34	43971.64
554.51	44114.42
554.67	44657.42
554.84	44109.74
555.00	44402.30
555.17	44182.29
555.33	44149.53
555.50	43639.29
555.67	44348.47
555.83	44374.22
556.00	44325.07
556.16	44399.96
556.33	44107.40
556.50	44114.42
556.66	44484.22
556.83	44243.15
556.99	44421.03
557.16	44589.55
557.32	44472.52
557.49	44428.05
557.65	44245.49
557.82	43833.55
557.98	44280.60
558.15	44360.17
558.32	44526.35
558.48	44123.78
558.65	44507.63
558.81	44512.31
558.98	44395.28
559.14	44619.97
559.31	44486.56
559.47	44313.36
559.64	44617.63
559.80	44933.60
559.97	44793.17
560.13	45043.61
560.30	44727.64
560.46	44582.52
560.63	44634.02
560.79	44830.62
560.96	45303.41
561.12	44774.45
561.29	44849.35
561.45	44989.78
561.61	44882.11
561.78	45184.04
561.94	44804.88
562.11	44973.39
562.27	44863.39
562.44	44907.86
562.60	44910.20
562.77	45167.66
562.93	45240.21
563.10	45008.50
563.26	44762.75
563.42	45315.11
563.59	44987.44
563.75	45212.13
563.92	45322.13
564.08	45254.26
564.24	45294.05
564.41	45200.43
564.57	45219.15
564.74	45244.90
564.90	45612.36
565.07	45364.26
565.23	44978.07
565.39	44961.69
565.56	45649.81
565.72	45015.52
565.88	45167.66
566.05	44903.18
566.21	45429.80
566.38	45165.32
566.54	45528.10
566.70	45766.84
566.87	45574.91
567.03	45326.81
567.19	45778.54
567.36	45689.60
567.52	45067.02
567.68	45680.24
567.85	45605.34
568.01	45404.05
568.17	45303.41
568.34	45497.67
568.50	45296.39
568.66	45209.79
568.83	45305.75
568.99	45617.04
569.15	45361.92
569.32	45291.71
569.48	45308.09
569.64	45427.46
569.81	45827.69
569.97	45492.99
570.13	45347.88
570.30	44818.92
570.46	45315.11
570.62	45382.99
570.78	45462.57
570.95	45329.16
571.11	45511.72
571.27	45418.10
571.43	45387.67
571.60	45612.36
571.76	45790.24
571.92	45258.94
572.09	45731.73
572.25	45720.02
572.41	45457.88
572.57	45687.26
572.74	45902.59
572.90	45537.46
573.06	45656.83
573.22	45624.06
573.38	45757.47
573.55	45366.60
573.71	45586.61
573.87	45174.68
574.03	45359.58
574.20	45553.85
574.36	45380.65
574.52	45500.01
574.68	45109.14
574.84	45565.55
575.01	45530.44
575.17	45436.82
575.33	45221.49
575.49	45982.16
575.65	46305.16
575.82	45951.74
575.98	45614.70
576.14	46263.03
576.30	45652.15
576.46	45413.41
576.62	45825.35
576.79	45570.23
576.95	45443.84
577.11	45628.74
577.27	45605.34
577.43	46108.55
577.59	45808.96
577.75	45783.22
577.92	45174.68
578.08	45661.51
578.24	45600.66
578.40	45375.97
578.56	45649.81
578.72	46054.72
578.88	45879.18
579.04	45825.35
579.21	45677.90
579.37	45567.89
579.53	45902.59
579.69	45191.06
579.85	45734.07
580.01	45642.79
580.17	45478.95
580.33	45591.30
580.49	45837.05
580.65	45436.82
580.82	45883.86
580.98	45441.50
581.14	45546.82
581.30	45785.56
581.46	45801.94
581.62	45462.57
581.78	45722.37
581.94	45792.58
582.10	45993.87
582.26	45972.80
582.42	45925.99
582.58	45893.22
582.74	45572.57
582.90	45940.04
583.06	45972.80
583.22	45794.92
583.38	46038.34
583.54	45483.63
583.70	45823.01
583.86	45783.22
584.02	45354.90
584.18	46078.13
584.34	45837.05
584.50	45724.71
584.66	45883.86
584.82	45113.83
584.98	46248.99
585.14	46026.63
585.30	45525.76
585.46	45462.57
585.62	45558.53
585.78	45876.84
585.94	45645.13
586.10	45738.75
586.26	45476.61
586.42	45979.82
586.58	45918.97
586.74	45951.74
586.90	46036.00
587.06	45392.35
587.22	45769.18
587.38	45666.19
587.54	46087.49
587.70	45900.25
587.86	46293.46
588.02	46110.89
588.18	46466.66
588.34	45778.54
588.49	45521.08
588.65	45591.30
588.81	45085.74
588.97	45497.67
589.13	45502.35
589.29	45500.01
589.45	45729.39
589.61	46017.27
589.77	45773.86
589.93	45984.51
590.08	45752.79
590.24	45799.60
590.40	45818.33
590.56	45958.76
590.72	45944.72
590.88	46014.93
591.04	45935.35
591.20	46342.61
591.35	46279.41
591.51	46188.13
591.67	46019.61
591.83	45518.74
591.99	45928.33
592.15	45808.96
592.31	46141.32
592.46	45858.12
592.62	46220.90
592.78	46211.54
592.94	46485.38
593.10	46176.43
593.26	46244.30
593.41	46064.08
593.57	45923.65
593.73	46248.99
593.89	45996.21
594.05	46199.83
594.20	46117.92
594.36	46321.54
594.52	45790.24
594.68	45687.26
594.84	45933.01
594.99	46454.95
595.15	45947.06
595.31	45970.46
595.47	45867.48
595.62	46253.67
595.78	46117.92
595.94	46658.58
596.10	46279.41
596.25	46684.33
596.41	46529.85
596.57	46019.61
596.73	46270.05
596.88	45909.61
597.04	46199.83
597.20	46384.74
597.36	45654.49
597.51	46071.10
597.67	45811.31
597.83	46391.76
597.99	46279.41
598.14	46160.05
598.30	46337.93
598.46	46167.07
598.61	45844.07
598.77	45717.68
598.93	46185.79
599.09	46230.26
599.24	46223.24
599.40	46258.35
599.56	46202.18
599.71	46265.37
599.87	46457.29
600.03	46136.64
600.18	46337.93
600.34	46358.99
600.50	46513.47
600.65	46316.86
600.81	46366.01
600.97	46293.46
601.12	46586.02
601.28	46071.10
601.44	46059.40
601.59	45956.42
601.75	45909.61
601.91	45975.14
602.06	45837.05
602.22	45792.58
602.37	46326.22
602.53	46028.98
602.69	46733.48
602.84	46513.47
603.00	46398.78
603.16	46028.98
603.31	46237.28
603.47	45801.94
603.62	46012.59
603.78	46286.43
603.94	46146.00
604.09	46138.98
604.25	46043.02
604.40	46181.11
604.56	45989.19
604.71	46354.31
604.87	45965.78
605.03	46295.80
605.18	46066.42
605.34	46241.96
605.49	45621.72
605.65	46258.35
605.80	46101.53
605.96	46036.00
606.12	46061.74
606.27	46534.53
606.43	46019.61
606.58	46017.27
606.74	45640.45
606.89	46157.70
607.05	46148.34
607.20	46164.73
607.36	45984.51
607.51	46295.80
607.67	45837.05
607.82	45619.38
607.98	45872.16
608.13	45764.49
608.29	45647.47
608.44	45160.64
608.60	45280.00
608.75	45656.83
608.91	45378.31
609.06	45303.41
609.22	46007.91
609.37	45497.67
609.53	45848.75
609.68	45942.38
609.84	45586.61
609.99	45647.47
610.15	45684.92
610.30	45642.79
610.46	45315.11
610.61	45628.74
610.76	45935.35
610.92	45801.94
611.07	45490.65
611.23	45427.46
611.38	45680.24
611.54	45350.22
611.69	45385.33
611.84	44985.10
612.00	45324.47
612.15	45181.70
612.31	45399.37
612.46	45134.89
612.62	45624.06
612.77	45441.50
612.92	45446.18
613.08	45111.49
613.23	45174.68
613.39	45422.78
613.54	44989.78
613.69	45132.55
613.85	44931.26
614.00	45148.93
614.15	45373.63
614.31	44919.56
614.46	45670.87
614.62	45492.99
614.77	45453.20
614.92	44765.09
615.08	44978.07
615.23	44584.86
615.38	45167.66
615.54	44994.46
615.69	44737.00
615.84	44781.47
616.00	45003.82
616.15	44629.34
616.30	44814.24
616.46	44533.37
616.61	44535.71
616.76	44980.42
616.92	44444.43
617.07	44395.28
617.22	44456.14
617.37	44360.17
617.53	44879.77
617.68	44453.79
617.83	44460.82
617.99	45036.59
618.14	44643.38
618.29	44460.82
618.45	44861.05
618.60	44416.35
618.75	44584.86
618.90	44933.60
619.06	44072.29
619.21	44414.01
619.36	44339.11
619.51	44547.42
619.67	44023.14
619.82	44369.54
619.97	44804.88
620.12	43976.33
620.28	43805.47
620.43	44161.23
620.58	44252.51
620.73	44142.50
620.89	44048.88
621.04	44617.63
621.19	43924.83
621.34	43976.33
621.49	44165.91
621.65	43765.68
621.80	44215.06
621.95	43704.82
622.10	43852.28
622.25	43707.16
622.41	43812.49
622.56	43800.79
622.71	43641.63
622.86	43985.69
623.01	43704.82
623.16	44083.99
623.32	44095.69
623.47	43992.71
623.62	43819.51
623.77	43402.89
623.92	43496.52
624.07	43508.22
624.23	43276.51
624.38	43311.61
624.53	43433.32
624.68	43480.13
624.83	43887.39
624.98	43241.40
625.13	43674.40
625.29	43459.07
625.44	43473.11
625.59	43110.33
625.74	43019.05
625.89	42382.42
626.04	42808.40
626.19	43112.67
626.34	43545.67
626.49	43161.82
626.65	43292.89
626.80	43629.93
626.95	43105.65
627.10	43180.54
627.25	42799.04
627.40	42796.70
627.55	42827.12
627.70	42335.61
627.85	42703.07
628.00	42394.12
628.15	42857.55
628.30	42721.80
628.45	42810.74
628.60	42827.12
628.76	43044.79
628.91	42667.97
629.06	42995.64
629.21	42607.11
629.36	42740.52
629.51	42630.52
629.66	42209.22
629.81	42120.28
629.96	42639.88
630.11	42670.31
630.26	42674.99
630.41	42817.76
630.56	42227.95
630.71	42497.11
630.86	42398.80
631.01	42405.83
631.16	42188.16
631.31	42054.75
631.46	42040.70
631.61	42115.60
631.76	42092.19
631.91	42440.93
632.06	42251.35
632.21	42129.64
632.36	42478.38
632.51	41876.86
632.66	42131.98
632.81	41933.04
632.96	41778.56
633.10	41979.85
633.25	41965.81
633.40	42370.72
633.55	41975.17
633.70	41837.08
633.85	41923.68
634.00	41808.99
634.15	41949.42
634.30	41624.09
634.45	41951.76
634.60	41745.80
634.75	41984.53
634.90	41600.68
635.05	41418.12
635.19	41336.20
635.34	41874.52
635.49	41626.43
635.64	41436.84
635.79	41336.20
635.94	41490.68
636.09	41483.66
636.24	40781.49
636.39	41436.84
636.53	40910.22
636.68	40472.54
636.83	40914.90
636.98	41181.73
637.13	41134.92
637.28	41270.67
637.43	41474.29
637.57	41446.21
637.72	41511.74
637.87	41415.78
638.02	40800.22
638.17	41219.17
638.32	41249.60
638.46	40697.24
638.61	41118.53
638.76	40912.56
638.91	40877.46
639.06	40652.76
639.20	41160.66
639.35	41083.42
639.50	40875.12
639.65	41137.26
639.80	41092.79
639.94	41017.89
640.09	40928.95
640.24	40624.68
640.39	40657.45
640.54	40952.35
640.68	40678.51
640.83	40526.38
640.98	40573.19
641.13	40748.73
641.27	41064.70
641.42	40418.71
641.57	40776.81
641.72	40327.43
641.86	40376.58
642.01	40369.56
642.16	40289.98
642.31	40182.32
642.45	39922.52
642.60	39934.22
642.75	40114.44
642.90	39981.03
643.04	40168.27
643.19	40114.44
643.34	40306.37
643.48	40275.94
643.63	40292.32
643.78	39662.72
643.93	40151.89
644.07	39856.98
644.22	39861.66
644.37	39627.61
644.51	39765.70
644.66	39793.79
644.81	39880.39
644.95	39859.32
645.10	40084.01
645.25	39955.29
645.39	39821.87
645.54	40158.91
645.69	39466.11
645.83	40046.57
645.98	39793.79
646.13	39344.41
646.27	39746.98
646.42	39721.23
646.57	39763.36
646.71	39531.65
646.86	39662.72
647.00	39920.18
647.15	39566.76
647.30	39821.87
647.44	39571.44
647.59	39332.70
647.74	39356.11
647.88	39449.73
648.03	39115.03
648.17	39222.70
648.32	39175.89
648.47	38974.60
648.61	38981.62
648.76	39707.19
648.90	39220.36
649.05	38974.60
649.20	39276.53
649.34	39405.26
649.49	39178.23
649.63	39093.97
649.78	39021.41
649.92	38895.02
650.07	39433.35
650.21	39180.57
650.36	38824.81
650.51	39072.90
650.65	39133.76
650.80	39426.32
650.94	39353.77
651.09	38930.13
651.23	38405.85
651.38	38604.80
651.52	38326.27
651.67	38522.88
651.81	38494.79
651.96	38466.70
652.10	38824.81
652.25	38424.57
652.39	38721.82
652.54	38782.68
652.68	38745.23
652.83	38712.46
652.97	38829.49
653.12	38382.45
653.26	38724.16
653.41	38686.71
653.55	38382.45
653.70	38354.36
653.84	38504.15
653.99	37937.74
654.13	38604.80
654.27	38438.62
654.42	38000.94
654.56	37818.38
654.71	38431.60
654.85	38246.69
655.00	38445.64
655.14	37961.15
655.29	37961.15
655.43	37734.12
655.57	37907.32
655.72	37729.44
655.86	37315.16
656.01	37397.08
656.15	37301.12
656.30	37727.10
656.44	37483.68
656.58	37373.67
656.73	37696.67
656.87	37572.62
657.01	37603.05
657.16	37830.08
657.30	37441.55
657.45	37181.75
657.59	37113.87
657.73	37404.10
657.88	37134.94
658.02	37645.18
658.16	37380.70
658.31	37820.72
658.45	37462.61
658.60	37184.09
658.74	37148.98
658.88	36884.50
659.03	37214.52
659.17	36783.86
659.31	36816.63
659.46	36793.22
659.60	36818.97
659.74	37291.76
659.89	36730.03
660.03	36662.15
660.17	36924.29
660.32	36491.29
660.46	36954.72
660.60	36760.45
660.74	36779.18
660.89	36933.65
661.03	36493.63
661.17	36362.56
661.32	36407.03
661.46	36439.80
661.60	36165.96
661.74	36140.21
661.89	36414.05
662.03	36353.20
662.17	36205.75
662.31	36282.98
662.46	36343.84
662.60	35981.06
662.74	36037.23
662.88	36187.02
663.03	36250.22
663.17	35824.24
663.31	35381.88
663.45	35747.00
663.60	36018.50
663.74	35519.97
663.88	35906.16
664.02	35569.12
664.17	35402.94
664.31	35388.90
664.45	35290.60
664.59	35697.85
664.73	35255.49
664.88	35426.35
665.02	34897.39
665.16	35515.29
665.30	35084.63
665.44	35101.01
665.59	34988.67
665.73	35164.21
665.87	35007.39
666.01	35285.92
666.15	34965.26
666.29	34745.25
666.44	34897.39
666.58	34614.18
666.72	34541.63
666.86	35065.91
667.00	35084.63
667.14	34452.69
667.28	34567.37
667.43	34108.63
667.57	34455.03
667.71	34160.12
667.85	34457.37
667.99	34431.62
668.13	34052.45
668.27	33940.11
668.41	34183.52
668.56	33809.04
668.70	34188.21
668.84	33858.19
668.98	33848.83
669.12	33916.70
669.26	34164.80
669.40	33422.85
669.54	33572.64
669.68	33687.33
669.82	34059.48
669.96	33563.28
670.10	33589.03
670.25	33593.71
670.39	33684.99
670.53	33649.88
670.67	33350.29
670.81	33221.56
670.95	33308.16
671.09	33216.88
671.23	33048.36
671.37	33298.80
671.51	32863.46
671.65	32816.65
671.79	32327.48
671.93	32290.03
672.07	33090.49
672.21	32826.01
672.35	32463.23
672.49	32559.19
672.63	32519.40
672.77	32828.35
672.91	32259.60
673.05	32350.88
673.19	31990.44
673.33	31768.09
673.47	31824.26
673.61	31723.62
673.75	31625.32
673.89	31758.73
674.03	31484.89
674.17	31669.79
674.31	31433.39
674.45	31459.14
674.59	31494.25
674.73	31459.14
674.87	31285.94
675.01	31115.08
675.15	31374.88
675.29	31297.64
675.43	31241.47
675.56	30916.14
675.70	30764.00
675.84	30939.54
675.98	29795.02
676.12	30583.78
676.26	30630.59
676.40	30331.00
676.54	30520.59
676.68	30661.02
676.82	29970.56
676.96	29820.77
677.10	29699.06
677.23	30192.91
677.37	30181.21
677.51	29907.37
677.65	30087.59
677.79	29371.38
677.93	29366.70
678.07	29612.46
678.21	29406.49
678.34	29275.42
678.48	29378.40
678.62	29081.16
678.76	29284.78
678.90	29067.11
679.04	28975.83
679.18	29036.69
679.31	28577.94
679.45	28538.15
679.59	28128.56
679.73	27906.21
679.87	28063.02
680.00	28147.28
680.14	27938.97
680.28	27398.31
680.42	28290.06
680.56	27651.09
680.70	27742.37
680.83	27770.46
680.97	27693.22
681.11	27543.42
681.25	27143.19
681.39	26953.61
681.52	27623.00
681.66	27379.59
681.80	27173.62
681.94	26579.12
682.07	26977.01
682.21	26806.16
682.35	26742.96
682.49	26923.18
682.62	26710.19
682.76	26408.26
682.90	26574.44
683.04	26403.58
683.17	26064.21
683.31	26214.00
683.45	26569.76
683.59	25926.11
683.72	25841.85
683.86	25582.06
684.00	25532.90
684.13	25649.93
684.27	25638.23
684.41	25607.80
684.55	25605.46
684.68	25326.94
684.82	25326.94
684.96	25219.27
685.09	24980.54
685.23	24849.47
685.37	24826.06
685.50	24774.57
685.64	24769.89
685.78	24683.29
685.91	24531.15
686.05	24477.32
686.19	24107.52
686.32	24364.98
686.46	24037.30
686.60	23786.86
686.73	24299.44
686.87	23564.51
687.01	23807.93
687.14	23449.83
687.28	23290.67
687.42	23749.42
687.55	22904.48
687.69	23367.91
687.82	23335.14
687.96	23503.66
688.10	23014.49
688.23	22913.84
688.37	22899.80
688.50	22785.12
688.64	22614.26
688.78	22546.38
688.91	22335.73
689.05	22656.39
689.18	22424.67
689.32	22012.74
689.46	22377.86
689.59	22389.56
689.73	22141.47
689.86	22066.57
690.00	21785.71
690.13	22176.58
690.27	21570.38
690.41	21420.58
690.54	21518.89
690.68	21275.47
690.81	21242.70
690.95	21443.99
691.08	21223.98
691.22	21200.57
691.35	21280.15
691.49	21294.19
691.62	21483.78
691.76	21071.84
691.89	20933.75
692.03	20615.44
692.16	20629.48
692.30	20334.57
692.43	20601.40
692.57	20341.60
692.70	20194.14
692.84	20407.13
692.97	20194.14
693.11	19740.08
693.24	19880.51
693.38	19917.96
693.51	19988.18
693.65	19791.57
693.78	19768.16
693.92	19655.82
694.05	19765.82
694.19	19719.01
694.32	19559.86
694.45	19407.72
694.59	19363.25
694.72	18913.87
694.86	19194.73
694.99	19044.94
695.13	19101.11
695.26	18829.61
695.39	18787.48
695.53	18656.41
695.66	18647.05
695.80	18656.41
695.93	18525.34
696.07	18438.74
696.20	18253.84
696.33	18045.53
696.47	18352.14
696.60	18136.81
696.73	18115.75
696.87	17900.42
697.00	18162.56
697.14	17678.07
697.27	17944.89
697.40	18139.15
697.54	17626.57
697.67	17394.86
697.80	17434.65
697.94	17649.98
698.07	17308.26
698.21	17530.61
698.34	17539.97
698.47	17275.49
698.61	16788.66
698.74	16727.81
698.87	17034.42
699.01	16908.03
699.14	16783.98
699.27	16631.85
699.40	16636.53
699.54	16456.31
699.67	16374.39
699.80	16229.27
699.94	16636.53
700.07	16245.66
700.20	16098.20
700.34	15756.49
700.47	16126.29
700.60	16201.19
700.73	16123.95
700.87	16121.61
701.00	15845.43
701.13	15754.15
701.26	15784.57
701.40	15494.35
701.53	15264.97
701.66	15438.17
701.79	15021.56
701.93	15000.49
702.06	15391.36
702.19	14977.09
702.32	15087.09
702.46	14878.79
702.59	14965.39
702.72	14897.51
702.85	14794.53
702.99	15047.30
703.12	14794.53
703.25	14815.59
703.38	14810.91
703.51	14483.24
703.65	14431.74
703.78	14464.51
703.91	14408.34
704.04	14637.71
704.17	14164.92
704.31	14139.18
704.44	14134.50
704.57	13858.31
704.70	13792.78
704.83	13921.51
704.96	14169.60
705.10	13914.48
705.23	13909.80
>>>>>End Processed Spectral Data<<<<<
