SpectraSuite Data File
++++++++++++++++++++++++++++++++++++
Date: Fri Oct 25 10:43:47 EDT 2013
User: price-jones
Dark Spectrum Present: No
Reference Spectrum Present: No
Number of Sampled Component Spectra: 1
Spectrometers: USB2+H05261
Integration Time (usec): 100000 (USB2+H05261)
Spectra Averaged: 1 (USB2+H05261)
Boxcar Smoothing: 0 (USB2+H05261)
Correct for Electrical Dark: No (USB2+H05261)
Strobe/Lamp Enabled: No (USB2+H05261)
Correct for Detector Non-linearity: No (USB2+H05261)
Correct for Stray Light: No (USB2+H05261)
Number of Pixels in Processed Spectrum: 2048
>>>>>Begin Processed Spectral Data<<<<<
365.73	131.07
365.92	131.07
366.12	131.07
366.32	42.13
366.52	81.92
366.72	7.02
366.91	74.90
367.11	9.36
367.31	11.70
367.51	16.38
367.70	77.24
367.90	23.41
368.10	74.90
368.30	32.77
368.49	0.00
368.69	25.75
368.89	44.47
369.09	18.72
369.28	84.26
369.48	4.68
369.68	112.35
369.87	72.56
370.07	117.03
370.27	84.26
370.47	187.24
370.66	400.23
370.86	372.15
371.06	484.49
371.25	374.49
371.45	484.49
371.65	395.55
371.84	456.40
372.04	491.51
372.24	472.79
372.44	451.72
372.63	524.28
372.83	543.00
373.03	512.58
373.22	496.19
373.42	512.58
373.62	526.62
373.81	578.11
374.01	538.32
374.21	538.32
374.40	489.17
374.60	533.64
374.79	543.00
374.99	545.34
375.19	622.58
375.38	657.69
375.58	594.50
375.78	664.71
375.97	629.60
376.17	648.33
376.37	543.00
376.56	503.22
376.76	599.18
376.95	613.22
377.15	568.75
377.35	634.29
377.54	634.29
377.74	613.22
377.93	603.86
378.13	660.03
378.33	699.82
378.52	566.41
378.72	617.90
378.91	624.92
379.11	580.45
379.31	662.37
379.50	671.73
379.70	655.35
379.89	676.41
380.09	674.07
380.28	650.67
380.48	674.07
380.68	638.97
380.87	739.61
381.07	699.82
381.26	767.70
381.46	657.69
381.65	636.63
381.85	755.99
382.04	587.47
382.24	774.72
382.43	650.67
382.63	645.99
382.83	624.92
383.02	767.70
383.22	725.57
383.41	751.31
383.61	727.91
383.80	737.27
384.00	692.80
384.19	774.72
384.39	849.61
384.58	819.19
384.78	763.01
384.97	786.42
385.17	793.44
385.36	816.85
385.56	741.95
385.75	786.42
385.95	823.87
386.14	779.40
386.34	830.89
386.53	837.91
386.72	772.38
386.92	936.21
387.11	910.47
387.31	812.17
387.50	861.32
387.70	903.45
387.89	819.19
388.09	880.04
388.28	880.04
388.48	856.64
388.67	999.41
388.86	922.17
389.06	917.49
389.25	912.81
389.45	919.83
389.64	915.15
389.84	968.98
390.03	973.66
390.22	940.90
390.42	1025.15
390.61	945.58
390.81	1060.26
391.00	1039.20
391.19	968.98
391.39	1011.11
391.58	1027.50
391.78	1006.43
391.97	1074.31
392.16	1034.52
392.36	1025.15
392.55	945.58
392.75	978.34
392.94	891.74
393.13	924.51
393.33	1036.86
393.52	987.71
393.71	1032.18
393.91	954.94
394.10	1114.10
394.29	1097.71
394.49	1219.42
394.68	1221.76
394.88	1210.06
395.07	1226.44
395.26	1114.10
395.46	1200.69
395.65	1205.38
395.84	1158.57
396.04	1135.16
396.23	1242.82
396.42	1123.46
396.62	1228.78
396.81	1167.93
397.00	1308.36
397.19	1296.66
397.39	1291.98
397.58	1306.02
397.77	1390.28
397.97	1409.00
398.16	1378.58
398.35	1378.58
398.55	1507.30
398.74	1432.41
398.93	1619.65
399.12	1465.18
399.32	1460.49
399.51	1540.07
399.70	1614.97
399.90	1558.80
400.09	1640.72
400.28	1514.33
400.47	1549.43
400.67	1640.72
400.86	1638.38
401.05	1621.99
401.24	1729.66
401.44	1713.27
401.63	1610.29
401.82	1678.16
402.01	1661.78
402.21	1664.12
402.40	1687.53
402.59	1771.79
402.78	1844.34
402.97	1776.47
403.17	1720.29
403.36	1750.72
403.55	1790.51
403.74	1778.81
403.93	1832.64
404.13	1790.51
404.32	1853.70
404.51	1912.22
404.70	1980.09
404.89	1865.41
405.09	2024.56
405.28	1947.33
405.47	1937.96
405.66	1940.30
405.85	1956.69
406.05	1891.15
406.24	1872.43
406.43	2022.22
406.62	2017.54
406.81	2090.10
407.00	2043.29
407.20	2045.63
407.39	2153.29
407.58	2148.61
407.77	2160.31
407.96	2101.80
408.15	2211.81
408.34	2193.08
408.54	2368.62
408.73	2296.07
408.92	2214.15
409.11	2286.70
409.30	2235.21
409.49	2251.60
409.68	2286.70
409.87	2136.91
410.07	2303.09
410.26	2326.49
410.45	2408.41
410.64	2331.17
410.83	2450.54
411.02	2569.91
411.21	2607.36
411.40	2537.14
411.59	2635.44
411.78	2612.04
411.98	2642.46
412.17	2616.72
412.36	2607.36
412.55	2658.85
412.74	2726.72
412.93	2619.06
413.12	2616.72
413.31	2923.33
413.50	2909.29
413.69	2878.86
413.88	2913.97
414.07	2878.86
414.26	2911.63
414.45	2932.69
414.64	2890.56
414.83	2923.33
415.02	2981.84
415.22	3089.51
415.41	3176.11
415.60	3131.64
415.79	3197.17
415.98	3258.03
416.17	3180.79
416.36	3145.68
416.55	3108.23
416.74	3229.94
416.93	3152.70
417.12	3243.98
417.31	3227.60
417.50	3218.24
417.69	3466.33
417.88	3295.47
418.07	3412.50
418.26	3513.14
418.45	3276.75
418.64	3506.12
418.83	3513.14
419.02	3407.82
419.21	3548.25
419.39	3548.25
419.58	3379.73
419.77	3494.42
419.96	3599.74
420.15	3662.94
420.34	3520.17
420.53	3620.81
420.72	3693.37
420.91	3669.96
421.10	3791.67
421.29	3854.86
421.48	3765.92
421.67	3801.03
421.86	3840.82
422.05	3653.58
422.24	3669.96
422.43	3634.85
422.61	3901.67
422.80	3880.61
422.99	3960.19
423.18	3815.07
423.37	3999.98
423.56	3899.33
423.75	3978.91
423.94	3794.01
424.13	3674.64
424.32	3728.47
424.50	3988.27
424.69	4011.68
424.88	3932.10
425.07	3882.95
425.26	3850.18
425.45	3894.65
425.64	3826.78
425.83	3969.55
426.01	4074.87
426.20	3957.85
426.39	3939.12
426.58	3847.84
426.77	3845.50
426.96	4114.66
427.15	3908.69
427.33	3967.21
427.52	4002.32
427.71	4011.68
427.90	4077.21
428.09	4105.30
428.28	4091.26
428.46	4084.23
428.65	4070.19
428.84	4084.23
429.03	4184.88
429.22	4049.13
429.40	4215.30
429.59	3894.65
429.78	3836.14
429.97	3840.82
430.16	4145.09
430.34	4184.88
430.53	4184.88
430.72	4180.20
430.91	4051.47
431.10	4180.20
431.28	4484.47
431.47	4561.70
431.66	4758.31
431.85	4638.94
432.03	4568.73
432.22	4744.27
432.41	4550.00
432.60	4678.73
432.79	4573.41
432.97	4744.27
433.16	4702.14
433.35	4538.30
433.54	4643.62
433.72	4542.98
433.91	4624.90
434.10	4739.58
434.28	4798.10
434.47	4865.97
434.66	4901.08
434.85	4828.53
435.03	4875.34
435.22	4734.90
435.41	5083.64
435.59	4947.89
435.78	4901.08
435.97	5111.73
436.16	4947.89
436.34	5029.81
436.53	4968.96
436.72	5184.29
436.90	4889.38
437.09	5179.61
437.28	4940.87
437.46	5100.03
437.65	5153.86
437.84	5177.26
438.02	5132.79
438.21	5104.71
438.40	5039.17
438.58	5252.16
438.77	5451.11
438.96	5563.45
439.14	5472.17
439.33	5568.13
439.52	5533.03
439.70	5589.20
439.89	5680.48
440.08	5507.28
440.26	5614.95
440.45	5610.26
440.63	5764.74
440.82	5841.98
441.01	5898.15
441.19	6047.94
441.38	5977.73
441.57	6022.20
441.75	6181.35
441.94	6230.51
442.12	6162.63
442.31	6270.30
442.50	6373.28
442.68	6216.46
442.87	6230.51
443.05	6249.23
443.24	6476.26
443.43	6333.49
443.61	6354.55
443.80	6581.59
443.98	6384.98
444.17	6232.85
444.35	6497.33
444.54	6464.56
444.73	6630.74
444.91	6476.26
445.10	6394.34
445.28	6246.89
445.47	6253.91
445.65	6478.60
445.84	6452.86
446.02	6401.37
446.21	6427.11
446.39	6384.98
446.58	6668.19
446.77	6569.88
446.95	6392.00
447.14	6637.76
447.32	6759.47
447.51	6612.01
447.69	6569.88
447.88	6698.61
448.06	6546.48
448.25	6665.85
448.43	6569.88
448.62	6665.85
448.80	6579.25
448.99	6590.95
449.17	6792.23
449.36	6712.66
449.54	7061.40
449.73	6988.84
449.91	7122.25
450.10	6995.86
450.28	7124.59
450.46	7066.08
450.65	7122.25
450.83	7028.63
451.02	7302.47
451.20	7126.93
451.39	7112.89
451.57	7112.89
451.76	7197.15
451.94	7082.46
452.13	7089.48
452.31	7037.99
452.49	6820.32
452.68	7077.78
452.86	7166.72
453.05	7187.79
453.23	7089.48
453.42	7232.26
453.60	7286.09
453.78	7365.67
453.97	7241.62
454.15	7192.47
454.34	7304.81
454.52	7520.14
454.70	7304.81
454.89	7550.57
455.07	7506.10
455.26	7442.90
455.44	7616.10
455.62	7688.66
455.81	7632.49
455.99	7644.19
456.17	7733.13
456.36	7772.92
456.54	7995.27
456.73	7829.09
456.91	7985.91
457.09	7911.01
457.28	8208.26
457.46	7826.75
457.64	8276.13
457.83	8173.15
458.01	7885.26
458.19	8102.93
458.38	8025.70
458.56	8196.56
458.74	8231.66
458.93	8320.60
459.11	8175.49
459.29	8140.38
459.48	8208.26
459.66	7992.93
459.84	8217.62
460.03	8547.64
460.21	8449.33
460.39	8379.12
460.57	8241.03
460.76	8344.01
460.94	8564.02
461.12	8517.21
461.31	8390.82
461.49	8582.74
461.67	8332.31
461.85	8685.73
462.04	8753.60
462.22	8847.22
462.40	8720.84
462.59	8706.79
462.77	8786.37
462.95	8896.38
463.13	8791.05
463.32	8929.14
463.50	8905.74
463.68	8865.95
463.86	8840.20
464.05	8809.78
464.23	8936.17
464.41	9018.08
464.59	8748.92
464.78	9039.15
464.96	9013.40
465.14	9015.74
465.32	9008.72
465.50	9067.24
465.69	9095.32
465.87	9067.24
466.05	9078.94
466.23	9053.19
466.41	9109.36
466.60	9123.41
466.78	9006.38
466.96	9050.85
467.14	8933.82
467.32	9320.01
467.51	9551.73
467.69	9327.03
467.87	9261.50
468.05	9535.34
468.23	9399.59
468.41	9441.72
468.60	9444.06
468.78	9535.34
468.96	9530.66
469.14	9659.39
469.32	9797.48
469.50	9446.40
469.69	9832.59
469.87	9757.69
470.05	9626.62
470.23	9509.60
470.41	9462.79
470.59	9783.44
470.77	9921.53
470.95	9968.34
471.14	9848.97
471.32	9659.39
471.50	10207.08
471.68	10068.98
471.86	10242.18
472.04	10296.02
472.22	10216.44
472.40	10157.92
472.58	10176.65
472.77	10223.46
472.95	10434.11
473.13	10670.50
473.31	10272.61
473.49	10396.66
473.67	10562.84
473.85	10628.37
474.03	10850.72
474.21	10743.06
474.39	10768.80
474.57	11101.16
474.75	10897.53
474.93	10965.41
475.12	10590.92
475.30	11309.47
475.48	11030.94
475.66	11304.79
475.84	11044.99
476.02	11367.98
476.20	11375.00
476.38	11449.90
476.56	11770.55
476.74	11609.06
476.92	11791.62
477.10	11459.26
477.28	11751.83
477.46	11679.27
477.64	11932.05
477.82	12184.83
478.00	12409.52
478.18	12138.02
478.36	12397.82
478.54	12416.54
478.72	12538.25
478.90	12716.13
479.08	12765.28
479.26	12945.50
479.44	12924.44
479.62	13282.54
479.80	13092.96
479.98	13259.13
480.16	13123.38
480.34	13415.95
480.52	13628.94
480.70	13631.28
480.88	13558.72
481.06	13631.28
481.24	13989.38
481.41	13881.72
481.59	14183.65
481.77	14445.79
481.95	14178.97
482.13	14127.47
482.31	14291.31
482.49	14846.02
482.67	14883.47
482.85	14902.19
483.03	14904.53
483.21	15082.41
483.39	15005.17
483.57	15154.97
483.74	15056.67
483.92	15363.28
484.10	15286.04
484.28	15730.74
484.46	15744.78
484.64	16093.52
484.82	15840.75
485.00	15843.09
485.18	16304.17
485.35	16578.01
485.53	16035.01
485.71	16238.64
485.89	16250.34
486.07	16226.93
486.25	16320.56
486.43	16559.29
486.61	16940.80
486.78	17209.96
486.96	17163.15
487.14	17415.93
487.32	17472.10
487.50	17767.01
487.68	18052.55
487.85	18157.88
488.03	18286.61
488.21	18515.98
488.39	18377.89
488.57	18506.62
488.75	18691.52
488.92	18824.93
489.10	18923.23
489.28	19295.38
489.46	19470.92
489.64	19566.88
489.81	19960.09
489.99	19789.23
490.17	20247.97
490.35	20205.84
490.53	19826.68
490.70	20212.87
490.88	20222.23
491.06	20556.93
491.24	20648.21
491.41	20592.03
491.59	20386.07
491.77	20388.41
491.95	20535.86
492.13	20973.54
492.30	21390.16
492.48	21074.18
492.66	21493.14
492.84	21392.50
493.01	21923.80
493.19	21865.28
493.37	22169.55
493.54	22265.52
493.72	22649.36
493.90	22155.51
494.08	22443.40
494.25	22815.54
494.43	22911.50
494.61	23351.52
494.79	23175.98
494.96	23339.82
495.14	23269.61
495.32	23105.77
495.49	23428.76
495.67	23681.54
495.85	23843.04
496.02	24056.03
496.20	24151.99
496.38	23892.19
496.55	24283.06
496.73	25062.46
496.91	24592.01
497.09	24655.20
497.26	24861.17
497.44	24669.25
497.62	25291.83
497.79	25092.88
497.97	25422.90
498.14	25289.49
498.32	25284.81
498.50	25708.44
498.67	25556.31
498.85	25476.73
499.03	26251.45
499.20	26195.28
499.38	26092.29
499.56	25841.85
499.73	26122.72
499.91	26132.08
500.08	26162.51
500.26	26309.96
500.44	26230.38
500.61	26551.04
500.79	25923.77
500.97	26600.19
501.14	26930.20
501.32	27037.87
501.49	26808.50
501.67	26995.74
501.84	26948.93
502.02	27344.48
502.20	27023.83
502.37	27428.74
502.55	27536.40
502.72	27894.50
502.90	27613.64
503.07	27417.04
503.25	27627.68
503.43	27637.05
503.60	28140.26
503.78	27740.03
503.95	28027.92
504.13	28266.65
504.30	27999.83
504.48	28173.03
504.65	28718.37
504.83	28975.83
505.01	28863.49
505.18	28996.90
505.36	29151.37
505.53	29160.73
505.71	29324.57
505.88	29193.50
506.06	28765.18
506.23	29383.09
506.41	28924.34
506.58	29392.45
506.76	29497.77
506.93	29642.88
507.11	29942.47
507.28	29738.85
507.46	29832.47
507.63	29656.93
507.81	29656.93
507.98	29743.53
508.16	30089.93
508.33	30096.95
508.50	30548.67
508.68	31047.21
508.85	30333.34
509.03	30593.14
509.20	30618.89
509.38	30920.82
509.55	31058.91
509.73	30911.46
509.90	31136.15
510.08	31049.55
510.25	31683.83
510.42	31173.60
510.60	31367.86
510.77	31625.32
510.95	31988.10
511.12	31208.70
511.30	31906.18
511.47	32264.28
511.64	31571.49
511.82	32240.88
511.99	32102.79
512.17	32009.17
512.34	32283.01
512.51	32526.42
512.69	32149.60
512.86	32322.80
513.04	32629.41
513.21	32407.06
513.38	32250.24
513.56	32418.76
513.73	32458.55
513.90	32669.20
514.08	32666.86
514.25	32704.31
514.43	33123.26
514.60	32987.51
514.77	32730.05
514.95	33193.48
515.12	33027.30
515.29	33689.67
515.47	33631.16
515.64	33848.83
515.81	33647.54
515.99	33446.26
516.16	33752.87
516.33	33659.24
516.51	33472.00
516.68	32879.85
516.85	33462.64
517.03	33046.02
517.20	33647.54
517.37	33867.55
517.54	34007.98
517.72	34443.32
517.89	33734.14
518.06	33890.96
518.24	33923.72
518.41	33916.70
518.58	34387.15
518.75	34029.05
518.93	34663.33
519.10	34242.04
519.27	34712.49
519.45	34998.03
519.62	35077.61
519.79	35012.07
519.96	34995.69
520.14	35505.93
520.31	35473.16
520.48	35562.10
520.65	35189.95
520.83	35337.41
521.00	35292.94
521.17	35578.48
521.34	35866.37
521.52	35566.78
521.69	35615.93
521.86	36058.29
522.03	36011.48
522.20	36002.12
522.38	36315.75
522.55	35915.52
522.72	36156.60
522.89	35899.14
523.07	36425.76
523.24	36444.48
523.41	36488.95
523.58	36205.75
523.75	37188.77
523.92	36917.27
524.10	36900.89
524.27	36662.15
524.44	37104.51
524.61	37270.69
524.78	36961.74
524.96	37153.66
525.13	37095.15
525.30	37766.88
525.47	38024.34
525.64	37031.96
525.81	37429.85
525.98	36931.31
526.16	36638.75
526.33	36718.32
526.50	37383.04
526.67	36774.50
526.84	37408.78
527.01	37062.38
527.18	37553.90
527.36	37347.93
527.53	37809.01
527.70	38366.06
527.87	37811.35
528.04	37928.38
528.21	38064.13
528.38	37961.15
528.55	38487.77
528.72	38438.62
528.89	38670.33
529.07	38199.88
529.24	38321.59
529.41	38249.03
529.58	38403.51
529.75	38452.66
529.92	38586.07
530.09	38796.72
530.26	39019.07
530.43	39171.21
530.60	38778.00
530.77	38939.49
530.94	39227.38
531.11	38902.04
531.28	39082.27
531.46	39072.90
531.63	39541.01
531.80	38967.58
531.97	38820.13
532.14	39173.55
532.31	39154.82
532.48	39187.59
532.65	39145.46
532.82	39246.10
532.99	39512.92
533.16	39496.54
533.33	39557.39
533.50	39578.46
533.67	39660.38
533.84	39723.57
534.01	39880.39
534.18	39814.85
534.35	39875.71
534.52	39880.39
534.69	40135.51
534.86	39887.41
535.03	40624.68
535.20	40582.55
535.37	40353.18
535.54	40418.71
535.71	40076.99
535.88	40355.52
536.05	40201.04
536.22	40554.46
536.38	40383.60
536.55	40217.43
536.72	40147.21
536.89	40308.71
537.06	40268.92
537.23	41085.76
537.40	40877.46
537.57	40465.52
537.74	41074.06
537.91	40744.05
538.08	40837.67
538.25	40339.13
538.42	41226.20
538.59	41511.74
538.75	40414.03
538.92	41148.96
539.09	41553.87
539.26	40870.43
539.43	41163.00
539.60	40994.48
539.77	41088.10
539.94	40964.06
540.11	41017.89
540.28	40957.03
540.44	41144.28
540.61	41151.30
540.78	41158.32
540.95	41221.52
541.12	41408.76
541.29	41549.19
541.46	41469.61
541.62	41581.96
541.79	41804.31
541.96	41460.25
542.13	41677.92
542.30	41518.76
542.47	41846.44
542.63	41743.45
542.80	41853.46
542.97	41907.29
543.14	41984.53
543.31	42384.76
543.48	42548.60
543.64	42852.87
543.81	42562.64
543.98	42588.39
544.15	42579.03
544.32	42909.04
544.48	42972.24
544.65	42417.53
544.82	42511.15
544.99	42487.74
545.16	42616.47
545.32	42452.64
545.49	43271.82
545.66	42761.59
545.83	42969.90
546.00	43330.34
546.16	42976.92
546.33	43007.34
546.50	43030.75
546.67	42902.02
546.83	42782.65
547.00	43019.05
547.17	43056.50
547.34	42696.05
547.50	43306.93
547.67	43136.07
547.84	43033.09
548.00	43257.78
548.17	43557.37
548.34	43569.07
548.51	43749.29
548.67	43473.11
548.84	43447.36
549.01	43185.22
549.18	43138.41
549.34	43632.27
549.51	44018.46
549.68	43250.76
549.84	43358.42
550.01	43655.67
550.18	43416.94
550.34	43540.99
550.51	43636.95
550.68	43908.45
550.84	43213.31
551.01	43548.01
551.18	43571.41
551.34	43901.43
551.51	44294.64
551.68	43992.71
551.84	43995.05
552.01	43587.80
552.18	44142.50
552.34	43693.12
552.51	44067.61
552.68	43992.71
552.84	43761.00
553.01	44594.23
553.18	43849.94
553.34	44423.37
553.51	44376.56
553.67	44240.81
553.84	44126.12
554.01	44406.98
554.17	44327.41
554.34	44884.45
554.51	43962.28
554.67	44690.19
554.84	44259.53
555.00	44088.67
555.17	44030.16
555.33	44505.29
555.50	44615.29
555.67	44261.87
555.83	44516.99
556.00	44481.88
556.16	45097.44
556.33	44383.58
556.50	44086.33
556.66	44938.29
556.83	44126.12
556.99	44746.36
557.16	44924.24
557.32	44708.91
557.49	45212.13
557.65	44697.21
557.82	44690.19
557.98	44694.87
558.15	44919.56
558.32	44783.81
558.48	44519.33
558.65	44615.29
558.81	44296.98
558.98	44865.73
559.14	44657.42
559.31	44727.64
559.47	44982.76
559.64	44779.13
559.80	44690.19
559.97	45102.12
560.13	44619.97
560.30	45017.86
560.46	44498.26
560.63	45549.17
560.79	45184.04
560.96	45188.72
561.12	45345.54
561.29	45123.19
561.45	44758.06
561.61	44760.40
561.78	44875.09
561.94	44847.00
562.11	45397.03
562.27	45123.19
562.44	45315.11
562.60	45422.78
562.77	45404.05
562.93	45118.51
563.10	45464.91
563.26	44954.67
563.42	45668.53
563.59	45247.24
563.75	44975.73
563.92	45696.62
564.08	45544.48
564.24	45497.67
564.41	45418.10
564.57	45497.67
564.74	45242.56
564.90	44914.88
565.07	45621.72
565.23	45654.49
565.39	45303.41
565.56	45425.12
565.72	45521.08
565.88	45317.45
566.05	45134.89
566.21	45282.34
566.38	45450.86
566.54	45240.21
566.70	45560.87
566.87	45778.54
567.03	45546.82
567.19	45872.16
567.36	45741.09
567.52	45277.66
567.68	45834.71
567.85	45509.38
568.01	45560.87
568.17	45722.37
568.34	45694.28
568.50	45764.49
568.66	45382.99
568.83	45331.50
568.99	45127.87
569.15	45265.96
569.32	45518.74
569.48	45490.65
569.64	45544.48
569.81	45614.70
569.97	45287.03
570.13	45429.80
570.30	45703.64
570.46	45799.60
570.62	45020.20
570.78	44760.40
570.95	45457.88
571.11	45392.35
571.27	45071.70
571.43	45773.86
571.60	45748.11
571.76	45502.35
571.92	45855.78
572.09	45904.93
572.25	45654.49
572.41	45483.63
572.57	45495.33
572.74	46129.62
572.90	45830.03
573.06	46007.91
573.22	45701.30
573.38	45579.59
573.55	45462.57
573.71	46087.49
573.87	46043.02
574.03	45921.31
574.20	45670.87
574.36	45516.40
574.52	45691.94
574.68	45406.39
574.84	45942.38
575.01	45832.37
575.17	45544.48
575.33	45661.51
575.49	45911.95
575.65	45918.97
575.82	46082.81
575.98	45677.90
576.14	45764.49
576.30	45914.29
576.46	45818.33
576.62	45883.86
576.79	45937.69
576.95	45375.97
577.11	45977.48
577.27	46057.06
577.43	45778.54
577.59	45640.45
577.75	45736.41
577.92	45736.41
578.08	45123.19
578.24	45434.48
578.40	45523.42
578.56	46223.24
578.72	45546.82
578.88	46232.60
579.04	46150.68
579.21	45911.95
579.37	45481.29
579.53	45804.28
579.69	45666.19
579.85	45698.96
580.01	45659.17
580.17	45825.35
580.33	45940.04
580.49	45710.66
580.65	45567.89
580.82	45729.39
580.98	46071.10
581.14	45738.75
581.30	45675.55
581.46	45701.30
581.62	45865.14
581.78	45883.86
581.94	45965.78
582.10	45680.24
582.26	46057.06
582.42	45750.45
582.58	45970.46
582.74	45708.32
582.90	46358.99
583.06	46248.99
583.22	45921.31
583.38	46373.03
583.54	46263.03
583.70	46490.06
583.86	46330.90
584.02	45862.80
584.18	46167.07
584.34	45876.84
584.50	45797.26
584.66	45708.32
584.82	46096.85
584.98	45937.69
585.14	45837.05
585.30	45551.51
585.46	45507.04
585.62	45956.42
585.78	45558.53
585.94	45530.44
586.10	45745.77
586.26	45841.73
586.42	46026.63
586.58	46162.39
586.74	46085.15
586.90	45965.78
587.06	45935.35
587.22	46279.41
587.38	45986.85
587.54	45780.88
587.70	46176.43
587.86	45771.52
588.02	45869.82
588.18	46307.50
588.34	45691.94
588.49	45308.09
588.65	45167.66
588.81	45670.87
588.97	45879.18
589.13	45778.54
589.29	45734.07
589.45	46120.26
589.61	45710.66
589.77	46007.91
589.93	45935.35
590.08	46508.79
590.24	46099.19
590.40	46658.58
590.56	46340.27
590.72	45998.55
590.88	45830.03
591.04	45813.65
591.20	46368.35
591.35	46005.57
591.51	46426.87
591.67	45722.37
591.83	45893.22
591.99	45677.90
592.15	46195.15
592.31	45799.60
592.46	46071.10
592.62	45998.55
592.78	45603.00
592.94	45703.64
593.10	46162.39
593.26	46396.44
593.41	45944.72
593.57	45977.48
593.73	45830.03
593.89	46763.90
594.05	45815.99
594.20	46344.95
594.36	46108.55
594.52	46000.89
594.68	46340.27
594.84	45911.95
594.99	46138.98
595.15	45989.19
595.31	46614.11
595.47	46019.61
595.62	45923.65
595.78	45911.95
595.94	46693.69
596.10	46014.93
596.25	46571.98
596.41	46279.41
596.57	45975.14
596.73	46300.48
596.88	45792.58
597.04	46387.08
597.20	46368.35
597.36	46167.07
597.51	46007.91
597.67	46099.19
597.83	46326.22
597.99	46532.19
598.14	45893.22
598.30	46218.56
598.46	46204.52
598.61	46267.71
598.77	46225.58
598.93	46021.95
599.09	46328.56
599.24	46550.91
599.40	46401.12
599.56	46270.05
599.71	45841.73
599.87	46370.69
600.03	46082.81
600.18	46078.13
600.34	46019.61
600.50	46064.08
600.65	46384.74
600.81	46466.66
600.97	45954.08
601.12	46600.07
601.28	46174.09
601.44	45792.58
601.59	45984.51
601.75	45827.69
601.91	45956.42
602.06	46073.45
602.22	46171.75
602.37	46213.88
602.53	46237.28
602.69	46403.46
602.84	46075.79
603.00	46183.45
603.16	46361.33
603.31	45965.78
603.47	46129.62
603.62	46328.56
603.78	46422.19
603.94	45993.87
604.09	46546.23
604.25	46064.08
604.40	45823.01
604.56	46293.46
604.71	46085.15
604.87	45888.54
605.03	46066.42
605.18	45771.52
605.34	45923.65
605.49	45787.90
605.65	46012.59
605.80	45813.65
605.96	45736.41
606.12	46366.01
606.27	46281.75
606.43	46138.98
606.58	46188.13
606.74	45900.25
606.89	46005.57
607.05	45867.48
607.20	45830.03
607.36	46089.83
607.51	45951.74
607.67	45771.52
607.82	45656.83
607.98	45752.79
608.13	46014.93
608.29	45560.87
608.44	45443.84
608.60	45277.66
608.75	45701.30
608.91	45940.04
609.06	46078.13
609.22	45940.04
609.37	45680.24
609.53	45705.98
609.68	45502.35
609.84	45762.15
609.99	45446.18
610.15	45544.48
610.30	45502.35
610.46	45059.99
610.61	45614.70
610.76	45743.43
610.92	45382.99
611.07	45750.45
611.23	45680.24
611.38	45235.53
611.54	45338.52
611.69	45085.74
611.84	45488.31
612.00	44687.85
612.15	45656.83
612.31	45511.72
612.46	45455.54
612.62	45546.82
612.77	44931.26
612.92	45450.86
613.08	45481.29
613.23	45368.94
613.39	44657.42
613.54	44814.24
613.69	44779.13
613.85	44762.75
614.00	44896.16
614.15	45165.32
614.31	45230.85
614.46	45090.42
614.62	45048.29
614.77	45134.89
614.92	45088.08
615.08	44842.32
615.23	44804.88
615.38	45118.51
615.54	44650.40
615.69	44671.46
615.84	44912.54
616.00	45064.67
616.15	44957.01
616.30	44889.13
616.46	44830.62
616.61	44411.67
616.76	44573.16
616.92	44397.62
617.07	44446.77
617.22	44528.69
617.37	44409.32
617.53	44903.18
617.68	44769.77
617.83	44650.40
617.99	44626.99
618.14	43992.71
618.29	44107.40
618.45	43952.92
618.60	43477.79
618.75	43887.39
618.90	44142.50
619.06	44350.81
619.21	43999.73
619.36	44289.96
619.51	44502.95
619.67	43892.07
619.82	43976.33
619.97	44437.41
620.12	43819.51
620.28	44074.63
620.43	44006.75
620.58	43821.85
620.73	44217.40
620.89	44105.06
621.04	44322.72
621.19	43929.51
621.34	44449.11
621.49	43700.14
621.65	44053.56
621.80	43922.49
621.95	43337.36
622.10	44133.14
622.25	43489.49
622.41	43171.18
622.56	43648.65
622.71	43943.56
622.86	43856.96
623.01	43732.91
623.16	43587.80
623.32	43475.45
623.47	43737.59
623.62	43318.64
623.77	43564.39
623.92	43480.13
624.07	43512.90
624.23	43035.43
624.38	43150.12
624.53	43320.98
624.68	43606.52
624.83	43360.76
624.98	43140.75
625.13	43009.68
625.29	43419.28
625.44	42834.14
625.59	42693.71
625.74	42728.82
625.89	42637.54
626.04	42859.89
626.19	42492.43
626.34	43096.28
626.49	43463.75
626.65	42761.59
626.80	43267.14
626.95	42614.13
627.10	42759.25
627.25	42384.76
627.40	42717.12
627.55	42770.95
627.70	42232.63
627.85	42871.59
628.00	42653.92
628.15	42913.72
628.30	42260.71
628.45	42761.59
628.60	42651.58
628.76	42728.82
628.91	42213.90
629.06	41855.80
629.21	42419.87
629.36	41628.77
629.51	42412.85
629.66	42211.56
629.81	42422.21
629.96	42576.69
630.11	42632.86
630.26	42735.84
630.41	42377.74
630.56	42188.16
630.71	41923.68
630.86	42141.35
631.01	41731.75
631.16	42139.00
631.31	41434.50
631.46	41811.33
631.61	41858.14
631.76	42117.94
631.91	41853.46
632.06	42225.60
632.21	41942.40
632.36	41937.72
632.51	41659.20
632.66	41663.88
632.81	41918.99
632.96	41619.41
633.10	41970.49
633.25	41607.70
633.40	41694.30
633.55	41989.21
633.70	41867.50
633.85	41343.22
634.00	41710.69
634.15	42085.17
634.30	41191.09
634.45	41773.88
634.60	41621.75
634.75	41188.75
634.90	41406.42
635.05	41710.69
635.19	41345.56
635.34	41504.72
635.49	40996.82
635.64	41069.38
635.79	41347.90
635.94	40886.82
636.09	41209.81
636.24	41067.04
636.39	40861.07
636.53	41055.34
636.68	40596.59
636.83	40603.61
636.98	41172.36
637.13	41053.00
637.28	40954.69
637.43	41242.58
637.57	41298.75
637.72	40671.49
637.87	40865.75
638.02	40783.83
638.17	41301.09
638.32	40683.19
638.46	40800.22
638.61	40804.90
638.76	41045.97
638.91	40996.82
639.06	40758.09
639.20	40737.02
639.35	40676.17
639.50	40526.38
639.65	40872.78
639.80	40463.18
639.94	40456.16
640.09	40561.48
640.24	40708.94
640.39	40364.88
640.54	39672.08
640.68	40414.03
640.83	40250.19
640.98	40018.48
641.13	39927.20
641.27	40292.32
641.42	40297.00
641.57	40158.91
641.72	40182.32
641.86	40524.04
642.01	39700.17
642.16	40039.54
642.31	40065.29
642.45	40156.57
642.60	39751.66
642.75	39966.99
642.90	39791.45
643.04	39831.24
643.19	40102.74
643.34	39690.80
643.48	39737.62
643.63	39543.35
643.78	39466.11
643.93	39697.83
644.07	40175.30
644.22	39276.53
644.37	39503.56
644.51	39744.64
644.66	39707.19
644.81	39864.00
644.95	39777.40
645.10	39700.17
645.25	39805.49
645.39	39372.49
645.54	39559.73
645.69	39257.81
645.83	39426.32
645.98	39147.80
646.13	39154.82
646.27	39206.31
646.42	39150.14
646.57	38979.28
646.71	39182.91
646.86	39323.34
647.00	39351.43
647.15	38927.79
647.30	39342.06
647.44	38974.60
647.59	38852.89
647.74	38588.41
647.88	38745.23
648.03	39033.11
648.17	39246.10
648.32	38941.83
648.47	38665.65
648.61	38895.02
648.76	38883.32
648.90	38738.21
649.05	38742.89
649.20	39108.01
649.34	38789.70
649.49	38656.29
649.63	38623.52
649.78	38754.59
649.92	38817.78
650.07	38827.15
650.21	38785.02
650.36	38955.88
650.51	38958.22
650.65	39337.38
650.80	39117.37
650.94	39122.05
651.09	38794.38
651.23	38848.21
651.38	38237.33
651.52	38223.29
651.67	38345.00
651.81	38382.45
651.96	38258.40
652.10	38160.09
652.25	38312.23
652.39	38321.59
652.54	38061.79
652.68	38143.71
652.83	38225.63
652.97	38251.38
653.12	38096.90
653.26	37886.25
653.41	37935.40
653.55	38455.00
653.70	37926.04
653.84	37940.08
653.99	38279.46
654.13	37935.40
654.27	37921.36
654.42	38195.20
654.56	38209.25
654.71	38101.58
654.85	37628.79
655.00	38047.75
655.14	37525.81
655.29	37780.93
655.43	37448.57
655.57	37448.57
655.72	37156.00
655.86	36985.15
656.01	37397.08
656.15	37179.41
656.30	37088.13
656.44	37099.83
656.58	37368.99
656.73	37179.41
656.87	37502.40
657.01	37017.91
657.16	37366.65
657.30	37067.06
657.45	36774.50
657.59	36620.02
657.73	37069.40
657.88	37511.77
658.02	37041.32
658.16	37038.98
658.31	37324.52
658.45	37088.13
658.60	37069.40
658.74	37413.46
658.88	36896.20
659.03	36924.29
659.17	36914.93
659.31	36774.50
659.46	36636.41
659.60	37113.87
659.74	36992.17
659.89	36397.67
660.03	36531.08
660.17	36423.42
660.32	36790.88
660.46	36598.96
660.60	36505.34
660.74	36334.48
660.89	36444.48
661.03	36217.45
661.17	36184.68
661.32	35938.93
661.46	36287.67
661.60	36463.21
661.74	36027.87
661.89	36058.29
662.03	35892.12
662.17	36194.04
662.31	35735.30
662.46	36374.27
662.60	36151.91
662.74	36091.06
662.88	35667.42
663.03	35854.67
663.17	35728.28
663.31	35665.08
663.45	35807.86
663.60	35428.69
663.74	35323.36
663.88	35271.87
664.02	35295.28
664.17	35700.19
664.31	34644.61
664.45	34796.74
664.59	34983.99
664.73	35325.71
664.88	34976.97
665.02	34756.96
665.16	35306.98
665.30	34728.87
665.44	34307.57
665.59	34518.22
665.73	34565.03
665.87	34218.63
666.01	34834.19
666.15	34756.96
666.29	34822.49
666.44	34792.06
666.58	34733.55
666.72	34635.25
666.86	34265.44
667.00	34246.72
667.14	34394.17
667.28	34022.03
667.43	33865.21
667.57	34033.73
667.71	34127.35
667.85	34113.31
667.99	34185.86
668.13	33844.15
668.27	34190.55
668.41	34029.05
668.56	33773.93
668.70	33411.15
668.84	33354.97
668.98	33280.08
669.12	33514.13
669.26	33130.28
669.40	33369.02
669.54	33067.09
669.68	33069.43
669.82	32809.63
669.96	33027.30
670.10	33113.90
670.25	33209.86
670.39	32648.13
670.53	32952.40
670.67	32814.31
670.81	32884.53
670.95	32964.10
671.09	32524.08
671.23	32432.80
671.37	32711.33
671.51	32898.57
671.65	32381.31
671.79	32109.81
671.93	32250.24
672.07	32091.09
672.21	32177.68
672.35	32077.04
672.49	32025.55
672.63	31934.27
672.77	32236.20
672.91	32095.77
673.05	31826.60
673.19	31952.99
673.33	31695.53
673.47	31704.90
673.61	31608.93
673.75	31304.67
673.89	31091.68
674.03	31182.96
674.17	31372.54
674.31	31002.74
674.45	31358.50
674.59	31192.32
674.73	31299.98
674.87	31255.51
675.01	30850.60
675.15	30670.38
675.29	30841.24
675.43	30749.96
675.56	30895.07
675.70	30319.30
675.84	30679.74
675.98	29308.19
676.12	30553.35
676.26	30352.07
676.40	30326.32
676.54	30529.95
676.68	30183.55
676.82	29603.10
676.96	29635.86
677.10	30146.10
677.23	29415.85
677.37	29551.60
677.51	29532.88
677.65	29406.49
677.79	29282.44
677.93	29460.32
678.07	28854.12
678.21	28601.35
678.34	28940.72
678.48	28594.32
678.62	28947.75
678.76	28355.59
678.90	28477.30
679.04	28299.42
679.18	28304.10
679.31	28180.05
679.45	28140.26
679.59	27873.44
679.73	28341.55
679.87	28041.96
680.00	27896.85
680.14	27697.90
680.28	27845.35
680.42	27714.28
680.56	27475.55
680.70	27604.28
680.83	27845.35
680.97	27330.44
681.11	27360.86
681.25	27173.62
681.39	27143.19
681.52	26890.41
681.66	27225.11
681.80	26684.45
681.94	26759.34
682.07	26637.64
682.21	26654.02
682.35	26473.80
682.49	26443.37
682.62	26237.41
682.76	26092.29
682.90	26103.99
683.04	26270.17
683.17	25823.13
683.31	25867.60
683.45	25874.62
683.59	25504.82
683.72	25532.90
683.86	26043.14
684.00	25591.42
684.13	25015.65
684.27	25132.67
684.41	25200.55
684.55	25032.03
684.68	25364.39
684.82	24657.54
684.96	24807.34
685.09	24844.79
685.23	24432.85
685.37	24325.19
685.50	24561.58
685.64	24505.41
685.78	24095.82
685.91	24407.11
686.05	24168.37
686.19	23747.08
686.32	23828.99
686.46	23431.10
686.60	23580.90
686.73	23211.09
686.87	23204.07
687.01	23192.37
687.14	23002.78
687.28	22796.82
687.42	22904.48
687.55	22862.35
687.69	22881.08
687.82	22916.19
687.96	22995.76
688.10	22820.22
688.23	22401.27
688.37	22347.44
688.50	22628.30
688.64	22445.74
688.78	22391.91
688.91	21963.59
689.05	22008.06
689.18	22029.12
689.32	21642.93
689.46	22080.61
689.59	22073.59
689.73	22558.08
689.86	21500.16
690.00	21837.20
690.13	21855.92
690.27	21357.39
690.41	21387.82
690.54	21076.52
690.68	20924.39
690.81	21329.30
690.95	20849.49
691.08	20903.32
691.22	21043.76
691.35	21006.31
691.49	21003.97
691.62	20798.00
691.76	20613.10
691.89	20507.77
692.03	20379.04
692.16	20517.14
692.30	20332.23
692.43	19950.73
692.57	19906.26
692.70	20130.95
692.84	19941.36
692.97	19985.83
693.11	19917.96
693.24	19438.15
693.38	19730.72
693.51	19358.57
693.65	19974.13
693.78	19573.90
693.92	19286.01
694.05	19262.61
694.19	19339.85
694.32	19220.48
694.45	19143.24
694.59	19241.54
694.72	18965.36
694.86	18745.35
694.99	18693.86
695.13	18782.80
695.26	18918.55
695.39	18192.98
695.53	18958.34
695.66	18537.04
695.80	18253.84
695.93	18225.75
696.07	18511.30
696.20	18078.30
696.33	18267.88
696.47	18099.36
696.60	17722.54
696.73	17680.41
696.87	17642.96
697.00	17799.77
697.14	17493.16
697.27	17348.05
697.40	17432.31
697.54	17371.46
697.67	17050.80
697.80	17015.69
697.94	17078.89
698.07	17144.42
698.21	17074.21
698.34	17123.36
698.47	16943.14
698.61	16472.69
698.74	16622.48
698.87	16491.41
699.01	16327.58
699.14	16379.07
699.27	16079.48
699.40	16535.88
699.54	16280.77
699.67	16102.89
699.80	15917.98
699.94	16020.97
700.07	15845.43
700.20	15981.18
700.34	16198.85
700.47	15831.38
700.60	15786.91
700.73	15693.29
700.87	15618.39
701.00	15506.05
701.13	15382.00
701.26	15520.09
701.40	15428.81
701.53	15274.34
701.66	15126.88
701.79	15119.86
701.93	15150.29
702.06	15145.61
702.19	15002.83
702.32	14743.03
702.46	14850.70
702.59	15019.22
702.72	14803.89
702.85	14757.08
702.99	14640.05
703.12	14466.85
703.25	14424.72
703.38	14469.19
703.51	14518.34
703.65	14391.95
703.78	14288.97
703.91	13961.30
704.04	13867.67
704.17	13909.80
704.31	13825.54
704.44	13891.08
704.57	13884.06
704.70	13715.54
704.83	13551.70
704.96	13694.47
705.10	13458.08
705.23	13474.46
>>>>>End Processed Spectral Data<<<<<
