SpectraSuite Data File
++++++++++++++++++++++++++++++++++++
Date: Fri Oct 25 11:34:21 EDT 2013
User: price-jones
Dark Spectrum Present: No
Reference Spectrum Present: No
Number of Sampled Component Spectra: 1
Spectrometers: USB2+H05261
Integration Time (usec): 100000 (USB2+H05261)
Spectra Averaged: 1 (USB2+H05261)
Boxcar Smoothing: 0 (USB2+H05261)
Correct for Electrical Dark: No (USB2+H05261)
Strobe/Lamp Enabled: No (USB2+H05261)
Correct for Detector Non-linearity: No (USB2+H05261)
Correct for Stray Light: No (USB2+H05261)
Number of Pixels in Processed Spectrum: 2048
>>>>>Begin Processed Spectral Data<<<<<
365.73	304.27
365.92	304.27
366.12	304.27
366.32	166.18
366.52	145.11
366.72	138.09
366.91	156.82
367.11	196.60
367.31	152.13
367.51	217.67
367.70	224.69
367.90	154.48
368.10	180.22
368.30	145.11
368.49	180.22
368.69	245.76
368.89	196.60
369.09	166.18
369.28	189.58
369.48	180.22
369.68	245.76
369.87	299.59
370.07	264.48
370.27	257.46
370.47	344.06
370.66	505.56
370.86	507.90
371.06	470.45
371.25	559.39
371.45	528.96
371.65	585.13
371.84	566.41
372.04	564.07
372.24	585.13
372.44	580.45
372.63	573.43
372.83	585.13
373.03	613.22
373.22	610.88
373.42	559.39
373.62	690.46
373.81	606.20
374.01	641.31
374.21	631.94
374.40	697.48
374.60	657.69
374.79	730.25
374.99	704.50
375.19	636.63
375.38	634.29
375.58	636.63
375.78	641.31
375.97	660.03
376.17	674.07
376.37	697.48
376.56	573.43
376.76	650.67
376.95	641.31
377.15	739.61
377.35	734.93
377.54	664.71
377.74	643.65
377.93	615.56
378.13	650.67
378.33	699.82
378.52	683.44
378.72	641.31
378.91	709.18
379.11	571.09
379.31	638.97
379.50	678.76
379.70	770.04
379.89	713.86
380.09	767.70
380.28	741.95
380.48	788.76
380.68	669.39
380.87	781.74
381.07	727.91
381.26	681.10
381.46	786.42
381.65	788.76
381.85	784.08
382.04	758.33
382.24	758.33
382.43	755.99
382.63	713.86
382.83	746.63
383.02	851.96
383.22	713.86
383.41	763.01
383.61	730.25
383.80	737.27
384.00	741.95
384.19	784.08
384.39	772.38
384.58	809.83
384.78	746.63
384.97	842.59
385.17	823.87
385.36	821.53
385.56	828.55
385.75	786.42
385.95	847.27
386.14	877.70
386.34	898.77
386.53	805.14
386.72	861.32
386.92	866.00
387.11	854.30
387.31	791.10
387.50	936.21
387.70	814.51
387.89	814.51
388.09	847.27
388.28	800.46
388.48	873.02
388.67	933.87
388.86	828.55
389.06	926.85
389.25	1004.09
389.45	1013.45
389.64	840.25
389.84	896.43
390.03	873.02
390.22	950.26
390.42	976.00
390.61	947.92
390.81	945.58
391.00	945.58
391.19	926.85
391.39	940.90
391.58	997.07
391.78	954.94
391.97	1088.35
392.16	919.83
392.36	1095.37
392.55	1046.22
392.75	1015.79
392.94	961.96
393.13	1032.18
393.33	1093.03
393.52	1006.43
393.71	1102.39
393.91	992.39
394.10	1090.69
394.29	1083.67
394.49	1128.14
394.68	1088.35
394.88	1060.26
395.07	1053.24
395.26	1088.35
395.46	1118.78
395.65	1111.75
395.84	1074.31
396.04	1184.31
396.23	1172.61
396.42	1179.63
396.62	1083.67
396.81	1151.54
397.00	1167.93
397.19	1191.33
397.39	1167.93
397.58	1214.74
397.77	1132.82
397.97	1130.48
398.16	1203.04
398.35	1256.87
398.55	1287.29
398.74	1184.31
398.93	1212.40
399.12	1392.62
399.32	1282.61
399.51	1247.51
399.70	1359.85
399.90	1254.53
400.09	1238.14
400.28	1362.19
400.47	1242.82
400.67	1348.15
400.86	1437.09
401.05	1317.72
401.24	1275.59
401.44	1460.49
401.63	1399.64
401.82	1425.39
402.01	1359.85
402.21	1465.18
402.40	1434.75
402.59	1413.68
402.78	1432.41
402.97	1500.28
403.17	1519.01
403.36	1460.49
403.55	1500.28
403.74	1533.05
403.93	1490.92
404.13	1563.48
404.32	1631.35
404.51	1533.05
404.70	1610.29
404.89	1528.37
405.09	1746.04
405.28	1582.20
405.47	1575.18
405.66	1563.48
405.85	1638.38
406.05	1626.67
406.24	1598.59
406.43	1689.87
406.62	1877.11
406.81	1708.59
407.00	1830.30
407.20	1741.36
407.39	1732.00
407.58	1820.94
407.77	1872.43
407.96	1785.83
408.15	1823.28
408.34	1884.13
408.54	1944.99
408.73	1881.79
408.92	1923.92
409.11	1853.70
409.30	1989.46
409.49	1863.07
409.68	1942.64
409.87	1844.34
410.07	2024.56
410.26	2024.56
410.45	1968.39
410.64	2078.40
410.83	2010.52
411.02	2160.31
411.21	2120.53
411.40	2200.10
411.59	2197.76
411.78	2181.38
411.98	2043.29
412.17	2193.08
412.36	2214.15
412.55	2176.70
412.74	2277.34
412.93	2328.83
413.12	2270.32
413.31	2408.41
413.50	2237.55
413.69	2410.75
413.88	2415.43
414.07	2403.73
414.26	2422.45
414.45	2408.41
414.64	2326.49
414.83	2459.90
415.02	2518.42
415.22	2520.76
415.41	2537.14
415.60	2523.10
415.79	2614.38
415.98	2719.70
416.17	2640.12
416.36	2537.14
416.55	2607.36
416.74	2715.02
416.93	2637.78
417.12	2766.51
417.31	2722.04
417.50	2806.30
417.69	2930.35
417.88	2944.39
418.07	2726.72
418.26	2881.20
418.45	2836.73
418.64	2963.12
418.83	2904.60
419.02	2930.35
419.21	2902.26
419.39	2995.89
419.58	2923.33
419.77	2899.92
419.96	3042.70
420.15	3136.32
420.34	3150.36
420.53	3073.12
420.72	3150.36
420.91	3241.64
421.10	3084.83
421.29	3169.09
421.48	3148.02
421.67	3234.62
421.86	3236.96
422.05	3358.67
422.24	3229.94
422.43	3056.74
422.61	3258.03
422.80	3323.56
422.99	3288.45
423.18	3201.85
423.37	3239.30
423.56	3337.60
423.75	3201.85
423.94	3272.07
424.13	3042.70
424.32	3236.96
424.50	3248.66
424.69	3452.29
424.88	3332.92
425.07	3286.11
425.26	3293.13
425.45	3358.67
425.64	3358.67
425.83	3288.45
426.01	3293.13
426.20	3428.88
426.39	3346.97
426.58	3468.67
426.77	3442.93
426.96	3524.85
427.15	3314.20
427.33	3396.12
427.52	3393.78
427.71	3552.93
427.90	3393.78
428.09	3557.61
428.28	3494.42
428.46	3468.67
428.65	3559.95
428.84	3674.64
429.03	3702.73
429.22	3592.72
429.40	3574.00
429.59	3566.98
429.78	3419.52
429.97	3492.08
430.16	3606.77
430.34	3648.90
430.53	3709.75
430.72	3658.26
430.91	3822.09
431.10	3770.60
431.28	3864.22
431.47	3950.82
431.66	3770.60
431.85	3805.71
432.03	3847.84
432.22	3868.91
432.41	3847.84
432.60	3896.99
432.79	3992.95
432.97	3988.27
433.16	4023.38
433.35	3882.95
433.54	3988.27
433.72	4119.34
433.91	3971.89
434.10	4182.54
434.28	4025.72
434.47	4093.60
434.66	4238.71
434.85	4196.58
435.03	4142.75
435.22	3976.57
435.41	4210.62
435.59	4152.11
435.78	4301.90
435.97	4264.46
436.16	4238.71
436.34	4201.26
436.53	4362.76
436.72	4306.59
436.90	4147.43
437.09	4479.79
437.28	4306.59
437.46	4390.84
437.65	4519.57
437.84	4531.28
438.02	4493.83
438.21	4461.06
438.40	4311.27
438.58	4610.86
438.77	4585.11
438.96	4528.94
439.14	4685.75
439.33	4650.64
439.52	4634.26
439.70	4575.75
439.89	4870.65
440.08	4877.68
440.26	4882.36
440.45	4844.91
440.63	4851.93
440.82	5015.77
441.01	4779.37
441.19	4926.83
441.38	5048.54
441.57	5111.73
441.75	5104.71
441.94	5348.12
442.12	5369.19
442.31	5331.74
442.50	5259.18
442.68	5242.80
442.87	5256.84
443.05	5490.90
443.24	5355.15
443.43	5231.10
443.61	5270.89
443.80	5504.94
443.98	5298.97
444.17	5184.29
444.35	5416.00
444.54	5387.91
444.73	5493.24
444.91	5462.81
445.10	5518.98
445.28	5533.03
445.47	5434.72
445.65	5427.70
445.84	5668.78
446.02	5556.43
446.21	5643.03
446.39	5425.36
446.58	5579.84
446.77	5558.77
446.95	5533.03
447.14	5605.58
447.32	5603.24
447.51	5563.45
447.69	5526.00
447.88	5516.64
448.06	5624.31
448.25	5734.31
448.43	5710.91
448.62	5619.63
448.80	5757.72
448.99	5584.52
449.17	5760.06
449.36	5544.73
449.54	5535.37
449.73	5769.42
449.91	5863.04
450.10	5743.67
450.28	5874.74
450.46	5926.24
450.65	5870.06
450.83	5872.40
451.02	5994.11
451.20	5989.43
451.39	5951.98
451.57	5895.81
451.76	6092.41
451.94	5832.62
452.13	6193.06
452.31	5902.83
452.49	6043.26
452.68	6085.39
452.86	6169.65
453.05	5970.71
453.23	6305.40
453.42	6160.29
453.60	6069.01
453.78	6242.21
453.97	6113.48
454.15	6143.91
454.34	6211.78
454.52	6277.32
454.70	6324.13
454.89	6333.49
455.07	6293.70
455.26	6504.35
455.44	6705.63
455.62	6384.98
455.81	6438.81
455.99	6541.80
456.17	6448.18
456.36	6576.91
456.54	6612.01
456.73	6621.38
456.91	6820.32
457.09	6766.49
457.28	6881.18
457.46	6672.87
457.64	6881.18
457.83	6731.38
458.01	6644.78
458.19	6895.22
458.38	6895.22
458.56	6932.67
458.74	6967.77
458.93	6892.88
459.11	7042.67
459.29	7185.44
459.48	6960.75
459.66	6916.28
459.84	6963.09
460.03	7218.21
460.21	7045.01
460.39	7037.99
460.57	6977.14
460.76	7288.43
460.94	7323.54
461.12	7314.17
461.31	7143.32
461.49	7218.21
461.67	7281.41
461.85	7377.37
462.04	7180.76
462.22	7627.81
462.40	7578.65
462.59	7487.37
462.77	7506.10
462.95	7515.46
463.13	7440.56
463.32	7721.43
463.50	7529.50
463.68	7667.60
463.86	7506.10
464.05	7433.54
464.23	7709.72
464.41	7639.51
464.59	7400.77
464.78	8011.65
464.96	7798.66
465.14	7707.38
465.32	7770.58
465.50	7758.88
465.69	7978.89
465.87	7810.37
466.05	7847.82
466.23	7953.14
466.41	7927.39
466.60	7920.37
466.78	7786.96
466.96	7829.09
467.14	7831.43
467.32	8102.93
467.51	8049.10
467.69	7903.99
467.87	8042.08
468.05	8177.83
468.23	8112.30
468.41	8114.64
468.60	8133.36
468.78	8142.72
468.96	8283.16
469.14	8231.66
469.32	8217.62
469.50	8124.00
469.69	8271.45
469.87	8386.14
470.05	8320.60
470.23	8547.64
470.41	8409.54
470.59	8507.85
470.77	8528.91
470.95	8528.91
471.14	8685.73
471.32	8468.06
471.50	8777.01
471.68	8479.76
471.86	8791.05
472.04	8779.35
472.22	8997.02
472.40	8828.50
472.58	8809.78
472.77	8912.76
472.95	9039.15
473.13	9233.41
473.31	8992.34
473.49	9083.62
473.67	9048.51
473.85	9118.73
474.03	9408.95
474.21	9418.32
474.39	9469.81
474.57	9291.93
474.75	9542.36
474.93	9661.73
475.12	9666.41
475.30	9420.66
475.48	9568.11
475.66	9795.14
475.84	9795.14
476.02	9668.75
476.20	9881.74
476.38	10066.64
476.56	10195.37
476.74	10017.49
476.92	10253.89
477.10	10216.44
477.28	10303.04
477.46	10366.23
477.64	10595.61
477.82	10623.69
478.00	10817.96
478.18	10792.21
478.36	10768.80
478.54	10981.79
478.72	11042.65
478.90	10745.40
479.08	11159.67
479.26	11318.83
479.44	11239.25
479.62	11328.19
479.80	11304.79
479.98	11655.87
480.16	11906.31
480.34	11517.78
480.52	11808.00
480.70	11737.79
480.88	11705.02
481.06	11962.48
481.24	11906.31
481.41	12224.62
481.59	12292.49
481.77	12241.00
481.95	12327.60
482.13	12278.45
482.31	12540.59
482.49	13046.15
482.67	12809.75
482.85	12973.59
483.03	13174.88
483.21	13165.51
483.39	13369.14
483.57	13474.46
483.74	13408.93
483.92	13577.45
484.10	13352.76
484.28	13790.44
484.46	13928.53
484.64	14183.65
484.82	13998.74
485.00	14148.54
485.18	14303.01
485.35	14506.64
485.53	14539.41
485.71	14651.75
485.89	14855.38
486.07	14623.67
486.25	14623.67
486.43	14881.13
486.61	14904.53
486.78	15337.53
486.96	15260.29
487.14	15412.43
487.32	15548.18
487.50	15819.68
487.68	15967.13
487.85	15740.10
488.03	15882.88
488.21	16397.79
488.39	16238.64
488.57	16353.32
488.75	16428.22
488.92	16781.64
489.10	16772.28
489.28	16758.24
489.46	17139.74
489.64	17214.64
489.81	17570.40
489.99	17415.93
490.17	17570.40
490.35	17867.65
490.53	17734.24
490.70	18087.66
490.88	17785.73
491.06	18345.12
491.24	18239.79
491.41	18225.75
491.59	18452.78
491.77	18307.67
491.95	18403.63
492.13	18785.14
492.30	19007.49
492.48	18883.44
492.66	19019.19
492.84	19005.15
493.01	19140.90
493.19	19597.31
493.37	19548.15
493.54	19742.42
493.72	19953.07
493.90	19833.70
494.08	19826.68
494.25	20011.58
494.43	20271.38
494.61	20325.21
494.79	20748.85
494.96	20343.94
495.14	20561.61
495.32	20510.11
495.49	20802.68
495.67	21018.01
495.85	21099.93
496.02	21214.62
496.20	21525.91
496.38	21516.54
496.55	21275.47
496.73	21900.39
496.91	21481.44
497.09	21940.18
497.26	22218.71
497.44	21977.63
497.62	22047.85
497.79	22595.53
497.97	22534.68
498.14	22548.72
498.32	22679.79
498.50	22658.73
498.67	22787.46
498.85	22834.27
499.03	23044.91
499.20	23065.98
499.38	23122.15
499.56	23421.74
499.73	23449.83
499.91	23793.89
500.08	23625.37
500.26	23726.01
500.44	23761.12
500.61	24013.90
500.79	23524.72
500.97	24285.40
501.14	24238.59
501.32	24306.46
501.49	24383.70
501.67	24357.96
501.84	24355.61
502.02	24725.42
502.20	24821.38
502.37	24687.97
502.55	24760.53
502.72	24905.64
502.90	25116.29
503.07	24690.31
503.25	24959.47
503.43	24812.02
503.60	25350.34
503.78	25333.96
503.95	25219.27
504.13	25432.26
504.30	25696.74
504.48	25537.59
504.65	25867.60
504.83	25724.83
505.01	26092.29
505.18	26115.70
505.36	26132.08
505.53	26225.70
505.71	26499.55
505.88	26600.19
506.06	26089.95
506.23	26586.15
506.41	26232.72
506.58	26635.30
506.76	26616.57
506.93	27248.52
507.11	26913.82
507.28	27051.91
507.46	27042.55
507.63	27030.85
507.81	27442.78
507.98	27110.43
508.16	27276.60
508.33	27590.24
508.50	27615.98
508.68	27564.49
508.85	27894.50
509.03	27878.12
509.20	27999.83
509.38	28184.73
509.55	28226.86
509.73	28367.29
509.90	28439.85
510.08	27868.76
510.25	28545.17
510.42	28528.79
510.60	28594.32
510.77	28940.72
510.95	29029.66
511.12	28767.52
511.30	29027.32
511.47	29053.07
511.64	28856.46
511.82	28709.01
511.99	28535.81
512.17	29113.92
512.34	28893.91
512.51	29621.82
512.69	29703.74
512.86	29986.94
513.04	29780.98
513.21	29764.59
513.38	29848.85
513.56	29986.94
513.73	29766.93
513.90	30075.88
514.08	29879.28
514.25	29979.92
514.43	30534.63
514.60	30132.06
514.77	30375.47
514.95	30485.48
515.12	30300.58
515.29	30572.08
515.47	30838.90
515.64	30689.10
515.81	30742.94
515.99	30890.39
516.16	30731.23
516.33	31269.56
516.51	31077.63
516.68	30759.32
516.85	31152.53
517.03	31405.31
517.20	31323.39
517.37	31622.98
517.54	31721.28
517.72	31632.34
517.89	31655.75
518.06	31704.90
518.24	31477.86
518.41	31833.63
518.58	31772.77
518.75	31791.50
518.93	31990.44
519.10	31679.15
519.27	32273.65
519.45	32119.17
519.62	32615.37
519.79	32617.71
519.96	31927.25
520.14	32304.07
520.31	32369.61
520.48	32620.05
520.65	32982.83
520.83	33170.07
521.00	33097.52
521.17	33048.36
521.34	33022.62
521.52	33289.44
521.69	33273.06
521.86	33537.54
522.03	33291.78
522.20	33546.90
522.38	33684.99
522.55	33535.20
522.72	33706.05
522.89	33631.16
523.07	34099.26
523.24	33797.34
523.41	34015.01
523.58	33802.02
523.75	33886.28
523.92	33977.56
524.10	34148.42
524.27	34471.41
524.44	34382.47
524.61	34473.75
524.78	34176.50
524.96	34888.03
525.13	34813.13
525.30	34618.86
525.47	34616.52
525.64	34824.83
525.81	34934.84
525.98	35098.67
526.16	34754.61
526.33	35173.57
526.50	35594.87
526.67	34808.45
526.84	34824.83
527.01	35103.35
527.18	35257.83
527.36	35391.24
527.53	35438.05
527.70	35744.66
527.87	35648.70
528.04	35452.09
528.21	35384.22
528.38	35756.36
528.55	35978.72
528.72	35538.69
528.89	35608.91
529.07	36292.35
529.24	35634.66
529.41	36126.17
529.58	35835.94
529.75	36430.44
529.92	35871.05
530.09	35758.70
530.26	36215.11
530.43	36479.59
530.60	35817.22
530.77	36170.64
530.94	36240.86
531.11	36411.71
531.28	36666.83
531.46	36292.35
531.63	36627.04
531.80	36313.41
531.97	36802.58
532.14	36875.14
532.31	37031.96
532.48	37074.09
532.65	37280.05
532.82	36552.15
532.99	37188.77
533.16	36982.80
533.33	36992.17
533.50	37448.57
533.67	37127.92
533.84	37460.27
534.01	37153.66
534.18	36992.17
534.35	37715.39
534.52	37371.33
534.69	38349.68
534.86	38047.75
535.03	37621.77
535.20	37919.02
535.37	38286.48
535.54	38019.66
535.71	38054.77
535.88	37900.29
536.05	38089.88
536.22	38656.29
536.38	38127.33
536.55	38183.50
536.72	38309.89
536.89	38099.24
537.06	38607.14
537.23	38710.12
537.40	38279.46
537.57	38036.05
537.74	38651.61
537.91	38614.16
538.08	38719.48
538.25	38597.77
538.42	38665.65
538.59	38937.15
538.75	38557.99
538.92	39103.33
539.09	38862.26
539.26	38775.66
539.43	38916.09
539.60	39358.45
539.77	39292.91
539.94	39082.27
540.11	39285.89
540.28	39012.05
540.44	39264.83
540.61	38930.13
540.78	39323.34
540.95	39379.51
541.12	38873.96
541.29	39393.56
541.46	39220.36
541.62	39552.71
541.79	39629.95
541.96	39042.48
542.13	39173.55
542.30	39707.19
542.47	39555.05
542.63	40013.80
542.80	39903.79
542.97	40285.30
543.14	40549.78
543.31	40137.85
543.48	40271.26
543.64	40081.67
543.81	40926.61
543.98	40524.04
544.15	40793.20
544.32	40278.28
544.48	40903.20
544.65	40800.22
544.82	40383.60
544.99	40210.40
545.16	40947.67
545.32	40657.45
545.49	40755.75
545.66	41027.25
545.83	40875.12
546.00	41111.51
546.16	41027.25
546.33	40744.05
546.50	41097.47
546.67	41104.49
546.83	40414.03
547.00	41284.71
547.17	40669.15
547.34	41221.52
547.50	41160.66
547.67	41682.60
547.84	41317.48
548.00	41551.53
548.17	41462.59
548.34	41666.22
548.51	41951.76
548.67	41687.28
548.84	41708.35
549.01	41525.78
549.18	41661.54
549.34	41645.15
549.51	42007.94
549.68	41663.88
549.84	41837.08
550.01	41816.01
550.18	41846.44
550.34	41963.46
550.51	42527.53
550.68	42249.01
550.84	41818.35
551.01	42045.38
551.18	42129.64
551.34	41965.81
551.51	42108.58
551.68	42131.98
551.84	42464.34
552.01	42433.91
552.18	42581.37
552.34	42337.95
552.51	42892.66
552.68	42162.41
552.84	42162.41
553.01	42424.55
553.18	42010.28
553.34	42476.04
553.51	42192.84
553.67	43023.73
553.84	42777.97
554.01	42983.94
554.17	42768.61
554.34	42981.60
554.51	43398.21
554.67	43281.19
554.84	42997.98
555.00	42974.58
555.17	43056.50
555.33	43012.02
555.50	43189.91
555.67	42836.48
555.83	42476.04
556.00	43189.91
556.16	43269.48
556.33	43351.40
556.50	42862.23
556.66	43271.82
556.83	42944.15
556.99	43768.02
557.16	43658.01
557.32	43325.66
557.49	43508.22
557.65	43157.14
557.82	42897.34
557.98	43171.18
558.15	43459.07
558.32	43445.02
558.48	43646.31
558.65	43515.24
558.81	43765.68
558.98	43594.82
559.14	43573.75
559.31	43679.08
559.47	43182.88
559.64	43571.41
559.80	43442.68
559.97	43578.43
560.13	43482.47
560.30	44037.18
560.46	43707.16
560.63	43845.26
560.79	44294.64
560.96	44147.18
561.12	43833.55
561.29	43803.13
561.45	43957.60
561.61	43461.41
561.78	44226.76
561.94	43901.43
562.11	43672.06
562.27	43833.55
562.44	44083.99
562.60	44341.45
562.77	44301.66
562.93	43849.94
563.10	44680.83
563.26	44149.53
563.42	44650.40
563.59	44432.73
563.75	43800.79
563.92	44250.17
564.08	44547.42
564.24	44030.16
564.41	44399.96
564.57	44203.36
564.74	44437.41
564.90	44626.99
565.07	44371.88
565.23	44528.69
565.39	44446.77
565.56	44545.08
565.72	44844.66
565.88	44608.27
566.05	44533.37
566.21	44727.64
566.38	44205.70
566.54	44638.70
566.70	44722.96
566.87	44706.57
567.03	44676.15
567.19	44905.52
567.36	44378.90
567.52	44151.87
567.68	44893.82
567.85	44758.06
568.01	44711.25
568.17	44617.63
568.34	44229.10
568.50	45130.21
568.66	44634.02
568.83	44987.44
568.99	44744.02
569.15	44968.71
569.32	45041.27
569.48	44804.88
569.64	45092.76
569.81	44975.73
569.97	45038.93
570.13	45081.06
570.30	44446.77
570.46	45315.11
570.62	45345.54
570.78	44966.37
570.95	44987.44
571.11	45420.44
571.27	45244.90
571.43	44680.83
571.60	45434.48
571.76	44746.36
571.92	44949.99
572.09	44788.49
572.25	44793.17
572.41	45170.00
572.57	45041.27
572.74	45350.22
572.90	45256.60
573.06	44966.37
573.22	45357.24
573.38	45404.05
573.55	45184.04
573.71	45867.48
573.87	45336.18
574.03	45230.85
574.20	45151.27
574.36	45560.87
574.52	45368.94
574.68	45270.64
574.84	45350.22
575.01	45731.73
575.17	45394.69
575.33	45647.47
575.49	45001.48
575.65	45420.44
575.82	45425.12
575.98	45289.37
576.14	45764.49
576.30	45378.31
576.46	45422.78
576.62	45282.34
576.79	45436.82
576.95	45048.29
577.11	45303.41
577.27	45551.51
577.43	45265.96
577.59	45034.25
577.75	45013.18
577.92	45013.18
578.08	44823.60
578.24	45806.62
578.40	45736.41
578.56	45614.70
578.72	45050.63
578.88	45731.73
579.04	45270.64
579.21	45507.04
579.37	45614.70
579.53	45998.55
579.69	45301.07
579.85	45883.86
580.01	45729.39
580.17	45485.97
580.33	45689.60
580.49	45523.42
580.65	45275.32
580.82	45832.37
580.98	45603.00
581.14	45408.73
581.30	45315.11
581.46	45418.10
581.62	45993.87
581.78	45434.48
581.94	45827.69
582.10	45762.15
582.26	45507.04
582.42	45514.06
582.58	45654.49
582.74	45762.15
582.90	45460.23
583.06	46155.36
583.22	45694.28
583.38	45464.91
583.54	45797.26
583.70	45715.34
583.86	45860.46
584.02	45460.23
584.18	45813.65
584.34	45572.57
584.50	45883.86
584.66	45780.88
584.82	45787.90
584.98	45542.14
585.14	45907.27
585.30	45638.11
585.46	46227.92
585.62	45895.56
585.78	45890.88
585.94	45191.06
586.10	45979.82
586.26	45624.06
586.42	45853.44
586.58	46085.15
586.74	45567.89
586.90	45497.67
587.06	45441.50
587.22	45876.84
587.38	45488.31
587.54	46134.30
587.70	46122.60
587.86	45982.16
588.02	45762.15
588.18	45703.64
588.34	45780.88
588.49	46239.62
588.65	45727.05
588.81	45799.60
588.97	46073.45
589.13	45851.09
589.29	45886.20
589.45	46351.97
589.61	45911.95
589.77	46178.77
589.93	46117.92
590.08	45909.61
590.24	46445.59
590.40	46382.40
590.56	46181.11
590.72	46092.17
590.88	46192.81
591.04	45874.50
591.20	46197.49
591.35	46316.86
591.51	46354.31
591.67	46134.30
591.83	46291.12
591.99	46146.00
592.15	46211.54
592.31	46213.88
592.46	46064.08
592.62	45879.18
592.78	46302.82
592.94	46731.14
593.10	46834.12
593.26	46454.95
593.41	46309.84
593.57	46263.03
593.73	46607.09
593.89	46632.83
594.05	46756.88
594.20	46417.50
594.36	46564.96
594.52	46555.60
594.68	46408.14
594.84	46143.66
594.99	46862.21
595.15	46162.39
595.31	46878.59
595.47	46033.66
595.62	46642.20
595.78	46670.28
595.94	46494.74
596.10	46284.09
596.25	46181.11
596.41	46656.24
596.57	46787.31
596.73	46366.01
596.88	46806.03
597.04	46616.45
597.20	46733.48
597.36	46569.64
597.51	46728.80
597.67	46192.81
597.83	46513.47
597.99	46581.34
598.14	46424.53
598.30	45989.19
598.46	46579.00
598.61	46532.19
598.77	46808.37
598.93	46576.66
599.09	47110.30
599.24	46986.25
599.40	46637.51
599.56	46569.64
599.71	46740.50
599.87	47065.83
600.03	47267.12
600.18	46366.01
600.34	46724.11
600.50	46515.81
600.65	46546.23
600.81	46946.47
600.97	46738.16
601.12	46581.34
601.28	46714.75
601.44	46761.56
601.59	46822.42
601.75	46508.79
601.91	46534.53
602.06	46461.97
602.22	46714.75
602.37	46686.67
602.53	46576.66
602.69	46635.17
602.84	46487.72
603.00	46534.53
603.16	46894.97
603.31	46429.21
603.47	46836.46
603.62	46471.34
603.78	46976.89
603.94	47070.51
604.09	46710.07
604.25	46380.06
604.40	46768.58
604.56	46745.18
604.71	47114.98
604.87	46518.15
605.03	46403.46
605.18	46541.55
605.34	46740.50
605.49	47030.72
605.65	46548.57
605.80	46253.67
605.96	46335.59
606.12	46536.87
606.27	46696.03
606.43	46426.87
606.58	46604.75
606.74	46766.24
606.89	46663.26
607.05	46906.68
607.20	46906.68
607.36	46443.25
607.51	46403.46
607.67	46227.92
607.82	46319.20
607.98	46721.77
608.13	46401.12
608.29	46380.06
608.44	46487.72
608.60	45867.48
608.75	46206.86
608.91	46188.13
609.06	46138.98
609.22	46925.40
609.37	46047.70
609.53	46564.96
609.68	46263.03
609.84	46052.38
609.99	46483.04
610.15	46433.89
610.30	46555.60
610.46	46178.77
610.61	46319.20
610.76	46270.05
610.92	45715.34
611.07	46288.77
611.23	45745.77
611.38	46351.97
611.54	46291.12
611.69	46220.90
611.84	46560.28
612.00	46089.83
612.15	46258.35
612.31	46061.74
612.46	46115.58
612.62	45911.95
612.77	46197.49
612.92	46380.06
613.08	46028.98
613.23	45970.46
613.39	46129.62
613.54	45640.45
613.69	46251.33
613.85	45928.33
614.00	46054.72
614.15	46181.11
614.31	45661.51
614.46	45471.93
614.62	45530.44
614.77	46010.25
614.92	45928.33
615.08	46036.00
615.23	45935.35
615.38	46211.54
615.54	45593.64
615.69	46014.93
615.84	46199.83
616.00	46312.18
616.15	45741.09
616.30	45949.40
616.46	45879.18
616.61	45593.64
616.76	45991.53
616.92	45977.48
617.07	45567.89
617.22	45570.23
617.37	45436.82
617.53	45338.52
617.68	45284.68
617.83	46031.32
617.99	45811.31
618.14	45687.26
618.29	45977.48
618.45	45076.38
618.60	45177.02
618.75	45315.11
618.90	45366.60
619.06	45050.63
619.21	45397.03
619.36	45734.07
619.51	44987.44
619.67	45102.12
619.82	45223.83
619.97	45462.57
620.12	45502.35
620.28	44924.24
620.43	45387.67
620.58	45148.93
620.73	45303.41
620.89	45504.70
621.04	45422.78
621.19	45301.07
621.34	44900.84
621.49	45359.58
621.65	45109.14
621.80	45436.82
621.95	45055.31
622.10	45179.36
622.25	44903.18
622.41	44933.60
622.56	44804.88
622.71	44861.05
622.86	44994.46
623.01	44980.42
623.16	44786.15
623.32	44921.90
623.47	44947.65
623.62	44865.73
623.77	44701.89
623.92	44917.22
624.07	44662.10
624.23	44912.54
624.38	44830.62
624.53	44907.86
624.68	44765.09
624.83	44612.95
624.98	44968.71
625.13	44142.50
625.29	44428.05
625.44	44535.71
625.59	44531.03
625.74	44449.11
625.89	44058.24
626.04	44088.67
626.19	44123.78
626.34	44196.34
626.49	43866.32
626.65	44229.10
626.80	44215.06
626.95	44301.66
627.10	43957.60
627.25	44264.21
627.40	44067.61
627.55	44416.35
627.70	43910.79
627.85	44868.07
628.00	44226.76
628.15	44346.13
628.30	43735.25
628.45	43225.01
628.60	43639.29
628.76	44278.25
628.91	43847.60
629.06	43817.17
629.21	43819.51
629.36	43725.89
629.51	43875.68
629.66	44055.90
629.81	43711.84
629.96	43728.23
630.11	44088.67
630.26	43335.02
630.41	43821.85
630.56	43849.94
630.71	44100.37
630.86	43346.72
631.01	43576.09
631.16	43461.41
631.31	43447.36
631.46	43281.19
631.61	43625.25
631.76	43894.41
631.91	43344.38
632.06	44065.27
632.21	43833.55
632.36	43665.03
632.51	42960.53
632.66	43391.19
632.81	43597.16
632.96	43388.85
633.10	43335.02
633.25	43262.46
633.40	43313.95
633.55	43791.42
633.70	43166.50
633.85	42967.55
634.00	43311.61
634.15	43105.65
634.30	43021.39
634.45	43157.14
634.60	43119.69
634.75	43185.22
634.90	43203.95
635.05	43323.32
635.19	43012.02
635.34	42983.94
635.49	43012.02
635.64	43192.25
635.79	42976.92
635.94	43161.82
636.09	43400.55
636.24	43529.28
636.39	43112.67
636.53	43049.47
636.68	42574.34
636.83	42354.33
636.98	42340.29
637.13	42660.94
637.28	42602.43
637.43	42637.54
637.57	42302.84
637.72	42110.92
637.87	42625.84
638.02	42572.00
638.17	42483.06
638.32	42412.85
638.46	42153.05
638.61	42197.52
638.76	42344.97
638.91	42326.25
639.06	42057.09
639.20	42625.84
639.35	42155.39
639.50	41909.63
639.65	42424.55
639.80	42422.21
639.94	42256.03
640.09	41937.72
640.24	42674.99
640.39	42014.96
640.54	41816.01
640.68	42295.82
640.83	42630.52
640.98	41752.82
641.13	41834.74
641.27	42052.41
641.42	42120.28
641.57	41823.03
641.72	42047.72
641.86	41647.49
642.01	41813.67
642.16	41888.57
642.31	41361.95
642.45	42019.64
642.60	41680.26
642.75	41790.27
642.90	41837.08
643.04	41273.01
643.19	41401.74
643.34	41298.75
643.48	41666.22
643.63	41495.36
643.78	41570.25
643.93	41378.33
644.07	41673.24
644.22	41544.51
644.37	41366.63
644.51	41837.08
644.66	41633.45
644.81	41265.99
644.95	41427.48
645.10	41364.29
645.25	40912.56
645.39	41195.77
645.54	40921.93
645.69	40903.20
645.83	40832.99
645.98	40863.41
646.13	40933.63
646.27	41193.43
646.42	40538.08
646.57	40765.11
646.71	41385.35
646.86	40980.44
647.00	41633.45
647.15	41230.88
647.30	41212.15
647.44	40612.98
647.59	40985.12
647.74	40781.49
647.88	41439.18
648.03	41111.51
648.17	40968.74
648.32	40886.82
648.47	41331.52
648.61	40907.88
648.76	40648.08
648.90	40755.75
649.05	40453.82
649.20	40521.69
649.34	40381.26
649.49	40734.68
649.63	40989.80
649.78	40650.42
649.92	39988.05
650.07	40893.84
650.21	41228.54
650.36	41141.94
650.51	40673.83
650.65	40627.02
650.80	40816.60
650.94	40751.07
651.09	40322.75
651.23	40067.63
651.38	39945.92
651.52	40294.66
651.67	40655.11
651.81	40371.90
651.96	40692.55
652.10	40030.18
652.25	39985.71
652.39	39648.68
652.54	40453.82
652.68	40081.67
652.83	40404.67
652.97	40034.86
653.12	39971.67
653.26	39882.73
653.41	40465.52
653.55	39976.35
653.70	40245.51
653.84	39938.90
653.99	40215.08
654.13	39885.07
654.27	39622.93
654.42	39744.64
654.56	39716.55
654.71	40332.11
654.85	39824.22
655.00	39845.28
655.14	39896.77
655.29	40062.95
655.43	39934.22
655.57	39335.04
655.72	39651.02
655.86	39662.72
656.01	39402.92
656.15	39379.51
656.30	39400.58
656.44	39810.17
656.58	39634.63
656.73	39494.20
656.87	39367.81
657.01	39220.36
657.16	39489.52
657.30	39569.10
657.45	39313.98
657.59	39110.35
657.73	38969.92
657.88	38801.40
658.02	39548.03
658.16	39526.97
658.31	39267.17
658.45	39407.60
658.60	39194.61
658.74	39201.63
658.88	39002.69
659.03	38799.06
659.17	38611.82
659.31	38483.09
659.46	38801.40
659.60	38775.66
659.74	38766.29
659.89	38188.18
660.03	37741.14
660.17	38651.61
660.32	38295.85
660.46	38583.73
660.60	37872.21
660.74	38263.08
660.89	38747.57
661.03	38057.11
661.17	37954.13
661.32	37904.98
661.46	38398.83
661.60	38199.88
661.74	38068.81
661.89	37888.59
662.03	37933.06
662.17	37703.69
662.31	37696.67
662.46	37963.49
662.60	37811.35
662.74	37329.20
662.88	37275.37
663.03	37074.09
663.17	37319.84
663.31	37008.55
663.45	37523.47
663.60	38031.36
663.74	37764.54
663.88	37460.27
664.02	36992.17
664.17	37649.86
664.31	37076.43
664.45	37118.56
664.59	37158.34
664.73	36842.37
664.88	37179.41
665.02	36435.12
665.16	36383.63
665.30	36662.15
665.44	37048.34
665.59	36397.67
665.73	36495.97
665.87	36510.02
666.01	36488.95
666.15	36514.70
666.29	36605.98
666.44	36498.31
666.58	36402.35
666.72	36390.65
666.86	36301.71
667.00	36198.73
667.14	36051.27
667.28	35866.37
667.43	35852.33
667.57	36350.86
667.71	36074.68
667.85	36357.88
667.99	35910.84
668.13	35669.76
668.27	35339.75
668.41	35522.31
668.56	35386.56
668.70	35295.28
668.84	35161.87
668.98	34965.26
669.12	35075.27
669.26	35206.34
669.40	35063.57
669.54	34993.35
669.68	35140.80
669.82	35112.72
669.96	34675.04
670.10	34635.25
670.25	34897.39
670.39	34555.67
670.53	34714.83
670.67	34658.65
670.81	34621.20
670.95	34834.19
671.09	34319.28
671.23	34558.01
671.37	34576.73
671.51	34450.35
671.65	34223.31
671.79	34267.78
671.93	34316.93
672.07	34440.98
672.21	33844.15
672.35	33935.43
672.49	33937.77
672.63	34012.66
672.77	33900.32
672.91	33806.70
673.05	33921.38
673.19	33397.10
673.33	33722.44
673.47	33034.32
673.61	33120.92
673.75	33048.36
673.89	33046.02
674.03	32863.46
674.17	32809.63
674.31	32402.38
674.45	32683.24
674.59	32479.61
674.73	32891.55
674.87	32208.11
675.01	32004.49
675.15	31997.46
675.29	32158.96
675.43	32067.68
675.56	31866.39
675.70	31997.46
675.84	31885.12
675.98	30689.10
676.12	31812.56
676.26	31667.45
676.40	31466.16
676.54	31674.47
676.68	31218.07
676.82	30672.72
676.96	31466.16
677.10	31154.87
677.23	31267.22
677.37	31285.94
677.51	31199.34
677.65	31002.74
677.79	30646.97
677.93	30918.48
678.07	30801.45
678.21	30534.63
678.34	30080.56
678.48	30244.40
678.62	29876.94
678.76	30195.25
678.90	30223.34
679.04	30188.23
679.18	29860.55
679.31	29584.37
679.45	29584.37
679.59	29439.26
679.73	29591.39
679.87	29205.20
680.00	29256.70
680.14	28781.57
680.28	29486.07
680.42	29078.82
680.56	28790.93
680.70	28840.08
680.83	28493.68
680.97	28442.19
681.11	28797.95
681.25	28273.67
681.39	28409.42
681.52	27812.59
681.66	27831.31
681.80	27744.71
681.94	27407.67
682.07	27548.11
682.21	27489.59
682.35	27487.25
682.49	27480.23
682.62	27601.94
682.76	27819.61
682.90	27257.88
683.04	27613.64
683.17	27119.79
683.31	26960.63
683.45	27089.36
683.59	26546.36
683.72	26738.28
683.86	26859.99
684.00	26349.75
684.13	26185.91
684.27	26239.75
684.41	26178.89
684.55	26075.91
684.68	26132.08
684.82	25741.21
684.96	25652.27
685.09	25666.31
685.23	25970.58
685.37	25710.78
685.50	26003.35
685.64	25848.88
685.78	25359.70
685.91	25326.94
686.05	25020.33
686.19	24641.16
686.32	24879.89
686.46	24636.48
686.60	24673.93
686.73	24364.98
686.87	24709.04
687.01	24587.33
687.14	24687.97
687.28	24386.04
687.42	24369.66
687.55	24156.67
687.69	24027.94
687.82	23843.04
687.96	23868.78
688.10	23931.98
688.23	23885.17
688.37	23662.82
688.50	23969.43
688.64	23639.41
688.78	23566.85
688.91	23370.25
689.05	23370.25
689.18	23026.19
689.32	22925.55
689.46	22441.06
689.59	22934.91
689.73	22923.21
689.86	22937.25
690.00	22618.94
690.13	22462.12
690.27	22373.18
690.41	22815.54
690.54	22424.67
690.68	22120.40
690.81	22162.53
690.95	21642.93
691.08	21649.96
691.22	21624.21
691.35	21483.78
691.49	21933.16
691.62	21493.14
691.76	21125.68
691.89	21104.61
692.03	20767.57
692.16	20926.73
692.30	20994.61
692.43	20938.43
692.57	20599.05
692.70	21083.55
692.84	20861.19
692.97	20573.31
693.11	20489.05
693.24	20147.33
693.38	20175.42
693.51	20023.28
693.65	20107.54
693.78	19800.93
693.92	19936.68
694.05	20013.92
694.19	19704.97
694.32	19489.64
694.45	19826.68
694.59	19992.86
694.72	20023.28
694.86	19143.24
694.99	19192.39
695.13	19323.46
695.26	18803.86
695.39	19056.64
695.53	18752.37
695.66	18855.36
695.80	18899.83
695.93	18700.88
696.07	18450.44
696.20	18113.41
696.33	18178.94
696.47	18239.79
696.60	18380.23
696.73	18214.05
696.87	18298.31
697.00	18132.13
697.14	18073.62
697.27	17745.94
697.40	17699.13
697.54	17685.09
697.67	17556.36
697.80	17554.02
697.94	17462.74
698.07	17727.22
698.21	17373.80
698.34	17425.29
698.47	17123.36
698.61	16709.08
698.74	16915.05
698.87	16772.28
699.01	16395.45
699.14	16505.46
699.27	16573.33
699.40	16575.67
699.54	16411.84
699.67	16339.28
699.80	16662.27
699.94	16262.04
700.07	16318.22
700.20	16145.02
700.34	15985.86
700.47	15875.85
700.60	16264.38
700.73	15939.05
700.87	15800.96
701.00	15793.94
701.13	15660.52
701.26	15372.64
701.40	15665.21
701.53	15573.92
701.66	15346.89
701.79	15300.08
701.93	15246.25
702.06	14923.26
702.19	15140.93
702.32	14698.56
702.46	15021.56
702.59	14796.87
702.72	15005.17
702.85	14988.79
702.99	14789.85
703.12	14195.35
703.25	14298.33
703.38	14185.99
703.51	14441.11
703.65	14216.41
703.78	13832.57
703.91	13713.20
704.04	13984.70
704.17	14134.50
704.31	13916.83
704.44	13783.41
704.57	14104.07
704.70	13530.64
704.83	13547.02
704.96	13415.95
705.10	13469.78
705.23	13343.39
>>>>>End Processed Spectral Data<<<<<
