SpectraSuite Data File
++++++++++++++++++++++++++++++++++++
Date: Fri Oct 25 10:43:46 EDT 2013
User: price-jones
Dark Spectrum Present: No
Reference Spectrum Present: No
Number of Sampled Component Spectra: 1
Spectrometers: USB2+H05261
Integration Time (usec): 100000 (USB2+H05261)
Spectra Averaged: 1 (USB2+H05261)
Boxcar Smoothing: 0 (USB2+H05261)
Correct for Electrical Dark: No (USB2+H05261)
Strobe/Lamp Enabled: No (USB2+H05261)
Correct for Detector Non-linearity: No (USB2+H05261)
Correct for Stray Light: No (USB2+H05261)
Number of Pixels in Processed Spectrum: 2048
>>>>>Begin Processed Spectral Data<<<<<
365.73	152.13
365.92	152.13
366.12	152.13
366.32	70.22
366.52	23.41
366.72	60.85
366.91	4.68
367.11	0.00
367.31	70.22
367.51	53.83
367.70	0.00
367.90	16.38
368.10	23.41
368.30	39.79
368.49	18.72
368.69	70.22
368.89	58.51
369.09	84.26
369.28	53.83
369.48	37.45
369.68	79.58
369.87	98.30
370.07	37.45
370.27	161.50
370.47	131.07
370.66	379.17
370.86	418.96
371.06	526.62
371.25	498.53
371.45	372.15
371.65	463.43
371.84	437.68
372.04	435.34
372.24	470.45
372.44	374.49
372.63	512.58
372.83	468.11
373.03	442.36
373.22	566.41
373.42	472.79
373.62	543.00
373.81	589.82
374.01	451.72
374.21	543.00
374.40	407.25
374.60	610.88
374.79	578.11
374.99	575.77
375.19	582.79
375.38	622.58
375.58	622.58
375.78	566.41
375.97	573.43
376.17	643.65
376.37	538.32
376.56	599.18
376.76	627.26
376.95	627.26
377.15	617.90
377.35	653.01
377.54	641.31
377.74	671.73
377.93	653.01
378.13	631.94
378.33	662.37
378.52	599.18
378.72	636.63
378.91	711.52
379.11	669.39
379.31	664.71
379.50	636.63
379.70	760.67
379.89	753.65
380.09	554.71
380.28	603.86
380.48	690.46
380.68	706.84
380.87	725.57
381.07	592.16
381.26	739.61
381.46	650.67
381.65	704.50
381.85	690.46
382.04	676.41
382.24	662.37
382.43	706.84
382.63	709.18
382.83	774.72
383.02	760.67
383.22	847.27
383.41	704.50
383.61	669.39
383.80	741.95
384.00	739.61
384.19	760.67
384.39	788.76
384.58	751.31
384.78	741.95
384.97	781.74
385.17	835.57
385.36	889.40
385.56	798.12
385.75	805.14
385.95	889.40
386.14	830.89
386.34	816.85
386.53	856.64
386.72	748.97
386.92	812.17
387.11	880.04
387.31	870.68
387.50	884.72
387.70	833.23
387.89	863.66
388.09	798.12
388.28	812.17
388.48	819.19
388.67	922.17
388.86	889.40
389.06	933.87
389.25	994.73
389.45	957.28
389.64	938.55
389.84	1025.15
390.03	1006.43
390.22	1034.52
390.42	954.94
390.61	917.49
390.81	1069.62
391.00	1055.58
391.19	1022.81
391.39	1062.60
391.58	1048.56
391.78	1036.86
391.97	976.00
392.16	957.28
392.36	1015.79
392.55	1015.79
392.75	954.94
392.94	1022.81
393.13	961.96
393.33	980.68
393.52	1041.54
393.71	1043.88
393.91	980.68
394.10	1107.07
394.29	1144.52
394.49	1172.61
394.68	1252.19
394.88	1188.99
395.07	1266.23
395.26	1151.54
395.46	1130.48
395.65	1247.51
395.84	1273.25
396.04	1191.33
396.23	1174.95
396.42	1238.14
396.62	1247.51
396.81	1156.22
397.00	1163.25
397.19	1280.27
397.39	1275.59
397.58	1240.48
397.77	1348.15
397.97	1460.49
398.16	1369.21
398.35	1378.58
398.55	1409.00
398.74	1453.47
398.93	1439.43
399.12	1523.69
399.32	1533.05
399.51	1488.58
399.70	1523.69
399.90	1504.96
400.09	1509.65
400.28	1647.74
400.47	1638.38
400.67	1659.44
400.86	1589.22
401.05	1603.27
401.24	1575.18
401.44	1717.95
401.63	1746.04
401.82	1661.78
402.01	1659.44
402.21	1717.95
402.40	1724.97
402.59	1671.14
402.78	1727.32
402.97	1666.46
403.17	1771.79
403.36	1790.51
403.55	1842.00
403.74	1879.45
403.93	1809.23
404.13	1720.29
404.32	1739.02
404.51	1743.70
404.70	1788.17
404.89	1933.28
405.09	1914.56
405.28	1905.20
405.47	1849.02
405.66	1881.79
405.85	1923.92
406.05	2008.18
406.24	2073.71
406.43	1961.37
406.62	2022.22
406.81	2052.65
407.00	1928.60
407.20	1996.48
407.39	2118.18
407.58	2146.27
407.77	2059.67
407.96	2122.87
408.15	2160.31
408.34	2197.76
408.54	2270.32
408.73	2305.43
408.92	2239.89
409.11	2300.75
409.30	2204.78
409.49	2155.63
409.68	2270.32
409.87	2228.19
410.07	2188.40
410.26	2359.26
410.45	2408.41
410.64	2333.51
410.83	2630.76
411.02	2443.52
411.21	2612.04
411.40	2485.65
411.59	2532.46
411.78	2572.25
411.98	2518.42
412.17	2663.53
412.36	2572.25
412.55	2654.17
412.74	2665.87
412.93	2588.63
413.12	2722.04
413.31	2729.06
413.50	2785.24
413.69	2860.13
413.88	2832.05
414.07	2825.03
414.26	2946.73
414.45	2963.12
414.64	2871.84
414.83	2942.05
415.02	3028.65
415.22	2939.71
415.41	2923.33
415.60	3087.17
415.79	3103.55
415.98	3267.39
416.17	3239.30
416.36	3143.34
416.55	3194.83
416.74	3225.26
416.93	3094.19
417.12	3197.17
417.31	3304.84
417.50	3208.87
417.69	3419.52
417.88	3386.76
418.07	3407.82
418.26	3400.80
418.45	3375.05
418.64	3386.76
418.83	3459.31
419.02	3550.59
419.21	3508.46
419.39	3435.91
419.58	3417.18
419.77	3421.86
419.96	3552.93
420.15	3695.71
420.34	3520.17
420.53	3667.62
420.72	3655.92
420.91	3770.60
421.10	3789.33
421.29	3737.84
421.48	3709.75
421.67	3789.33
421.86	3733.15
422.05	3698.05
422.24	3691.02
422.43	3726.13
422.61	3892.31
422.80	3840.82
422.99	3850.18
423.18	3777.62
423.37	3911.04
423.56	3845.50
423.75	3819.75
423.94	3808.05
424.13	3613.79
424.32	3812.73
424.50	3786.99
424.69	3922.74
424.88	4037.42
425.07	3730.81
425.26	3950.82
425.45	3852.52
425.64	3829.12
425.83	3836.14
426.01	4039.76
426.20	4018.70
426.39	3864.22
426.58	3796.35
426.77	3887.63
426.96	3904.01
427.15	3974.23
427.33	3847.84
427.52	4074.87
427.71	4070.19
427.90	4070.19
428.09	4119.34
428.28	4161.47
428.46	4124.02
428.65	4112.32
428.84	4084.23
429.03	4243.39
429.22	4107.64
429.40	4039.76
429.59	4046.79
429.78	3843.16
429.97	3913.38
430.16	3955.51
430.34	3953.16
430.53	4283.18
430.72	4175.52
430.91	4257.43
431.10	4245.73
431.28	4327.65
431.47	4435.32
431.66	4531.28
431.85	4423.61
432.03	4421.27
432.22	4568.73
432.41	4662.35
432.60	4631.92
432.79	4641.28
432.97	4746.61
433.16	4505.53
433.35	4580.43
433.54	4585.11
433.72	4496.17
433.91	4634.26
434.10	4620.22
434.28	4645.96
434.47	4629.58
434.66	4762.99
434.85	4692.77
435.03	4877.68
435.22	4917.47
435.41	4933.85
435.59	4940.87
435.78	5121.09
435.97	5090.67
436.16	5097.69
436.34	5043.85
436.53	5062.58
436.72	5011.09
436.90	4987.68
437.09	5027.47
437.28	5057.90
437.46	5235.78
437.65	5125.77
437.84	5170.24
438.02	4891.72
438.21	5057.90
438.40	5027.47
438.58	5064.92
438.77	5275.57
438.96	5369.19
439.14	5657.07
439.33	5586.86
439.52	5537.71
439.70	5469.83
439.89	5518.98
440.08	5518.98
440.26	5544.73
440.45	5645.37
440.63	5685.16
440.82	5891.13
441.01	5774.10
441.19	5844.32
441.38	5954.32
441.57	5902.83
441.75	6061.99
441.94	6251.57
442.12	6143.91
442.31	6293.70
442.50	5975.39
442.68	6225.82
442.87	6228.17
443.05	6246.89
443.24	6595.63
443.43	6314.77
443.61	6270.30
443.80	6555.84
443.98	6258.59
444.17	6122.84
444.35	6286.68
444.54	6551.16
444.73	6396.68
444.91	6399.02
445.10	6452.86
445.28	6324.13
445.47	6253.91
445.65	6324.13
445.84	6303.06
446.02	6375.62
446.21	6352.21
446.39	6221.14
446.58	6581.59
446.77	6546.48
446.95	6562.86
447.14	6590.95
447.32	6799.26
447.51	6609.67
447.69	6502.01
447.88	6551.16
448.06	6504.35
448.25	6509.03
448.43	6546.48
448.62	6677.55
448.80	6642.44
448.99	6841.39
449.17	6700.95
449.36	6520.73
449.54	6869.47
449.73	6946.71
449.91	6920.96
450.10	6977.14
450.28	7117.57
450.46	7080.12
450.65	7180.76
450.83	7049.69
451.02	7000.54
451.20	7054.37
451.39	6967.77
451.57	6965.43
451.76	7140.97
451.94	7012.24
452.13	7213.53
452.31	7030.97
452.49	7037.99
452.68	7204.17
452.86	7176.08
453.05	7140.97
453.23	7576.31
453.42	7129.27
453.60	7246.30
453.78	7356.30
453.97	7269.70
454.15	7243.96
454.34	7360.98
454.52	7375.03
454.70	7487.37
454.89	7424.18
455.07	7478.01
455.26	7611.42
455.44	7822.07
455.62	7506.10
455.81	7714.41
455.99	7695.68
456.17	7723.77
456.36	7555.25
456.54	7688.66
456.73	7901.65
456.91	7955.48
457.09	8046.76
457.28	8105.28
457.46	7859.52
457.64	7925.05
457.83	8124.00
458.01	7847.82
458.19	8056.12
458.38	8049.10
458.56	7990.59
458.74	7978.89
458.93	7922.71
459.11	8379.12
459.29	8105.28
459.48	8189.53
459.66	8163.79
459.84	8299.54
460.03	8379.12
460.21	8219.96
460.39	8526.57
460.57	8374.44
460.76	8360.39
460.94	8348.69
461.12	8430.61
461.31	8538.27
461.49	8325.29
461.67	8390.82
461.85	8762.97
462.04	8524.23
462.22	9202.99
462.40	8657.64
462.59	8842.54
462.77	8688.07
462.95	8753.60
463.13	8744.24
463.32	8758.28
463.50	8896.38
463.68	8564.02
463.86	8936.17
464.05	8704.45
464.23	8753.60
464.41	8844.88
464.59	8887.01
464.78	8952.55
464.96	9006.38
465.14	8833.18
465.32	9029.79
465.50	9128.09
465.69	9076.60
465.87	9160.86
466.05	8945.53
466.23	8912.76
466.41	9095.32
466.60	9238.09
466.78	9013.40
466.96	9139.79
467.14	9062.55
467.32	9153.84
467.51	9423.00
467.69	9062.55
467.87	9425.34
468.05	9345.76
468.23	9392.57
468.41	9212.35
468.60	9151.49
468.78	9418.32
468.96	9467.47
469.14	9523.64
469.32	9865.36
469.50	9060.21
469.69	9701.52
469.87	9717.90
470.05	9408.95
470.23	9617.26
470.41	9949.62
470.59	9626.62
470.77	9853.66
470.95	9710.88
471.14	10010.47
471.32	9853.66
471.50	10106.43
471.68	10272.61
471.86	10108.77
472.04	10361.55
472.22	10420.06
472.40	9989.41
472.58	10094.73
472.77	10073.67
472.95	10305.38
473.13	10478.58
473.31	10324.10
473.49	10312.40
473.67	10466.88
473.85	10445.81
474.03	10714.97
474.21	10740.72
474.39	10862.43
474.57	10675.18
474.75	10848.38
474.93	11030.94
475.12	10768.80
475.30	11115.20
475.48	10988.82
475.66	11028.60
475.84	10951.37
476.02	11157.33
476.20	11239.25
476.38	11194.78
476.56	11510.75
476.74	11405.43
476.92	11494.37
477.10	11590.33
477.28	11833.75
477.46	12079.50
477.64	12039.72
477.82	12446.97
478.00	12297.17
478.18	12393.14
478.36	12517.18
478.54	12327.60
478.72	12306.54
478.90	12470.37
479.08	12791.03
479.26	12908.05
479.44	12872.95
479.62	13076.57
479.80	12994.65
479.98	13280.20
480.16	13451.06
480.34	13366.80
480.52	13654.69
480.70	13568.09
480.88	13774.05
481.06	13717.88
481.24	13350.42
481.41	14019.81
481.59	14150.88
481.77	14406.00
481.95	14160.24
482.13	14303.01
482.31	14415.36
482.49	14569.83
482.67	14478.55
482.85	14860.06
483.03	15080.07
483.21	14876.44
483.39	15098.80
483.57	15066.03
483.74	15274.34
483.92	15211.14
484.10	14972.41
484.28	15653.50
484.46	15967.13
484.64	16215.23
484.82	15761.17
485.00	15969.48
485.18	15995.22
485.35	16313.53
485.53	15840.75
485.71	15864.15
485.89	16084.16
486.07	16130.97
486.25	16444.60
486.43	16683.34
486.61	16748.87
486.78	16992.29
486.96	16767.60
487.14	17312.94
487.32	17441.67
487.50	17771.69
487.68	17860.63
487.85	18160.22
488.03	18050.21
488.21	18429.38
488.39	18410.65
488.57	18136.81
488.75	18836.63
488.92	18738.33
489.10	19126.86
489.28	19066.00
489.46	19323.46
489.64	19344.53
489.81	19812.63
489.99	19934.34
490.17	19878.17
490.35	20341.60
490.53	19981.15
490.70	20329.89
490.88	20243.29
491.06	20634.16
491.24	20334.57
491.41	20278.40
491.59	20229.25
491.77	20517.14
491.95	20596.71
492.13	20690.34
492.30	21039.08
492.48	21392.50
492.66	21371.43
492.84	21577.40
493.01	21675.70
493.19	21476.76
493.37	21926.14
493.54	22199.98
493.72	22326.37
493.90	22429.35
494.08	22478.50
494.25	22642.34
494.43	22803.84
494.61	23056.62
494.79	23192.37
494.96	22958.31
495.14	23147.90
495.32	23388.97
495.49	23566.85
495.67	23449.83
495.85	23777.50
496.02	23772.82
496.20	23894.53
496.38	24264.33
496.55	24154.33
496.73	24503.07
496.91	24500.73
497.09	24500.73
497.26	24837.76
497.44	24514.77
497.62	24599.03
497.79	25514.18
497.97	24795.64
498.14	24947.77
498.32	25254.38
498.50	25490.77
498.67	25418.22
498.85	25656.95
499.03	25954.20
499.20	25781.00
499.38	26029.10
499.56	26338.05
499.73	25851.22
499.91	26288.90
500.08	26288.90
500.26	25874.62
500.44	26087.61
500.61	26361.45
500.79	25905.05
500.97	26401.24
501.14	26874.03
501.32	26834.24
501.49	27021.48
501.67	26986.38
501.84	27182.98
502.02	27241.50
502.20	27505.98
502.37	27328.10
502.55	27349.16
502.72	27744.71
502.90	27391.29
503.07	27505.98
503.25	27786.84
503.43	27407.67
503.60	27644.07
503.78	27552.79
503.95	27653.43
504.13	27960.04
504.30	27803.22
504.48	28322.82
504.65	28671.56
504.83	28648.16
505.01	28821.36
505.18	29015.62
505.36	29083.50
505.53	29048.39
505.71	29237.97
505.88	28856.46
506.06	28919.66
506.23	29085.84
506.41	29280.10
506.58	29256.70
506.76	29514.16
506.93	29399.47
507.11	29755.23
507.28	29783.32
507.46	29535.22
507.63	29359.68
507.81	29830.13
507.98	29972.90
508.16	29893.32
508.33	30068.86
508.50	30110.99
508.68	30239.72
508.85	30855.28
509.03	30497.18
509.20	30506.54
509.38	30628.25
509.55	31054.23
509.73	31040.18
509.90	30789.75
510.08	31180.62
510.25	31194.66
510.42	30845.92
510.60	31321.05
510.77	31288.28
510.95	31344.45
511.12	31314.03
511.30	31550.42
511.47	31950.65
511.64	31847.67
511.82	31903.84
511.99	31805.54
512.17	31765.75
512.34	31749.37
512.51	32430.46
512.69	32158.96
512.86	32395.35
513.04	32388.33
513.21	32467.91
513.38	32203.43
513.56	32423.44
513.73	32191.73
513.90	32725.37
514.08	32346.20
514.25	33127.94
514.43	32524.08
514.60	32903.25
514.77	32666.86
514.95	33261.35
515.12	33247.31
515.29	33261.35
515.47	33535.20
515.64	33237.95
515.81	33514.13
515.99	33483.70
516.16	33160.71
516.33	33336.25
516.51	33802.02
516.68	33146.67
516.85	32936.02
517.03	33336.25
517.20	33785.63
517.37	33827.76
517.54	34249.06
517.72	33708.40
517.89	33537.54
518.06	33560.94
518.24	33748.18
518.41	33926.07
518.58	33998.62
518.75	34235.02
518.93	34445.66
519.10	34677.38
519.27	34452.69
519.45	34424.60
519.62	34682.06
519.79	34501.84
519.96	34953.56
520.14	34916.11
520.31	34614.18
520.48	34745.25
520.65	35037.82
520.83	35339.75
521.00	35054.20
521.17	35339.75
521.34	35606.57
521.52	35629.98
521.69	35480.18
521.86	36051.27
522.03	35978.72
522.20	36535.76
522.38	35978.72
522.55	36123.83
522.72	35924.88
522.89	35967.01
523.07	36116.81
523.24	36126.17
523.41	36446.82
523.58	36290.01
523.75	37006.21
523.92	36821.31
524.10	36945.36
524.27	36725.35
524.44	36615.34
524.61	36821.31
524.78	37172.39
524.96	37090.47
525.13	36732.37
525.30	37486.02
525.47	37373.67
525.64	37266.01
525.81	36891.52
525.98	37102.17
526.16	36919.61
526.33	36774.50
526.50	37139.62
526.67	37418.14
526.84	37291.76
527.01	36613.00
527.18	37383.04
527.36	37727.10
527.53	37958.81
527.70	37874.55
527.87	37659.22
528.04	37883.91
528.21	37965.83
528.38	37909.66
528.55	38176.48
528.72	38504.15
528.89	38539.26
529.07	38288.82
529.24	38267.76
529.41	38572.03
529.58	38185.84
529.75	37970.51
529.92	38326.27
530.09	38263.08
530.26	38637.56
530.43	38794.38
530.60	38602.46
530.77	38710.12
530.94	39143.12
531.11	38843.53
531.28	39164.18
531.46	39154.82
531.63	39407.60
531.80	38829.49
531.97	38747.57
532.14	38838.85
532.31	38745.23
532.48	38857.57
532.65	39203.97
532.82	39267.17
532.99	39526.97
533.16	38988.64
533.33	39529.31
533.50	40018.48
533.67	39440.37
533.84	39660.38
534.01	39421.64
534.18	39576.12
534.35	40584.89
534.52	39510.58
534.69	39739.96
534.86	40032.52
535.03	39796.13
535.20	40243.17
535.37	40222.11
535.54	40388.28
535.71	39976.35
535.88	40297.00
536.05	40212.74
536.22	39718.89
536.38	40196.36
536.55	40215.08
536.72	40280.62
536.89	39761.02
537.06	40229.13
537.23	40641.06
537.40	40507.65
537.57	40659.79
537.74	40832.99
537.91	41170.02
538.08	40737.02
538.25	40095.72
538.42	40706.60
538.59	40935.97
538.75	40615.32
538.92	40907.88
539.09	40879.80
539.26	40776.81
539.43	41104.49
539.60	40940.65
539.77	40566.16
539.94	40783.83
540.11	40910.22
540.28	41273.01
540.44	40896.18
540.61	41102.15
540.78	40776.81
540.95	41085.76
541.12	40940.65
541.29	41549.19
541.46	41448.55
541.62	41724.73
541.79	41717.71
541.96	41326.84
542.13	41687.28
542.30	41258.96
542.47	41401.74
542.63	41502.38
542.80	41617.07
542.97	41862.82
543.14	42543.92
543.31	42073.47
543.48	42396.46
543.64	42309.86
543.81	42293.48
543.98	42377.74
544.15	42253.69
544.32	42373.06
544.48	42532.22
544.65	42433.91
544.82	42513.49
544.99	42127.30
545.16	42438.59
545.32	42466.68
545.49	42890.32
545.66	42941.81
545.83	43040.11
546.00	42864.57
546.16	42766.27
546.33	42639.88
546.50	42209.22
546.67	42892.66
546.83	42557.96
547.00	42536.90
547.17	42637.54
547.34	42541.58
547.50	42513.49
547.67	42787.33
547.84	43033.09
548.00	43515.24
548.17	43407.58
548.34	43075.22
548.51	43798.44
548.67	43622.90
548.84	43290.55
549.01	43194.59
549.18	43225.01
549.34	43536.30
549.51	43248.42
549.68	43384.17
549.84	43533.96
550.01	43562.05
550.18	43498.86
550.34	43288.21
550.51	43494.18
550.68	43267.14
550.84	43311.61
551.01	43395.87
551.18	43475.45
551.34	43718.87
551.51	43707.16
551.68	43634.61
551.84	43999.73
552.01	43714.19
552.18	43805.47
552.34	43269.48
552.51	43540.99
552.68	43856.96
552.84	44055.90
553.01	44322.72
553.18	44018.46
553.34	43871.00
553.51	44301.66
553.67	44109.74
553.84	44058.24
554.01	44130.80
554.17	44201.02
554.34	44095.69
554.51	44746.36
554.67	44348.47
554.84	44179.95
555.00	44151.87
555.17	44062.93
555.33	44086.33
555.50	43990.37
555.67	44222.08
555.83	44233.78
556.00	44364.85
556.16	44643.38
556.33	44369.54
556.50	44575.50
556.66	44374.22
556.83	44304.00
556.99	44479.54
557.16	44538.05
557.32	45031.91
557.49	44676.15
557.65	44617.63
557.82	44699.55
557.98	44390.60
558.15	44769.77
558.32	44985.10
558.48	44531.03
558.65	44161.23
558.81	44161.23
558.98	44793.17
559.14	44500.61
559.31	44891.48
559.47	44949.99
559.64	44978.07
559.80	44636.36
559.97	44882.11
560.13	44718.28
560.30	44458.48
560.46	45029.57
560.63	44889.13
560.79	45029.57
560.96	44924.24
561.12	45008.50
561.29	44802.53
561.45	45106.80
561.61	44957.01
561.78	44985.10
561.94	44725.30
562.11	44839.98
562.27	44678.49
562.44	44999.14
562.60	45092.76
562.77	44980.42
562.93	45392.35
563.10	45158.30
563.26	45385.33
563.42	44912.54
563.59	45045.95
563.75	46036.00
563.92	45724.71
564.08	45165.32
564.24	45500.01
564.41	45450.86
564.57	45137.23
564.74	45010.84
564.90	45226.17
565.07	45425.12
565.23	45345.54
565.39	45296.39
565.56	44914.88
565.72	44856.37
565.88	44900.84
566.05	44947.65
566.21	45474.27
566.38	45188.72
566.54	45392.35
566.70	45467.25
566.87	46057.06
567.03	45427.46
567.19	45897.91
567.36	45624.06
567.52	45483.63
567.68	45425.12
567.85	45404.05
568.01	45553.85
568.17	45359.58
568.34	45902.59
568.50	45167.66
568.66	45586.61
568.83	45404.05
568.99	45455.54
569.15	44624.65
569.32	45572.57
569.48	45603.00
569.64	46122.60
569.81	45509.38
569.97	45492.99
570.13	45603.00
570.30	44907.86
570.46	44973.39
570.62	44891.48
570.78	45310.43
570.95	45214.47
571.11	45804.28
571.27	45460.23
571.43	45256.60
571.60	45687.26
571.76	45467.25
571.92	45064.67
572.09	45427.46
572.25	45265.96
572.41	45219.15
572.57	45535.12
572.74	45804.28
572.90	45485.97
573.06	46272.39
573.22	45727.05
573.38	45586.61
573.55	45083.40
573.71	45888.54
573.87	45745.77
574.03	45586.61
574.20	45909.61
574.36	45404.05
574.52	45666.19
574.68	45113.83
574.84	45689.60
575.01	45605.34
575.17	45151.27
575.33	45670.87
575.49	45301.07
575.65	45778.54
575.82	45720.02
575.98	45628.74
576.14	45813.65
576.30	45879.18
576.46	46078.13
576.62	45514.06
576.79	45272.98
576.95	45350.22
577.11	45764.49
577.27	45752.79
577.43	45289.37
577.59	45249.58
577.75	45404.05
577.92	45148.93
578.08	44978.07
578.24	45469.59
578.40	45539.80
578.56	45544.48
578.72	45350.22
578.88	46148.34
579.04	45792.58
579.21	45605.34
579.37	45556.19
579.53	46012.59
579.69	45970.46
579.85	45516.40
580.01	45673.21
580.17	45947.06
580.33	45778.54
580.49	45570.23
580.65	45446.18
580.82	45745.77
580.98	45951.74
581.14	45490.65
581.30	45731.73
581.46	45490.65
581.62	45890.88
581.78	46181.11
581.94	46213.88
582.10	46239.62
582.26	45918.97
582.42	45954.08
582.58	45755.13
582.74	46059.40
582.90	45595.98
583.06	46136.64
583.22	46094.51
583.38	46181.11
583.54	45991.53
583.70	45972.80
583.86	45682.58
584.02	46017.27
584.18	45713.00
584.34	45975.14
584.50	45523.42
584.66	45687.26
584.82	45528.10
584.98	45806.62
585.14	46080.47
585.30	45677.90
585.46	45883.86
585.62	45338.52
585.78	45837.05
585.94	45184.04
586.10	45581.93
586.26	45420.44
586.42	45909.61
586.58	45682.58
586.74	45619.38
586.90	45745.77
587.06	45998.55
587.22	46316.86
587.38	45757.47
587.54	45839.39
587.70	46192.81
587.86	45804.28
588.02	45457.88
588.18	45794.92
588.34	45954.08
588.49	45485.97
588.65	44900.84
588.81	45352.56
588.97	45673.21
589.13	45390.01
589.29	45687.26
589.45	45364.26
589.61	45853.44
589.77	45998.55
589.93	45825.35
590.08	45745.77
590.24	45460.23
590.40	46150.68
590.56	46478.36
590.72	45801.94
590.88	46178.77
591.04	45865.14
591.20	46038.34
591.35	46288.77
591.51	46188.13
591.67	45780.88
591.83	45876.84
591.99	45839.39
592.15	46068.76
592.31	45935.35
592.46	46120.26
592.62	45998.55
592.78	46099.19
592.94	45918.97
593.10	45909.61
593.26	46291.12
593.41	46026.63
593.57	45666.19
593.73	45638.11
593.89	45961.10
594.05	45902.59
594.20	45626.40
594.36	46064.08
594.52	45993.87
594.68	45830.03
594.84	45947.06
594.99	46288.77
595.15	45593.64
595.31	46363.67
595.47	46066.42
595.62	46066.42
595.78	46010.25
595.94	46157.70
596.10	46319.20
596.25	45954.08
596.41	45701.30
596.57	45713.00
596.73	45911.95
596.88	45940.04
597.04	46171.75
597.20	45900.25
597.36	45918.97
597.51	46387.08
597.67	45942.38
597.83	46253.67
597.99	46021.95
598.14	45984.51
598.30	46368.35
598.46	46330.90
598.61	45893.22
598.77	45736.41
598.93	45918.97
599.09	46059.40
599.24	46576.66
599.40	46422.19
599.56	46178.77
599.71	45879.18
599.87	46387.08
600.03	45839.39
600.18	45687.26
600.34	46110.89
600.50	45808.96
600.65	45961.10
600.81	46071.10
600.97	45940.04
601.12	46476.02
601.28	46036.00
601.44	45923.65
601.59	45659.17
601.75	45535.12
601.91	46167.07
602.06	45998.55
602.22	46199.83
602.37	46117.92
602.53	45900.25
602.69	45972.80
602.84	45993.87
603.00	46057.06
603.16	46483.04
603.31	46134.30
603.47	45804.28
603.62	45862.80
603.78	46099.19
603.94	45956.42
604.09	46010.25
604.25	45933.01
604.40	46057.06
604.56	45776.20
604.71	46218.56
604.87	45937.69
605.03	46138.98
605.18	45933.01
605.34	46057.06
605.49	45904.93
605.65	46033.66
605.80	45853.44
605.96	46054.72
606.12	46059.40
606.27	45958.76
606.43	45694.28
606.58	45645.13
606.74	45390.01
606.89	45628.74
607.05	45808.96
607.20	45790.24
607.36	45663.85
607.51	46153.02
607.67	45649.81
607.82	45762.15
607.98	45647.47
608.13	45450.86
608.29	45200.43
608.44	45113.83
608.60	45251.92
608.75	45425.12
608.91	45813.65
609.06	45537.46
609.22	45954.08
609.37	45366.60
609.53	45631.08
609.68	45752.79
609.84	45717.68
609.99	45382.99
610.15	45586.61
610.30	44886.79
610.46	44931.26
610.61	45518.74
610.76	45673.21
610.92	45151.27
611.07	45539.80
611.23	45397.03
611.38	45146.59
611.54	45214.47
611.69	44847.00
611.84	45102.12
612.00	44968.71
612.15	45287.03
612.31	45577.25
612.46	44882.11
612.62	45460.23
612.77	45539.80
612.92	45017.86
613.08	45010.84
613.23	45027.23
613.39	44994.46
613.54	44362.51
613.69	44652.74
613.85	44823.60
614.00	45162.98
614.15	44814.24
614.31	44678.49
614.46	45284.68
614.62	45090.42
614.77	44800.19
614.92	44727.64
615.08	44622.31
615.23	44376.56
615.38	45031.91
615.54	44626.99
615.69	44938.29
615.84	44296.98
616.00	44701.89
616.15	44725.30
616.30	44919.56
616.46	44502.95
616.61	44823.60
616.76	44591.89
616.92	44238.47
617.07	44212.72
617.22	44046.54
617.37	44133.14
617.53	44931.26
617.68	44528.69
617.83	44423.37
617.99	44514.65
618.14	44388.26
618.29	43863.98
618.45	43997.39
618.60	43784.40
618.75	43899.09
618.90	43763.34
619.06	44217.40
619.21	43957.60
619.36	44067.61
619.51	44037.18
619.67	44091.01
619.82	44168.25
619.97	44189.31
620.12	43791.42
620.28	43597.16
620.43	43798.44
620.58	44020.80
620.73	43587.80
620.89	43768.02
621.04	44144.84
621.19	44016.11
621.34	44133.14
621.49	43482.47
621.65	43721.21
621.80	44215.06
621.95	43269.48
622.10	43594.82
622.25	43613.54
622.41	43819.51
622.56	43323.32
622.71	43686.10
622.86	43856.96
623.01	43751.63
623.16	43423.96
623.32	43505.88
623.47	43672.06
623.62	43686.10
623.77	43430.98
623.92	43438.00
624.07	43316.29
624.23	43119.69
624.38	43009.68
624.53	43028.41
624.68	43255.44
624.83	43529.28
624.98	43335.02
625.13	42890.32
625.29	42777.97
625.44	42864.57
625.59	42803.72
625.74	42941.81
625.89	42560.30
626.04	43234.38
626.19	42927.77
626.34	42883.30
626.49	43110.33
626.65	42848.19
626.80	43140.75
626.95	42150.71
627.10	42616.47
627.25	43075.22
627.40	42256.03
627.55	42328.59
627.70	42272.42
627.85	42567.32
628.00	42569.66
628.15	42335.61
628.30	42092.19
628.45	42485.40
628.60	42637.54
628.76	42609.45
628.91	42426.89
629.06	42057.09
629.21	42024.32
629.36	42342.63
629.51	41940.06
629.66	41991.55
629.81	41596.00
629.96	42337.95
630.11	42302.84
630.26	42314.55
630.41	41771.54
630.56	42183.48
630.71	42000.91
630.86	42408.17
631.01	42614.13
631.16	42113.26
631.31	41612.38
631.46	41619.41
631.61	41865.16
631.76	42038.36
631.91	42031.34
632.06	42005.59
632.21	42017.30
632.36	41921.34
632.51	41251.94
632.66	41855.80
632.81	41429.82
632.96	41530.47
633.10	41680.26
633.25	42078.15
633.40	41591.32
633.55	42029.00
633.70	41322.16
633.85	41287.05
634.00	41914.31
634.15	41504.72
634.30	41455.57
634.45	40884.48
634.60	41474.29
634.75	41296.41
634.90	41507.06
635.05	41504.72
635.19	40741.71
635.34	41134.92
635.49	41050.66
635.64	41127.89
635.79	41336.20
635.94	41242.58
636.09	40657.45
636.24	41111.51
636.39	40493.61
636.53	41013.21
636.68	41083.42
636.83	41139.60
636.98	41036.61
637.13	41060.02
637.28	41401.74
637.43	40753.41
637.57	40800.22
637.72	40868.09
637.87	40528.72
638.02	40659.79
638.17	40858.73
638.32	41083.42
638.46	40332.11
638.61	40676.17
638.76	40650.42
638.91	40783.83
639.06	40392.97
639.20	40863.41
639.35	40648.08
639.50	40737.02
639.65	40533.40
639.80	40533.40
639.94	40772.13
640.09	40563.82
640.24	40154.23
640.39	39824.22
640.54	39936.56
640.68	40041.88
640.83	40226.79
640.98	39978.69
641.13	40332.11
641.27	40154.23
641.42	39992.73
641.57	39934.22
641.72	40318.07
641.86	39871.03
642.01	40067.63
642.16	39936.56
642.31	39651.02
642.45	39796.13
642.60	39620.59
642.75	39856.98
642.90	39906.13
643.04	39849.96
643.19	39990.39
643.34	40037.20
643.48	39702.51
643.63	39538.67
643.78	39447.39
643.93	39938.90
644.07	39761.02
644.22	39473.13
644.37	39431.01
644.51	39646.33
644.66	39337.38
644.81	39833.58
644.95	39711.87
645.10	39442.71
645.25	39306.96
645.39	39718.89
645.54	39328.02
645.69	39335.04
645.83	39370.15
645.98	39250.78
646.13	38995.67
646.27	39487.18
646.42	39227.38
646.57	39131.42
646.71	39131.42
646.86	39522.29
647.00	39122.05
647.15	39386.54
647.30	39210.99
647.44	39089.29
647.59	38855.23
647.74	38979.28
647.88	38934.81
648.03	38962.90
648.17	38653.95
648.32	38967.58
648.47	38857.57
648.61	38792.04
648.76	38649.27
648.90	38944.17
649.05	39299.94
649.20	38501.81
649.34	38911.41
649.49	38635.22
649.63	38543.94
649.78	38728.84
649.92	38696.08
650.07	39075.24
650.21	38913.75
650.36	38824.81
650.51	38492.45
650.65	39122.05
650.80	38667.99
650.94	39000.35
651.09	38501.81
651.23	38375.42
651.38	38167.12
651.52	37998.60
651.67	38272.44
651.81	38136.69
651.96	38096.90
652.10	38328.61
652.25	38078.18
652.39	38452.66
652.54	38494.79
652.68	37984.55
652.83	38014.98
652.97	38625.86
653.12	38047.75
653.26	38106.26
653.41	37970.51
653.55	38047.75
653.70	38040.73
653.84	37750.50
653.99	37769.22
654.13	37497.72
654.27	37790.29
654.42	37860.51
654.56	38000.94
654.71	37883.91
654.85	37991.58
655.00	37675.60
655.14	37947.11
655.29	37069.40
655.43	37413.46
655.57	37446.23
655.72	36769.82
655.86	37338.57
656.01	37329.20
656.15	36669.17
656.30	37230.90
656.44	37319.84
656.58	37525.81
656.73	36891.52
656.87	37116.22
657.01	36928.97
657.16	36966.42
657.30	36807.26
657.45	37184.09
657.59	36566.19
657.73	36889.18
657.88	37677.94
658.02	37212.18
658.16	37713.05
658.31	36992.17
658.45	37017.91
658.60	36870.46
658.74	36907.91
658.88	36968.76
659.03	36524.06
659.17	36582.57
659.31	36751.09
659.46	36533.42
659.60	36320.43
659.74	36318.09
659.89	36297.03
660.03	36381.29
660.17	36863.44
660.32	36830.67
660.46	36690.24
660.60	36538.10
660.74	36297.03
660.89	36381.29
661.03	35901.48
661.17	35723.60
661.32	36175.32
661.46	36112.13
661.60	36011.48
661.74	36077.02
661.89	36205.75
662.03	36095.74
662.17	35903.82
662.31	35871.05
662.46	36198.73
662.60	35735.30
662.74	35800.83
662.88	35789.13
663.03	35889.77
663.17	35660.40
663.31	35332.73
663.45	35491.88
663.60	35442.73
663.74	35515.29
663.88	35246.13
664.02	35342.09
664.17	35428.69
664.31	35103.35
664.45	34967.60
664.59	34761.64
664.73	35501.25
664.88	34969.94
665.02	34899.73
665.16	34759.30
665.30	34218.63
665.44	34705.46
665.59	34417.58
665.73	34876.32
665.87	34768.66
666.01	34298.21
666.15	34946.54
666.29	34286.51
666.44	34845.90
666.58	34272.46
666.72	34176.50
666.86	34054.79
667.00	34644.61
667.14	33708.40
667.28	34129.69
667.43	34029.05
667.57	34440.98
667.71	34286.51
667.85	34040.75
667.99	33883.94
668.13	33745.84
668.27	34057.14
668.41	34150.76
668.56	33645.20
668.70	33427.53
668.84	33385.40
668.98	33425.19
669.12	33284.76
669.26	33406.47
669.40	33046.02
669.54	33074.11
669.68	33137.30
669.82	33113.90
669.96	32556.85
670.10	32905.59
670.25	32882.19
670.39	32914.95
670.53	32790.91
670.67	32914.95
670.81	32844.74
670.95	32327.48
671.09	32601.32
671.23	32442.17
671.37	32568.55
671.51	32353.23
671.65	32156.62
671.79	32163.64
671.93	32095.77
672.07	31885.12
672.21	31985.76
672.35	32084.06
672.49	31995.12
672.63	32306.41
672.77	32063.00
672.91	31660.43
673.05	31819.58
673.19	31632.34
673.33	31234.45
673.47	31098.70
673.61	30766.34
673.75	31049.55
673.89	30899.75
674.03	30974.65
674.17	31122.10
674.31	31178.28
674.45	30710.17
674.59	31070.61
674.73	31253.17
674.87	31192.32
675.01	30794.43
675.15	30794.43
675.29	30389.52
675.43	30298.23
675.56	30815.49
675.70	30588.46
675.84	30398.88
675.98	29448.62
676.12	30316.96
676.26	30295.89
676.40	30298.23
676.54	30176.53
676.68	29893.32
676.82	29465.00
676.96	29804.38
677.10	29921.41
677.23	29944.81
677.37	29331.59
677.51	29516.50
677.65	29556.28
677.79	29123.29
677.93	29179.46
678.07	28847.10
678.21	28371.97
678.34	28423.47
678.48	28629.43
678.62	28559.22
678.76	28519.43
678.90	28510.07
679.04	28322.82
679.18	28411.76
679.31	27885.14
679.45	28135.58
679.59	28205.80
679.73	27751.73
679.87	27704.92
680.00	27683.86
680.14	27569.17
680.28	28041.96
680.42	27536.40
680.56	27721.30
680.70	27094.04
680.83	27477.89
680.97	27180.64
681.11	27248.52
681.25	27222.77
681.39	27021.48
681.52	27159.58
681.66	26916.16
681.80	26941.91
681.94	26710.19
682.07	26228.04
682.21	26426.99
682.35	26092.29
682.49	26434.01
682.62	26277.19
682.76	26073.57
682.90	25977.61
683.04	26026.76
683.17	25886.32
683.31	26103.99
683.45	25853.56
683.59	25825.47
683.72	25242.68
683.86	25893.35
684.00	25350.34
684.13	25221.61
684.27	25139.69
684.41	24992.24
684.55	25022.67
684.68	24669.25
684.82	24687.97
684.96	25109.27
685.09	24549.88
685.23	24467.96
685.37	24856.49
685.50	24428.17
685.64	24306.46
685.78	24168.37
685.91	24044.32
686.05	23899.21
686.19	23768.14
686.32	23786.86
686.46	23400.68
686.60	23391.31
686.73	23180.67
686.87	23094.07
687.01	22787.46
687.14	22871.72
687.28	22492.55
687.42	23007.47
687.55	23122.15
687.69	22932.57
687.82	22869.37
687.96	22902.14
688.10	22628.30
688.23	22417.65
688.37	22731.28
688.50	22621.28
688.64	22478.50
688.78	22480.85
688.91	22405.95
689.05	22078.27
689.18	22125.08
689.32	21329.30
689.46	22127.42
689.59	22033.80
689.73	22087.64
689.86	21514.20
690.00	21231.00
690.13	21546.97
690.27	21301.22
690.41	21406.54
690.54	20936.09
690.68	20926.73
690.81	21144.40
690.95	21209.93
691.08	21062.48
691.22	20980.56
691.35	20905.66
691.49	20926.73
691.62	20830.77
691.76	21177.17
691.89	20840.13
692.03	20723.10
692.16	20526.50
692.30	20187.12
692.43	20283.08
692.57	19782.21
692.70	19817.32
692.84	20046.69
692.97	19782.21
693.11	19473.26
693.24	19658.16
693.38	19489.64
693.51	19578.58
693.65	19566.88
693.78	19342.19
693.92	19351.55
694.05	19580.92
694.19	19271.97
694.32	19054.30
694.45	19016.85
694.59	18991.11
694.72	19173.67
694.86	18897.49
694.99	18565.13
695.13	18691.52
695.26	18663.43
695.39	18487.89
695.53	18597.90
695.66	18565.13
695.80	18237.45
695.93	18235.11
696.07	18143.83
696.20	18373.21
696.33	18302.99
696.47	17900.42
696.60	18286.61
696.73	17785.73
696.87	17715.51
697.00	17645.30
697.14	17537.63
697.27	17216.98
697.40	17277.83
697.54	17273.15
697.67	17432.31
697.80	17116.34
697.94	16954.84
698.07	17034.42
698.21	16882.28
698.34	16788.66
698.47	17214.64
698.61	16662.27
698.74	16470.35
698.87	17001.65
699.01	16414.18
699.14	16194.17
699.27	16460.99
699.40	16493.76
699.54	16152.04
699.67	16229.27
699.80	16107.57
699.94	15969.48
700.07	15913.30
700.20	15953.09
700.34	16126.29
700.47	16177.78
700.60	15892.24
700.73	15620.74
700.87	15838.41
701.00	15573.92
701.13	15428.81
701.26	15363.28
701.40	15335.19
701.53	15087.09
701.66	15276.68
701.79	14960.70
701.93	15044.96
702.06	14712.61
702.19	14628.35
702.32	14860.06
702.46	14850.70
702.59	14892.83
702.72	14855.38
702.85	14682.18
702.99	14422.38
703.12	14368.55
703.25	14204.71
703.38	14288.97
703.51	14434.08
703.65	14260.88
703.78	14043.21
703.91	13830.23
704.04	13783.41
704.17	13928.53
704.31	13891.08
704.44	13877.04
704.57	13921.51
704.70	13659.37
704.83	13476.80
704.96	13692.13
705.10	13673.41
705.23	13673.41
>>>>>End Processed Spectral Data<<<<<
