SpectraSuite Data File
++++++++++++++++++++++++++++++++++++
Date: Fri Oct 25 10:47:07 EDT 2013
User: price-jones
Dark Spectrum Present: No
Reference Spectrum Present: No
Number of Sampled Component Spectra: 1
Spectrometers: USB2+H05261
Integration Time (usec): 100000 (USB2+H05261)
Spectra Averaged: 1 (USB2+H05261)
Boxcar Smoothing: 0 (USB2+H05261)
Correct for Electrical Dark: No (USB2+H05261)
Strobe/Lamp Enabled: No (USB2+H05261)
Correct for Detector Non-linearity: No (USB2+H05261)
Correct for Stray Light: No (USB2+H05261)
Number of Pixels in Processed Spectrum: 2048
>>>>>Begin Processed Spectral Data<<<<<
365.73	131.07
365.92	131.07
366.12	131.07
366.32	67.88
366.52	49.15
366.72	37.45
366.91	14.04
367.11	35.11
367.31	37.45
367.51	49.15
367.70	23.41
367.90	0.00
368.10	105.32
368.30	42.13
368.49	9.36
368.69	18.72
368.89	102.98
369.09	70.22
369.28	65.54
369.48	124.05
369.68	114.69
369.87	117.03
370.07	119.37
370.27	152.13
370.47	198.95
370.66	353.42
370.86	330.02
371.06	425.98
371.25	500.87
371.45	472.79
371.65	456.40
371.84	425.98
372.04	491.51
372.24	491.51
372.44	433.00
372.63	517.26
372.83	475.13
373.03	454.06
373.22	437.68
373.42	435.34
373.62	519.60
373.81	533.64
374.01	596.84
374.21	566.41
374.40	528.96
374.60	545.34
374.79	622.58
374.99	524.28
375.19	517.26
375.38	575.77
375.58	634.29
375.78	610.88
375.97	519.60
376.17	720.88
376.37	603.86
376.56	589.82
376.76	491.51
376.95	521.94
377.15	564.07
377.35	554.71
377.54	559.39
377.74	575.77
377.93	578.11
378.13	575.77
378.33	594.50
378.52	641.31
378.72	660.03
378.91	636.63
379.11	573.43
379.31	620.24
379.50	561.73
379.70	718.54
379.89	613.22
380.09	601.52
380.28	688.12
380.48	627.26
380.68	648.33
380.87	629.60
381.07	716.20
381.26	613.22
381.46	718.54
381.65	732.59
381.85	669.39
382.04	720.88
382.24	681.10
382.43	704.50
382.63	667.05
382.83	685.78
383.02	732.59
383.22	713.86
383.41	650.67
383.61	753.65
383.80	730.25
384.00	727.91
384.19	660.03
384.39	788.76
384.58	746.63
384.78	697.48
384.97	667.05
385.17	718.54
385.36	697.48
385.56	709.18
385.75	741.95
385.95	781.74
386.14	858.98
386.34	809.83
386.53	809.83
386.72	737.27
386.92	798.12
387.11	858.98
387.31	805.14
387.50	767.70
387.70	739.61
387.89	807.48
388.09	786.42
388.28	812.17
388.48	875.36
388.67	880.04
388.86	835.57
389.06	847.27
389.25	837.91
389.45	901.11
389.64	880.04
389.84	861.32
390.03	875.36
390.22	898.77
390.42	924.51
390.61	1020.47
390.81	919.83
391.00	884.72
391.19	990.05
391.39	896.43
391.58	968.98
391.78	922.17
391.97	1006.43
392.16	908.13
392.36	931.53
392.55	959.62
392.75	1011.11
392.94	938.55
393.13	957.28
393.33	973.66
393.52	971.32
393.71	978.34
393.91	994.73
394.10	976.00
394.29	997.07
394.49	1069.62
394.68	1053.24
394.88	1095.37
395.07	1116.44
395.26	1137.50
395.46	1100.05
395.65	1111.75
395.84	1142.18
396.04	1100.05
396.23	1039.20
396.42	1193.67
396.62	1135.16
396.81	1219.42
397.00	1006.43
397.19	1130.48
397.39	1256.87
397.58	1163.25
397.77	1240.48
397.97	1313.04
398.16	1207.72
398.35	1240.48
398.55	1310.70
398.74	1280.27
398.93	1350.49
399.12	1357.51
399.32	1373.89
399.51	1299.00
399.70	1303.68
399.90	1336.45
400.09	1373.89
400.28	1441.77
400.47	1385.60
400.67	1444.11
400.86	1376.24
401.05	1406.66
401.24	1453.47
401.44	1479.22
401.63	1572.84
401.82	1481.56
402.01	1488.58
402.21	1460.49
402.40	1558.80
402.59	1542.41
402.78	1488.58
402.97	1600.93
403.17	1509.65
403.36	1603.27
403.55	1652.42
403.74	1689.87
403.93	1638.38
404.13	1586.88
404.32	1631.35
404.51	1650.08
404.70	1657.10
404.89	1692.21
405.09	1722.63
405.28	1762.42
405.47	1769.44
405.66	1753.06
405.85	1764.76
406.05	1762.42
406.24	1834.98
406.43	1856.04
406.62	1806.89
406.81	1891.15
407.00	1706.25
407.20	1858.39
407.39	1736.68
407.58	1937.96
407.77	1987.11
407.96	1959.03
408.15	2033.93
408.34	2001.16
408.54	1930.94
408.73	1905.20
408.92	1963.71
409.11	2148.61
409.30	2080.74
409.49	1954.35
409.68	1989.46
409.87	2017.54
410.07	2036.27
410.26	2045.63
410.45	2160.31
410.64	2143.93
410.83	2122.87
411.02	2169.68
411.21	2228.19
411.40	2277.34
411.59	2286.70
411.78	2256.28
411.98	2298.41
412.17	2303.09
412.36	2310.11
412.55	2267.98
412.74	2368.62
412.93	2246.91
413.12	2387.35
413.31	2590.97
413.50	2537.14
413.69	2562.89
413.88	2553.52
414.07	2511.39
414.26	2614.38
414.45	2663.53
414.64	2740.77
414.83	2651.83
415.02	2726.72
415.22	2693.96
415.41	2665.87
415.60	2736.09
415.79	2825.03
415.98	2794.60
416.17	2787.58
416.36	2841.41
416.55	2775.88
416.74	2768.85
416.93	2857.79
417.12	2960.78
417.31	2949.08
417.50	2981.84
417.69	3075.46
417.88	3070.78
418.07	2937.37
418.26	2998.23
418.45	3033.33
418.64	3225.26
418.83	3185.47
419.02	3068.44
419.21	3171.43
419.39	3187.81
419.58	3103.55
419.77	3215.90
419.96	3176.11
420.15	3253.34
420.34	3279.09
420.53	3286.11
420.72	3344.63
420.91	3302.50
421.10	3342.28
421.29	3342.28
421.48	3377.39
421.67	3309.52
421.86	3342.28
422.05	3426.54
422.24	3344.63
422.43	3328.24
422.61	3459.31
422.80	3396.12
422.99	3433.57
423.18	3482.72
423.37	3606.77
423.56	3566.98
423.75	3438.25
423.94	3400.80
424.13	3213.56
424.32	3384.41
424.50	3562.30
424.69	3529.53
424.88	3604.42
425.07	3368.03
425.26	3407.82
425.45	3370.37
425.64	3515.48
425.83	3634.85
426.01	3592.72
426.20	3545.91
426.39	3606.77
426.58	3644.21
426.77	3534.21
426.96	3590.38
427.15	3604.42
427.33	3623.15
427.52	3454.63
427.71	3653.58
427.90	3700.39
428.09	3627.83
428.28	3803.37
428.46	3782.31
428.65	3665.28
428.84	3843.16
429.03	3852.52
429.22	3756.56
429.40	3810.39
429.59	3786.99
429.78	3529.53
429.97	3538.89
430.16	3662.94
430.34	3801.03
430.53	3740.18
430.72	3754.22
430.91	3918.06
431.10	3983.59
431.28	3927.42
431.47	4145.09
431.66	4095.94
431.85	3915.72
432.03	4149.77
432.22	4222.33
432.41	4224.67
432.60	4119.34
432.79	4203.60
432.97	4245.73
433.16	4196.58
433.35	4161.47
433.54	4248.07
433.72	4329.99
433.91	4229.35
434.10	4290.20
434.28	4344.03
434.47	4372.12
434.66	4461.06
434.85	4461.06
435.03	4341.69
435.22	4348.72
435.41	4416.59
435.59	4484.47
435.78	4519.57
435.97	4486.81
436.16	4566.39
436.34	4472.76
436.53	4463.40
436.72	4617.88
436.90	4500.85
437.09	4582.77
437.28	4568.73
437.46	4526.60
437.65	4568.73
437.84	4730.22
438.02	4784.06
438.21	4725.54
438.40	4688.09
438.58	4833.21
438.77	4887.04
438.96	4847.25
439.14	5001.72
439.33	4959.60
439.52	4807.46
439.70	4919.81
439.89	5064.92
440.08	4952.57
440.26	5013.43
440.45	5083.64
440.63	5313.02
440.82	5284.93
441.01	5085.98
441.19	5303.65
441.38	5504.94
441.57	5362.17
441.75	5352.81
441.94	5514.30
442.12	5397.28
442.31	5748.36
442.50	5458.13
442.68	5650.05
442.87	5575.16
443.05	5738.99
443.24	5774.10
443.43	5710.91
443.61	5640.69
443.80	5844.32
443.98	5741.33
444.17	5486.22
444.35	5755.38
444.54	5799.85
444.73	5626.65
444.91	5774.10
445.10	5820.91
445.28	5760.06
445.47	5809.21
445.65	5839.64
445.84	5769.42
446.02	5991.77
446.21	5844.32
446.39	5832.62
446.58	5865.38
446.77	5966.03
446.95	5790.49
447.14	5893.47
447.32	6085.39
447.51	5865.38
447.69	5916.87
447.88	5959.00
448.06	5832.62
448.25	5841.98
448.43	5902.83
448.62	6069.01
448.80	5982.41
448.99	6150.93
449.17	5998.79
449.36	6005.81
449.54	6097.10
449.73	6253.91
449.91	6256.25
450.10	6340.51
450.28	6342.85
450.46	6331.15
450.65	6296.04
450.83	6263.27
451.02	6270.30
451.20	6230.51
451.39	6230.51
451.57	6265.61
451.76	6239.87
451.94	6328.81
452.13	6609.67
452.31	6473.92
452.49	6235.19
452.68	6480.94
452.86	6324.13
453.05	6707.98
453.23	6612.01
453.42	6406.05
453.60	6513.71
453.78	6700.95
453.97	6366.26
454.15	6640.10
454.34	6623.72
454.52	6839.05
454.70	6712.66
454.89	6715.00
455.07	6956.07
455.26	6857.77
455.44	6981.82
455.62	6906.92
455.81	6719.68
455.99	6988.84
456.17	7007.56
456.36	7030.97
456.54	7056.72
456.73	7061.40
456.91	7218.21
457.09	7173.74
457.28	7353.96
457.46	7103.53
457.64	7478.01
457.83	7370.35
458.01	6974.80
458.19	7290.77
458.38	7157.36
458.56	7246.30
458.74	7456.95
458.93	7424.18
459.11	7222.89
459.29	7178.42
459.48	7454.61
459.66	7426.52
459.84	7527.16
460.03	7606.74
460.21	7709.72
460.39	7541.21
460.57	7625.47
460.76	7693.34
460.94	7639.51
461.12	7527.16
461.31	7805.69
461.49	7655.89
461.67	7597.38
461.85	7861.86
462.04	7812.71
462.22	8264.43
462.40	7988.25
462.59	7845.48
462.77	7871.22
462.95	7997.61
463.13	7875.90
463.32	7971.86
463.50	8243.37
463.68	8212.94
463.86	8086.55
464.05	7882.92
464.23	8016.33
464.41	8091.23
464.59	7967.18
464.78	8290.18
464.96	8367.42
465.14	8006.97
465.32	8262.09
465.50	8388.48
465.69	8318.26
465.87	8131.02
466.05	8128.68
466.23	8175.49
466.41	8262.09
466.60	8365.07
466.78	8383.80
466.96	8327.63
467.14	8266.77
467.32	8454.02
467.51	8610.83
467.69	8397.84
467.87	8512.53
468.05	8528.91
468.23	8362.73
468.41	8402.52
468.60	8568.70
468.78	8549.98
468.96	8748.92
469.14	8769.99
469.32	8648.28
469.50	8519.55
469.69	8887.01
469.87	8627.21
470.05	8910.42
470.23	8868.29
470.41	8828.50
470.59	8954.89
470.77	8905.74
470.95	8877.65
471.14	9289.59
471.32	9111.71
471.50	9074.26
471.68	9238.09
471.86	9268.52
472.04	9291.93
472.22	9469.81
472.40	9046.17
472.58	9202.99
472.77	9329.38
472.95	9666.41
473.13	9734.29
473.31	9645.35
473.49	9451.08
473.67	9617.26
473.85	9591.52
474.03	9926.21
474.21	9947.28
474.39	9811.53
474.57	10097.07
474.75	9916.85
474.93	10150.90
475.12	10129.84
475.30	10057.28
475.48	10057.28
475.66	10328.78
475.84	10134.52
476.02	10373.25
476.20	10331.12
476.38	10710.29
476.56	10406.02
476.74	10562.84
476.92	10588.58
477.10	10672.84
477.28	11103.50
477.46	10782.85
477.64	10878.81
477.82	11257.98
478.00	11225.21
478.18	11105.84
478.36	11339.90
478.54	11463.94
478.72	11440.54
478.90	11695.66
479.08	11669.91
479.26	11918.01
479.44	11906.31
479.62	11840.77
479.80	11929.71
479.98	12231.64
480.16	12329.94
480.34	12290.15
480.52	12421.22
480.70	12484.42
480.88	12142.70
481.06	12404.84
481.24	12461.01
481.41	12657.62
481.59	12938.48
481.77	13121.04
481.95	12854.22
482.13	13221.69
482.31	13067.21
482.49	13497.87
482.67	13415.95
482.85	13633.62
483.03	13797.46
483.21	14036.19
483.39	13839.59
483.57	14012.79
483.74	14284.29
483.92	14207.05
484.10	14251.52
484.28	14387.27
484.46	14548.77
484.64	14644.73
484.82	14626.01
485.00	14878.79
485.18	15028.58
485.35	15241.57
485.53	14778.14
485.71	14888.15
485.89	15171.35
486.07	15059.01
486.25	15213.48
486.43	15580.95
486.61	15740.10
486.78	15922.66
486.96	15784.57
487.14	16269.06
487.32	16205.87
487.50	16507.80
487.68	16666.95
487.85	16837.81
488.03	16652.91
488.21	16931.44
488.39	16980.59
488.57	16973.56
488.75	17334.01
488.92	17179.53
489.10	17591.47
489.28	17642.96
489.46	17802.11
489.64	17458.06
489.81	18270.22
489.99	18160.22
490.17	18132.13
490.35	18810.89
490.53	18471.51
490.70	18728.97
490.88	18588.53
491.06	18862.38
491.24	19075.37
491.41	18981.74
491.59	18799.18
491.77	19047.28
491.95	19248.57
492.13	19658.16
492.30	19552.84
492.48	20098.18
492.66	19482.62
492.84	19953.07
493.01	20219.89
493.19	20133.29
493.37	20196.48
493.54	20477.35
493.72	20744.17
493.90	20655.23
494.08	20723.10
494.25	21008.65
494.43	21181.85
494.61	21095.25
494.79	21282.49
494.96	21095.25
495.14	21420.58
495.32	21790.39
495.49	21701.45
495.67	21528.25
495.85	22075.93
496.02	22249.13
496.20	22019.76
496.38	22225.73
496.55	22132.11
496.73	22759.37
496.91	22307.65
497.09	22665.75
497.26	22937.25
497.44	23021.51
497.62	22909.16
497.79	23524.72
497.97	23110.45
498.14	23356.21
498.32	23688.56
498.50	23417.06
498.67	23730.69
498.85	23915.59
499.03	23988.15
499.20	23955.38
499.38	24339.23
499.56	24182.42
499.73	24137.94
499.91	24472.64
500.08	24666.91
500.26	24732.44
500.44	24594.35
500.61	24805.00
500.79	24236.25
500.97	24931.39
501.14	25570.35
501.32	24753.51
501.49	25041.39
501.67	24861.17
501.84	25713.13
502.02	25331.62
502.20	25443.96
502.37	25663.97
502.55	25619.50
502.72	25565.67
502.90	25757.60
503.07	25532.90
503.25	26146.12
503.43	25771.64
503.60	26122.72
503.78	26373.16
503.95	25944.84
504.13	26295.92
504.30	26494.86
504.48	26354.43
504.65	26616.57
504.83	26656.36
505.01	27077.66
505.18	26485.50
505.36	27094.04
505.53	27026.17
505.71	27173.62
505.88	27007.44
506.06	27047.23
506.23	27267.24
506.41	26874.03
506.58	27342.14
506.76	27599.60
506.93	27559.81
507.11	27562.15
507.28	27711.94
507.46	27339.80
507.63	27931.95
507.81	28058.34
507.98	27821.95
508.16	28009.19
508.33	28287.71
508.50	28100.47
508.68	28329.84
508.85	28755.82
509.03	28217.50
509.20	28781.57
509.38	28460.91
509.55	28929.02
509.73	28666.88
509.90	29184.14
510.08	29092.86
510.25	29078.82
510.42	29064.77
510.60	29434.58
510.77	29507.13
510.95	29752.89
511.12	29497.77
511.30	29792.68
511.47	30080.56
511.64	29633.52
511.82	29743.53
511.99	30033.75
512.17	30228.02
512.34	29951.84
512.51	29848.85
512.69	30539.31
512.86	30094.61
513.04	30382.49
513.21	30539.31
513.38	30059.50
513.56	30768.68
513.73	30426.96
513.90	30822.51
514.08	30806.13
514.25	31271.90
514.43	31201.68
514.60	30855.28
514.77	30782.73
514.95	31330.41
515.12	31021.46
515.29	31409.99
515.47	31285.94
515.64	31098.70
515.81	31527.02
515.99	31742.35
516.16	31454.46
516.33	31725.96
516.51	31601.91
516.68	31517.65
516.85	31323.39
517.03	31690.85
517.20	31639.36
517.37	32109.81
517.54	32264.28
517.72	31857.03
517.89	32027.89
518.06	32119.17
518.24	32165.98
518.41	31775.11
518.58	32191.73
518.75	32311.10
518.93	32498.34
519.10	32301.73
519.27	32797.93
519.45	32905.59
519.62	33376.04
519.79	32741.75
519.96	33500.09
520.14	33425.19
520.31	32779.20
520.48	33029.64
520.65	33177.09
520.83	33488.38
521.00	33504.77
521.17	33722.44
521.34	33560.94
521.52	33755.21
521.69	33628.82
521.86	33832.44
522.03	33823.08
522.20	34209.27
522.38	34050.11
522.55	33759.89
522.72	33968.19
522.89	33841.81
523.07	34431.62
523.24	33902.66
523.41	34192.89
523.58	34054.79
523.75	34897.39
523.92	35002.71
524.10	34780.36
524.27	34895.05
524.44	35005.05
524.61	34857.60
524.78	35199.32
524.96	34960.58
525.13	34803.77
525.30	35388.90
525.47	35304.64
525.64	35255.49
525.81	35393.58
525.98	35232.08
526.16	35260.17
526.33	35522.31
526.50	35405.28
526.67	35236.77
526.84	34955.90
527.01	35311.66
527.18	34983.99
527.36	35826.58
527.53	35878.07
527.70	36133.19
527.87	35777.43
528.04	35896.80
528.21	35718.92
528.38	36086.38
528.55	36072.34
528.72	36177.66
528.89	36655.13
529.07	36620.02
529.24	36137.87
529.41	36259.58
529.58	36477.25
529.75	36341.50
529.92	36636.41
530.09	36533.42
530.26	36912.59
530.43	36849.39
530.60	36416.40
530.77	36636.41
530.94	37074.09
531.11	37060.04
531.28	36978.12
531.46	36989.83
531.63	37343.25
531.80	37048.34
531.97	37041.32
532.14	37081.11
532.31	36926.63
532.48	37481.34
532.65	37429.85
532.82	36898.55
532.99	37425.17
533.16	37127.92
533.33	37195.79
533.50	37844.12
533.67	37818.38
533.84	37933.06
534.01	37823.06
534.18	37900.29
534.35	38080.52
534.52	37551.56
534.69	38047.75
534.86	37923.70
535.03	37989.24
535.20	38309.89
535.37	38539.26
535.54	38773.31
535.71	38312.23
535.88	38349.68
536.05	38094.56
536.22	38234.99
536.38	38253.72
536.55	37895.61
536.72	38061.79
536.89	38630.54
537.06	38485.43
537.23	38803.74
537.40	38401.17
537.57	38375.42
537.74	38536.92
537.91	38902.04
538.08	39009.71
538.25	38763.95
538.42	38785.02
538.59	39117.37
538.75	38820.13
538.92	39049.50
539.09	39129.08
539.26	39126.74
539.43	39297.59
539.60	39150.14
539.77	39487.18
539.94	39363.13
540.11	39337.38
540.28	39126.74
540.44	39065.88
540.61	39189.93
540.78	39323.34
540.95	39138.44
541.12	39243.76
541.29	39442.71
541.46	39321.00
541.62	39531.65
541.79	39810.17
541.96	39473.13
542.13	39571.44
542.30	39725.91
542.47	39796.13
542.63	39800.81
542.80	40142.53
542.97	40388.28
543.14	40486.59
543.31	40477.22
543.48	40243.17
543.64	40964.06
543.81	40659.79
543.98	40676.17
544.15	40395.31
544.32	40680.85
544.48	40783.83
544.65	40254.87
544.82	40828.30
544.99	40533.40
545.16	40549.78
545.32	40652.76
545.49	40744.05
545.66	40832.99
545.83	40666.81
546.00	41092.79
546.16	40891.50
546.33	40643.40
546.50	40414.03
546.67	40872.78
546.83	40453.82
547.00	40603.61
547.17	40975.76
547.34	40624.68
547.50	40919.59
547.67	41539.83
547.84	41041.29
548.00	41926.02
548.17	41504.72
548.34	41635.79
548.51	41839.42
548.67	41471.95
548.84	41816.01
549.01	41572.60
549.18	41724.73
549.34	41301.09
549.51	41610.04
549.68	41516.42
549.84	42150.71
550.01	41787.92
550.18	41752.82
550.34	42103.90
550.51	41605.36
550.68	41434.50
550.84	41464.93
551.01	41818.35
551.18	41539.83
551.34	41968.15
551.51	42073.47
551.68	41694.30
551.84	42085.17
552.01	42017.30
552.18	42227.95
552.34	41801.97
552.51	41975.17
552.68	42377.74
552.84	42373.06
553.01	42548.60
553.18	42263.05
553.34	42251.35
553.51	42328.59
553.67	42075.81
553.84	42635.20
554.01	42948.83
554.17	42607.11
554.34	42576.69
554.51	42721.80
554.67	43093.94
554.84	42377.74
555.00	42375.40
555.17	42319.23
555.33	42911.38
555.50	42897.34
555.67	42590.73
555.83	42707.76
556.00	43189.91
556.16	43402.89
556.33	42777.97
556.50	42801.38
556.66	43051.81
556.83	42997.98
556.99	43220.33
557.16	43091.60
557.32	43086.92
557.49	42511.15
557.65	42815.42
557.82	43096.28
557.98	43126.71
558.15	42759.25
558.32	43028.41
558.48	42951.17
558.65	43159.48
558.81	43016.71
558.98	43253.10
559.14	43501.20
559.31	43161.82
559.47	43150.12
559.64	43374.81
559.80	43442.68
559.97	43271.82
560.13	43349.06
560.30	42930.11
560.46	43283.53
560.63	43243.74
560.79	43356.08
560.96	43522.26
561.12	43676.74
561.29	43627.59
561.45	43548.01
561.61	43796.10
561.78	43100.97
561.94	43007.34
562.11	43253.10
562.27	43477.79
562.44	43540.99
562.60	44170.59
562.77	43323.32
562.93	43367.79
563.10	43653.33
563.26	43559.71
563.42	43655.67
563.59	43662.69
563.75	43370.13
563.92	43906.11
564.08	43468.43
564.24	44009.09
564.41	43674.40
564.57	43952.92
564.74	43768.02
564.90	44219.74
565.07	43976.33
565.23	43660.35
565.39	43484.81
565.56	43985.69
565.72	43786.74
565.88	43667.37
566.05	43763.34
566.21	43723.55
566.38	43587.80
566.54	43819.51
566.70	44362.51
566.87	44105.06
567.03	44098.03
567.19	44158.89
567.36	44229.10
567.52	43789.08
567.68	44184.63
567.85	44004.41
568.01	44191.65
568.17	43920.15
568.34	44327.41
568.50	43793.76
568.66	44313.36
568.83	43910.79
568.99	44292.30
569.15	43999.73
569.32	44144.84
569.48	44140.16
569.64	44378.90
569.81	44502.95
569.97	43915.47
570.13	44254.85
570.30	44170.59
570.46	44041.86
570.62	43711.84
570.78	43929.51
570.95	43992.71
571.11	44762.75
571.27	43978.67
571.43	43964.62
571.60	44149.53
571.76	44191.65
571.92	44369.54
572.09	43976.33
572.25	44165.91
572.41	44172.93
572.57	44390.60
572.74	44694.87
572.90	44179.95
573.06	43959.94
573.22	44549.76
573.38	44460.82
573.55	44069.95
573.71	44753.38
573.87	44737.00
574.03	44142.50
574.20	44254.85
574.36	44378.90
574.52	44626.99
574.68	44165.91
574.84	44126.12
575.01	44392.94
575.17	44713.59
575.33	44091.01
575.49	43702.48
575.65	44505.29
575.82	44842.32
575.98	44395.28
576.14	44807.22
576.30	44423.37
576.46	44715.93
576.62	44275.91
576.79	44304.00
576.95	43552.69
577.11	44535.71
577.27	44463.16
577.43	44643.38
577.59	44287.62
577.75	44645.72
577.92	44364.85
578.08	44313.36
578.24	44212.72
578.40	44392.94
578.56	44011.43
578.72	44524.01
578.88	44821.26
579.04	44498.26
579.21	44299.32
579.37	44952.33
579.53	44512.31
579.69	44596.57
579.85	44320.38
580.01	44514.65
580.17	44264.21
580.33	44481.88
580.49	45020.20
580.65	44385.92
580.82	44313.36
580.98	44545.08
581.14	44175.27
581.30	44493.58
581.46	44765.09
581.62	44514.65
581.78	44657.42
581.94	45067.02
582.10	44289.96
582.26	44680.83
582.42	44556.78
582.58	44662.10
582.74	44130.80
582.90	44271.23
583.06	44683.17
583.22	44266.55
583.38	44964.03
583.54	44893.82
583.70	44467.84
583.86	44479.54
584.02	44231.44
584.18	44563.80
584.34	44435.07
584.50	44809.56
584.66	44605.93
584.82	44044.20
584.98	44439.75
585.14	44975.73
585.30	44554.44
585.46	44594.23
585.62	44643.38
585.78	44587.21
585.94	44416.35
586.10	44442.09
586.26	44304.00
586.42	44793.17
586.58	44486.56
586.74	44552.10
586.90	44526.35
587.06	44336.77
587.22	44570.82
587.38	44287.62
587.54	44755.72
587.70	44861.05
587.86	45059.99
588.02	44776.79
588.18	45029.57
588.34	44898.50
588.49	44430.39
588.65	44231.44
588.81	44158.89
588.97	44671.46
589.13	44371.88
589.29	44526.35
589.45	44751.04
589.61	44804.88
589.77	44942.97
589.93	44680.83
590.08	45174.68
590.24	45345.54
590.40	45076.38
590.56	44851.69
590.72	44886.79
590.88	44416.35
591.04	44753.38
591.20	45216.81
591.35	44898.50
591.51	45055.31
591.67	44992.12
591.83	45254.26
591.99	45022.54
592.15	44802.53
592.31	44802.53
592.46	44619.97
592.62	45153.62
592.78	45188.72
592.94	45024.89
593.10	44776.79
593.26	44996.80
593.41	45029.57
593.57	44968.71
593.73	44783.81
593.89	45104.46
594.05	44919.56
594.20	44617.63
594.36	45282.34
594.52	44959.35
594.68	44734.66
594.84	44982.76
594.99	44996.80
595.15	44912.54
595.31	45464.91
595.47	45296.39
595.62	44980.42
595.78	44879.77
595.94	45205.11
596.10	44832.96
596.25	45544.48
596.41	45092.76
596.57	44809.56
596.73	44926.58
596.88	44851.69
597.04	45155.96
597.20	44549.76
597.36	45235.53
597.51	45221.49
597.67	44884.45
597.83	44926.58
597.99	45230.85
598.14	44994.46
598.30	45155.96
598.46	44851.69
598.61	45048.29
598.77	44994.46
598.93	44975.73
599.09	44926.58
599.24	45413.41
599.40	44964.03
599.56	45495.33
599.71	45418.10
599.87	45188.72
600.03	45282.34
600.18	45076.38
600.34	45382.99
600.50	45310.43
600.65	45078.72
600.81	45205.11
600.97	45338.52
601.12	45366.60
601.28	44973.39
601.44	44961.69
601.59	45261.28
601.75	44432.73
601.91	44938.29
602.06	45184.04
602.22	45071.70
602.37	44882.11
602.53	45134.89
602.69	45223.83
602.84	44912.54
603.00	45301.07
603.16	44474.86
603.31	44847.00
603.47	44851.69
603.62	44411.67
603.78	45153.62
603.94	45036.59
604.09	45237.87
604.25	45214.47
604.40	45347.88
604.56	45027.23
604.71	45172.34
604.87	44205.70
605.03	45106.80
605.18	44814.24
605.34	45041.27
605.49	44617.63
605.65	44657.42
605.80	45078.72
605.96	45036.59
606.12	45069.36
606.27	45366.60
606.43	44844.66
606.58	45240.21
606.74	44938.29
606.89	44512.31
607.05	44940.63
607.20	45186.38
607.36	44657.42
607.51	45001.48
607.67	45294.05
607.82	44718.28
607.98	44870.41
608.13	44505.29
608.29	44603.59
608.44	44395.28
608.60	44399.96
608.75	44652.74
608.91	44250.17
609.06	44612.95
609.22	45237.87
609.37	44371.88
609.53	44795.51
609.68	44741.68
609.84	44832.96
609.99	44788.49
610.15	44715.93
610.30	44659.76
610.46	44053.56
610.61	44313.36
610.76	44516.99
610.92	44294.64
611.07	44704.23
611.23	44334.43
611.38	44748.70
611.54	44711.25
611.69	44364.85
611.84	44280.60
612.00	44275.91
612.15	43976.33
612.31	44484.22
612.46	44280.60
612.62	44568.48
612.77	44631.68
612.92	44474.86
613.08	44236.12
613.23	44229.10
613.39	44236.12
613.54	44315.70
613.69	44055.90
613.85	43873.34
614.00	44385.92
614.15	44685.51
614.31	44254.85
614.46	44406.98
614.62	44182.29
614.77	43775.04
614.92	44292.30
615.08	44093.35
615.23	43833.55
615.38	43707.16
615.54	43957.60
615.69	43950.58
615.84	44116.76
616.00	43882.70
616.15	43805.47
616.30	43775.04
616.46	43393.53
616.61	43438.00
616.76	43929.51
616.92	43613.54
617.07	43592.48
617.22	43533.96
617.37	43915.47
617.53	43854.62
617.68	43913.13
617.83	43688.44
617.99	43835.89
618.14	43440.34
618.29	43653.33
618.45	43435.66
618.60	43505.88
618.75	43906.11
618.90	43697.80
619.06	43693.12
619.21	43456.73
619.36	44154.21
619.51	43337.36
619.67	43250.76
619.82	43540.99
619.97	43599.50
620.12	43030.75
620.28	43077.56
620.43	43166.50
620.58	43353.74
620.73	43138.41
620.89	43047.13
621.04	43098.62
621.19	43302.25
621.34	42649.24
621.49	43208.63
621.65	42873.93
621.80	43306.93
621.95	42476.04
622.10	42810.74
622.25	42981.60
622.41	42602.43
622.56	42871.59
622.71	43253.10
622.86	43126.71
623.01	42864.57
623.16	42689.03
623.32	42841.17
623.47	42887.98
623.62	42803.72
623.77	42665.63
623.92	42885.64
624.07	42777.97
624.23	42501.79
624.38	42724.14
624.53	41923.68
624.68	42588.39
624.83	43065.86
624.98	42087.51
625.13	42398.80
625.29	42380.08
625.44	42639.88
625.59	42078.15
625.74	42155.39
625.89	42082.83
626.04	42398.80
626.19	42071.13
626.34	42319.23
626.49	42169.43
626.65	42185.82
626.80	42513.49
626.95	41818.35
627.10	41926.02
627.25	42232.63
627.40	41968.15
627.55	41691.96
627.70	41652.17
627.85	41635.79
628.00	41706.01
628.15	42288.80
628.30	41776.22
628.45	42094.53
628.60	42014.96
628.76	41666.22
628.91	41879.21
629.06	41869.84
629.21	41668.56
629.36	41762.18
629.51	41876.86
629.66	41588.98
629.81	41408.76
629.96	41581.96
630.11	41593.66
630.26	41586.64
630.41	41874.52
630.56	41521.10
630.71	41287.05
630.86	41326.84
631.01	41041.29
631.16	41530.47
631.31	41310.46
631.46	41045.97
631.61	41357.27
631.76	41359.61
631.91	41642.81
632.06	41235.56
632.21	41270.67
632.36	41825.37
632.51	41560.89
632.66	41146.62
632.81	41277.69
632.96	41109.17
633.10	40652.76
633.25	41090.44
633.40	41076.40
633.55	41368.97
633.70	41277.69
633.85	40617.66
634.00	40877.46
634.15	40992.14
634.30	41048.32
634.45	41048.32
634.60	40416.37
634.75	40706.60
634.90	40879.80
635.05	40954.69
635.19	40404.67
635.34	41139.60
635.49	40484.25
635.64	40800.22
635.79	40446.80
635.94	40320.41
636.09	40161.25
636.24	40079.33
636.39	40341.47
636.53	39969.33
636.68	40404.67
636.83	40095.72
636.98	40355.52
637.13	40091.04
637.28	40591.91
637.43	40383.60
637.57	40390.62
637.72	40601.27
637.87	40425.73
638.02	40191.68
638.17	40072.31
638.32	40107.42
638.46	39889.75
638.61	39824.22
638.76	39454.41
638.91	40086.36
639.06	40411.69
639.20	40009.12
639.35	40360.20
639.50	39756.34
639.65	40240.83
639.80	39915.50
639.94	39899.11
640.09	39999.76
640.24	39777.40
640.39	39480.16
640.54	39601.86
640.68	39749.32
640.83	40011.46
640.98	39735.27
641.13	39592.50
641.27	39768.04
641.42	39665.06
641.57	39585.48
641.72	39723.57
641.86	39220.36
642.01	39442.71
642.16	39512.92
642.31	39065.88
642.45	39388.88
642.60	38909.07
642.75	39154.82
642.90	39290.57
643.04	39562.08
643.19	38916.09
643.34	39503.56
643.48	39459.09
643.63	39395.90
643.78	38993.32
643.93	38663.31
644.07	38834.17
644.22	38742.89
644.37	38930.13
644.51	38918.43
644.66	38817.78
644.81	39096.31
644.95	38859.91
645.10	38948.85
645.25	39143.12
645.39	38986.30
645.54	38895.02
645.69	38979.28
645.83	38623.52
645.98	38733.53
646.13	39278.87
646.27	39257.81
646.42	38815.44
646.57	38990.98
646.71	39150.14
646.86	38752.25
647.00	38567.35
647.15	38436.28
647.30	38995.67
647.44	39119.71
647.59	38724.16
647.74	38590.75
647.88	38330.95
648.03	38445.64
648.17	38724.16
648.32	38181.16
648.47	38183.50
648.61	38321.59
648.76	38485.43
648.90	38754.59
649.05	38298.19
649.20	38384.79
649.34	38876.30
649.49	38192.86
649.63	38672.67
649.78	38473.73
649.92	38160.09
650.07	38548.62
650.21	38211.59
650.36	38455.00
650.51	38089.88
650.65	38059.45
650.80	38440.96
650.94	38525.22
651.09	38471.39
651.23	37928.38
651.38	37677.94
651.52	37710.71
651.67	38370.74
651.81	37647.52
651.96	37930.72
652.10	37919.02
652.25	37907.32
652.39	37951.79
652.54	37605.39
652.68	37804.33
652.83	38225.63
652.97	37893.27
653.12	38050.09
653.26	37851.14
653.41	37975.19
653.55	37764.54
653.70	37500.06
653.84	38192.86
653.99	37743.48
654.13	37621.77
654.27	37675.60
654.42	37586.66
654.56	37474.32
654.71	37834.76
654.85	37312.82
655.00	37067.06
655.14	37258.99
655.29	37029.62
655.43	37137.28
655.57	37303.46
655.72	37010.89
655.86	37385.38
656.01	37177.07
656.15	37015.57
656.30	37137.28
656.44	37078.77
656.58	36730.03
656.73	36825.99
656.87	36964.08
657.01	36823.65
657.16	37095.15
657.30	36554.49
657.45	37099.83
657.59	36755.77
657.73	36514.70
657.88	36879.82
658.02	37013.23
658.16	36367.24
658.31	36957.06
658.45	36837.69
658.60	36680.88
658.74	36781.52
658.88	36950.04
659.03	36533.42
659.17	36390.65
659.31	36367.24
659.46	35906.16
659.60	36430.44
659.74	35964.67
659.89	35835.94
660.03	36004.46
660.17	36327.45
660.32	36240.86
660.46	36503.00
660.60	36240.86
660.74	36210.43
660.89	35810.20
661.03	35435.71
661.17	35608.91
661.32	35566.78
661.46	35725.94
661.60	35522.31
661.74	35608.91
661.89	35707.21
662.03	35611.25
662.17	35714.23
662.31	35564.44
662.46	35360.81
662.60	35725.94
662.74	35438.05
662.88	35335.07
663.03	35601.89
663.17	35159.53
663.31	35180.59
663.45	35627.63
663.60	34902.07
663.74	35297.62
663.88	34869.30
664.02	35030.80
664.17	34920.79
664.31	35009.73
664.45	34501.84
664.59	34504.18
664.73	35058.88
664.88	34579.07
665.02	34153.10
665.16	34052.45
665.30	34347.36
665.44	34773.34
665.59	34078.20
665.73	34548.65
665.87	33689.67
666.01	33865.21
666.15	33652.22
666.29	33989.26
666.44	34134.37
666.58	34106.29
666.72	33902.66
666.86	34087.56
667.00	34330.98
667.14	33944.79
667.28	33890.96
667.43	33560.94
667.57	33886.28
667.71	33699.03
667.85	33591.37
667.99	33509.45
668.13	33338.59
668.27	33479.02
668.41	33532.86
668.56	33106.88
668.70	33495.41
668.84	33177.09
668.98	33212.20
669.12	33123.26
669.26	33469.66
669.40	32947.72
669.54	32858.78
669.68	33275.40
669.82	33130.28
669.96	32783.88
670.10	32879.85
670.25	32732.39
670.39	32982.83
670.53	32912.61
670.67	32793.25
670.81	32376.63
670.95	32753.46
671.09	32697.28
671.23	32826.01
671.37	32505.36
671.51	32886.87
671.65	31964.70
671.79	31864.05
671.93	31807.88
672.07	32369.61
672.21	32060.66
672.35	31896.82
672.49	31709.58
672.63	31948.31
672.77	31707.24
672.91	31826.60
673.05	31484.89
673.19	31761.07
673.33	31250.83
673.47	31409.99
673.61	31168.91
673.75	31241.47
673.89	30962.95
674.03	31246.15
674.17	31211.04
674.31	30885.71
674.45	30930.18
674.59	30916.14
674.73	30693.79
674.87	30899.75
675.01	30604.84
675.15	30857.62
675.29	31323.39
675.43	30515.90
675.56	30450.37
675.70	30532.29
675.84	30249.08
675.98	29350.32
676.12	29788.00
676.26	29977.58
676.40	29874.60
676.54	30253.76
676.68	29546.92
676.82	29142.01
676.96	29575.01
677.10	29177.12
677.23	29495.43
677.37	29249.67
677.51	29432.24
677.65	29151.37
677.79	29153.71
677.93	29191.16
678.07	28748.80
678.21	28716.03
678.34	28552.20
678.48	28627.09
678.62	28854.12
678.76	28407.08
678.90	28074.73
679.04	27908.55
679.18	28208.14
679.31	28032.60
679.45	27695.56
679.59	27784.50
679.73	28088.77
679.87	27515.34
680.00	27892.16
680.14	27789.18
680.28	27274.26
680.42	27358.52
680.56	27316.39
680.70	27332.78
680.83	27264.90
680.97	26977.01
681.11	27131.49
681.25	26586.15
681.39	26817.86
681.52	26955.95
681.66	26644.66
681.80	26609.55
681.94	26579.12
682.07	26342.73
682.21	26253.79
682.35	26455.08
682.49	26192.94
682.62	26394.22
682.76	26469.12
682.90	26022.08
683.04	25954.20
683.17	25888.67
683.31	25984.63
683.45	25825.47
683.59	25439.28
683.72	25553.97
683.86	25310.55
684.00	24961.81
684.13	25158.42
684.27	25301.19
684.41	25287.15
684.55	25149.06
684.68	24800.32
684.82	24552.22
684.96	24826.06
685.09	24727.76
685.23	24554.56
685.37	24622.44
685.50	24245.61
685.64	24631.80
685.78	24159.01
685.91	24304.12
686.05	24215.18
686.19	23576.22
686.32	23793.89
686.46	23864.10
686.60	23697.92
686.73	23520.04
686.87	23417.06
687.01	23278.97
687.14	23328.12
687.28	22923.21
687.42	23054.28
687.55	22747.67
687.69	22995.76
687.82	22930.23
687.96	23178.33
688.10	22658.73
688.23	22913.84
688.37	22401.27
688.50	22312.33
688.64	22293.60
688.78	22225.73
688.91	21909.75
689.05	22391.91
689.18	22174.24
689.32	21558.67
689.46	21867.63
689.59	22195.30
689.73	21968.27
689.86	21486.12
690.00	21874.65
690.13	21876.99
690.27	21666.34
690.41	21504.84
690.54	21097.59
690.68	20938.43
690.81	20905.66
690.95	20697.36
691.08	20800.34
691.22	20884.60
691.35	20615.44
691.49	20879.92
691.62	20711.40
691.76	20697.36
691.89	21078.86
692.03	20526.50
692.16	20486.71
692.30	20093.50
692.43	20465.64
692.57	20259.68
692.70	20170.74
692.84	19861.79
692.97	19398.36
693.11	19648.80
693.24	19606.67
693.38	19714.33
693.51	19515.39
693.65	19508.37
693.78	19719.01
693.92	19349.21
694.05	19400.70
694.19	19325.80
694.32	18789.82
694.45	18829.61
694.59	18974.72
694.72	18801.52
694.86	18911.53
694.99	18927.91
695.13	18710.24
695.26	18387.25
695.39	18422.36
695.53	18560.45
695.66	18143.83
695.80	18373.21
695.93	18246.82
696.07	17991.70
696.20	18101.70
696.33	17935.53
696.47	18143.83
696.60	17804.46
696.73	17951.91
696.87	17809.14
697.00	17596.15
697.14	17584.44
697.27	17661.68
697.40	17448.69
697.54	17343.37
697.67	17076.55
697.80	17436.99
697.94	17184.21
698.07	17060.16
698.21	16957.18
698.34	17144.42
698.47	16938.46
698.61	16472.69
698.74	16329.92
698.87	16791.00
699.01	16388.43
699.14	16243.32
699.27	16311.19
699.40	16184.80
699.54	16023.31
699.67	15997.56
699.80	15964.79
699.94	16116.93
700.07	16142.67
700.20	16231.62
700.34	15777.55
700.47	15932.03
700.60	15957.77
700.73	15974.16
700.87	15702.65
701.00	15702.65
701.13	15449.88
701.26	15475.62
701.40	15372.64
701.53	15075.39
701.66	15232.21
701.79	15183.06
701.93	14663.46
702.06	14752.40
702.19	15030.92
702.32	14892.83
702.46	14941.98
702.59	14644.73
702.72	14714.95
702.85	14640.05
702.99	14602.60
703.12	14675.16
703.25	14373.23
703.38	14441.11
703.51	14391.95
703.65	14139.18
703.78	14403.66
703.91	13799.80
704.04	13989.38
704.17	13881.72
704.31	13916.83
704.44	13729.58
704.57	13626.60
704.70	13647.66
704.83	13659.37
704.96	13816.18
705.10	13614.90
705.23	13540.00
>>>>>End Processed Spectral Data<<<<<
