SpectraSuite Data File
++++++++++++++++++++++++++++++++++++
Date: Fri Oct 25 11:33:44 EDT 2013
User: price-jones
Dark Spectrum Present: No
Reference Spectrum Present: No
Number of Sampled Component Spectra: 1
Spectrometers: USB2+H05261
Integration Time (usec): 100000 (USB2+H05261)
Spectra Averaged: 1 (USB2+H05261)
Boxcar Smoothing: 0 (USB2+H05261)
Correct for Electrical Dark: No (USB2+H05261)
Strobe/Lamp Enabled: No (USB2+H05261)
Correct for Detector Non-linearity: No (USB2+H05261)
Correct for Stray Light: No (USB2+H05261)
Number of Pixels in Processed Spectrum: 2048
>>>>>Begin Processed Spectral Data<<<<<
365.73	348.74
365.92	348.74
366.12	348.74
366.32	205.97
366.52	135.75
366.72	222.35
366.91	180.22
367.11	117.03
367.31	166.18
367.51	84.26
367.70	126.39
367.90	112.35
368.10	154.48
368.30	191.92
368.49	180.22
368.69	217.67
368.89	208.31
369.09	175.54
369.28	194.26
369.48	241.08
369.68	170.86
369.87	266.82
370.07	266.82
370.27	327.68
370.47	292.57
370.66	550.03
370.86	477.47
371.06	606.20
371.25	575.77
371.45	524.28
371.65	550.03
371.84	521.94
372.04	568.75
372.24	629.60
372.44	564.07
372.63	552.37
372.83	617.90
373.03	615.56
373.22	559.39
373.42	613.22
373.62	603.86
373.81	699.82
374.01	674.07
374.21	615.56
374.40	688.12
374.60	606.20
374.79	631.94
374.99	610.88
375.19	667.05
375.38	732.59
375.58	669.39
375.78	667.05
375.97	678.76
376.17	732.59
376.37	704.50
376.56	723.23
376.76	688.12
376.95	610.88
377.15	709.18
377.35	713.86
377.54	678.76
377.74	650.67
377.93	713.86
378.13	697.48
378.33	734.93
378.52	702.16
378.72	720.88
378.91	688.12
379.11	655.35
379.31	622.58
379.50	648.33
379.70	723.23
379.89	842.59
380.09	770.04
380.28	793.44
380.48	699.82
380.68	653.01
380.87	664.71
381.07	763.01
381.26	791.10
381.46	816.85
381.65	812.17
381.85	772.38
382.04	828.55
382.24	727.91
382.43	763.01
382.63	819.19
382.83	791.10
383.02	812.17
383.22	748.97
383.41	849.61
383.61	784.08
383.80	830.89
384.00	819.19
384.19	763.01
384.39	821.53
384.58	826.21
384.78	849.61
384.97	777.06
385.17	828.55
385.36	791.10
385.56	938.55
385.75	814.51
385.95	830.89
386.14	816.85
386.34	842.59
386.53	903.45
386.72	908.13
386.92	905.79
387.11	854.30
387.31	837.91
387.50	919.83
387.70	922.17
387.89	933.87
388.09	847.27
388.28	828.55
388.48	873.02
388.67	957.28
388.86	877.70
389.06	976.00
389.25	938.55
389.45	973.66
389.64	976.00
389.84	957.28
390.03	936.21
390.22	1018.13
390.42	1015.79
390.61	901.11
390.81	959.62
391.00	968.98
391.19	1029.84
391.39	924.51
391.58	1029.84
391.78	992.39
391.97	980.68
392.16	1050.90
392.36	1036.86
392.55	1011.11
392.75	1011.11
392.94	1062.60
393.13	1022.81
393.33	985.37
393.52	1160.91
393.71	1165.59
393.91	1046.22
394.10	1062.60
394.29	1116.44
394.49	1036.86
394.68	1160.91
394.88	1104.73
395.07	1196.01
395.26	1172.61
395.46	1090.69
395.65	1118.78
395.84	1242.82
396.04	1160.91
396.23	1212.40
396.42	1224.10
396.62	1231.12
396.81	1186.65
397.00	1231.12
397.19	1235.80
397.39	1198.35
397.58	1238.14
397.77	1296.66
397.97	1214.74
398.16	1280.27
398.35	1315.38
398.55	1308.36
398.74	1315.38
398.93	1322.40
399.12	1334.11
399.32	1280.27
399.51	1259.21
399.70	1296.66
399.90	1387.94
400.09	1369.21
400.28	1357.51
400.47	1399.64
400.67	1348.15
400.86	1317.72
401.05	1416.02
401.24	1481.56
401.44	1514.33
401.63	1385.60
401.82	1434.75
402.01	1376.24
402.21	1465.18
402.40	1432.41
402.59	1448.79
402.78	1483.90
402.97	1519.01
403.17	1523.69
403.36	1614.97
403.55	1596.25
403.74	1689.87
403.93	1579.86
404.13	1540.07
404.32	1591.56
404.51	1582.20
404.70	1717.95
404.89	1680.50
405.09	1624.33
405.28	1638.38
405.47	1678.16
405.66	1732.00
405.85	1614.97
406.05	1701.57
406.24	1710.93
406.43	1785.83
406.62	1757.74
406.81	1827.96
407.00	1797.53
407.20	1837.32
407.39	1874.77
407.58	1881.79
407.77	1907.54
407.96	1764.76
408.15	1842.00
408.34	1975.41
408.54	1895.83
408.73	1949.67
408.92	1991.80
409.11	1921.58
409.30	1996.48
409.49	1977.75
409.68	1998.82
409.87	2003.50
410.07	1987.11
410.26	1998.82
410.45	2015.20
410.64	2172.02
410.83	2022.22
411.02	2101.80
411.21	2174.36
411.40	2160.31
411.59	2228.19
411.78	2380.32
411.98	2239.89
412.17	2223.51
412.36	2270.32
412.55	2279.68
412.74	2359.26
412.93	2373.30
413.12	2284.36
413.31	2434.16
413.50	2462.24
413.69	2406.07
413.88	2394.37
414.07	2382.67
414.26	2546.50
414.45	2502.03
414.64	2513.74
414.83	2544.16
415.02	2595.65
415.22	2672.89
415.41	2775.88
415.60	2635.44
415.79	2743.11
415.98	2761.83
416.17	2738.43
416.36	2677.57
416.55	2780.56
416.74	2789.92
416.93	2792.26
417.12	2862.48
417.31	2848.43
417.50	2818.00
417.69	2946.73
417.88	2939.71
418.07	2871.84
418.26	2916.31
418.45	3077.80
418.64	3049.72
418.83	3075.46
419.02	3014.61
419.21	3206.53
419.39	3096.53
419.58	3042.70
419.77	3164.40
419.96	3208.87
420.15	3208.87
420.34	3101.21
420.53	3204.19
420.72	3279.09
420.91	3262.71
421.10	3152.70
421.29	3398.46
421.48	3243.98
421.67	3190.15
421.86	3311.86
422.05	3377.39
422.24	3272.07
422.43	3344.63
422.61	3246.32
422.80	3356.33
422.99	3300.16
423.18	3344.63
423.37	3510.80
423.56	3410.16
423.75	3417.18
423.94	3314.20
424.13	3173.77
424.32	3239.30
424.50	3435.91
424.69	3421.86
424.88	3438.25
425.07	3531.87
425.26	3363.35
425.45	3482.72
425.64	3566.98
425.83	3410.16
426.01	3482.72
426.20	3412.50
426.39	3459.31
426.58	3398.46
426.77	3384.41
426.96	3590.38
427.15	3531.87
427.33	3543.57
427.52	3620.81
427.71	3534.21
427.90	3576.34
428.09	3651.24
428.28	3559.95
428.46	3686.34
428.65	3590.38
428.84	3829.12
429.03	3915.72
429.22	3646.55
429.40	3691.02
429.59	3922.74
429.78	3747.20
429.97	3712.09
430.16	3688.68
430.34	3815.07
430.53	3990.61
430.72	3852.52
430.91	3768.26
431.10	3836.14
431.28	3864.22
431.47	3943.80
431.66	3932.10
431.85	3969.55
432.03	4095.94
432.22	4102.96
432.41	4063.17
432.60	4173.18
432.79	4145.09
432.97	4236.37
433.16	4182.54
433.35	4177.86
433.54	4184.88
433.72	4203.60
433.91	4119.34
434.10	4245.73
434.28	4121.68
434.47	4252.75
434.66	4390.84
434.85	4358.08
435.03	4479.79
435.22	4407.23
435.41	4374.46
435.59	4449.36
435.78	4362.76
435.97	4409.57
436.16	4365.10
436.34	4432.97
436.53	4550.00
436.72	4432.97
436.90	4360.42
437.09	4564.04
437.28	4503.19
437.46	4573.41
437.65	4526.60
437.84	4564.04
438.02	4655.33
438.21	4697.46
438.40	4561.70
438.58	4814.48
438.77	4664.69
438.96	4683.41
439.14	4767.67
439.33	4837.89
439.52	4877.68
439.70	4950.23
439.89	5050.88
440.08	5029.81
440.26	4901.08
440.45	5085.98
440.63	5149.18
440.82	5118.75
441.01	5121.09
441.19	5270.89
441.38	5252.16
441.57	5252.16
441.75	5093.01
441.94	5376.21
442.12	5359.83
442.31	5448.77
442.50	5474.51
442.68	5394.93
442.87	5385.57
443.05	5556.43
443.24	5568.13
443.43	5584.52
443.61	5640.69
443.80	5575.16
443.98	5474.51
444.17	5338.76
444.35	5579.84
444.54	5731.97
444.73	5741.33
444.91	5612.60
445.10	5661.76
445.28	5724.95
445.47	5549.41
445.65	5783.46
445.84	5692.18
446.02	5802.19
446.21	5769.42
446.39	5706.23
446.58	5720.27
446.77	5851.34
446.95	5671.12
447.14	5706.23
447.32	5713.25
447.51	5750.70
447.69	5722.61
447.88	5881.77
448.06	5820.91
448.25	5778.78
448.43	5895.81
448.62	5738.99
448.80	5902.83
448.99	5968.37
449.17	5916.87
449.36	5823.25
449.54	5891.13
449.73	6108.80
449.91	6223.48
450.10	5895.81
450.28	6197.74
450.46	6183.70
450.65	6188.38
450.83	6132.20
451.02	6078.37
451.20	6415.41
451.39	6363.92
451.57	6361.58
451.76	6277.32
451.94	6202.42
452.13	6214.12
452.31	6310.08
452.49	6066.67
452.68	6335.83
452.86	6370.94
453.05	6377.96
453.23	6555.84
453.42	6216.46
453.60	6207.10
453.78	6429.45
453.97	6448.18
454.15	6455.20
454.34	6410.73
454.52	6420.09
454.70	6506.69
454.89	6523.07
455.07	6726.70
455.26	6586.27
455.44	6752.45
455.62	6862.45
455.81	6600.31
455.99	6726.70
456.17	6670.53
456.36	6878.83
456.54	6935.01
456.73	6956.07
456.91	7124.59
457.09	6946.71
457.28	7105.87
457.46	6963.09
457.64	7101.19
457.83	7220.55
458.01	6904.58
458.19	7054.37
458.38	7066.08
458.56	7300.13
458.74	7262.68
458.93	7185.44
459.11	7136.29
459.29	7101.19
459.48	7262.68
459.66	7157.36
459.84	7346.94
460.03	7625.47
460.21	7232.26
460.39	7295.45
460.57	7421.84
460.76	7597.38
460.94	7571.63
461.12	7456.95
461.31	7445.24
461.49	7520.14
461.67	7555.25
461.85	7468.65
462.04	7655.89
462.22	7983.57
462.40	7714.41
462.59	7805.69
462.77	7674.62
462.95	7803.35
463.13	7911.01
463.32	7857.18
463.50	7922.71
463.68	7939.10
463.86	7798.66
464.05	7817.39
464.23	7943.78
464.41	7875.90
464.59	7768.24
464.78	8194.22
464.96	8060.80
465.14	7964.84
465.32	8025.70
465.50	8074.85
465.69	8100.59
465.87	8271.45
466.05	8046.76
466.23	8161.45
466.41	8128.68
466.60	8339.33
466.78	8006.97
466.96	8285.50
467.14	8236.35
467.32	8318.26
467.51	8409.54
467.69	8102.93
467.87	8311.24
468.05	8528.91
468.23	8341.67
468.41	8348.69
468.60	8454.02
468.78	8503.17
468.96	8617.85
469.14	8587.43
469.32	8688.07
469.50	8472.74
469.69	8746.58
469.87	8805.10
470.05	8641.26
470.23	8830.84
470.41	8786.37
470.59	9015.74
470.77	8758.28
470.95	8877.65
471.14	9121.07
471.32	8610.83
471.50	9053.19
471.68	8992.34
471.86	9083.62
472.04	9015.74
472.22	9320.01
472.40	9174.90
472.58	9385.55
472.77	9355.12
472.95	9399.59
473.13	9624.28
473.31	9401.93
473.49	9280.22
473.67	9483.85
473.85	9586.83
474.03	9898.13
474.21	9767.06
474.39	9743.65
474.57	10071.33
474.75	10073.67
474.93	9888.76
475.12	10043.24
475.30	9935.57
475.48	10129.84
475.66	10083.03
475.84	10008.13
476.02	10403.68
476.20	10153.24
476.38	10492.62
476.56	10494.96
476.74	10611.99
476.92	10623.69
477.10	10595.61
477.28	10581.56
477.46	10689.23
477.64	10934.98
477.82	11068.39
478.00	11318.83
478.18	11087.12
478.36	11272.02
478.54	11232.23
478.72	11583.31
478.90	11665.23
479.08	11637.14
479.26	11695.66
479.44	11850.13
479.62	11838.43
479.80	11971.84
479.98	11974.18
480.16	12266.75
480.34	11999.93
480.52	12177.81
480.70	12390.80
480.88	12224.62
481.06	12451.65
481.24	12463.35
481.41	12725.49
481.59	12720.81
481.77	12784.01
481.95	12961.89
482.13	12905.71
482.31	13214.66
482.49	13380.84
482.67	13338.71
482.85	13364.46
483.03	13619.58
483.21	13722.56
483.39	13989.38
483.57	13774.05
483.74	13919.17
483.92	14101.73
484.10	13951.93
484.28	14204.71
484.46	14860.06
484.64	14728.99
484.82	14466.85
485.00	14583.88
485.18	15059.01
485.35	15274.34
485.53	14979.43
485.71	15073.05
485.89	15421.79
486.07	15597.33
486.25	15630.10
486.43	15440.51
486.61	15648.82
486.78	15782.23
486.96	15815.00
487.14	16149.70
487.32	16332.26
487.50	16528.86
487.68	16362.69
487.85	16641.21
488.03	16828.45
488.21	16856.54
488.39	16961.86
488.57	17097.61
488.75	17362.09
488.92	17380.82
489.10	17678.07
489.28	17502.53
489.46	18150.85
489.64	18045.53
489.81	18298.31
489.99	18281.92
490.17	18127.45
490.35	18071.28
490.53	18602.58
490.70	18452.78
490.88	18806.20
491.06	18743.01
491.24	19047.28
491.41	19084.73
491.59	19412.40
491.77	19503.68
491.95	19487.30
492.13	19616.03
492.30	19770.51
492.48	19777.53
492.66	20011.58
492.84	19988.18
493.01	20166.06
493.19	20315.85
493.37	20318.19
493.54	20652.89
493.72	20753.53
493.90	20350.96
494.08	20975.88
494.25	20732.47
494.43	21039.08
494.61	21216.96
494.79	21364.41
494.96	21085.89
495.14	21401.86
495.32	21561.02
495.49	21898.05
495.67	21731.87
495.85	21970.61
496.02	22230.41
496.20	22132.11
496.38	22356.80
496.55	22679.79
496.73	22850.65
496.91	22735.96
497.09	22857.67
497.26	23178.33
497.44	23084.70
497.62	23269.61
497.79	23494.30
497.97	23358.55
498.14	23803.25
498.32	23583.24
498.50	23960.06
498.67	24130.92
498.85	23667.50
499.03	23859.42
499.20	23960.06
499.38	24203.48
499.56	24304.12
499.73	24748.82
499.91	24669.25
500.08	24830.74
500.26	24631.80
500.44	25085.86
500.61	24933.73
500.79	24538.18
500.97	25090.54
501.14	25467.37
501.32	25191.19
501.49	25348.00
501.67	25474.39
501.84	25518.86
502.02	25530.56
502.20	25640.57
502.37	25802.07
502.55	26019.74
502.72	26188.25
502.90	26328.69
503.07	26019.74
503.25	25851.22
503.43	26122.72
503.60	26579.12
503.78	26553.38
503.95	26214.00
504.13	26642.32
504.30	26897.44
504.48	26836.58
504.65	26864.67
504.83	27241.50
505.01	27613.64
505.18	27115.11
505.36	27513.00
505.53	27131.49
505.71	27393.63
505.88	27601.94
506.06	27241.50
506.23	27573.85
506.41	27342.14
506.58	27803.22
506.76	27709.60
506.93	28416.44
507.11	27955.36
507.28	28446.87
507.46	28006.85
507.63	28072.39
507.81	28638.80
507.98	28362.61
508.16	28638.80
508.33	29041.37
508.50	29034.35
508.68	29013.28
508.85	29083.50
509.03	29055.41
509.20	29153.71
509.38	29467.34
509.55	29352.66
509.73	29081.16
509.90	29425.22
510.08	29350.32
510.25	29579.69
510.42	29743.53
510.60	29682.67
510.77	29991.62
510.95	30092.27
511.12	29837.15
511.30	30312.28
511.47	30239.72
511.64	30024.39
511.82	30068.86
511.99	30380.15
512.17	30595.48
512.34	30410.58
512.51	30866.98
512.69	31061.25
512.86	31110.40
513.04	30967.63
513.21	31129.12
513.38	31077.63
513.56	31131.47
513.73	31084.65
513.90	31124.44
514.08	31119.76
514.25	31658.09
514.43	31449.78
514.60	32119.17
514.77	31896.82
514.95	31672.13
515.12	31651.06
515.29	31662.77
515.47	32112.15
515.64	31992.78
515.81	32107.47
515.99	32498.34
516.16	32219.81
516.33	32699.62
516.51	32456.21
516.68	32584.94
516.85	32519.40
517.03	32774.52
517.20	32821.33
517.37	32449.19
517.54	33118.58
517.72	33088.15
517.89	33275.40
518.06	33226.24
518.24	32823.67
518.41	33008.58
518.58	32978.15
518.75	33357.32
518.93	33331.57
519.10	33172.41
519.27	33610.09
519.45	33638.18
519.62	33806.70
519.79	33783.29
519.96	33841.81
520.14	33874.57
520.31	33546.90
520.48	34073.52
520.65	34108.63
520.83	34595.46
521.00	34466.73
521.17	33858.19
521.34	34707.80
521.52	34291.19
521.69	34918.45
521.86	34948.88
522.03	34527.58
522.20	35262.51
522.38	35065.91
522.55	34967.60
522.72	35295.28
522.89	34740.57
523.07	35648.70
523.24	35119.74
523.41	35321.02
523.58	35461.46
523.75	35384.22
523.92	35264.85
524.10	35541.03
524.27	35648.70
524.44	35800.83
524.61	36170.64
524.78	36362.56
524.96	35948.29
525.13	36355.54
525.30	36390.65
525.47	36409.37
525.64	36315.75
525.81	36467.89
525.98	36687.90
526.16	36315.75
526.33	36521.72
526.50	36510.02
526.67	36346.18
526.84	36563.85
527.01	36587.25
527.18	36769.82
527.36	36715.98
527.53	36919.61
527.70	37310.48
527.87	37287.07
528.04	36823.65
528.21	37610.07
528.38	37361.97
528.55	37783.27
528.72	37502.40
528.89	37467.30
529.07	37266.01
529.24	37251.97
529.41	37467.30
529.58	37736.46
529.75	37574.96
529.92	37579.64
530.09	37600.71
530.26	37507.08
530.43	37820.72
530.60	37577.30
530.77	37900.29
530.94	37874.55
531.11	38382.45
531.28	38220.95
531.46	37914.34
531.63	38405.85
531.80	38450.32
531.97	38440.96
532.14	38340.32
532.31	38583.73
532.48	38113.28
532.65	38572.03
532.82	38337.98
532.99	38646.93
533.16	38700.76
533.33	38923.11
533.50	39342.06
533.67	39082.27
533.84	38490.11
534.01	39098.65
534.18	39412.28
534.35	39438.03
534.52	39203.97
534.69	39615.91
534.86	39833.58
535.03	39166.52
535.20	39112.69
535.37	39889.75
535.54	39524.63
535.71	39695.49
535.88	39849.96
536.05	39695.49
536.22	39854.64
536.38	40088.70
536.55	39789.11
536.72	39569.10
536.89	39735.27
537.06	39606.55
537.23	40079.33
537.40	39718.89
537.57	39826.56
537.74	40016.14
537.91	40252.53
538.08	40378.92
538.25	40100.40
538.42	40282.96
538.59	40189.34
538.75	40140.19
538.92	40362.54
539.09	40699.58
539.26	40662.13
539.43	40348.50
539.60	40755.75
539.77	40669.15
539.94	40652.76
540.11	40966.40
540.28	41207.47
540.44	40954.69
540.61	41041.29
540.78	40718.30
540.95	41127.89
541.12	40612.98
541.29	40582.55
541.46	41188.75
541.62	40961.72
541.79	41462.59
541.96	41132.57
542.13	41209.81
542.30	41354.93
542.47	41223.86
542.63	41146.62
542.80	41928.36
542.97	41977.51
543.14	42265.39
543.31	41769.20
543.48	41759.84
543.64	42359.02
543.81	42312.20
543.98	42047.72
544.15	42146.03
544.32	42050.06
544.48	42527.53
544.65	42703.07
544.82	42356.67
544.99	41951.76
545.16	42483.06
545.32	42483.06
545.49	42726.48
545.66	42815.42
545.83	42447.96
546.00	42918.40
546.16	42658.60
546.33	42543.92
546.50	42539.24
546.67	42625.84
546.83	42508.81
547.00	42389.44
547.17	42869.25
547.34	42808.40
547.50	43107.99
547.67	43079.90
547.84	42995.64
548.00	43117.35
548.17	43143.09
548.34	43480.13
548.51	43643.97
548.67	43400.55
548.84	43665.03
549.01	43098.62
549.18	43187.56
549.34	43634.61
549.51	43494.18
549.68	43442.68
549.84	43625.25
550.01	43613.54
550.18	42857.55
550.34	43770.36
550.51	44177.61
550.68	44048.88
550.84	43592.48
551.01	43543.33
551.18	43702.48
551.34	43538.65
551.51	44224.42
551.68	44027.82
551.84	43821.85
552.01	43910.79
552.18	44421.03
552.34	43814.83
552.51	44095.69
552.68	43592.48
552.84	44697.21
553.01	44172.93
553.18	44217.40
553.34	44526.35
553.51	44477.20
553.67	44250.17
553.84	44402.30
554.01	44231.44
554.17	44687.85
554.34	44526.35
554.51	44545.08
554.67	44886.79
554.84	44900.84
555.00	44404.64
555.17	44830.62
555.33	44795.51
555.50	44259.53
555.67	44751.04
555.83	44807.22
556.00	44809.56
556.16	45352.56
556.33	45102.12
556.50	45296.39
556.66	44589.55
556.83	44954.67
556.99	45308.09
557.16	45535.12
557.32	45497.67
557.49	45446.18
557.65	45153.62
557.82	45256.60
557.98	44949.99
558.15	44938.29
558.32	45387.67
558.48	45179.36
558.65	45148.93
558.81	45322.13
558.98	45614.70
559.14	45120.85
559.31	44877.43
559.47	45364.26
559.64	45233.19
559.80	45710.66
559.97	45696.62
560.13	45205.11
560.30	45584.27
560.46	45736.41
560.63	45942.38
560.79	45647.47
560.96	46000.89
561.12	46036.00
561.29	45474.27
561.45	46134.30
561.61	45713.00
561.78	45460.23
561.94	45483.63
562.11	45858.12
562.27	45958.76
562.44	45361.92
562.60	45696.62
562.77	45736.41
562.93	45705.98
563.10	46373.03
563.26	45654.49
563.42	46344.95
563.59	46038.34
563.75	45841.73
563.92	46174.09
564.08	46075.79
564.24	45514.06
564.41	46321.54
564.57	45888.54
564.74	46211.54
564.90	46167.07
565.07	45794.92
565.23	45804.28
565.39	46232.60
565.56	46164.73
565.72	46106.21
565.88	46267.71
566.05	46204.52
566.21	46487.72
566.38	45804.28
566.54	46279.41
566.70	46265.37
566.87	46539.21
567.03	46511.13
567.19	46766.24
567.36	46286.43
567.52	46017.27
567.68	46850.50
567.85	46513.47
568.01	46508.79
568.17	46326.22
568.34	46579.00
568.50	46553.26
568.66	46384.74
568.83	46625.81
568.99	46209.20
569.15	46302.82
569.32	46499.42
569.48	46302.82
569.64	47112.64
569.81	46487.72
569.97	46897.31
570.13	46894.97
570.30	46340.27
570.46	46749.86
570.62	47182.86
570.78	46958.17
570.95	46595.38
571.11	47381.80
571.27	46646.88
571.43	46309.84
571.60	46487.72
571.76	46616.45
571.92	46614.11
572.09	46824.76
572.25	46721.77
572.41	46796.67
572.57	46810.71
572.74	46859.87
572.90	46951.15
573.06	47028.38
573.22	46904.34
573.38	47154.77
573.55	46986.25
573.71	47337.33
573.87	47304.57
574.03	47208.61
574.20	47398.19
574.36	46937.10
574.52	46831.78
574.68	47452.02
574.84	47030.72
575.01	47452.02
575.17	47037.75
575.33	47318.61
575.49	46876.25
575.65	47084.56
575.82	46941.78
575.98	46597.73
576.14	47035.41
576.30	47580.75
576.46	47477.77
576.62	47131.37
576.79	46969.87
576.95	46848.16
577.11	46960.51
577.27	47051.79
577.43	47323.29
577.59	47185.20
577.75	47292.86
577.92	46773.27
578.08	47107.96
578.24	47154.77
578.40	47452.02
578.56	47342.02
578.72	47143.07
578.88	47154.77
579.04	47508.19
579.21	47538.62
579.37	47173.50
579.53	47414.57
579.69	47079.88
579.85	47124.35
580.01	47236.69
580.17	47100.94
580.33	47597.13
580.49	47143.07
580.65	47306.91
580.82	47421.59
580.98	47056.47
581.14	46628.15
581.30	47288.18
581.46	46941.78
581.62	47339.68
581.78	47136.05
581.94	47482.45
582.10	47473.09
582.26	47367.76
582.42	47405.21
582.58	47386.49
582.74	47629.90
582.90	47470.75
583.06	47491.81
583.22	47210.95
583.38	47342.02
583.54	47395.85
583.70	47503.51
583.86	47292.86
584.02	47194.56
584.18	47676.71
584.34	47650.97
584.50	47339.68
584.66	47407.55
584.82	47421.59
584.98	47966.94
585.14	47243.71
585.30	47517.56
585.46	47002.64
585.62	47224.99
585.78	47522.24
585.94	47292.86
586.10	46766.24
586.26	47475.43
586.42	47461.38
586.58	47248.39
586.74	47536.28
586.90	47517.56
587.06	47470.75
587.22	47590.11
587.38	47199.24
587.54	47650.97
587.70	47955.24
587.86	47220.31
588.02	47487.13
588.18	47040.09
588.34	47400.53
588.49	47590.11
588.65	47559.69
588.81	47320.95
588.97	47618.20
589.13	47587.77
589.29	47531.60
589.45	47845.23
589.61	47365.42
589.77	48037.16
589.93	47597.13
590.08	47999.71
590.24	47959.92
590.40	48046.52
590.56	48067.58
590.72	47508.19
590.88	47807.78
591.04	47709.48
591.20	47828.85
591.35	48090.99
591.51	48165.88
591.67	48058.22
591.83	48151.84
591.99	48041.84
592.15	47835.87
592.31	48051.20
592.46	47739.91
592.62	48032.47
592.78	48093.33
592.94	47971.62
593.10	48044.18
593.26	48114.39
593.41	48320.36
593.57	48151.84
593.73	48102.69
593.89	48451.43
594.05	48561.44
594.20	48020.77
594.36	48641.01
594.52	48196.31
594.68	48135.46
594.84	48203.33
594.99	48226.74
595.15	48306.32
595.31	48039.50
595.47	48369.51
595.62	48303.98
595.78	48034.81
595.94	48151.84
596.10	48390.58
596.25	48086.31
596.41	48205.67
596.57	47796.08
596.73	48587.18
596.88	48318.02
597.04	48200.99
597.20	48156.52
597.36	47966.94
597.51	48493.56
597.67	48072.26
597.83	48205.67
597.99	48271.21
598.14	48196.31
598.30	48233.76
598.46	48334.40
598.61	48659.74
598.77	48289.93
598.93	48395.26
599.09	48208.01
599.24	48715.91
599.40	48315.68
599.56	48121.41
599.71	48512.28
599.87	48418.66
600.03	48463.13
600.18	48797.83
600.34	48533.35
600.50	48315.68
600.65	48439.73
600.81	48519.31
600.97	48739.32
601.12	48774.42
601.28	48154.18
601.44	48556.75
601.59	48774.42
601.75	48179.93
601.91	48671.44
602.06	48608.25
602.22	48399.94
602.37	47828.85
602.53	48231.42
602.69	48341.42
602.84	48144.82
603.00	48107.37
603.16	48610.59
603.31	48177.59
603.47	48858.68
603.62	48151.84
603.78	48346.11
603.94	48296.95
604.09	48428.02
604.25	48215.04
604.40	48374.19
604.56	48046.52
604.71	48385.89
604.87	48598.88
605.03	47676.71
605.18	48098.01
605.34	48680.80
605.49	47854.59
605.65	48858.68
605.80	47725.86
605.96	48348.45
606.12	47978.64
606.27	48413.98
606.43	48144.82
606.58	48371.85
606.74	48095.67
606.89	47924.81
607.05	48413.98
607.20	48285.25
607.36	48144.82
607.51	48465.47
607.67	48011.41
607.82	48184.61
607.98	47983.32
608.13	48041.84
608.29	48257.17
608.44	48332.06
608.60	47906.08
608.75	48360.15
608.91	47948.21
609.06	47887.36
609.22	48275.89
609.37	47952.90
609.53	48126.10
609.68	47901.40
609.84	48137.80
609.99	48053.54
610.15	48259.51
610.30	48175.25
610.46	48016.09
610.61	47903.74
610.76	48343.77
610.92	47775.02
611.07	47772.67
611.23	47941.19
611.38	48055.88
611.54	48072.26
611.69	48151.84
611.84	48177.59
612.00	47997.37
612.15	47920.13
612.31	48311.00
612.46	47732.89
612.62	47772.67
612.77	47854.59
612.92	47693.10
613.08	48116.73
613.23	47882.68
613.39	47955.24
613.54	47676.71
613.69	47753.95
613.85	47669.69
614.00	47917.79
614.15	48222.06
614.31	47430.96
614.46	47501.17
614.62	47395.85
614.77	47290.52
614.92	47531.60
615.08	47629.90
615.23	47559.69
615.38	47775.02
615.54	47529.26
615.69	47765.65
615.84	47386.49
616.00	47634.58
616.15	47798.42
616.30	48233.76
616.46	47220.31
616.61	47131.37
616.76	47878.00
616.92	47503.51
617.07	47889.70
617.22	47339.68
617.37	46986.25
617.53	47608.84
617.68	47056.47
617.83	47290.52
617.99	47915.45
618.14	47466.06
618.29	47187.54
618.45	47140.73
618.60	47363.08
618.75	47208.61
618.90	47014.34
619.06	46988.60
619.21	47164.14
619.36	47442.66
619.51	46934.76
619.67	47100.94
619.82	47381.80
619.97	47547.98
620.12	47248.39
620.28	46997.96
620.43	47220.31
620.58	47590.11
620.73	47026.04
620.89	47398.19
621.04	47262.44
621.19	47323.29
621.34	46927.74
621.49	46759.22
621.65	46810.71
621.80	47157.11
621.95	47037.75
622.10	47234.35
622.25	46817.74
622.41	46712.41
622.56	46990.94
622.71	46848.16
622.86	46892.63
623.01	46843.48
623.16	46520.49
623.32	46841.14
623.47	46562.62
623.62	46508.79
623.77	46944.12
623.92	46595.38
624.07	46763.90
624.23	46604.75
624.38	46445.59
624.53	46775.61
624.68	46017.27
624.83	46256.01
624.98	46630.49
625.13	46143.66
625.29	46092.17
625.44	46136.64
625.59	46358.99
625.74	46103.87
625.89	45888.54
626.04	46115.58
626.19	46003.23
626.34	46431.55
626.49	45813.65
626.65	45872.16
626.80	46185.79
626.95	45815.99
627.10	45970.46
627.25	46267.71
627.40	46017.27
627.55	46085.15
627.70	45944.72
627.85	46157.70
628.00	46202.18
628.15	45614.70
628.30	45570.23
628.45	45823.01
628.60	45059.99
628.76	45453.20
628.91	45649.81
629.06	45340.86
629.21	45556.19
629.36	45118.51
629.51	45743.43
629.66	46199.83
629.81	45820.67
629.96	45436.82
630.11	45521.08
630.26	45207.45
630.41	45832.37
630.56	45734.07
630.71	45457.88
630.86	45151.27
631.01	44870.41
631.16	45207.45
631.31	45418.10
631.46	45429.80
631.61	45514.06
631.76	45191.06
631.91	45151.27
632.06	45464.91
632.21	45521.08
632.36	45698.96
632.51	45134.89
632.66	45415.76
632.81	45399.37
632.96	45315.11
633.10	45155.96
633.25	45221.49
633.40	45338.52
633.55	45008.50
633.70	45322.13
633.85	45104.46
634.00	44793.17
634.15	44741.68
634.30	44865.73
634.45	44594.23
634.60	44631.68
634.75	45095.10
634.90	44828.28
635.05	44748.70
635.19	44947.65
635.34	44989.78
635.49	44392.94
635.64	44535.71
635.79	44718.28
635.94	44891.48
636.09	45099.78
636.24	44416.35
636.39	44760.40
636.53	44678.49
636.68	44198.68
636.83	44179.95
636.98	44692.53
637.13	44140.16
637.28	44383.58
637.43	44500.61
637.57	44526.35
637.72	43981.01
637.87	44032.50
638.02	44549.76
638.17	44165.91
638.32	44318.04
638.46	44114.42
638.61	44156.55
638.76	43882.70
638.91	44133.14
639.06	43922.49
639.20	43931.86
639.35	43955.26
639.50	43749.29
639.65	44062.93
639.80	44048.88
639.94	43978.67
640.09	44346.13
640.24	44376.56
640.39	43627.59
640.54	43388.85
640.68	43826.53
640.83	43751.63
640.98	43746.95
641.13	43236.72
641.27	44271.23
641.42	43941.22
641.57	43686.10
641.72	43707.16
641.86	43615.88
642.01	43311.61
642.16	43744.61
642.31	42897.34
642.45	43627.59
642.60	43428.64
642.75	43468.43
642.90	43161.82
643.04	43423.96
643.19	43299.91
643.34	42831.80
643.48	43068.20
643.63	43089.26
643.78	43555.03
643.93	43452.05
644.07	43707.16
644.22	43150.12
644.37	43075.22
644.51	42876.27
644.66	43400.55
644.81	43065.86
644.95	43086.92
645.10	43065.86
645.25	42892.66
645.39	43068.20
645.54	42782.65
645.69	42866.91
645.83	42712.44
645.98	42710.10
646.13	42541.58
646.27	42726.48
646.42	42784.99
646.57	42604.77
646.71	43316.29
646.86	42880.95
647.00	42677.33
647.15	42866.91
647.30	42848.19
647.44	43007.34
647.59	42646.90
647.74	42632.86
647.88	43100.97
648.03	42927.77
648.17	42974.58
648.32	43040.11
648.47	43070.54
648.61	42227.95
648.76	42920.74
648.90	42560.30
649.05	42450.30
649.20	42391.78
649.34	42422.21
649.49	42239.65
649.63	42169.43
649.78	42483.06
649.92	42597.75
650.07	43037.77
650.21	42225.60
650.36	42862.23
650.51	42256.03
650.65	42981.60
650.80	42298.16
650.94	42281.78
651.09	42450.30
651.23	42122.62
651.38	42351.99
651.52	41624.09
651.67	41851.12
651.81	41457.91
651.96	41820.69
652.10	41897.93
652.25	41804.31
652.39	41720.05
652.54	42045.38
652.68	41865.16
652.83	42122.62
652.97	42300.50
653.12	41888.57
653.26	41867.50
653.41	42082.83
653.55	41727.07
653.70	41886.23
653.84	41869.84
653.99	41373.65
654.13	41645.15
654.27	41441.53
654.42	41888.57
654.56	41413.44
654.71	41614.72
654.85	41806.65
655.00	41581.96
655.14	41673.24
655.29	41750.48
655.43	41741.11
655.57	41242.58
655.72	40837.67
655.86	41200.45
656.01	41275.35
656.15	41153.64
656.30	41195.77
656.44	41495.36
656.58	41385.35
656.73	40856.39
656.87	41060.02
657.01	40861.07
657.16	41296.41
657.30	40947.67
657.45	41120.87
657.59	40842.35
657.73	40718.30
657.88	40875.12
658.02	41212.15
658.16	41331.52
658.31	41010.87
658.45	41146.62
658.60	40554.46
658.74	40699.58
658.88	40818.94
659.03	40451.48
659.17	40165.93
659.31	40175.30
659.46	40416.37
659.60	40781.49
659.74	40531.06
659.89	40058.27
660.03	40201.04
660.17	40304.02
660.32	39948.26
660.46	40107.42
660.60	39913.16
660.74	40046.57
660.89	39992.73
661.03	39681.44
661.17	39681.44
661.32	39435.69
661.46	39758.68
661.60	39845.28
661.74	39632.29
661.89	39920.18
662.03	40252.53
662.17	39622.93
662.31	39477.82
662.46	39543.35
662.60	39620.59
662.74	39143.12
662.88	39339.72
663.03	38899.70
663.17	38862.26
663.31	38785.02
663.45	39084.61
663.60	39496.54
663.74	39093.97
663.88	39395.90
664.02	38541.60
664.17	38955.88
664.31	38906.73
664.45	38394.15
664.59	38525.22
664.73	38801.40
664.88	39356.11
665.02	38176.48
665.16	38375.42
665.30	38387.13
665.44	37846.46
665.59	38106.26
665.73	37933.06
665.87	38061.79
666.01	37860.51
666.15	38384.79
666.29	38061.79
666.44	38185.84
666.58	38043.07
666.72	37729.44
666.86	37706.03
667.00	37598.37
667.14	37603.05
667.28	37563.26
667.43	37305.80
667.57	37677.94
667.71	37734.12
667.85	37741.14
667.99	37413.46
668.13	37345.59
668.27	37198.13
668.41	37134.94
668.56	36861.10
668.70	36795.56
668.84	36638.75
668.98	36818.97
669.12	36931.31
669.26	36620.02
669.40	36697.26
669.54	36620.02
669.68	36851.73
669.82	36212.77
669.96	36168.30
670.10	36147.23
670.25	36465.55
670.39	35735.30
670.53	36400.01
670.67	36383.63
670.81	36432.78
670.95	36121.49
671.09	35873.39
671.23	35728.28
671.37	36030.21
671.51	35995.10
671.65	35793.81
671.79	35761.05
671.93	35833.60
672.07	35866.37
672.21	35564.44
672.35	35204.00
672.49	35295.28
672.63	35117.40
672.77	34752.27
672.91	35110.38
673.05	35075.27
673.19	34864.62
673.33	34679.72
673.47	35051.86
673.61	34597.80
673.75	34426.94
673.89	34146.08
674.03	34520.56
674.17	34281.83
674.31	33968.19
674.45	34209.27
674.59	34345.02
674.73	33928.41
674.87	33935.43
675.01	33666.27
675.15	33809.04
675.29	33296.46
675.43	33692.01
675.56	33834.78
675.70	33387.74
675.84	33261.35
675.98	32198.75
676.12	33001.55
676.26	33057.73
676.40	33228.59
676.54	32868.14
676.68	32769.84
676.82	32449.19
676.96	32594.30
677.10	32723.03
677.23	32718.35
677.37	32648.13
677.51	32311.10
677.65	31920.23
677.79	31875.76
677.93	32063.00
678.07	32182.37
678.21	31732.98
678.34	31662.77
678.48	31583.19
678.62	31606.59
678.76	31583.19
678.90	31028.48
679.04	31325.73
679.18	31878.10
679.31	31274.24
679.45	31042.53
679.59	30897.41
679.73	30712.51
679.87	30302.92
680.00	30548.67
680.14	30534.63
680.28	30445.69
680.42	30536.97
680.56	29958.86
680.70	30017.37
680.83	30127.38
680.97	29621.82
681.11	29759.91
681.25	29645.23
681.39	29142.01
681.52	29457.98
681.66	29013.28
681.80	28884.55
681.94	28961.79
682.07	29151.37
682.21	29032.00
682.35	28814.34
682.49	28793.27
682.62	28903.28
682.76	28584.96
682.90	28369.63
683.04	28226.86
683.17	28587.30
683.31	28201.11
683.45	27999.83
683.59	27833.65
683.72	27400.65
683.86	27644.07
684.00	27899.19
684.13	27700.24
684.27	27564.49
684.41	27505.98
684.55	27578.53
684.68	27103.40
684.82	27220.43
684.96	27087.02
685.09	26995.74
685.23	27239.15
685.37	27339.80
685.50	27248.52
685.64	26686.79
685.78	26632.96
685.91	26604.87
686.05	25738.87
686.19	25968.24
686.32	26188.25
686.46	25844.20
686.60	25699.08
686.73	25926.11
686.87	25933.14
687.01	25715.47
687.14	25476.73
687.28	25610.14
687.42	25333.96
687.55	25509.50
687.69	25163.10
687.82	24795.64
687.96	25195.87
688.10	25006.28
688.23	25111.61
688.37	24926.71
688.50	24856.49
688.64	24861.17
688.78	24790.95
688.91	24491.37
689.05	24533.50
689.18	24030.28
689.32	23267.27
689.46	23964.75
689.59	23803.25
689.73	23915.59
689.86	23974.11
690.00	23747.08
690.13	23573.88
690.27	23218.11
690.41	23660.48
690.54	23269.61
690.68	23393.65
690.81	23094.07
690.95	22867.03
691.08	22558.08
691.22	22696.17
691.35	22347.44
691.49	22721.92
691.62	22724.26
691.76	22359.14
691.89	22129.77
692.03	22015.08
692.16	21771.66
692.30	22214.02
692.43	21858.26
692.57	21614.85
692.70	21813.79
692.84	22040.82
692.97	21364.41
693.11	21366.75
693.24	21245.04
693.38	21282.49
693.51	21151.42
693.65	21041.42
693.78	20690.34
693.92	20779.28
694.05	20580.33
694.19	20861.19
694.32	20606.08
694.45	20779.28
694.59	20697.36
694.72	20753.53
694.86	19955.41
694.99	20051.37
695.13	19889.87
695.26	19765.82
695.39	19438.15
695.53	19852.42
695.66	19562.20
695.80	19536.45
695.93	19459.21
696.07	19140.90
696.20	19110.47
696.33	18778.12
696.47	18948.98
696.60	19154.94
696.73	18977.06
696.87	19194.73
697.00	18867.06
697.14	18649.39
697.27	18642.37
697.40	18656.41
697.54	18806.20
697.67	18375.55
697.80	18672.79
697.94	18295.97
698.07	18120.43
698.21	18188.30
698.34	18097.02
698.47	17951.91
698.61	17624.23
698.74	17371.46
698.87	17516.57
699.01	17429.97
699.14	17418.27
699.27	17425.29
699.40	17502.53
699.54	17020.38
699.67	17408.90
699.80	17219.32
699.94	17090.59
700.07	17259.11
700.20	16978.25
700.34	16912.71
700.47	16783.98
700.60	16793.34
700.73	16791.00
700.87	16489.07
701.00	16439.92
701.13	16219.91
701.26	16460.99
701.40	16023.31
701.53	16077.14
701.66	16222.25
701.79	15988.20
701.93	15971.82
702.06	15550.52
702.19	15676.91
702.32	15620.74
702.46	15623.08
702.59	15702.65
702.72	15538.82
702.85	15506.05
702.99	15534.14
703.12	15126.88
703.25	14988.79
703.38	14731.33
703.51	15007.52
703.65	14909.21
703.78	14766.44
703.91	14604.94
704.04	14483.24
704.17	14494.94
704.31	14616.65
704.44	14368.55
704.57	14576.86
704.70	14221.10
704.83	14174.28
704.96	14321.74
705.10	13928.53
705.23	13870.01
>>>>>End Processed Spectral Data<<<<<
