SpectraSuite Data File
++++++++++++++++++++++++++++++++++++
Date: Fri Oct 25 10:44:33 EDT 2013
User: price-jones
Dark Spectrum Present: No
Reference Spectrum Present: No
Number of Sampled Component Spectra: 1
Spectrometers: USB2+H05261
Integration Time (usec): 100000 (USB2+H05261)
Spectra Averaged: 1 (USB2+H05261)
Boxcar Smoothing: 0 (USB2+H05261)
Correct for Electrical Dark: No (USB2+H05261)
Strobe/Lamp Enabled: No (USB2+H05261)
Correct for Detector Non-linearity: No (USB2+H05261)
Correct for Stray Light: No (USB2+H05261)
Number of Pixels in Processed Spectrum: 2048
>>>>>Begin Processed Spectral Data<<<<<
365.73	222.35
365.92	222.35
366.12	222.35
366.32	63.19
366.52	32.77
366.72	35.11
366.91	0.00
367.11	28.09
367.31	49.15
367.51	56.17
367.70	37.45
367.90	0.00
368.10	37.45
368.30	0.00
368.49	30.43
368.69	0.00
368.89	0.00
369.09	72.56
369.28	56.17
369.48	88.94
369.68	39.79
369.87	124.05
370.07	51.49
370.27	67.88
370.47	217.67
370.66	348.74
370.86	362.78
371.06	437.68
371.25	521.94
371.45	421.30
371.65	435.34
371.84	430.66
372.04	456.40
372.24	458.74
372.44	524.28
372.63	493.85
372.83	477.47
373.03	489.17
373.22	510.24
373.42	596.84
373.62	477.47
373.81	468.11
374.01	636.63
374.21	624.92
374.40	456.40
374.60	582.79
374.79	493.85
374.99	554.71
375.19	503.22
375.38	585.13
375.58	526.62
375.78	575.77
375.97	564.07
376.17	587.47
376.37	599.18
376.56	629.60
376.76	547.69
376.95	521.94
377.15	519.60
377.35	610.88
377.54	596.84
377.74	594.50
377.93	547.69
378.13	627.26
378.33	601.52
378.52	599.18
378.72	645.99
378.91	638.97
379.11	617.90
379.31	671.73
379.50	709.18
379.70	657.69
379.89	634.29
380.09	650.67
380.28	645.99
380.48	627.26
380.68	596.84
380.87	683.44
381.07	580.45
381.26	737.27
381.46	585.13
381.65	709.18
381.85	648.33
382.04	641.31
382.24	709.18
382.43	664.71
382.63	716.20
382.83	748.97
383.02	676.41
383.22	723.23
383.41	660.03
383.61	723.23
383.80	755.99
384.00	795.78
384.19	678.76
384.39	751.31
384.58	709.18
384.78	706.84
384.97	781.74
385.17	809.83
385.36	676.41
385.56	723.23
385.75	676.41
385.95	678.76
386.14	805.14
386.34	800.46
386.53	716.20
386.72	821.53
386.92	718.54
387.11	807.48
387.31	795.78
387.50	837.91
387.70	840.25
387.89	840.25
388.09	826.21
388.28	812.17
388.48	800.46
388.67	866.00
388.86	894.08
389.06	823.87
389.25	882.38
389.45	971.32
389.64	898.77
389.84	877.70
390.03	870.68
390.22	964.30
390.42	968.98
390.61	978.34
390.81	983.02
391.00	1069.62
391.19	898.77
391.39	964.30
391.58	1001.75
391.78	961.96
391.97	1011.11
392.16	896.43
392.36	1018.13
392.55	983.02
392.75	987.71
392.94	971.32
393.13	1015.79
393.33	854.30
393.52	983.02
393.71	1069.62
393.91	1018.13
394.10	994.73
394.29	968.98
394.49	985.37
394.68	1081.33
394.88	1067.28
395.07	1174.95
395.26	1137.50
395.46	1163.25
395.65	1153.88
395.84	1086.01
396.04	1240.48
396.23	1149.20
396.42	1144.52
396.62	1114.10
396.81	1160.91
397.00	1086.01
397.19	1156.22
397.39	1221.76
397.58	1313.04
397.77	1277.93
397.97	1226.44
398.16	1252.19
398.35	1409.00
398.55	1348.15
398.74	1270.91
398.93	1416.02
399.12	1315.38
399.32	1348.15
399.51	1413.68
399.70	1490.92
399.90	1366.87
400.09	1434.75
400.28	1416.02
400.47	1533.05
400.67	1516.67
400.86	1441.77
401.05	1519.01
401.24	1554.12
401.44	1493.26
401.63	1509.65
401.82	1549.43
402.01	1526.03
402.21	1504.96
402.40	1561.14
402.59	1519.01
402.78	1600.93
402.97	1694.55
403.17	1664.12
403.36	1572.84
403.55	1666.46
403.74	1724.97
403.93	1732.00
404.13	1650.08
404.32	1659.44
404.51	1603.27
404.70	1743.70
404.89	1682.85
405.09	1790.51
405.28	1724.97
405.47	1771.79
405.66	1820.94
405.85	1818.60
406.05	1764.76
406.24	1900.52
406.43	1888.81
406.62	1811.57
406.81	1956.69
407.00	1916.90
407.20	1832.64
407.39	1849.02
407.58	2001.16
407.77	2010.52
407.96	2045.63
408.15	2045.63
408.34	2026.90
408.54	2031.58
408.73	2033.93
408.92	2050.31
409.11	2083.08
409.30	2132.23
409.49	1980.09
409.68	2085.42
409.87	1998.82
410.07	2223.51
410.26	2104.14
410.45	2200.10
410.64	2146.27
410.83	2183.72
411.02	2275.00
411.21	2375.64
411.40	2307.77
411.59	2392.03
411.78	2345.22
411.98	2434.16
412.17	2389.69
412.36	2359.26
412.55	2389.69
412.74	2450.54
412.93	2574.59
413.12	2548.84
413.31	2644.81
413.50	2516.08
413.69	2576.93
413.88	2644.81
414.07	2654.17
414.26	2597.99
414.45	2679.91
414.64	2689.28
414.83	2703.32
415.02	2778.22
415.22	2806.30
415.41	2946.73
415.60	2822.69
415.79	2904.60
415.98	2928.01
416.17	2881.20
416.36	2963.12
416.55	3040.36
416.74	2916.31
416.93	2967.80
417.12	2995.89
417.31	3094.19
417.50	3094.19
417.69	3208.87
417.88	2984.18
418.07	3026.31
418.26	3129.30
418.45	3155.04
418.64	3234.62
418.83	3307.18
419.02	3208.87
419.21	3356.33
419.39	3344.63
419.58	3274.41
419.77	3325.90
419.96	3258.03
420.15	3414.84
420.34	3384.41
420.53	3286.11
420.72	3480.38
420.91	3316.54
421.10	3534.21
421.29	3637.19
421.48	3442.93
421.67	3456.97
421.86	3496.76
422.05	3599.74
422.24	3548.25
422.43	3349.31
422.61	3543.57
422.80	3559.95
422.99	3602.08
423.18	3637.19
423.37	3595.06
423.56	3597.40
423.75	3555.27
423.94	3625.49
424.13	3375.05
424.32	3471.01
424.50	3545.91
424.69	3632.51
424.88	3648.90
425.07	3499.10
425.26	3576.34
425.45	3639.53
425.64	3562.30
425.83	3681.66
426.01	3637.19
426.20	3548.25
426.39	3616.13
426.58	3761.24
426.77	3595.06
426.96	3681.66
427.15	3761.24
427.33	3763.58
427.52	3845.50
427.71	3833.80
427.90	3805.71
428.09	3779.97
428.28	3779.97
428.46	3861.88
428.65	3904.01
428.84	4093.60
429.03	3911.04
429.22	3763.58
429.40	3864.22
429.59	3889.97
429.78	3751.88
429.97	3712.09
430.16	3763.58
430.34	3794.01
430.53	4023.38
430.72	3911.04
430.91	4002.32
431.10	4007.00
431.28	4212.96
431.47	4219.99
431.66	4404.89
431.85	4177.86
432.03	4173.18
432.22	4311.27
432.41	4339.35
432.60	4404.89
432.79	4322.97
432.97	4470.42
433.16	4463.40
433.35	4301.90
433.54	4337.01
433.72	4318.29
433.91	4526.60
434.10	4280.84
434.28	4404.89
434.47	4472.76
434.66	4519.57
434.85	4596.81
435.03	4404.89
435.22	4348.72
435.41	4620.22
435.59	4795.76
435.78	4779.37
435.97	4807.46
436.16	4765.33
436.34	4706.82
436.53	4606.17
436.72	4791.08
436.90	4674.05
437.09	4868.31
437.28	4716.18
437.46	4901.08
437.65	4856.61
437.84	4919.81
438.02	4624.90
438.21	4826.18
438.40	4737.24
438.58	5029.81
438.77	4947.89
438.96	4980.66
439.14	4997.04
439.33	5022.79
439.52	5308.34
439.70	5221.74
439.89	5256.84
440.08	5121.09
440.26	5212.37
440.45	5224.08
440.63	5172.58
440.82	5511.96
441.01	5533.03
441.19	5589.20
441.38	5544.73
441.57	5528.35
441.75	5558.77
441.94	5584.52
442.12	5792.83
442.31	5884.11
442.50	5722.61
442.68	5746.02
442.87	5743.67
443.05	5820.91
443.24	5867.72
443.43	5776.44
443.61	5863.04
443.80	6003.47
443.98	5841.98
444.17	5673.46
444.35	6040.92
444.54	6181.35
444.73	6087.73
444.91	6026.88
445.10	6033.90
445.28	6033.90
445.47	5914.53
445.65	5951.98
445.84	6141.57
446.02	6090.07
446.21	6087.73
446.39	6076.03
446.58	6148.59
446.77	6162.63
446.95	5907.51
447.14	6073.69
447.32	6282.00
447.51	6071.35
447.69	6017.52
447.88	6195.40
448.06	6228.17
448.25	6031.56
448.43	6270.30
448.62	6094.76
448.80	6052.63
448.99	6244.55
449.17	6293.70
449.36	6164.97
449.54	6286.68
449.73	6427.11
449.91	6504.35
450.10	6525.41
450.28	6558.18
450.46	6511.37
450.65	6654.14
450.83	6626.06
451.02	6471.58
451.20	6576.91
451.39	6621.38
451.57	6417.75
451.76	6417.75
451.94	6593.29
452.13	6658.82
452.31	6614.35
452.49	6415.41
452.68	6569.88
452.86	6764.15
453.05	6764.15
453.23	6822.66
453.42	6771.17
453.60	6782.87
453.78	6796.92
453.97	6801.60
454.15	6757.13
454.34	6895.22
454.52	7040.33
454.70	6946.71
454.89	7080.12
455.07	6810.96
455.26	7155.02
455.44	7143.32
455.62	7105.87
455.81	7012.24
455.99	7016.93
456.17	7220.55
456.36	7241.62
456.54	7241.62
456.73	7183.10
456.91	7412.48
457.09	7506.10
457.28	7695.68
457.46	7431.20
457.64	7494.40
457.83	7492.05
458.01	7260.34
458.19	7683.98
458.38	7501.42
458.56	7538.87
458.74	7620.78
458.93	7660.57
459.11	7597.38
459.29	7592.70
459.48	7641.85
459.66	7485.03
459.84	7695.68
460.03	7887.61
460.21	7845.48
460.39	7962.50
460.57	7793.98
460.76	7709.72
460.94	7922.71
461.12	7847.82
461.31	7875.90
461.49	8037.40
461.67	7815.05
461.85	8201.24
462.04	8067.83
462.22	8231.66
462.40	8262.09
462.59	8138.04
462.77	8030.38
462.95	8313.58
463.13	8262.09
463.32	8301.88
463.50	8376.78
463.68	8271.45
463.86	8367.42
464.05	8329.97
464.23	8484.44
464.41	8393.16
464.59	8273.79
464.78	8636.58
464.96	8482.10
465.14	8418.91
465.32	8538.27
465.50	8470.40
465.69	8465.72
465.87	8360.39
466.05	8716.16
466.23	8463.38
466.41	8535.93
466.60	8669.34
466.78	8493.80
466.96	8667.00
467.14	8505.51
467.32	8557.00
467.51	8767.65
467.69	8596.79
467.87	8713.81
468.05	8809.78
468.23	8669.34
468.41	8823.82
468.60	8779.35
468.78	8833.18
468.96	8779.35
469.14	8889.35
469.32	9142.13
469.50	8608.49
469.69	9064.89
469.87	9151.49
470.05	9104.68
470.23	8999.36
470.41	9245.12
470.59	9184.26
470.77	9006.38
470.95	9490.87
471.14	9336.40
471.32	9121.07
471.50	9359.80
471.68	9633.64
471.86	9488.53
472.04	9652.37
472.22	9830.25
472.40	9493.21
472.58	9774.08
472.77	9605.56
472.95	9724.93
473.13	10122.82
473.31	9628.96
473.49	9823.23
473.67	9879.40
473.85	9954.30
474.03	10071.33
474.21	10164.95
474.39	10331.12
474.57	10349.85
474.75	10265.59
474.93	10450.49
475.12	10375.59
475.30	10682.20
475.48	10340.49
475.66	10487.94
475.84	10417.72
476.02	10548.79
476.20	10789.87
476.38	10803.91
476.56	10892.85
476.74	10953.71
476.92	10850.72
477.10	10796.89
477.28	11407.77
477.46	11192.44
477.64	11328.19
477.82	11250.96
478.00	11705.02
478.18	11393.73
478.36	11573.95
478.54	11733.11
478.72	11763.53
478.90	11962.48
479.08	12252.70
479.26	12191.85
479.44	12077.16
479.62	12285.47
479.80	12325.26
479.98	12620.17
480.16	12723.15
480.34	12390.80
480.52	12627.19
480.70	12779.32
480.88	12753.58
481.06	12727.83
481.24	13083.59
481.41	13268.50
481.59	13364.46
481.77	13336.37
481.95	13376.16
482.13	13418.29
482.31	13734.26
482.49	13998.74
482.67	13951.93
482.85	13921.51
483.03	14541.75
483.21	13963.64
483.39	14394.29
483.57	14307.69
483.74	14331.10
483.92	14457.49
484.10	14839.00
484.28	14740.69
484.46	14998.15
484.64	15225.18
484.82	14895.17
485.00	14911.55
485.18	15318.81
485.35	15246.25
485.53	14878.79
485.71	15318.81
485.89	15499.03
486.07	15435.83
486.25	15550.52
486.43	15976.50
486.61	15758.83
486.78	16126.29
486.96	16173.10
487.14	16489.07
487.32	16638.87
487.50	16746.53
487.68	16615.46
487.85	17069.53
488.03	17245.07
488.21	17326.99
488.39	17121.02
488.57	17436.99
488.75	17848.93
488.92	17879.35
489.10	18324.05
489.28	17788.07
489.46	18270.22
489.64	18448.10
489.81	18721.95
489.99	18663.43
490.17	18958.34
490.35	18876.42
490.53	19070.68
490.70	19108.13
490.88	18909.19
491.06	19744.76
491.24	19587.94
491.41	19117.50
491.59	19173.67
491.77	19506.02
491.95	19726.04
492.13	19969.45
492.30	20208.19
492.48	20570.97
492.66	20386.07
492.84	20442.24
493.01	20500.75
493.19	20573.31
493.37	20812.04
493.54	20795.66
493.72	21301.22
493.90	20893.96
494.08	21142.06
494.25	21561.02
494.43	22181.26
494.61	21603.14
494.79	21907.41
494.96	21914.44
495.14	22211.68
495.32	22494.89
495.49	22071.25
495.67	22185.94
495.85	22401.27
496.02	22672.77
496.20	22834.27
496.38	22824.90
496.55	22724.26
496.73	23421.74
496.91	23232.16
497.09	23241.52
497.26	23351.52
497.44	23211.09
497.62	23426.42
497.79	23782.18
497.97	23513.02
498.14	23747.08
498.32	24182.42
498.50	23936.66
498.67	24215.18
498.85	24500.73
499.03	24467.96
499.20	24407.11
499.38	24266.67
499.56	24907.98
499.73	24936.07
499.91	24758.19
500.08	25238.00
500.26	24638.82
500.44	24989.90
500.61	25099.90
500.79	25280.13
500.97	25350.34
501.14	25544.61
501.32	25738.87
501.49	25703.76
501.67	25542.27
501.84	25535.24
502.02	25659.29
502.20	26120.38
502.37	26579.12
502.55	26022.08
502.72	26218.68
502.90	26389.54
503.07	26279.54
503.25	26422.31
503.43	26272.51
503.60	26555.72
503.78	26705.51
503.95	26668.06
504.13	26551.04
504.30	27021.48
504.48	26850.63
504.65	27218.09
504.83	27061.27
505.01	27316.39
505.18	27456.82
505.36	27962.38
505.53	27749.39
505.71	27871.10
505.88	27924.93
506.06	27393.63
506.23	27835.99
506.41	28039.62
506.58	28142.60
506.76	28147.28
506.93	28240.90
507.11	28404.74
507.28	28133.24
507.46	28364.95
507.63	28301.76
507.81	28582.62
507.98	28830.72
508.16	28662.20
508.33	28802.63
508.50	29184.14
508.68	29221.59
508.85	29165.42
509.03	29078.82
509.20	29324.57
509.38	29383.09
509.55	29607.78
509.73	29708.42
509.90	29804.38
510.08	29766.93
510.25	29315.21
510.42	29694.38
510.60	30017.37
510.77	29942.47
510.95	29947.15
511.12	29855.87
511.30	30206.95
511.47	30595.48
511.64	30960.61
511.82	30539.31
511.99	30590.80
512.17	30654.00
512.34	30448.03
512.51	30775.70
512.69	30916.14
512.86	30803.79
513.04	30677.40
513.21	31117.42
513.38	30639.95
513.56	31143.17
513.73	30684.42
513.90	31159.55
514.08	30951.24
514.25	31466.16
514.43	31353.82
514.60	31674.47
514.77	31597.23
514.95	32084.06
515.12	32065.34
515.29	32053.64
515.47	32130.87
515.64	32173.00
515.81	31735.32
515.99	32327.48
516.16	32264.28
516.33	32081.72
516.51	32416.42
516.68	31571.49
516.85	31634.68
517.03	32275.99
517.20	32315.78
517.37	32315.78
517.54	32685.58
517.72	32376.63
517.89	32229.18
518.06	32528.77
518.24	32311.10
518.41	32582.60
518.58	32554.51
518.75	33046.02
518.93	33319.87
519.10	32870.48
519.27	33163.05
519.45	33294.12
519.62	33242.63
519.79	33593.71
519.96	33345.61
520.14	33961.17
520.31	33598.39
520.48	33589.03
520.65	33888.62
520.83	34216.29
521.00	34279.49
521.17	33827.76
521.34	34328.64
521.52	33986.92
521.69	34319.28
521.86	34682.06
522.03	34546.31
522.20	34347.36
522.38	35023.78
522.55	34689.08
522.72	34611.84
522.89	34541.63
523.07	34562.69
523.24	34649.29
523.41	34724.19
523.58	35189.95
523.75	35433.37
523.92	35079.95
524.10	35278.89
524.27	35316.34
524.44	35402.94
524.61	35480.18
524.78	35487.20
524.96	36074.68
525.13	35543.38
525.30	36086.38
525.47	36144.89
525.64	35737.64
525.81	35988.08
525.98	35686.15
526.16	35599.55
526.33	35798.49
526.50	35929.56
526.67	35606.57
526.84	35875.73
527.01	35709.55
527.18	35873.39
527.36	36245.54
527.53	36156.60
527.70	36627.04
527.87	36542.78
528.04	36479.59
528.21	36341.50
528.38	36783.86
528.55	36994.51
528.72	36804.92
528.89	36818.97
529.07	36879.82
529.24	36397.67
529.41	37060.04
529.58	36428.10
529.75	36833.01
529.92	37048.34
530.09	37308.14
530.26	37193.45
530.43	37312.82
530.60	37177.07
530.77	37273.03
530.94	37731.78
531.11	37673.26
531.28	38213.93
531.46	37729.44
531.63	37741.14
531.80	37357.29
531.97	37701.35
532.14	38040.73
532.31	37673.26
532.48	37710.71
532.65	37869.87
532.82	37677.94
532.99	38396.49
533.16	37844.12
533.33	38293.50
533.50	38286.48
533.67	38120.31
533.84	38000.94
534.01	38534.58
534.18	38284.14
534.35	38515.86
534.52	38417.55
534.69	38588.41
534.86	38792.04
535.03	38639.90
535.20	38866.94
535.37	38897.36
535.54	39454.41
535.71	38628.20
535.88	38714.80
536.05	38761.61
536.22	38979.28
536.38	39159.50
536.55	38658.63
536.72	38902.04
536.89	39030.77
537.06	38993.32
537.23	38895.02
537.40	38878.64
537.57	39524.63
537.74	39672.08
537.91	39234.40
538.08	39384.19
538.25	39313.98
538.42	39510.58
538.59	39641.65
538.75	39157.16
538.92	39360.79
539.09	39398.24
539.26	39510.58
539.43	39828.90
539.60	39463.77
539.77	39339.72
539.94	39356.11
540.11	39976.35
540.28	39702.51
540.44	40053.59
540.61	39583.14
540.78	39873.37
540.95	39739.96
541.12	39903.79
541.29	39896.77
541.46	40023.16
541.62	40081.67
541.79	40009.12
541.96	39643.99
542.13	39964.65
542.30	39966.99
542.47	40006.78
542.63	40350.84
542.80	40575.53
542.97	40718.30
543.14	40795.54
543.31	40708.94
543.48	40818.94
543.64	41113.85
543.81	41263.64
543.98	40928.95
544.15	41193.43
544.32	41099.81
544.48	41399.40
544.65	41045.97
544.82	41455.57
544.99	40765.11
545.16	41460.25
545.32	41003.85
545.49	41638.13
545.66	41701.32
545.83	41888.57
546.00	41773.88
546.16	41167.68
546.33	41144.28
546.50	41221.52
546.67	41338.54
546.83	41125.55
547.00	41375.99
547.17	41567.91
547.34	41315.14
547.50	41794.95
547.67	42237.31
547.84	41752.82
548.00	42014.96
548.17	42153.05
548.34	42026.66
548.51	42066.45
548.67	42073.47
548.84	42637.54
549.01	41785.58
549.18	41642.81
549.34	42249.01
549.51	41900.27
549.68	42342.63
549.84	41923.68
550.01	42277.10
550.18	42590.73
550.34	42674.99
550.51	42602.43
550.68	42120.28
550.84	42300.50
551.01	42429.23
551.18	42567.32
551.34	42185.82
551.51	42756.91
551.68	42450.30
551.84	42319.23
552.01	42796.70
552.18	42447.96
552.34	42593.07
552.51	42632.86
552.68	42131.98
552.84	42974.58
553.01	43075.22
553.18	42714.78
553.34	42859.89
553.51	42686.69
553.67	42506.47
553.84	43248.42
554.01	43229.69
554.17	42817.76
554.34	43288.21
554.51	43000.32
554.67	43136.07
554.84	43131.39
555.00	42731.16
555.17	43122.03
555.33	43203.95
555.50	42892.66
555.67	43459.07
555.83	43185.22
556.00	43229.69
556.16	43342.04
556.33	43325.66
556.50	43100.97
556.66	43206.29
556.83	43185.22
556.99	43580.78
557.16	43686.10
557.32	43349.06
557.49	43526.94
557.65	43206.29
557.82	43356.08
557.98	43515.24
558.15	43791.42
558.32	43667.37
558.48	43519.92
558.65	43531.62
558.81	43517.58
558.98	43536.30
559.14	43540.99
559.31	43182.88
559.47	44098.03
559.64	43938.88
559.80	43854.62
559.97	43700.14
560.13	43938.88
560.30	43580.78
560.46	43707.16
560.63	43751.63
560.79	44091.01
560.96	44343.79
561.12	43948.24
561.29	43978.67
561.45	43899.09
561.61	44189.31
561.78	43735.25
561.94	43959.94
562.11	43931.86
562.27	44392.94
562.44	44098.03
562.60	44432.73
562.77	44076.97
562.93	44086.33
563.10	44048.88
563.26	43873.34
563.42	43927.17
563.59	44102.71
563.75	44002.07
563.92	44067.61
564.08	43892.07
564.24	44114.42
564.41	43978.67
564.57	44069.95
564.74	44299.32
564.90	44126.12
565.07	44147.18
565.23	44259.53
565.39	44142.50
565.56	44224.42
565.72	44285.28
565.88	44334.43
566.05	44144.84
566.21	43976.33
566.38	44311.02
566.54	44444.43
566.70	44797.85
566.87	44900.84
567.03	44329.75
567.19	44818.92
567.36	44559.12
567.52	44479.54
567.68	44266.55
567.85	44091.01
568.01	44626.99
568.17	44507.63
568.34	44552.10
568.50	44488.90
568.66	44350.81
568.83	44465.50
568.99	44315.70
569.15	44060.58
569.32	44074.63
569.48	44238.47
569.64	44477.20
569.81	44140.16
569.97	44479.54
570.13	44184.63
570.30	44053.56
570.46	44336.77
570.62	44362.51
570.78	44313.36
570.95	44137.82
571.11	44507.63
571.27	44648.06
571.43	44678.49
571.60	44886.79
571.76	44479.54
571.92	44552.10
572.09	44416.35
572.25	44348.47
572.41	44151.87
572.57	44942.97
572.74	44844.66
572.90	44556.78
573.06	44795.51
573.22	44472.52
573.38	44238.47
573.55	44334.43
573.71	44648.06
573.87	44631.68
574.03	44545.08
574.20	44622.31
574.36	44659.76
574.52	44545.08
574.68	44896.16
574.84	45059.99
575.01	44575.50
575.17	44669.12
575.33	44421.03
575.49	44767.43
575.65	44671.46
575.82	44598.91
575.98	44481.88
576.14	44802.53
576.30	44729.98
576.46	44587.21
576.62	44568.48
576.79	44566.14
576.95	44465.50
577.11	44439.75
577.27	44514.65
577.43	44933.60
577.59	44823.60
577.75	44610.61
577.92	44224.42
578.08	44004.41
578.24	44638.70
578.40	44851.69
578.56	44912.54
578.72	44453.79
578.88	44926.58
579.04	44811.90
579.21	45024.89
579.37	44694.87
579.53	44713.59
579.69	44460.82
579.85	44722.96
580.01	45062.33
580.17	44849.35
580.33	44921.90
580.49	44865.73
580.65	44825.94
580.82	44872.75
580.98	44542.74
581.14	44921.90
581.30	44858.71
581.46	44858.71
581.62	44711.25
581.78	44559.12
581.94	45043.61
582.10	44788.49
582.26	44804.88
582.42	44467.84
582.58	44718.28
582.74	44903.18
582.90	44893.82
583.06	44648.06
583.22	44711.25
583.38	45219.15
583.54	44538.05
583.70	44821.26
583.86	44935.95
584.02	44760.40
584.18	45092.76
584.34	44715.93
584.50	44458.48
584.66	44746.36
584.82	44931.26
584.98	45165.32
585.14	44999.14
585.30	44818.92
585.46	44526.35
585.62	44928.92
585.78	44786.15
585.94	44914.88
586.10	44701.89
586.26	45006.16
586.42	44793.17
586.58	45205.11
586.74	45059.99
586.90	44966.37
587.06	44432.73
587.22	44999.14
587.38	44535.71
587.54	45216.81
587.70	45319.79
587.86	45181.70
588.02	44767.43
588.18	44928.92
588.34	44825.94
588.49	44875.09
588.65	44488.90
588.81	44367.20
588.97	44786.15
589.13	44486.56
589.29	44463.16
589.45	44713.59
589.61	44781.47
589.77	45162.98
589.93	44795.51
590.08	44699.55
590.24	44814.24
590.40	45111.49
590.56	45373.63
590.72	45502.35
590.88	45155.96
591.04	45113.83
591.20	45460.23
591.35	45773.86
591.51	45329.16
591.67	45174.68
591.83	45207.45
591.99	45027.23
592.15	44865.73
592.31	45467.25
592.46	44683.17
592.62	45413.41
592.78	44849.35
592.94	45509.38
593.10	45064.67
593.26	45013.18
593.41	45298.73
593.57	44924.24
593.73	44978.07
593.89	44949.99
594.05	44985.10
594.20	45116.17
594.36	45593.64
594.52	44947.65
594.68	45013.18
594.84	44985.10
594.99	45397.03
595.15	45106.80
595.31	45588.95
595.47	45071.70
595.62	45186.38
595.78	45237.87
595.94	45305.75
596.10	45303.41
596.25	45380.65
596.41	45284.68
596.57	45160.64
596.73	45570.23
596.88	44790.83
597.04	45223.83
597.20	45401.71
597.36	45258.94
597.51	45546.82
597.67	45525.76
597.83	45324.47
597.99	45490.65
598.14	45401.71
598.30	44811.90
598.46	45368.94
598.61	45071.70
598.77	44818.92
598.93	45268.30
599.09	45071.70
599.24	45610.02
599.40	45619.38
599.56	45184.04
599.71	45305.75
599.87	45174.68
600.03	45357.24
600.18	45413.41
600.34	45366.60
600.50	45612.36
600.65	45184.04
600.81	45373.63
600.97	45624.06
601.12	45191.06
601.28	45139.57
601.44	45497.67
601.59	44809.56
601.75	45008.50
601.91	45476.61
602.06	45132.55
602.22	45294.05
602.37	44978.07
602.53	45188.72
602.69	45617.04
602.84	44949.99
603.00	45113.83
603.16	45308.09
603.31	44842.32
603.47	45319.79
603.62	45088.08
603.78	45088.08
603.94	45289.37
604.09	45354.90
604.25	45361.92
604.40	45591.30
604.56	45464.91
604.71	45387.67
604.87	44767.43
605.03	44893.82
605.18	44961.69
605.34	45099.78
605.49	44498.26
605.65	45144.25
605.80	45181.70
605.96	45247.24
606.12	45244.90
606.27	45106.80
606.43	45059.99
606.58	45031.91
606.74	45034.25
606.89	44737.00
607.05	45015.52
607.20	45076.38
607.36	45085.74
607.51	45184.04
607.67	45078.72
607.82	45006.16
607.98	44851.69
608.13	44755.72
608.29	45095.10
608.44	44851.69
608.60	44753.38
608.75	44439.75
608.91	44659.76
609.06	44795.51
609.22	44685.51
609.37	44659.76
609.53	45006.16
609.68	44507.63
609.84	44662.10
609.99	44465.50
610.15	44692.53
610.30	44287.62
610.46	44175.27
610.61	44509.97
610.76	45045.95
610.92	44594.23
611.07	44999.14
611.23	44411.67
611.38	44643.38
611.54	44673.81
611.69	44449.11
611.84	44346.13
612.00	44432.73
612.15	44704.23
612.31	44362.51
612.46	44093.35
612.62	44659.76
612.77	44687.85
612.92	44952.33
613.08	44381.24
613.23	44425.71
613.39	44704.23
613.54	43894.41
613.69	44156.55
613.85	44341.45
614.00	44940.63
614.15	44935.95
614.31	44346.13
614.46	44631.68
614.62	44107.40
614.77	44046.54
614.92	43847.60
615.08	44053.56
615.23	43957.60
615.38	44229.10
615.54	43824.19
615.69	44229.10
615.84	44030.16
616.00	43665.03
616.15	43920.15
616.30	44479.54
616.46	43650.99
616.61	43276.51
616.76	44055.90
616.92	43166.50
617.07	43658.01
617.22	43356.08
617.37	43430.98
617.53	43761.00
617.68	43543.33
617.83	44233.78
617.99	43997.39
618.14	43892.07
618.29	43826.53
618.45	43868.66
618.60	43196.93
618.75	43690.78
618.90	43435.66
619.06	43854.62
619.21	43742.27
619.36	43880.36
619.51	43430.98
619.67	43215.65
619.82	43782.06
619.97	43573.75
620.12	43590.14
620.28	42925.42
620.43	43337.36
620.58	43489.49
620.73	42913.72
620.89	43229.69
621.04	43311.61
621.19	43629.93
621.34	43323.32
621.49	43009.68
621.65	43005.00
621.80	42808.40
621.95	42902.02
622.10	43023.73
622.25	42773.29
622.41	42548.60
622.56	42813.08
622.71	43419.28
622.86	42824.78
623.01	42883.30
623.16	42487.74
623.32	42597.75
623.47	43079.90
623.62	42763.93
623.77	42424.55
623.92	42440.93
624.07	42667.97
624.23	42609.45
624.38	42454.98
624.53	42745.20
624.68	42614.13
624.83	42677.33
624.98	42724.14
625.13	42412.85
625.29	42312.20
625.44	41998.57
625.59	42300.50
625.74	42106.24
625.89	42003.25
626.04	41883.89
626.19	42522.85
626.34	42375.40
626.49	42284.12
626.65	42431.57
626.80	42415.19
626.95	41902.61
627.10	41724.73
627.25	41928.36
627.40	41944.74
627.55	41579.62
627.70	41518.76
627.85	41673.24
628.00	41698.98
628.15	42082.83
628.30	41722.39
628.45	42342.63
628.60	41528.13
628.76	42237.31
628.91	41876.86
629.06	41731.75
629.21	41343.22
629.36	41663.88
629.51	41928.36
629.66	41408.76
629.81	41532.81
629.96	41308.11
630.11	41579.62
630.26	41706.01
630.41	41593.66
630.56	41902.61
630.71	41453.23
630.86	41415.78
631.01	41305.77
631.16	41734.09
631.31	40870.43
631.46	41352.58
631.61	41223.86
631.76	41120.87
631.91	41139.60
632.06	41261.30
632.21	41525.78
632.36	41441.53
632.51	40804.90
632.66	41083.42
632.81	41055.34
632.96	40889.16
633.10	40610.64
633.25	41130.23
633.40	41743.45
633.55	41233.22
633.70	40870.43
633.85	40624.68
634.00	40568.51
634.15	40666.81
634.30	40825.96
634.45	40952.35
634.60	40912.56
634.75	41216.83
634.90	40849.37
635.05	40495.95
635.19	40840.01
635.34	40596.59
635.49	40767.45
635.64	40488.93
635.79	40566.16
635.94	40659.79
636.09	40893.84
636.24	40306.37
636.39	40025.50
636.53	40112.10
636.68	40177.64
636.83	40444.46
636.98	40268.92
637.13	40198.70
637.28	40371.90
637.43	40322.75
637.57	40657.45
637.72	39819.53
637.87	40189.34
638.02	40072.31
638.17	40013.80
638.32	40016.14
638.46	40018.48
638.61	40435.10
638.76	39763.36
638.91	40201.04
639.06	40329.77
639.20	39941.24
639.35	40088.70
639.50	39950.60
639.65	40547.44
639.80	40334.45
639.94	40158.91
640.09	39821.87
640.24	39976.35
640.39	39208.65
640.54	39632.29
640.68	40013.80
640.83	39702.51
640.98	39812.51
641.13	39807.83
641.27	40002.10
641.42	39381.85
641.57	39711.87
641.72	39573.78
641.86	39393.56
642.01	39267.17
642.16	39110.35
642.31	38880.98
642.45	39281.21
642.60	39129.08
642.75	39288.23
642.90	39377.17
643.04	39269.51
643.19	39065.88
643.34	39051.84
643.48	38778.00
643.63	38852.89
643.78	39108.01
643.93	38635.22
644.07	38897.36
644.22	38815.44
644.37	38789.70
644.51	38796.72
644.66	39012.05
644.81	39026.09
644.95	39604.20
645.10	39735.27
645.25	39192.27
645.39	39098.65
645.54	38911.41
645.69	38939.49
645.83	38581.39
645.98	38698.42
646.13	38810.76
646.27	38703.10
646.42	38939.49
646.57	38691.40
646.71	38646.93
646.86	38909.07
647.00	38609.48
647.15	38504.15
647.30	38515.86
647.44	38738.21
647.59	38525.22
647.74	38305.21
647.88	38433.94
648.03	38471.39
648.17	38464.36
648.32	38253.72
648.47	38649.27
648.61	38347.34
648.76	38546.28
648.90	38178.82
649.05	38693.74
649.20	38302.87
649.34	38220.95
649.49	38204.56
649.63	37998.60
649.78	38075.84
649.92	37886.25
650.07	38665.65
650.21	38293.50
650.36	38204.56
650.51	37654.54
650.65	38122.65
650.80	38501.81
650.94	38693.74
651.09	37951.79
651.23	38000.94
651.38	37963.49
651.52	38005.62
651.67	38192.86
651.81	37399.42
651.96	37841.78
652.10	38068.81
652.25	37462.61
652.39	37596.03
652.54	38141.37
652.68	37874.55
652.83	37621.77
652.97	38092.22
653.12	37933.06
653.26	37462.61
653.41	37748.16
653.55	37605.39
653.70	37354.95
653.84	37184.09
653.99	37368.99
654.13	37549.21
654.27	37715.39
654.42	37212.18
654.56	37095.15
654.71	37350.27
654.85	37359.63
655.00	37289.42
655.14	37633.47
655.29	37048.34
655.43	37261.33
655.57	37015.57
655.72	36835.35
655.86	36861.10
656.01	36741.73
656.15	36896.20
656.30	36664.49
656.44	36980.46
656.58	36741.73
656.73	36673.85
656.87	36622.36
657.01	37315.16
657.16	37148.98
657.30	36769.82
657.45	36933.65
657.59	36900.89
657.73	36517.04
657.88	36495.97
658.02	36818.97
658.16	36566.19
658.31	36924.29
658.45	36655.13
658.60	36671.51
658.74	36189.36
658.88	36577.89
659.03	36446.82
659.17	36261.92
659.31	36320.43
659.46	36203.41
659.60	36390.65
659.74	36357.88
659.89	35948.29
660.03	36119.15
660.17	36282.98
660.32	36196.38
660.46	36081.70
660.60	36027.87
660.74	36107.44
660.89	36093.40
661.03	35218.04
661.17	35988.08
661.32	35665.08
661.46	35971.69
661.60	35613.59
661.74	35543.38
661.89	35679.13
662.03	35718.92
662.17	35601.89
662.31	35782.11
662.46	35852.33
662.60	35793.81
662.74	35721.26
662.88	35229.74
663.03	34866.96
663.17	35321.02
663.31	35068.25
663.45	34927.81
663.60	34913.77
663.74	34543.97
663.88	34838.87
664.02	34644.61
664.17	35014.41
664.31	34295.87
664.45	34876.32
664.59	35140.80
664.73	34232.68
664.88	34600.14
665.02	34429.28
665.16	34455.03
665.30	34469.07
665.44	34176.50
665.59	33809.04
665.73	33888.62
665.87	34682.06
666.01	34361.40
666.15	34232.68
666.29	34057.14
666.44	34197.57
666.58	34183.52
666.72	33710.74
666.86	34218.63
667.00	33879.25
667.14	33570.30
667.28	33516.47
667.43	33331.57
667.57	33802.02
667.71	33596.05
667.85	33319.87
667.99	33310.50
668.13	33434.55
668.27	33521.15
668.41	33310.50
668.56	32950.06
668.70	33282.42
668.84	33174.75
668.98	32926.66
669.12	33434.55
669.26	32847.08
669.40	32540.47
669.54	33015.60
669.68	32966.45
669.82	32884.53
669.96	32753.46
670.10	32425.78
670.25	32678.56
670.39	32753.46
670.53	32350.88
670.67	32575.58
670.81	32830.69
670.95	32430.46
671.09	31791.50
671.23	32184.71
671.37	32266.63
671.51	31819.58
671.65	31742.35
671.79	31681.49
671.93	31770.43
672.07	31852.35
672.21	31899.16
672.35	31648.72
672.49	31655.75
672.63	31840.65
672.77	31901.50
672.91	31456.80
673.05	31782.13
673.19	31903.84
673.33	31332.75
673.47	31335.09
673.61	31103.38
673.75	31290.62
673.89	30836.56
674.03	31030.82
674.17	30916.14
674.31	30651.66
674.45	30661.02
674.59	30866.98
674.73	30831.88
674.87	30558.03
675.01	30497.18
675.15	30789.75
675.29	30567.40
675.43	30618.89
675.56	30078.22
675.70	30073.54
675.84	30206.95
675.98	29575.01
676.12	30277.17
676.26	30096.95
676.40	29783.32
676.54	30036.09
676.68	29783.32
676.82	29404.15
676.96	29591.39
677.10	29446.28
677.23	29443.94
677.37	29099.88
677.51	29422.87
677.65	28858.81
677.79	28802.63
677.93	28940.72
678.07	28627.09
678.21	28510.07
678.34	28549.85
678.48	28301.76
678.62	28250.27
678.76	27861.74
678.90	28114.52
679.04	27894.50
679.18	27974.08
679.31	27494.27
679.45	27445.12
679.59	27344.48
679.73	27428.74
679.87	27428.74
680.00	27583.21
680.14	27068.30
680.28	27262.56
680.42	27122.13
680.56	27388.95
680.70	26857.65
680.83	27606.62
680.97	27475.55
681.11	27262.56
681.25	26937.23
681.39	26689.13
681.52	26834.24
681.66	26331.03
681.80	26850.63
681.94	26515.93
682.07	26349.75
682.21	26412.95
682.35	26302.94
682.49	26480.82
682.62	26434.01
682.76	26188.25
682.90	26092.29
683.04	25584.40
683.17	25565.67
683.31	25394.81
683.45	25563.33
683.59	25413.54
683.72	25132.67
683.86	25022.67
684.00	25188.85
684.13	25397.15
684.27	25025.01
684.41	24870.53
684.55	24554.56
684.68	24856.49
684.82	24655.20
684.96	24592.01
685.09	24783.93
685.23	24524.13
685.37	24493.71
685.50	24379.02
685.64	24100.50
685.78	24044.32
685.91	23852.40
686.05	23936.66
686.19	23798.57
686.32	23529.41
686.46	23115.13
686.60	22906.82
686.73	23175.98
686.87	23267.27
687.01	22677.45
687.14	22883.42
687.28	23019.17
687.42	23213.43
687.55	22682.13
687.69	23307.05
687.82	22614.26
687.96	23005.13
688.10	22705.54
688.23	22434.03
688.37	22099.34
688.50	21942.52
688.64	22391.91
688.78	22183.60
688.91	22279.56
689.05	22354.46
689.18	22068.91
689.32	21774.00
689.46	21809.11
689.59	21605.49
689.73	22089.98
689.86	21823.16
690.00	21511.86
690.13	21692.08
690.27	21284.83
690.41	21490.80
690.54	20680.97
690.68	21174.83
690.81	21195.89
690.95	20922.05
691.08	20790.98
691.22	20716.08
691.35	20779.28
691.49	20966.52
691.62	21013.33
691.76	20568.63
691.89	20407.13
692.03	20016.26
692.16	20093.50
692.30	20137.97
692.43	20290.10
692.57	19637.09
692.70	19803.27
692.84	19826.68
692.97	19665.18
693.11	19714.33
693.24	19604.33
693.38	19484.96
693.51	19274.31
693.65	19531.77
693.78	19667.52
693.92	19508.37
694.05	19386.66
694.19	19255.59
694.32	19255.59
694.45	18906.85
694.59	18768.76
694.72	18710.24
694.86	18733.65
694.99	18614.28
695.13	18658.75
695.26	18396.61
695.39	18274.90
695.53	18242.14
695.66	18459.81
695.80	18436.40
695.93	18249.16
696.07	18012.76
696.20	17954.25
696.33	17804.46
696.47	18132.13
696.60	17825.52
696.73	17813.82
696.87	17518.91
697.00	17699.13
697.14	17628.92
697.27	17603.17
697.40	17453.37
697.54	17336.35
697.67	17399.54
697.80	17284.86
697.94	16985.27
698.07	16982.93
698.21	16891.65
698.34	16711.42
698.47	16554.61
698.61	16456.31
698.74	16325.24
698.87	16304.17
699.01	16126.29
699.14	16116.93
699.27	16107.57
699.40	16058.42
699.54	16002.24
699.67	15894.58
699.80	15910.96
699.94	15946.07
700.07	15850.11
700.20	15796.28
700.34	15754.15
700.47	15641.80
700.60	15915.64
700.73	16140.33
700.87	15515.41
701.00	15386.68
701.13	15428.81
701.26	15269.66
701.40	15150.29
701.53	14970.07
701.66	15002.83
701.79	15239.23
701.93	14892.83
702.06	14974.75
702.19	14588.56
702.32	14668.14
702.46	14523.02
702.59	14684.52
702.72	14602.60
702.85	14600.26
702.99	14586.22
703.12	14469.19
703.25	13989.38
703.38	14225.78
703.51	14150.88
703.65	13991.72
703.78	14235.14
703.91	14265.57
704.04	14015.13
704.17	14038.53
704.31	14015.13
704.44	13708.52
704.57	13769.37
704.70	13476.80
704.83	13448.72
704.96	13521.27
705.10	13785.76
705.23	13558.72
>>>>>End Processed Spectral Data<<<<<
