SpectraSuite Data File
++++++++++++++++++++++++++++++++++++
Date: Fri Oct 25 11:33:13 EDT 2013
User: price-jones
Dark Spectrum Present: No
Reference Spectrum Present: No
Number of Sampled Component Spectra: 1
Spectrometers: USB2+H05261
Integration Time (usec): 100000 (USB2+H05261)
Spectra Averaged: 1 (USB2+H05261)
Boxcar Smoothing: 0 (USB2+H05261)
Correct for Electrical Dark: No (USB2+H05261)
Strobe/Lamp Enabled: No (USB2+H05261)
Correct for Detector Non-linearity: No (USB2+H05261)
Correct for Stray Light: No (USB2+H05261)
Number of Pixels in Processed Spectrum: 2048
>>>>>Begin Processed Spectral Data<<<<<
365.73	248.10
365.92	248.10
366.12	248.10
366.32	210.65
366.52	161.50
366.72	156.82
366.91	98.30
367.11	107.66
367.31	177.88
367.51	187.24
367.70	184.90
367.90	196.60
368.10	131.07
368.30	196.60
368.49	114.69
368.69	208.31
368.89	187.24
369.09	259.80
369.28	231.71
369.48	201.29
369.68	217.67
369.87	255.12
370.07	250.44
370.27	287.89
370.47	283.20
370.66	505.56
370.86	554.71
371.06	512.58
371.25	594.50
371.45	526.62
371.65	592.16
371.84	631.94
372.04	503.22
372.24	606.20
372.44	550.03
372.63	622.58
372.83	582.79
373.03	594.50
373.22	608.54
373.42	594.50
373.62	613.22
373.81	627.26
374.01	655.35
374.21	660.03
374.40	601.52
374.60	627.26
374.79	594.50
374.99	578.11
375.19	596.84
375.38	627.26
375.58	692.80
375.78	720.88
375.97	704.50
376.17	631.94
376.37	697.48
376.56	660.03
376.76	594.50
376.95	704.50
377.15	610.88
377.35	737.27
377.54	706.84
377.74	692.80
377.93	662.37
378.13	711.52
378.33	779.40
378.52	645.99
378.72	711.52
378.91	692.80
379.11	667.05
379.31	699.82
379.50	734.93
379.70	683.44
379.89	751.31
380.09	711.52
380.28	739.61
380.48	737.27
380.68	795.78
380.87	842.59
381.07	683.44
381.26	767.70
381.46	765.36
381.65	763.01
381.85	695.14
382.04	763.01
382.24	835.57
382.43	821.53
382.63	723.23
382.83	741.95
383.02	833.23
383.22	786.42
383.41	798.12
383.61	793.44
383.80	922.17
384.00	802.80
384.19	741.95
384.39	816.85
384.58	805.14
384.78	830.89
384.97	840.25
385.17	908.13
385.36	840.25
385.56	882.38
385.75	896.43
385.95	823.87
386.14	922.17
386.34	863.66
386.53	873.02
386.72	788.76
386.92	896.43
387.11	849.61
387.31	802.80
387.50	898.77
387.70	898.77
387.89	896.43
388.09	976.00
388.28	788.76
388.48	884.72
388.67	894.08
388.86	978.34
389.06	924.51
389.25	957.28
389.45	1004.09
389.64	898.77
389.84	894.08
390.03	976.00
390.22	978.34
390.42	968.98
390.61	959.62
390.81	940.90
391.00	952.60
391.19	1053.24
391.39	976.00
391.58	1048.56
391.78	1111.75
391.97	1069.62
392.16	1015.79
392.36	1097.71
392.55	1100.05
392.75	1011.11
392.94	1029.84
393.13	1039.20
393.33	1032.18
393.52	1118.78
393.71	1097.71
393.91	1095.37
394.10	1160.91
394.29	1093.03
394.49	1100.05
394.68	1123.46
394.88	1170.27
395.07	1203.04
395.26	1132.82
395.46	1102.39
395.65	1130.48
395.84	1149.20
396.04	1294.32
396.23	1172.61
396.42	1198.35
396.62	1270.91
396.81	1174.95
397.00	1200.69
397.19	1254.53
397.39	1207.72
397.58	1217.08
397.77	1329.42
397.97	1355.17
398.16	1317.72
398.35	1254.53
398.55	1327.08
398.74	1336.45
398.93	1273.25
399.12	1266.23
399.32	1280.27
399.51	1322.40
399.70	1392.62
399.90	1299.00
400.09	1392.62
400.28	1406.66
400.47	1409.00
400.67	1444.11
400.86	1418.36
401.05	1390.28
401.24	1406.66
401.44	1392.62
401.63	1486.24
401.82	1439.43
402.01	1357.51
402.21	1490.92
402.40	1504.96
402.59	1476.88
402.78	1519.01
402.97	1476.88
403.17	1474.54
403.36	1542.41
403.55	1582.20
403.74	1593.90
403.93	1570.50
404.13	1570.50
404.32	1673.48
404.51	1636.03
404.70	1640.72
404.89	1739.02
405.09	1699.23
405.28	1715.61
405.47	1682.85
405.66	1764.76
405.85	1734.34
406.05	1755.40
406.24	1832.64
406.43	1739.02
406.62	1776.47
406.81	1870.09
407.00	1783.49
407.20	1830.30
407.39	1811.57
407.58	1804.55
407.77	1846.68
407.96	1919.24
408.15	1884.13
408.34	1975.41
408.54	1914.56
408.73	1954.35
408.92	1912.22
409.11	1949.67
409.30	2064.35
409.49	2050.31
409.68	1909.88
409.87	2064.35
410.07	2017.54
410.26	2050.31
410.45	1989.46
410.64	2174.36
410.83	2076.06
411.02	2218.83
411.21	2260.96
411.40	2113.50
411.59	2211.81
411.78	2260.96
411.98	2186.06
412.17	2153.29
412.36	2291.38
412.55	2328.83
412.74	2345.22
412.93	2221.17
413.12	2296.07
413.31	2473.95
413.50	2380.32
413.69	2373.30
413.88	2495.01
414.07	2462.24
414.26	2574.59
414.45	2562.89
414.64	2509.05
414.83	2593.31
415.02	2778.22
415.22	2586.29
415.41	2771.19
415.60	2686.94
415.79	2808.64
415.98	2691.62
416.17	2700.98
416.36	2754.81
416.55	2771.19
416.74	2712.68
416.93	2848.43
417.12	2822.69
417.31	2888.22
417.50	2906.95
417.69	2965.46
417.88	2888.22
418.07	2930.35
418.26	2944.39
418.45	3030.99
418.64	3052.06
418.83	3192.49
419.02	3173.77
419.21	3162.06
419.39	3112.91
419.58	3169.09
419.77	3133.98
419.96	3218.24
420.15	3281.43
420.34	3218.24
420.53	3187.81
420.72	3232.28
420.91	3192.49
421.10	3283.77
421.29	3407.82
421.48	3180.79
421.67	3255.69
421.86	3281.43
422.05	3405.48
422.24	3328.24
422.43	3339.94
422.61	3412.50
422.80	3468.67
422.99	3309.52
423.18	3398.46
423.37	3445.27
423.56	3543.57
423.75	3295.47
423.94	3428.88
424.13	3166.74
424.32	3428.88
424.50	3609.11
424.69	3566.98
424.88	3515.48
425.07	3555.27
425.26	3468.67
425.45	3559.95
425.64	3494.42
425.83	3456.97
426.01	3552.93
426.20	3559.95
426.39	3550.59
426.58	3555.27
426.77	3592.72
426.96	3585.70
427.15	3658.26
427.33	3684.00
427.52	3557.61
427.71	3674.64
427.90	3786.99
428.09	3712.09
428.28	3639.53
428.46	3712.09
428.65	3815.07
428.84	3901.67
429.03	3861.88
429.22	3747.20
429.40	3918.06
429.59	3866.56
429.78	3803.37
429.97	3695.71
430.16	3761.24
430.34	3904.01
430.53	3798.69
430.72	3946.14
430.91	3936.78
431.10	3859.54
431.28	3833.80
431.47	3941.46
431.66	4067.85
431.85	3950.82
432.03	4086.58
432.22	4124.02
432.41	4187.22
432.60	4102.96
432.79	4278.50
432.97	4119.34
433.16	4156.79
433.35	4119.34
433.54	4212.96
433.72	4170.83
433.91	4138.07
434.10	4304.25
434.28	4344.03
434.47	4322.97
434.66	4475.10
434.85	4386.16
435.03	4327.65
435.22	4383.82
435.41	4498.51
435.59	4425.95
435.78	4571.07
435.97	4458.72
436.16	4461.06
436.34	4416.59
436.53	4479.79
436.72	4557.02
436.90	4465.74
437.09	4512.55
437.28	4512.55
437.46	4430.63
437.65	4521.92
437.84	4662.35
438.02	4634.26
438.21	4802.78
438.40	4784.06
438.58	4854.27
438.77	4950.23
438.96	4826.18
439.14	4819.16
439.33	4858.95
439.52	4875.34
439.70	4847.25
439.89	4978.32
440.08	5032.15
440.26	5160.88
440.45	5018.11
440.63	5235.78
440.82	5327.06
441.01	5221.74
441.19	5177.26
441.38	5282.59
441.57	5350.46
441.75	5336.42
441.94	5495.58
442.12	5397.28
442.31	5507.28
442.50	5493.24
442.68	5320.04
442.87	5504.94
443.05	5483.88
443.24	5753.04
443.43	5610.26
443.61	5544.73
443.80	5689.84
443.98	5570.48
444.17	5378.55
444.35	5537.71
444.54	5692.18
444.73	5813.89
444.91	5621.97
445.10	5870.06
445.28	5612.60
445.47	5659.42
445.65	5692.18
445.84	5720.27
446.02	5774.10
446.21	5668.78
446.39	5696.86
446.58	5755.38
446.77	5797.51
446.95	5657.07
447.14	5767.08
447.32	5940.28
447.51	6059.65
447.69	5771.76
447.88	5806.87
448.06	5870.06
448.25	5818.57
448.43	5989.43
448.62	5877.09
448.80	5799.85
448.99	5891.13
449.17	5935.60
449.36	5973.05
449.54	6008.16
449.73	6174.33
449.91	6216.46
450.10	6157.95
450.28	6097.10
450.46	6150.93
450.65	6270.30
450.83	6164.97
451.02	6157.95
451.20	6099.44
451.39	6366.26
451.57	6202.42
451.76	6188.38
451.94	6125.18
452.13	6539.46
452.31	6415.41
452.49	6073.69
452.68	6399.02
452.86	6272.64
453.05	6368.60
453.23	6420.09
453.42	6366.26
453.60	6249.23
453.78	6413.07
453.97	6396.68
454.15	6373.28
454.34	6462.22
454.52	6408.39
454.70	6729.04
454.89	6651.80
455.07	6661.16
455.26	6665.85
455.44	6581.59
455.62	6834.36
455.81	6817.98
455.99	6871.81
456.17	6857.77
456.36	6738.40
456.54	6904.58
456.73	7021.61
456.91	7133.95
457.09	7169.06
457.28	7272.04
457.46	6904.58
457.64	7265.02
457.83	7033.31
458.01	7052.03
458.19	7274.38
458.38	7199.49
458.56	7208.85
458.74	7157.36
458.93	7211.19
459.11	7267.36
459.29	7145.66
459.48	7321.20
459.66	7108.21
459.84	7445.24
460.03	7393.75
460.21	7566.95
460.39	7435.88
460.57	7562.27
460.76	7658.23
460.94	7648.87
461.12	7456.95
461.31	7604.40
461.49	7573.97
461.67	7541.21
461.85	7662.91
462.04	7676.96
462.22	8004.63
462.40	7730.79
462.59	7829.09
462.77	7978.89
462.95	7915.69
463.13	8016.33
463.32	7791.64
463.50	8039.74
463.68	8039.74
463.86	7976.55
464.05	7873.56
464.23	7990.59
464.41	7976.55
464.59	7887.61
464.78	8124.00
464.96	8084.21
465.14	7948.46
465.32	8236.35
465.50	8124.00
465.69	8119.32
465.87	8348.69
466.05	8329.97
466.23	8360.39
466.41	8362.73
466.60	8449.33
466.78	8168.47
466.96	8320.60
467.14	8250.39
467.32	8411.89
467.51	8587.43
467.69	8119.32
467.87	8454.02
468.05	8505.51
468.23	8493.80
468.41	8456.36
468.60	8636.58
468.78	8634.24
468.96	8517.21
469.14	8659.98
469.32	8662.32
469.50	8608.49
469.69	8884.67
469.87	8915.10
470.05	8849.57
470.23	8720.84
470.41	8985.32
470.59	8858.93
470.77	8840.20
470.95	9032.13
471.14	9291.93
471.32	8943.19
471.50	9202.99
471.68	9116.39
471.86	9149.15
472.04	9083.62
472.22	9287.25
472.40	9352.78
472.58	9289.59
472.77	9352.78
472.95	9322.35
473.13	9818.55
473.31	9488.53
473.49	9540.02
473.67	9596.20
473.85	9647.69
474.03	9874.72
474.21	9912.17
474.39	9942.60
474.57	9785.78
474.75	10003.45
474.93	10169.63
475.12	10040.90
475.30	10066.64
475.48	10113.45
475.66	10310.06
475.84	10143.88
476.02	10387.30
476.20	10328.78
476.38	10317.08
476.56	10630.71
476.74	10679.86
476.92	10647.10
477.10	10560.50
477.28	10885.83
477.46	10799.23
477.64	10967.75
477.82	11190.10
478.00	11531.82
478.18	11091.80
478.36	11400.75
478.54	11499.05
478.72	11372.66
478.90	11632.46
479.08	11552.88
479.26	11840.77
479.44	11651.19
479.62	12107.59
479.80	11906.31
479.98	12191.85
480.16	12444.63
480.34	12121.63
480.52	12437.61
480.70	12463.35
480.88	12175.47
481.06	12503.14
481.24	12500.80
481.41	12601.44
481.59	13050.83
481.77	13111.68
481.95	12954.87
482.13	13202.96
482.31	13247.43
482.49	13308.29
482.67	13294.24
482.85	13614.90
483.03	13685.11
483.21	13823.20
483.39	14040.87
483.57	13965.98
483.74	13996.40
483.92	14368.55
484.10	13851.29
484.28	14483.24
484.46	14654.09
484.64	14710.27
484.82	14565.15
485.00	14906.87
485.18	15124.54
485.35	15300.08
485.53	15206.46
485.71	15239.23
485.89	15475.62
486.07	15470.94
486.25	15508.39
486.43	15695.63
486.61	15896.92
486.78	16011.60
486.96	16236.30
487.14	16416.52
487.32	16306.51
487.50	16519.50
487.68	16697.38
487.85	16938.46
488.03	16961.86
488.21	17352.73
488.39	17451.03
488.57	17371.46
488.75	17675.73
488.92	17495.50
489.10	17811.48
489.28	17921.48
489.46	18181.28
489.64	17963.61
489.81	18092.34
489.99	18312.35
490.17	18588.53
490.35	18656.41
490.53	18623.64
490.70	18970.04
490.88	18368.52
491.06	18867.06
491.24	19187.71
491.41	19183.03
491.59	19150.26
491.77	19297.72
491.95	19634.75
492.13	19714.33
492.30	19953.07
492.48	20016.26
492.66	20004.56
492.84	19836.04
493.01	20086.48
493.19	20222.23
493.37	20645.87
493.54	20655.23
493.72	20739.49
493.90	20798.00
494.08	21078.86
494.25	21223.98
494.43	21333.98
494.61	21605.49
494.79	21598.46
494.96	21668.68
495.14	21898.05
495.32	22040.82
495.49	22080.61
495.67	22040.82
495.85	22197.64
496.02	21916.78
496.20	22450.42
496.38	22752.35
496.55	22764.05
496.73	22946.61
496.91	23026.19
497.09	23257.90
497.26	23211.09
497.44	23042.57
497.62	22995.76
497.79	23679.20
497.97	23648.77
498.14	23758.78
498.32	23880.49
498.50	23892.19
498.67	23859.42
498.85	24159.01
499.03	24091.13
499.20	24676.27
499.38	24458.60
499.56	24500.73
499.73	24807.34
499.91	24816.70
500.08	24875.21
500.26	24987.56
500.44	24994.58
500.61	25069.48
500.79	25074.16
500.97	25551.63
501.14	25792.70
501.32	25621.84
501.49	25476.73
501.67	25825.47
501.84	25982.29
502.02	25888.67
502.20	25998.67
502.37	26284.22
502.55	25963.56
502.72	26272.51
502.90	26347.41
503.07	26214.00
503.25	26342.73
503.43	26455.08
503.60	26794.45
503.78	26607.21
503.95	26611.89
504.13	27157.24
504.30	26969.99
504.48	27115.11
504.65	27112.77
504.83	27227.45
505.01	27583.21
505.18	27342.14
505.36	27840.67
505.53	27665.13
505.71	27473.21
505.88	27835.99
506.06	27894.50
506.23	27920.25
506.41	27758.75
506.58	28140.26
506.76	28311.12
506.93	28077.07
507.11	27960.04
507.28	28723.05
507.46	28641.14
507.63	28563.90
507.81	28613.05
507.98	28395.38
508.16	28837.74
508.33	28950.09
508.50	29097.54
508.68	29092.86
508.85	29006.26
509.03	29450.96
509.20	29408.83
509.38	29235.63
509.55	29663.95
509.73	29790.34
509.90	29982.26
510.08	29703.74
510.25	29937.79
510.42	29797.36
510.60	30066.52
510.77	29919.07
510.95	30455.05
511.12	30370.79
511.30	29937.79
511.47	30185.89
511.64	30555.69
511.82	30560.37
511.99	30398.88
512.17	30866.98
512.34	30721.87
512.51	31112.74
512.69	30967.63
512.86	31325.73
513.04	31503.61
513.21	31171.25
513.38	31510.63
513.56	31194.66
513.73	31536.38
513.90	31784.48
514.08	31634.68
514.25	31819.58
514.43	32088.74
514.60	31658.09
514.77	31871.07
514.95	32456.21
515.12	31887.46
515.29	32524.08
515.47	31847.67
515.64	32783.88
515.81	32088.74
515.99	32673.88
516.16	32854.10
516.33	32849.42
516.51	32875.16
516.68	32840.06
516.85	32753.46
517.03	32996.87
517.20	33237.95
517.37	33020.28
517.54	33141.99
517.72	33280.08
517.89	33369.02
518.06	33558.60
518.24	33518.81
518.41	33469.66
518.58	33399.44
518.75	33462.64
518.93	33937.77
519.10	33586.69
519.27	33736.48
519.45	33879.25
519.62	33720.10
519.79	34141.39
519.96	34036.07
520.14	34286.51
520.31	34089.90
520.48	34401.19
520.65	34415.24
520.83	35328.05
521.00	34822.49
521.17	34983.99
521.34	34913.77
521.52	35089.31
521.69	34958.24
521.86	35182.93
522.03	35431.03
522.20	35061.22
522.38	35257.83
522.55	35084.63
522.72	35686.15
522.89	35321.02
523.07	35817.22
523.24	35232.08
523.41	35592.53
523.58	35747.00
523.75	35976.37
523.92	35950.63
524.10	36151.91
524.27	35922.54
524.44	36311.07
524.61	36467.89
524.78	36006.80
524.96	36205.75
525.13	36634.06
525.30	36779.18
525.47	36257.24
525.64	36421.08
525.81	36701.94
525.98	36774.50
526.16	36615.34
526.33	36793.22
526.50	36978.12
526.67	36608.32
526.84	37010.89
527.01	37111.53
527.18	36690.24
527.36	37132.60
527.53	37385.38
527.70	37558.58
527.87	37958.81
528.04	37329.20
528.21	37584.32
528.38	37399.42
528.55	38162.43
528.72	37584.32
528.89	37790.29
529.07	37357.29
529.24	37691.99
529.41	38251.38
529.58	37816.04
529.75	37834.76
529.92	38132.01
530.09	37766.88
530.26	38284.14
530.43	38202.22
530.60	37907.32
530.77	38213.93
530.94	38092.22
531.11	38162.43
531.28	38328.61
531.46	38155.41
531.63	38576.71
531.80	38862.26
531.97	38897.36
532.14	38899.70
532.31	38862.26
532.48	38749.91
532.65	39494.20
532.82	39000.35
532.99	39346.75
533.16	39180.57
533.33	39351.43
533.50	39316.32
533.67	39168.87
533.84	39000.35
534.01	39407.60
534.18	39538.67
534.35	39758.68
534.52	39655.70
534.69	39550.37
534.86	39810.17
535.03	39768.04
535.20	39842.94
535.37	39814.85
535.54	39969.33
535.71	39770.38
535.88	39847.62
536.05	40538.08
536.22	40100.40
536.38	40219.77
536.55	40395.31
536.72	39892.09
536.89	39962.31
537.06	40074.65
537.23	40624.68
537.40	40191.68
537.57	40123.80
537.74	40224.45
537.91	40552.12
538.08	40491.27
538.25	40552.12
538.42	40327.43
538.59	40708.94
538.75	40390.62
538.92	40917.25
539.09	41518.76
539.26	40762.77
539.43	41390.03
539.60	40959.38
539.77	40992.14
539.94	41310.46
540.11	41008.53
540.28	41308.11
540.44	41336.20
540.61	41193.43
540.78	40933.63
540.95	41071.72
541.12	41296.41
541.29	41357.27
541.46	41588.98
541.62	41221.52
541.79	42021.98
541.96	41071.72
542.13	41333.86
542.30	41766.86
542.47	41420.46
542.63	41881.55
542.80	42302.84
542.97	42625.84
543.14	42164.75
543.31	42284.12
543.48	42766.27
543.64	42960.53
543.81	42721.80
543.98	42232.63
544.15	42134.32
544.32	42756.91
544.48	42864.57
544.65	42937.13
544.82	42822.44
544.99	42061.77
545.16	42672.65
545.32	42932.45
545.49	43117.35
545.66	43016.71
545.83	43005.00
546.00	43730.57
546.16	43070.54
546.33	42883.30
546.50	42487.74
546.67	43122.03
546.83	42836.48
547.00	43093.94
547.17	42962.87
547.34	43129.05
547.50	43372.47
547.67	43531.62
547.84	43346.72
548.00	43667.37
548.17	43915.47
548.34	43704.82
548.51	43751.63
548.67	43824.19
548.84	43765.68
549.01	43599.50
549.18	43742.27
549.34	44123.78
549.51	44231.44
549.68	44016.11
549.84	44287.62
550.01	44034.84
550.18	43784.40
550.34	44179.95
550.51	43831.21
550.68	44371.88
550.84	43627.59
551.01	44231.44
551.18	44247.83
551.34	44046.54
551.51	44491.24
551.68	44355.49
551.84	44243.15
552.01	44357.83
552.18	44711.25
552.34	44208.04
552.51	44964.03
552.68	44711.25
552.84	44474.86
553.01	44851.69
553.18	44713.59
553.34	44634.02
553.51	44392.94
553.67	44804.88
553.84	44643.38
554.01	44964.03
554.17	44889.13
554.34	45109.14
554.51	44903.18
554.67	45427.46
554.84	45497.67
555.00	45483.63
555.17	44978.07
555.33	45474.27
555.50	44863.39
555.67	45104.46
555.83	45088.08
556.00	45521.08
556.16	45757.47
556.33	45485.97
556.50	45530.44
556.66	45111.49
556.83	45088.08
556.99	45453.20
557.16	45687.26
557.32	45481.29
557.49	45696.62
557.65	45284.68
557.82	45787.90
557.98	45326.81
558.15	45757.47
558.32	45752.79
558.48	45088.08
558.65	45581.93
558.81	46005.57
558.98	45818.33
559.14	45815.99
559.31	45902.59
559.47	45860.46
559.64	45598.32
559.80	45883.86
559.97	46251.33
560.13	45736.41
560.30	45766.84
560.46	45703.64
560.63	45975.14
560.79	46548.57
560.96	46131.96
561.12	46216.22
561.29	46122.60
561.45	46546.23
561.61	45944.72
561.78	45996.21
561.94	45904.93
562.11	45940.04
562.27	46321.54
562.44	46000.89
562.60	46209.20
562.77	46412.82
562.93	46059.40
563.10	46677.30
563.26	46225.58
563.42	46710.07
563.59	46478.36
563.75	46010.25
563.92	46499.42
564.08	46478.36
564.24	46799.01
564.41	46820.08
564.57	46501.76
564.74	46670.28
564.90	46445.59
565.07	46632.83
565.23	46377.72
565.39	46813.05
565.56	46822.42
565.72	46244.30
565.88	46745.18
566.05	46616.45
566.21	46490.06
566.38	46567.30
566.54	46625.81
566.70	46508.79
566.87	46714.75
567.03	46277.07
567.19	46904.34
567.36	46607.09
567.52	46368.35
567.68	46951.15
567.85	46997.96
568.01	47136.05
568.17	47140.73
568.34	47246.05
568.50	47091.58
568.66	46349.63
568.83	47367.76
568.99	46782.63
569.15	47056.47
569.32	46810.71
569.48	46422.19
569.64	47430.96
569.81	46775.61
569.97	47093.92
570.13	47452.02
570.30	46777.95
570.46	46859.87
570.62	46995.62
570.78	47220.31
570.95	47285.84
571.11	47313.93
571.27	46909.02
571.43	47166.48
571.60	46934.76
571.76	46939.44
571.92	47136.05
572.09	47243.71
572.25	46845.82
572.41	46948.81
572.57	47040.09
572.74	47505.85
572.90	47466.06
573.06	47400.53
573.22	47065.83
573.38	47489.47
573.55	47496.49
573.71	47655.65
573.87	47753.95
574.03	47131.37
574.20	47639.26
574.36	47365.42
574.52	47445.00
574.68	47325.63
574.84	47437.98
575.01	47562.03
575.17	47487.13
575.33	47367.76
575.49	47304.57
575.65	47608.84
575.82	47255.42
575.98	47526.92
576.14	47496.49
576.30	47604.16
576.46	47604.16
576.62	47515.22
576.79	47730.54
576.95	47044.77
577.11	47009.66
577.27	47538.62
577.43	47320.95
577.59	47510.53
577.75	47079.88
577.92	47180.52
578.08	47641.60
578.24	47372.44
578.40	47440.32
578.56	47613.52
578.72	47604.16
578.88	47618.20
579.04	48058.22
579.21	47744.59
579.37	47442.66
579.53	47496.49
579.69	47461.38
579.85	47725.86
580.01	47363.08
580.17	47529.26
580.33	47374.78
580.49	47477.77
580.65	47913.11
580.82	47402.87
580.98	47339.68
581.14	47136.05
581.30	47435.64
581.46	47775.02
581.62	47559.69
581.78	47222.65
581.94	47627.56
582.10	47334.99
582.26	48051.20
582.42	47868.64
582.58	47597.13
582.74	47910.77
582.90	47941.19
583.06	48292.27
583.22	47559.69
583.38	47915.45
583.54	47950.56
583.70	47484.79
583.86	48126.10
584.02	47889.70
584.18	48240.78
584.34	48147.16
584.50	48203.33
584.66	48154.18
584.82	47789.06
584.98	48406.96
585.14	47927.15
585.30	47948.21
585.46	47803.10
585.62	47746.93
585.78	47690.76
585.94	47789.06
586.10	47789.06
586.26	47716.50
586.42	47695.44
586.58	47721.18
586.74	47725.86
586.90	47903.74
587.06	47735.23
587.22	47791.40
587.38	47667.35
587.54	47901.40
587.70	48348.45
587.86	47913.11
588.02	47519.90
588.18	47859.27
588.34	47885.02
588.49	47653.31
588.65	47739.91
588.81	47709.48
588.97	48172.91
589.13	47648.63
589.29	47980.98
589.45	48231.42
589.61	48051.20
589.77	47969.28
589.93	47714.16
590.08	48182.27
590.24	48484.20
590.40	48505.26
590.56	48341.42
590.72	48547.39
590.88	48285.25
591.04	48285.25
591.20	48470.15
591.35	48238.44
591.51	48704.21
591.67	48577.82
591.83	48224.40
591.99	48381.21
592.15	48114.39
592.31	48413.98
592.46	47779.70
592.62	48268.87
592.78	48392.92
592.94	48802.51
593.10	48966.35
593.26	48816.55
593.41	48748.68
593.57	48409.30
593.73	48456.11
593.89	48893.79
594.05	48767.40
594.20	48453.77
594.36	48858.68
594.52	48474.84
594.68	48638.67
594.84	48486.54
594.99	48516.96
595.15	48357.81
595.31	48458.45
595.47	48381.21
595.62	48453.77
595.78	48282.91
595.94	48671.44
596.10	48863.36
596.25	48378.87
596.41	48924.22
596.57	48505.26
596.73	48570.80
596.88	48779.10
597.04	48814.21
597.20	48858.68
597.36	48875.07
597.51	48622.29
597.67	48137.80
597.83	48231.42
597.99	48769.74
598.14	48671.44
598.30	48472.49
598.46	48474.84
598.61	48875.07
598.77	48552.07
598.93	48624.63
599.09	48811.87
599.24	49022.52
599.40	48631.65
599.56	48598.88
599.71	49097.42
599.87	49279.98
600.03	48699.53
600.18	49146.57
600.34	48783.79
600.50	48816.55
600.65	48781.45
600.81	49139.55
600.97	49116.14
601.12	48804.85
601.28	48989.75
601.44	49050.61
601.59	48912.52
601.75	48692.50
601.91	49226.15
602.06	48914.86
602.22	48748.68
602.37	48437.39
602.53	48746.34
602.69	49008.48
602.84	48514.62
603.00	48804.85
603.16	48736.98
603.31	48617.61
603.47	48741.66
603.62	48493.56
603.78	48617.61
603.94	48839.96
604.09	48765.06
604.25	48807.19
604.40	48879.75
604.56	48924.22
604.71	49184.02
604.87	48807.19
605.03	48774.42
605.18	48680.80
605.34	48690.16
605.49	48339.08
605.65	48561.44
605.80	48851.66
605.96	48437.39
606.12	48580.16
606.27	48758.04
606.43	48453.77
606.58	48343.77
606.74	48481.86
606.89	48631.65
607.05	48818.89
607.20	49043.59
607.36	48561.44
607.51	48751.02
607.67	48327.38
607.82	48573.14
607.98	48549.73
608.13	48774.42
608.29	48287.59
608.44	48545.05
608.60	48273.55
608.75	48573.14
608.91	48605.91
609.06	48336.74
609.22	48692.50
609.37	48252.48
609.53	48535.69
609.68	48512.28
609.84	48332.06
609.99	48942.94
610.15	48608.25
610.30	48680.80
610.46	48245.46
610.61	48570.80
610.76	48505.26
610.92	48032.47
611.07	48142.48
611.23	48418.66
611.38	48318.02
611.54	48044.18
611.69	48690.16
611.84	48552.07
612.00	48519.31
612.15	48238.44
612.31	48074.60
612.46	47840.55
612.62	47964.60
612.77	48339.08
612.92	48112.05
613.08	47990.34
613.23	48165.88
613.39	48105.03
613.54	47999.71
613.69	48435.05
613.85	48381.21
614.00	47962.26
614.15	48587.18
614.31	48619.95
614.46	48074.60
614.62	47739.91
614.77	47962.26
614.92	48039.50
615.08	48060.56
615.23	47922.47
615.38	48151.84
615.54	48367.17
615.69	48114.39
615.84	48086.31
616.00	48065.24
616.15	47791.40
616.30	47775.02
616.46	48098.01
616.61	47791.40
616.76	48280.57
616.92	48055.88
617.07	48170.57
617.22	48161.20
617.37	47349.04
617.53	47587.77
617.68	47524.58
617.83	47370.10
617.99	48039.50
618.14	48177.59
618.29	47239.03
618.45	47475.43
618.60	47346.70
618.75	47145.41
618.90	47330.31
619.06	47372.44
619.21	47543.30
619.36	47861.61
619.51	47386.49
619.67	47035.41
619.82	47395.85
619.97	47702.46
620.12	47529.26
620.28	47686.07
620.43	47604.16
620.58	47274.14
620.73	47512.88
620.89	47641.60
621.04	47533.94
621.19	47449.68
621.34	47363.08
621.49	47004.98
621.65	47159.45
621.80	47735.23
621.95	47468.40
622.10	47327.97
622.25	46997.96
622.41	46899.65
622.56	47150.09
622.71	47358.40
622.86	47166.48
623.01	47292.86
623.16	46911.36
623.32	47330.31
623.47	47014.34
623.62	46609.43
623.77	47000.30
623.92	46911.36
624.07	47157.11
624.23	47110.30
624.38	47070.51
624.53	47016.68
624.68	47126.69
624.83	46710.07
624.98	47019.02
625.13	46513.47
625.29	46389.42
625.44	46621.13
625.59	46784.97
625.74	47009.66
625.89	46553.26
626.04	46850.50
626.19	46614.11
626.34	46478.36
626.49	46417.50
626.65	46347.29
626.80	46967.53
626.95	46305.16
627.10	46319.20
627.25	46267.71
627.40	46478.36
627.55	46714.75
627.70	46522.83
627.85	46864.55
628.00	46506.44
628.15	46623.47
628.30	45713.00
628.45	46026.63
628.60	45921.31
628.76	46178.77
628.91	46005.57
629.06	45853.44
629.21	45865.14
629.36	45780.88
629.51	45970.46
629.66	45911.95
629.81	46494.74
629.96	46124.94
630.11	45858.12
630.26	45883.86
630.41	45579.59
630.56	45488.31
630.71	45940.04
630.86	45720.02
631.01	45565.55
631.16	45762.15
631.31	45607.68
631.46	45736.41
631.61	45888.54
631.76	46127.28
631.91	46073.45
632.06	46618.79
632.21	45757.47
632.36	45858.12
632.51	45497.67
632.66	45970.46
632.81	45710.66
632.96	45223.83
633.10	45233.19
633.25	45560.87
633.40	45668.53
633.55	45855.78
633.70	45354.90
633.85	45272.98
634.00	45191.06
634.15	44847.00
634.30	45158.30
634.45	45102.12
634.60	45441.50
634.75	45251.92
634.90	45235.53
635.05	45574.91
635.19	45310.43
635.34	45605.34
635.49	45074.04
635.64	45366.60
635.79	45247.24
635.94	45057.65
636.09	45558.53
636.24	45064.67
636.39	45277.66
636.53	44945.31
636.68	44594.23
636.83	44561.46
636.98	44320.38
637.13	44371.88
637.28	44641.04
637.43	44470.18
637.57	44849.35
637.72	44582.52
637.87	44425.71
638.02	44715.93
638.17	44655.08
638.32	44215.06
638.46	44580.18
638.61	44184.63
638.76	44397.62
638.91	44708.91
639.06	44289.96
639.20	44165.91
639.35	44404.64
639.50	44327.41
639.65	44442.09
639.80	44898.50
639.94	44587.21
640.09	44650.40
640.24	44774.45
640.39	44243.15
640.54	43447.36
640.68	44156.55
640.83	44802.53
640.98	44287.62
641.13	44051.22
641.27	44421.03
641.42	44025.48
641.57	44694.87
641.72	44034.84
641.86	44215.06
642.01	44142.50
642.16	43985.69
642.31	43665.03
642.45	43985.69
642.60	43805.47
642.75	43782.06
642.90	43641.63
643.04	43697.80
643.19	43330.34
643.34	43365.45
643.48	43838.23
643.63	43461.41
643.78	43716.53
643.93	43964.62
644.07	43917.81
644.22	43545.67
644.37	43229.69
644.51	43842.92
644.66	43412.26
644.81	43526.94
644.95	43608.86
645.10	43763.34
645.25	43360.76
645.39	43398.21
645.54	43529.28
645.69	43510.56
645.83	42871.59
645.98	43543.33
646.13	43089.26
646.27	43367.79
646.42	43445.02
646.57	43487.15
646.71	43777.38
646.86	43096.28
647.00	42946.49
647.15	43297.57
647.30	43407.58
647.44	43285.87
647.59	42979.26
647.74	43318.64
647.88	43269.48
648.03	43313.95
648.17	43503.54
648.32	43246.08
648.47	43058.84
648.61	42941.81
648.76	42923.08
648.90	43103.31
649.05	42909.04
649.20	43274.16
649.34	42899.68
649.49	43082.24
649.63	42820.10
649.78	43243.74
649.92	42782.65
650.07	43590.14
650.21	42951.17
650.36	42890.32
650.51	42705.41
650.65	42738.18
650.80	42817.76
650.94	42579.03
651.09	42462.00
651.23	42499.45
651.38	42117.94
651.52	42267.73
651.67	42586.05
651.81	42220.92
651.96	42087.51
652.10	41958.78
652.25	42794.36
652.39	42403.49
652.54	42597.75
652.68	42457.32
652.83	42129.64
652.97	42171.77
653.12	42518.17
653.26	41947.08
653.41	41703.67
653.55	41911.97
653.70	42249.01
653.84	42693.71
653.99	42789.67
654.13	41904.95
654.27	42206.88
654.42	42148.37
654.56	41965.81
654.71	42047.72
654.85	41998.57
655.00	42272.42
655.14	42188.16
655.29	42497.11
655.43	42445.62
655.57	42066.45
655.72	41504.72
655.86	41818.35
656.01	41776.22
656.15	41092.79
656.30	41717.71
656.44	41951.76
656.58	42204.54
656.73	41963.46
656.87	41422.80
657.01	41249.60
657.16	41378.33
657.30	41591.32
657.45	41467.27
657.59	41205.13
657.73	41312.80
657.88	41069.38
658.02	41507.06
658.16	41064.70
658.31	41586.64
658.45	41364.29
658.60	41193.43
658.74	41153.64
658.88	41312.80
659.03	40811.92
659.17	40737.02
659.31	40797.88
659.46	40521.69
659.60	40701.92
659.74	40779.15
659.89	41102.15
660.03	40397.65
660.17	40636.38
660.32	40767.45
660.46	40692.55
660.60	40285.30
660.74	40828.30
660.89	40886.82
661.03	39931.88
661.17	40126.14
661.32	40388.28
661.46	39969.33
661.60	40144.87
661.74	40032.52
661.89	40016.14
662.03	39971.67
662.17	39653.36
662.31	39894.43
662.46	40013.80
662.60	39625.27
662.74	39381.85
662.88	39735.27
663.03	39686.12
663.17	39597.18
663.31	39543.35
663.45	39138.44
663.60	39761.02
663.74	39459.09
663.88	39494.20
664.02	39140.78
664.17	39611.23
664.31	39086.95
664.45	39108.01
664.59	38967.58
664.73	39309.30
664.88	39082.27
665.02	38511.17
665.16	38892.68
665.30	38672.67
665.44	38323.93
665.59	38555.64
665.73	38375.42
665.87	38806.08
666.01	38366.06
666.15	38775.66
666.29	38279.46
666.44	38593.09
666.58	38597.77
666.72	38515.86
666.86	38108.60
667.00	37890.93
667.14	37947.11
667.28	37844.12
667.43	37834.76
667.57	38440.96
667.71	38471.39
667.85	38096.90
667.99	37942.42
668.13	37708.37
668.27	37441.55
668.41	37879.23
668.56	37053.02
668.70	37221.54
668.84	37036.64
668.98	36690.24
669.12	37502.40
669.26	37008.55
669.40	37097.49
669.54	37053.02
669.68	37123.24
669.82	37097.49
669.96	36760.45
670.10	36411.71
670.25	36336.82
670.39	36746.41
670.53	36727.69
670.67	36664.49
670.81	36861.10
670.95	36488.95
671.09	36587.25
671.23	36130.85
671.37	36561.51
671.51	36053.61
671.65	36105.10
671.79	36109.78
671.93	36149.57
672.07	36421.08
672.21	35770.41
672.35	35700.19
672.49	35749.34
672.63	35627.63
672.77	35229.74
672.91	35929.56
673.05	35452.09
673.19	35211.02
673.33	35009.73
673.47	34998.03
673.61	35033.14
673.75	34796.74
673.89	35007.39
674.03	35208.68
674.17	34520.56
674.31	34270.12
674.45	34663.33
674.59	34300.55
674.73	34892.71
674.87	34192.89
675.01	34295.87
675.15	33919.04
675.29	33905.00
675.43	34164.80
675.56	33731.80
675.70	33469.66
675.84	33647.54
675.98	32610.68
676.12	33841.81
676.26	33858.19
676.40	32877.51
676.54	33308.16
676.68	32905.59
676.82	32655.15
676.96	33177.09
677.10	32996.87
677.23	33221.56
677.37	32959.42
677.51	32779.20
677.65	32657.49
677.79	32341.52
677.93	32589.62
678.07	32582.60
678.21	32224.50
678.34	31896.82
678.48	31768.09
678.62	31737.66
678.76	31821.92
678.90	31789.16
679.04	31885.12
679.18	31402.97
679.31	31417.01
679.45	31129.12
679.59	31075.29
679.73	31119.76
679.87	31374.88
680.00	30747.62
680.14	31204.02
680.28	30836.56
680.42	30415.26
680.56	30579.10
680.70	30328.66
680.83	30115.67
680.97	29984.60
681.11	30370.79
681.25	29853.53
681.39	29675.65
681.52	30143.76
681.66	29633.52
681.80	29284.78
681.94	29259.04
682.07	29060.09
682.21	29013.28
682.35	29214.57
682.49	28926.68
682.62	28952.43
682.76	28781.57
682.90	28739.44
683.04	28947.75
683.17	28636.45
683.31	28500.70
683.45	28329.84
683.59	28348.57
683.72	27946.00
683.86	27845.35
684.00	28016.21
684.13	28311.12
684.27	27393.63
684.41	27845.35
684.55	27566.83
684.68	27421.72
684.82	27091.70
684.96	27438.10
685.09	27709.60
685.23	27559.81
685.37	27971.74
685.50	27466.19
685.64	26827.22
685.78	26649.34
685.91	26948.93
686.05	25986.97
686.19	25891.01
686.32	26345.07
686.46	26167.19
686.60	25900.37
686.73	26235.06
686.87	25963.56
687.01	25937.82
687.14	26001.01
687.28	25830.15
687.42	25671.00
687.55	25633.55
687.69	25357.36
687.82	25399.49
687.96	24945.43
688.10	25263.74
688.23	25081.18
688.37	25385.45
688.50	25242.68
688.64	24994.58
688.78	24627.12
688.91	24702.01
689.05	24730.10
689.18	24442.21
689.32	23992.83
689.46	23990.49
689.59	24147.31
689.73	24116.88
689.86	24573.28
690.00	24137.94
690.13	24376.68
690.27	23587.92
690.41	23728.35
690.54	23789.20
690.68	23424.08
690.81	23398.34
690.95	23337.48
691.08	23456.85
691.22	22813.20
691.35	22892.78
691.49	22972.36
691.62	23105.77
691.76	22792.14
691.89	22726.60
692.03	22342.75
692.16	21998.70
692.30	22389.56
692.43	22111.04
692.57	22024.44
692.70	22382.54
692.84	22132.11
692.97	21488.46
693.11	21631.23
693.24	21266.11
693.38	21453.35
693.51	21092.91
693.65	21186.53
693.78	21130.36
693.92	20959.50
694.05	20910.35
694.19	21132.70
694.32	21015.67
694.45	21254.40
694.59	21076.52
694.72	21078.86
694.86	20484.37
694.99	20320.53
695.13	20163.72
695.26	20196.48
695.39	20152.01
695.53	19711.99
695.66	20114.56
695.80	19793.91
695.93	20306.49
696.07	19655.82
696.20	19447.51
696.33	19183.03
696.47	19293.04
696.60	19227.50
696.73	19428.79
696.87	19278.99
697.00	19140.90
697.14	18803.86
697.27	18913.87
697.40	18649.39
697.54	18707.90
697.67	18609.60
697.80	19094.09
697.94	18476.19
698.07	18621.30
698.21	18560.45
698.34	18349.80
698.47	18513.64
698.61	17769.35
698.74	17776.37
698.87	18033.83
699.01	17701.47
699.14	17834.88
699.27	17549.34
699.40	17472.10
699.54	17584.44
699.67	17439.33
699.80	17369.12
699.94	17053.14
700.07	17245.07
700.20	17085.91
700.34	17233.36
700.47	16805.05
700.60	17509.55
700.73	16996.97
700.87	16826.11
701.00	16388.43
701.13	16505.46
701.26	16341.62
701.40	16624.83
701.53	16004.58
701.66	16217.57
701.79	15875.85
701.93	15868.83
702.06	15726.06
702.19	15784.57
702.32	15712.02
702.46	15751.81
702.59	15999.90
702.72	15634.78
702.85	15887.56
702.99	15609.03
703.12	15559.88
703.25	15274.34
703.38	15274.34
703.51	15150.29
703.65	14876.44
703.78	14871.76
703.91	14810.91
704.04	14778.14
704.17	14501.96
704.31	14593.24
704.44	14705.59
704.57	14513.66
704.70	14675.16
704.83	14295.99
704.96	14361.53
705.10	14176.62
705.23	14104.07
>>>>>End Processed Spectral Data<<<<<
