SpectraSuite Data File
++++++++++++++++++++++++++++++++++++
Date: Fri Oct 25 10:47:22 EDT 2013
User: price-jones
Dark Spectrum Present: No
Reference Spectrum Present: No
Number of Sampled Component Spectra: 1
Spectrometers: USB2+H05261
Integration Time (usec): 100000 (USB2+H05261)
Spectra Averaged: 1 (USB2+H05261)
Boxcar Smoothing: 0 (USB2+H05261)
Correct for Electrical Dark: No (USB2+H05261)
Strobe/Lamp Enabled: No (USB2+H05261)
Correct for Detector Non-linearity: No (USB2+H05261)
Correct for Stray Light: No (USB2+H05261)
Number of Pixels in Processed Spectrum: 2048
>>>>>Begin Processed Spectral Data<<<<<
365.73	173.20
365.92	173.20
366.12	173.20
366.32	74.90
366.52	32.77
366.72	23.41
366.91	18.72
367.11	86.60
367.31	65.54
367.51	93.62
367.70	28.09
367.90	39.79
368.10	37.45
368.30	42.13
368.49	49.15
368.69	60.85
368.89	53.83
369.09	58.51
369.28	105.32
369.48	124.05
369.68	79.58
369.87	152.13
370.07	121.71
370.27	100.64
370.47	304.27
370.66	360.44
370.86	390.87
371.06	400.23
371.25	418.96
371.45	409.59
371.65	451.72
371.84	454.06
372.04	395.55
372.24	416.62
372.44	442.36
372.63	407.25
372.83	486.83
373.03	491.51
373.22	475.13
373.42	510.24
373.62	491.51
373.81	510.24
374.01	491.51
374.21	514.92
374.40	484.49
374.60	517.26
374.79	512.58
374.99	557.05
375.19	538.32
375.38	603.86
375.58	587.47
375.78	545.34
375.97	543.00
376.17	566.41
376.37	571.09
376.56	617.90
376.76	545.34
376.95	566.41
377.15	610.88
377.35	514.92
377.54	564.07
377.74	606.20
377.93	634.29
378.13	634.29
378.33	648.33
378.52	596.84
378.72	667.05
378.91	631.94
379.11	678.76
379.31	566.41
379.50	603.86
379.70	608.54
379.89	631.94
380.09	601.52
380.28	592.16
380.48	685.78
380.68	695.14
380.87	676.41
381.07	617.90
381.26	674.07
381.46	594.50
381.65	653.01
381.85	592.16
382.04	669.39
382.24	718.54
382.43	688.12
382.63	606.20
382.83	655.35
383.02	702.16
383.22	706.84
383.41	697.48
383.61	748.97
383.80	678.76
384.00	653.01
384.19	660.03
384.39	699.82
384.58	755.99
384.78	692.80
384.97	774.72
385.17	699.82
385.36	676.41
385.56	624.92
385.75	709.18
385.95	819.19
386.14	851.96
386.34	730.25
386.53	847.27
386.72	777.06
386.92	814.51
387.11	816.85
387.31	880.04
387.50	812.17
387.70	777.06
387.89	814.51
388.09	882.38
388.28	777.06
388.48	739.61
388.67	795.78
388.86	823.87
389.06	954.94
389.25	889.40
389.45	851.96
389.64	889.40
389.84	924.51
390.03	894.08
390.22	861.32
390.42	908.13
390.61	821.53
390.81	903.45
391.00	884.72
391.19	1022.81
391.39	980.68
391.58	910.47
391.78	976.00
391.97	971.32
392.16	961.96
392.36	1018.13
392.55	858.98
392.75	968.98
392.94	889.40
393.13	954.94
393.33	863.66
393.52	1001.75
393.71	1008.77
393.91	1086.01
394.10	1071.97
394.29	1027.50
394.49	1013.45
394.68	1057.92
394.88	1067.28
395.07	957.28
395.26	1015.79
395.46	1097.71
395.65	1165.59
395.84	1076.65
396.04	1299.00
396.23	1067.28
396.42	1011.11
396.62	1102.39
396.81	1114.10
397.00	1151.54
397.19	1238.14
397.39	1214.74
397.58	1273.25
397.77	1205.38
397.97	1235.80
398.16	1240.48
398.35	1404.32
398.55	1240.48
398.74	1334.11
398.93	1224.10
399.12	1306.02
399.32	1322.40
399.51	1235.80
399.70	1299.00
399.90	1245.16
400.09	1441.77
400.28	1446.45
400.47	1413.68
400.67	1462.83
400.86	1460.49
401.05	1455.81
401.24	1357.51
401.44	1481.56
401.63	1451.13
401.82	1516.67
402.01	1462.83
402.21	1413.68
402.40	1495.60
402.59	1497.94
402.78	1551.78
402.97	1486.24
403.17	1530.71
403.36	1666.46
403.55	1659.44
403.74	1636.03
403.93	1659.44
404.13	1668.80
404.32	1596.25
404.51	1659.44
404.70	1657.10
404.89	1586.88
405.09	1680.50
405.28	1732.00
405.47	1666.46
405.66	1781.15
405.85	1736.68
406.05	1682.85
406.24	1703.91
406.43	1799.87
406.62	1746.04
406.81	1865.41
407.00	1706.25
407.20	1703.91
407.39	1853.70
407.58	1954.35
407.77	1849.02
407.96	1989.46
408.15	1923.92
408.34	2010.52
408.54	1998.82
408.73	2033.93
408.92	1998.82
409.11	1980.09
409.30	1961.37
409.49	1919.24
409.68	2064.35
409.87	2015.20
410.07	1952.01
410.26	1966.05
410.45	2172.02
410.64	2174.36
410.83	2097.12
411.02	2132.23
411.21	2267.98
411.40	2148.61
411.59	2249.25
411.78	2172.02
411.98	2249.25
412.17	2282.02
412.36	2296.07
412.55	2230.53
412.74	2436.50
412.93	2445.86
413.12	2403.73
413.31	2443.52
413.50	2469.27
413.69	2335.85
413.88	2574.59
414.07	2504.37
414.26	2520.76
414.45	2588.63
414.64	2527.78
414.83	2590.97
415.02	2656.51
415.22	2635.44
415.41	2729.06
415.60	2679.91
415.79	2757.15
415.98	2827.37
416.17	2810.98
416.36	2789.92
416.55	2808.64
416.74	2958.44
416.93	2708.00
417.12	2874.18
417.31	2855.45
417.50	2965.46
417.69	3068.44
417.88	3028.65
418.07	2956.10
418.26	2956.10
418.45	2951.42
418.64	3213.56
418.83	3115.25
419.02	3157.38
419.21	3159.72
419.39	3187.81
419.58	2960.78
419.77	3255.69
419.96	3225.26
420.15	3232.28
420.34	3194.83
420.53	3279.09
420.72	3314.20
420.91	3382.07
421.10	3335.26
421.29	3339.94
421.48	3171.43
421.67	3346.97
421.86	3283.77
422.05	3286.11
422.24	3232.28
422.43	3328.24
422.61	3349.31
422.80	3440.59
422.99	3276.75
423.18	3412.50
423.37	3555.27
423.56	3433.57
423.75	3513.14
423.94	3365.69
424.13	3251.00
424.32	3375.05
424.50	3564.64
424.69	3522.51
424.88	3541.23
425.07	3353.99
425.26	3384.41
425.45	3412.50
425.64	3487.40
425.83	3449.95
426.01	3435.91
426.20	3503.78
426.39	3566.98
426.58	3571.66
426.77	3606.77
426.96	3562.30
427.15	3719.11
427.33	3566.98
427.52	3646.55
427.71	3721.45
427.90	3686.34
428.09	3595.06
428.28	3566.98
428.46	3644.21
428.65	3875.93
428.84	3840.82
429.03	3906.35
429.22	3655.92
429.40	3606.77
429.59	3681.66
429.78	3578.68
429.97	3503.78
430.16	3772.94
430.34	3623.15
430.53	3761.24
430.72	3833.80
430.91	3941.46
431.10	3782.31
431.28	3990.61
431.47	3974.23
431.66	4002.32
431.85	4077.21
432.03	3974.23
432.22	4219.99
432.41	4159.13
432.60	4028.06
432.79	4060.83
432.97	4152.11
433.16	4156.79
433.35	4035.08
433.54	4109.98
433.72	4297.22
433.91	4238.71
434.10	4252.75
434.28	4238.71
434.47	4184.88
434.66	4365.10
434.85	4360.42
435.03	4329.99
435.22	4294.88
435.41	4470.42
435.59	4315.95
435.78	4440.00
435.97	4587.45
436.16	4346.37
436.34	4496.17
436.53	4681.07
436.72	4535.96
436.90	4442.34
437.09	4578.09
437.28	4432.97
437.46	4411.91
437.65	4461.06
437.84	4624.90
438.02	4594.47
438.21	4599.15
438.40	4550.00
438.58	4629.58
438.77	4781.71
438.96	4795.76
439.14	4940.87
439.33	4858.95
439.52	4919.81
439.70	4959.60
439.89	4985.34
440.08	5062.58
440.26	5081.30
440.45	5053.22
440.63	5135.14
440.82	5228.76
441.01	5240.46
441.19	5371.53
441.38	5291.95
441.57	5317.70
441.75	5441.75
441.94	5448.77
442.12	5586.86
442.31	5628.99
442.50	5612.60
442.68	5490.90
442.87	5479.19
443.05	5469.83
443.24	5825.59
443.43	5607.92
443.61	5678.14
443.80	5837.30
443.98	5570.48
444.17	5502.60
444.35	5645.37
444.54	5860.70
444.73	5799.85
444.91	5694.52
445.10	5650.05
445.28	5746.02
445.47	5570.48
445.65	5678.14
445.84	5802.19
446.02	5856.02
446.21	5863.04
446.39	5743.67
446.58	5802.19
446.77	5811.55
446.95	5799.85
447.14	5654.73
447.32	5982.41
447.51	5781.12
447.69	5788.14
447.88	5944.96
448.06	5933.26
448.25	5968.37
448.43	5881.77
448.62	5926.24
448.80	6029.22
448.99	6047.94
449.17	6066.67
449.36	6099.44
449.54	6176.67
449.73	6104.12
449.91	6258.59
450.10	6272.64
450.28	6370.94
450.46	6223.48
450.65	6431.79
450.83	6333.49
451.02	6445.84
451.20	6370.94
451.39	6394.34
451.57	6333.49
451.76	6408.39
451.94	6429.45
452.13	6403.71
452.31	6373.28
452.49	6181.35
452.68	6487.96
452.86	6373.28
453.05	6520.73
453.23	6473.92
453.42	6441.15
453.60	6361.58
453.78	6544.14
453.97	6466.90
454.15	6595.63
454.34	6490.31
454.52	6558.18
454.70	6715.00
454.89	6534.78
455.07	6717.34
455.26	6663.51
455.44	6890.54
455.62	6775.85
455.81	6822.66
455.99	6935.01
456.17	6951.39
456.36	7012.24
456.54	6960.75
456.73	6946.71
456.91	7096.50
457.09	7283.75
457.28	7391.41
457.46	6953.73
457.64	7059.06
457.83	7183.10
458.01	7131.61
458.19	7337.58
458.38	7150.34
458.56	7133.95
458.74	7040.33
458.93	7384.39
459.11	7311.83
459.29	7227.57
459.48	7447.58
459.66	7353.96
459.84	7396.09
460.03	7541.21
460.21	7433.54
460.39	7543.55
460.57	7541.21
460.76	7606.74
460.94	7721.43
461.12	7417.16
461.31	7737.81
461.49	7396.09
461.67	7634.83
461.85	7777.60
462.04	7564.61
462.22	8264.43
462.40	7847.82
462.59	7878.24
462.77	7824.41
462.95	7955.48
463.13	7967.18
463.32	7864.20
463.50	8138.04
463.68	8004.63
463.86	7719.09
464.05	7838.45
464.23	7976.55
464.41	7906.33
464.59	7875.90
464.78	7960.16
464.96	8091.23
465.14	8025.70
465.32	8119.32
465.50	8297.20
465.69	8285.50
465.87	8273.79
466.05	8205.92
466.23	8210.60
466.41	8219.96
466.60	8210.60
466.78	8084.21
466.96	8470.40
467.14	8173.15
467.32	8456.36
467.51	8496.14
467.69	8238.69
467.87	8524.23
468.05	8503.17
468.23	8582.74
468.41	8383.80
468.60	8519.55
468.78	8524.23
468.96	8519.55
469.14	8671.68
469.32	8922.12
469.50	8472.74
469.69	8667.00
469.87	8779.35
470.05	8922.12
470.23	8833.18
470.41	8683.39
470.59	8758.28
470.77	8830.84
470.95	9043.83
471.14	8875.31
471.32	8795.73
471.50	9085.96
471.68	9193.62
471.86	9097.66
472.04	9071.92
472.22	9121.07
472.40	9298.95
472.58	9291.93
472.77	9144.47
472.95	9235.75
473.13	9490.87
473.31	9329.38
473.49	9455.76
473.67	9338.74
473.85	9476.83
474.03	9764.72
474.21	9703.86
474.39	9692.16
474.57	9958.98
474.75	9928.55
474.93	9942.60
475.12	9872.38
475.30	9832.59
475.48	10251.55
475.66	10162.61
475.84	10174.31
476.02	10054.94
476.20	10162.61
476.38	10705.61
476.56	10436.45
476.74	10310.06
476.92	10335.81
477.10	10527.73
477.28	10721.99
477.46	10572.20
477.64	10675.18
477.82	11253.30
478.00	11281.38
478.18	11056.69
478.36	11300.11
478.54	11288.40
478.72	11653.53
478.90	11529.48
479.08	11473.31
479.26	11515.44
479.44	11920.35
479.62	11836.09
479.80	12051.42
479.98	11906.31
480.16	12107.59
480.34	11960.14
480.52	12203.55
480.70	12250.36
480.88	12262.07
481.06	12046.74
481.24	12545.27
481.41	12650.60
481.59	12753.58
481.77	12641.23
481.95	12966.57
482.13	12985.29
482.31	13097.64
482.49	13226.37
482.67	13291.90
482.85	13565.74
483.03	13467.44
483.21	13827.88
483.39	13902.78
483.57	13504.89
483.74	13731.92
483.92	14031.51
484.10	13891.08
484.28	14249.18
484.46	14516.00
484.64	14609.62
484.82	14450.47
485.00	14794.53
485.18	14682.18
485.35	14932.62
485.53	14801.55
485.71	14675.16
485.89	15236.89
486.07	15002.83
486.25	15232.21
486.43	15510.73
486.61	15295.40
486.78	15580.95
486.96	15875.85
487.14	15791.59
487.32	16107.57
487.50	15829.04
487.68	16271.40
487.85	16453.97
488.03	16681.00
488.21	16748.87
488.39	16809.73
488.57	17132.72
488.75	16844.84
488.92	17191.23
489.10	17315.28
489.28	17577.42
489.46	17610.19
489.64	17703.81
489.81	18052.55
489.99	17975.31
490.17	18134.47
490.35	18429.38
490.53	18651.73
490.70	18204.69
490.88	18354.48
491.06	18429.38
491.24	18731.31
491.41	18677.48
491.59	19082.39
491.77	18892.80
491.95	19040.26
492.13	19562.20
492.30	19484.96
492.48	19403.04
492.66	19484.96
492.84	19688.59
493.01	19927.32
493.19	19950.73
493.37	20212.87
493.54	20149.67
493.72	20107.54
493.90	20870.56
494.08	20744.17
494.25	20863.54
494.43	20451.60
494.61	21123.33
494.79	21053.12
494.96	20964.18
495.14	21310.58
495.32	21296.53
495.49	21113.97
495.67	21692.08
495.85	22073.59
496.02	21797.41
496.20	21799.75
496.38	22043.17
496.55	22127.42
496.73	22558.08
496.91	22141.47
497.09	22370.84
497.26	22808.52
497.44	22703.20
497.62	22768.73
497.79	22862.35
497.97	22754.69
498.14	23187.69
498.32	23185.35
498.50	23370.25
498.67	23477.91
498.85	23637.07
499.03	23775.16
499.20	23601.96
499.38	23864.10
499.56	24112.20
499.73	23878.15
499.91	24070.07
500.08	24109.86
500.26	23744.73
500.44	24240.93
500.61	24474.98
500.79	24350.93
500.97	24407.11
501.14	24931.39
501.32	25046.07
501.49	24482.00
501.67	24929.05
501.84	24783.93
502.02	24999.26
502.20	25284.81
502.37	25289.49
502.55	25474.39
502.72	25422.90
502.90	25537.59
503.07	25673.34
503.25	25575.03
503.43	25422.90
503.60	25755.26
503.78	25502.48
503.95	25453.33
504.13	25535.24
504.30	25991.65
504.48	26279.54
504.65	26167.19
504.83	26331.03
505.01	26417.63
505.18	26712.53
505.36	26649.34
505.53	26515.93
505.71	26663.38
505.88	26995.74
506.06	26993.40
506.23	26962.97
506.41	26820.20
506.58	27019.14
506.76	27452.14
506.93	27220.43
507.11	27552.79
507.28	27449.80
507.46	27222.77
507.63	27709.60
507.81	27714.28
507.98	27690.88
508.16	28151.96
508.33	28318.14
508.50	28065.36
508.68	27854.72
508.85	28369.63
509.03	27967.06
509.20	28355.59
509.38	28318.14
509.55	28493.68
509.73	28638.80
509.90	28758.16
510.08	28453.89
510.25	28793.27
510.42	29001.58
510.60	28823.70
510.77	29383.09
510.95	29184.14
511.12	29116.26
511.30	29188.82
511.47	29703.74
511.64	29710.76
511.82	29626.50
511.99	29331.59
512.17	29575.01
512.34	29844.17
512.51	29844.17
512.69	29724.80
512.86	30146.10
513.04	30005.67
513.21	30101.63
513.38	29991.62
513.56	29975.24
513.73	30192.91
513.90	30429.30
514.08	30417.60
514.25	30314.62
514.43	30499.52
514.60	30398.88
514.77	30412.92
514.95	30934.86
515.12	31101.04
515.29	30972.31
515.47	31599.57
515.64	31180.62
515.81	31353.82
515.99	31185.30
516.16	31175.94
516.33	31049.55
516.51	31613.62
516.68	31197.00
516.85	31379.56
517.03	31126.78
517.20	31321.05
517.37	31377.22
517.54	31435.74
517.72	31805.54
517.89	31686.17
518.06	31793.84
518.24	31449.78
518.41	31711.92
518.58	31782.13
518.75	32060.66
518.93	32315.78
519.10	31842.99
519.27	32226.84
519.45	32496.00
519.62	32573.24
519.79	32608.34
519.96	32673.88
520.14	32411.74
520.31	32734.73
520.48	32816.65
520.65	32762.82
520.83	32730.05
521.00	33216.88
521.17	33406.47
521.34	33296.46
521.52	33123.26
521.69	33200.50
521.86	33212.20
522.03	33347.95
522.20	33481.36
522.38	33504.77
522.55	33755.21
522.72	33872.23
522.89	33701.37
523.07	33584.35
523.24	33455.62
523.41	33792.65
523.58	33778.61
523.75	34342.68
523.92	34108.63
524.10	34653.97
524.27	34281.83
524.44	34539.29
524.61	34668.02
524.78	34380.13
524.96	34185.86
525.13	34609.50
525.30	34677.38
525.47	34988.67
525.64	34656.31
525.81	34892.71
525.98	35047.18
526.16	34569.71
526.33	34471.41
526.50	35054.20
526.67	34506.52
526.84	35054.20
527.01	35196.98
527.18	34974.63
527.36	35058.88
527.53	35576.14
527.70	35531.67
527.87	35704.87
528.04	35627.63
528.21	35845.30
528.38	35681.47
528.55	35747.00
528.72	35983.40
528.89	36367.24
529.07	36353.20
529.24	35218.04
529.41	35880.41
529.58	36095.74
529.75	35716.58
529.92	36027.87
530.09	36685.56
530.26	35894.46
530.43	36402.35
530.60	35878.07
530.77	36374.27
530.94	36446.82
531.11	36484.27
531.28	36961.74
531.46	36680.88
531.63	36662.15
531.80	36512.36
531.97	36500.65
532.14	36912.59
532.31	36388.31
532.48	37057.70
532.65	36842.37
532.82	36701.94
532.99	36985.15
533.16	36783.86
533.33	37001.53
533.50	37572.62
533.67	37310.48
533.84	37146.64
534.01	36765.14
534.18	37563.26
534.35	37792.63
534.52	37476.66
534.69	37724.75
534.86	37694.33
535.03	37715.39
535.20	37752.84
535.37	37720.07
535.54	37883.91
535.71	37586.66
535.88	37418.14
536.05	37844.12
536.22	38211.59
536.38	37942.42
536.55	37998.60
536.72	38387.13
536.89	37617.09
537.06	38054.77
537.23	38139.03
537.40	37928.38
537.57	38288.82
537.74	38438.62
537.91	38380.10
538.08	38778.00
538.25	38450.32
538.42	38506.49
538.59	38349.68
538.75	38270.10
538.92	38616.50
539.09	38504.15
539.26	38422.23
539.43	38122.65
539.60	38419.89
539.77	38602.46
539.94	38501.81
540.11	38794.38
540.28	38967.58
540.44	39108.01
540.61	38710.12
540.78	38738.21
540.95	38316.91
541.12	38726.50
541.29	38946.51
541.46	39030.77
541.62	39218.02
541.79	39564.42
541.96	38848.21
542.13	39201.63
542.30	39281.21
542.47	39349.09
542.63	39290.57
542.80	39281.21
542.97	39608.89
543.14	40252.53
543.31	39718.89
543.48	39772.72
543.64	39871.03
543.81	39845.28
543.98	40098.06
544.15	39817.19
544.32	40062.95
544.48	40353.18
544.65	39697.83
544.82	40147.21
544.99	39746.98
545.16	40051.25
545.32	40163.59
545.49	40486.59
545.66	40278.28
545.83	40692.55
546.00	40257.21
546.16	40512.33
546.33	40561.48
546.50	39959.97
546.67	40493.61
546.83	40208.06
547.00	40470.20
547.17	40388.28
547.34	40498.29
547.50	40690.21
547.67	40746.39
547.84	40807.24
548.00	41116.19
548.17	41158.32
548.34	40926.61
548.51	41020.23
548.67	41366.63
548.84	40942.99
549.01	40992.14
549.18	40701.92
549.34	41167.68
549.51	41106.83
549.68	41516.42
549.84	41067.04
550.01	41621.75
550.18	41460.25
550.34	41050.66
550.51	41691.96
550.68	41329.18
550.84	41109.17
551.01	41357.27
551.18	41673.24
551.34	41682.60
551.51	41392.37
551.68	41537.49
551.84	41666.22
552.01	41748.14
552.18	42150.71
552.34	41139.60
552.51	41544.51
552.68	41404.08
552.84	41722.39
553.01	41869.84
553.18	42057.09
553.34	41720.05
553.51	41565.57
553.67	41722.39
553.84	42047.72
554.01	41900.27
554.17	42401.14
554.34	42370.72
554.51	41806.65
554.67	42808.40
554.84	41907.29
555.00	42064.11
555.17	42410.51
555.33	42066.45
555.50	41935.38
555.67	41708.35
555.83	42279.44
556.00	42068.79
556.16	42206.88
556.33	42469.02
556.50	42141.35
556.66	42712.44
556.83	42237.31
556.99	42246.67
557.16	42452.64
557.32	42232.63
557.49	42394.12
557.65	42190.50
557.82	42092.19
557.98	42127.30
558.15	42501.79
558.32	42735.84
558.48	42801.38
558.65	43082.24
558.81	42492.43
558.98	42649.24
559.14	42876.27
559.31	42895.00
559.47	42745.20
559.64	42740.52
559.80	42979.26
559.97	42562.64
560.13	42880.95
560.30	42831.80
560.46	42562.64
560.63	42862.23
560.79	43150.12
560.96	43377.15
561.12	42782.65
561.29	43391.19
561.45	42857.55
561.61	42880.95
561.78	43070.54
561.94	43311.61
562.11	43175.86
562.27	43484.81
562.44	43332.68
562.60	43203.95
562.77	43529.28
562.93	42895.00
563.10	43225.01
563.26	42836.48
563.42	43498.86
563.59	43168.84
563.75	43257.78
563.92	43622.90
564.08	43309.27
564.24	43105.65
564.41	43161.82
564.57	43335.02
564.74	43400.55
564.90	43297.57
565.07	43316.29
565.23	43079.90
565.39	43189.91
565.56	43033.09
565.72	43180.54
565.88	43330.34
566.05	43264.80
566.21	43157.14
566.38	43395.87
566.54	43255.44
566.70	43597.16
566.87	43810.15
567.03	43770.36
567.19	43632.27
567.36	43709.50
567.52	42934.79
567.68	43751.63
567.85	43538.65
568.01	43763.34
568.17	43405.23
568.34	43901.43
568.50	43281.19
568.66	43721.21
568.83	43903.77
568.99	43842.92
569.15	43082.24
569.32	43423.96
569.48	43393.53
569.64	43976.33
569.81	43323.32
569.97	43447.36
570.13	43817.17
570.30	43159.48
570.46	43323.32
570.62	42897.34
570.78	43232.04
570.95	43522.26
571.11	44147.18
571.27	43882.70
571.43	43852.28
571.60	43903.77
571.76	43573.75
571.92	44039.52
572.09	43414.60
572.25	43510.56
572.41	43604.18
572.57	43529.28
572.74	44264.21
572.90	43611.20
573.06	43756.32
573.22	43908.45
573.38	43669.72
573.55	43952.92
573.71	44179.95
573.87	43899.09
574.03	43770.36
574.20	43807.81
574.36	44179.95
574.52	43903.77
574.68	43934.20
574.84	43742.27
575.01	43845.26
575.17	43550.35
575.33	44147.18
575.49	43653.33
575.65	44151.87
575.82	44404.64
575.98	43770.36
576.14	44095.69
576.30	44142.50
576.46	43466.09
576.62	43812.49
576.79	43805.47
576.95	43753.97
577.11	43714.19
577.27	43791.42
577.43	44229.10
577.59	43885.04
577.75	43695.46
577.92	43646.31
578.08	43419.28
578.24	43763.34
578.40	43800.79
578.56	44088.67
578.72	43959.94
578.88	44212.72
579.04	44165.91
579.21	43887.39
579.37	43920.15
579.53	43658.01
579.69	43709.50
579.85	43882.70
580.01	44083.99
580.17	44130.80
580.33	44147.18
580.49	44264.21
580.65	43742.27
580.82	44121.44
580.98	44320.38
581.14	43835.89
581.30	43936.54
581.46	44123.78
581.62	44023.14
581.78	44240.81
581.94	44786.15
582.10	43976.33
582.26	44477.20
582.42	44231.44
582.58	43793.76
582.74	44044.20
582.90	43929.51
583.06	44083.99
583.22	44198.68
583.38	43793.76
583.54	43941.22
583.70	44264.21
583.86	44109.74
584.02	43578.43
584.18	44119.10
584.34	44376.56
584.50	43430.98
584.66	44208.04
584.82	43936.54
584.98	44505.29
585.14	44280.60
585.30	44201.02
585.46	43985.69
585.62	43938.88
585.78	44032.50
585.94	43611.20
586.10	44245.49
586.26	43730.57
586.42	44399.96
586.58	44509.97
586.74	44158.89
586.90	44088.67
587.06	43833.55
587.22	44254.85
587.38	43737.59
587.54	44172.93
587.70	44683.17
587.86	44428.05
588.02	44414.01
588.18	44397.62
588.34	44020.80
588.49	44018.46
588.65	43901.43
588.81	43632.27
588.97	43540.99
589.13	43863.98
589.29	43812.49
589.45	44184.63
589.61	44402.30
589.77	44322.72
589.93	44229.10
590.08	44643.38
590.24	44512.31
590.40	44313.36
590.56	44488.90
590.72	44470.18
590.88	44289.96
591.04	44013.77
591.20	44882.11
591.35	44718.28
591.51	44795.51
591.67	44495.92
591.83	44671.46
591.99	44114.42
592.15	44034.84
592.31	44444.43
592.46	43894.41
592.62	44385.92
592.78	44268.89
592.94	44809.56
593.10	44659.76
593.26	44643.38
593.41	44369.54
593.57	44231.44
593.73	44395.28
593.89	43981.01
594.05	43817.17
594.20	44341.45
594.36	44402.30
594.52	44121.44
594.68	44421.03
594.84	44559.12
594.99	44786.15
595.15	44233.78
595.31	44811.90
595.47	44598.91
595.62	44559.12
595.78	44589.55
595.94	44526.35
596.10	44442.09
596.25	44526.35
596.41	44491.24
596.57	44016.11
596.73	44591.89
596.88	44533.37
597.04	44147.18
597.20	44416.35
597.36	44240.81
597.51	44786.15
597.67	44374.22
597.83	44631.68
597.99	44624.65
598.14	44957.01
598.30	44325.07
598.46	44554.44
598.61	44430.39
598.77	44559.12
598.93	44362.51
599.09	44491.24
599.24	44872.75
599.40	44896.16
599.56	44704.23
599.71	44491.24
599.87	44720.62
600.03	44680.83
600.18	44725.30
600.34	44521.67
600.50	44512.31
600.65	44641.04
600.81	44811.90
600.97	44699.55
601.12	44664.44
601.28	44306.34
601.44	44596.57
601.59	44414.01
601.75	44292.30
601.91	44531.03
602.06	44603.59
602.22	44348.47
602.37	44563.80
602.53	44926.58
602.69	44615.29
602.84	44467.84
603.00	44346.13
603.16	44079.31
603.31	44526.35
603.47	44409.32
603.62	44130.80
603.78	44044.20
603.94	44570.82
604.09	44694.87
604.25	44481.88
604.40	44135.48
604.56	44577.84
604.71	44383.58
604.87	44430.39
605.03	44795.51
605.18	44121.44
605.34	44399.96
605.49	44334.43
605.65	44605.93
605.80	44617.63
605.96	44729.98
606.12	44414.01
606.27	44872.75
606.43	44311.02
606.58	44245.49
606.74	44524.01
606.89	44327.41
607.05	44472.52
607.20	44500.61
607.36	44369.54
607.51	44664.44
607.67	44786.15
607.82	44371.88
607.98	44285.28
608.13	44411.67
608.29	44072.29
608.44	44154.21
608.60	43964.62
608.75	43934.20
608.91	43929.51
609.06	44194.00
609.22	44264.21
609.37	43606.52
609.53	44130.80
609.68	44222.08
609.84	44123.78
609.99	44250.17
610.15	43880.36
610.30	44306.34
610.46	43606.52
610.61	43728.23
610.76	43845.26
610.92	44273.57
611.07	43990.37
611.23	44142.50
611.38	44046.54
611.54	43215.65
611.69	43744.61
611.84	44301.66
612.00	43442.68
612.15	43419.28
612.31	43711.84
612.46	43845.26
612.62	43985.69
612.77	43744.61
612.92	44020.80
613.08	43899.09
613.23	43463.75
613.39	43557.37
613.54	43559.71
613.69	43379.49
613.85	43508.22
614.00	44013.77
614.15	43599.50
614.31	43709.50
614.46	43753.97
614.62	43615.88
614.77	43042.45
614.92	43438.00
615.08	43220.33
615.23	43442.68
615.38	43676.74
615.54	43519.92
615.69	43098.62
615.84	43180.54
616.00	43320.98
616.15	43349.06
616.30	43400.55
616.46	43131.39
616.61	43241.40
616.76	43042.45
616.92	43119.69
617.07	43482.47
617.22	43044.79
617.37	43217.99
617.53	43028.41
617.68	42993.30
617.83	43356.08
617.99	43196.93
618.14	43009.68
618.29	43084.58
618.45	42754.57
618.60	43409.92
618.75	42995.64
618.90	43299.91
619.06	43086.92
619.21	43260.12
619.36	43115.01
619.51	42777.97
619.67	42653.92
619.82	42710.10
619.97	43061.18
620.12	42518.17
620.28	42656.26
620.43	42370.72
620.58	42389.44
620.73	42829.46
620.89	42815.42
621.04	42782.65
621.19	42541.58
621.34	42588.39
621.49	42480.72
621.65	42487.74
621.80	42270.08
621.95	42209.22
622.10	42555.62
622.25	42630.52
622.41	42260.71
622.56	42260.71
622.71	42686.69
622.86	42387.10
623.01	42548.60
623.16	42621.16
623.32	42387.10
623.47	42562.64
623.62	42595.41
623.77	41923.68
623.92	42094.53
624.07	41928.36
624.23	42033.68
624.38	41769.20
624.53	41886.23
624.68	42211.56
624.83	42452.64
624.98	42667.97
625.13	41647.49
625.29	41944.74
625.44	42143.69
625.59	42066.45
625.74	41713.03
625.89	41586.64
626.04	41434.50
626.19	42071.13
626.34	41500.04
626.49	41514.08
626.65	41916.65
626.80	41694.30
626.95	41631.11
627.10	41689.62
627.25	41134.92
627.40	41507.06
627.55	41010.87
627.70	41029.59
627.85	41315.14
628.00	41383.01
628.15	41621.75
628.30	41375.99
628.45	41509.40
628.60	41406.42
628.76	41652.17
628.91	41500.04
629.06	41820.69
629.21	41457.91
629.36	41064.70
629.51	40966.40
629.66	41354.93
629.81	40842.35
629.96	40996.82
630.11	41048.32
630.26	41411.10
630.41	40921.93
630.56	40980.44
630.71	40971.08
630.86	40854.05
631.01	41280.03
631.16	40727.66
631.31	40444.46
631.46	40425.73
631.61	40797.88
631.76	40964.06
631.91	40627.02
632.06	40872.78
632.21	40725.32
632.36	41053.00
632.51	40575.53
632.66	40947.67
632.81	40247.85
632.96	40484.25
633.10	40540.42
633.25	40451.48
633.40	40474.88
633.55	40706.60
633.70	40858.73
633.85	40605.95
634.00	39934.22
634.15	40397.65
634.30	40268.92
634.45	40198.70
634.60	40201.04
634.75	40414.03
634.90	40435.10
635.05	40182.32
635.19	39606.55
635.34	40722.98
635.49	40205.72
635.64	39938.90
635.79	39894.43
635.94	39632.29
636.09	40142.53
636.24	39739.96
636.39	39779.74
636.53	40069.97
636.68	39885.07
636.83	39697.83
636.98	39522.29
637.13	39899.11
637.28	39625.27
637.43	40238.49
637.57	39676.76
637.72	39948.26
637.87	39772.72
638.02	39908.47
638.17	39782.09
638.32	39971.67
638.46	39615.91
638.61	39648.68
638.76	39604.20
638.91	39330.36
639.06	39409.94
639.20	39613.57
639.35	39749.32
639.50	39168.87
639.65	39807.83
639.80	39543.35
639.94	39014.39
640.09	38909.07
640.24	39505.90
640.39	39285.89
640.54	39489.52
640.68	39421.64
640.83	39393.56
640.98	39503.56
641.13	39079.92
641.27	39562.08
641.42	38864.60
641.57	39328.02
641.72	39264.83
641.86	38756.93
642.01	38946.51
642.16	38899.70
642.31	38417.55
642.45	38946.51
642.60	38630.54
642.75	38904.38
642.90	38618.84
643.04	38684.37
643.19	39019.07
643.34	38981.62
643.48	38841.19
643.63	38838.85
643.78	38817.78
643.93	38602.46
644.07	38644.59
644.22	38691.40
644.37	38700.76
644.51	38370.74
644.66	38579.05
644.81	38494.79
644.95	38927.79
645.10	38431.60
645.25	39180.57
645.39	38492.45
645.54	38459.68
645.69	38550.96
645.83	38115.62
645.98	38398.83
646.13	38541.60
646.27	38326.27
646.42	38190.52
646.57	38396.49
646.71	38291.16
646.86	38366.06
647.00	38436.28
647.15	38209.25
647.30	38412.87
647.44	38134.35
647.59	38157.75
647.74	37858.17
647.88	37668.58
648.03	38462.02
648.17	37963.49
648.32	38253.72
648.47	37846.46
648.61	37380.70
648.76	37708.37
648.90	37696.67
649.05	38192.86
649.20	37989.24
649.34	38298.19
649.49	37703.69
649.63	37408.78
649.78	37462.61
649.92	37947.11
650.07	38387.13
650.21	37663.90
650.36	37708.37
650.51	37722.41
650.65	38139.03
650.80	37975.19
650.94	37900.29
651.09	38113.28
651.23	37488.36
651.38	37462.61
651.52	37181.75
651.67	37675.60
651.81	37504.74
651.96	37401.76
652.10	37612.41
652.25	37001.53
652.39	37350.27
652.54	37502.40
652.68	37593.68
652.83	37415.80
652.97	37560.92
653.12	37415.80
653.26	37095.15
653.41	37443.89
653.55	37205.16
653.70	36905.57
653.84	37228.56
653.99	37574.96
654.13	37219.20
654.27	37233.24
654.42	37181.75
654.56	36772.16
654.71	36772.16
654.85	37174.73
655.00	37015.57
655.14	36767.48
655.29	36229.15
655.43	36467.89
655.57	36430.44
655.72	36062.97
655.86	36453.84
656.01	36474.91
656.15	36760.45
656.30	36226.81
656.44	36081.70
656.58	36577.89
656.73	36451.50
656.87	36374.27
657.01	36552.15
657.16	36093.40
657.30	36322.77
657.45	35842.96
657.59	36212.77
657.73	35714.23
657.88	36481.93
658.02	36158.94
658.16	35871.05
658.31	36397.67
658.45	36360.22
658.60	35892.12
658.74	36126.17
658.88	36250.22
659.03	35983.40
659.17	35875.73
659.31	35857.01
659.46	35828.92
659.60	35889.77
659.74	35669.76
659.89	35559.76
660.03	35613.59
660.17	35828.92
660.32	36020.84
660.46	35882.75
660.60	35559.76
660.74	35634.66
660.89	35805.52
661.03	35246.13
661.17	35082.29
661.32	35112.72
661.46	35311.66
661.60	35086.97
661.74	35299.96
661.89	35012.07
662.03	35276.55
662.17	35243.79
662.31	34731.21
662.46	35204.00
662.60	35189.95
662.74	34543.97
662.88	35185.27
663.03	34653.97
663.17	34553.33
663.31	34543.97
663.45	34560.35
663.60	34679.72
663.74	34480.77
663.88	34548.65
664.02	34522.90
664.17	34412.90
664.31	34574.39
664.45	33928.41
664.59	34621.20
664.73	34405.88
664.88	34436.30
665.02	33975.22
665.16	34239.70
665.30	33839.47
665.44	34024.37
665.59	33837.12
665.73	33956.49
665.87	33481.36
666.01	33937.77
666.15	33340.93
666.29	33919.04
666.44	34146.08
666.58	33251.99
666.72	33734.14
666.86	33972.88
667.00	33556.26
667.14	33392.42
667.28	33214.54
667.43	33390.08
667.57	32924.32
667.71	32973.47
667.85	33399.44
667.99	33432.21
668.13	32751.12
668.27	33137.30
668.41	33277.74
668.56	32961.76
668.70	33092.83
668.84	33153.69
668.98	32900.91
669.12	32477.27
669.26	32606.00
669.40	32652.81
669.54	32268.97
669.68	32645.79
669.82	32847.08
669.96	32294.71
670.10	32203.43
670.25	32535.79
670.39	32493.66
670.53	32531.11
670.67	32030.23
670.81	32074.70
670.95	32268.97
671.09	32173.00
671.23	31828.95
671.37	32093.43
671.51	31793.84
671.65	31899.16
671.79	31704.90
671.93	31438.08
672.07	31845.33
672.21	31641.70
672.35	31407.65
672.49	31246.15
672.63	31459.14
672.77	31487.23
672.91	31103.38
673.05	31126.78
673.19	30967.63
673.33	30665.70
673.47	30817.83
673.61	31037.84
673.75	30558.03
673.89	30232.70
674.03	30373.13
674.17	30429.30
674.31	30106.31
674.45	30113.33
674.59	30738.26
674.73	30106.31
674.87	30174.19
675.01	30728.89
675.15	30630.59
675.29	30155.46
675.43	30066.52
675.56	29944.81
675.70	29867.58
675.84	29940.13
675.98	28636.45
676.12	29577.35
676.26	29268.40
676.40	29610.12
676.54	29261.38
676.68	28968.81
676.82	28615.39
676.96	29076.48
677.10	28666.88
677.23	29345.64
677.37	29205.20
677.51	28959.45
677.65	29001.58
677.79	28861.15
677.93	28706.67
678.07	28339.21
678.21	28418.78
678.34	28077.07
678.48	27866.42
678.62	28388.36
678.76	28238.56
678.90	27606.62
679.04	27894.50
679.18	27929.61
679.31	27606.62
679.45	27374.91
679.59	27323.41
679.73	27197.02
679.87	27459.16
680.00	27049.57
680.14	27414.69
680.28	27068.30
680.42	26445.71
680.56	27000.42
680.70	26944.25
680.83	27009.78
680.97	26604.87
681.11	26560.40
681.25	26235.06
681.39	26333.37
681.52	26991.06
681.66	26637.64
681.80	26405.92
681.94	26361.45
682.07	26380.18
682.21	26026.76
682.35	25586.74
682.49	25678.02
682.62	25947.18
682.76	25525.88
682.90	25626.53
683.04	25624.18
683.17	25221.61
683.31	25130.33
683.45	25568.01
683.59	24896.28
683.72	25216.93
683.86	24538.18
684.00	24917.34
684.13	25109.27
684.27	25062.46
684.41	24933.73
684.55	24870.53
684.68	24549.88
684.82	24554.56
684.96	24212.84
685.09	24587.33
685.23	24400.08
685.37	24147.31
685.50	24004.53
685.64	23852.40
685.78	23873.46
685.91	23779.84
686.05	23843.04
686.19	23718.99
686.32	23403.02
686.46	23403.02
686.60	23183.01
686.73	23122.15
686.87	23009.81
687.01	23250.88
687.14	23021.51
687.28	22600.21
687.42	22588.51
687.55	22459.78
687.69	22656.39
687.82	22820.22
687.96	22494.89
688.10	22534.68
688.23	22005.72
688.37	22195.30
688.50	21958.91
688.64	21626.55
688.78	22174.24
688.91	21785.71
689.05	21806.77
689.18	21701.45
689.32	21406.54
689.46	21806.77
689.59	21523.57
689.73	21736.56
689.86	21596.12
690.00	21156.10
690.13	21469.73
690.27	21404.20
690.41	21132.70
690.54	20884.60
690.68	20922.05
690.81	20872.90
690.95	20685.65
691.08	20589.69
691.22	20479.69
691.35	20517.14
691.49	20741.83
691.62	20493.73
691.76	20582.67
691.89	20315.85
692.03	20437.56
692.16	19920.30
692.30	19887.53
692.43	20072.43
692.57	19648.80
692.70	19719.01
692.84	19857.10
692.97	19632.41
693.11	19524.75
693.24	19515.39
693.38	19470.92
693.51	19138.56
693.65	19133.88
693.78	19370.27
693.92	19115.16
694.05	19021.53
694.19	18946.64
694.32	18808.54
694.45	18967.70
694.59	18600.24
694.72	18363.84
694.86	18728.97
694.99	18359.16
695.13	18462.15
695.26	18171.92
695.39	17898.08
695.53	18122.77
695.66	18099.36
695.80	18043.19
695.93	18164.90
696.07	17703.81
696.20	18115.75
696.33	17706.15
696.47	17701.47
696.60	17570.40
696.73	17455.72
696.87	17460.40
697.00	17219.32
697.14	17532.95
697.27	17226.34
697.40	17544.66
697.54	17193.58
697.67	17006.33
697.80	17053.14
697.94	17081.23
698.07	16833.13
698.21	16650.57
698.34	16741.85
698.47	16570.99
698.61	16622.48
698.74	16325.24
698.87	16407.16
699.01	16311.19
699.14	16292.47
699.27	16126.29
699.40	16170.76
699.54	16173.10
699.67	15892.24
699.80	15798.62
699.94	15613.71
700.07	16058.42
700.20	15618.39
700.34	15557.54
700.47	15370.30
700.60	15805.64
700.73	15662.86
700.87	15424.13
701.00	15136.24
701.13	15201.78
701.26	15229.87
701.40	15236.89
701.53	14644.73
701.66	15147.95
701.79	14897.51
701.93	14864.74
702.06	14743.03
702.19	14586.22
702.32	14661.12
702.46	14363.87
702.59	14342.80
702.72	14457.49
702.85	14588.56
702.99	14347.48
703.12	14324.08
703.25	14483.24
703.38	14375.57
703.51	14057.26
703.65	14008.11
703.78	13902.78
703.91	13937.89
704.04	13816.18
704.17	13860.65
704.31	13713.20
704.44	13657.03
704.57	13467.44
704.70	13383.18
704.83	13252.11
704.96	13633.62
705.10	13308.29
705.23	13727.24
>>>>>End Processed Spectral Data<<<<<
