SpectraSuite Data File
++++++++++++++++++++++++++++++++++++
Date: Fri Oct 25 10:47:56 EDT 2013
User: price-jones
Dark Spectrum Present: No
Reference Spectrum Present: No
Number of Sampled Component Spectra: 1
Spectrometers: USB2+H05261
Integration Time (usec): 100000 (USB2+H05261)
Spectra Averaged: 1 (USB2+H05261)
Boxcar Smoothing: 0 (USB2+H05261)
Correct for Electrical Dark: No (USB2+H05261)
Strobe/Lamp Enabled: No (USB2+H05261)
Correct for Detector Non-linearity: No (USB2+H05261)
Correct for Stray Light: No (USB2+H05261)
Number of Pixels in Processed Spectrum: 2048
>>>>>Begin Processed Spectral Data<<<<<
365.73	163.84
365.92	163.84
366.12	163.84
366.32	110.01
366.52	100.64
366.72	46.81
366.91	79.58
367.11	65.54
367.31	74.90
367.51	0.00
367.70	0.00
367.90	30.43
368.10	35.11
368.30	74.90
368.49	4.68
368.69	0.00
368.89	25.75
369.09	37.45
369.28	79.58
369.48	110.01
369.68	81.92
369.87	46.81
370.07	58.51
370.27	147.45
370.47	189.58
370.66	390.87
370.86	383.85
371.06	393.21
371.25	479.81
371.45	404.91
371.65	472.79
371.84	416.62
372.04	465.77
372.24	496.19
372.44	458.74
372.63	475.13
372.83	447.04
373.03	442.36
373.22	493.85
373.42	519.60
373.62	503.22
373.81	472.79
374.01	540.66
374.21	475.13
374.40	454.06
374.60	528.96
374.79	540.66
374.99	561.73
375.19	582.79
375.38	589.82
375.58	578.11
375.78	662.37
375.97	571.09
376.17	554.71
376.37	592.16
376.56	608.54
376.76	655.35
376.95	568.75
377.15	554.71
377.35	624.92
377.54	594.50
377.74	545.34
377.93	589.82
378.13	685.78
378.33	631.94
378.52	645.99
378.72	606.20
378.91	643.65
379.11	603.86
379.31	566.41
379.50	599.18
379.70	657.69
379.89	629.60
380.09	587.47
380.28	671.73
380.48	662.37
380.68	571.09
380.87	645.99
381.07	664.71
381.26	683.44
381.46	624.92
381.65	669.39
381.85	636.63
382.04	627.26
382.24	624.92
382.43	624.92
382.63	662.37
382.83	755.99
383.02	751.31
383.22	765.36
383.41	706.84
383.61	706.84
383.80	727.91
384.00	751.31
384.19	737.27
384.39	763.01
384.58	741.95
384.78	746.63
384.97	781.74
385.17	699.82
385.36	765.36
385.56	779.40
385.75	730.25
385.95	770.04
386.14	819.19
386.34	737.27
386.53	823.87
386.72	779.40
386.92	753.65
387.11	821.53
387.31	922.17
387.50	788.76
387.70	791.10
387.89	814.51
388.09	763.01
388.28	805.14
388.48	807.48
388.67	910.47
388.86	870.68
389.06	781.74
389.25	809.83
389.45	861.32
389.64	952.60
389.84	945.58
390.03	868.34
390.22	887.06
390.42	837.91
390.61	910.47
390.81	924.51
391.00	980.68
391.19	915.15
391.39	903.45
391.58	966.64
391.78	1004.09
391.97	938.55
392.16	952.60
392.36	1008.77
392.55	1034.52
392.75	973.66
392.94	1013.45
393.13	896.43
393.33	1027.50
393.52	994.73
393.71	1125.80
393.91	1006.43
394.10	980.68
394.29	1181.97
394.49	1015.79
394.68	1071.97
394.88	1123.46
395.07	1125.80
395.26	1135.16
395.46	1107.07
395.65	1144.52
395.84	1081.33
396.04	1100.05
396.23	1181.97
396.42	1130.48
396.62	1170.27
396.81	1167.93
397.00	1121.12
397.19	1191.33
397.39	1193.67
397.58	1320.06
397.77	1221.76
397.97	1259.21
398.16	1324.74
398.35	1317.72
398.55	1287.29
398.74	1310.70
398.93	1380.92
399.12	1320.06
399.32	1256.87
399.51	1284.95
399.70	1474.54
399.90	1303.68
400.09	1315.38
400.28	1345.81
400.47	1380.92
400.67	1474.54
400.86	1432.41
401.05	1519.01
401.24	1523.69
401.44	1549.43
401.63	1474.54
401.82	1582.20
402.01	1490.92
402.21	1561.14
402.40	1479.22
402.59	1455.81
402.78	1542.41
402.97	1605.61
403.17	1645.40
403.36	1694.55
403.55	1673.48
403.74	1626.67
403.93	1673.48
404.13	1692.21
404.32	1605.61
404.51	1734.34
404.70	1825.62
404.89	1568.16
405.09	1746.04
405.28	1647.74
405.47	1661.78
405.66	1790.51
405.85	1736.68
406.05	1755.40
406.24	1741.36
406.43	1701.57
406.62	1788.17
406.81	1907.54
407.00	1732.00
407.20	1750.72
407.39	1858.39
407.58	1930.94
407.77	2022.22
407.96	1977.75
408.15	1846.68
408.34	1973.07
408.54	1930.94
408.73	2012.86
408.92	2062.01
409.11	1975.41
409.30	2010.52
409.49	2040.95
409.68	2073.71
409.87	2162.66
410.07	2153.29
410.26	2146.27
410.45	2073.71
410.64	2104.14
410.83	2209.47
411.02	2204.78
411.21	2303.09
411.40	2169.68
411.59	2251.60
411.78	2260.96
411.98	2424.80
412.17	2319.47
412.36	2296.07
412.55	2382.67
412.74	2490.33
412.93	2466.92
413.12	2476.29
413.31	2485.65
413.50	2469.27
413.69	2532.46
413.88	2546.50
414.07	2565.23
414.26	2569.91
414.45	2633.10
414.64	2705.66
414.83	2649.49
415.02	2771.19
415.22	2656.51
415.41	2656.51
415.60	2736.09
415.79	2796.94
415.98	2869.50
416.17	2827.37
416.36	2867.16
416.55	2869.50
416.74	2909.29
416.93	2874.18
417.12	2906.95
417.31	3028.65
417.50	2937.37
417.69	3019.29
417.88	3056.74
418.07	3103.55
418.26	3103.55
418.45	3073.12
418.64	3155.04
418.83	3239.30
419.02	3215.90
419.21	3204.19
419.39	3239.30
419.58	3206.53
419.77	3293.13
419.96	3304.84
420.15	3272.07
420.34	3229.94
420.53	3215.90
420.72	3346.97
420.91	3351.65
421.10	3400.80
421.29	3485.06
421.48	3421.86
421.67	3403.14
421.86	3410.16
422.05	3370.37
422.24	3494.42
422.43	3499.10
422.61	3485.06
422.80	3459.31
422.99	3555.27
423.18	3492.08
423.37	3658.26
423.56	3625.49
423.75	3606.77
423.94	3506.12
424.13	3239.30
424.32	3438.25
424.50	3473.36
424.69	3644.21
424.88	3641.87
425.07	3538.89
425.26	3412.50
425.45	3412.50
425.64	3482.72
425.83	3541.23
426.01	3674.64
426.20	3522.51
426.39	3716.77
426.58	3644.21
426.77	3581.02
426.96	3534.21
427.15	3590.38
427.33	3585.70
427.52	3672.30
427.71	3730.81
427.90	3719.11
428.09	3904.01
428.28	3583.36
428.46	3782.31
428.65	3779.97
428.84	3822.09
429.03	3889.97
429.22	3824.44
429.40	3868.91
429.59	3798.69
429.78	3562.30
429.97	3765.92
430.16	3782.31
430.34	3829.12
430.53	3831.46
430.72	3889.97
430.91	3878.27
431.10	3847.84
431.28	4035.08
431.47	4217.65
431.66	4138.07
431.85	4007.00
432.03	4133.39
432.22	4339.35
432.41	4262.12
432.60	4184.88
432.79	4184.88
432.97	4297.22
433.16	4170.83
433.35	4198.92
433.54	4191.90
433.72	4348.72
433.91	4266.80
434.10	4243.39
434.28	4320.63
434.47	4271.48
434.66	4432.97
434.85	4407.23
435.03	4568.73
435.22	4388.50
435.41	4538.30
435.59	4652.98
435.78	4547.66
435.97	4571.07
436.16	4648.30
436.34	4606.17
436.53	4608.51
436.72	4713.84
436.90	4451.70
437.09	4634.26
437.28	4568.73
437.46	4709.16
437.65	4580.43
437.84	4821.50
438.02	4730.22
438.21	4688.09
438.40	4779.37
438.58	4868.31
438.77	4833.21
438.96	4784.06
439.14	4889.38
439.33	5100.03
439.52	4971.30
439.70	5074.28
439.89	5062.58
440.08	5245.14
440.26	5184.29
440.45	5151.52
440.63	5214.71
440.82	5493.24
441.01	5303.65
441.19	5357.49
441.38	5460.47
441.57	5385.57
441.75	5575.16
441.94	5488.56
442.12	5659.42
442.31	5607.92
442.50	5537.71
442.68	5666.44
442.87	5640.69
443.05	5628.99
443.24	5701.54
443.43	5687.50
443.61	5783.46
443.80	5865.38
443.98	5720.27
444.17	5472.17
444.35	5799.85
444.54	5858.36
444.73	5823.25
444.91	5708.57
445.10	5898.15
445.28	5659.42
445.47	5804.53
445.65	5841.98
445.84	5841.98
446.02	5912.19
446.21	5830.27
446.39	5713.25
446.58	5900.49
446.77	5827.93
446.95	5940.28
447.14	5982.41
447.32	5947.30
447.51	5968.37
447.69	5959.00
447.88	5940.28
448.06	6036.24
448.25	6043.26
448.43	6012.84
448.62	6043.26
448.80	5966.03
448.99	5975.39
449.17	6164.97
449.36	6108.80
449.54	6216.46
449.73	6370.94
449.91	6277.32
450.10	6380.30
450.28	6368.60
450.46	6356.90
450.65	6485.62
450.83	6375.62
451.02	6319.45
451.20	6373.28
451.39	6352.21
451.57	6455.20
451.76	6415.41
451.94	6497.33
452.13	6452.86
452.31	6417.75
452.49	6342.85
452.68	6553.50
452.86	6633.08
453.05	6558.18
453.23	6583.93
453.42	6651.80
453.60	6633.08
453.78	6670.53
453.97	6628.40
454.15	6668.19
454.34	6633.08
454.52	6740.74
454.70	6813.30
454.89	6670.53
455.07	6754.79
455.26	6895.22
455.44	6834.36
455.62	6860.11
455.81	6862.45
455.99	7056.72
456.17	6853.09
456.36	6930.33
456.54	7246.30
456.73	7108.21
456.91	7276.73
457.09	7176.08
457.28	7384.39
457.46	7302.47
457.64	7435.88
457.83	7314.17
458.01	7307.15
458.19	7440.56
458.38	7250.98
458.56	7506.10
458.74	7316.51
458.93	7463.97
459.11	7403.11
459.29	7368.01
459.48	7566.95
459.66	7503.76
459.84	7573.97
460.03	7683.98
460.21	7733.13
460.39	7611.42
460.57	7634.83
460.76	7747.17
460.94	7620.78
461.12	7815.05
461.31	7793.98
461.49	7763.56
461.67	7576.31
461.85	8002.29
462.04	7815.05
462.22	8446.99
462.40	8107.62
462.59	7922.71
462.77	8028.04
462.95	8126.34
463.13	7932.08
463.32	7927.39
463.50	8002.29
463.68	7906.33
463.86	8201.24
464.05	7964.84
464.23	8131.02
464.41	8161.45
464.59	8079.53
464.78	8168.47
464.96	8334.65
465.14	8236.35
465.32	8418.91
465.50	8299.54
465.69	8299.54
465.87	8138.04
466.05	8360.39
466.23	8322.94
466.41	8545.30
466.60	8617.85
466.78	8486.78
466.96	8306.56
467.14	8311.24
467.32	8566.36
467.51	8683.39
467.69	8255.07
467.87	8557.00
468.05	8589.77
468.23	8587.43
468.41	8489.12
468.60	8662.32
468.78	8870.63
468.96	8472.74
469.14	8784.03
469.32	8800.41
469.50	8470.40
469.69	8933.82
469.87	8961.91
470.05	8894.04
470.23	8915.10
470.41	8784.03
470.59	9088.30
470.77	8868.29
470.95	8847.22
471.14	9181.92
471.32	8819.14
471.50	9331.72
471.68	9242.78
471.86	9266.18
472.04	9345.76
472.22	9565.77
472.40	9238.09
472.58	9493.21
472.77	9380.87
472.95	9687.48
473.13	10118.14
473.31	9458.10
473.49	9425.34
473.67	9610.24
473.85	9682.80
474.03	9937.91
474.21	9872.38
474.39	10045.58
474.57	9863.02
474.75	10197.71
474.93	10195.37
475.12	10087.71
475.30	10183.67
475.48	10197.71
475.66	10111.11
475.84	10349.85
476.02	10410.70
476.20	10345.17
476.38	10623.69
476.56	10780.51
476.74	10520.71
476.92	10619.01
477.10	10714.97
477.28	11419.47
477.46	10850.72
477.64	11140.95
477.82	11040.31
478.00	11365.64
478.18	11297.77
478.36	11150.31
478.54	11412.45
478.72	11683.95
478.90	11754.17
479.08	12084.19
479.26	11922.69
479.44	11908.65
479.62	11920.35
479.80	11836.09
479.98	12152.06
480.16	12416.54
480.34	12159.08
480.52	12666.98
480.70	12556.97
480.88	12360.37
481.06	12472.71
481.24	12615.49
481.41	12779.32
481.59	12957.21
481.77	12936.14
481.95	12989.97
482.13	13205.30
482.31	13362.12
482.49	13521.27
482.67	13640.64
482.85	13905.12
483.03	13518.93
483.21	14040.87
483.39	13963.64
483.57	14108.75
483.74	14139.18
483.92	14340.46
484.10	14249.18
484.28	14354.51
484.46	14670.48
484.64	14609.62
484.82	14663.46
485.00	14733.67
485.18	14993.47
485.35	14972.41
485.53	14738.35
485.71	15290.72
485.89	15370.30
486.07	15096.46
486.25	15410.09
486.43	15559.88
486.61	15822.02
486.78	15948.41
486.96	15784.57
487.14	16629.51
487.32	16105.23
487.50	16435.24
487.68	16535.88
487.85	16776.96
488.03	16961.86
488.21	17109.32
488.39	17301.24
488.57	17151.45
488.75	17415.93
488.92	17638.28
489.10	17823.18
489.28	18024.47
489.46	18092.34
489.64	17855.95
489.81	18031.49
489.99	18265.54
490.17	18523.00
490.35	18525.34
490.53	18422.36
490.70	18738.33
490.88	18658.75
491.06	19150.26
491.24	18843.65
491.41	19070.68
491.59	19087.07
491.77	19218.14
491.95	19253.25
492.13	19690.93
492.30	19807.95
492.48	20114.56
492.66	20095.84
492.84	19906.26
493.01	20285.42
493.19	20247.97
493.37	20180.10
493.54	20606.08
493.72	20563.95
493.90	20952.48
494.08	20879.92
494.25	21128.02
494.43	21231.00
494.61	21537.61
494.79	21439.31
494.96	21762.30
495.14	21635.91
495.32	21626.55
495.49	21837.20
495.67	21823.16
495.85	21998.70
496.02	22087.64
496.20	22534.68
496.38	22759.37
496.55	22656.39
496.73	23051.94
496.91	22878.74
497.09	22810.86
497.26	23070.66
497.44	22937.25
497.62	22920.87
497.79	23723.67
497.97	23300.03
498.14	23667.50
498.32	23627.71
498.50	24027.94
498.67	24128.58
498.85	24046.66
499.03	24217.52
499.20	24219.86
499.38	24273.70
499.56	24203.48
499.73	24629.46
499.91	24243.27
500.08	24638.82
500.26	24208.16
500.44	24491.37
500.61	24828.40
500.79	24180.07
500.97	24783.93
501.14	24936.07
501.32	25532.90
501.49	25137.35
501.67	24982.88
501.84	25343.32
502.02	25441.62
502.20	25689.72
502.37	25591.42
502.55	25600.78
502.72	25724.83
502.90	26103.99
503.07	25628.87
503.25	26101.65
503.43	26012.71
503.60	26235.06
503.78	26270.17
503.95	26031.44
504.13	26441.03
504.30	26438.69
504.48	26377.84
504.65	26569.76
504.83	26986.38
505.01	26909.14
505.18	26988.72
505.36	27077.66
505.53	27087.02
505.71	27372.57
505.88	27381.93
506.06	27264.90
506.23	27080.00
506.41	27524.70
506.58	27744.71
506.76	27402.99
506.93	27761.09
507.11	27630.02
507.28	27871.10
507.46	28137.92
507.63	27927.27
507.81	28177.71
507.98	28259.63
508.16	28226.86
508.33	28273.67
508.50	28638.80
508.68	28491.34
508.85	28907.96
509.03	28694.97
509.20	28767.52
509.38	29315.21
509.55	28889.23
509.73	29298.83
509.90	29207.55
510.08	29418.19
510.25	29427.56
510.42	29745.87
510.60	29631.18
510.77	29682.67
510.95	29874.60
511.12	29727.14
511.30	29783.32
511.47	29841.83
511.64	30209.29
511.82	30078.22
511.99	29883.96
512.17	29956.52
512.34	29860.55
512.51	30775.70
512.69	30726.55
512.86	30452.71
513.04	30625.91
513.21	30862.30
513.38	30700.81
513.56	31122.10
513.73	30862.30
513.90	31054.23
514.08	30864.64
514.25	31033.16
514.43	30691.44
514.60	31126.78
514.77	31290.62
514.95	31564.46
515.12	31409.99
515.29	31442.76
515.47	31807.88
515.64	31985.76
515.81	31875.76
515.99	31580.85
516.16	31618.30
516.33	31585.53
516.51	31955.33
516.68	31571.49
516.85	31641.70
517.03	31566.81
517.20	31978.74
517.37	32037.25
517.54	32158.96
517.72	32215.13
517.89	32219.81
518.06	31868.73
518.24	32393.01
518.41	32203.43
518.58	32580.26
518.75	32552.17
518.93	32954.74
519.10	32449.19
519.27	32678.56
519.45	32584.94
519.62	33270.72
519.79	33071.77
519.96	33535.20
520.14	33764.57
520.31	33563.28
520.48	33528.17
520.65	33731.80
520.83	33652.22
521.00	33724.78
521.17	33790.31
521.34	33757.55
521.52	34033.73
521.69	33853.51
521.86	34115.65
522.03	34146.08
522.20	34150.76
522.38	33813.72
522.55	34380.13
522.72	34078.20
522.89	34192.89
523.07	34328.64
523.24	34057.14
523.41	34550.99
523.58	34338.00
523.75	34693.76
523.92	34569.71
524.10	34981.65
524.27	34738.23
524.44	34841.21
524.61	34998.03
524.78	35171.23
524.96	35477.84
525.13	35243.79
525.30	35131.44
525.47	35491.88
525.64	35276.55
525.81	35414.65
525.98	35225.06
526.16	35447.41
526.33	35440.39
526.50	35761.05
526.67	35189.95
526.84	35009.73
527.01	35349.11
527.18	35676.79
527.36	36123.83
527.53	35779.77
527.70	36208.09
527.87	36297.03
528.04	36156.60
528.21	36229.15
528.38	36084.04
528.55	36458.52
528.72	36456.18
528.89	36891.52
529.07	36341.50
529.24	36407.03
529.41	36404.69
529.58	36428.10
529.75	36371.92
529.92	37221.54
530.09	37120.90
530.26	36711.30
530.43	37148.98
530.60	36591.94
530.77	36945.36
530.94	37137.28
531.11	36985.15
531.28	37010.89
531.46	37179.41
531.63	37673.26
531.80	37116.22
531.97	37556.24
532.14	37600.71
532.31	37050.68
532.48	37399.42
532.65	37556.24
532.82	37460.27
532.99	37944.76
533.16	37624.11
533.33	37844.12
533.50	37607.73
533.67	38143.71
533.84	37949.45
534.01	37921.36
534.18	38010.30
534.35	38389.47
534.52	38263.08
534.69	38066.47
534.86	38171.80
535.03	38265.42
535.20	38375.42
535.37	38543.94
535.54	38756.93
535.71	38389.47
535.88	38160.09
536.05	38492.45
536.22	38859.91
536.38	38300.53
536.55	38546.28
536.72	39012.05
536.89	38607.14
537.06	38789.70
537.23	38567.35
537.40	38836.51
537.57	38630.54
537.74	38845.87
537.91	39391.22
538.08	38925.45
538.25	39199.29
538.42	39012.05
538.59	39332.70
538.75	39098.65
538.92	39014.39
539.09	39601.86
539.26	39182.91
539.43	39152.48
539.60	39569.10
539.77	39124.40
539.94	39541.01
540.11	39203.97
540.28	39377.17
540.44	39213.34
540.61	39651.02
540.78	39643.99
540.95	39325.68
541.12	39632.29
541.29	39702.51
541.46	39700.17
541.62	39629.95
541.79	40091.04
541.96	39835.92
542.13	39945.92
542.30	40378.92
542.47	39569.10
542.63	39587.82
542.80	40205.72
542.97	40928.95
543.14	40542.76
543.31	40587.23
543.48	40350.84
543.64	40678.51
543.81	40624.68
543.98	40297.00
544.15	40531.06
544.32	40893.84
544.48	41240.24
544.65	40992.14
544.82	41057.68
544.99	40458.50
545.16	41027.25
545.32	40751.07
545.49	41251.94
545.66	40933.63
545.83	41097.47
546.00	41235.56
546.16	41361.95
546.33	40968.74
546.50	40765.11
546.67	41324.50
546.83	41038.95
547.00	41294.07
547.17	41139.60
547.34	41228.54
547.50	41322.16
547.67	41694.30
547.84	41677.92
548.00	42014.96
548.17	41476.63
548.34	41764.52
548.51	41982.19
548.67	41516.42
548.84	41808.99
549.01	41738.77
549.18	41558.55
549.34	41652.17
549.51	42185.82
549.68	41631.11
549.84	42305.18
550.01	42195.18
550.18	41794.95
550.34	42000.91
550.51	41755.16
550.68	41993.89
550.84	41816.01
551.01	42054.75
551.18	41921.34
551.34	42323.91
551.51	42279.44
551.68	42579.03
551.84	42178.79
552.01	41996.23
552.18	42127.30
552.34	41928.36
552.51	42124.96
552.68	42469.02
552.84	42108.58
553.01	42857.55
553.18	42553.28
553.34	42880.95
553.51	42337.95
553.67	42572.00
553.84	42913.72
554.01	42389.44
554.17	42745.20
554.34	42742.86
554.51	42976.92
554.67	43056.50
554.84	42663.28
555.00	42609.45
555.17	42543.92
555.33	43306.93
555.50	42754.57
555.67	43461.41
555.83	42976.92
556.00	42766.27
556.16	43395.87
556.33	42862.23
556.50	43000.32
556.66	43416.94
556.83	42997.98
556.99	42721.80
557.16	43459.07
557.32	43309.27
557.49	43203.95
557.65	42899.68
557.82	43328.00
557.98	42497.11
558.15	43054.15
558.32	43278.85
558.48	43164.16
558.65	43257.78
558.81	43428.64
558.98	43618.22
559.14	43227.35
559.31	43243.74
559.47	43498.86
559.64	43990.37
559.80	43803.13
559.97	43803.13
560.13	43409.92
560.30	43573.75
560.46	43665.03
560.63	43487.15
560.79	43466.09
560.96	43669.72
561.12	43515.24
561.29	43875.68
561.45	43695.46
561.61	43978.67
561.78	44135.48
561.94	43494.18
562.11	43648.65
562.27	43999.73
562.44	43772.70
562.60	44280.60
562.77	44385.92
562.93	44055.90
563.10	43810.15
563.26	44037.18
563.42	44034.84
563.59	43835.89
563.75	44055.90
563.92	44182.29
564.08	44163.57
564.24	44128.46
564.41	43753.97
564.57	43700.14
564.74	43971.64
564.90	44306.34
565.07	44264.21
565.23	43889.73
565.39	44219.74
565.56	44594.23
565.72	43913.13
565.88	44687.85
566.05	44144.84
566.21	44264.21
566.38	43856.96
566.54	43880.36
566.70	44287.62
566.87	44636.36
567.03	44093.35
567.19	44748.70
567.36	44112.08
567.52	44055.90
567.68	44126.12
567.85	44360.17
568.01	44479.54
568.17	43959.94
568.34	44353.15
568.50	44519.33
568.66	44046.54
568.83	44217.40
568.99	44083.99
569.15	44191.65
569.32	44048.88
569.48	43908.45
569.64	44598.91
569.81	44374.22
569.97	44009.09
570.13	44229.10
570.30	44388.26
570.46	44521.67
570.62	44198.68
570.78	44182.29
570.95	44121.44
571.11	44884.45
571.27	44610.61
571.43	44406.98
571.60	44807.22
571.76	43929.51
571.92	44191.65
572.09	43973.98
572.25	44318.04
572.41	44751.04
572.57	44046.54
572.74	45064.67
572.90	44547.42
573.06	44570.82
573.22	44446.77
573.38	44430.39
573.55	44158.89
573.71	44891.48
573.87	44575.50
574.03	44186.97
574.20	44495.92
574.36	44509.97
574.52	44381.24
574.68	44973.39
574.84	44554.44
575.01	44573.16
575.17	44325.07
575.33	44402.30
575.49	44273.57
575.65	45219.15
575.82	44985.10
575.98	44737.00
576.14	44641.04
576.30	44584.86
576.46	44320.38
576.62	44779.13
576.79	44732.32
576.95	44678.49
577.11	44278.25
577.27	44694.87
577.43	44648.06
577.59	44924.24
577.75	44601.25
577.92	44582.52
578.08	43976.33
578.24	44203.36
578.40	44617.63
578.56	44467.84
578.72	44556.78
578.88	44940.63
579.04	44570.82
579.21	44755.72
579.37	44563.80
579.53	44861.05
579.69	44751.04
579.85	44662.10
580.01	44896.16
580.17	44355.49
580.33	45083.40
580.49	44619.97
580.65	44732.32
580.82	44912.54
580.98	44809.56
581.14	44540.39
581.30	44982.76
581.46	44549.76
581.62	44889.13
581.78	44690.19
581.94	44975.73
582.10	44868.07
582.26	44954.67
582.42	44872.75
582.58	44797.85
582.74	44715.93
582.90	44641.04
583.06	44617.63
583.22	45148.93
583.38	45024.89
583.54	44800.19
583.70	44662.10
583.86	44971.05
584.02	44631.68
584.18	44863.39
584.34	44584.86
584.50	44524.01
584.66	44535.71
584.82	44528.69
584.98	44917.22
585.14	44704.23
585.30	44617.63
585.46	44594.23
585.62	44463.16
585.78	44727.64
585.94	44315.70
586.10	44854.03
586.26	44935.95
586.42	44877.43
586.58	44786.15
586.74	44832.96
586.90	44486.56
587.06	44774.45
587.22	44954.67
587.38	44236.12
587.54	45095.10
587.70	45076.38
587.86	44957.01
588.02	44928.92
588.18	44879.77
588.34	44762.75
588.49	44533.37
588.65	45134.89
588.81	44729.98
588.97	44683.17
589.13	44463.16
589.29	44832.96
589.45	44814.24
589.61	44580.18
589.77	44989.78
589.93	44549.76
590.08	45038.93
590.24	45326.81
590.40	44704.23
590.56	45471.93
590.72	44861.05
590.88	44800.19
591.04	44807.22
591.20	45106.80
591.35	45390.01
591.51	45607.68
591.67	44746.36
591.83	45214.47
591.99	44842.32
592.15	44837.64
592.31	45153.62
592.46	45572.57
592.62	45118.51
592.78	45200.43
592.94	45258.94
593.10	45106.80
593.26	45120.85
593.41	45048.29
593.57	44818.92
593.73	45041.27
593.89	44835.30
594.05	44715.93
594.20	45439.16
594.36	45120.85
594.52	44889.13
594.68	45057.65
594.84	45478.95
594.99	45635.77
595.15	44912.54
595.31	45394.69
595.47	45450.86
595.62	44921.90
595.78	45212.13
595.94	45652.15
596.10	45406.39
596.25	45752.79
596.41	45539.80
596.57	44961.69
596.73	45097.44
596.88	44605.93
597.04	45392.35
597.20	44982.76
597.36	45539.80
597.51	45565.55
597.67	45251.92
597.83	45083.40
597.99	45808.96
598.14	45364.26
598.30	45104.46
598.46	45305.75
598.61	44854.03
598.77	45329.16
598.93	45141.91
599.09	45031.91
599.24	45626.40
599.40	45165.32
599.56	45853.44
599.71	45684.92
599.87	45373.63
600.03	45382.99
600.18	45308.09
600.34	45436.82
600.50	45172.34
600.65	45153.62
600.81	45425.12
600.97	45474.27
601.12	45881.52
601.28	45357.24
601.44	45240.21
601.59	45551.51
601.75	45347.88
601.91	45495.33
602.06	44912.54
602.22	45228.51
602.37	45289.37
602.53	44978.07
602.69	45322.13
602.84	45151.27
603.00	45272.98
603.16	45425.12
603.31	44954.67
603.47	44854.03
603.62	45029.57
603.78	45504.70
603.94	44978.07
604.09	45378.31
604.25	45336.18
604.40	45382.99
604.56	45219.15
604.71	45092.76
604.87	45291.71
605.03	45048.29
605.18	44746.36
605.34	45144.25
605.49	45240.21
605.65	45244.90
605.80	44814.24
605.96	45378.31
606.12	45092.76
606.27	45378.31
606.43	45088.08
606.58	45214.47
606.74	44493.58
606.89	44772.11
607.05	45134.89
607.20	45036.59
607.36	44971.05
607.51	45418.10
607.67	44985.10
607.82	45230.85
607.98	44957.01
608.13	45001.48
608.29	44828.28
608.44	45088.08
608.60	44502.95
608.75	44549.76
608.91	44797.85
609.06	45092.76
609.22	44748.70
609.37	44821.26
609.53	44938.29
609.68	44875.09
609.84	44706.57
609.99	44891.48
610.15	44477.20
610.30	44694.87
610.46	44711.25
610.61	44690.19
610.76	44526.35
610.92	44664.44
611.07	44767.43
611.23	44734.66
611.38	44683.17
611.54	44275.91
611.69	44641.04
611.84	44168.25
612.00	44406.98
612.15	44383.58
612.31	44554.44
612.46	44636.36
612.62	44947.65
612.77	44673.81
612.92	44549.76
613.08	44390.60
613.23	44343.79
613.39	44060.58
613.54	44177.61
613.69	44182.29
613.85	44481.88
614.00	44741.68
614.15	44226.76
614.31	44172.93
614.46	44425.71
614.62	44280.60
614.77	44055.90
614.92	44215.06
615.08	44311.02
615.23	44502.95
615.38	44329.75
615.54	43817.17
615.69	44011.43
615.84	43594.82
616.00	44587.21
616.15	43648.65
616.30	44280.60
616.46	43735.25
616.61	43662.69
616.76	44102.71
616.92	43646.31
617.07	44016.11
617.22	43665.03
617.37	43826.53
617.53	44219.74
617.68	44130.80
617.83	44140.16
617.99	44257.19
618.14	43873.34
618.29	43772.70
618.45	43391.19
618.60	43735.25
618.75	43641.63
618.90	43571.41
619.06	43838.23
619.21	43728.23
619.36	43978.67
619.51	43735.25
619.67	42997.98
619.82	43779.72
619.97	43742.27
620.12	43505.88
620.28	43641.63
620.43	43299.91
620.58	42995.64
620.73	43086.92
620.89	42962.87
621.04	43356.08
621.19	43229.69
621.34	43725.89
621.49	42983.94
621.65	43077.56
621.80	43421.62
621.95	43508.22
622.10	43538.65
622.25	42887.98
622.41	42670.31
622.56	42965.21
622.71	43147.78
622.86	42965.21
623.01	42887.98
623.16	42794.36
623.32	43175.86
623.47	42843.51
623.62	43288.21
623.77	42951.17
623.92	42859.89
624.07	42487.74
624.23	42586.05
624.38	42618.81
624.53	42202.20
624.68	42635.20
624.83	42962.87
624.98	42895.00
625.13	42939.47
625.29	42869.25
625.44	43047.13
625.59	42845.85
625.74	42176.45
625.89	41895.59
626.04	42241.99
626.19	42288.80
626.34	42272.42
626.49	42377.74
626.65	42642.22
626.80	42660.94
626.95	42366.04
627.10	42457.32
627.25	42064.11
627.40	42146.03
627.55	41745.80
627.70	41567.91
627.85	41628.77
628.00	41897.93
628.15	42337.95
628.30	41968.15
628.45	42003.25
628.60	42029.00
628.76	42337.95
628.91	41729.41
629.06	41895.59
629.21	41984.53
629.36	41593.66
629.51	41556.21
629.66	41722.39
629.81	41708.35
629.96	41776.22
630.11	41514.08
630.26	42129.64
630.41	41567.91
630.56	41640.47
630.71	41720.05
630.86	41867.50
631.01	41429.82
631.16	41478.97
631.31	41303.43
631.46	41212.15
631.61	41429.82
631.76	41298.75
631.91	41897.93
632.06	41453.23
632.21	41605.36
632.36	41631.11
632.51	41109.17
632.66	41453.23
632.81	40875.12
632.96	41717.71
633.10	41057.68
633.25	40804.90
633.40	41050.66
633.55	41827.71
633.70	41301.09
633.85	40889.16
634.00	40821.28
634.15	41041.29
634.30	40769.79
634.45	41074.06
634.60	40919.59
634.75	40837.67
634.90	40837.67
635.05	40835.33
635.19	40772.13
635.34	40861.07
635.49	40837.67
635.64	40715.96
635.79	40493.61
635.94	40615.32
636.09	41067.04
636.24	40694.89
636.39	40032.52
636.53	40343.81
636.68	40395.31
636.83	40718.30
636.98	40308.71
637.13	40112.10
637.28	40533.40
637.43	40879.80
637.57	40540.42
637.72	40605.95
637.87	40638.72
638.02	40781.49
638.17	40519.35
638.32	40093.38
638.46	40275.94
638.61	40140.19
638.76	40161.25
638.91	40238.49
639.06	40114.44
639.20	40268.92
639.35	40275.94
639.50	40107.42
639.65	40280.62
639.80	40533.40
639.94	40226.79
640.09	40428.07
640.24	39981.03
640.39	39587.82
640.54	39730.59
640.68	39903.79
640.83	40222.11
640.98	39959.97
641.13	39538.67
641.27	39931.88
641.42	39566.76
641.57	39849.96
641.72	39910.82
641.86	39636.97
642.01	39599.52
642.16	39292.91
642.31	39215.68
642.45	39566.76
642.60	39398.24
642.75	38953.54
642.90	39779.74
643.04	39798.47
643.19	39536.33
643.34	39482.50
643.48	39536.33
643.63	39559.73
643.78	39461.43
643.93	39344.41
644.07	39047.16
644.22	39388.88
644.37	38827.15
644.51	39068.22
644.66	39119.71
644.81	39594.84
644.95	39304.62
645.10	39302.28
645.25	39140.78
645.39	39323.34
645.54	39321.00
645.69	39180.57
645.83	39309.30
645.98	38918.43
646.13	39098.65
646.27	38909.07
646.42	38719.48
646.57	38866.94
646.71	38859.91
646.86	38902.04
647.00	38778.00
647.15	38923.11
647.30	39461.43
647.44	38815.44
647.59	38848.21
647.74	38359.04
647.88	38749.91
648.03	38433.94
648.17	38824.81
648.32	38625.86
648.47	38382.45
648.61	38312.23
648.76	38794.38
648.90	38576.71
649.05	38520.54
649.20	38672.67
649.34	39049.50
649.49	38394.15
649.63	38403.51
649.78	38122.65
649.92	38218.61
650.07	38834.17
650.21	38550.96
650.36	38321.59
650.51	38347.34
650.65	38845.87
650.80	38742.89
650.94	38651.61
651.09	38258.40
651.23	38103.92
651.38	38132.01
651.52	37785.61
651.67	38141.37
651.81	38085.20
651.96	37886.25
652.10	38415.21
652.25	38096.90
652.39	37874.55
652.54	37315.16
652.68	38319.25
652.83	37944.76
652.97	38185.84
653.12	37919.02
653.26	38050.09
653.41	37818.38
653.55	37481.34
653.70	37551.56
653.84	37572.62
653.99	37935.40
654.13	37626.45
654.27	37823.06
654.42	37785.61
654.56	37895.61
654.71	37769.22
654.85	37778.59
655.00	37624.11
655.14	37221.54
655.29	37214.52
655.43	37230.90
655.57	36898.55
655.72	36568.53
655.86	37240.26
656.01	37064.72
656.15	36870.46
656.30	37263.67
656.44	36868.12
656.58	37125.58
656.73	36938.33
656.87	36928.97
657.01	37170.05
657.16	36636.41
657.30	36641.09
657.45	36926.63
657.59	36816.63
657.73	36818.97
657.88	36882.16
658.02	36741.73
658.16	37160.69
658.31	36706.62
658.45	37036.64
658.60	36861.10
658.74	36624.70
658.88	36809.61
659.03	36870.46
659.17	36439.80
659.31	36500.65
659.46	36694.92
659.60	36732.37
659.74	36243.20
659.89	35988.08
660.03	36376.61
660.17	36425.76
660.32	36084.04
660.46	35772.75
660.60	36484.27
660.74	36418.74
660.89	36126.17
661.03	35337.41
661.17	35906.16
661.32	35625.29
661.46	36046.59
661.60	35922.54
661.74	35676.79
661.89	35906.16
662.03	36023.19
662.17	35484.86
662.31	35646.36
662.46	35786.79
662.60	35569.12
662.74	35278.89
662.88	35625.29
663.03	35185.27
663.17	35262.51
663.31	35496.56
663.45	35548.06
663.60	35388.90
663.74	35494.22
663.88	34733.55
664.02	35227.40
664.17	35442.73
664.31	34590.78
664.45	34710.14
664.59	35119.74
664.73	35098.67
664.88	34911.43
665.02	34892.71
665.16	34803.77
665.30	34845.90
665.44	34707.80
665.59	34038.41
665.73	34015.01
665.87	34370.77
666.01	33935.43
666.15	34586.10
666.29	34253.74
666.44	34160.12
666.58	34218.63
666.72	34321.62
666.86	34890.37
667.00	34263.10
667.14	34216.29
667.28	33986.92
667.43	33692.01
667.57	33933.09
667.71	33661.58
667.85	33806.70
667.99	33586.69
668.13	33684.99
668.27	33633.50
668.41	33600.73
668.56	33441.57
668.70	33303.48
668.84	33364.34
668.98	33174.75
669.12	33326.89
669.26	33385.40
669.40	33104.54
669.54	33586.69
669.68	33247.31
669.82	33034.32
669.96	33090.49
670.10	32842.40
670.25	32875.16
670.39	33359.66
670.53	32659.84
670.67	32425.78
670.81	32996.87
670.95	32811.97
671.09	32755.80
671.23	32488.98
671.37	32823.67
671.51	32577.92
671.65	32016.19
671.79	31992.78
671.93	32259.60
672.07	32301.73
672.21	32294.71
672.35	31562.12
672.49	32044.27
672.63	32112.15
672.77	31943.63
672.91	31850.01
673.05	31653.40
673.19	31948.31
673.33	31735.32
673.47	31428.71
673.61	31491.91
673.75	31452.12
673.89	31344.45
674.03	31154.87
674.17	30939.54
674.31	31009.76
674.45	30909.11
674.59	31257.85
674.73	31201.68
674.87	30843.58
675.01	30993.37
675.15	30923.16
675.29	30876.35
675.43	30621.23
675.56	30717.19
675.70	30569.74
675.84	30380.15
675.98	29677.99
676.12	30529.95
676.26	30008.01
676.40	29956.52
676.54	29902.68
676.68	30157.80
676.82	29556.28
676.96	29862.90
677.10	29406.49
677.23	29682.67
677.37	29663.95
677.51	29565.65
677.65	29305.85
677.79	29088.18
677.93	28973.49
678.07	28826.04
678.21	28673.90
678.34	28652.84
678.48	28858.81
678.62	28599.01
678.76	28554.54
678.90	28311.12
679.04	28442.19
679.18	28652.84
679.31	28013.87
679.45	28170.69
679.59	27943.66
679.73	27957.70
679.87	28346.23
680.00	28166.01
680.14	27538.74
680.28	27484.91
680.42	27229.79
680.56	27417.04
680.70	27250.86
680.83	27370.22
680.97	27075.32
681.11	26834.24
681.25	26895.10
681.39	26780.41
681.52	26684.45
681.66	26953.61
681.80	26958.29
681.94	26705.51
682.07	26422.31
682.21	26471.46
682.35	26356.77
682.49	26569.76
682.62	26696.15
682.76	26178.89
682.90	25881.64
683.04	26089.95
683.17	25708.44
683.31	25970.58
683.45	26115.70
683.59	25872.28
683.72	25348.00
683.86	25610.14
684.00	25481.41
684.13	25399.49
684.27	25345.66
684.41	25064.80
684.55	25207.57
684.68	24692.65
684.82	24922.02
684.96	24615.41
685.09	24922.02
685.23	24692.65
685.37	24783.93
685.50	24407.11
685.64	24348.59
685.78	24683.29
685.91	24507.75
686.05	24264.33
686.19	23962.40
686.32	23931.98
686.46	23564.51
686.60	23470.89
686.73	23651.11
686.87	23070.66
687.01	23213.43
687.14	23136.20
687.28	22993.42
687.42	23192.37
687.55	23122.15
687.69	23056.62
687.82	22860.01
687.96	22654.05
688.10	22834.27
688.23	22703.20
688.37	22813.20
688.50	22707.88
688.64	22417.65
688.78	22670.43
688.91	22047.85
689.05	22038.48
689.18	21874.65
689.32	21661.66
689.46	22045.51
689.59	22183.60
689.73	21944.86
689.86	21546.97
690.00	21823.16
690.13	21848.90
690.27	21345.69
690.41	21631.23
690.54	21135.04
690.68	21226.32
690.81	20964.18
690.95	21092.91
691.08	20968.86
691.22	20966.52
691.35	20959.50
691.49	20947.79
691.62	21006.31
691.76	20947.79
691.89	20662.25
692.03	20297.13
692.16	20664.59
692.30	20421.17
692.43	20524.16
692.57	20203.50
692.70	20016.26
692.84	20116.90
692.97	19803.27
693.11	19807.95
693.24	19707.31
693.38	19695.61
693.51	19311.76
693.65	19578.58
693.78	19487.30
693.92	19384.32
694.05	19426.45
694.19	19161.97
694.32	19019.19
694.45	19007.49
694.59	19084.73
694.72	18752.37
694.86	18780.46
694.99	18567.47
695.13	18483.21
695.26	18192.98
695.39	18162.56
695.53	18520.66
695.66	18651.73
695.80	18838.97
695.93	18125.11
696.07	17865.31
696.20	18129.79
696.33	17717.86
696.47	18307.67
696.60	17965.95
696.73	18043.19
696.87	17799.77
697.00	18029.15
697.14	17818.50
697.27	17575.08
697.40	17809.14
697.54	17364.43
697.67	17238.05
697.80	17474.44
697.94	17259.11
698.07	17277.83
698.21	16959.52
698.34	16917.39
698.47	16954.84
698.61	16622.48
698.74	16638.87
698.87	16575.67
699.01	16411.84
699.14	16299.49
699.27	16500.78
699.40	16519.50
699.54	16489.07
699.67	16283.11
699.80	16236.30
699.94	15929.69
700.07	16119.27
700.20	16081.82
700.34	15829.04
700.47	15737.76
700.60	15632.44
700.73	15707.34
700.87	15796.28
701.00	15477.96
701.13	15496.69
701.26	15454.56
701.40	15307.10
701.53	15335.19
701.66	14949.00
701.79	15337.53
701.93	14764.10
702.06	14857.72
702.19	14822.61
702.32	14878.79
702.46	14614.30
702.59	14888.15
702.72	14621.33
702.85	14906.87
702.99	14775.80
703.12	14803.89
703.25	14375.57
703.38	14225.78
703.51	14518.34
703.65	14197.69
703.78	14310.04
703.91	14078.32
704.04	14333.44
704.17	14019.81
704.31	13877.04
704.44	13488.51
704.57	13607.87
704.70	13593.83
704.83	13650.00
704.96	13720.22
705.10	13685.11
705.23	13757.67
>>>>>End Processed Spectral Data<<<<<
