SpectraSuite Data File
++++++++++++++++++++++++++++++++++++
Date: Fri Oct 25 10:47:48 EDT 2013
User: price-jones
Dark Spectrum Present: No
Reference Spectrum Present: No
Number of Sampled Component Spectra: 1
Spectrometers: USB2+H05261
Integration Time (usec): 100000 (USB2+H05261)
Spectra Averaged: 1 (USB2+H05261)
Boxcar Smoothing: 0 (USB2+H05261)
Correct for Electrical Dark: No (USB2+H05261)
Strobe/Lamp Enabled: No (USB2+H05261)
Correct for Detector Non-linearity: No (USB2+H05261)
Correct for Stray Light: No (USB2+H05261)
Number of Pixels in Processed Spectrum: 2048
>>>>>Begin Processed Spectral Data<<<<<
365.73	121.71
365.92	121.71
366.12	121.71
366.32	117.03
366.52	74.90
366.72	23.41
366.91	49.15
367.11	0.00
367.31	53.83
367.51	44.47
367.70	42.13
367.90	110.01
368.10	14.04
368.30	28.09
368.49	65.54
368.69	142.77
368.89	39.79
369.09	79.58
369.28	93.62
369.48	154.48
369.68	117.03
369.87	140.43
370.07	84.26
370.27	182.56
370.47	248.10
370.66	381.51
370.86	421.30
371.06	486.83
371.25	421.30
371.45	402.57
371.65	479.81
371.84	388.53
372.04	433.00
372.24	496.19
372.44	442.36
372.63	484.49
372.83	421.30
373.03	482.15
373.22	545.34
373.42	442.36
373.62	519.60
373.81	486.83
374.01	543.00
374.21	587.47
374.40	547.69
374.60	540.66
374.79	627.26
374.99	603.86
375.19	526.62
375.38	489.17
375.58	575.77
375.78	627.26
375.97	505.56
376.17	624.92
376.37	547.69
376.56	603.86
376.76	535.98
376.95	641.31
377.15	585.13
377.35	603.86
377.54	727.91
377.74	638.97
377.93	561.73
378.13	587.47
378.33	678.76
378.52	587.47
378.72	657.69
378.91	645.99
379.11	608.54
379.31	627.26
379.50	643.65
379.70	699.82
379.89	671.73
380.09	596.84
380.28	512.58
380.48	653.01
380.68	624.92
380.87	676.41
381.07	718.54
381.26	671.73
381.46	643.65
381.65	746.63
381.85	650.67
382.04	734.93
382.24	664.71
382.43	681.10
382.63	727.91
382.83	685.78
383.02	702.16
383.22	653.01
383.41	664.71
383.61	739.61
383.80	809.83
384.00	741.95
384.19	774.72
384.39	779.40
384.58	793.44
384.78	765.36
384.97	816.85
385.17	758.33
385.36	755.99
385.56	741.95
385.75	720.88
385.95	856.64
386.14	828.55
386.34	819.19
386.53	828.55
386.72	786.42
386.92	763.01
387.11	798.12
387.31	814.51
387.50	786.42
387.70	751.31
387.89	903.45
388.09	856.64
388.28	929.19
388.48	863.66
388.67	898.77
388.86	915.15
389.06	844.93
389.25	922.17
389.45	1043.88
389.64	990.05
389.84	999.41
390.03	947.92
390.22	973.66
390.42	926.85
390.61	968.98
390.81	903.45
391.00	976.00
391.19	980.68
391.39	877.70
391.58	957.28
391.78	1013.45
391.97	1062.60
392.16	976.00
392.36	1034.52
392.55	952.60
392.75	908.13
392.94	999.41
393.13	999.41
393.33	922.17
393.52	1004.09
393.71	1032.18
393.91	1046.22
394.10	936.21
394.29	1025.15
394.49	1095.37
394.68	1022.81
394.88	1018.13
395.07	1149.20
395.26	1158.57
395.46	1053.24
395.65	1165.59
395.84	983.02
396.04	1188.99
396.23	1034.52
396.42	1135.16
396.62	1132.82
396.81	1181.97
397.00	1139.84
397.19	1177.29
397.39	1254.53
397.58	1196.01
397.77	1228.78
397.97	1249.85
398.16	1261.55
398.35	1289.64
398.55	1310.70
398.74	1418.36
398.93	1439.43
399.12	1338.79
399.32	1310.70
399.51	1320.06
399.70	1345.81
399.90	1446.45
400.09	1413.68
400.28	1380.92
400.47	1446.45
400.67	1448.79
400.86	1474.54
401.05	1451.13
401.24	1526.03
401.44	1357.51
401.63	1467.52
401.82	1509.65
402.01	1448.79
402.21	1444.11
402.40	1614.97
402.59	1638.38
402.78	1603.27
402.97	1540.07
403.17	1645.40
403.36	1582.20
403.55	1605.61
403.74	1579.86
403.93	1682.85
404.13	1678.16
404.32	1689.87
404.51	1678.16
404.70	1701.57
404.89	1558.80
405.09	1834.98
405.28	1724.97
405.47	1743.70
405.66	1830.30
405.85	1785.83
406.05	1825.62
406.24	1703.91
406.43	1902.86
406.62	1757.74
406.81	1830.30
407.00	1727.32
407.20	1811.57
407.39	1846.68
407.58	1858.39
407.77	2045.63
407.96	2015.20
408.15	2005.84
408.34	1937.96
408.54	1989.46
408.73	1994.14
408.92	2015.20
409.11	2045.63
409.30	1982.43
409.49	1991.80
409.68	1987.11
409.87	2078.40
410.07	2197.76
410.26	2162.66
410.45	2165.00
410.64	2122.87
410.83	2216.49
411.02	2190.74
411.21	2265.64
411.40	2324.15
411.59	2256.28
411.78	2270.32
411.98	2232.87
412.17	2359.26
412.36	2265.64
412.55	2340.54
412.74	2415.43
412.93	2513.74
413.12	2476.29
413.31	2548.84
413.50	2427.14
413.69	2574.59
413.88	2588.63
414.07	2602.68
414.26	2612.04
414.45	2644.81
414.64	2623.74
414.83	2675.23
415.02	2647.15
415.22	2672.89
415.41	2656.51
415.60	2747.79
415.79	2726.72
415.98	2778.22
416.17	2890.56
416.36	2810.98
416.55	2920.99
416.74	3007.59
416.93	2925.67
417.12	2939.71
417.31	2871.84
417.50	2899.92
417.69	3028.65
417.88	3066.10
418.07	3012.27
418.26	3084.83
418.45	3014.61
418.64	3185.47
418.83	3246.32
419.02	3201.85
419.21	3232.28
419.39	3143.34
419.58	3309.52
419.77	3173.77
419.96	3248.66
420.15	3300.16
420.34	3297.81
420.53	3274.41
420.72	3335.26
420.91	3297.81
421.10	3466.33
421.29	3471.01
421.48	3311.86
421.67	3375.05
421.86	3372.71
422.05	3349.31
422.24	3370.37
422.43	3557.61
422.61	3452.29
422.80	3475.70
422.99	3452.29
423.18	3562.30
423.37	3482.72
423.56	3529.53
423.75	3548.25
423.94	3609.11
424.13	3375.05
424.32	3363.35
424.50	3606.77
424.69	3653.58
424.88	3569.32
425.07	3562.30
425.26	3510.80
425.45	3625.49
425.64	3445.27
425.83	3627.83
426.01	3796.35
426.20	3613.79
426.39	3705.07
426.58	3693.37
426.77	3606.77
426.96	3655.92
427.15	3658.26
427.33	3712.09
427.52	3712.09
427.71	3761.24
427.90	3822.09
428.09	3655.92
428.28	3733.15
428.46	3906.35
428.65	3751.88
428.84	3922.74
429.03	3847.84
429.22	3723.79
429.40	3936.78
429.59	3716.77
429.78	3742.52
429.97	3740.18
430.16	3658.26
430.34	3950.82
430.53	3913.38
430.72	3927.42
430.91	3911.04
431.10	3908.69
431.28	4149.77
431.47	4201.26
431.66	4131.05
431.85	3957.85
432.03	4219.99
432.22	4278.50
432.41	4259.78
432.60	4290.20
432.79	4215.30
432.97	4257.43
433.16	4234.03
433.35	4280.84
433.54	4322.97
433.72	4341.69
433.91	4182.54
434.10	4351.06
434.28	4259.78
434.47	4320.63
434.66	4458.72
434.85	4390.84
435.03	4360.42
435.22	4301.90
435.41	4709.16
435.59	4601.49
435.78	4587.45
435.97	4641.28
436.16	4671.71
436.34	4540.64
436.53	4690.43
436.72	4692.77
436.90	4528.94
437.09	4777.03
437.28	4601.49
437.46	4730.22
437.65	4753.63
437.84	4732.56
438.02	4795.76
438.21	4847.25
438.40	4589.79
438.58	4767.67
438.77	4908.10
438.96	4884.70
439.14	5032.15
439.33	5095.35
439.52	5022.79
439.70	5135.14
439.89	5172.58
440.08	5060.24
440.26	5261.52
440.45	5151.52
440.63	5198.33
440.82	5327.06
441.01	5252.16
441.19	5249.82
441.38	5610.26
441.57	5628.99
441.75	5675.80
441.94	5767.08
442.12	5631.33
442.31	5722.61
442.50	5671.12
442.68	5624.31
442.87	5657.07
443.05	5661.76
443.24	5900.49
443.43	5792.83
443.61	5858.36
443.80	5809.21
443.98	5563.45
444.17	5715.59
444.35	5846.66
444.54	5870.06
444.73	5863.04
444.91	5942.62
445.10	5905.17
445.28	5891.13
445.47	5827.93
445.65	5877.09
445.84	5898.15
446.02	5994.11
446.21	6026.88
446.39	5863.04
446.58	6221.14
446.77	6083.05
446.95	5921.56
447.14	5928.58
447.32	6036.24
447.51	5994.11
447.69	6012.84
447.88	6235.19
448.06	6076.03
448.25	6003.47
448.43	6092.41
448.62	5956.66
448.80	5966.03
448.99	6174.33
449.17	6246.89
449.36	6094.76
449.54	6242.21
449.73	6246.89
449.91	6399.02
450.10	6347.53
450.28	6361.58
450.46	6490.31
450.65	6551.16
450.83	6392.00
451.02	6504.35
451.20	6544.14
451.39	6408.39
451.57	6539.46
451.76	6555.84
451.94	6476.26
452.13	6565.20
452.31	6403.71
452.49	6396.68
452.68	6609.67
452.86	6635.42
453.05	6588.61
453.23	6661.16
453.42	6658.82
453.60	6516.05
453.78	6743.08
453.97	6356.90
454.15	6649.46
454.34	6710.32
454.52	6834.36
454.70	6710.32
454.89	6771.17
455.07	6848.41
455.26	6909.26
455.44	6930.33
455.62	7019.27
455.81	6913.94
455.99	7145.66
456.17	7117.57
456.36	7155.02
456.54	7155.02
456.73	7173.74
456.91	7414.82
457.09	7225.23
457.28	7461.63
457.46	7213.53
457.64	7377.37
457.83	7297.79
458.01	7108.21
458.19	7318.86
458.38	7169.06
458.56	7349.28
458.74	7428.86
458.93	7438.22
459.11	7463.97
459.29	7541.21
459.48	7508.44
459.66	7517.80
459.84	7609.08
460.03	7665.25
460.21	7527.16
460.39	7618.44
460.57	7791.64
460.76	7597.38
460.94	7646.53
461.12	7824.41
461.31	7801.01
461.49	7826.75
461.67	7693.34
461.85	7936.76
462.04	7908.67
462.22	8388.48
462.40	8051.44
462.59	7887.61
462.77	7810.37
462.95	8028.04
463.13	7911.01
463.32	8018.68
463.50	8262.09
463.68	8205.92
463.86	8386.14
464.05	8056.12
464.23	8131.02
464.41	8245.71
464.59	8095.91
464.78	8367.42
464.96	8273.79
465.14	8079.53
465.32	8374.44
465.50	8526.57
465.69	8547.64
465.87	8353.37
466.05	8381.46
466.23	8425.93
466.41	8423.59
466.60	8659.98
466.78	8482.10
466.96	8355.71
467.14	8285.50
467.32	8360.39
467.51	8610.83
467.69	8311.24
467.87	8545.30
468.05	8472.74
468.23	8697.43
468.41	8521.89
468.60	8744.24
468.78	8784.03
468.96	8641.26
469.14	8884.67
469.32	8664.66
469.50	8650.62
469.69	8999.36
469.87	9039.15
470.05	9025.11
470.23	8940.85
470.41	8922.12
470.59	9034.47
470.77	9090.64
470.95	8999.36
471.14	9240.44
471.32	9195.96
471.50	9348.10
471.68	9193.62
471.86	9490.87
472.04	9378.53
472.22	9455.76
472.40	9310.65
472.58	9399.59
472.77	9483.85
472.95	9685.14
473.13	9760.03
473.31	9589.17
473.49	9767.06
473.67	9479.17
473.85	9778.76
474.03	9722.59
474.21	10209.42
474.39	10139.20
474.57	10195.37
474.75	10101.75
474.93	10221.12
475.12	10223.46
475.30	10380.28
475.48	10221.12
475.66	10169.63
475.84	10291.34
476.02	10312.40
476.20	10527.73
476.38	10703.27
476.56	10836.68
476.74	10649.44
476.92	10675.18
477.10	10745.40
477.28	10960.73
477.46	10726.68
477.64	10927.96
477.82	10998.18
478.00	11412.45
478.18	11431.18
478.36	11550.54
478.54	11503.73
478.72	11672.25
478.90	11742.47
479.08	11976.52
479.26	12044.40
479.44	11894.60
479.62	12203.55
479.80	12154.40
479.98	12250.36
480.16	12540.59
480.34	12446.97
480.52	12526.55
480.70	12666.98
480.88	12542.93
481.06	12683.36
481.24	12786.35
481.41	13011.04
481.59	13352.76
481.77	13275.52
481.95	13102.32
482.13	13144.45
482.31	13273.18
482.49	13584.47
482.67	13486.17
482.85	13811.50
483.03	13958.96
483.21	13738.94
483.39	14258.54
483.57	14260.88
483.74	14408.34
483.92	14527.71
484.10	14335.78
484.28	14527.71
484.46	14511.32
484.64	14988.79
484.82	14675.16
485.00	14663.46
485.18	15051.99
485.35	15295.40
485.53	15030.92
485.71	15218.16
485.89	15360.94
486.07	15279.02
486.25	15712.02
486.43	15726.06
486.61	15712.02
486.78	15889.90
486.96	16205.87
487.14	16184.80
487.32	16203.53
487.50	16484.39
487.68	16545.25
487.85	16676.32
488.03	16989.95
488.21	17085.91
488.39	17280.18
488.57	17170.17
488.75	17577.42
488.92	17448.69
489.10	17895.74
489.28	17755.30
489.46	17937.87
489.64	18129.79
489.81	18338.10
489.99	18576.83
490.17	18436.40
490.35	18759.39
490.53	18527.68
490.70	18878.76
490.88	18986.43
491.06	19541.13
491.24	18934.93
491.41	19250.91
491.59	19496.66
491.77	19208.78
491.95	19531.77
492.13	19543.47
492.30	20034.99
492.48	20114.56
492.66	20257.34
492.84	20210.53
493.01	20514.80
493.19	20102.86
493.37	20421.17
493.54	20573.31
493.72	20645.87
493.90	20760.55
494.08	20992.26
494.25	21231.00
494.43	21193.55
494.61	21453.35
494.79	21701.45
494.96	21720.17
495.14	21521.23
495.32	21893.37
495.49	21846.56
495.67	22071.25
495.85	21996.35
496.02	22424.67
496.20	22207.00
496.38	22527.66
496.55	22555.74
496.73	23168.96
496.91	23044.91
497.09	23019.17
497.26	22979.38
497.44	22986.40
497.62	23080.02
497.79	23304.71
497.97	23365.57
498.14	23213.43
498.32	23915.59
498.50	23679.20
498.67	23962.40
498.85	23875.80
499.03	23992.83
499.20	23969.43
499.38	24175.39
499.56	24386.04
499.73	24409.45
499.91	24491.37
500.08	24807.34
500.26	24676.27
500.44	24493.71
500.61	24809.68
500.79	25123.31
500.97	25135.01
501.14	25408.86
501.32	25259.06
501.49	25247.36
501.67	25493.12
501.84	25443.96
502.02	25357.36
502.20	25472.05
502.37	26010.37
502.55	25797.38
502.72	25383.11
502.90	26340.39
503.07	25706.10
503.25	26270.17
503.43	26066.55
503.60	26174.21
503.78	26052.50
503.95	26462.10
504.13	26787.43
504.30	26387.20
504.48	26862.33
504.65	26710.19
504.83	26897.44
505.01	27023.83
505.18	26897.44
505.36	27660.45
505.53	27328.10
505.71	27590.24
505.88	27838.33
506.06	27779.82
506.23	27314.05
506.41	27655.77
506.58	27679.18
506.76	27868.76
506.93	28173.03
507.11	27709.60
507.28	28060.68
507.46	28261.97
507.63	28077.07
507.81	28458.57
507.98	28116.86
508.16	28444.53
508.33	28444.53
508.50	28664.54
508.68	28559.22
508.85	28781.57
509.03	29221.59
509.20	29123.29
509.38	29156.05
509.55	29226.27
509.73	29216.91
509.90	29104.56
510.08	29156.05
510.25	29462.66
510.42	29544.58
510.60	29682.67
510.77	29799.70
510.95	29687.36
511.12	29675.65
511.30	30181.21
511.47	30256.11
511.64	30232.70
511.82	30431.65
511.99	30139.08
512.17	30625.91
512.34	30113.33
512.51	29998.65
512.69	30195.25
512.86	30560.37
513.04	30628.25
513.21	30881.03
513.38	30817.83
513.56	30855.28
513.73	30560.37
513.90	31206.36
514.08	30979.33
514.25	31248.49
514.43	31110.40
514.60	30843.58
514.77	31077.63
514.95	31225.09
515.12	31545.74
515.29	31379.56
515.47	31749.37
515.64	32020.87
515.81	31409.99
515.99	31435.74
516.16	31608.93
516.33	31969.38
516.51	31768.09
516.68	31948.31
516.85	31606.59
517.03	31826.60
517.20	32133.21
517.37	32105.13
517.54	32222.16
517.72	32154.28
517.89	32563.87
518.06	32229.18
518.24	32126.19
518.41	32219.81
518.58	32575.58
518.75	32786.22
518.93	32868.14
519.10	32748.78
519.27	33113.90
519.45	32772.18
519.62	33146.67
519.79	33352.63
519.96	33450.94
520.14	33553.92
520.31	33579.67
520.48	33394.76
520.65	33539.88
520.83	34080.54
521.00	33532.86
521.17	33766.91
521.34	33956.49
521.52	33722.44
521.69	34326.30
521.86	34323.96
522.03	34382.47
522.20	34216.29
522.38	34583.76
522.55	34249.06
522.72	34195.23
522.89	34408.22
523.07	34614.18
523.24	34529.92
523.41	34904.41
523.58	34787.38
523.75	35133.78
523.92	34988.67
524.10	35150.17
524.27	35292.94
524.44	34946.54
524.61	35154.85
524.78	35477.84
524.96	35012.07
525.13	35304.64
525.30	36191.70
525.47	35697.85
525.64	35356.13
525.81	35812.54
525.98	35618.27
526.16	35358.47
526.33	35335.07
526.50	35959.99
526.67	35356.13
526.84	35807.86
527.01	35494.22
527.18	35718.92
527.36	36280.64
527.53	36016.16
527.70	36287.67
527.87	36229.15
528.04	36100.42
528.21	36687.90
528.38	36814.29
528.55	36505.34
528.72	36453.84
528.89	36753.43
529.07	36285.33
529.24	36208.09
529.41	36458.52
529.58	36615.34
529.75	36828.33
529.92	36739.39
530.09	36980.46
530.26	37158.34
530.43	36776.84
530.60	36877.48
530.77	36928.97
530.94	37193.45
531.11	37153.66
531.28	36938.33
531.46	37354.95
531.63	37415.80
531.80	37116.22
531.97	37256.65
532.14	37801.99
532.31	37530.49
532.48	37361.97
532.65	37401.76
532.82	37579.64
532.99	37804.33
533.16	37642.84
533.33	37818.38
533.50	38080.52
533.67	37741.14
533.84	37684.97
534.01	38054.77
534.18	37764.54
534.35	38672.67
534.52	38010.30
534.69	38321.59
534.86	38679.69
535.03	38225.63
535.20	39000.35
535.37	38492.45
535.54	39005.03
535.71	38462.02
535.88	38218.61
536.05	38209.25
536.22	38274.78
536.38	38717.14
536.55	38897.36
536.72	38576.71
536.89	38623.52
537.06	38646.93
537.23	39044.82
537.40	38892.68
537.57	38911.41
537.74	38913.75
537.91	38895.02
538.08	39278.87
538.25	38906.73
538.42	39203.97
538.59	38848.21
538.75	38988.64
538.92	39136.10
539.09	39704.85
539.26	39346.75
539.43	39335.04
539.60	39409.94
539.77	39321.00
539.94	39363.13
540.11	39187.59
540.28	39562.08
540.44	39611.23
540.61	39505.90
540.78	39332.70
540.95	39299.94
541.12	39945.92
541.29	39449.73
541.46	39952.94
541.62	39913.16
541.79	40147.21
541.96	39578.46
542.13	40325.09
542.30	40100.40
542.47	40367.22
542.63	40095.72
542.80	40435.10
542.97	40493.61
543.14	40680.85
543.31	40524.04
543.48	40685.53
543.64	41277.69
543.81	40968.74
543.98	41090.44
544.15	40608.29
544.32	41343.22
544.48	41338.54
544.65	40730.00
544.82	40568.51
544.99	40816.60
545.16	41031.93
545.32	40800.22
545.49	41406.42
545.66	41371.31
545.83	41411.10
546.00	41467.27
546.16	41434.50
546.33	41331.52
546.50	40825.96
546.67	41027.25
546.83	40774.47
547.00	41177.04
547.17	41397.06
547.34	41179.39
547.50	41811.33
547.67	41818.35
547.84	41675.58
548.00	42087.51
548.17	41642.81
548.34	41441.53
548.51	41764.52
548.67	42209.22
548.84	41750.48
549.01	41605.36
549.18	41432.16
549.34	41926.02
549.51	41804.31
549.68	41993.89
549.84	41926.02
550.01	42422.21
550.18	42024.32
550.34	41911.97
550.51	41944.74
550.68	42169.43
550.84	41675.58
551.01	42005.59
551.18	41780.90
551.34	42124.96
551.51	42394.12
551.68	42012.62
551.84	42541.58
552.01	42457.32
552.18	42342.63
552.34	42359.02
552.51	42286.46
552.68	42691.37
552.84	42658.60
553.01	42923.08
553.18	42513.49
553.34	42649.24
553.51	42174.11
553.67	42412.85
553.84	42850.53
554.01	42733.50
554.17	42862.23
554.34	43304.59
554.51	42859.89
554.67	43225.01
554.84	43145.44
555.00	42871.59
555.17	42859.89
555.33	43009.68
555.50	42859.89
555.67	42754.57
555.83	43344.38
556.00	43089.26
556.16	43414.60
556.33	43220.33
556.50	42883.30
556.66	43260.12
556.83	42885.64
556.99	43566.73
557.16	43304.59
557.32	43477.79
557.49	43166.50
557.65	42899.68
557.82	42906.70
557.98	43246.08
558.15	43306.93
558.32	43746.95
558.48	43210.97
558.65	43295.23
558.81	43344.38
558.98	43400.55
559.14	43079.90
559.31	43232.04
559.47	43173.52
559.64	43674.40
559.80	43772.70
559.97	44259.53
560.13	43433.32
560.30	43615.88
560.46	43978.67
560.63	43051.81
560.79	43655.67
560.96	44011.43
561.12	43377.15
561.29	43658.01
561.45	43945.90
561.61	43545.67
561.78	43800.79
561.94	43838.23
562.11	43882.70
562.27	43653.33
562.44	43611.20
562.60	43861.64
562.77	44018.46
562.93	44081.65
563.10	44037.18
563.26	43627.59
563.42	43835.89
563.59	44025.48
563.75	44048.88
563.92	43981.01
564.08	43742.27
564.24	44348.47
564.41	44102.71
564.57	43990.37
564.74	44030.16
564.90	43992.71
565.07	44238.47
565.23	44170.59
565.39	43922.49
565.56	44456.14
565.72	43983.35
565.88	44046.54
566.05	44032.50
566.21	44327.41
566.38	44327.41
566.54	44027.82
566.70	44315.70
566.87	44783.81
567.03	44301.66
567.19	44844.66
567.36	44458.48
567.52	44009.09
567.68	44657.42
567.85	44292.30
568.01	44079.31
568.17	44215.06
568.34	44404.64
568.50	44198.68
568.66	44179.95
568.83	44147.18
568.99	44177.61
569.15	44495.92
569.32	43938.88
569.48	44561.46
569.64	44687.85
569.81	44163.57
569.97	44334.43
570.13	44456.14
570.30	44685.51
570.46	44165.91
570.62	44161.23
570.78	44350.81
570.95	44247.83
571.11	44385.92
571.27	44350.81
571.43	44308.68
571.60	44603.59
571.76	44470.18
571.92	44767.43
572.09	44505.29
572.25	44545.08
572.41	44198.68
572.57	44538.05
572.74	44715.93
572.90	44493.58
573.06	44715.93
573.22	44313.36
573.38	44577.84
573.55	44390.60
573.71	44549.76
573.87	44804.88
574.03	44151.87
574.20	44645.72
574.36	44638.70
574.52	44481.88
574.68	44767.43
574.84	44406.98
575.01	44748.70
575.17	45001.48
575.33	44568.48
575.49	44615.29
575.65	45104.46
575.82	45008.50
575.98	44624.65
576.14	45031.91
576.30	44652.74
576.46	44205.70
576.62	44645.72
576.79	44753.38
576.95	44016.11
577.11	44577.84
577.27	44638.70
577.43	44987.44
577.59	45141.91
577.75	44512.31
577.92	44416.35
578.08	44484.22
578.24	44254.85
578.40	44533.37
578.56	44957.01
578.72	44488.90
578.88	44992.12
579.04	44957.01
579.21	44570.82
579.37	44584.86
579.53	44594.23
579.69	44369.54
579.85	44727.64
580.01	44451.45
580.17	44266.55
580.33	44814.24
580.49	44727.64
580.65	44765.09
580.82	44989.78
580.98	44444.43
581.14	44549.76
581.30	45364.26
581.46	44524.01
581.62	44638.70
581.78	44947.65
581.94	45013.18
582.10	44790.83
582.26	44811.90
582.42	45034.25
582.58	44863.39
582.74	44781.47
582.90	44832.96
583.06	45153.62
583.22	44706.57
583.38	45205.11
583.54	45059.99
583.70	44868.07
583.86	44638.70
584.02	44516.99
584.18	44896.16
584.34	45008.50
584.50	45048.29
584.66	44676.15
584.82	45247.24
584.98	44772.11
585.14	45251.92
585.30	44942.97
585.46	44769.77
585.62	44603.59
585.78	44790.83
585.94	44685.51
586.10	44587.21
586.26	44809.56
586.42	44545.08
586.58	44938.29
586.74	44758.06
586.90	44856.37
587.06	44596.57
587.22	45071.70
587.38	44879.77
587.54	45055.31
587.70	45148.93
587.86	45090.42
588.02	44825.94
588.18	45048.29
588.34	44982.76
588.49	44842.32
588.65	44538.05
588.81	44493.58
588.97	44751.04
589.13	44701.89
589.29	44861.05
589.45	44949.99
589.61	45013.18
589.77	45228.51
589.93	44863.39
590.08	45144.25
590.24	45584.27
590.40	44982.76
590.56	45195.74
590.72	45097.44
590.88	44865.73
591.04	44954.67
591.20	45109.14
591.35	45181.70
591.51	45544.48
591.67	44966.37
591.83	45050.63
591.99	45186.38
592.15	45378.31
592.31	44844.66
592.46	45092.76
592.62	45001.48
592.78	45221.49
592.94	45090.42
593.10	44835.30
593.26	45446.18
593.41	45214.47
593.57	44790.83
593.73	45504.70
593.89	45476.61
594.05	45191.06
594.20	45041.27
594.36	45354.90
594.52	45226.17
594.68	45024.89
594.84	45415.76
594.99	45638.11
595.15	44933.60
595.31	45635.77
595.47	45418.10
595.62	45495.33
595.78	45364.26
595.94	45530.44
596.10	45432.14
596.25	45567.89
596.41	45130.21
596.57	45174.68
596.73	45256.60
596.88	44896.16
597.04	45361.92
597.20	45574.91
597.36	45160.64
597.51	45546.82
597.67	45406.39
597.83	45324.47
597.99	45343.20
598.14	45226.17
598.30	45371.28
598.46	45387.67
598.61	45525.76
598.77	45059.99
598.93	45041.27
599.09	45441.50
599.24	45270.64
599.40	45378.31
599.56	45195.74
599.71	45455.54
599.87	45265.96
600.03	45687.26
600.18	45411.07
600.34	45294.05
600.50	45677.90
600.65	45092.76
600.81	45635.77
600.97	45935.35
601.12	45504.70
601.28	45399.37
601.44	45359.58
601.59	45415.76
601.75	45368.94
601.91	45303.41
602.06	45109.14
602.22	45167.66
602.37	45092.76
602.53	44917.22
602.69	45647.47
602.84	45340.86
603.00	45504.70
603.16	45277.66
603.31	45305.75
603.47	44966.37
603.62	45081.06
603.78	45450.86
603.94	45184.04
604.09	45570.23
604.25	45450.86
604.40	45432.14
604.56	44910.20
604.71	45694.28
604.87	45567.89
605.03	45120.85
605.18	45069.36
605.34	44966.37
605.49	45280.00
605.65	45364.26
605.80	45141.91
605.96	45209.79
606.12	45336.18
606.27	45151.27
606.43	45200.43
606.58	45031.91
606.74	44935.95
606.89	45242.56
607.05	44865.73
607.20	45287.03
607.36	45270.64
607.51	45275.32
607.67	45483.63
607.82	45312.77
607.98	44577.84
608.13	44655.08
608.29	45130.21
608.44	44676.15
608.60	45010.84
608.75	44947.65
608.91	44236.12
609.06	44779.13
609.22	45027.23
609.37	45041.27
609.53	45022.54
609.68	45347.88
609.84	44701.89
609.99	45013.18
610.15	44725.30
610.30	44439.75
610.46	44334.43
610.61	44526.35
610.76	44823.60
610.92	44542.74
611.07	44596.57
611.23	44418.69
611.38	44783.81
611.54	44650.40
611.69	44500.61
611.84	44259.53
612.00	44411.67
612.15	44306.34
612.31	44624.65
612.46	44381.24
612.62	44816.58
612.77	44378.90
612.92	44374.22
613.08	44634.02
613.23	44542.74
613.39	44196.34
613.54	44006.75
613.69	44149.53
613.85	44037.18
614.00	44261.87
614.15	44514.65
614.31	44308.68
614.46	44437.41
614.62	44327.41
614.77	44495.92
614.92	44287.62
615.08	44442.09
615.23	44058.24
615.38	44428.05
615.54	43957.60
615.69	44376.56
615.84	43753.97
616.00	43899.09
616.15	44715.93
616.30	44465.50
616.46	43742.27
616.61	43950.58
616.76	43793.76
616.92	43856.96
617.07	43693.12
617.22	43569.07
617.37	43672.06
617.53	44088.67
617.68	44222.08
617.83	43847.60
617.99	44231.44
618.14	44142.50
618.29	43845.26
618.45	43669.72
618.60	43894.41
618.75	43899.09
618.90	44151.87
619.06	44069.95
619.21	43421.62
619.36	43763.34
619.51	43838.23
619.67	43622.90
619.82	43620.56
619.97	43763.34
620.12	43470.77
620.28	42983.94
620.43	43264.80
620.58	43276.51
620.73	43590.14
620.89	43255.44
621.04	43625.25
621.19	43225.01
621.34	43290.55
621.49	43028.41
621.65	43360.76
621.80	43578.43
621.95	43021.39
622.10	43091.60
622.25	43082.24
622.41	43236.72
622.56	42773.29
622.71	42979.26
622.86	43414.60
623.01	43145.44
623.16	43201.61
623.32	43152.46
623.47	43009.68
623.62	43313.95
623.77	42902.02
623.92	43210.97
624.07	42742.86
624.23	42780.31
624.38	42761.59
624.53	42787.33
624.68	42997.98
624.83	43213.31
624.98	42614.13
625.13	42529.87
625.29	42883.30
625.44	43065.86
625.59	42506.47
625.74	42651.58
625.89	42188.16
626.04	42031.34
626.19	42419.87
626.34	42602.43
626.49	42962.87
626.65	43096.28
626.80	42445.62
626.95	42148.37
627.10	42370.72
627.25	41860.48
627.40	42029.00
627.55	41935.38
627.70	41954.10
627.85	41970.49
628.00	41867.50
628.15	42536.90
628.30	41794.95
628.45	42553.28
628.60	42089.85
628.76	42122.62
628.91	42188.16
629.06	42223.26
629.21	41816.01
629.36	42005.59
629.51	41872.18
629.66	41792.61
629.81	41675.58
629.96	41645.15
630.11	41556.21
630.26	41787.92
630.41	41663.88
630.56	41598.34
630.71	42021.98
630.86	41249.60
631.01	41537.49
631.16	41799.63
631.31	41523.44
631.46	41174.70
631.61	41214.49
631.76	41698.98
631.91	41776.22
632.06	41516.42
632.21	41434.50
632.36	41993.89
632.51	41347.90
632.66	41275.35
632.81	41345.56
632.96	41230.88
633.10	41235.56
633.25	41024.91
633.40	40985.12
633.55	41132.57
633.70	41186.41
633.85	40935.97
634.00	41347.90
634.15	41071.72
634.30	40811.92
634.45	40840.01
634.60	41048.32
634.75	41469.61
634.90	41486.00
635.05	41020.23
635.19	40957.03
635.34	41060.02
635.49	40856.39
635.64	40711.28
635.79	40402.33
635.94	40643.40
636.09	40779.15
636.24	40907.88
636.39	40226.79
636.53	40610.64
636.68	40928.95
636.83	40701.92
636.98	40900.86
637.13	40563.82
637.28	40636.38
637.43	40552.12
637.57	40465.52
637.72	40774.47
637.87	41024.91
638.02	40444.46
638.17	40268.92
638.32	40407.01
638.46	40369.56
638.61	39917.84
638.76	40126.14
638.91	39983.37
639.06	40257.21
639.20	40301.68
639.35	40285.30
639.50	40254.87
639.65	40472.54
639.80	40629.36
639.94	40219.77
640.09	40100.40
640.24	40165.93
640.39	39974.01
640.54	40144.87
640.68	40144.87
640.83	39765.70
640.98	39770.38
641.13	39885.07
641.27	40084.01
641.42	40044.23
641.57	40187.00
641.72	40130.83
641.86	39814.85
642.01	39522.29
642.16	39473.13
642.31	39138.44
642.45	40076.99
642.60	39243.76
642.75	39033.11
642.90	39433.35
643.04	39260.15
643.19	39220.36
643.34	39538.67
643.48	39634.63
643.63	39772.72
643.78	39447.39
643.93	39358.45
644.07	38714.80
644.22	39199.29
644.37	39229.72
644.51	39119.71
644.66	39295.25
644.81	39590.16
644.95	39267.17
645.10	39569.10
645.25	39786.77
645.39	39201.63
645.54	39480.16
645.69	38803.74
645.83	39047.16
645.98	39370.15
646.13	39386.54
646.27	38913.75
646.42	39093.97
646.57	39290.57
646.71	39210.99
646.86	39232.06
647.00	39299.94
647.15	38808.42
647.30	39234.40
647.44	38827.15
647.59	38841.19
647.74	38967.58
647.88	38993.32
648.03	39028.43
648.17	38562.67
648.32	38403.51
648.47	38787.36
648.61	38256.06
648.76	38852.89
648.90	38864.60
649.05	38948.85
649.20	38733.53
649.34	38607.14
649.49	38045.41
649.63	38143.71
649.78	38675.01
649.92	38508.83
650.07	38675.01
650.21	38511.17
650.36	38583.73
650.51	38445.64
650.65	38827.15
650.80	38920.77
650.94	38513.52
651.09	38249.03
651.23	37907.32
651.38	38019.66
651.52	38066.47
651.67	38302.87
651.81	38562.67
651.96	38026.68
652.10	38218.61
652.25	37287.07
652.39	37771.57
652.54	37902.64
652.68	37986.89
652.83	38124.99
652.97	38192.86
653.12	37727.10
653.26	37750.50
653.41	38120.31
653.55	37607.73
653.70	37638.15
653.84	37766.88
653.99	38036.05
654.13	37818.38
654.27	37909.66
654.42	37755.18
654.56	37219.20
654.71	37628.79
654.85	37504.74
655.00	37830.08
655.14	37273.03
655.29	37350.27
655.43	37301.12
655.57	37104.51
655.72	37174.73
655.86	36797.90
656.01	37324.52
656.15	37216.86
656.30	37146.64
656.44	37130.26
656.58	37233.24
656.73	36744.07
656.87	36758.11
657.01	36985.15
657.16	36758.11
657.30	36924.29
657.45	36961.74
657.59	37275.37
657.73	36811.95
657.88	37034.30
658.02	36919.61
658.16	36528.74
658.31	37270.69
658.45	37237.92
658.60	36605.98
658.74	36861.10
658.88	36666.83
659.03	36196.38
659.17	36184.68
659.31	36676.19
659.46	36196.38
659.60	36730.03
659.74	36191.70
659.89	36034.89
660.03	36409.37
660.17	36343.84
660.32	36163.62
660.46	36418.74
660.60	36549.81
660.74	35976.37
660.89	36357.88
661.03	36044.25
661.17	36084.04
661.32	35732.96
661.46	35639.34
661.60	35784.45
661.74	35728.28
661.89	35983.40
662.03	35662.74
662.17	36182.34
662.31	35367.84
662.46	35606.57
662.60	35826.58
662.74	35447.41
662.88	35821.90
663.03	35597.21
663.17	35260.17
663.31	35002.71
663.45	35477.84
663.60	35328.05
663.74	35030.80
663.88	35047.18
664.02	35129.10
664.17	35220.38
664.31	34710.14
664.45	34712.49
664.59	34871.64
664.73	34679.72
664.88	34780.36
665.02	34464.39
665.16	35103.35
665.30	34513.54
665.44	34380.13
665.59	34160.12
665.73	34487.79
665.87	34335.66
666.01	34263.10
666.15	34579.07
666.29	34628.23
666.44	34148.42
666.58	34345.02
666.72	34071.18
666.86	34448.00
667.00	34225.65
667.14	34270.12
667.28	34263.10
667.43	33982.24
667.57	34087.56
667.71	33902.66
667.85	33881.60
667.99	34099.26
668.13	33579.67
668.27	33500.09
668.41	33432.21
668.56	33198.16
668.70	33127.94
668.84	33797.34
668.98	33095.18
669.12	33104.54
669.26	33071.77
669.40	32818.99
669.54	33097.52
669.68	33387.74
669.82	32966.45
669.96	33097.52
670.10	32842.40
670.25	32882.19
670.39	33102.20
670.53	32912.61
670.67	32737.07
670.81	32772.18
670.95	32896.23
671.09	33006.23
671.23	32760.48
671.37	32275.99
671.51	32641.11
671.65	32692.60
671.79	32552.17
671.93	32112.15
672.07	32704.31
672.21	32631.75
672.35	32189.39
672.49	31983.42
672.63	32140.24
672.77	32072.36
672.91	31833.63
673.05	31812.56
673.19	31768.09
673.33	31445.10
673.47	31400.63
673.61	31262.54
673.75	31400.63
673.89	31213.38
674.03	31173.60
674.17	30897.41
674.31	30609.53
674.45	31189.98
674.59	31063.59
674.73	30909.11
674.87	30998.06
675.01	30962.95
675.15	31037.84
675.29	31000.40
675.43	30419.94
675.56	30778.04
675.70	30696.13
675.84	30539.31
675.98	29537.56
676.12	30232.70
676.26	29996.31
676.40	30073.54
676.54	29907.37
676.68	30045.46
676.82	29455.64
676.96	29553.94
677.10	29359.68
677.23	29415.85
677.37	29907.37
677.51	29373.72
677.65	29436.92
677.79	28837.74
677.93	29092.86
678.07	29137.33
678.21	28734.76
678.34	28397.72
678.48	28774.55
678.62	28961.79
678.76	28371.97
678.90	28463.25
679.04	28404.74
679.18	28521.77
679.31	28367.29
679.45	27777.48
679.59	27931.95
679.73	27786.84
679.87	27740.03
680.00	27962.38
680.14	27704.92
680.28	27531.72
680.42	27421.72
680.56	27363.20
680.70	27459.16
680.83	27229.79
680.97	27122.13
681.11	26948.93
681.25	26766.37
681.39	27084.68
681.52	27227.45
681.66	26962.97
681.80	27026.17
681.94	26576.78
682.07	26579.12
682.21	26347.41
682.35	26291.24
682.49	26398.90
682.62	26293.58
682.76	26312.30
682.90	25766.96
683.04	26157.83
683.17	26141.44
683.31	25998.67
683.45	25909.73
683.59	25661.63
683.72	25528.22
683.86	25544.61
684.00	25266.08
684.13	25752.91
684.27	25268.42
684.41	25284.81
684.55	25172.46
684.68	25090.54
684.82	25177.14
684.96	24819.04
685.09	24680.95
685.23	24746.48
685.37	24486.68
685.50	24482.00
685.64	24343.91
685.78	24629.46
685.91	24479.66
686.05	24126.24
686.19	23946.02
686.32	24191.78
686.46	23838.36
686.60	23506.00
686.73	23545.79
686.87	23578.56
687.01	23307.05
687.14	23070.66
687.28	23108.11
687.42	23276.63
687.55	23117.47
687.69	22899.80
687.82	23164.28
687.96	23028.53
688.10	22759.37
688.23	22717.24
688.37	22546.38
688.50	22082.95
688.64	22373.18
688.78	22134.45
688.91	22424.67
689.05	22338.07
689.18	22300.62
689.32	21769.32
689.46	22235.09
689.59	22466.80
689.73	22265.52
689.86	21727.19
690.00	21242.70
690.13	21979.97
690.27	21703.79
690.41	21589.10
690.54	21439.31
690.68	21167.80
690.81	21034.39
690.95	20854.17
691.08	21294.19
691.22	20891.62
691.35	21081.21
691.49	20931.41
691.62	20915.03
691.76	21289.51
691.89	20699.70
692.03	20592.03
692.16	20329.89
692.30	20379.04
692.43	20264.36
692.57	20116.90
692.70	20177.76
692.84	20191.80
692.97	19653.48
693.11	19637.09
693.24	19353.89
693.38	19922.64
693.51	19447.51
693.65	19770.51
693.78	19541.13
693.92	19669.86
694.05	19337.51
694.19	19639.44
694.32	19168.99
694.45	19168.99
694.59	19145.58
694.72	19023.87
694.86	18848.33
694.99	18703.22
695.13	18780.46
695.26	18272.56
695.39	18450.44
695.53	18473.85
695.66	18361.50
695.80	18347.46
695.93	18270.22
696.07	17996.38
696.20	18001.06
696.33	18122.77
696.47	18064.25
696.60	17830.20
696.73	18031.49
696.87	17813.82
697.00	17991.70
697.14	17666.36
697.27	17422.95
697.40	17535.29
697.54	17406.56
697.67	17177.19
697.80	17312.94
697.94	17083.57
698.07	16940.80
698.21	16861.22
698.34	16896.33
698.47	17275.49
698.61	16725.47
698.74	16568.65
698.87	16549.93
699.01	16109.91
699.14	16306.51
699.27	16404.81
699.40	16313.53
699.54	16166.08
699.67	16067.78
699.80	16585.04
699.94	16081.82
700.07	15953.09
700.20	16112.25
700.34	15690.95
700.47	15882.88
700.60	15967.13
700.73	16070.12
700.87	15606.69
701.00	15417.11
701.13	15779.89
701.26	15438.17
701.40	15506.05
701.53	15105.82
701.66	15044.96
701.79	15122.20
701.93	15349.23
702.06	14862.40
702.19	15105.82
702.32	15016.88
702.46	14745.38
702.59	14902.19
702.72	14848.36
702.85	14750.06
702.99	14677.50
703.12	14909.21
703.25	14628.35
703.38	14293.65
703.51	14321.74
703.65	14511.32
703.78	14277.27
703.91	14246.84
704.04	13996.40
704.17	13933.21
704.31	13933.21
704.44	13914.48
704.57	13612.56
704.70	13640.64
704.83	13460.42
704.96	13811.50
705.10	13865.33
705.23	13752.99
>>>>>End Processed Spectral Data<<<<<
