SpectraSuite Data File
++++++++++++++++++++++++++++++++++++
Date: Fri Oct 25 10:47:07 EDT 2013
User: price-jones
Dark Spectrum Present: No
Reference Spectrum Present: No
Number of Sampled Component Spectra: 1
Spectrometers: USB2+H05261
Integration Time (usec): 100000 (USB2+H05261)
Spectra Averaged: 1 (USB2+H05261)
Boxcar Smoothing: 0 (USB2+H05261)
Correct for Electrical Dark: No (USB2+H05261)
Strobe/Lamp Enabled: No (USB2+H05261)
Correct for Detector Non-linearity: No (USB2+H05261)
Correct for Stray Light: No (USB2+H05261)
Number of Pixels in Processed Spectrum: 2048
>>>>>Begin Processed Spectral Data<<<<<
365.73	114.69
365.92	114.69
366.12	114.69
366.32	60.85
366.52	63.19
366.72	86.60
366.91	23.41
367.11	0.00
367.31	0.00
367.51	51.49
367.70	37.45
367.90	2.34
368.10	4.68
368.30	35.11
368.49	86.60
368.69	23.41
368.89	25.75
369.09	0.00
369.28	105.32
369.48	21.06
369.68	110.01
369.87	131.07
370.07	42.13
370.27	175.54
370.47	154.48
370.66	337.04
370.86	346.40
371.06	435.34
371.25	528.96
371.45	404.91
371.65	512.58
371.84	454.06
372.04	423.64
372.24	512.58
372.44	503.22
372.63	475.13
372.83	463.43
373.03	423.64
373.22	407.25
373.42	538.32
373.62	510.24
373.81	547.69
374.01	521.94
374.21	580.45
374.40	479.81
374.60	608.54
374.79	538.32
374.99	566.41
375.19	638.97
375.38	547.69
375.58	491.51
375.78	617.90
375.97	538.32
376.17	580.45
376.37	641.31
376.56	620.24
376.76	615.56
376.95	500.87
377.15	627.26
377.35	575.77
377.54	685.78
377.74	566.41
377.93	592.16
378.13	580.45
378.33	589.82
378.52	613.22
378.72	660.03
378.91	741.95
379.11	610.88
379.31	582.79
379.50	671.73
379.70	662.37
379.89	704.50
380.09	671.73
380.28	631.94
380.48	645.99
380.68	655.35
380.87	674.07
381.07	601.52
381.26	767.70
381.46	629.60
381.65	653.01
381.85	688.12
382.04	695.14
382.24	634.29
382.43	671.73
382.63	592.16
382.83	688.12
383.02	638.97
383.22	676.41
383.41	660.03
383.61	770.04
383.80	774.72
384.00	702.16
384.19	706.84
384.39	774.72
384.58	746.63
384.78	784.08
384.97	711.52
385.17	739.61
385.36	741.95
385.56	648.33
385.75	798.12
385.95	751.31
386.14	851.96
386.34	669.39
386.53	739.61
386.72	884.72
386.92	903.45
387.11	732.59
387.31	812.17
387.50	755.99
387.70	720.88
387.89	765.36
388.09	814.51
388.28	751.31
388.48	760.67
388.67	856.64
388.86	922.17
389.06	809.83
389.25	837.91
389.45	896.43
389.64	830.89
389.84	898.77
390.03	851.96
390.22	873.02
390.42	901.11
390.61	887.06
390.81	830.89
391.00	924.51
391.19	938.55
391.39	917.49
391.58	931.53
391.78	1006.43
391.97	961.96
392.16	940.90
392.36	994.73
392.55	1022.81
392.75	940.90
392.94	940.90
393.13	971.32
393.33	1006.43
393.52	940.90
393.71	1018.13
393.91	999.41
394.10	1039.20
394.29	1121.12
394.49	1095.37
394.68	1025.15
394.88	1022.81
395.07	1043.88
395.26	1029.84
395.46	1116.44
395.65	1111.75
395.84	1043.88
396.04	1177.29
396.23	1057.92
396.42	1167.93
396.62	1043.88
396.81	1132.82
397.00	1153.88
397.19	1093.03
397.39	1205.38
397.58	1172.61
397.77	1210.06
397.97	1343.47
398.16	1235.80
398.35	1282.61
398.55	1242.82
398.74	1219.42
398.93	1320.06
399.12	1268.57
399.32	1348.15
399.51	1268.57
399.70	1338.79
399.90	1341.13
400.09	1401.98
400.28	1406.66
400.47	1331.76
400.67	1469.86
400.86	1369.21
401.05	1383.26
401.24	1446.45
401.44	1521.35
401.63	1502.62
401.82	1430.07
402.01	1458.15
402.21	1472.20
402.40	1537.73
402.59	1509.65
402.78	1523.69
402.97	1577.52
403.17	1523.69
403.36	1596.25
403.55	1554.12
403.74	1596.25
403.93	1614.97
404.13	1692.21
404.32	1591.56
404.51	1638.38
404.70	1626.67
404.89	1753.06
405.09	1706.25
405.28	1781.15
405.47	1750.72
405.66	1710.93
405.85	1680.50
406.05	1724.97
406.24	1713.27
406.43	1748.38
406.62	1734.34
406.81	1844.34
407.00	1842.00
407.20	1825.62
407.39	1717.95
407.58	1743.70
407.77	1863.07
407.96	1937.96
408.15	2001.16
408.34	2038.61
408.54	1893.49
408.73	1959.03
408.92	1966.05
409.11	1921.58
409.30	1961.37
409.49	1944.99
409.68	2026.90
409.87	2043.29
410.07	2129.89
410.26	2179.04
410.45	2087.76
410.64	2092.44
410.83	2172.02
411.02	2059.67
411.21	2282.02
411.40	2286.70
411.59	2249.25
411.78	2167.34
411.98	2242.23
412.17	2349.90
412.36	2209.47
412.55	2375.64
412.74	2406.07
412.93	2354.58
413.12	2267.98
413.31	2513.74
413.50	2392.03
413.69	2434.16
413.88	2495.01
414.07	2518.42
414.26	2607.36
414.45	2537.14
414.64	2647.15
414.83	2619.06
415.02	2649.49
415.22	2656.51
415.41	2736.09
415.60	2764.17
415.79	2684.59
415.98	2876.52
416.17	2682.25
416.36	2862.48
416.55	2871.84
416.74	2736.09
416.93	2761.83
417.12	2822.69
417.31	2871.84
417.50	2942.05
417.69	3023.97
417.88	2979.50
418.07	3028.65
418.26	2995.89
418.45	3187.81
418.64	3173.77
418.83	3148.02
419.02	3171.43
419.21	3194.83
419.39	3098.87
419.58	3021.63
419.77	3131.64
419.96	3295.47
420.15	3215.90
420.34	3365.69
420.53	3187.81
420.72	3302.50
420.91	3297.81
421.10	3365.69
421.29	3466.33
421.48	3309.52
421.67	3410.16
421.86	3370.37
422.05	3435.91
422.24	3433.57
422.43	3414.84
422.61	3386.76
422.80	3368.03
422.99	3527.19
423.18	3412.50
423.37	3445.27
423.56	3452.29
423.75	3365.69
423.94	3353.99
424.13	3368.03
424.32	3370.37
424.50	3508.46
424.69	3548.25
424.88	3562.30
425.07	3407.82
425.26	3431.23
425.45	3449.95
425.64	3279.09
425.83	3330.58
426.01	3578.68
426.20	3536.55
426.39	3492.08
426.58	3562.30
426.77	3440.59
426.96	3676.98
427.15	3496.76
427.33	3550.59
427.52	3665.28
427.71	3660.60
427.90	3634.85
428.09	3786.99
428.28	3719.11
428.46	3779.97
428.65	3822.09
428.84	3840.82
429.03	3934.44
429.22	3749.54
429.40	3744.86
429.59	3815.07
429.78	3590.38
429.97	3602.08
430.16	3721.45
430.34	3758.90
430.53	3784.65
430.72	3817.41
430.91	3852.52
431.10	3833.80
431.28	3995.29
431.47	3995.29
431.66	4039.76
431.85	4138.07
432.03	4117.00
432.22	4065.51
432.41	4189.56
432.60	4112.32
432.79	4011.68
432.97	4280.84
433.16	4173.18
433.35	4112.32
433.54	4355.74
433.72	4248.07
433.91	4365.10
434.10	4341.69
434.28	4222.33
434.47	4217.65
434.66	4252.75
434.85	4498.51
435.03	4447.02
435.22	4393.19
435.41	4603.83
435.59	4547.66
435.78	4341.69
435.97	4765.33
436.16	4432.97
436.34	4503.19
436.53	4629.58
436.72	4723.20
436.90	4482.13
437.09	4615.54
437.28	4608.51
437.46	4603.83
437.65	4674.05
437.84	4664.69
438.02	4512.55
438.21	4627.24
438.40	4650.64
438.58	4809.80
438.77	4858.95
438.96	4959.60
439.14	5006.41
439.33	4971.30
439.52	5018.11
439.70	5011.09
439.89	5142.16
440.08	5186.63
440.26	5055.56
440.45	5062.58
440.63	5329.40
440.82	5174.92
441.01	5249.82
441.19	5329.40
441.38	5336.42
441.57	5210.03
441.75	5603.24
441.94	5565.79
442.12	5563.45
442.31	5692.18
442.50	5563.45
442.68	5699.20
442.87	5605.58
443.05	5591.54
443.24	5720.27
443.43	5645.37
443.61	5767.08
443.80	5811.55
443.98	5645.37
444.17	5523.66
444.35	5612.60
444.54	5736.65
444.73	5738.99
444.91	5881.77
445.10	5675.80
445.28	5589.20
445.47	5841.98
445.65	5621.97
445.84	5701.54
446.02	5783.46
446.21	5944.96
446.39	5837.30
446.58	5884.11
446.77	5832.62
446.95	5867.72
447.14	6031.56
447.32	5961.34
447.51	5788.14
447.69	5710.91
447.88	5860.70
448.06	5795.17
448.25	5954.32
448.43	6090.07
448.62	5837.30
448.80	5823.25
448.99	6040.92
449.17	5991.77
449.36	6129.86
449.54	6146.25
449.73	6214.12
449.91	6108.80
450.10	6265.61
450.28	6305.40
450.46	6232.85
450.65	6267.95
450.83	6265.61
451.02	6345.19
451.20	6375.62
451.39	6277.32
451.57	6260.93
451.76	6307.74
451.94	6466.90
452.13	6434.13
452.31	6466.90
452.49	6101.78
452.68	6333.49
452.86	6466.90
453.05	6534.78
453.23	6569.88
453.42	6438.81
453.60	6396.68
453.78	6555.84
453.97	6532.44
454.15	6539.46
454.34	6558.18
454.52	6654.14
454.70	6635.42
454.89	6712.66
455.07	6487.96
455.26	6787.55
455.44	6853.09
455.62	6874.15
455.81	6892.88
455.99	6855.43
456.17	7063.74
456.36	6803.94
456.54	7016.93
456.73	7194.81
456.91	7016.93
457.09	7211.19
457.28	7424.18
457.46	7192.47
457.64	7201.83
457.83	7112.89
458.01	7019.27
458.19	7260.34
458.38	7110.55
458.56	7248.64
458.74	7442.90
458.93	7192.47
459.11	7281.41
459.29	7466.31
459.48	7496.74
459.66	7421.84
459.84	7524.82
460.03	7723.77
460.21	7557.59
460.39	7602.06
460.57	7449.93
460.76	7698.02
460.94	7660.57
461.12	7707.38
461.31	7618.44
461.49	7693.34
461.67	7702.70
461.85	7819.73
462.04	7721.43
462.22	8280.82
462.40	7925.05
462.59	7903.99
462.77	7726.11
462.95	8072.51
463.13	8173.15
463.32	7882.92
463.50	8180.17
463.68	8035.06
463.86	8180.17
464.05	7889.95
464.23	8222.30
464.41	8168.47
464.59	7894.63
464.78	8257.41
464.96	8051.44
465.14	8011.65
465.32	8215.28
465.50	8259.75
465.69	8376.78
465.87	8112.30
466.05	8236.35
466.23	8194.22
466.41	8468.06
466.60	8484.44
466.78	8264.43
466.96	8243.37
467.14	8306.56
467.32	8311.24
467.51	8566.36
467.69	8376.78
467.87	8505.51
468.05	8521.89
468.23	8435.29
468.41	8397.84
468.60	8568.70
468.78	8622.53
468.96	8634.24
469.14	8861.27
469.32	8884.67
469.50	8355.71
469.69	8727.86
469.87	8795.73
470.05	8648.28
470.23	8835.52
470.41	8835.52
470.59	8812.12
470.77	9039.15
470.95	8847.22
471.14	8987.66
471.32	8643.60
471.50	9092.98
471.68	9032.13
471.86	9001.70
472.04	9481.51
472.22	9479.17
472.40	9259.16
472.58	9238.09
472.77	9448.74
472.95	9434.70
473.13	9755.35
473.31	9362.14
473.49	9310.65
473.67	9507.26
473.85	9703.86
474.03	9987.07
474.21	9816.21
474.39	9863.02
474.57	9998.77
474.75	10148.56
474.93	10019.83
475.12	10036.22
475.30	10237.50
475.48	9914.51
475.66	10108.77
475.84	10033.88
476.02	10274.95
476.20	10197.71
476.38	10595.61
476.56	10586.24
476.74	10729.02
476.92	10668.16
477.10	10637.73
477.28	10839.02
477.46	10761.78
477.64	10977.11
477.82	10993.50
478.00	11248.61
478.18	11257.98
478.36	11396.07
478.54	11466.28
478.72	11658.21
478.90	11789.28
479.08	11925.03
479.26	11599.70
479.44	11899.28
479.62	11660.55
479.80	11868.86
479.98	12212.92
480.16	12262.07
480.34	12119.29
480.52	12009.29
480.70	12276.11
480.88	12416.54
481.06	12451.65
481.24	12617.83
481.41	12821.45
481.59	12774.64
481.77	12774.64
481.95	12875.29
482.13	12915.08
482.31	13174.88
482.49	13444.04
482.67	13336.37
482.85	13584.47
483.03	13474.46
483.21	13743.63
483.39	13781.07
483.57	13956.61
483.74	13987.04
483.92	14202.37
484.10	14040.87
484.28	14455.15
484.46	14574.52
484.64	14827.29
484.82	14333.44
485.00	14668.14
485.18	14963.04
485.35	15159.65
485.53	14963.04
485.71	14932.62
485.89	15328.17
486.07	15374.98
486.25	15372.64
486.43	15501.37
486.61	15644.14
486.78	16168.42
486.96	15857.13
487.14	16135.65
487.32	15953.09
487.50	16299.49
487.68	16112.25
487.85	16699.72
488.03	16526.52
488.21	17006.33
488.39	16681.00
488.57	16891.65
488.75	17242.73
488.92	17254.43
489.10	17207.62
489.28	17617.21
489.46	17968.29
489.64	17715.51
489.81	18225.75
489.99	18235.11
490.17	18391.93
490.35	18321.71
490.53	18520.66
490.70	18546.40
490.88	18731.31
491.06	18925.57
491.24	18986.43
491.41	18799.18
491.59	18815.57
491.77	19126.86
491.95	19218.14
492.13	19365.59
492.30	19838.38
492.48	19831.36
492.66	19810.29
492.84	19648.80
493.01	20037.33
493.19	19978.81
493.37	20372.02
493.54	20236.27
493.72	20526.50
493.90	20439.90
494.08	20781.62
494.25	21319.94
494.43	21116.31
494.61	21235.68
494.79	21200.57
494.96	21055.46
495.14	21558.67
495.32	21846.56
495.49	21645.27
495.67	21755.28
495.85	21832.52
496.02	21886.35
496.20	22132.11
496.38	22188.28
496.55	22073.59
496.73	22761.71
496.91	22246.79
497.09	22656.39
497.26	22668.09
497.44	22988.74
497.62	22827.24
497.79	23531.75
497.97	22813.20
498.14	23183.01
498.32	23503.66
498.50	23538.77
498.67	23828.99
498.85	23442.81
499.03	23969.43
499.20	23782.18
499.38	23630.05
499.56	23971.77
499.73	24205.82
499.91	24383.70
500.08	24334.55
500.26	24386.04
500.44	24510.09
500.61	24470.30
500.79	24240.93
500.97	24812.02
501.14	25095.22
501.32	25015.65
501.49	24903.30
501.67	24973.52
501.84	25067.14
502.02	25153.74
502.20	25481.41
502.37	25565.67
502.55	25387.79
502.72	25710.78
502.90	25734.19
503.07	25600.78
503.25	25820.79
503.43	25879.30
503.60	25954.20
503.78	26265.49
503.95	25949.52
504.13	26153.15
504.30	26356.77
504.48	26099.31
504.65	26473.80
504.83	26459.76
505.01	26668.06
505.18	26661.04
505.36	27056.59
505.53	26911.48
505.71	27159.58
505.88	27215.75
506.06	26934.88
506.23	27349.16
506.41	26859.99
506.58	27250.86
506.76	27344.48
506.93	27414.69
507.11	27754.07
507.28	27611.30
507.46	28004.51
507.63	27864.08
507.81	27896.85
507.98	27770.46
508.16	28081.75
508.33	28168.35
508.50	28524.11
508.68	28194.09
508.85	28533.47
509.03	28493.68
509.20	28400.06
509.38	28641.14
509.55	28896.25
509.73	28999.24
509.90	28882.21
510.08	29034.35
510.25	29008.60
510.42	28947.75
510.60	29006.26
510.77	29235.63
510.95	29509.47
511.12	29640.54
511.30	29703.74
511.47	29823.11
511.64	29612.46
511.82	29893.32
511.99	29514.16
512.17	30122.69
512.34	29811.40
512.51	30127.38
512.69	30270.15
512.86	30314.62
513.04	30567.40
513.21	30380.15
513.38	30625.91
513.56	30635.27
513.73	30146.10
513.90	30565.06
514.08	30586.12
514.25	31049.55
514.43	31082.31
514.60	30775.70
514.77	30752.30
514.95	31026.14
515.12	31218.07
515.29	31044.87
515.47	31711.92
515.64	31529.36
515.81	31381.90
515.99	31208.70
516.16	31562.12
516.33	31510.63
516.51	31463.82
516.68	31433.39
516.85	31292.96
517.03	31391.26
517.20	31756.39
517.37	31744.69
517.54	31887.46
517.72	31861.71
517.89	31744.69
518.06	31941.29
518.24	32091.09
518.41	32226.84
518.58	32367.27
518.75	32114.49
518.93	32004.49
519.10	32746.44
519.27	32865.80
519.45	32802.61
519.62	32781.54
519.79	33125.60
519.96	33132.62
520.14	32716.01
520.31	32847.08
520.48	33097.52
520.65	33137.30
520.83	33493.07
521.00	33464.98
521.17	33476.68
521.34	33696.69
521.52	33558.60
521.69	33619.46
521.86	33919.04
522.03	33984.58
522.20	33628.82
522.38	33986.92
522.55	33701.37
522.72	33694.35
522.89	34340.34
523.07	34169.48
523.24	34094.58
523.41	34209.27
523.58	34139.05
523.75	34817.81
523.92	34623.54
524.10	34682.06
524.27	34572.05
524.44	35035.48
524.61	34934.84
524.78	35122.08
524.96	34721.85
525.13	35091.65
525.30	35686.15
525.47	35138.46
525.64	35264.85
525.81	35447.41
525.98	35145.48
526.16	34993.35
526.33	35246.13
526.50	35955.31
526.67	35211.02
526.84	35178.25
527.01	35009.73
527.18	35693.17
527.36	35784.45
527.53	35929.56
527.70	36055.95
527.87	36065.31
528.04	36212.77
528.21	36189.36
528.38	35697.85
528.55	36327.45
528.72	35978.72
528.89	36409.37
529.07	36376.61
529.24	35849.99
529.41	36128.51
529.58	35969.35
529.75	36297.03
529.92	36620.02
530.09	36297.03
530.26	36456.18
530.43	36739.39
530.60	36233.83
530.77	36622.36
530.94	36903.23
531.11	36477.25
531.28	37029.62
531.46	37083.45
531.63	36971.10
531.80	36697.26
531.97	37137.28
532.14	37118.56
532.31	37212.18
532.48	37296.44
532.65	37282.39
532.82	37191.11
532.99	37420.48
533.16	37507.08
533.33	37120.90
533.50	37399.42
533.67	37722.41
533.84	37354.95
534.01	37855.82
534.18	37436.87
534.35	38146.05
534.52	37481.34
534.69	38148.39
534.86	38068.81
535.03	37347.93
535.20	37811.35
535.37	38330.95
535.54	38618.84
535.71	37977.53
535.88	38143.71
536.05	38134.35
536.22	38211.59
536.38	38391.81
536.55	38579.05
536.72	38307.55
536.89	37778.59
537.06	38436.28
537.23	38607.14
537.40	38597.77
537.57	38471.39
537.74	38644.59
537.91	39250.78
538.08	38813.10
538.25	38738.21
538.42	38843.53
538.59	38855.23
538.75	38756.93
538.92	38660.97
539.09	39374.83
539.26	39093.97
539.43	38824.81
539.60	39218.02
539.77	39063.54
539.94	39051.84
540.11	39065.88
540.28	39047.16
540.44	39346.75
540.61	39718.89
540.78	39548.03
540.95	39260.15
541.12	39098.65
541.29	39353.77
541.46	39342.06
541.62	39505.90
541.79	39278.87
541.96	39084.61
542.13	39533.99
542.30	39627.61
542.47	39714.21
542.63	39856.98
542.80	39636.97
542.97	40376.58
543.14	40479.57
543.31	39746.98
543.48	40208.06
543.64	40634.04
543.81	40091.04
543.98	40643.40
544.15	40245.51
544.32	40701.92
544.48	41137.26
544.65	40603.61
544.82	40711.28
544.99	40222.11
545.16	40465.52
545.32	39976.35
545.49	40889.16
545.66	41120.87
545.83	40814.26
546.00	40587.23
546.16	41200.45
546.33	40734.68
546.50	40591.91
546.67	40975.76
546.83	40247.85
547.00	40978.10
547.17	40825.96
547.34	40713.62
547.50	41263.64
547.67	40739.36
547.84	41043.63
548.00	41434.50
548.17	41261.30
548.34	41165.34
548.51	41406.42
548.67	41443.87
548.84	41441.53
549.01	41373.65
549.18	41345.56
549.34	41263.64
549.51	42033.68
549.68	41820.69
549.84	41727.07
550.01	41797.29
550.18	41668.56
550.34	41448.55
550.51	41895.59
550.68	41418.12
550.84	41518.76
551.01	42120.28
551.18	41626.43
551.34	41757.50
551.51	42227.95
551.68	42036.02
551.84	41565.57
552.01	42040.70
552.18	41818.35
552.34	41743.45
552.51	42054.75
552.68	42054.75
552.84	42185.82
553.01	42483.06
553.18	42073.47
553.34	41984.53
553.51	41890.91
553.67	42024.32
553.84	42431.57
554.01	42342.63
554.17	42408.17
554.34	42714.78
554.51	42319.23
554.67	42745.20
554.84	42712.44
555.00	42518.17
555.17	42497.11
555.33	42686.69
555.50	42763.93
555.67	42850.53
555.83	42649.24
556.00	42314.55
556.16	43107.99
556.33	42707.76
556.50	42801.38
556.66	43091.60
556.83	42588.39
556.99	43168.84
557.16	43070.54
557.32	43096.28
557.49	43093.94
557.65	42892.66
557.82	42618.81
557.98	42684.35
558.15	42487.74
558.32	42953.51
558.48	43150.12
558.65	42803.72
558.81	43009.68
558.98	43044.79
559.14	42866.91
559.31	43049.47
559.47	43171.18
559.64	43566.73
559.80	43456.73
559.97	43805.47
560.13	42948.83
560.30	43253.10
560.46	43405.23
560.63	43456.73
560.79	43496.52
560.96	43875.68
561.12	43461.41
561.29	43304.59
561.45	43569.07
561.61	43763.34
561.78	43608.86
561.94	43562.05
562.11	43510.56
562.27	43400.55
562.44	43215.65
562.60	43981.01
562.77	44048.88
562.93	43562.05
563.10	43332.68
563.26	43358.42
563.42	43688.44
563.59	43505.88
563.75	43351.40
563.92	44308.68
564.08	43861.64
564.24	44121.44
564.41	43758.66
564.57	43618.22
564.74	43957.60
564.90	43997.39
565.07	44009.09
565.23	43625.25
565.39	43707.16
565.56	43552.69
565.72	43990.37
565.88	43976.33
566.05	43835.89
566.21	43798.44
566.38	43510.56
566.54	44058.24
566.70	44313.36
566.87	44435.07
567.03	43871.00
567.19	44451.45
567.36	44360.17
567.52	43955.26
567.68	43896.75
567.85	43915.47
568.01	43826.53
568.17	43856.96
568.34	43730.57
568.50	44226.76
568.66	43859.30
568.83	43800.79
568.99	43777.38
569.15	44292.30
569.32	44107.40
569.48	43641.63
569.64	44013.77
569.81	44261.87
569.97	44023.14
570.13	43833.55
570.30	43704.82
570.46	43784.40
570.62	44179.95
570.78	43990.37
570.95	43866.32
571.11	44545.08
571.27	44521.67
571.43	44252.51
571.60	44034.84
571.76	43812.49
571.92	44538.05
572.09	44030.16
572.25	43594.82
572.41	43971.64
572.57	44205.70
572.74	44814.24
572.90	44617.63
573.06	44350.81
573.22	44669.12
573.38	44360.17
573.55	43920.15
573.71	44280.60
573.87	44114.42
574.03	44048.88
574.20	44392.94
574.36	44313.36
574.52	44491.24
574.68	44484.22
574.84	44240.81
575.01	44442.09
575.17	44175.27
575.33	43863.98
575.49	44194.00
575.65	44582.52
575.82	44353.15
575.98	44266.55
576.14	44278.25
576.30	44397.62
576.46	44306.34
576.62	43950.58
576.79	44135.48
576.95	44133.14
577.11	44322.72
577.27	44226.76
577.43	44746.36
577.59	44051.22
577.75	44280.60
577.92	44315.70
578.08	44268.89
578.24	44390.60
578.40	44350.81
578.56	44046.54
578.72	44304.00
578.88	44311.02
579.04	44179.95
579.21	44376.56
579.37	44502.95
579.53	44411.67
579.69	44257.19
579.85	44149.53
580.01	44575.50
580.17	44362.51
580.33	44851.69
580.49	44474.86
580.65	44388.26
580.82	44638.70
580.98	44495.92
581.14	44376.56
581.30	44900.84
581.46	44729.98
581.62	44598.91
581.78	44367.20
581.94	44652.74
582.10	44580.18
582.26	44568.48
582.42	44367.20
582.58	44149.53
582.74	44339.11
582.90	44222.08
583.06	44886.79
583.22	44814.24
583.38	44942.97
583.54	44634.02
583.70	44575.50
583.86	44722.96
584.02	44357.83
584.18	44449.11
584.34	44849.35
584.50	44617.63
584.66	44376.56
584.82	44715.93
584.98	44903.18
585.14	44638.70
585.30	44027.82
585.46	44533.37
585.62	44219.74
585.78	44680.83
585.94	43952.92
586.10	44514.65
586.26	44573.16
586.42	44528.69
586.58	44807.22
586.74	44514.65
586.90	44479.54
587.06	44179.95
587.22	44495.92
587.38	44376.56
587.54	44402.30
587.70	44648.06
587.86	44933.60
588.02	44790.83
588.18	45188.72
588.34	44360.17
588.49	44191.65
588.65	44442.09
588.81	44437.41
588.97	44854.03
589.13	44304.00
589.29	44865.73
589.45	44421.03
589.61	44891.48
589.77	44971.05
589.93	44332.09
590.08	44856.37
590.24	45034.25
590.40	44371.88
590.56	45167.66
590.72	44425.71
590.88	44711.25
591.04	44708.91
591.20	45092.76
591.35	44744.02
591.51	45298.73
591.67	45198.09
591.83	45181.70
591.99	45118.51
592.15	44715.93
592.31	44245.49
592.46	44509.97
592.62	44554.44
592.78	44919.56
592.94	44912.54
593.10	44753.38
593.26	44982.76
593.41	45191.06
593.57	44669.12
593.73	44741.68
593.89	44891.48
594.05	44671.46
594.20	44601.25
594.36	44701.89
594.52	45191.06
594.68	44779.13
594.84	44975.73
594.99	45216.81
595.15	45015.52
595.31	45354.90
595.47	44959.35
595.62	44797.85
595.78	44938.29
595.94	45249.58
596.10	45031.91
596.25	45095.10
596.41	44456.14
596.57	44912.54
596.73	45333.84
596.88	44575.50
597.04	45041.27
597.20	44945.31
597.36	44886.79
597.51	45350.22
597.67	45001.48
597.83	45167.66
597.99	45237.87
598.14	44669.12
598.30	44776.79
598.46	44854.03
598.61	44938.29
598.77	44786.15
598.93	44940.63
599.09	45111.49
599.24	45687.26
599.40	44982.76
599.56	45415.76
599.71	45233.19
599.87	45296.39
600.03	44842.32
600.18	45106.80
600.34	44893.82
600.50	44975.73
600.65	44905.52
600.81	45170.00
600.97	45565.55
601.12	45375.97
601.28	45188.72
601.44	45064.67
601.59	44940.63
601.75	44957.01
601.91	44996.80
602.06	44772.11
602.22	45186.38
602.37	45228.51
602.53	45167.66
602.69	45247.24
602.84	44938.29
603.00	44385.92
603.16	44987.44
603.31	44856.37
603.47	44652.74
603.62	44697.21
603.78	44968.71
603.94	44765.09
604.09	45233.19
604.25	44931.26
604.40	44751.04
604.56	44694.87
604.71	44818.92
604.87	44397.62
605.03	44765.09
605.18	44891.48
605.34	44605.93
605.49	44729.98
605.65	45038.93
605.80	44858.71
605.96	44821.26
606.12	45111.49
606.27	45064.67
606.43	45085.74
606.58	44949.99
606.74	44732.32
606.89	44783.81
607.05	44776.79
607.20	44875.09
607.36	44945.31
607.51	45284.68
607.67	45436.82
607.82	44849.35
607.98	44722.96
608.13	44788.49
608.29	44797.85
608.44	44439.75
608.60	44215.06
608.75	44718.28
608.91	44545.08
609.06	45006.16
609.22	44641.04
609.37	44486.56
609.53	44603.59
609.68	44973.39
609.84	44748.70
609.99	44662.10
610.15	44669.12
610.30	44690.19
610.46	44126.12
610.61	44245.49
610.76	44245.49
610.92	44624.65
611.07	44346.13
611.23	44598.91
611.38	44704.23
611.54	44088.67
611.69	44137.82
611.84	44184.63
612.00	43964.62
612.15	43880.36
612.31	44435.07
612.46	44542.74
612.62	44505.29
612.77	43971.64
612.92	44463.16
613.08	44088.67
613.23	44201.02
613.39	44470.18
613.54	43985.69
613.69	44109.74
613.85	44058.24
614.00	44004.41
614.15	44172.93
614.31	43913.13
614.46	44320.38
614.62	43990.37
614.77	43842.92
614.92	44313.36
615.08	44158.89
615.23	43966.96
615.38	44184.63
615.54	43721.21
615.69	43866.32
615.84	43777.38
616.00	43852.28
616.15	43700.14
616.30	44100.37
616.46	43826.53
616.61	43161.82
616.76	43604.18
616.92	43353.74
617.07	43393.53
617.22	42806.06
617.37	43412.26
617.53	43721.21
617.68	43648.65
617.83	43613.54
617.99	43676.74
618.14	43966.96
618.29	43688.44
618.45	43089.26
618.60	43433.32
618.75	43250.76
618.90	43531.62
619.06	43709.50
619.21	43290.55
619.36	43681.42
619.51	43306.93
619.67	43409.92
619.82	43655.67
619.97	43405.23
620.12	43285.87
620.28	43440.34
620.43	43082.24
620.58	43353.74
620.73	43145.44
620.89	42904.36
621.04	43239.06
621.19	43206.29
621.34	43145.44
621.49	43206.29
621.65	43150.12
621.80	43119.69
621.95	42637.54
622.10	42911.38
622.25	42920.74
622.41	42490.09
622.56	42389.44
622.71	43187.56
622.86	42497.11
623.01	42953.51
623.16	42799.04
623.32	42742.86
623.47	43093.94
623.62	42824.78
623.77	42532.22
623.92	42527.53
624.07	42515.83
624.23	42534.56
624.38	42412.85
624.53	42351.99
624.68	42298.16
624.83	42536.90
624.98	42277.10
625.13	42284.12
625.29	42562.64
625.44	42656.26
625.59	42176.45
625.74	42146.03
625.89	41944.74
626.04	42057.09
626.19	41860.48
626.34	42745.20
626.49	42398.80
626.65	41993.89
626.80	42014.96
626.95	42532.22
627.10	41514.08
627.25	42007.94
627.40	42038.36
627.55	41731.75
627.70	41448.55
627.85	41397.06
628.00	41823.03
628.15	42216.24
628.30	41844.10
628.45	42246.67
628.60	42012.62
628.76	41883.89
628.91	41663.88
629.06	41689.62
629.21	41642.81
629.36	41483.66
629.51	41287.05
629.66	41694.30
629.81	41242.58
629.96	41443.87
630.11	41446.21
630.26	41586.64
630.41	41535.15
630.56	41289.39
630.71	41706.01
630.86	41633.45
631.01	41319.82
631.16	41244.92
631.31	40870.43
631.46	40610.64
631.61	41476.63
631.76	41535.15
631.91	40896.18
632.06	41380.67
632.21	41469.61
632.36	41102.15
632.51	40926.61
632.66	40891.50
632.81	40870.43
632.96	41146.62
633.10	40477.22
633.25	40629.36
633.40	40896.18
633.55	41057.68
633.70	40875.12
633.85	40671.49
634.00	40919.59
634.15	40612.98
634.30	40615.32
634.45	41130.23
634.60	40676.17
634.75	40556.80
634.90	40734.68
635.05	40587.23
635.19	40732.34
635.34	40989.80
635.49	40774.47
635.64	40233.81
635.79	40069.97
635.94	40474.88
636.09	40615.32
636.24	40411.69
636.39	39938.90
636.53	39924.86
636.68	40123.80
636.83	40069.97
636.98	40509.99
637.13	40072.31
637.28	40376.58
637.43	40624.68
637.57	40425.73
637.72	40509.99
637.87	40350.84
638.02	40446.80
638.17	40151.89
638.32	39728.25
638.46	39854.64
638.61	39908.47
638.76	39601.86
638.91	39658.04
639.06	40062.95
639.20	40453.82
639.35	40114.44
639.50	39894.43
639.65	39861.66
639.80	40119.12
639.94	39852.30
640.09	39768.04
640.24	40081.67
640.39	39672.08
640.54	39576.12
640.68	40149.55
640.83	39800.81
640.98	39543.35
641.13	39423.98
641.27	39922.52
641.42	39377.17
641.57	39765.70
641.72	39756.34
641.86	39115.03
642.01	38803.74
642.16	39267.17
642.31	39129.08
642.45	39498.88
642.60	38902.04
642.75	38885.66
642.90	39098.65
643.04	39335.04
643.19	39414.62
643.34	39559.73
643.48	39484.84
643.63	39292.91
643.78	39084.61
643.93	38866.94
644.07	38733.53
644.22	38766.29
644.37	38848.21
644.51	38808.42
644.66	38951.20
644.81	38925.45
644.95	39159.50
645.10	39108.01
645.25	39318.66
645.39	39297.59
645.54	39049.50
645.69	38602.46
645.83	38703.10
645.98	38969.92
646.13	38651.61
646.27	38937.15
646.42	38656.29
646.57	38944.17
646.71	38918.43
646.86	39079.92
647.00	38850.55
647.15	38768.63
647.30	38927.79
647.44	38841.19
647.59	38522.88
647.74	38291.16
647.88	38300.53
648.03	38113.28
648.17	38672.67
648.32	38000.94
648.47	38218.61
648.61	38169.46
648.76	38628.20
648.90	38309.89
649.05	38253.72
649.20	38143.71
649.34	38356.70
649.49	38352.02
649.63	38415.21
649.78	38232.65
649.92	38410.53
650.07	38593.09
650.21	37380.70
650.36	38347.34
650.51	37743.48
650.65	38132.01
650.80	38438.62
650.94	38234.99
651.09	38272.44
651.23	37345.59
651.38	38302.87
651.52	38099.24
651.67	38146.05
651.81	37855.82
651.96	37904.98
652.10	38057.11
652.25	37820.72
652.39	38043.07
652.54	37846.46
652.68	37839.44
652.83	38209.25
652.97	38106.26
653.12	37745.82
653.26	37720.07
653.41	37921.36
653.55	37523.47
653.70	37453.25
653.84	37799.65
653.99	37696.67
654.13	38160.09
654.27	37261.33
654.42	37254.31
654.56	37514.11
654.71	37481.34
654.85	37343.25
655.00	37539.85
655.14	37158.34
655.29	36802.58
655.43	36875.14
655.57	37486.02
655.72	36921.95
655.86	37186.43
656.01	37132.60
656.15	36989.83
656.30	37071.75
656.44	37347.93
656.58	36971.10
656.73	36601.30
656.87	36734.71
657.01	36954.72
657.16	36444.48
657.30	36959.40
657.45	36664.49
657.59	36587.25
657.73	36460.87
657.88	36755.77
658.02	36898.55
658.16	36561.51
658.31	36849.39
658.45	36788.54
658.60	36531.08
658.74	36975.78
658.88	36519.38
659.03	36451.50
659.17	36336.82
659.31	36533.42
659.46	36297.03
659.60	36201.07
659.74	36203.41
659.89	35835.94
660.03	36072.34
660.17	36196.38
660.32	36112.13
660.46	36222.13
660.60	35976.37
660.74	36172.98
660.89	36142.55
661.03	35859.35
661.17	35714.23
661.32	35524.65
661.46	35264.85
661.60	35739.98
661.74	35374.86
661.89	35634.66
662.03	35854.67
662.17	35463.80
662.31	35665.08
662.46	35585.50
662.60	35388.90
662.74	35454.44
662.88	35180.59
663.03	35124.42
663.17	35363.15
663.31	35110.38
663.45	35234.42
663.60	35180.59
663.74	34892.71
663.88	35168.89
664.02	34958.24
664.17	34698.44
664.31	34600.14
664.45	34895.05
664.59	34759.30
664.73	34885.68
664.88	34944.20
665.02	34071.18
665.16	34492.47
665.30	34600.14
665.44	34328.64
665.59	34117.99
665.73	34078.20
665.87	33766.91
666.01	34108.63
666.15	34029.05
666.29	34211.61
666.44	34340.34
666.58	33699.03
666.72	33888.62
666.86	33958.83
667.00	34270.12
667.14	33890.96
667.28	33916.70
667.43	33729.46
667.57	33851.17
667.71	33500.09
667.85	33724.78
667.99	33266.03
668.13	33544.56
668.27	33448.60
668.41	33596.05
668.56	33326.89
668.70	33567.96
668.84	32933.68
668.98	33202.84
669.12	33305.82
669.26	33244.97
669.40	32898.57
669.54	32835.38
669.68	32821.33
669.82	32723.03
669.96	32610.68
670.10	32678.56
670.25	32582.60
670.39	33296.46
670.53	33085.81
670.67	32315.78
670.81	32837.72
670.95	32598.98
671.09	32322.80
671.23	32650.47
671.37	32596.64
671.51	32346.20
671.65	32238.54
671.79	32098.11
671.93	31924.91
672.07	32156.62
672.21	32063.00
672.35	31522.34
672.49	31864.05
672.63	32063.00
672.77	31714.26
672.91	31522.34
673.05	31409.99
673.19	31304.67
673.33	31115.08
673.47	31157.21
673.61	31208.70
673.75	30834.22
673.89	31136.15
674.03	30967.63
674.17	30670.38
674.31	31054.23
674.45	30965.29
674.59	30855.28
674.73	30773.36
674.87	30661.02
675.01	30710.17
675.15	30913.80
675.29	30724.21
675.43	30190.57
675.56	30595.48
675.70	30204.61
675.84	30419.94
675.98	29362.02
676.12	29898.00
676.26	30167.16
676.40	29790.34
676.54	29493.09
676.68	29663.95
676.82	29149.03
676.96	29214.57
677.10	29457.98
677.23	29525.86
677.37	29462.66
677.51	29406.49
677.65	29069.45
677.79	28584.96
677.93	29359.68
678.07	28772.21
678.21	28727.74
678.34	28816.68
678.48	28500.70
678.62	28741.78
678.76	28233.88
678.90	28325.16
679.04	28245.58
679.18	28477.30
679.31	27461.51
679.45	27789.18
679.59	27791.52
679.73	27688.54
679.87	27828.97
680.00	27587.89
680.14	27395.97
680.28	27370.22
680.42	27377.25
680.56	27262.56
680.70	27541.08
680.83	27307.03
680.97	27082.34
681.11	26775.73
681.25	26864.67
681.39	26567.42
681.52	26874.03
681.66	26532.31
681.80	26588.49
681.94	26670.40
682.07	26534.65
682.21	26649.34
682.35	26328.69
682.49	26548.70
682.62	26125.06
682.76	26017.40
682.90	26106.34
683.04	26005.69
683.17	25799.73
683.31	25891.01
683.45	25970.58
683.59	25568.01
683.72	25376.09
683.86	25010.96
684.00	25090.54
684.13	25298.85
684.27	25287.15
684.41	25364.39
684.55	24746.48
684.68	24971.18
684.82	24812.02
684.96	24865.85
685.09	24727.76
685.23	24547.54
685.37	24484.34
685.50	24372.00
685.64	24341.57
685.78	24435.19
685.91	24243.27
686.05	24100.50
686.19	23681.54
686.32	23866.44
686.46	23789.20
686.60	23335.14
686.73	23934.32
686.87	23250.88
687.01	23618.35
687.14	23150.24
687.28	23122.15
687.42	22977.04
687.55	23065.98
687.69	23000.44
687.82	22665.75
687.96	23360.89
688.10	22836.61
688.23	22658.73
688.37	22424.67
688.50	22017.42
688.64	22108.70
688.78	22347.44
688.91	22127.42
689.05	22504.25
689.18	22068.91
689.32	21816.13
689.46	22059.55
689.59	21731.87
689.73	22345.09
689.86	21376.11
690.00	21940.18
690.13	21914.44
690.27	21504.84
690.41	21380.79
690.54	21399.52
690.68	20870.56
690.81	20924.39
690.95	20875.24
691.08	20835.45
691.22	20985.24
691.35	20802.68
691.49	20734.81
691.62	21062.48
691.76	20718.42
691.89	20673.95
692.03	20533.52
692.16	20444.58
692.30	20025.62
692.43	20034.99
692.57	20123.93
692.70	20133.29
692.84	19969.45
692.97	19824.34
693.11	19627.73
693.24	19838.38
693.38	19880.51
693.51	19391.34
693.65	19702.63
693.78	19459.21
693.92	19513.05
694.05	19548.15
694.19	19201.76
694.32	19047.28
694.45	19215.80
694.59	18738.33
694.72	18911.53
694.86	18948.98
694.99	18579.17
695.13	18700.88
695.26	18661.09
695.39	18382.57
695.53	18338.10
695.66	18452.78
695.80	18185.96
695.93	17827.86
696.07	17975.31
696.20	18017.44
696.33	18099.36
696.47	17858.29
696.60	17771.69
696.73	17827.86
696.87	17568.06
697.00	17657.00
697.14	17685.09
697.27	17453.37
697.40	17415.93
697.54	17584.44
697.67	17172.51
697.80	17331.67
697.94	17436.99
698.07	17144.42
698.21	16833.13
698.34	16989.95
698.47	17209.96
698.61	16561.63
698.74	16568.65
698.87	16793.34
699.01	16587.38
699.14	16187.14
699.27	16304.17
699.40	16311.19
699.54	16135.65
699.67	16051.39
699.80	15981.18
699.94	16042.03
700.07	16273.74
700.20	15756.49
700.34	15756.49
700.47	15697.97
700.60	15791.59
700.73	15815.00
700.87	15655.84
701.00	15470.94
701.13	15672.23
701.26	15332.85
701.40	15648.82
701.53	15250.93
701.66	15129.22
701.79	15145.61
701.93	15000.49
702.06	15136.24
702.19	14916.23
702.32	14958.36
702.46	14768.78
702.59	14565.15
702.72	14813.25
702.85	14623.67
702.99	14410.68
703.12	14640.05
703.25	14623.67
703.38	14403.66
703.51	14317.06
703.65	14298.33
703.78	14235.14
703.91	14148.54
704.04	13930.87
704.17	14108.75
704.31	14134.50
704.44	13678.09
704.57	13764.69
704.70	13661.71
704.83	13544.68
704.96	13717.88
705.10	13633.62
705.23	13598.51
>>>>>End Processed Spectral Data<<<<<
