SpectraSuite Data File
++++++++++++++++++++++++++++++++++++
Date: Fri Oct 25 11:33:14 EDT 2013
User: price-jones
Dark Spectrum Present: No
Reference Spectrum Present: No
Number of Sampled Component Spectra: 1
Spectrometers: USB2+H05261
Integration Time (usec): 100000 (USB2+H05261)
Spectra Averaged: 1 (USB2+H05261)
Boxcar Smoothing: 0 (USB2+H05261)
Correct for Electrical Dark: No (USB2+H05261)
Strobe/Lamp Enabled: No (USB2+H05261)
Correct for Detector Non-linearity: No (USB2+H05261)
Correct for Stray Light: No (USB2+H05261)
Number of Pixels in Processed Spectrum: 2048
>>>>>Begin Processed Spectral Data<<<<<
365.73	266.82
365.92	266.82
366.12	266.82
366.32	215.33
366.52	184.90
366.72	110.01
366.91	222.35
367.11	196.60
367.31	215.33
367.51	170.86
367.70	135.75
367.90	170.86
368.10	154.48
368.30	147.45
368.49	187.24
368.69	212.99
368.89	236.39
369.09	201.29
369.28	217.67
369.48	238.73
369.68	140.43
369.87	262.14
370.07	201.29
370.27	227.03
370.47	381.51
370.66	404.91
370.86	510.24
371.06	514.92
371.25	514.92
371.45	528.96
371.65	554.71
371.84	512.58
372.04	526.62
372.24	587.47
372.44	641.31
372.63	606.20
372.83	538.32
373.03	610.88
373.22	566.41
373.42	669.39
373.62	587.47
373.81	662.37
374.01	706.84
374.21	540.66
374.40	692.80
374.60	662.37
374.79	706.84
374.99	653.01
375.19	641.31
375.38	713.86
375.58	650.67
375.78	669.39
375.97	657.69
376.17	746.63
376.37	564.07
376.56	643.65
376.76	739.61
376.95	599.18
377.15	662.37
377.35	676.41
377.54	681.10
377.74	704.50
377.93	664.71
378.13	685.78
378.33	791.10
378.52	823.87
378.72	767.70
378.91	662.37
379.11	692.80
379.31	690.46
379.50	624.92
379.70	697.48
379.89	772.38
380.09	660.03
380.28	664.71
380.48	800.46
380.68	730.25
380.87	748.97
381.07	784.08
381.26	835.57
381.46	727.91
381.65	723.23
381.85	788.76
382.04	753.65
382.24	861.32
382.43	770.04
382.63	763.01
382.83	746.63
383.02	767.70
383.22	854.30
383.41	751.31
383.61	802.80
383.80	849.61
384.00	793.44
384.19	697.48
384.39	800.46
384.58	826.21
384.78	753.65
384.97	919.83
385.17	851.96
385.36	842.59
385.56	842.59
385.75	823.87
385.95	915.15
386.14	828.55
386.34	866.00
386.53	887.06
386.72	889.40
386.92	936.21
387.11	887.06
387.31	847.27
387.50	931.53
387.70	866.00
387.89	971.32
388.09	891.74
388.28	933.87
388.48	856.64
388.67	1020.47
388.86	985.37
389.06	835.57
389.25	964.30
389.45	894.08
389.64	922.17
389.84	950.26
390.03	1004.09
390.22	980.68
390.42	952.60
390.61	1018.13
390.81	954.94
391.00	964.30
391.19	950.26
391.39	1060.26
391.58	1029.84
391.78	1050.90
391.97	1034.52
392.16	1057.92
392.36	1067.28
392.55	976.00
392.75	1090.69
392.94	1036.86
393.13	1078.99
393.33	1043.88
393.52	1046.22
393.71	1097.71
393.91	1011.11
394.10	1107.07
394.29	1109.41
394.49	1095.37
394.68	1076.65
394.88	1142.18
395.07	1139.84
395.26	1095.37
395.46	1111.75
395.65	1158.57
395.84	1181.97
396.04	1259.21
396.23	1151.54
396.42	1193.67
396.62	1224.10
396.81	1247.51
397.00	1210.06
397.19	1238.14
397.39	1165.59
397.58	1184.31
397.77	1261.55
397.97	1238.14
398.16	1240.48
398.35	1256.87
398.55	1296.66
398.74	1331.76
398.93	1371.55
399.12	1301.34
399.32	1270.91
399.51	1299.00
399.70	1409.00
399.90	1458.15
400.09	1310.70
400.28	1399.64
400.47	1362.19
400.67	1446.45
400.86	1411.34
401.05	1401.98
401.24	1420.71
401.44	1366.87
401.63	1469.86
401.82	1523.69
402.01	1394.96
402.21	1453.47
402.40	1502.62
402.59	1500.28
402.78	1507.30
402.97	1544.75
403.17	1596.25
403.36	1610.29
403.55	1542.41
403.74	1565.82
403.93	1626.67
404.13	1605.61
404.32	1502.62
404.51	1636.03
404.70	1612.63
404.89	1603.27
405.09	1781.15
405.28	1764.76
405.47	1577.52
405.66	1668.80
405.85	1790.51
406.05	1710.93
406.24	1755.40
406.43	1764.76
406.62	1802.21
406.81	1870.09
407.00	1809.23
407.20	1739.02
407.39	1832.64
407.58	1893.49
407.77	1811.57
407.96	1912.22
408.15	1888.81
408.34	1952.01
408.54	1893.49
408.73	1813.92
408.92	1935.62
409.11	1989.46
409.30	2059.67
409.49	2010.52
409.68	1968.39
409.87	2059.67
410.07	2132.23
410.26	2108.82
410.45	2193.08
410.64	2076.06
410.83	1994.14
411.02	2090.10
411.21	2174.36
411.40	2106.48
411.59	2174.36
411.78	2092.44
411.98	2167.34
412.17	2207.13
412.36	2319.47
412.55	2319.47
412.74	2289.04
412.93	2368.62
413.12	2272.66
413.31	2537.14
413.50	2396.71
413.69	2401.39
413.88	2485.65
414.07	2413.09
414.26	2495.01
414.45	2518.42
414.64	2621.40
414.83	2487.99
415.02	2443.52
415.22	2682.25
415.41	2696.30
415.60	2682.25
415.79	2626.08
415.98	2724.38
416.17	2785.24
416.36	2705.66
416.55	2705.66
416.74	2752.47
416.93	2935.03
417.12	2773.53
417.31	2885.88
417.50	2825.03
417.69	2970.14
417.88	2986.52
418.07	2977.16
418.26	3066.10
418.45	2932.69
418.64	3108.23
418.83	2965.46
419.02	3082.49
419.21	3138.66
419.39	3126.96
419.58	3122.27
419.77	3045.04
419.96	3112.91
420.15	3005.25
420.34	3117.59
420.53	3105.89
420.72	3351.65
420.91	3258.03
421.10	3342.28
421.29	3295.47
421.48	3213.56
421.67	3410.16
421.86	3253.34
422.05	3215.90
422.24	3323.56
422.43	3407.82
422.61	3382.07
422.80	3524.85
422.99	3337.60
423.18	3318.88
423.37	3485.06
423.56	3578.68
423.75	3494.42
423.94	3286.11
424.13	3213.56
424.32	3234.62
424.50	3438.25
424.69	3482.72
424.88	3562.30
425.07	3442.93
425.26	3337.60
425.45	3421.86
425.64	3375.05
425.83	3400.80
426.01	3583.36
426.20	3492.08
426.39	3473.36
426.58	3489.74
426.77	3499.10
426.96	3499.10
427.15	3499.10
427.33	3634.85
427.52	3676.98
427.71	3721.45
427.90	3574.00
428.09	3625.49
428.28	3662.94
428.46	3688.68
428.65	3765.92
428.84	3997.64
429.03	3723.79
429.22	3630.17
429.40	3885.29
429.59	3819.75
429.78	3824.44
429.97	3735.50
430.16	3822.09
430.34	3810.39
430.53	3805.71
430.72	3882.95
430.91	3901.67
431.10	3852.52
431.28	3918.06
431.47	4063.17
431.66	4147.43
431.85	4046.79
432.03	4086.58
432.22	4180.20
432.41	4088.92
432.60	3953.16
432.79	4053.81
432.97	4140.41
433.16	4086.58
433.35	4065.51
433.54	4280.84
433.72	4252.75
433.91	4205.94
434.10	4194.24
434.28	4227.01
434.47	4360.42
434.66	4184.88
434.85	4313.61
435.03	4292.54
435.22	4243.39
435.41	4510.21
435.59	4528.94
435.78	4449.36
435.97	4367.44
436.16	4451.70
436.34	4582.77
436.53	4456.38
436.72	4470.42
436.90	4559.36
437.09	4535.96
437.28	4498.51
437.46	4575.75
437.65	4519.57
437.84	4690.43
438.02	4648.30
438.21	4697.46
438.40	4596.81
438.58	4835.55
438.77	4732.56
438.96	4795.76
439.14	4849.59
439.33	4933.85
439.52	4933.85
439.70	4950.23
439.89	5170.24
440.08	5064.92
440.26	5013.43
440.45	5125.77
440.63	5135.14
440.82	5231.10
441.01	5273.23
441.19	5181.95
441.38	5259.18
441.57	5210.03
441.75	5392.59
441.94	5394.93
442.12	5348.12
442.31	5371.53
442.50	5483.88
442.68	5390.25
442.87	5579.84
443.05	5476.85
443.24	5582.18
443.43	5650.05
443.61	5521.32
443.80	5727.29
443.98	5568.13
444.17	5434.72
444.35	5551.75
444.54	5668.78
444.73	5600.90
444.91	5617.29
445.10	5729.63
445.28	5598.56
445.47	5621.97
445.65	5757.72
445.84	5811.55
446.02	5755.38
446.21	5757.72
446.39	5628.99
446.58	6012.84
446.77	5853.68
446.95	5586.86
447.14	5902.83
447.32	5846.66
447.51	5776.44
447.69	5776.44
447.88	5830.27
448.06	5856.02
448.25	5872.40
448.43	5860.70
448.62	5888.79
448.80	5975.39
448.99	5975.39
449.17	6015.18
449.36	5771.76
449.54	5975.39
449.73	6120.50
449.91	6267.95
450.10	6017.52
450.28	6061.99
450.46	6104.12
450.65	6270.30
450.83	6169.65
451.02	6033.90
451.20	6232.85
451.39	6139.23
451.57	6193.06
451.76	6242.21
451.94	6335.83
452.13	6413.07
452.31	6345.19
452.49	6272.64
452.68	6415.41
452.86	6338.17
453.05	6434.13
453.23	6408.39
453.42	6244.55
453.60	6403.71
453.78	6314.77
453.97	6389.66
454.15	6473.92
454.34	6675.21
454.52	6551.16
454.70	6527.75
454.89	6668.19
455.07	6698.61
455.26	6649.46
455.44	6846.07
455.62	6846.07
455.81	6647.12
455.99	6820.32
456.17	6857.77
456.36	6789.89
456.54	6949.05
456.73	6902.24
456.91	7042.67
457.09	6993.52
457.28	7052.03
457.46	6839.05
457.64	7173.74
457.83	7119.91
458.01	6981.82
458.19	7201.83
458.38	6925.65
458.56	7281.41
458.74	7328.22
458.93	7274.38
459.11	7382.05
459.29	7370.35
459.48	7269.70
459.66	7157.36
459.84	7253.32
460.03	7421.84
460.21	7496.74
460.39	7536.52
460.57	7494.40
460.76	7442.90
460.94	7531.84
461.12	7665.25
461.31	7573.97
461.49	7508.44
461.67	7571.63
461.85	7571.63
462.04	7524.82
462.22	8173.15
462.40	7702.70
462.59	7714.41
462.77	7796.32
462.95	7953.14
463.13	7850.16
463.32	7810.37
463.50	7868.88
463.68	7885.26
463.86	7922.71
464.05	7988.25
464.23	7901.65
464.41	8098.25
464.59	7819.73
464.78	7981.23
464.96	7932.08
465.14	7974.21
465.32	8093.57
465.50	8067.83
465.69	8245.71
465.87	8339.33
466.05	8119.32
466.23	8264.43
466.41	8154.43
466.60	8414.23
466.78	8325.29
466.96	8416.57
467.14	8201.24
467.32	8187.19
467.51	8339.33
467.69	8224.64
467.87	8306.56
468.05	8407.20
468.23	8304.22
468.41	8446.99
468.60	8575.72
468.78	8575.72
468.96	8573.38
469.14	8477.42
469.32	8711.47
469.50	8404.86
469.69	8580.40
469.87	8699.77
470.05	8772.33
470.23	9097.66
470.41	8795.73
470.59	8788.71
470.77	8828.50
470.95	8910.42
471.14	9184.26
471.32	9020.42
471.50	9107.02
471.68	9137.45
471.86	9092.98
472.04	9249.80
472.22	9181.92
472.40	9123.41
472.58	9277.88
472.77	9418.32
472.95	9462.79
473.13	9844.29
473.31	9240.44
473.49	9561.09
473.67	9537.68
473.85	9483.85
474.03	9680.46
474.21	9884.08
474.39	9919.19
474.57	10129.84
474.75	10064.30
474.93	9926.21
475.12	10083.03
475.30	10232.82
475.48	10174.31
475.66	10300.70
475.84	10305.38
476.02	10176.65
476.20	10216.44
476.38	10370.91
476.56	10562.84
476.74	10679.86
476.92	10579.22
477.10	10710.29
477.28	10752.42
477.46	10853.06
477.64	10972.43
477.82	11002.86
478.00	11248.61
478.18	11147.97
478.36	11337.56
478.54	11524.80
478.72	11438.20
478.90	11508.41
479.08	11604.38
479.26	11840.77
479.44	11768.21
479.62	11967.16
479.80	12039.72
479.98	12028.01
480.16	12327.60
480.34	12194.19
480.52	12301.86
480.70	12465.69
480.88	12215.26
481.06	12362.71
481.24	12493.78
481.41	12622.51
481.59	12872.95
481.77	12837.84
481.95	12917.42
482.13	13092.96
482.31	13242.75
482.49	13263.82
482.67	13348.08
482.85	13678.09
483.03	13809.16
483.21	13664.05
483.39	13706.18
483.57	13923.85
483.74	13870.01
483.92	14148.54
484.10	13994.06
484.28	14396.64
484.46	14427.06
484.64	14831.97
484.82	14523.02
485.00	14761.76
485.18	14972.41
485.35	15091.77
485.53	15014.54
485.71	15393.70
485.89	15543.50
486.07	15573.92
486.25	15440.51
486.43	15829.04
486.61	15962.45
486.78	15747.12
486.96	16074.80
487.14	16430.56
487.32	16409.50
487.50	16585.04
487.68	16428.22
487.85	16716.11
488.03	16968.88
488.21	17074.21
488.39	16931.44
488.57	17394.86
488.75	17305.92
488.92	17362.09
489.10	17741.26
489.28	17767.01
489.46	17888.71
489.64	17743.60
489.81	18352.14
489.99	18558.11
490.17	18391.93
490.35	18483.21
490.53	18654.07
490.70	19014.51
490.88	18764.07
491.06	18963.02
491.24	19087.07
491.41	19307.08
491.59	19606.67
491.77	19613.69
491.95	19651.14
492.13	19800.93
492.30	19889.87
492.48	19660.50
492.66	20013.92
492.84	20189.46
493.01	20374.36
493.19	20215.21
493.37	20652.89
493.54	20336.91
493.72	20765.23
493.90	20882.26
494.08	21041.42
494.25	21277.81
494.43	21259.09
494.61	21439.31
494.79	21825.50
494.96	21186.53
495.14	21378.45
495.32	21848.90
495.49	21982.31
495.67	21961.25
495.85	22272.54
496.02	22382.54
496.20	22410.63
496.38	22623.62
496.55	22785.12
496.73	23197.05
496.91	22801.50
497.09	22808.52
497.26	23065.98
497.44	23009.81
497.62	23269.61
497.79	23798.57
497.97	23288.33
498.14	23566.85
498.32	23709.63
498.50	23850.06
498.67	24444.56
498.85	23882.83
499.03	24414.13
499.20	24636.48
499.38	24313.48
499.56	24496.05
499.73	24451.58
499.91	24847.13
500.08	24957.13
500.26	24723.08
500.44	25123.31
500.61	25319.92
500.79	24788.61
500.97	25238.00
501.14	25802.07
501.32	25795.04
501.49	25249.70
501.67	25575.03
501.84	25757.60
502.02	25813.77
502.20	26075.91
502.37	25764.62
502.55	25937.82
502.72	26026.76
502.90	26033.78
503.07	26309.96
503.25	26384.86
503.43	25965.90
503.60	26745.30
503.78	26724.24
503.95	26742.96
504.13	26761.69
504.30	26672.74
504.48	26693.81
504.65	26897.44
504.83	27274.26
505.01	27475.55
505.18	27353.84
505.36	27721.30
505.53	27264.90
505.71	27803.22
505.88	27875.78
506.06	27227.45
506.23	27997.49
506.41	27892.16
506.58	27854.72
506.76	28105.15
506.93	28294.74
507.11	28215.16
507.28	28371.97
507.46	28596.67
507.63	27990.47
507.81	28683.27
507.98	28526.45
508.16	28528.79
508.33	28950.09
508.50	29062.43
508.68	28833.06
508.85	29085.84
509.03	29153.71
509.20	29326.91
509.38	29706.08
509.55	29415.85
509.73	29965.88
509.90	29841.83
510.08	29685.01
510.25	29642.88
510.42	30022.05
510.60	29729.48
510.77	30366.11
510.95	30188.23
511.12	29949.50
511.30	30258.45
511.47	30295.89
511.64	30178.87
511.82	30579.10
511.99	30522.93
512.17	30918.48
512.34	30382.49
512.51	31098.70
512.69	31047.21
512.86	31005.08
513.04	31161.89
513.21	31314.03
513.38	31419.35
513.56	31402.97
513.73	31133.81
513.90	31587.87
514.08	31227.43
514.25	31838.31
514.43	31910.86
514.60	31807.88
514.77	31669.79
514.95	31943.63
515.12	31826.60
515.29	32247.90
515.47	32156.62
515.64	32332.16
515.81	32041.93
515.99	32493.66
516.16	32573.24
516.33	32081.72
516.51	32390.67
516.68	32765.16
516.85	32889.21
517.03	32858.78
517.20	33027.30
517.37	33120.92
517.54	33127.94
517.72	33085.81
517.89	32912.61
518.06	33158.37
518.24	33312.84
518.41	33228.59
518.58	33692.01
518.75	33193.48
518.93	33589.03
519.10	33240.29
519.27	33336.25
519.45	34026.71
519.62	33982.24
519.79	34237.36
519.96	33919.04
520.14	34270.12
520.31	34220.97
520.48	34122.67
520.65	34066.50
520.83	35119.74
521.00	34494.82
521.17	34316.93
521.34	34672.70
521.52	34611.84
521.69	34679.72
521.86	34852.92
522.03	35061.22
522.20	35131.44
522.38	35812.54
522.55	35435.71
522.72	35110.38
522.89	35056.54
523.07	35784.45
523.24	35489.54
523.41	35571.46
523.58	35456.78
523.75	36013.82
523.92	35665.08
524.10	36009.14
524.27	36390.65
524.44	36039.57
524.61	35763.39
524.78	35894.46
524.96	36285.33
525.13	36360.22
525.30	36442.14
525.47	36545.12
525.64	36783.86
525.81	36542.78
525.98	36168.30
526.16	36683.22
526.33	36678.54
526.50	36662.15
526.67	36584.91
526.84	37174.73
527.01	37132.60
527.18	37041.32
527.36	36692.58
527.53	37067.06
527.70	37502.40
527.87	37680.28
528.04	36935.99
528.21	36945.36
528.38	37090.47
528.55	37500.06
528.72	37289.42
528.89	37361.97
529.07	37046.00
529.24	37186.43
529.41	37839.44
529.58	37825.40
529.75	37820.72
529.92	38132.01
530.09	37832.42
530.26	37846.46
530.43	38466.70
530.60	37731.78
530.77	38113.28
530.94	38532.24
531.11	38447.98
531.28	38167.12
531.46	38326.27
531.63	38508.83
531.80	38490.11
531.97	39068.22
532.14	38873.96
532.31	38522.88
532.48	38738.21
532.65	38972.26
532.82	38838.85
532.99	38686.71
533.16	38787.36
533.33	39250.78
533.50	39199.29
533.67	39257.81
533.84	38878.64
534.01	39047.16
534.18	39367.81
534.35	39374.83
534.52	39665.06
534.69	39611.23
534.86	39885.07
535.03	39278.87
535.20	39772.72
535.37	40243.17
535.54	39899.11
535.71	39861.66
535.88	40198.70
536.05	39976.35
536.22	40179.98
536.38	39571.44
536.55	39601.86
536.72	39564.42
536.89	39580.80
537.06	40201.04
537.23	40271.26
537.40	40062.95
537.57	39775.06
537.74	40135.51
537.91	40491.27
538.08	40907.88
538.25	40198.70
538.42	40275.94
538.59	40746.39
538.75	40528.72
538.92	40456.16
539.09	40968.74
539.26	40421.05
539.43	40912.56
539.60	40940.65
539.77	40957.03
539.94	41113.85
540.11	41116.19
540.28	41041.29
540.44	41212.15
540.61	41237.90
540.78	40854.05
540.95	40961.72
541.12	41155.98
541.29	41418.12
541.46	41127.89
541.62	41621.75
541.79	41544.51
541.96	41148.96
542.13	41624.09
542.30	41521.10
542.47	41649.83
542.63	42007.94
542.80	41785.58
542.97	42405.83
543.14	42024.32
543.31	41656.85
543.48	42230.29
543.64	42405.83
543.81	42206.88
543.98	42450.30
544.15	42157.73
544.32	42380.08
544.48	42745.20
544.65	42579.03
544.82	42731.16
544.99	42307.52
545.16	42768.61
545.32	42307.52
545.49	43342.04
545.66	43075.22
545.83	42768.61
546.00	43194.59
546.16	43243.74
546.33	42941.81
546.50	42649.24
546.67	43508.22
546.83	42506.47
547.00	42976.92
547.17	42871.59
547.34	43505.88
547.50	43484.81
547.67	43475.45
547.84	43461.41
548.00	43477.79
548.17	43835.89
548.34	43660.35
548.51	43997.39
548.67	43723.55
548.84	43929.51
549.01	43260.12
549.18	43693.12
549.34	43615.88
549.51	43835.89
549.68	43646.31
549.84	43690.78
550.01	43742.27
550.18	44006.75
550.34	43742.27
550.51	44280.60
550.68	44088.67
550.84	43899.09
551.01	44053.56
551.18	44006.75
551.34	44079.31
551.51	44121.44
551.68	43761.00
551.84	44495.92
552.01	44027.82
552.18	44360.17
552.34	44133.14
552.51	44456.14
552.68	44044.20
552.84	44041.86
553.01	44807.22
553.18	44404.64
553.34	44423.37
553.51	44786.15
553.67	44851.69
553.84	44559.12
554.01	44701.89
554.17	44528.69
554.34	45195.74
554.51	45151.27
554.67	44935.95
554.84	44882.11
555.00	45024.89
555.17	45113.83
555.33	44900.84
555.50	45118.51
555.67	44933.60
555.83	45282.34
556.00	45212.13
556.16	45621.72
556.33	45090.42
556.50	45375.97
556.66	44914.88
556.83	45170.00
556.99	45530.44
557.16	45312.77
557.32	45448.52
557.49	45577.25
557.65	45022.54
557.82	45303.41
557.98	45345.54
558.15	45846.41
558.32	45724.71
558.48	45525.76
558.65	45282.34
558.81	45497.67
558.98	45427.46
559.14	45352.56
559.31	45879.18
559.47	45418.10
559.64	45661.51
559.80	45794.92
559.97	45902.59
560.13	45350.22
560.30	45834.71
560.46	45570.23
560.63	46057.06
560.79	46309.84
560.96	46160.05
561.12	46237.28
561.29	46115.58
561.45	46024.29
561.61	46478.36
561.78	46146.00
561.94	45830.03
562.11	46014.93
562.27	45876.84
562.44	46021.95
562.60	46124.94
562.77	46241.96
562.93	45956.42
563.10	46412.82
563.26	46028.98
563.42	46188.13
563.59	46263.03
563.75	46230.26
563.92	46066.42
564.08	46440.91
564.24	46396.44
564.41	45977.48
564.57	46403.46
564.74	46480.70
564.90	46089.83
565.07	45930.67
565.23	46679.64
565.39	46227.92
565.56	46335.59
565.72	46323.88
565.88	46396.44
566.05	46665.60
566.21	46677.30
566.38	46190.47
566.54	47332.65
566.70	46925.40
566.87	46986.25
567.03	46508.79
567.19	47119.66
567.36	46422.19
567.52	47105.62
567.68	46934.76
567.85	46962.85
568.01	46885.61
568.17	46616.45
568.34	46665.60
568.50	46930.08
568.66	47065.83
568.83	46705.39
568.99	46576.66
569.15	47126.69
569.32	46946.47
569.48	46763.90
569.64	46831.78
569.81	47241.37
569.97	46724.11
570.13	46761.56
570.30	46522.83
570.46	46658.58
570.62	47037.75
570.78	47026.04
570.95	46766.24
571.11	47276.48
571.27	47330.31
571.43	46845.82
571.60	46979.23
571.76	46445.59
571.92	47210.95
572.09	47103.28
572.25	47276.48
572.41	46944.12
572.57	46733.48
572.74	47613.52
572.90	47288.18
573.06	47435.64
573.22	47419.25
573.38	47182.86
573.55	47419.25
573.71	47466.06
573.87	47414.57
574.03	47363.08
574.20	47522.24
574.36	47377.12
574.52	47643.94
574.68	47423.93
574.84	47519.90
575.01	47281.16
575.17	47445.00
575.33	47140.73
575.49	47119.66
575.65	47625.22
575.82	47250.74
575.98	47199.24
576.14	47608.84
576.30	47716.50
576.46	47358.40
576.62	47215.63
576.79	47103.28
576.95	46717.09
577.11	47269.46
577.27	47665.01
577.43	47503.51
577.59	47571.39
577.75	47262.44
577.92	47281.16
578.08	47248.39
578.24	47281.16
578.40	47676.71
578.56	48102.69
578.72	47533.94
578.88	47789.06
579.04	47295.21
579.21	47620.54
579.37	47555.00
579.53	47672.03
579.69	47566.71
579.85	47824.17
580.01	47388.83
580.17	47393.51
580.33	47601.82
580.49	47452.02
580.65	47608.84
580.82	47676.71
580.98	47606.50
581.14	47260.10
581.30	47885.02
581.46	47327.97
581.62	46892.63
581.78	47316.27
581.94	47805.44
582.10	47119.66
582.26	47728.20
582.42	47903.74
582.58	47798.42
582.74	47948.21
582.90	47732.89
583.06	47852.25
583.22	47491.81
583.38	47681.39
583.54	47395.85
583.70	47730.54
583.86	47430.96
584.02	47332.65
584.18	48004.39
584.34	47934.17
584.50	47934.17
584.66	48100.35
584.82	47613.52
584.98	47873.32
585.14	47744.59
585.30	47964.60
585.46	48119.07
585.62	47669.69
585.78	47826.51
585.94	47332.65
586.10	47976.30
586.26	47337.33
586.42	47901.40
586.58	48009.07
586.74	47896.72
586.90	47412.23
587.06	47592.45
587.22	47892.04
587.38	47641.60
587.54	47938.85
587.70	48048.86
587.86	47899.06
588.02	47657.99
588.18	47550.32
588.34	47800.76
588.49	48020.77
588.65	47765.65
588.81	47686.07
588.97	47845.23
589.13	47580.75
589.29	47540.96
589.45	48444.41
589.61	48037.16
589.77	47786.72
589.93	48002.05
590.08	48652.72
590.24	48477.18
590.40	48584.84
590.56	48289.93
590.72	48182.27
590.88	47927.15
591.04	48062.90
591.20	47983.32
591.35	48395.26
591.51	48687.82
591.67	48374.19
591.83	48266.53
591.99	48266.53
592.15	48247.80
592.31	48540.37
592.46	48257.17
592.62	48484.20
592.78	48334.40
592.94	48706.55
593.10	48502.92
593.26	48229.08
593.41	48170.57
593.57	48343.77
593.73	48655.06
593.89	48694.85
594.05	49066.99
594.20	48210.35
594.36	49146.57
594.52	48217.38
594.68	48453.77
594.84	48163.54
594.99	48818.89
595.15	48257.17
595.31	48641.01
595.47	48453.77
595.62	48421.00
595.78	48406.96
595.94	48416.32
596.10	48374.19
596.25	48460.79
596.41	48736.98
596.57	48229.08
596.73	48825.92
596.88	48547.39
597.04	48514.62
597.20	48718.25
597.36	48528.67
597.51	48736.98
597.67	48767.40
597.83	48329.72
597.99	48594.20
598.14	48460.79
598.30	48690.16
598.46	48928.90
598.61	48715.91
598.77	48355.47
598.93	48790.81
599.09	48846.98
599.24	48893.79
599.40	48718.25
599.56	48685.48
599.71	48933.58
599.87	49034.22
600.03	49015.50
600.18	48933.58
600.34	48308.66
600.50	48720.59
600.65	48741.66
600.81	48842.30
600.97	48856.34
601.12	48999.12
601.28	48699.53
601.44	48498.24
601.59	48676.12
601.75	48444.41
601.91	48729.95
602.06	48722.93
602.22	48872.73
602.37	48809.53
602.53	48779.10
602.69	48690.16
602.84	48545.05
603.00	48633.99
603.16	48582.50
603.31	48318.02
603.47	48802.51
603.62	48772.08
603.78	48973.37
603.94	48479.52
604.09	48603.56
604.25	48648.03
604.40	48112.05
604.56	48669.10
604.71	49167.63
604.87	48392.92
605.03	48432.71
605.18	48498.24
605.34	48589.52
605.49	48374.19
605.65	48367.17
605.80	48247.80
605.96	48858.68
606.12	48231.42
606.27	48526.33
606.43	48591.86
606.58	48610.59
606.74	48491.22
606.89	48168.22
607.05	48868.05
607.20	48856.34
607.36	48685.48
607.51	48650.38
607.67	48678.46
607.82	48512.28
607.98	48542.71
608.13	48205.67
608.29	48182.27
608.44	48687.82
608.60	48563.78
608.75	48584.84
608.91	48465.47
609.06	48154.18
609.22	48645.69
609.37	48292.27
609.53	48327.38
609.68	48500.58
609.84	48210.35
609.99	48470.15
610.15	48156.52
610.30	48222.06
610.46	48406.96
610.61	48566.12
610.76	48313.34
610.92	48034.81
611.07	48116.73
611.23	48055.88
611.38	47995.03
611.54	48432.71
611.69	48505.26
611.84	48219.72
612.00	48357.81
612.15	48343.77
612.31	48280.57
612.46	48041.84
612.62	48186.95
612.77	48229.08
612.92	48399.94
613.08	47775.02
613.23	47833.53
613.39	48095.67
613.54	47711.82
613.69	48018.43
613.85	47988.00
614.00	47756.29
614.15	47920.13
614.31	47962.26
614.46	47807.78
614.62	47929.49
614.77	47723.52
614.92	47931.83
615.08	47714.16
615.23	48175.25
615.38	47971.62
615.54	48072.26
615.69	47908.43
615.84	47976.30
616.00	48039.50
616.15	47882.68
616.30	47718.84
616.46	47625.22
616.61	47562.03
616.76	47936.51
616.92	47585.43
617.07	47742.25
617.22	47566.71
617.37	47208.61
617.53	47793.74
617.68	47445.00
617.83	47152.43
617.99	47763.31
618.14	47819.49
618.29	47379.46
618.45	47194.56
618.60	47220.31
618.75	47002.64
618.90	47384.15
619.06	47615.86
619.21	47463.72
619.36	47533.94
619.51	47405.21
619.67	47122.01
619.82	47435.64
619.97	47407.55
620.12	47241.37
620.28	47199.24
620.43	47650.97
620.58	47377.12
620.73	47840.55
620.89	47213.29
621.04	47330.31
621.19	47262.44
621.34	47452.02
621.49	47393.51
621.65	47114.98
621.80	47164.14
621.95	47278.82
622.10	47138.39
622.25	46983.91
622.41	47086.90
622.56	47318.61
622.71	46843.48
622.86	47189.88
623.01	47402.87
623.16	46827.10
623.32	47246.05
623.47	47283.50
623.62	47075.19
623.77	46909.02
623.92	47100.94
624.07	46967.53
624.23	47016.68
624.38	47461.38
624.53	47061.15
624.68	46593.04
624.83	46836.46
624.98	46990.94
625.13	46422.19
625.29	46529.85
625.44	46766.24
625.59	46450.27
625.74	46780.29
625.89	45963.44
626.04	46316.86
626.19	46799.01
626.34	46258.35
626.49	46220.90
626.65	46143.66
626.80	46719.43
626.95	46061.74
627.10	46237.28
627.25	46590.70
627.40	46232.60
627.55	46277.07
627.70	46396.44
627.85	46391.76
628.00	46021.95
628.15	46492.40
628.30	45509.38
628.45	45897.91
628.60	45439.16
628.76	46265.37
628.91	46066.42
629.06	45710.66
629.21	45750.45
629.36	45841.73
629.51	45804.28
629.66	46178.77
629.81	45972.80
629.96	46103.87
630.11	45890.88
630.26	45673.21
630.41	45757.47
630.56	45705.98
630.71	45713.00
630.86	45780.88
631.01	45474.27
631.16	45951.74
631.31	45610.02
631.46	45535.12
631.61	45738.75
631.76	45780.88
631.91	45406.39
632.06	45797.26
632.21	46003.23
632.36	45813.65
632.51	45453.20
632.66	45492.99
632.81	45504.70
632.96	45518.74
633.10	45619.38
633.25	45441.50
633.40	45624.06
633.55	45923.65
633.70	45567.89
633.85	45258.94
634.00	45111.49
634.15	45228.51
634.30	45188.72
634.45	44996.80
634.60	45284.68
634.75	45684.92
634.90	45429.80
635.05	45432.14
635.19	45312.77
635.34	45153.62
635.49	44690.19
635.64	45031.91
635.79	45380.65
635.94	45055.31
636.09	44921.90
636.24	44985.10
636.39	45275.32
636.53	45127.87
636.68	44907.86
636.83	44788.49
636.98	44509.97
637.13	44566.14
637.28	44598.91
637.43	44636.36
637.57	44718.28
637.72	44460.82
637.87	45017.86
638.02	45013.18
638.17	44402.30
638.32	44568.48
638.46	44151.87
638.61	44112.08
638.76	44093.35
638.91	44617.63
639.06	43739.93
639.20	43981.01
639.35	44350.81
639.50	44498.26
639.65	44264.21
639.80	44343.79
639.94	44388.26
640.09	44568.48
640.24	44414.01
640.39	44266.55
640.54	43688.44
640.68	44346.13
640.83	44418.69
640.98	43725.89
641.13	43973.98
641.27	44463.16
641.42	43959.94
641.57	44584.86
641.72	44229.10
641.86	44039.52
642.01	43999.73
642.16	44006.75
642.31	43576.09
642.45	44032.50
642.60	43629.93
642.75	43812.49
642.90	44304.00
643.04	43646.31
643.19	43484.81
643.34	43290.55
643.48	43328.00
643.63	43388.85
643.78	43456.73
643.93	43920.15
644.07	43973.98
644.22	43894.41
644.37	43398.21
644.51	43564.39
644.66	43330.34
644.81	43400.55
644.95	43330.34
645.10	43239.06
645.25	43112.67
645.39	43089.26
645.54	43494.18
645.69	43000.32
645.83	43056.50
645.98	43054.15
646.13	43299.91
646.27	43299.91
646.42	42827.12
646.57	43339.70
646.71	43618.22
646.86	43461.41
647.00	43091.60
647.15	43365.45
647.30	43189.91
647.44	43253.10
647.59	43234.38
647.74	42976.92
647.88	42831.80
648.03	43260.12
648.17	43419.28
648.32	43187.56
648.47	43077.56
648.61	42792.01
648.76	42986.28
648.90	42923.08
649.05	42731.16
649.20	42733.50
649.34	42796.70
649.49	42717.12
649.63	43161.82
649.78	42679.67
649.92	42941.81
650.07	43208.63
650.21	42794.36
650.36	42848.19
650.51	42632.86
650.65	42981.60
650.80	42981.60
650.94	42749.88
651.09	42700.73
651.23	41801.97
651.38	42370.72
651.52	42249.01
651.67	42501.79
651.81	42195.18
651.96	42344.97
652.10	42202.20
652.25	42405.83
652.39	42452.64
652.54	42485.40
652.68	41738.77
652.83	42195.18
652.97	42340.29
653.12	41799.63
653.26	42052.41
653.41	41904.95
653.55	42003.25
653.70	42139.00
653.84	42513.49
653.99	42447.96
654.13	42246.67
654.27	41872.18
654.42	41806.65
654.56	41820.69
654.71	41874.52
654.85	42000.91
655.00	42031.34
655.14	41954.10
655.29	41677.92
655.43	42265.39
655.57	41867.50
655.72	41205.13
655.86	41394.71
656.01	41584.30
656.15	41298.75
656.30	41567.91
656.44	41647.49
656.58	41830.05
656.73	41680.26
656.87	41212.15
657.01	41214.49
657.16	41155.98
657.30	41546.85
657.45	40996.82
657.59	41099.81
657.73	40980.44
657.88	41104.49
658.02	41638.13
658.16	41729.41
658.31	41177.04
658.45	41457.91
658.60	41050.66
658.74	41139.60
658.88	40863.41
659.03	41010.87
659.17	41027.25
659.31	40758.09
659.46	40285.30
659.60	41291.73
659.74	40746.39
659.89	40130.83
660.03	40421.05
660.17	40629.36
660.32	40217.43
660.46	40287.64
660.60	40287.64
660.74	40229.13
660.89	40437.44
661.03	40275.94
661.17	39828.90
661.32	39854.64
661.46	40219.77
661.60	39927.20
661.74	40086.36
661.89	39922.52
662.03	39988.05
662.17	39440.37
662.31	39962.31
662.46	39625.27
662.60	39356.11
662.74	39426.32
662.88	39770.38
663.03	39154.82
663.17	39423.98
663.31	38993.32
663.45	39468.45
663.60	39512.92
663.74	39466.11
663.88	39608.89
664.02	38981.62
664.17	39711.87
664.31	39218.02
664.45	39023.75
664.59	39576.12
664.73	38721.82
664.88	39054.18
665.02	38518.20
665.16	38721.82
665.30	39117.37
665.44	38504.15
665.59	38391.81
665.73	38333.29
665.87	38380.10
666.01	38373.08
666.15	38504.15
666.29	38157.75
666.44	38293.50
666.58	38424.57
666.72	38019.66
666.86	38499.47
667.00	38087.54
667.14	38080.52
667.28	37820.72
667.43	38190.52
667.57	38134.35
667.71	38085.20
667.85	38057.11
667.99	38183.50
668.13	37486.02
668.27	37305.80
668.41	37738.80
668.56	36914.93
668.70	37167.71
668.84	37099.83
668.98	36704.28
669.12	37083.45
669.26	36807.26
669.40	37308.14
669.54	37085.79
669.68	37081.11
669.82	37081.11
669.96	36570.87
670.10	36439.80
670.25	36652.79
670.39	36643.43
670.53	36488.95
670.67	36318.09
670.81	36935.99
670.95	36591.94
671.09	36189.36
671.23	36046.59
671.37	36474.91
671.51	36114.47
671.65	35910.84
671.79	35988.08
671.93	35700.19
672.07	36034.89
672.21	35903.82
672.35	35435.71
672.49	35768.07
672.63	35913.18
672.77	35124.42
672.91	35438.05
673.05	35159.53
673.19	35344.43
673.33	35225.06
673.47	34792.06
673.61	34883.34
673.75	34953.56
673.89	34960.58
674.03	34829.51
674.17	34508.86
674.31	34134.37
674.45	33802.02
674.59	34565.03
674.73	34754.61
674.87	33902.66
675.01	33926.07
675.15	33333.91
675.29	33652.22
675.43	33956.49
675.56	34019.69
675.70	34050.11
675.84	33621.80
675.98	32823.67
676.12	33656.90
676.26	33530.51
676.40	33567.96
676.54	33443.91
676.68	33289.44
676.82	32268.97
676.96	33074.11
677.10	33235.61
677.23	32914.95
677.37	32872.82
677.51	32411.74
677.65	32329.82
677.79	32388.33
677.93	32285.35
678.07	32063.00
678.21	31978.74
678.34	31899.16
678.48	31484.89
678.62	31562.12
678.76	31964.70
678.90	31559.78
679.04	31438.08
679.18	31714.26
679.31	31344.45
679.45	30831.88
679.59	31220.41
679.73	31330.41
679.87	30672.72
680.00	31033.16
680.14	30892.73
680.28	31166.57
680.42	30937.20
680.56	29998.65
680.70	30209.29
680.83	30012.69
680.97	29841.83
681.11	29928.43
681.25	30031.41
681.39	29727.14
681.52	29961.20
681.66	29287.12
681.80	28985.19
681.94	28999.24
682.07	29291.80
682.21	29268.40
682.35	29029.66
682.49	28994.56
682.62	29010.94
682.76	29003.92
682.90	29032.00
683.04	28835.40
683.17	29020.30
683.31	28570.92
683.45	28114.52
683.59	28177.71
683.72	28013.87
683.86	27857.06
684.00	27917.91
684.13	27868.76
684.27	27442.78
684.41	27777.48
684.55	27770.46
684.68	27264.90
684.82	27206.39
684.96	26932.54
685.09	27428.74
685.23	27449.80
685.37	27660.45
685.50	27103.40
685.64	27173.62
685.78	27065.96
685.91	26246.77
686.05	26572.10
686.19	26300.60
686.32	26277.19
686.46	26202.30
686.60	25813.77
686.73	26022.08
686.87	25942.50
687.01	25909.73
687.14	25855.90
687.28	25511.84
687.42	25724.83
687.55	25118.63
687.69	25427.58
687.82	25439.28
687.96	25130.33
688.10	25106.93
688.23	24992.24
688.37	25060.12
688.50	25235.66
688.64	24685.63
688.78	24987.56
688.91	24599.03
689.05	24617.75
689.18	24112.20
689.32	24091.13
689.46	23723.67
689.59	23955.38
689.73	24325.19
689.86	24004.53
690.00	24002.19
690.13	23974.11
690.27	23786.86
690.41	23616.01
690.54	23461.53
690.68	23197.05
690.81	23030.87
690.95	22967.68
691.08	23012.15
691.22	22899.80
691.35	22794.48
691.49	22764.05
691.62	22815.54
691.76	22490.21
691.89	22494.89
692.03	22260.84
692.16	22204.66
692.30	22054.87
692.43	22052.53
692.57	21905.07
692.70	21811.45
692.84	21928.48
692.97	21460.37
693.11	21750.60
693.24	21479.10
693.38	21064.82
693.51	21053.12
693.65	21275.47
693.78	21413.56
693.92	21362.07
694.05	20973.54
694.19	20891.62
694.32	20664.59
694.45	21156.10
694.59	21001.63
694.72	20805.02
694.86	20769.91
694.99	20116.90
695.13	19985.83
695.26	20027.96
695.39	20013.92
695.53	20100.52
695.66	19871.15
695.80	19948.39
695.93	19594.96
696.07	19770.51
696.20	19077.71
696.33	19126.86
696.47	19311.76
696.60	19379.64
696.73	19499.00
696.87	19281.33
697.00	19248.57
697.14	18974.72
697.27	18665.77
697.40	18956.00
697.54	18799.18
697.67	18621.30
697.80	18647.05
697.94	18382.57
698.07	18207.03
698.21	18209.37
698.34	18366.18
698.47	17977.65
698.61	17685.09
698.74	17788.07
698.87	18085.32
699.01	17472.10
699.14	17460.40
699.27	17710.83
699.40	17532.95
699.54	17376.14
699.67	17469.76
699.80	17399.54
699.94	17177.19
700.07	17095.27
700.20	17025.06
700.34	16992.29
700.47	17069.53
700.60	17020.38
700.73	17001.65
700.87	16709.08
701.00	16374.39
701.13	16510.14
701.26	16468.01
701.40	16283.11
701.53	16194.17
701.66	16416.52
701.79	16025.65
701.93	15871.17
702.06	15723.72
702.19	15838.41
702.32	15946.07
702.46	15859.47
702.59	15892.24
702.72	15960.11
702.85	15695.63
702.99	15494.35
703.12	15229.87
703.25	14937.30
703.38	15295.40
703.51	14923.26
703.65	15021.56
703.78	14876.44
703.91	14874.10
704.04	14853.04
704.17	14677.50
704.31	14731.33
704.44	14462.17
704.57	14504.30
704.70	14647.07
704.83	14258.54
704.96	14153.22
705.10	14026.83
705.23	14153.22
>>>>>End Processed Spectral Data<<<<<
