SpectraSuite Data File
++++++++++++++++++++++++++++++++++++
Date: Fri Oct 25 11:34:33 EDT 2013
User: price-jones
Dark Spectrum Present: No
Reference Spectrum Present: No
Number of Sampled Component Spectra: 1
Spectrometers: USB2+H05261
Integration Time (usec): 100000 (USB2+H05261)
Spectra Averaged: 1 (USB2+H05261)
Boxcar Smoothing: 0 (USB2+H05261)
Correct for Electrical Dark: No (USB2+H05261)
Strobe/Lamp Enabled: No (USB2+H05261)
Correct for Detector Non-linearity: No (USB2+H05261)
Correct for Stray Light: No (USB2+H05261)
Number of Pixels in Processed Spectrum: 2048
>>>>>Begin Processed Spectral Data<<<<<
365.73	238.73
365.92	238.73
366.12	238.73
366.32	168.52
366.52	156.82
366.72	163.84
366.91	138.09
367.11	161.50
367.31	149.79
367.51	161.50
367.70	149.79
367.90	156.82
368.10	184.90
368.30	238.73
368.49	191.92
368.69	220.01
368.89	131.07
369.09	243.42
369.28	210.65
369.48	215.33
369.68	201.29
369.87	259.80
370.07	269.16
370.27	273.84
370.47	337.04
370.66	498.53
370.86	486.83
371.06	535.98
371.25	550.03
371.45	514.92
371.65	578.11
371.84	559.39
372.04	564.07
372.24	568.75
372.44	566.41
372.63	571.09
372.83	585.13
373.03	627.26
373.22	608.54
373.42	613.22
373.62	678.76
373.81	615.56
374.01	580.45
374.21	681.10
374.40	587.47
374.60	671.73
374.79	620.24
374.99	645.99
375.19	697.48
375.38	627.26
375.58	716.20
375.78	671.73
375.97	692.80
376.17	744.29
376.37	671.73
376.56	664.71
376.76	655.35
376.95	674.07
377.15	709.18
377.35	748.97
377.54	699.82
377.74	559.39
377.93	645.99
378.13	741.95
378.33	706.84
378.52	645.99
378.72	781.74
378.91	730.25
379.11	725.57
379.31	627.26
379.50	683.44
379.70	704.50
379.89	737.27
380.09	648.33
380.28	732.59
380.48	767.70
380.68	615.56
380.87	706.84
381.07	706.84
381.26	772.38
381.46	786.42
381.65	685.78
381.85	779.40
382.04	774.72
382.24	683.44
382.43	777.06
382.63	826.21
382.83	718.54
383.02	840.25
383.22	786.42
383.41	786.42
383.61	781.74
383.80	741.95
384.00	788.76
384.19	805.14
384.39	823.87
384.58	685.78
384.78	779.40
384.97	847.27
385.17	765.36
385.36	861.32
385.56	840.25
385.75	814.51
385.95	823.87
386.14	812.17
386.34	802.80
386.53	849.61
386.72	821.53
386.92	924.51
387.11	938.55
387.31	959.62
387.50	784.08
387.70	844.93
387.89	976.00
388.09	863.66
388.28	882.38
388.48	863.66
388.67	868.34
388.86	931.53
389.06	882.38
389.25	910.47
389.45	910.47
389.64	966.64
389.84	1025.15
390.03	980.68
390.22	950.26
390.42	1086.01
390.61	917.49
390.81	908.13
391.00	985.37
391.19	940.90
391.39	931.53
391.58	940.90
391.78	980.68
391.97	966.64
392.16	931.53
392.36	1064.94
392.55	1069.62
392.75	1034.52
392.94	1146.86
393.13	1004.09
393.33	945.58
393.52	994.73
393.71	1039.20
393.91	1011.11
394.10	1046.22
394.29	1048.56
394.49	1107.07
394.68	1088.35
394.88	1090.69
395.07	1088.35
395.26	1053.24
395.46	1057.92
395.65	1170.27
395.84	1114.10
396.04	1165.59
396.23	1214.74
396.42	1146.86
396.62	1160.91
396.81	1235.80
397.00	1172.61
397.19	1160.91
397.39	1177.29
397.58	1170.27
397.77	1153.88
397.97	1186.65
398.16	1249.85
398.35	1217.08
398.55	1198.35
398.74	1156.22
398.93	1252.19
399.12	1284.95
399.32	1203.04
399.51	1266.23
399.70	1329.42
399.90	1287.29
400.09	1306.02
400.28	1404.32
400.47	1322.40
400.67	1270.91
400.86	1413.68
401.05	1418.36
401.24	1390.28
401.44	1343.47
401.63	1390.28
401.82	1399.64
402.01	1465.18
402.21	1448.79
402.40	1401.98
402.59	1425.39
402.78	1411.34
402.97	1472.20
403.17	1504.96
403.36	1537.73
403.55	1614.97
403.74	1497.94
403.93	1486.24
404.13	1523.69
404.32	1624.33
404.51	1572.84
404.70	1661.78
404.89	1469.86
405.09	1530.71
405.28	1600.93
405.47	1500.28
405.66	1614.97
405.85	1547.09
406.05	1715.61
406.24	1652.42
406.43	1626.67
406.62	1734.34
406.81	1795.19
407.00	1689.87
407.20	1685.19
407.39	1685.19
407.58	1750.72
407.77	1699.23
407.96	1781.15
408.15	1776.47
408.34	1790.51
408.54	1853.70
408.73	1802.21
408.92	1905.20
409.11	1930.94
409.30	1935.62
409.49	1952.01
409.68	1973.07
409.87	1989.46
410.07	1984.77
410.26	1933.28
410.45	2012.86
410.64	1916.90
410.83	1937.96
411.02	2017.54
411.21	2076.06
411.40	2183.72
411.59	2085.42
411.78	2160.31
411.98	2153.29
412.17	2202.44
412.36	2246.91
412.55	2174.36
412.74	2246.91
412.93	2223.51
413.12	2272.66
413.31	2415.43
413.50	2333.51
413.69	2317.13
413.88	2410.75
414.07	2356.92
414.26	2317.13
414.45	2370.96
414.64	2485.65
414.83	2569.91
415.02	2532.46
415.22	2527.78
415.41	2539.48
415.60	2551.18
415.79	2647.15
415.98	2710.34
416.17	2614.38
416.36	2487.99
416.55	2619.06
416.74	2747.79
416.93	2740.77
417.12	2715.02
417.31	2689.28
417.50	2796.94
417.69	2808.64
417.88	2792.26
418.07	2904.60
418.26	2806.30
418.45	2792.26
418.64	2906.95
418.83	2825.03
419.02	2918.65
419.21	3028.65
419.39	3133.98
419.58	2930.35
419.77	2918.65
419.96	2998.23
420.15	3108.23
420.34	2979.50
420.53	3063.76
420.72	3073.12
420.91	3084.83
421.10	3164.40
421.29	3159.72
421.48	3122.27
421.67	3136.32
421.86	3082.49
422.05	3199.51
422.24	3276.75
422.43	3206.53
422.61	3276.75
422.80	3222.92
422.99	3201.85
423.18	3199.51
423.37	3335.26
423.56	3229.94
423.75	3286.11
423.94	3258.03
424.13	3084.83
424.32	3288.45
424.50	3424.20
424.69	3236.96
424.88	3377.39
425.07	3265.05
425.26	3222.92
425.45	3307.18
425.64	3297.81
425.83	3241.64
426.01	3454.63
426.20	3440.59
426.39	3286.11
426.58	3433.57
426.77	3375.05
426.96	3337.60
427.15	3274.41
427.33	3447.61
427.52	3412.50
427.71	3529.53
427.90	3471.01
428.09	3548.25
428.28	3559.95
428.46	3527.19
428.65	3536.55
428.84	3632.51
429.03	3655.92
429.22	3543.57
429.40	3592.72
429.59	3662.94
429.78	3496.76
429.97	3583.36
430.16	3707.41
430.34	3761.24
430.53	3695.71
430.72	3660.60
430.91	3740.18
431.10	3669.96
431.28	3826.78
431.47	3777.62
431.66	3775.28
431.85	3915.72
432.03	3850.18
432.22	3976.57
432.41	3836.14
432.60	3829.12
432.79	3983.59
432.97	4100.62
433.16	3992.95
433.35	3836.14
433.54	3964.87
433.72	3976.57
433.91	4042.11
434.10	4044.45
434.28	4093.60
434.47	4128.70
434.66	3981.25
434.85	4121.68
435.03	4194.24
435.22	4152.11
435.41	4156.79
435.59	4049.13
435.78	4205.94
435.97	4255.09
436.16	4168.49
436.34	4229.35
436.53	4269.14
436.72	4212.96
436.90	4236.37
437.09	4400.21
437.28	4301.90
437.46	4369.78
437.65	4423.61
437.84	4414.25
438.02	4334.67
438.21	4404.89
438.40	4358.08
438.58	4575.75
438.77	4535.96
438.96	4477.44
439.14	4648.30
439.33	4578.09
439.52	4727.88
439.70	4725.54
439.89	4767.67
440.08	4854.27
440.26	4802.78
440.45	4795.76
440.63	4882.36
440.82	5004.07
441.01	4784.06
441.19	4978.32
441.38	5156.20
441.57	5013.43
441.75	5085.98
441.94	5245.14
442.12	5261.52
442.31	5039.17
442.50	5188.97
442.68	5214.71
442.87	5163.22
443.05	5277.91
443.24	5174.92
443.43	5188.97
443.61	5345.78
443.80	5343.44
443.98	5275.57
444.17	5039.17
444.35	5444.09
444.54	5430.04
444.73	5371.53
444.91	5331.74
445.10	5434.72
445.28	5383.23
445.47	5420.68
445.65	5418.34
445.84	5483.88
446.02	5486.22
446.21	5448.77
446.39	5291.95
446.58	5537.71
446.77	5556.43
446.95	5406.64
447.14	5586.86
447.32	5563.45
447.51	5523.66
447.69	5554.09
447.88	5526.00
448.06	5645.37
448.25	5432.38
448.43	5584.52
448.62	5600.90
448.80	5647.71
448.99	5708.57
449.17	5654.73
449.36	5563.45
449.54	5572.82
449.73	5762.40
449.91	5809.21
450.10	5830.27
450.28	5743.67
450.46	5902.83
450.65	5968.37
450.83	5767.08
451.02	5699.20
451.20	6024.54
451.39	5870.06
451.57	6022.20
451.76	5909.85
451.94	5984.75
452.13	5905.17
452.31	5879.43
452.49	5898.15
452.68	6059.65
452.86	6087.73
453.05	5956.66
453.23	6211.78
453.42	6101.78
453.60	6017.52
453.78	6214.12
453.97	6087.73
454.15	6181.35
454.34	6106.46
454.52	6228.17
454.70	6349.87
454.89	6253.91
455.07	6342.85
455.26	6284.34
455.44	6401.37
455.62	6380.30
455.81	6303.06
455.99	6338.17
456.17	6506.69
456.36	6424.77
456.54	6434.13
456.73	6588.61
456.91	6780.53
457.09	6712.66
457.28	6925.65
457.46	6654.14
457.64	6918.62
457.83	6897.56
458.01	6754.79
458.19	6876.49
458.38	6832.02
458.56	6839.05
458.74	6829.68
458.93	6963.09
459.11	6799.26
459.29	6949.05
459.48	6963.09
459.66	7016.93
459.84	7089.48
460.03	7164.38
460.21	7084.80
460.39	7122.25
460.57	7155.02
460.76	7138.63
460.94	7307.15
461.12	7260.34
461.31	6970.12
461.49	7063.74
461.67	7213.53
461.85	7316.51
462.04	7302.47
462.22	7702.70
462.40	7412.48
462.59	7372.69
462.77	7426.52
462.95	7398.43
463.13	7428.86
463.32	7459.29
463.50	7496.74
463.68	7478.01
463.86	7616.10
464.05	7456.95
464.23	7337.58
464.41	7548.23
464.59	7641.85
464.78	7597.38
464.96	7637.17
465.14	7688.66
465.32	7630.15
465.50	7768.24
465.69	7831.43
465.87	7892.29
466.05	7815.05
466.23	7901.65
466.41	8002.29
466.60	8013.99
466.78	7801.01
466.96	7868.88
467.14	7850.16
467.32	8028.04
467.51	7943.78
467.69	7676.96
467.87	7995.27
468.05	8170.81
468.23	8173.15
468.41	7819.73
468.60	8053.78
468.78	8180.17
468.96	8105.28
469.14	8180.17
469.32	8208.26
469.50	8060.80
469.69	8212.94
469.87	8351.03
470.05	8194.22
470.23	8348.69
470.41	8475.08
470.59	8538.27
470.77	8479.76
470.95	8425.93
471.14	8631.90
471.32	8505.51
471.50	8547.64
471.68	8601.47
471.86	8507.85
472.04	8716.16
472.22	8837.86
472.40	8805.10
472.58	8786.37
472.77	8940.85
472.95	8952.55
473.13	9273.20
473.31	9142.13
473.49	8908.08
473.67	9057.87
473.85	9067.24
474.03	9404.27
474.21	9090.64
474.39	9282.56
474.57	9451.08
474.75	9423.00
474.93	9502.58
475.12	9291.93
475.30	9750.67
475.48	9528.32
475.66	9654.71
475.84	9397.25
476.02	9731.95
476.20	9734.29
476.38	9895.78
476.56	10167.29
476.74	9956.64
476.92	10026.86
477.10	9769.40
477.28	10267.93
477.46	10193.03
477.64	10382.62
477.82	10452.83
478.00	10581.56
478.18	10626.03
478.36	10450.49
478.54	10864.77
478.72	10691.57
478.90	10995.84
479.08	10934.98
479.26	11105.84
479.44	11000.52
479.62	11178.40
479.80	11398.41
479.98	11419.47
480.16	11744.81
480.34	11592.67
480.52	11723.74
480.70	11892.26
480.88	11723.74
481.06	11700.34
481.24	11803.32
481.41	12006.95
481.59	12332.28
481.77	12159.08
481.95	12273.77
482.13	12358.03
482.31	12414.20
482.49	12779.32
482.67	12805.07
482.85	12954.87
483.03	13083.59
483.21	13240.41
483.39	13235.73
483.57	12933.80
483.74	13163.17
483.92	13657.03
484.10	13406.59
484.28	13584.47
484.46	13682.77
484.64	13961.30
484.82	13717.88
485.00	14127.47
485.18	14162.58
485.35	14171.94
485.53	14265.57
485.71	14546.43
485.89	14810.91
486.07	14656.43
486.25	14864.74
486.43	14970.07
486.61	14913.89
486.78	15087.09
486.96	15150.29
487.14	15309.44
487.32	15201.78
487.50	15360.94
487.68	15644.14
487.85	15772.87
488.03	16035.01
488.21	16105.23
488.39	16278.43
488.57	16484.39
488.75	16332.26
488.92	16465.67
489.10	16645.89
489.28	16847.18
489.46	16950.16
489.64	16968.88
489.81	17364.43
489.99	17174.85
490.17	17256.77
490.35	17568.06
490.53	17436.99
490.70	17563.38
490.88	17682.75
491.06	18293.63
491.24	17919.14
491.41	18228.09
491.59	18415.34
491.77	18375.55
491.95	18565.13
492.13	18920.89
492.30	18567.47
492.48	18717.26
492.66	18977.06
492.84	19110.47
493.01	19173.67
493.19	19152.60
493.37	19316.44
493.54	19283.67
493.72	19749.44
493.90	19400.70
494.08	19672.20
494.25	19609.01
494.43	20152.01
494.61	20259.68
494.79	20294.79
494.96	20149.67
495.14	20355.64
495.32	20723.10
495.49	20821.41
495.67	20631.82
495.85	21078.86
496.02	20940.77
496.20	21303.56
496.38	21296.53
496.55	21380.79
496.73	21795.07
496.91	21603.14
497.09	22190.62
497.26	22003.38
497.44	21830.18
497.62	22059.55
497.79	22377.86
497.97	22309.99
498.14	22412.97
498.32	22696.17
498.50	22342.75
498.67	23063.64
498.85	22518.29
499.03	22911.50
499.20	22897.46
499.38	23073.00
499.56	23112.79
499.73	23257.90
499.91	23407.70
500.08	23449.83
500.26	23431.10
500.44	23702.61
500.61	23791.55
500.79	23611.32
500.97	23871.12
501.14	23995.17
501.32	23983.47
501.49	24002.19
501.67	24016.24
501.84	24467.96
502.02	24535.84
502.20	24336.89
502.37	24348.59
502.55	24343.91
502.72	24683.29
502.90	24631.80
503.07	24400.08
503.25	24933.73
503.43	24683.29
503.60	24903.30
503.78	25408.86
503.95	24985.22
504.13	25364.39
504.30	25481.41
504.48	25263.74
504.65	25617.16
504.83	25905.05
505.01	26242.09
505.18	25640.57
505.36	26075.91
505.53	26244.43
505.71	25928.45
505.88	25989.31
506.06	26225.70
506.23	26036.12
506.41	26139.10
506.58	26363.79
506.76	26497.20
506.93	26658.70
507.11	26817.86
507.28	26909.14
507.46	26810.84
507.63	26768.71
507.81	27360.86
507.98	26768.71
508.16	27339.80
508.33	27384.27
508.50	27161.92
508.68	27662.79
508.85	27606.62
509.03	27374.91
509.20	28027.92
509.38	28130.90
509.55	27840.67
509.73	27953.02
509.90	28025.57
510.08	28056.00
510.25	27955.36
510.42	27999.83
510.60	28238.56
510.77	28404.74
510.95	28493.68
511.12	28343.89
511.30	28634.11
511.47	28652.84
511.64	28283.03
511.82	29001.58
511.99	28559.22
512.17	28643.48
512.34	28980.51
512.51	29303.51
512.69	29577.35
512.86	29111.58
513.04	29610.12
513.21	29633.52
513.38	29640.54
513.56	29872.26
513.73	29329.25
513.90	29675.65
514.08	29811.40
514.25	30066.52
514.43	30075.88
514.60	30040.78
514.77	29975.24
514.95	30078.22
515.12	30293.55
515.29	30148.44
515.47	30602.50
515.64	30649.32
515.81	29970.56
515.99	30574.42
516.16	30895.07
516.33	30607.19
516.51	31054.23
516.68	30635.27
516.85	31124.44
517.03	31218.07
517.20	30703.15
517.37	31292.96
517.54	30937.20
517.72	31292.96
517.89	31274.24
518.06	31917.89
518.24	31496.59
518.41	31421.69
518.58	31775.11
518.75	31536.38
518.93	32102.79
519.10	31604.25
519.27	31641.70
519.45	31997.46
519.62	32055.98
519.79	32245.56
519.96	32240.88
520.14	32100.45
520.31	32034.91
520.48	32095.77
520.65	32470.25
520.83	33125.60
521.00	32854.10
521.17	32519.40
521.34	32767.50
521.52	32823.67
521.69	32961.76
521.86	32971.13
522.03	33230.93
522.20	33266.03
522.38	33560.94
522.55	33310.50
522.72	33322.21
522.89	33682.65
523.07	33497.75
523.24	33284.76
523.41	33905.00
523.58	33429.87
523.75	33710.74
523.92	33820.74
524.10	34061.82
524.27	34073.52
524.44	33993.94
524.61	34015.01
524.78	33663.93
524.96	34382.47
525.13	34043.09
525.30	34581.42
525.47	34506.52
525.64	34473.75
525.81	34965.26
525.98	34665.67
526.16	34660.99
526.33	34696.10
526.50	35028.46
526.67	34941.86
526.84	34497.16
527.01	34979.31
527.18	34972.28
527.36	35028.46
527.53	35297.62
527.70	35316.34
527.87	35278.89
528.04	35253.15
528.21	35229.74
528.38	34899.73
528.55	35349.11
528.72	35218.04
528.89	35072.93
529.07	35372.52
529.24	35306.98
529.41	35782.11
529.58	35857.01
529.75	35541.03
529.92	36137.87
530.09	35660.40
530.26	35562.10
530.43	35644.02
530.60	35739.98
530.77	35695.51
530.94	36037.23
531.11	36093.40
531.28	36409.37
531.46	35997.44
531.63	36215.11
531.80	36278.30
531.97	36783.86
532.14	36182.34
532.31	36430.44
532.48	36891.52
532.65	36659.81
532.82	36723.01
532.99	36753.43
533.16	36840.03
533.33	37177.07
533.50	36959.40
533.67	37020.25
533.84	36800.24
534.01	37024.93
534.18	36971.10
534.35	37521.13
534.52	37556.24
534.69	37792.63
534.86	37497.72
535.03	37244.94
535.20	37750.50
535.37	37727.10
535.54	37607.73
535.71	37474.32
535.88	37448.57
536.05	37804.33
536.22	37837.10
536.38	37914.34
536.55	37851.14
536.72	37858.17
536.89	37984.55
537.06	37886.25
537.23	38061.79
537.40	37886.25
537.57	37612.41
537.74	38242.01
537.91	38082.86
538.08	37993.92
538.25	37706.03
538.42	38440.96
538.59	38550.96
538.75	38279.46
538.92	38567.35
539.09	38408.19
539.26	38703.10
539.43	38574.37
539.60	38522.88
539.77	38700.76
539.94	39079.92
540.11	38869.28
540.28	38796.72
540.44	38740.55
540.61	38993.32
540.78	38623.52
540.95	38733.53
541.12	39000.35
541.29	38651.61
541.46	38731.18
541.62	39108.01
541.79	39363.13
541.96	39000.35
542.13	38778.00
542.30	39051.84
542.47	39164.18
542.63	39416.96
542.80	39709.53
542.97	39793.79
543.14	40018.48
543.31	39690.80
543.48	39665.06
543.64	40175.30
543.81	40053.59
543.98	39880.39
544.15	40069.97
544.32	40093.38
544.48	40437.44
544.65	40175.30
544.82	40444.46
544.99	40385.94
545.16	40266.58
545.32	40339.13
545.49	40540.42
545.66	40762.77
545.83	40388.28
546.00	40739.36
546.16	40191.68
546.33	40378.92
546.50	40587.23
546.67	40926.61
546.83	40479.57
547.00	40538.08
547.17	40367.22
547.34	40308.71
547.50	41413.44
547.67	41127.89
547.84	40493.61
548.00	40872.78
548.17	41572.60
548.34	41235.56
548.51	41247.26
548.67	41483.66
548.84	41294.07
549.01	41188.75
549.18	41242.58
549.34	41584.30
549.51	41497.70
549.68	41748.14
549.84	41387.69
550.01	41872.18
550.18	41324.50
550.34	41179.39
550.51	41603.02
550.68	41975.17
550.84	41392.37
551.01	42312.20
551.18	41205.13
551.34	41291.73
551.51	42078.15
551.68	41816.01
551.84	41635.79
552.01	41649.83
552.18	41528.13
552.34	41886.23
552.51	42323.91
552.68	42052.41
552.84	41935.38
553.01	42267.73
553.18	42003.25
553.34	42087.51
553.51	42038.36
553.67	42412.85
553.84	42330.93
554.01	42401.14
554.17	42298.16
554.34	42387.10
554.51	42124.96
554.67	42597.75
554.84	42424.55
555.00	42314.55
555.17	42784.99
555.33	42487.74
555.50	42478.38
555.67	42281.78
555.83	42756.91
556.00	42581.37
556.16	43009.68
556.33	42967.55
556.50	42815.42
556.66	42782.65
556.83	42508.81
556.99	43281.19
557.16	43419.28
557.32	42670.31
557.49	42990.96
557.65	42672.65
557.82	43185.22
557.98	42913.72
558.15	43302.25
558.32	42738.18
558.48	43047.13
558.65	43255.44
558.81	42796.70
558.98	43489.49
559.14	42986.28
559.31	43203.95
559.47	43215.65
559.64	43093.94
559.80	43477.79
559.97	43819.51
560.13	43171.18
560.30	43145.44
560.46	43175.86
560.63	43611.20
560.79	43405.23
560.96	43550.35
561.12	43569.07
561.29	43587.80
561.45	44095.69
561.61	43253.10
561.78	43456.73
561.94	43791.42
562.11	43615.88
562.27	43674.40
562.44	43976.33
562.60	43931.86
562.77	44339.11
562.93	43739.93
563.10	44158.89
563.26	43854.62
563.42	44231.44
563.59	43725.89
563.75	43557.37
563.92	44086.33
564.08	44081.65
564.24	43983.35
564.41	43749.29
564.57	43856.96
564.74	43948.24
564.90	43920.15
565.07	43791.42
565.23	43868.66
565.39	43508.22
565.56	44215.06
565.72	43981.01
565.88	44247.83
566.05	44498.26
566.21	44009.09
566.38	44311.02
566.54	44191.65
566.70	43824.19
566.87	44191.65
567.03	43639.29
567.19	43990.37
567.36	44222.08
567.52	44378.90
567.68	44821.26
567.85	44645.72
568.01	44594.23
568.17	44198.68
568.34	44727.64
568.50	44594.23
568.66	44306.34
568.83	44320.38
568.99	44425.71
569.15	44428.05
569.32	44313.36
569.48	44430.39
569.64	44594.23
569.81	44339.11
569.97	44535.71
570.13	44877.43
570.30	44362.51
570.46	44582.52
570.62	44399.96
570.78	44346.13
570.95	44406.98
571.11	44896.16
571.27	44591.89
571.43	44470.18
571.60	44470.18
571.76	44687.85
571.92	44612.95
572.09	44568.48
572.25	44231.44
572.41	44516.99
572.57	44760.40
572.74	45003.82
572.90	44479.54
573.06	44828.28
573.22	44402.30
573.38	44828.28
573.55	44718.28
573.71	45298.73
573.87	44809.56
574.03	44549.76
574.20	45237.87
574.36	44751.04
574.52	44828.28
574.68	44650.40
574.84	44790.83
575.01	45116.17
575.17	45125.53
575.33	45069.36
575.49	44610.61
575.65	44975.73
575.82	45277.66
575.98	44563.80
576.14	45408.73
576.30	45212.13
576.46	45191.06
576.62	45270.64
576.79	44751.04
576.95	44435.07
577.11	44657.42
577.27	44856.37
577.43	44931.26
577.59	45296.39
577.75	44884.45
577.92	44727.64
578.08	45071.70
578.24	44835.30
578.40	45668.53
578.56	45045.95
578.72	45263.62
578.88	45291.71
579.04	45235.53
579.21	44945.31
579.37	44968.71
579.53	44861.05
579.69	45188.72
579.85	44842.32
580.01	44612.95
580.17	45078.72
580.33	44858.71
580.49	45090.42
580.65	45071.70
580.82	44861.05
580.98	44842.32
581.14	44732.32
581.30	45202.77
581.46	45067.02
581.62	44837.64
581.78	44889.13
581.94	45338.52
582.10	45207.45
582.26	45324.47
582.42	45219.15
582.58	44919.56
582.74	45095.10
582.90	45261.28
583.06	45420.44
583.22	45177.02
583.38	45036.59
583.54	45460.23
583.70	45649.81
583.86	45296.39
584.02	45109.14
584.18	45319.79
584.34	45120.85
584.50	45717.68
584.66	45177.02
584.82	45537.46
584.98	45624.06
585.14	45350.22
585.30	44926.58
585.46	45287.03
585.62	44622.31
585.78	45247.24
585.94	45027.23
586.10	45354.90
586.26	45085.74
586.42	44959.35
586.58	45553.85
586.74	45008.50
586.90	45265.96
587.06	45411.07
587.22	45411.07
587.38	44952.33
587.54	45392.35
587.70	45521.08
587.86	45319.79
588.02	45179.36
588.18	44889.13
588.34	45701.30
588.49	45525.76
588.65	45251.92
588.81	45694.28
588.97	45546.82
589.13	45483.63
589.29	45415.76
589.45	45900.25
589.61	45724.71
589.77	45610.02
589.93	45492.99
590.08	45446.18
590.24	45860.46
590.40	45832.37
590.56	46099.19
590.72	45408.73
590.88	45647.47
591.04	45759.81
591.20	45869.82
591.35	45801.94
591.51	45940.04
591.67	46019.61
591.83	45799.60
591.99	45670.87
592.15	45642.79
592.31	45717.68
592.46	45701.30
592.62	45717.68
592.78	46171.75
592.94	46038.34
593.10	46061.74
593.26	46288.77
593.41	45996.21
593.57	45628.74
593.73	45958.76
593.89	46454.95
594.05	45895.56
594.20	45867.48
594.36	46263.03
594.52	46143.66
594.68	46157.70
594.84	45563.21
594.99	46363.67
595.15	45958.76
595.31	46059.40
595.47	46085.15
595.62	45659.17
595.78	45619.38
595.94	46260.69
596.10	45900.25
596.25	46440.91
596.41	46028.98
596.57	45813.65
596.73	46092.17
596.88	46183.45
597.04	46054.72
597.20	45977.48
597.36	45923.65
597.51	46246.65
597.67	46036.00
597.83	46050.04
597.99	46277.07
598.14	45797.26
598.30	46153.02
598.46	45921.31
598.61	46412.82
598.77	46241.96
598.93	46277.07
599.09	45954.08
599.24	46506.44
599.40	45979.82
599.56	46431.55
599.71	46485.38
599.87	46691.35
600.03	46621.13
600.18	46258.35
600.34	45961.10
600.50	45872.16
600.65	45961.10
600.81	46380.06
600.97	46181.11
601.12	46499.42
601.28	46298.14
601.44	46064.08
601.59	46117.92
601.75	46007.91
601.91	46403.46
602.06	46021.95
602.22	46265.37
602.37	46197.49
602.53	46321.54
602.69	46401.12
602.84	46230.26
603.00	46347.29
603.16	46438.57
603.31	46553.26
603.47	46330.90
603.62	46036.00
603.78	46052.38
603.94	46143.66
604.09	46265.37
604.25	45909.61
604.40	46422.19
604.56	46450.27
604.71	46085.15
604.87	45942.38
605.03	45790.24
605.18	46248.99
605.34	45963.44
605.49	46019.61
605.65	46234.94
605.80	46101.53
605.96	46183.45
606.12	46012.59
606.27	46389.42
606.43	46354.31
606.58	46124.94
606.74	46588.36
606.89	45895.56
607.05	46525.17
607.20	46103.87
607.36	45729.39
607.51	45872.16
607.67	45902.59
607.82	45799.60
607.98	45865.14
608.13	46054.72
608.29	46155.36
608.44	46031.32
608.60	45404.05
608.75	46394.10
608.91	45881.52
609.06	45916.63
609.22	45972.80
609.37	45502.35
609.53	46347.29
609.68	46082.81
609.84	45813.65
609.99	45815.99
610.15	46073.45
610.30	45993.87
610.46	45738.75
610.61	46293.46
610.76	45778.54
610.92	45673.21
611.07	45394.69
611.23	45633.42
611.38	45958.76
611.54	45942.38
611.69	46026.63
611.84	45724.71
612.00	45315.11
612.15	45462.57
612.31	45652.15
612.46	45181.70
612.62	45490.65
612.77	45677.90
612.92	45834.71
613.08	45420.44
613.23	45708.32
613.39	45783.22
613.54	45041.27
613.69	45773.86
613.85	45315.11
614.00	45654.49
614.15	45345.54
614.31	45352.56
614.46	45635.77
614.62	45654.49
614.77	45366.60
614.92	45666.19
615.08	45408.73
615.23	45492.99
615.38	45579.59
615.54	45184.04
615.69	45907.27
615.84	45322.13
616.00	45853.44
616.15	45745.77
616.30	45333.84
616.46	45289.37
616.61	44854.03
616.76	45584.27
616.92	44807.22
617.07	45184.04
617.22	45478.95
617.37	44701.89
617.53	45078.72
617.68	45235.53
617.83	44910.20
617.99	45640.45
618.14	45052.97
618.29	45188.72
618.45	44938.29
618.60	44561.46
618.75	45113.83
618.90	44891.48
619.06	44996.80
619.21	44786.15
619.36	44875.09
619.51	44655.08
619.67	44645.72
619.82	44641.04
619.97	45249.58
620.12	44657.42
620.28	44971.05
620.43	44886.79
620.58	44989.78
620.73	44854.03
620.89	45111.49
621.04	44931.26
621.19	45205.11
621.34	44524.01
621.49	44605.93
621.65	44449.11
621.80	44931.26
621.95	44994.46
622.10	44573.16
622.25	44456.14
622.41	44435.07
622.56	44615.29
622.71	44261.87
622.86	44842.32
623.01	44402.30
623.16	44320.38
623.32	44512.31
623.47	44456.14
623.62	44587.21
623.77	44158.89
623.92	44346.13
624.07	44577.84
624.23	44362.51
624.38	44236.12
624.53	44121.44
624.68	43845.26
624.83	44154.21
624.98	44240.81
625.13	43784.40
625.29	44191.65
625.44	44327.41
625.59	44023.14
625.74	44186.97
625.89	44100.37
626.04	43826.53
626.19	43978.67
626.34	43749.29
626.49	43805.47
626.65	43531.62
626.80	43571.41
626.95	43466.09
627.10	43302.25
627.25	43522.26
627.40	43856.96
627.55	43627.59
627.70	43585.46
627.85	43665.03
628.00	43716.53
628.15	43922.49
628.30	43407.58
628.45	43442.68
628.60	43674.40
628.76	43234.38
628.91	43562.05
629.06	43213.31
629.21	43604.18
629.36	43271.82
629.51	43068.20
629.66	43477.79
629.81	42976.92
629.96	43445.02
630.11	43192.25
630.26	43236.72
630.41	43351.40
630.56	43150.12
630.71	43522.26
630.86	43206.29
631.01	42794.36
631.16	43342.04
631.31	43035.43
631.46	43133.73
631.61	43203.95
631.76	42979.26
631.91	43026.07
632.06	43152.46
632.21	43725.89
632.36	43346.72
632.51	42827.12
632.66	43030.75
632.81	43161.82
632.96	42841.17
633.10	42794.36
633.25	42930.11
633.40	42843.51
633.55	42887.98
633.70	42836.48
633.85	42890.32
634.00	42745.20
634.15	42487.74
634.30	42443.27
634.45	42988.62
634.60	42490.09
634.75	42326.25
634.90	42436.25
635.05	42862.23
635.19	42799.04
635.34	42623.50
635.49	42417.53
635.64	42522.85
635.79	42644.56
635.94	42436.25
636.09	42525.19
636.24	42763.93
636.39	42106.24
636.53	42803.72
636.68	42108.58
636.83	42087.51
636.98	42017.30
637.13	41970.49
637.28	42244.33
637.43	42422.21
637.57	42068.79
637.72	41918.99
637.87	42227.95
638.02	42045.38
638.17	42291.14
638.32	41888.57
638.46	41647.49
638.61	41645.15
638.76	41558.55
638.91	41755.16
639.06	41385.35
639.20	41584.30
639.35	41289.39
639.50	41083.42
639.65	41851.12
639.80	41935.38
639.94	41839.42
640.09	41986.87
640.24	41722.39
640.39	41186.41
640.54	41471.95
640.68	41670.90
640.83	41890.91
640.98	41373.65
641.13	41029.59
641.27	41834.74
641.42	41677.92
641.57	41074.06
641.72	41422.80
641.86	41195.77
642.01	40900.86
642.16	41139.60
642.31	41226.20
642.45	41598.34
642.60	41191.09
642.75	41179.39
642.90	41563.23
643.04	41303.43
643.19	41596.00
643.34	41170.02
643.48	40722.98
643.63	41134.92
643.78	41118.53
643.93	41780.90
644.07	41261.30
644.22	40996.82
644.37	41420.46
644.51	41057.68
644.66	41326.84
644.81	40964.06
644.95	41092.79
645.10	40905.54
645.25	40872.78
645.39	40385.94
645.54	40699.58
645.69	40519.35
645.83	40545.10
645.98	40650.42
646.13	40814.26
646.27	40526.38
646.42	40678.51
646.57	40500.63
646.71	40715.96
646.86	40734.68
647.00	40540.42
647.15	40861.07
647.30	40601.27
647.44	40243.17
647.59	40627.02
647.74	39966.99
647.88	40493.61
648.03	40713.62
648.17	40828.30
648.32	40289.98
648.47	40563.82
648.61	40371.90
648.76	40488.93
648.90	40072.31
649.05	39952.94
649.20	40297.00
649.34	40161.25
649.49	40407.01
649.63	40620.00
649.78	40727.66
649.92	39999.76
650.07	40502.97
650.21	40140.19
650.36	40339.13
650.51	39892.09
650.65	40074.65
650.80	40285.30
650.94	40030.18
651.09	40397.65
651.23	39882.73
651.38	39660.38
651.52	39812.51
651.67	40172.96
651.81	39686.12
651.96	40016.14
652.10	39730.59
652.25	39597.18
652.39	39868.69
652.54	39772.72
652.68	39494.20
652.83	39702.51
652.97	39913.16
653.12	39882.73
653.26	39505.90
653.41	39461.43
653.55	39438.03
653.70	39709.53
653.84	39964.65
653.99	40098.06
654.13	39487.18
654.27	39409.94
654.42	39482.50
654.56	38995.67
654.71	39922.52
654.85	39426.32
655.00	39358.45
655.14	39496.54
655.29	39288.23
655.43	39494.20
655.57	39250.78
655.72	39199.29
655.86	39484.84
656.01	39285.89
656.15	39119.71
656.30	39203.97
656.44	39051.84
656.58	39208.65
656.73	39201.63
656.87	38525.22
657.01	38801.40
657.16	38962.90
657.30	38827.15
657.45	38693.74
657.59	38665.65
657.73	38249.03
657.88	38583.73
658.02	39014.39
658.16	38939.49
658.31	38595.43
658.45	38794.38
658.60	38251.38
658.74	38941.83
658.88	38447.98
659.03	38693.74
659.17	38246.69
659.31	37666.24
659.46	38328.61
659.60	38532.24
659.74	38256.06
659.89	37881.57
660.03	37659.22
660.17	37790.29
660.32	38284.14
660.46	38150.73
660.60	37818.38
660.74	37684.97
660.89	38010.30
661.03	37661.56
661.17	37549.21
661.32	37296.44
661.46	37696.67
661.60	37626.45
661.74	37584.32
661.89	37617.09
662.03	37710.71
662.17	37347.93
662.31	37392.40
662.46	37296.44
662.60	37003.87
662.74	37043.66
662.88	36914.93
663.03	36905.57
663.17	36868.12
663.31	36727.69
663.45	37010.89
663.60	37359.63
663.74	37350.27
663.88	36720.66
664.02	36840.03
664.17	37076.43
664.31	36519.38
664.45	36921.95
664.59	36400.01
664.73	36636.41
664.88	36346.18
665.02	36456.18
665.16	36357.88
665.30	37151.32
665.44	36603.64
665.59	36229.15
665.73	36245.54
665.87	35901.48
666.01	35882.75
666.15	36041.91
666.29	35976.37
666.44	36442.14
666.58	36086.38
666.72	35835.94
666.86	35997.44
667.00	35545.72
667.14	35353.79
667.28	35512.95
667.43	35634.66
667.57	35744.66
667.71	35627.63
667.85	35683.81
667.99	35475.50
668.13	34878.66
668.27	35487.20
668.41	35299.96
668.56	34665.67
668.70	34843.56
668.84	34888.03
668.98	34480.77
669.12	34855.26
669.26	34916.11
669.40	34801.43
669.54	35040.16
669.68	34829.51
669.82	34494.82
669.96	33972.88
670.10	34061.82
670.25	34045.43
670.39	33813.72
670.53	34789.72
670.67	34286.51
670.81	34073.52
670.95	34508.86
671.09	34155.44
671.23	33792.65
671.37	34071.18
671.51	33631.16
671.65	33525.83
671.79	33890.96
671.93	33684.99
672.07	33951.81
672.21	33610.09
672.35	33507.11
672.49	33095.18
672.63	33275.40
672.77	32858.78
672.91	33022.62
673.05	32975.81
673.19	32884.53
673.33	32552.17
673.47	32870.48
673.61	32816.65
673.75	32556.85
673.89	32320.46
674.03	32704.31
674.17	32212.79
674.31	32369.61
674.45	32348.54
674.59	32472.59
674.73	32079.38
674.87	31784.48
675.01	32161.30
675.15	31630.00
675.29	31395.95
675.43	31590.21
675.56	31646.38
675.70	31735.32
675.84	31615.96
675.98	30576.76
676.12	31098.70
676.26	31744.69
676.40	31342.11
676.54	30976.99
676.68	31126.78
676.82	30597.82
676.96	31049.55
677.10	31105.72
677.23	31079.97
677.37	30403.56
677.51	30593.14
677.65	30637.61
677.79	30361.43
677.93	30405.90
678.07	30150.78
678.21	30043.12
678.34	29797.36
678.48	29715.44
678.62	29729.48
678.76	29626.50
678.90	29617.14
679.04	29490.75
679.18	29921.41
679.31	29640.54
679.45	29071.79
679.59	28687.95
679.73	29177.12
679.87	28961.79
680.00	28872.85
680.14	28865.83
680.28	28545.17
680.42	28662.20
680.56	28730.08
680.70	28098.13
680.83	28233.88
680.97	27974.08
681.11	28219.84
681.25	27775.14
681.39	27800.88
681.52	27723.65
681.66	27491.93
681.80	27290.65
681.94	27424.06
682.07	27498.95
682.21	27386.61
682.35	27068.30
682.49	27009.78
682.62	26792.11
682.76	27248.52
682.90	26930.20
683.04	26721.90
683.17	26937.23
683.31	26513.59
683.45	26487.84
683.59	26169.53
683.72	26108.68
683.86	26206.98
684.00	26178.89
684.13	25722.49
684.27	25916.75
684.41	25827.81
684.55	26089.95
684.68	25614.82
684.82	25467.37
684.96	25439.28
685.09	25273.10
685.23	25558.65
685.37	25575.03
685.50	25542.27
685.64	25085.86
685.78	25209.91
685.91	25071.82
686.05	24613.07
686.19	24093.47
686.32	24512.43
686.46	24395.40
686.60	24423.49
686.73	24535.84
686.87	24369.66
687.01	24563.92
687.14	24418.81
687.28	23964.75
687.42	24086.45
687.55	23800.91
687.69	23789.20
687.82	23594.94
687.96	23646.43
688.10	23440.47
688.23	23669.84
688.37	23517.70
688.50	23321.10
688.64	23051.94
688.78	23073.00
688.91	22820.22
689.05	23323.44
689.18	22862.35
689.32	22644.68
689.46	22408.29
689.59	22614.26
689.73	22813.20
689.86	22860.01
690.00	22492.55
690.13	22501.91
690.27	21933.16
690.41	22207.00
690.54	21823.16
690.68	21642.93
690.81	21799.75
690.95	21893.37
691.08	21333.98
691.22	21530.59
691.35	21240.36
691.49	21593.78
691.62	21436.97
691.76	20971.20
691.89	20952.48
692.03	20456.28
692.16	20933.75
692.30	20776.94
692.43	20936.09
692.57	20491.39
692.70	20306.49
692.84	20325.21
692.97	20196.48
693.11	20030.30
693.24	19983.49
693.38	20144.99
693.51	19924.98
693.65	19772.85
693.78	19520.07
693.92	19772.85
694.05	19660.50
694.19	19421.77
694.32	19360.91
694.45	19534.11
694.59	19573.90
694.72	19428.79
694.86	19161.97
694.99	19056.64
695.13	19346.87
695.26	18616.62
695.39	18668.11
695.53	18719.60
695.66	19028.56
695.80	18293.63
695.93	18403.63
696.07	18288.95
696.20	17977.65
696.33	17895.74
696.47	18195.32
696.60	18094.68
696.73	18284.26
696.87	18132.13
697.00	17975.31
697.14	18120.43
697.27	17334.01
697.40	17373.80
697.54	17631.26
697.67	17666.36
697.80	17577.42
697.94	17193.58
698.07	16982.93
698.21	17132.72
698.34	16996.97
698.47	16851.86
698.61	16589.72
698.74	16662.27
698.87	16746.53
699.01	16613.12
699.14	16688.02
699.27	16325.24
699.40	16360.34
699.54	16013.95
699.67	16032.67
699.80	16423.54
699.94	16093.52
700.07	15983.52
700.20	15955.43
700.34	15630.10
700.47	15932.03
700.60	16121.61
700.73	16058.42
700.87	15583.29
701.00	15442.85
701.13	15431.15
701.26	15501.37
701.40	15073.05
701.53	15112.84
701.66	15274.34
701.79	15208.80
701.93	14745.38
702.06	14684.52
702.19	14834.32
702.32	14796.87
702.46	14834.32
702.59	14780.48
702.72	14750.06
702.85	14721.97
702.99	14637.71
703.12	14391.95
703.25	14303.01
703.38	14246.84
703.51	14127.47
703.65	14387.27
703.78	13905.12
703.91	13710.86
704.04	13708.52
704.17	13827.88
704.31	13853.63
704.44	13542.34
704.57	13717.88
704.70	13439.36
704.83	13591.49
704.96	13315.31
705.10	13071.89
705.23	13378.50
>>>>>End Processed Spectral Data<<<<<
