SpectraSuite Data File
++++++++++++++++++++++++++++++++++++
Date: Fri Oct 25 10:47:35 EDT 2013
User: price-jones
Dark Spectrum Present: No
Reference Spectrum Present: No
Number of Sampled Component Spectra: 1
Spectrometers: USB2+H05261
Integration Time (usec): 100000 (USB2+H05261)
Spectra Averaged: 1 (USB2+H05261)
Boxcar Smoothing: 0 (USB2+H05261)
Correct for Electrical Dark: No (USB2+H05261)
Strobe/Lamp Enabled: No (USB2+H05261)
Correct for Detector Non-linearity: No (USB2+H05261)
Correct for Stray Light: No (USB2+H05261)
Number of Pixels in Processed Spectrum: 2048
>>>>>Begin Processed Spectral Data<<<<<
365.73	173.20
365.92	173.20
366.12	173.20
366.32	86.60
366.52	32.77
366.72	114.69
366.91	102.98
367.11	79.58
367.31	0.00
367.51	30.43
367.70	0.00
367.90	58.51
368.10	56.17
368.30	0.00
368.49	0.00
368.69	79.58
368.89	117.03
369.09	70.22
369.28	63.19
369.48	77.24
369.68	67.88
369.87	114.69
370.07	70.22
370.27	128.73
370.47	194.26
370.66	325.33
370.86	402.57
371.06	418.96
371.25	514.92
371.45	510.24
371.65	587.47
371.84	489.17
372.04	447.04
372.24	449.38
372.44	498.53
372.63	528.96
372.83	531.30
373.03	521.94
373.22	468.11
373.42	582.79
373.62	514.92
373.81	533.64
374.01	547.69
374.21	613.22
374.40	514.92
374.60	503.22
374.79	521.94
374.99	648.33
375.19	592.16
375.38	573.43
375.58	643.65
375.78	552.37
375.97	526.62
376.17	624.92
376.37	566.41
376.56	507.90
376.76	589.82
376.95	521.94
377.15	566.41
377.35	596.84
377.54	585.13
377.74	615.56
377.93	603.86
378.13	561.73
378.33	657.69
378.52	566.41
378.72	603.86
378.91	669.39
379.11	596.84
379.31	664.71
379.50	622.58
379.70	648.33
379.89	638.97
380.09	603.86
380.28	645.99
380.48	674.07
380.68	601.52
380.87	613.22
381.07	695.14
381.26	645.99
381.46	699.82
381.65	704.50
381.85	716.20
382.04	685.78
382.24	671.73
382.43	664.71
382.63	695.14
382.83	676.41
383.02	723.23
383.22	695.14
383.41	678.76
383.61	655.35
383.80	786.42
384.00	718.54
384.19	741.95
384.39	702.16
384.58	676.41
384.78	760.67
384.97	751.31
385.17	727.91
385.36	774.72
385.56	748.97
385.75	791.10
385.95	711.52
386.14	716.20
386.34	826.21
386.53	805.14
386.72	779.40
386.92	912.81
387.11	767.70
387.31	718.54
387.50	863.66
387.70	809.83
387.89	861.32
388.09	849.61
388.28	875.36
388.48	847.27
388.67	849.61
388.86	840.25
389.06	908.13
389.25	922.17
389.45	973.66
389.64	917.49
389.84	926.85
390.03	947.92
390.22	882.38
390.42	985.37
390.61	875.36
390.81	908.13
391.00	891.74
391.19	964.30
391.39	966.64
391.58	1015.79
391.78	971.32
391.97	943.24
392.16	901.11
392.36	1013.45
392.55	1013.45
392.75	1025.15
392.94	971.32
393.13	966.64
393.33	964.30
393.52	950.26
393.71	1048.56
393.91	985.37
394.10	1048.56
394.29	1118.78
394.49	1071.97
394.68	961.96
394.88	1083.67
395.07	1076.65
395.26	1041.54
395.46	1116.44
395.65	1181.97
395.84	1158.57
396.04	1163.25
396.23	1207.72
396.42	1097.71
396.62	1109.41
396.81	1212.40
397.00	1111.75
397.19	1167.93
397.39	1259.21
397.58	1224.10
397.77	1273.25
397.97	1196.01
398.16	1207.72
398.35	1310.70
398.55	1313.04
398.74	1317.72
398.93	1357.51
399.12	1299.00
399.32	1327.08
399.51	1413.68
399.70	1362.19
399.90	1352.83
400.09	1341.13
400.28	1399.64
400.47	1401.98
400.67	1425.39
400.86	1493.26
401.05	1338.79
401.24	1493.26
401.44	1514.33
401.63	1474.54
401.82	1430.07
402.01	1460.49
402.21	1582.20
402.40	1511.99
402.59	1507.30
402.78	1544.75
402.97	1507.30
403.17	1554.12
403.36	1633.69
403.55	1565.82
403.74	1710.93
403.93	1570.50
404.13	1607.95
404.32	1668.80
404.51	1778.81
404.70	1682.85
404.89	1671.14
405.09	1781.15
405.28	1699.23
405.47	1689.87
405.66	1668.80
405.85	1813.92
406.05	1778.81
406.24	1776.47
406.43	1762.42
406.62	1769.44
406.81	1930.94
407.00	1865.41
407.20	1797.53
407.39	1898.17
407.58	1940.30
407.77	1914.56
407.96	1912.22
408.15	1856.04
408.34	2005.84
408.54	2134.57
408.73	2047.97
408.92	1933.28
409.11	2038.61
409.30	2024.56
409.49	1961.37
409.68	2052.65
409.87	2092.44
410.07	2134.57
410.26	2143.93
410.45	2172.02
410.64	2155.63
410.83	2256.28
411.02	2251.60
411.21	2310.11
411.40	2239.89
411.59	2223.51
411.78	2291.38
411.98	2277.34
412.17	2366.28
412.36	2263.30
412.55	2300.75
412.74	2443.52
412.93	2462.24
413.12	2387.35
413.31	2544.16
413.50	2520.76
413.69	2520.76
413.88	2686.94
414.07	2448.20
414.26	2560.55
414.45	2628.42
414.64	2663.53
414.83	2715.02
415.02	2637.78
415.22	2672.89
415.41	2724.38
415.60	2808.64
415.79	2705.66
415.98	2780.56
416.17	2909.29
416.36	2881.20
416.55	2869.50
416.74	2960.78
416.93	2862.48
417.12	2935.03
417.31	2951.42
417.50	2864.82
417.69	3084.83
417.88	3159.72
418.07	3052.06
418.26	2930.35
418.45	2944.39
418.64	3215.90
418.83	3112.91
419.02	3112.91
419.21	3126.96
419.39	3108.23
419.58	3141.00
419.77	3098.87
419.96	3276.75
420.15	3332.92
420.34	3272.07
420.53	3253.34
420.72	3304.84
420.91	3463.99
421.10	3344.63
421.29	3435.91
421.48	3386.76
421.67	3506.12
421.86	3328.24
422.05	3279.09
422.24	3499.10
422.43	3473.36
422.61	3466.33
422.80	3466.33
422.99	3513.14
423.18	3588.04
423.37	3517.83
423.56	3520.17
423.75	3494.42
423.94	3510.80
424.13	3342.28
424.32	3449.95
424.50	3510.80
424.69	3508.46
424.88	3662.94
425.07	3524.85
425.26	3492.08
425.45	3468.67
425.64	3524.85
425.83	3478.04
426.01	3576.34
426.20	3562.30
426.39	3379.73
426.58	3471.01
426.77	3590.38
426.96	3571.66
427.15	3709.75
427.33	3597.40
427.52	3620.81
427.71	3639.53
427.90	3740.18
428.09	3772.94
428.28	3676.98
428.46	3674.64
428.65	3789.33
428.84	3819.75
429.03	3777.62
429.22	3740.18
429.40	3798.69
429.59	3686.34
429.78	3625.49
429.97	3590.38
430.16	3676.98
430.34	3822.09
430.53	3735.50
430.72	3801.03
430.91	3911.04
431.10	3985.93
431.28	4067.85
431.47	4234.03
431.66	4126.36
431.85	3906.35
432.03	3983.59
432.22	4360.42
432.41	4112.32
432.60	4142.75
432.79	4161.47
432.97	4348.72
433.16	4301.90
433.35	4093.60
433.54	4318.29
433.72	4217.65
433.91	4156.79
434.10	4322.97
434.28	4227.01
434.47	4276.16
434.66	4334.67
434.85	4423.61
435.03	4491.49
435.22	4489.15
435.41	4564.04
435.59	4699.80
435.78	4517.23
435.97	4631.92
436.16	4491.49
436.34	4554.68
436.53	4713.84
436.72	4739.58
436.90	4594.47
437.09	4500.85
437.28	4489.15
437.46	4587.45
437.65	4697.46
437.84	4624.90
438.02	4603.83
438.21	4678.73
438.40	4676.39
438.58	4760.65
438.77	4910.44
438.96	5006.41
439.14	4990.02
439.33	5114.07
439.52	4980.66
439.70	5027.47
439.89	5062.58
440.08	5057.90
440.26	5188.97
440.45	5149.18
440.63	5235.78
440.82	5268.55
441.01	5364.51
441.19	5462.81
441.38	5404.30
441.57	5282.59
441.75	5544.73
441.94	5533.03
442.12	5612.60
442.31	5675.80
442.50	5514.30
442.68	5640.69
442.87	5591.54
443.05	5781.12
443.24	5628.99
443.43	5781.12
443.61	5696.86
443.80	5949.64
443.98	5696.86
444.17	5507.28
444.35	5738.99
444.54	6122.84
444.73	5678.14
444.91	5687.50
445.10	5738.99
445.28	5944.96
445.47	5788.14
445.65	5867.72
445.84	5881.77
446.02	5823.25
446.21	6047.94
446.39	5795.17
446.58	5921.56
446.77	6003.47
446.95	5905.17
447.14	6204.76
447.32	5975.39
447.51	5926.24
447.69	5858.36
447.88	5963.68
448.06	6012.84
448.25	5867.72
448.43	6073.69
448.62	5928.58
448.80	6064.33
448.99	6228.17
449.17	6113.48
449.36	6099.44
449.54	6071.35
449.73	6382.64
449.91	6139.23
450.10	6253.91
450.28	6399.02
450.46	6356.90
450.65	6527.75
450.83	6525.41
451.02	6354.55
451.20	6466.90
451.39	6532.44
451.57	6443.49
451.76	6448.18
451.94	6525.41
452.13	6462.22
452.31	6551.16
452.49	6494.99
452.68	6497.33
452.86	6476.26
453.05	6473.92
453.23	6462.22
453.42	6384.98
453.60	6544.14
453.78	6710.32
453.97	6502.01
454.15	6614.35
454.34	6619.04
454.52	6663.51
454.70	6743.08
454.89	6792.23
455.07	6869.47
455.26	6885.86
455.44	6958.41
455.62	6911.60
455.81	7028.63
455.99	6871.81
456.17	6932.67
456.36	6902.24
456.54	7265.02
456.73	7162.04
456.91	7208.85
457.09	7225.23
457.28	7269.70
457.46	7187.79
457.64	7332.90
457.83	7232.26
458.01	7152.68
458.19	7330.56
458.38	7384.39
458.56	7470.99
458.74	7569.29
458.93	7405.46
459.11	7412.48
459.29	7478.01
459.48	7569.29
459.66	7707.38
459.84	7562.27
460.03	7548.23
460.21	7541.21
460.39	7564.61
460.57	7545.89
460.76	7705.04
460.94	7714.41
461.12	7632.49
461.31	7669.94
461.49	7634.83
461.67	7803.35
461.85	8065.49
462.04	7882.92
462.22	8402.52
462.40	8102.93
462.59	8035.06
462.77	8049.10
462.95	8095.91
463.13	8088.89
463.32	7992.93
463.50	7878.24
463.68	8124.00
463.86	8028.04
464.05	8067.83
464.23	8002.29
464.41	8107.62
464.59	8194.22
464.78	8393.16
464.96	8175.49
465.14	8163.79
465.32	8334.65
465.50	8355.71
465.69	8451.67
465.87	8301.88
466.05	8367.42
466.23	8266.77
466.41	8145.06
466.60	8472.74
466.78	8468.06
466.96	8372.10
467.14	8580.40
467.32	8582.74
467.51	8674.03
467.69	8383.80
467.87	8559.34
468.05	8610.83
468.23	8629.56
468.41	8578.06
468.60	8505.51
468.78	8765.31
468.96	8631.90
469.14	8793.39
469.32	8751.26
469.50	8758.28
469.69	9015.74
469.87	8926.80
470.05	8889.35
470.23	9060.21
470.41	8847.22
470.59	8926.80
470.77	8865.95
470.95	9092.98
471.14	9123.41
471.32	9011.06
471.50	9235.75
471.68	9270.86
471.86	9357.46
472.04	9228.73
472.22	9373.85
472.40	9451.08
472.58	9369.16
472.77	9689.82
472.95	9628.96
473.13	9853.66
473.31	9647.69
473.49	9493.21
473.67	9673.43
473.85	9521.30
474.03	9902.81
474.21	9891.10
474.39	10113.45
474.57	10003.45
474.75	10047.92
474.93	10249.21
475.12	10059.62
475.30	10150.90
475.48	10319.42
475.66	10249.21
475.84	10289.00
476.02	10319.42
476.20	10452.83
476.38	10422.41
476.56	10867.11
476.74	10686.89
476.92	10663.48
477.10	10768.80
477.28	10937.32
477.46	10834.34
477.64	10977.11
477.82	11166.70
478.00	11419.47
478.18	11192.44
478.36	11503.73
478.54	11440.54
478.72	11487.35
478.90	11508.41
479.08	11676.93
479.26	12030.35
479.44	11824.39
479.62	12175.47
479.80	12067.80
479.98	12184.83
480.16	12313.56
480.34	12159.08
480.52	12545.27
480.70	12631.87
480.88	12182.49
481.06	12505.48
481.24	12379.09
481.41	12924.44
481.59	13163.17
481.77	13067.21
481.95	12992.31
482.13	13296.58
482.31	13170.19
482.49	13706.18
482.67	13392.55
482.85	13504.89
483.03	13790.44
483.21	13919.17
483.39	13998.74
483.57	13760.01
483.74	14136.84
483.92	14373.23
484.10	14263.22
484.28	14340.46
484.46	14817.93
484.64	15044.96
484.82	14626.01
485.00	14860.06
485.18	15096.46
485.35	15178.37
485.53	15005.17
485.71	15047.30
485.89	15243.91
486.07	15124.54
486.25	15049.64
486.43	15461.58
486.61	15585.63
486.78	15852.45
486.96	16100.55
487.14	16283.11
487.32	16465.67
487.50	16255.02
487.68	16362.69
487.85	16858.88
488.03	16870.58
488.21	17102.29
488.39	16886.97
488.57	16917.39
488.75	17104.64
488.92	17542.32
489.10	17633.60
489.28	17914.46
489.46	18052.55
489.64	17972.97
489.81	18408.31
489.99	18092.34
490.17	18515.98
490.35	18506.62
490.53	18824.93
490.70	18721.95
490.88	18586.19
491.06	19208.78
491.24	18815.57
491.41	18897.49
491.59	19161.97
491.77	19164.31
491.95	19293.04
492.13	19688.59
492.30	19934.34
492.48	19735.40
492.66	19990.52
492.84	19796.25
493.01	20255.00
493.19	19962.43
493.37	20219.89
493.54	20528.84
493.72	20900.98
493.90	20826.09
494.08	21263.77
494.25	21460.37
494.43	21523.57
494.61	21355.05
494.79	21432.29
494.96	21287.17
495.14	21701.45
495.32	21862.94
495.49	21811.45
495.67	21921.46
495.85	22398.93
496.02	22146.15
496.20	22335.73
496.38	22579.15
496.55	22047.85
496.73	22764.05
496.91	22651.70
497.09	23016.83
497.26	22857.67
497.44	23077.68
497.62	23047.26
497.79	23541.11
497.97	23388.97
498.14	23616.01
498.32	23716.65
498.50	23892.19
498.67	23814.95
498.85	24004.53
499.03	23943.68
499.20	24098.16
499.38	24325.19
499.56	24088.79
499.73	24599.03
499.91	24388.38
500.08	24489.03
500.26	24364.98
500.44	24706.70
500.61	24606.05
500.79	24816.70
500.97	24540.52
501.14	24933.73
501.32	24978.20
501.49	25322.26
501.67	25514.18
501.84	25263.74
502.02	25441.62
502.20	25544.61
502.37	25940.16
502.55	25860.58
502.72	25916.75
502.90	25614.82
503.07	26045.48
503.25	26274.85
503.43	25991.65
503.60	26370.82
503.78	26396.56
503.95	26441.03
504.13	26424.65
504.30	26300.60
504.48	26415.29
504.65	26553.38
504.83	26897.44
505.01	26923.18
505.18	26836.58
505.36	27232.13
505.53	27145.53
505.71	27658.11
505.88	27489.59
506.06	27201.71
506.23	26998.08
506.41	27204.05
506.58	27405.33
506.76	27496.61
506.93	27646.41
507.11	27887.48
507.28	27805.56
507.46	27754.07
507.63	27740.03
507.81	28158.99
507.98	28044.30
508.16	28318.14
508.33	28371.97
508.50	28437.51
508.68	28367.29
508.85	28982.85
509.03	28669.22
509.20	28498.36
509.38	29142.01
509.55	28959.45
509.73	28788.59
509.90	29179.46
510.08	29134.99
510.25	29408.83
510.42	29319.89
510.60	29598.41
510.77	29310.53
510.95	29792.68
511.12	29448.62
511.30	29668.63
511.47	29968.22
511.64	30096.95
511.82	30141.42
511.99	29783.32
512.17	29830.13
512.34	30157.80
512.51	30064.18
512.69	30529.95
512.86	30127.38
513.04	30593.14
513.21	30579.10
513.38	30642.29
513.56	30764.00
513.73	30604.84
513.90	30981.67
514.08	30885.71
514.25	31185.30
514.43	31309.35
514.60	30920.82
514.77	30775.70
514.95	31400.63
515.12	30965.29
515.29	31180.62
515.47	31557.44
515.64	31810.22
515.81	31662.77
515.99	31424.03
516.16	31725.96
516.33	31665.11
516.51	32002.14
516.68	31505.95
516.85	31646.38
517.03	31527.02
517.20	31756.39
517.37	31805.54
517.54	32247.90
517.72	32102.79
517.89	32252.58
518.06	32388.33
518.24	32304.07
518.41	32126.19
518.58	32428.12
518.75	32268.97
518.93	32716.01
519.10	32856.44
519.27	32929.00
519.45	33017.94
519.62	32903.25
519.79	33523.49
519.96	33130.28
520.14	33605.41
520.31	32945.38
520.48	33635.84
520.65	33237.95
520.83	33956.49
521.00	33682.65
521.17	33743.50
521.34	33593.71
521.52	34155.44
521.69	34125.01
521.86	34057.14
522.03	34209.27
522.20	33975.22
522.38	33921.38
522.55	34171.82
522.72	34312.25
522.89	34066.50
523.07	34562.69
523.24	34466.73
523.41	34951.22
523.58	33930.75
523.75	34443.32
523.92	34532.26
524.10	35276.55
524.27	35208.68
524.44	35349.11
524.61	34998.03
524.78	34988.67
524.96	35227.40
525.13	35508.27
525.30	35742.32
525.47	35421.67
525.64	34820.15
525.81	35393.58
525.98	35274.21
526.16	35150.17
526.33	35168.89
526.50	35377.20
526.67	35379.54
526.84	35536.35
527.01	35442.73
527.18	35648.70
527.36	35662.74
527.53	35861.69
527.70	36460.87
527.87	36336.82
528.04	35948.29
528.21	35913.18
528.38	35819.56
528.55	36275.96
528.72	36278.30
528.89	36526.40
529.07	36886.84
529.24	35782.11
529.41	36568.53
529.58	36446.82
529.75	36395.33
529.92	36605.98
530.09	36617.68
530.26	36535.76
530.43	36662.15
530.60	36526.40
530.77	36512.36
530.94	37184.09
531.11	36912.59
531.28	37209.84
531.46	37137.28
531.63	36982.80
531.80	37209.84
531.97	37184.09
532.14	37179.41
532.31	36896.20
532.48	37500.06
532.65	37797.31
532.82	37617.09
532.99	37570.28
533.16	37591.34
533.33	37361.97
533.50	38321.59
533.67	37759.86
533.84	37357.29
534.01	38047.75
534.18	37783.27
534.35	38565.01
534.52	37968.17
534.69	38300.53
534.86	38169.46
535.03	37820.72
535.20	38162.43
535.37	38794.38
535.54	38684.37
535.71	38232.65
535.88	38504.15
536.05	38562.67
536.22	38469.04
536.38	39019.07
536.55	38602.46
536.72	38600.12
536.89	38347.34
537.06	38763.95
537.23	38684.37
537.40	38829.49
537.57	38539.26
537.74	38609.48
537.91	39096.31
538.08	38710.12
538.25	38583.73
538.42	39068.22
538.59	39201.63
538.75	38586.07
538.92	38880.98
539.09	39323.34
539.26	39117.37
539.43	39091.63
539.60	39421.64
539.77	39248.44
539.94	38990.98
540.11	39405.26
540.28	39552.71
540.44	39407.60
540.61	39267.17
540.78	38998.01
540.95	39428.66
541.12	39182.91
541.29	39618.25
541.46	39969.33
541.62	39452.07
541.79	40196.36
541.96	39412.28
542.13	39667.40
542.30	39861.66
542.47	39924.86
542.63	40112.10
542.80	39952.94
542.97	39962.31
543.14	40378.92
543.31	40774.47
543.48	40500.63
543.64	41022.57
543.81	40905.54
543.98	40493.61
544.15	40261.90
544.32	40460.84
544.48	41310.46
544.65	40975.76
544.82	40638.72
544.99	40666.81
545.16	40868.09
545.32	40739.36
545.49	41027.25
545.66	41240.24
545.83	40898.52
546.00	41563.23
546.16	41373.65
546.33	41387.69
546.50	40395.31
546.67	41120.87
546.83	40769.79
547.00	41635.79
547.17	41703.67
547.34	41474.29
547.50	40933.63
547.67	41593.66
547.84	41701.32
548.00	41909.63
548.17	41916.65
548.34	41684.94
548.51	42026.66
548.67	41848.78
548.84	41947.08
549.01	41706.01
549.18	41453.23
549.34	41879.21
549.51	42012.62
549.68	42038.36
549.84	42174.11
550.01	41991.55
550.18	41617.07
550.34	41806.65
550.51	41511.74
550.68	41380.67
550.84	41652.17
551.01	41764.52
551.18	41839.42
551.34	41759.84
551.51	42197.52
551.68	41893.25
551.84	42373.06
552.01	42026.66
552.18	42202.20
552.34	42085.17
552.51	42796.70
552.68	42747.54
552.84	42316.89
553.01	42667.97
553.18	42251.35
553.34	42630.52
553.51	42134.32
553.67	42438.59
553.84	42808.40
554.01	42962.87
554.17	43274.16
554.34	43257.78
554.51	42803.72
554.67	43054.15
554.84	42431.57
555.00	42541.58
555.17	42717.12
555.33	42642.22
555.50	42625.84
555.67	42696.05
555.83	43178.20
556.00	42576.69
556.16	43496.52
556.33	43115.01
556.50	43096.28
556.66	42684.35
556.83	42710.10
556.99	43157.14
557.16	43302.25
557.32	43253.10
557.49	43033.09
557.65	42665.63
557.82	42560.30
557.98	43007.34
558.15	43304.59
558.32	43454.39
558.48	43133.73
558.65	43115.01
558.81	43037.77
558.98	43332.68
559.14	43372.47
559.31	43634.61
559.47	43489.49
559.64	43566.73
559.80	43213.31
559.97	42960.53
560.13	43557.37
560.30	43482.47
560.46	43590.14
560.63	43606.52
560.79	43449.70
560.96	43658.01
561.12	43573.75
561.29	43690.78
561.45	44140.16
561.61	43112.67
561.78	43716.53
561.94	43421.62
562.11	43875.68
562.27	43744.61
562.44	43765.68
562.60	43545.67
562.77	44074.63
562.93	43714.19
563.10	43803.13
563.26	43716.53
563.42	44280.60
563.59	43931.86
563.75	43555.03
563.92	44371.88
564.08	43676.74
564.24	44201.02
564.41	43901.43
564.57	43962.28
564.74	43903.77
564.90	43908.45
565.07	44184.63
565.23	43950.58
565.39	43585.46
565.56	43576.09
565.72	43735.25
565.88	43824.19
566.05	43826.53
566.21	44266.55
566.38	43941.22
566.54	43978.67
566.70	44100.37
566.87	44034.84
567.03	44105.06
567.19	44601.25
567.36	44451.45
567.52	44128.46
567.68	44332.09
567.85	44126.12
568.01	44346.13
568.17	43833.55
568.34	44201.02
568.50	44341.45
568.66	43995.05
568.83	44582.52
568.99	43746.95
569.15	43723.55
569.32	43887.39
569.48	44041.86
569.64	44177.61
569.81	44315.70
569.97	44247.83
570.13	44137.82
570.30	44198.68
570.46	43702.48
570.62	43945.90
570.78	44020.80
570.95	44027.82
571.11	44491.24
571.27	44205.70
571.43	43913.13
571.60	44648.06
571.76	44292.30
571.92	44383.58
572.09	43950.58
572.25	44257.19
572.41	43885.04
572.57	44449.11
572.74	45057.65
572.90	44175.27
573.06	44690.19
573.22	44605.93
573.38	44406.98
573.55	44589.55
573.71	44451.45
573.87	44444.43
574.03	44332.09
574.20	44212.72
574.36	44760.40
574.52	44779.13
574.68	45036.59
574.84	44697.21
575.01	44582.52
575.17	44797.85
575.33	44168.25
575.49	44320.38
575.65	44542.74
575.82	44790.83
575.98	44767.43
576.14	44842.32
576.30	44645.72
576.46	44470.18
576.62	44210.38
576.79	44472.52
576.95	44605.93
577.11	44355.49
577.27	44657.42
577.43	44762.75
577.59	44655.08
577.75	44659.76
577.92	44158.89
578.08	44566.14
578.24	44449.11
578.40	44313.36
578.56	44669.12
578.72	44664.44
578.88	44818.92
579.04	44842.32
579.21	44545.08
579.37	44481.88
579.53	44493.58
579.69	44182.29
579.85	44526.35
580.01	44884.45
580.17	44938.29
580.33	44392.94
580.49	44823.60
580.65	44790.83
580.82	44470.18
580.98	44793.17
581.14	44484.22
581.30	44769.77
581.46	44507.63
581.62	44502.95
581.78	44329.75
581.94	44648.06
582.10	45134.89
582.26	44985.10
582.42	44329.75
582.58	44662.10
582.74	44296.98
582.90	44336.77
583.06	45249.58
583.22	45059.99
583.38	45120.85
583.54	44591.89
583.70	44889.13
583.86	44683.17
584.02	44072.29
584.18	44554.44
584.34	44514.65
584.50	44545.08
584.66	44786.15
584.82	44463.16
584.98	44987.44
585.14	44928.92
585.30	44746.36
585.46	44734.66
585.62	44498.26
585.78	44755.72
585.94	44208.04
586.10	44839.98
586.26	44678.49
586.42	44933.60
586.58	44692.53
586.74	44818.92
586.90	44502.95
587.06	44617.63
587.22	44643.38
587.38	44374.22
587.54	44875.09
587.70	44753.38
587.86	44861.05
588.02	44762.75
588.18	44886.79
588.34	45064.67
588.49	44666.78
588.65	44240.81
588.81	44451.45
588.97	44683.17
589.13	44781.47
589.29	44772.11
589.45	44779.13
589.61	44575.50
589.77	44973.39
589.93	44863.39
590.08	45322.13
590.24	45298.73
590.40	44933.60
590.56	44928.92
590.72	45249.58
590.88	44886.79
591.04	44917.22
591.20	45148.93
591.35	45263.62
591.51	45368.94
591.67	45118.51
591.83	45029.57
591.99	44690.19
592.15	44854.03
592.31	44877.43
592.46	44690.19
592.62	45055.31
592.78	44975.73
592.94	45251.92
593.10	45017.86
593.26	45301.07
593.41	45184.04
593.57	44921.90
593.73	45312.77
593.89	44704.23
594.05	44392.94
594.20	44692.53
594.36	44842.32
594.52	45134.89
594.68	45045.95
594.84	44975.73
594.99	45605.34
595.15	45111.49
595.31	45724.71
595.47	45170.00
595.62	45017.86
595.78	45050.63
595.94	45577.25
596.10	45034.25
596.25	45560.87
596.41	45034.25
596.57	45233.19
596.73	45357.24
596.88	44889.13
597.04	45081.06
597.20	45123.19
597.36	45382.99
597.51	45207.45
597.67	45364.26
597.83	45631.08
597.99	45577.25
598.14	45172.34
598.30	45125.53
598.46	45022.54
598.61	45162.98
598.77	44720.62
598.93	45069.36
599.09	45184.04
599.24	45528.10
599.40	45528.10
599.56	45397.03
599.71	45432.14
599.87	45151.27
600.03	45081.06
600.18	44961.69
600.34	45280.00
600.50	45464.91
600.65	44816.58
600.81	45621.72
600.97	45694.28
601.12	45427.46
601.28	45385.33
601.44	45109.14
601.59	44973.39
601.75	45102.12
601.91	45366.60
602.06	45097.44
602.22	45036.59
602.37	45179.36
602.53	45055.31
602.69	45371.28
602.84	45097.44
603.00	44954.67
603.16	45221.49
603.31	44938.29
603.47	45010.84
603.62	44577.84
603.78	45282.34
603.94	45022.54
604.09	45275.32
604.25	45237.87
604.40	45123.19
604.56	45223.83
604.71	45511.72
604.87	45277.66
605.03	45160.64
605.18	45420.44
605.34	45109.14
605.49	44959.35
605.65	45179.36
605.80	45099.78
605.96	45380.65
606.12	44879.77
606.27	45509.38
606.43	45329.16
606.58	44793.17
606.74	45048.29
606.89	45078.72
607.05	45277.66
607.20	45076.38
607.36	45001.48
607.51	45581.93
607.67	44914.88
607.82	44825.94
607.98	45118.51
608.13	44781.47
608.29	44671.46
608.44	44421.03
608.60	44975.73
608.75	44418.69
608.91	44552.10
609.06	44809.56
609.22	45170.00
609.37	44814.24
609.53	44296.98
609.68	44694.87
609.84	44540.39
609.99	44669.12
610.15	44547.42
610.30	44734.66
610.46	44102.71
610.61	44360.17
610.76	44460.82
610.92	44683.17
611.07	44594.23
611.23	44350.81
611.38	44741.68
611.54	44203.36
611.69	44737.00
611.84	44493.58
612.00	44318.04
612.15	44535.71
612.31	44308.68
612.46	44107.40
612.62	44282.94
612.77	44437.41
612.92	44285.28
613.08	44151.87
613.23	44893.82
613.39	44222.08
613.54	43772.70
613.69	44027.82
613.85	44238.47
614.00	44261.87
614.15	44505.29
614.31	44395.28
614.46	44498.26
614.62	44172.93
614.77	44069.95
614.92	44002.07
615.08	44308.68
615.23	43873.34
615.38	44086.33
615.54	44086.33
615.69	43480.13
615.84	43367.79
616.00	44095.69
616.15	43845.26
616.30	43976.33
616.46	43725.89
616.61	44119.10
616.76	44414.01
616.92	43629.93
617.07	43634.61
617.22	43459.07
617.37	43693.12
617.53	43749.29
617.68	43927.17
617.83	44112.08
617.99	44091.01
618.14	43709.50
618.29	43772.70
618.45	43201.61
618.60	43742.27
618.75	43608.86
618.90	44034.84
619.06	43934.20
619.21	43255.44
619.36	43924.83
619.51	43756.32
619.67	43271.82
619.82	43676.74
619.97	43562.05
620.12	43257.78
620.28	43274.16
620.43	43154.80
620.58	43456.73
620.73	43311.61
620.89	43056.50
621.04	43164.16
621.19	43058.84
621.34	43192.25
621.49	42967.55
621.65	42534.56
621.80	43049.47
621.95	43388.85
622.10	43470.77
622.25	43002.66
622.41	42852.87
622.56	42864.57
622.71	43110.33
622.86	42981.60
623.01	43178.20
623.16	42763.93
623.32	43262.46
623.47	43274.16
623.62	42948.83
623.77	42834.14
623.92	42876.27
624.07	42609.45
624.23	42866.91
624.38	42536.90
624.53	42312.20
624.68	42614.13
624.83	42368.38
624.98	42665.63
625.13	42499.45
625.29	42815.42
625.44	42670.31
625.59	42270.08
625.74	41860.48
625.89	42143.69
626.04	41806.65
626.19	42103.90
626.34	42412.85
626.49	42431.57
626.65	42256.03
626.80	42586.05
626.95	42401.14
627.10	42047.72
627.25	41926.02
627.40	42012.62
627.55	41902.61
627.70	41380.67
627.85	41940.06
628.00	42167.09
628.15	42080.49
628.30	41907.29
628.45	41813.67
628.60	41797.29
628.76	42267.73
628.91	41961.12
629.06	42298.16
629.21	41897.93
629.36	41343.22
629.51	41617.07
629.66	41708.35
629.81	41727.07
629.96	41408.76
630.11	41713.03
630.26	41668.56
630.41	41577.28
630.56	41663.88
630.71	41488.34
630.86	41495.36
631.01	41322.16
631.16	41900.27
631.31	40971.08
631.46	41249.60
631.61	41588.98
631.76	41134.92
631.91	41478.97
632.06	41097.47
632.21	41097.47
632.36	41640.47
632.51	41214.49
632.66	41340.88
632.81	40882.14
632.96	40968.74
633.10	40800.22
633.25	41195.77
633.40	41148.96
633.55	41333.86
633.70	41216.83
633.85	41553.87
634.00	41050.66
634.15	41092.79
634.30	41294.07
634.45	40893.84
634.60	41083.42
634.75	40872.78
634.90	40858.73
635.05	41153.64
635.19	40318.07
635.34	41085.76
635.49	40481.91
635.64	40634.04
635.79	40479.57
635.94	40678.51
636.09	40498.29
636.24	40327.43
636.39	40451.48
636.53	40601.27
636.68	40561.48
636.83	40240.83
636.98	40591.91
637.13	40076.99
637.28	40842.35
637.43	40638.72
637.57	40727.66
637.72	40500.63
637.87	40329.77
638.02	40739.36
638.17	39854.64
638.32	40123.80
638.46	39821.87
638.61	40165.93
638.76	40091.04
638.91	40568.51
639.06	39988.05
639.20	39885.07
639.35	40306.37
639.50	39915.50
639.65	40643.40
639.80	40151.89
639.94	40142.53
640.09	39768.04
640.24	39929.54
640.39	39599.52
640.54	39754.00
640.68	39868.69
640.83	39878.05
640.98	39681.44
641.13	39321.00
641.27	39826.56
641.42	39508.24
641.57	39728.25
641.72	39817.19
641.86	39124.40
642.01	39765.70
642.16	39498.88
642.31	39241.42
642.45	39763.36
642.60	39288.23
642.75	39548.03
642.90	39702.51
643.04	39276.53
643.19	39171.21
643.34	39536.33
643.48	39253.12
643.63	39489.52
643.78	39351.43
643.93	39262.49
644.07	38738.21
644.22	39185.25
644.37	39070.56
644.51	38976.94
644.66	38703.10
644.81	39473.13
644.95	39456.75
645.10	39194.61
645.25	39316.32
645.39	39360.79
645.54	38909.07
645.69	39122.05
645.83	38937.15
645.98	38988.64
646.13	39374.83
646.27	39328.02
646.42	39000.35
646.57	39122.05
646.71	38747.57
646.86	38972.26
647.00	39505.90
647.15	38976.94
647.30	39318.66
647.44	38792.04
647.59	38553.30
647.74	38721.82
647.88	38347.34
648.03	38455.00
648.17	38555.64
648.32	38422.23
648.47	38052.43
648.61	38342.66
648.76	38927.79
648.90	38375.42
649.05	38567.35
649.20	38574.37
649.34	38745.23
649.49	38274.78
649.63	38380.10
649.78	38403.51
649.92	37965.83
650.07	38417.55
650.21	38120.31
650.36	38190.52
650.51	38366.06
650.65	38775.66
650.80	38649.27
650.94	38609.48
651.09	38511.17
651.23	37811.35
651.38	37993.92
651.52	37949.45
651.67	38548.62
651.81	38284.14
651.96	37647.52
652.10	37769.22
652.25	37984.55
652.39	38150.73
652.54	37574.96
652.68	37874.55
652.83	38108.60
652.97	37801.99
653.12	37797.31
653.26	38012.64
653.41	37897.95
653.55	37909.66
653.70	37317.50
653.84	38223.29
653.99	37897.95
654.13	38134.35
654.27	37593.68
654.42	37336.23
654.56	37886.25
654.71	37621.77
654.85	37404.10
655.00	37467.30
655.14	37104.51
655.29	36858.76
655.43	37556.24
655.57	36917.27
655.72	36825.99
655.86	36907.91
656.01	36879.82
656.15	37167.71
656.30	36964.08
656.44	37237.92
656.58	36783.86
656.73	36847.05
656.87	36863.44
657.01	36741.73
657.16	36631.72
657.30	36800.24
657.45	36650.45
657.59	36573.21
657.73	36762.79
657.88	37123.24
658.02	36584.91
658.16	36992.17
658.31	36896.20
658.45	36870.46
658.60	36786.20
658.74	36800.24
658.88	36739.39
659.03	35852.33
659.17	36325.11
659.31	36458.52
659.46	36027.87
659.60	36580.23
659.74	36299.37
659.89	36051.27
660.03	36240.86
660.17	36217.45
660.32	36491.29
660.46	36336.82
660.60	36542.78
660.74	36041.91
660.89	35945.95
661.03	36002.12
661.17	35913.18
661.32	35503.59
661.46	35615.93
661.60	35536.35
661.74	35302.30
661.89	35857.01
662.03	35604.23
662.17	35517.63
662.31	35690.83
662.46	35917.86
662.60	35543.38
662.74	35693.17
662.88	35484.86
663.03	35421.67
663.17	35625.29
663.31	35215.70
663.45	35196.98
663.60	35349.11
663.74	35208.68
663.88	35096.33
664.02	35164.21
664.17	35070.59
664.31	34759.30
664.45	34625.89
664.59	35026.12
664.73	34836.53
664.88	34817.81
665.02	34293.53
665.16	34785.04
665.30	34576.73
665.44	34885.68
665.59	34141.39
665.73	34258.42
665.87	34129.69
666.01	34408.22
666.15	34359.06
666.29	34160.12
666.44	34251.40
666.58	34218.63
666.72	33797.34
666.86	34389.49
667.00	34169.48
667.14	33940.11
667.28	33776.27
667.43	33759.89
667.57	34031.39
667.71	33713.08
667.85	33717.76
667.99	33965.85
668.13	33298.80
668.27	33497.75
668.41	33633.50
668.56	33301.14
668.70	33614.77
668.84	33553.92
668.98	33198.16
669.12	33212.20
669.26	32926.66
669.40	33233.27
669.54	32914.95
669.68	33156.03
669.82	32961.76
669.96	32582.60
670.10	33062.41
670.25	32589.62
670.39	33188.80
670.53	32818.99
670.67	32554.51
670.81	32547.49
670.95	32774.52
671.09	32692.60
671.23	33027.30
671.37	32528.77
671.51	32032.57
671.65	31840.65
671.79	31644.04
671.93	32025.55
672.07	32154.28
672.21	32315.78
672.35	32067.68
672.49	32137.90
672.63	32189.39
672.77	31859.37
672.91	31796.18
673.05	31744.69
673.19	31442.76
673.33	31449.78
673.47	31512.97
673.61	31150.19
673.75	30876.35
673.89	31302.32
674.03	31182.96
674.17	31019.12
674.31	31328.07
674.45	30984.01
674.59	30951.24
674.73	31065.93
674.87	31084.65
675.01	30529.95
675.15	30974.65
675.29	30609.53
675.43	30721.87
675.56	30679.74
675.70	30448.03
675.84	30260.79
675.98	29109.24
676.12	30103.97
676.26	30099.29
676.40	30068.86
676.54	29912.05
676.68	29544.58
676.82	29219.25
676.96	29235.63
677.10	29692.04
677.23	29570.33
677.37	29106.90
677.51	29078.82
677.65	29322.23
677.79	29017.96
677.93	28914.98
678.07	28788.59
678.21	28814.34
678.34	28886.89
678.48	28341.55
678.62	28727.74
678.76	28395.38
678.90	28184.73
679.04	28570.92
679.18	28112.17
679.31	28013.87
679.45	27875.78
679.59	27814.93
679.73	27922.59
679.87	28386.02
680.00	27920.25
680.14	27812.59
680.28	27501.29
680.42	27278.94
680.56	27297.67
680.70	26972.33
680.83	27459.16
680.97	26754.66
681.11	26958.29
681.25	26618.91
681.39	26775.73
681.52	27040.21
681.66	26796.79
681.80	26993.40
681.94	26471.46
682.07	26632.96
682.21	26338.05
682.35	26326.35
682.49	26349.75
682.62	26136.76
682.76	25935.48
682.90	25825.47
683.04	25923.77
683.17	26209.32
683.31	25919.09
683.45	25736.53
683.59	25378.43
683.72	25399.49
683.86	24627.12
684.00	25303.53
684.13	25659.29
684.27	25333.96
684.41	25202.89
684.55	25268.42
684.68	24706.70
684.82	24910.32
684.96	24634.14
685.09	24524.13
685.23	24489.03
685.37	24861.17
685.50	24622.44
685.64	24482.00
685.78	24088.79
685.91	24154.33
686.05	24032.62
686.19	23721.33
686.32	23726.01
686.46	23861.76
686.60	23466.21
686.73	23681.54
686.87	23576.22
687.01	23541.11
687.14	23398.34
687.28	23157.26
687.42	23084.70
687.55	23019.17
687.69	22977.04
687.82	23047.26
687.96	22993.42
688.10	22452.76
688.23	22609.58
688.37	22480.85
688.50	21991.67
688.64	22340.41
688.78	22600.21
688.91	21970.61
689.05	22246.79
689.18	21790.39
689.32	21504.84
689.46	21708.47
689.59	21972.95
689.73	21839.54
689.86	21614.85
690.00	21755.28
690.13	21830.18
690.27	21757.62
690.41	21202.91
690.54	21228.66
690.68	21067.16
690.81	21111.63
690.95	21132.70
691.08	21120.99
691.22	21074.18
691.35	21071.84
691.49	20807.36
691.62	20966.52
691.76	20966.52
691.89	20709.06
692.03	20507.77
692.16	20329.89
692.30	20271.38
692.43	20189.46
692.57	20149.67
692.70	20102.86
692.84	20299.47
692.97	19756.46
693.11	19814.98
693.24	19838.38
693.38	19506.02
693.51	19517.73
693.65	19487.30
693.78	19337.51
693.92	19236.86
694.05	18972.38
694.19	18981.74
694.32	19236.86
694.45	19150.26
694.59	18998.13
694.72	18707.90
694.86	19002.81
694.99	18820.25
695.13	18441.08
695.26	18782.80
695.39	18274.90
695.53	18473.85
695.66	18326.39
695.80	18401.29
695.93	18176.60
696.07	17984.68
696.20	18317.03
696.33	18001.06
696.47	18291.29
696.60	17914.46
696.73	18218.73
696.87	17631.26
697.00	17872.33
697.14	17771.69
697.27	17675.73
697.40	17851.27
697.54	17465.08
697.67	17301.24
697.80	17474.44
697.94	17191.23
698.07	16982.93
698.21	17102.29
698.34	17076.55
698.47	17006.33
698.61	16451.63
698.74	16608.44
698.87	16531.20
699.01	16465.67
699.14	16187.14
699.27	16259.70
699.40	16533.54
699.54	15763.51
699.67	15761.17
699.80	16159.06
699.94	16020.97
700.07	16013.95
700.20	15934.37
700.34	15616.05
700.47	15592.65
700.60	15943.73
700.73	15777.55
700.87	15681.59
701.00	15417.11
701.13	15613.71
701.26	15246.25
701.40	15445.20
701.53	15112.84
701.66	15169.01
701.79	15171.35
701.93	14977.09
702.06	15044.96
702.19	14724.31
702.32	14775.80
702.46	14883.47
702.59	14801.55
702.72	14597.92
702.85	15044.96
702.99	14597.92
703.12	14635.37
703.25	14525.36
703.38	14558.13
703.51	14506.64
703.65	14415.36
703.78	14335.78
703.91	14092.37
704.04	13928.53
704.17	13893.42
704.31	13741.29
704.44	13902.78
704.57	13685.11
704.70	13544.68
704.83	13495.53
704.96	13481.49
705.10	13689.79
705.23	13554.04
>>>>>End Processed Spectral Data<<<<<
