SpectraSuite Data File
++++++++++++++++++++++++++++++++++++
Date: Fri Oct 25 10:48:35 EDT 2013
User: price-jones
Dark Spectrum Present: No
Reference Spectrum Present: No
Number of Sampled Component Spectra: 1
Spectrometers: USB2+H05261
Integration Time (usec): 100000 (USB2+H05261)
Spectra Averaged: 1 (USB2+H05261)
Boxcar Smoothing: 0 (USB2+H05261)
Correct for Electrical Dark: No (USB2+H05261)
Strobe/Lamp Enabled: No (USB2+H05261)
Correct for Detector Non-linearity: No (USB2+H05261)
Correct for Stray Light: No (USB2+H05261)
Number of Pixels in Processed Spectrum: 2048
>>>>>Begin Processed Spectral Data<<<<<
365.73	70.22
365.92	70.22
366.12	70.22
366.32	42.13
366.52	14.04
366.72	32.77
366.91	53.83
367.11	30.43
367.31	42.13
367.51	58.51
367.70	84.26
367.90	65.54
368.10	42.13
368.30	30.43
368.49	79.58
368.69	0.00
368.89	30.43
369.09	65.54
369.28	86.60
369.48	135.75
369.68	11.70
369.87	84.26
370.07	124.05
370.27	93.62
370.47	208.31
370.66	416.62
370.86	526.62
371.06	528.96
371.25	465.77
371.45	498.53
371.65	465.77
371.84	526.62
372.04	491.51
372.24	566.41
372.44	599.18
372.63	564.07
372.83	592.16
373.03	566.41
373.22	552.37
373.42	505.56
373.62	498.53
373.81	519.60
374.01	540.66
374.21	575.77
374.40	559.39
374.60	594.50
374.79	629.60
374.99	594.50
375.19	610.88
375.38	634.29
375.58	596.84
375.78	645.99
375.97	638.97
376.17	617.90
376.37	610.88
376.56	641.31
376.76	798.12
376.95	674.07
377.15	641.31
377.35	676.41
377.54	653.01
377.74	608.54
377.93	671.73
378.13	571.09
378.33	720.88
378.52	685.78
378.72	674.07
378.91	702.16
379.11	683.44
379.31	770.04
379.50	688.12
379.70	774.72
379.89	730.25
380.09	713.86
380.28	767.70
380.48	802.80
380.68	737.27
380.87	774.72
381.07	676.41
381.26	770.04
381.46	695.14
381.65	718.54
381.85	653.01
382.04	699.82
382.24	772.38
382.43	793.44
382.63	716.20
382.83	755.99
383.02	755.99
383.22	814.51
383.41	800.46
383.61	763.01
383.80	791.10
384.00	763.01
384.19	767.70
384.39	800.46
384.58	828.55
384.78	882.38
384.97	821.53
385.17	774.72
385.36	854.30
385.56	866.00
385.75	816.85
385.95	826.21
386.14	908.13
386.34	929.19
386.53	910.47
386.72	819.19
386.92	943.24
387.11	987.71
387.31	917.49
387.50	943.24
387.70	882.38
387.89	863.66
388.09	835.57
388.28	1001.75
388.48	943.24
388.67	1008.77
388.86	910.47
389.06	961.96
389.25	1025.15
389.45	1022.81
389.64	1008.77
389.84	976.00
390.03	1025.15
390.22	1039.20
390.42	1036.86
390.61	987.71
390.81	1100.05
391.00	1071.97
391.19	1104.73
391.39	1217.08
391.58	1184.31
391.78	1057.92
391.97	1114.10
392.16	1046.22
392.36	1158.57
392.55	947.92
392.75	1060.26
392.94	1050.90
393.13	1153.88
393.33	1053.24
393.52	1116.44
393.71	1149.20
393.91	1146.86
394.10	1048.56
394.29	1179.63
394.49	1212.40
394.68	1266.23
394.88	1280.27
395.07	1306.02
395.26	1287.29
395.46	1334.11
395.65	1310.70
395.84	1287.29
396.04	1334.11
396.23	1210.06
396.42	1174.95
396.62	1242.82
396.81	1275.59
397.00	1231.12
397.19	1301.34
397.39	1385.60
397.58	1397.30
397.77	1509.65
397.97	1582.20
398.16	1460.49
398.35	1668.80
398.55	1507.30
398.74	1631.35
398.93	1621.99
399.12	1577.52
399.32	1572.84
399.51	1577.52
399.70	1703.91
399.90	1624.33
400.09	1678.16
400.28	1713.27
400.47	1678.16
400.67	1668.80
400.86	1746.04
401.05	1811.57
401.24	1710.93
401.44	1912.22
401.63	1867.75
401.82	1790.51
402.01	1650.08
402.21	1769.44
402.40	1907.54
402.59	1849.02
402.78	1813.92
402.97	1947.33
403.17	1886.47
403.36	1867.75
403.55	1867.75
403.74	1916.90
403.93	2012.86
404.13	1937.96
404.32	2010.52
404.51	1959.03
404.70	2071.37
404.89	2019.88
405.09	2150.95
405.28	1984.77
405.47	2005.84
405.66	2059.67
405.85	2139.25
406.05	2120.53
406.24	2094.78
406.43	2101.80
406.62	2242.23
406.81	2244.57
407.00	2062.01
407.20	2160.31
407.39	2253.94
407.58	2069.03
407.77	2289.04
407.96	2335.85
408.15	2373.30
408.34	2338.20
408.54	2455.22
408.73	2609.70
408.92	2310.11
409.11	2455.22
409.30	2375.64
409.49	2387.35
409.68	2441.18
409.87	2415.43
410.07	2431.82
410.26	2502.03
410.45	2593.31
410.64	2537.14
410.83	2612.04
411.02	2644.81
411.21	2834.39
411.40	2628.42
411.59	2663.53
411.78	2726.72
411.98	2722.04
412.17	2766.51
412.36	2836.73
412.55	2806.30
412.74	2920.99
412.93	2794.60
413.12	2789.92
413.31	2953.76
413.50	2949.08
413.69	2939.71
413.88	3066.10
414.07	3089.51
414.26	3009.93
414.45	3138.66
414.64	3143.34
414.83	3283.77
415.02	3321.22
415.22	3136.32
415.41	3185.47
415.60	3311.86
415.79	3445.27
415.98	3297.81
416.17	3445.27
416.36	3323.56
416.55	3232.28
416.74	3522.51
416.93	3435.91
417.12	3531.87
417.31	3482.72
417.50	3602.08
417.69	3702.73
417.88	3623.15
418.07	3529.53
418.26	3655.92
418.45	3555.27
418.64	3857.20
418.83	3691.02
419.02	3754.22
419.21	3740.18
419.39	3735.50
419.58	3590.38
419.77	3693.37
419.96	3772.94
420.15	3845.50
420.34	3730.81
420.53	3822.09
420.72	4060.83
420.91	3988.27
421.10	3962.53
421.29	4018.70
421.48	3941.46
421.67	4070.19
421.86	4037.42
422.05	3918.06
422.24	3936.78
422.43	3976.57
422.61	3999.98
422.80	4145.09
422.99	3847.84
423.18	4138.07
423.37	4077.21
423.56	4028.06
423.75	3974.23
423.94	3920.40
424.13	3885.29
424.32	3941.46
424.50	4138.07
424.69	4259.78
424.88	4203.60
425.07	3976.57
425.26	4067.85
425.45	4126.36
425.64	4121.68
425.83	4135.73
426.01	4112.32
426.20	4152.11
426.39	4208.28
426.58	4198.92
426.77	4032.74
426.96	4208.28
427.15	4227.01
427.33	4332.33
427.52	4224.67
427.71	4320.63
427.90	4348.72
428.09	4215.30
428.28	4339.35
428.46	4243.39
428.65	4322.97
428.84	4369.78
429.03	4407.23
429.22	4337.01
429.40	4362.76
429.59	4140.41
429.78	4142.75
429.97	4037.42
430.16	4163.81
430.34	4325.31
430.53	4374.46
430.72	4318.29
430.91	4339.35
431.10	4491.49
431.28	4791.08
431.47	4690.43
431.66	4713.84
431.85	4725.54
432.03	4849.59
432.22	4802.78
432.41	4952.57
432.60	4823.84
432.79	4880.02
432.97	5100.03
433.16	5018.11
433.35	4730.22
433.54	5041.51
433.72	4835.55
433.91	4929.17
434.10	4952.57
434.28	4863.63
434.47	5015.77
434.66	5088.32
434.85	5151.52
435.03	5088.32
435.22	5050.88
435.41	5313.02
435.59	5254.50
435.78	5277.91
435.97	5474.51
436.16	5329.40
436.34	5397.28
436.53	5432.38
436.72	5462.81
436.90	5315.36
437.09	5352.81
437.28	5280.25
437.46	5385.57
437.65	5441.75
437.84	5617.29
438.02	5301.31
438.21	5334.08
438.40	5296.63
438.58	5607.92
438.77	5682.82
438.96	5645.37
439.14	5753.04
439.33	5846.66
439.52	5696.86
439.70	5806.87
439.89	5888.79
440.08	5951.98
440.26	5867.72
440.45	5970.71
440.63	5975.39
440.82	6289.02
441.01	6193.06
441.19	6143.91
441.38	6284.34
441.57	6490.31
441.75	6366.26
441.94	6541.80
442.12	6558.18
442.31	6630.74
442.50	6593.29
442.68	6469.24
442.87	6705.63
443.05	6600.31
443.24	6799.26
443.43	6686.91
443.61	6670.53
443.80	7028.63
443.98	6682.23
444.17	6410.73
444.35	6698.61
444.54	7049.69
444.73	6539.46
444.91	6736.06
445.10	6913.94
445.28	6820.32
445.47	6780.53
445.65	6787.55
445.84	6785.21
446.02	6984.16
446.21	6888.20
446.39	6834.36
446.58	6853.09
446.77	6778.19
446.95	6967.77
447.14	6967.77
447.32	6967.77
447.51	6895.22
447.69	6822.66
447.88	7033.31
448.06	6717.34
448.25	6981.82
448.43	6988.84
448.62	7012.24
448.80	6888.20
448.99	7253.32
449.17	7162.04
449.36	7140.97
449.54	7122.25
449.73	7393.75
449.91	7419.50
450.10	7379.71
450.28	7445.24
450.46	7356.30
450.65	7473.33
450.83	7332.90
451.02	7494.40
451.20	7672.28
451.39	7522.48
451.57	7377.37
451.76	7424.18
451.94	7583.34
452.13	7557.59
452.31	7494.40
452.49	7255.66
452.68	7576.31
452.86	7623.12
453.05	7651.21
453.23	7754.19
453.42	7606.74
453.60	7667.60
453.78	7868.88
453.97	7772.92
454.15	7817.39
454.34	7555.25
454.52	7754.19
454.70	7648.87
454.89	7737.81
455.07	7803.35
455.26	7784.62
455.44	8203.58
455.62	7964.84
455.81	8023.36
455.99	7999.95
456.17	8100.59
456.36	8166.13
456.54	8308.90
456.73	8325.29
456.91	8517.21
457.09	8428.27
457.28	8615.51
457.46	8290.18
457.64	8482.10
457.83	8283.16
458.01	8369.76
458.19	8549.98
458.38	8552.32
458.56	8732.54
458.74	8559.34
458.93	8425.93
459.11	8486.78
459.29	8542.96
459.48	8634.24
459.66	8669.34
459.84	8781.69
460.03	8798.07
460.21	8936.17
460.39	8709.13
460.57	8821.48
460.76	8861.27
460.94	8917.44
461.12	8973.61
461.31	8842.54
461.49	8910.42
461.67	9015.74
461.85	9053.19
462.04	9085.96
462.22	9533.00
462.40	9200.65
462.59	9277.88
462.77	9118.73
462.95	9305.97
463.13	9355.12
463.32	9404.27
463.50	9462.79
463.68	9305.97
463.86	9317.67
464.05	9193.62
464.23	9453.42
464.41	9401.93
464.59	9238.09
464.78	9399.59
464.96	9455.76
465.14	9420.66
465.32	9589.17
465.50	9757.69
465.69	9640.67
465.87	9383.21
466.05	9415.98
466.23	9268.52
466.41	9521.30
466.60	9830.25
466.78	9680.46
466.96	9715.56
467.14	9579.81
467.32	9774.08
467.51	9863.02
467.69	9549.39
467.87	9565.77
468.05	10085.37
468.23	9760.03
468.41	9802.16
468.60	9898.13
468.78	10017.49
468.96	9951.96
469.14	10132.18
469.32	10019.83
469.50	9755.35
469.69	10132.18
469.87	10073.67
470.05	10132.18
470.23	10099.41
470.41	10012.81
470.59	10436.45
470.77	10125.16
470.95	10485.60
471.14	10338.15
471.32	10209.42
471.50	10881.15
471.68	10583.90
471.86	10789.87
472.04	10787.53
472.22	10827.32
472.40	10562.84
472.58	10546.45
472.77	10806.25
472.95	10944.34
473.13	11243.93
473.31	10991.16
473.49	10864.77
473.67	11122.23
473.85	11183.08
474.03	11239.25
474.21	11468.62
474.39	11468.62
474.57	11452.24
474.75	11808.00
474.93	11534.16
475.12	11482.67
475.30	11815.02
475.48	11775.24
475.66	11880.56
475.84	11602.04
476.02	11723.74
476.20	11737.79
476.38	12233.98
476.56	12283.13
476.74	12388.46
476.92	11999.93
477.10	12400.16
477.28	12463.35
477.46	12587.40
477.64	12692.73
477.82	12973.59
478.00	13055.51
478.18	13132.75
478.36	13057.85
478.54	13418.29
478.72	13378.50
478.90	13378.50
479.08	13540.00
479.26	13841.93
479.44	13530.64
479.62	13652.34
479.80	13699.16
479.98	14033.85
480.16	14305.35
480.34	14075.98
480.52	14150.88
480.70	14270.25
480.88	14303.01
481.06	14462.17
481.24	14352.16
481.41	14796.87
481.59	15040.28
481.77	15147.95
481.95	14808.57
482.13	15269.66
482.31	14974.75
482.49	15379.66
482.67	15403.07
482.85	15494.35
483.03	15576.27
483.21	15793.94
483.39	16058.42
483.57	15793.94
483.74	16126.29
483.92	16402.47
484.10	16273.74
484.28	16507.80
484.46	16683.34
484.64	17106.98
484.82	16865.90
485.00	16879.94
485.18	16828.45
485.35	16706.74
485.53	16786.32
485.71	16776.96
485.89	17064.85
486.07	17043.78
486.25	17207.62
486.43	17427.63
486.61	17799.77
486.78	17956.59
486.96	18169.58
487.14	18501.93
487.32	18349.80
487.50	18272.56
487.68	19080.05
487.85	18743.01
488.03	19248.57
488.21	19145.58
488.39	19180.69
488.57	19641.78
488.75	19503.68
488.92	19569.22
489.10	20107.54
489.28	20130.95
489.46	20489.05
489.64	20208.19
489.81	20592.03
489.99	20800.34
490.17	20889.28
490.35	21144.40
490.53	21111.63
490.70	20964.18
490.88	21081.21
491.06	21762.30
491.24	21420.58
491.41	21781.03
491.59	21654.64
491.77	21387.82
491.95	21858.26
492.13	22342.75
492.30	22431.69
492.48	22539.36
492.66	22728.94
492.84	22607.23
493.01	23051.94
493.19	22986.40
493.37	23241.52
493.54	22998.10
493.72	23660.48
493.90	23381.95
494.08	23571.54
494.25	24339.23
494.43	24205.82
494.61	24205.82
494.79	24203.48
494.96	24245.61
495.14	24500.73
495.32	24631.80
495.49	24627.12
495.67	24826.06
495.85	25230.98
496.02	25170.12
496.20	25127.99
496.38	25226.29
496.55	25371.41
496.73	25905.05
496.91	25841.85
497.09	25750.57
497.26	25781.00
497.44	25759.94
497.62	26272.51
497.79	26218.68
497.97	26143.78
498.14	26452.73
498.32	26714.87
498.50	26834.24
498.67	26824.88
498.85	26862.33
499.03	27236.81
499.20	26972.33
499.38	27108.08
499.56	27328.10
499.73	27304.69
499.91	27615.98
500.08	27681.52
500.26	27072.98
500.44	27461.51
500.61	28070.04
500.79	27768.12
500.97	27793.86
501.14	28266.65
501.32	28065.36
501.49	28196.43
501.67	28535.81
501.84	28570.92
502.02	28465.60
502.20	28821.36
502.37	28379.00
502.55	29020.30
502.72	29132.65
502.90	29303.51
503.07	29006.26
503.25	29415.85
503.43	28912.64
503.60	28971.15
503.78	29134.99
503.95	29301.17
504.13	29645.23
504.30	29516.50
504.48	29589.05
504.65	29963.54
504.83	30319.30
505.01	30059.50
505.18	30291.21
505.36	30553.35
505.53	30696.13
505.71	30602.50
505.88	30529.95
506.06	30511.22
506.23	30682.08
506.41	30431.65
506.58	30902.09
506.76	31087.00
506.93	31098.70
507.11	31161.89
507.28	31096.36
507.46	30785.07
507.63	31087.00
507.81	31456.80
507.98	31285.94
508.16	31353.82
508.33	31630.00
508.50	31491.91
508.68	31786.82
508.85	32229.18
509.03	32245.56
509.20	32212.79
509.38	32280.67
509.55	32236.20
509.73	32311.10
509.90	32390.67
510.08	32828.35
510.25	32547.49
510.42	32847.08
510.60	32875.16
510.77	33071.77
510.95	33347.95
511.12	32966.45
511.30	33329.23
511.47	33577.33
511.64	33350.29
511.82	33670.95
511.99	33333.91
512.17	33731.80
512.34	33123.26
512.51	33628.82
512.69	33567.96
512.86	33387.74
513.04	33940.11
513.21	33991.60
513.38	34012.66
513.56	33979.90
513.73	33708.40
513.90	34132.03
514.08	34691.42
514.25	34398.85
514.43	34040.75
514.60	34483.11
514.77	34237.36
514.95	34635.25
515.12	34852.92
515.29	34646.95
515.47	35349.11
515.64	35330.39
515.81	34974.63
515.99	34979.31
516.16	35150.17
516.33	34588.44
516.51	34710.14
516.68	34426.94
516.85	34354.38
517.03	34572.05
517.20	35049.52
517.37	35360.81
517.54	35395.92
517.72	34974.63
517.89	35180.59
518.06	35604.23
518.24	35058.88
518.41	35428.69
518.58	35531.67
518.75	35562.10
518.93	36418.74
519.10	35424.01
519.27	36215.11
519.45	36400.01
519.62	36687.90
519.79	36863.44
519.96	36446.82
520.14	36903.23
520.31	36180.00
520.48	36994.51
520.65	36776.84
520.83	37247.29
521.00	37570.28
521.17	37296.44
521.34	36823.65
521.52	37537.51
521.69	37464.96
521.86	37670.92
522.03	37574.96
522.20	37804.33
522.38	37141.96
522.55	37748.16
522.72	37750.50
522.89	37549.21
523.07	37858.17
523.24	37837.10
523.41	38157.75
523.58	37937.74
523.75	38263.08
523.92	38499.47
524.10	38480.75
524.27	38412.87
524.44	38543.94
524.61	38452.66
524.78	38536.92
524.96	38717.14
525.13	38656.29
525.30	39096.31
525.47	39676.76
525.64	39115.03
525.81	38974.60
525.98	38827.15
526.16	38459.68
526.33	38394.15
526.50	38651.61
526.67	38265.42
526.84	38827.15
527.01	38803.74
527.18	39058.86
527.36	39189.93
527.53	39419.30
527.70	39168.87
527.87	39908.47
528.04	39393.56
528.21	39849.96
528.38	39997.41
528.55	39941.24
528.72	40498.29
528.89	40203.38
529.07	40210.40
529.24	39583.14
529.41	39777.40
529.58	40147.21
529.75	40346.15
529.92	40718.30
530.09	40348.50
530.26	40355.52
530.43	40830.65
530.60	40383.60
530.77	40832.99
530.94	40811.92
531.11	40823.62
531.28	41291.73
531.46	40680.85
531.63	40402.33
531.80	40840.01
531.97	41003.85
532.14	40987.46
532.31	40245.51
532.48	40971.08
532.65	41027.25
532.82	40910.22
532.99	41331.52
533.16	41165.34
533.33	41202.79
533.50	41343.22
533.67	41532.81
533.84	41294.07
534.01	41357.27
534.18	41305.77
534.35	41738.77
534.52	41464.93
534.69	41923.68
534.86	41900.27
535.03	41691.96
535.20	42363.70
535.37	42536.90
535.54	42370.72
535.71	42258.37
535.88	42094.53
536.05	42157.73
536.22	42176.45
536.38	41832.39
536.55	42429.23
536.72	42014.96
536.89	41661.54
537.06	42213.90
537.23	42417.53
537.40	42277.10
537.57	42550.94
537.74	42424.55
537.91	42799.04
538.08	42298.16
538.25	42260.71
538.42	42347.31
538.59	42747.54
538.75	42368.38
538.92	43082.24
539.09	42806.06
539.26	42436.25
539.43	42604.77
539.60	42464.34
539.77	42862.23
539.94	42852.87
540.11	42581.37
540.28	42265.39
540.44	42731.16
540.61	42635.20
540.78	42803.72
540.95	42962.87
541.12	42864.57
541.29	42918.40
541.46	43213.31
541.62	42682.01
541.79	43416.94
541.96	43187.56
542.13	43320.98
542.30	43150.12
542.47	43290.55
542.63	43831.21
542.80	43501.20
542.97	43821.85
543.14	44250.17
543.31	44161.23
543.48	44168.25
543.64	44524.01
543.81	44105.06
543.98	44133.14
544.15	43995.05
544.32	44002.07
544.48	44729.98
544.65	44158.89
544.82	44264.21
544.99	43782.06
545.16	44254.85
545.32	44037.18
545.49	44268.89
545.66	44767.43
545.83	44149.53
546.00	44392.94
546.16	44526.35
546.33	44446.77
546.50	44339.11
546.67	44404.64
546.83	43730.57
547.00	44268.89
547.17	44474.86
547.34	44322.72
547.50	44538.05
547.67	44854.03
547.84	44659.76
548.00	44760.40
548.17	45350.22
548.34	44807.22
548.51	45289.37
548.67	45146.59
548.84	45029.57
549.01	44858.71
549.18	44802.53
549.34	45298.73
549.51	45392.35
549.68	45621.72
549.84	45787.90
550.01	45195.74
550.18	45228.51
550.34	45287.03
550.51	44643.38
550.68	45244.90
550.84	45034.25
551.01	45443.84
551.18	45619.38
551.34	45659.17
551.51	45280.00
551.68	45750.45
551.84	45574.91
552.01	45776.20
552.18	45528.10
552.34	45553.85
552.51	45783.22
552.68	45432.14
552.84	45890.88
553.01	46115.58
553.18	45883.86
553.34	45593.64
553.51	45776.20
553.67	46087.49
553.84	46005.57
554.01	45961.10
554.17	46071.10
554.34	46356.65
554.51	46115.58
554.67	46256.01
554.84	45963.44
555.00	46026.63
555.17	46043.02
555.33	46232.60
555.50	46330.90
555.67	45993.87
555.83	46092.17
556.00	46403.46
556.16	46649.22
556.33	46595.38
556.50	46347.29
556.66	46300.48
556.83	46064.08
556.99	45900.25
557.16	46302.82
557.32	46593.04
557.49	46562.62
557.65	46230.26
557.82	46087.49
557.98	46330.90
558.15	46806.03
558.32	46651.56
558.48	46190.47
558.65	46377.72
558.81	46260.69
558.98	46623.47
559.14	46443.25
559.31	46253.67
559.47	46677.30
559.64	47215.63
559.80	46548.57
559.97	46658.58
560.13	46609.43
560.30	46480.70
560.46	46316.86
560.63	46787.31
560.79	46586.02
560.96	46885.61
561.12	46555.60
561.29	46588.36
561.45	47070.51
561.61	46700.71
561.78	46838.80
561.94	46401.12
562.11	47019.02
562.27	46981.57
562.44	46609.43
562.60	47063.49
562.77	46869.23
562.93	46705.39
563.10	47173.50
563.26	46471.34
563.42	47159.45
563.59	46880.93
563.75	46850.50
563.92	47033.07
564.08	47220.31
564.24	47196.90
564.41	46958.17
564.57	47164.14
564.74	47234.35
564.90	47182.86
565.07	47026.04
565.23	46656.24
565.39	47208.61
565.56	47107.96
565.72	46873.91
565.88	47147.75
566.05	46803.69
566.21	47103.28
566.38	47114.98
566.54	47351.38
566.70	47243.71
566.87	47477.77
567.03	46932.42
567.19	47435.64
567.36	47110.30
567.52	47096.26
567.68	47395.85
567.85	46740.50
568.01	47203.92
568.17	46939.44
568.34	47552.66
568.50	47030.72
568.66	46848.16
568.83	47487.13
568.99	47161.79
569.15	47012.00
569.32	47079.88
569.48	47093.92
569.64	47576.07
569.81	47318.61
569.97	47019.02
570.13	46848.16
570.30	46773.27
570.46	46784.97
570.62	46780.29
570.78	46593.04
570.95	46511.13
571.11	47119.66
571.27	47004.98
571.43	47229.67
571.60	47208.61
571.76	47222.65
571.92	47192.22
572.09	47297.55
572.25	47126.69
572.41	46892.63
572.57	47327.97
572.74	47852.25
572.90	47421.59
573.06	47576.07
573.22	47391.17
573.38	47203.92
573.55	47217.97
573.71	47646.29
573.87	47339.68
574.03	47070.51
574.20	47253.08
574.36	47175.84
574.52	47449.68
574.68	47524.58
574.84	47433.30
575.01	47744.59
575.17	47533.94
575.33	47796.08
575.49	47512.88
575.65	47873.32
575.82	47384.15
575.98	47564.37
576.14	47524.58
576.30	47688.42
576.46	47360.74
576.62	47000.30
576.79	47529.26
576.95	46635.17
577.11	47093.92
577.27	47440.32
577.43	47367.76
577.59	46983.91
577.75	47239.03
577.92	46909.02
578.08	47023.70
578.24	47126.69
578.40	47379.46
578.56	47084.56
578.72	46937.10
578.88	47611.18
579.04	47468.40
579.21	47316.27
579.37	47388.83
579.53	47337.33
579.69	47367.76
579.85	47547.98
580.01	47576.07
580.17	47283.50
580.33	47285.84
580.49	47753.95
580.65	47861.61
580.82	47302.23
580.98	47374.78
581.14	47430.96
581.30	47400.53
581.46	47550.32
581.62	47545.64
581.78	47407.55
581.94	47704.80
582.10	47578.41
582.26	47449.68
582.42	47580.75
582.58	47763.31
582.74	47445.00
582.90	47480.11
583.06	47667.35
583.22	47365.42
583.38	47870.98
583.54	47657.99
583.70	47398.19
583.86	47606.50
584.02	47480.11
584.18	47573.73
584.34	47241.37
584.50	47501.17
584.66	47491.81
584.82	47650.97
584.98	47870.98
585.14	47496.49
585.30	47569.05
585.46	47232.01
585.62	47381.80
585.78	47342.02
585.94	46754.54
586.10	47264.78
586.26	47201.58
586.42	47152.43
586.58	47885.02
586.74	47941.19
586.90	47786.72
587.06	47508.19
587.22	47512.88
587.38	47122.01
587.54	47796.08
587.70	47859.27
587.86	47437.98
588.02	47686.07
588.18	47704.80
588.34	47330.31
588.49	46815.40
588.65	46920.72
588.81	46934.76
588.97	46972.21
589.13	46960.51
589.29	47124.35
589.45	47215.63
589.61	46796.67
589.77	47643.94
589.93	47639.26
590.08	47372.44
590.24	47416.91
590.40	47744.59
590.56	47978.64
590.72	47842.89
590.88	47449.68
591.04	47789.06
591.20	47950.56
591.35	47716.50
591.51	47840.55
591.67	47580.75
591.83	47697.78
591.99	47217.97
592.15	47339.68
592.31	47082.22
592.46	47512.88
592.62	47576.07
592.78	47711.82
592.94	47840.55
593.10	47622.88
593.26	47496.49
593.41	47576.07
593.57	47269.46
593.73	47138.39
593.89	47882.68
594.05	47299.89
594.20	47716.50
594.36	47386.49
594.52	47838.21
594.68	47477.77
594.84	48154.18
594.99	47669.69
595.15	47323.29
595.31	47791.40
595.47	47714.16
595.62	47697.78
595.78	47732.89
595.94	47824.17
596.10	48273.55
596.25	47819.49
596.41	47835.87
596.57	47538.62
596.73	47941.19
596.88	47346.70
597.04	47646.29
597.20	47948.21
597.36	47599.47
597.51	47702.46
597.67	47845.23
597.83	47749.27
597.99	47557.35
598.14	47667.35
598.30	47648.63
598.46	47033.07
598.61	47437.98
598.77	47449.68
598.93	47569.05
599.09	47517.56
599.24	48004.39
599.40	47952.90
599.56	47845.23
599.71	47852.25
599.87	48053.54
600.03	47660.33
600.18	47681.39
600.34	47320.95
600.50	47636.92
600.65	47824.17
600.81	47566.71
600.97	47920.13
601.12	47971.62
601.28	47688.42
601.44	47454.36
601.59	47297.55
601.75	47381.80
601.91	47566.71
602.06	47943.53
602.22	47629.90
602.37	47580.75
602.53	47372.44
602.69	47924.81
602.84	47758.63
603.00	47262.44
603.16	47337.33
603.31	47814.80
603.47	47672.03
603.62	47393.51
603.78	47657.99
603.94	47697.78
604.09	48037.16
604.25	47367.76
604.40	47805.44
604.56	47758.63
604.71	47957.58
604.87	47707.14
605.03	47356.06
605.18	47573.73
605.34	47295.21
605.49	47597.13
605.65	47484.79
605.80	47473.09
605.96	47442.66
606.12	47592.45
606.27	48023.11
606.43	47498.83
606.58	47510.53
606.74	47463.72
606.89	47459.04
607.05	47433.30
607.20	47456.70
607.36	47477.77
607.51	47714.16
607.67	47786.72
607.82	47372.44
607.98	47077.54
608.13	47381.80
608.29	47309.25
608.44	46948.81
608.60	46745.18
608.75	47157.11
608.91	46890.29
609.06	47386.49
609.22	47246.05
609.37	46909.02
609.53	47236.69
609.68	47274.14
609.84	47063.49
609.99	47510.53
610.15	47049.45
610.30	46391.76
610.46	46642.20
610.61	47033.07
610.76	47330.31
610.92	47051.79
611.07	46681.98
611.23	46742.84
611.38	46649.22
611.54	46600.07
611.69	46873.91
611.84	46902.00
612.00	46672.62
612.15	46553.26
612.31	46770.93
612.46	46817.74
612.62	47093.92
612.77	47096.26
612.92	46801.35
613.08	46438.57
613.23	46637.51
613.39	46553.26
613.54	46396.44
613.69	46174.09
613.85	46752.20
614.00	46733.48
614.15	46721.77
614.31	46817.74
614.46	47037.75
614.62	46358.99
614.77	46639.86
614.92	46579.00
615.08	46836.46
615.23	46211.54
615.38	46347.29
615.54	46497.08
615.69	46057.06
615.84	45869.82
616.00	46160.05
616.15	46389.42
616.30	46691.35
616.46	46005.57
616.61	45764.49
616.76	45839.39
616.92	46234.94
617.07	46057.06
617.22	45745.77
617.37	45661.51
617.53	46078.13
617.68	46059.40
617.83	46146.00
617.99	46298.14
618.14	45963.44
618.29	45776.20
618.45	45647.47
618.60	45883.86
618.75	45532.78
618.90	45790.24
619.06	46213.88
619.21	46092.17
619.36	45947.06
619.51	45621.72
619.67	45399.37
619.82	45633.42
619.97	45900.25
620.12	45902.59
620.28	45701.30
620.43	45621.72
620.58	45734.07
620.73	45595.98
620.89	45443.84
621.04	45759.81
621.19	45593.64
621.34	46120.26
621.49	45188.72
621.65	45406.39
621.80	45301.07
621.95	45111.49
622.10	45209.79
622.25	45345.54
622.41	44889.13
622.56	45223.83
622.71	45027.23
622.86	45352.56
623.01	45174.68
623.16	45605.34
623.32	44933.60
623.47	44931.26
623.62	45214.47
623.77	45092.76
623.92	45127.87
624.07	44900.84
624.23	44694.87
624.38	44687.85
624.53	44905.52
624.68	44781.47
624.83	44762.75
624.98	44561.46
625.13	44456.14
625.29	45041.27
625.44	44573.16
625.59	44144.84
625.74	44369.54
625.89	44524.01
626.04	44259.53
626.19	44526.35
626.34	44521.67
626.49	44596.57
626.65	44442.09
626.80	44306.34
626.95	44273.57
627.10	44102.71
627.25	44524.01
627.40	44346.13
627.55	43658.01
627.70	43828.87
627.85	43569.07
628.00	43889.73
628.15	44107.40
628.30	44137.82
628.45	44151.87
628.60	44046.54
628.76	43990.37
628.91	43878.02
629.06	43639.29
629.21	43833.55
629.36	43924.83
629.51	43608.86
629.66	43744.61
629.81	43248.42
629.96	43543.33
630.11	43758.66
630.26	43686.10
630.41	43964.62
630.56	43725.89
630.71	43681.42
630.86	43292.89
631.01	43328.00
631.16	43557.37
631.31	43494.18
631.46	43260.12
631.61	43454.39
631.76	43510.56
631.91	43351.40
632.06	43655.67
632.21	43503.54
632.36	43379.49
632.51	43035.43
632.66	43756.32
632.81	43297.57
632.96	43784.40
633.10	42864.57
633.25	42831.80
633.40	43077.56
633.55	43246.08
633.70	43199.27
633.85	42955.85
634.00	42728.82
634.15	42960.53
634.30	42878.61
634.45	42674.99
634.60	42773.29
634.75	42780.31
634.90	43358.42
635.05	42740.52
635.19	42653.92
635.34	43129.05
635.49	42866.91
635.64	42527.53
635.79	42703.07
635.94	42260.71
636.09	42234.97
636.24	42567.32
636.39	42906.70
636.53	42469.02
636.68	42075.81
636.83	42085.17
636.98	42490.09
637.13	42684.35
637.28	43255.44
637.43	42792.01
637.57	42073.47
637.72	42391.78
637.87	42782.65
638.02	42508.81
638.17	42220.92
638.32	41900.27
638.46	41647.49
638.61	42230.29
638.76	41991.55
638.91	42291.14
639.06	42124.96
639.20	42286.46
639.35	42202.20
639.50	41895.59
639.65	42148.37
639.80	42211.56
639.94	42064.11
640.09	42178.79
640.24	41462.59
640.39	41837.08
640.54	41563.23
640.68	42045.38
640.83	41811.33
640.98	41509.40
641.13	41666.22
641.27	42279.44
641.42	41572.60
641.57	41387.69
641.72	41495.36
641.86	41226.20
642.01	41596.00
642.16	41727.07
642.31	41207.47
642.45	41743.45
642.60	41057.68
642.75	41378.33
642.90	41783.24
643.04	41387.69
643.19	41560.89
643.34	41158.32
643.48	41757.50
643.63	40947.67
643.78	41361.95
643.93	40985.12
644.07	40978.10
644.22	41280.03
644.37	40825.96
644.51	40767.45
644.66	41153.64
644.81	41216.83
644.95	40851.71
645.10	40818.94
645.25	41050.66
645.39	40816.60
645.54	40933.63
645.69	41125.55
645.83	40905.54
645.98	40935.97
646.13	40570.85
646.27	40872.78
646.42	40802.56
646.57	40622.34
646.71	41041.29
646.86	40631.70
647.00	40790.86
647.15	40622.34
647.30	40694.89
647.44	40336.79
647.59	40414.03
647.74	40634.04
647.88	40444.46
648.03	40402.33
648.17	40308.71
648.32	39988.05
648.47	40472.54
648.61	40151.89
648.76	40053.59
648.90	40297.00
649.05	40748.73
649.20	40259.55
649.34	40006.78
649.49	40037.20
649.63	39938.90
649.78	39742.30
649.92	40184.66
650.07	40524.04
650.21	40109.76
650.36	40086.36
650.51	39711.87
650.65	40421.05
650.80	40231.47
650.94	40355.52
651.09	40336.79
651.23	39725.91
651.38	39253.12
651.52	39363.13
651.67	40423.39
651.81	39957.63
651.96	39768.04
652.10	39931.88
652.25	39414.62
652.39	39749.32
652.54	39735.27
652.68	39981.03
652.83	39805.49
652.97	39643.99
653.12	39906.13
653.26	39463.77
653.41	39496.54
653.55	39590.16
653.70	39459.09
653.84	39768.04
653.99	39723.57
654.13	39536.33
654.27	39096.31
654.42	39594.84
654.56	39110.35
654.71	39014.39
654.85	39196.95
655.00	39269.51
655.14	39152.48
655.29	38735.87
655.43	38747.57
655.57	38553.30
655.72	38625.86
655.86	38525.22
656.01	38541.60
656.15	38010.30
656.30	38227.97
656.44	38391.81
656.58	38249.03
656.73	38738.21
656.87	38246.69
657.01	38146.05
657.16	38412.87
657.30	38302.87
657.45	38323.93
657.59	38487.77
657.73	38284.14
657.88	38576.71
658.02	38550.96
658.16	38237.33
658.31	38852.89
658.45	38415.21
658.60	38031.36
658.74	38581.39
658.88	38576.71
659.03	38139.03
659.17	37993.92
659.31	37806.67
659.46	37673.26
659.60	38141.37
659.74	37596.03
659.89	38045.41
660.03	37624.11
660.17	37907.32
660.32	37734.12
660.46	37872.21
660.60	37900.29
660.74	38073.49
660.89	37876.89
661.03	37839.44
661.17	37652.20
661.32	37469.64
661.46	37338.57
661.60	37343.25
661.74	37488.36
661.89	37684.97
662.03	37511.77
662.17	36964.08
662.31	37198.13
662.46	37319.84
662.60	37383.04
662.74	36655.13
662.88	36793.22
663.03	36814.29
663.17	36840.03
663.31	36507.68
663.45	36507.68
663.60	37062.38
663.74	36669.17
663.88	36180.00
664.02	36615.34
664.17	36460.87
664.31	35969.35
664.45	36449.16
664.59	36638.75
664.73	36215.11
664.88	36400.01
665.02	36053.61
665.16	36371.92
665.30	36261.92
665.44	36292.35
665.59	35910.84
665.73	36044.25
665.87	35552.74
666.01	35995.10
666.15	35662.74
666.29	35662.74
666.44	36006.80
666.58	35526.99
666.72	35660.40
666.86	35931.90
667.00	35569.12
667.14	35765.73
667.28	35594.87
667.43	35543.38
667.57	35381.88
667.71	35367.84
667.85	35129.10
667.99	35161.87
668.13	35098.67
668.27	34522.90
668.41	35126.76
668.56	34623.54
668.70	34719.51
668.84	34799.08
668.98	34679.72
669.12	34609.50
669.26	34740.57
669.40	34263.10
669.54	34213.95
669.68	34487.79
669.82	34263.10
669.96	34223.31
670.10	34232.68
670.25	34253.74
670.39	34309.91
670.53	34347.36
670.67	34017.35
670.81	34366.09
670.95	34059.48
671.09	34164.80
671.23	34068.84
671.37	34373.11
671.51	34000.96
671.65	33830.10
671.79	33317.53
671.93	32987.51
672.07	33373.70
672.21	33525.83
672.35	33441.57
672.49	33469.66
672.63	33127.94
672.77	33008.58
672.91	32978.15
673.05	32697.28
673.19	32788.56
673.33	33141.99
673.47	32907.93
673.61	32659.84
673.75	32559.19
673.89	32327.48
674.03	31948.31
674.17	32650.47
674.31	32540.47
674.45	32247.90
674.59	32322.80
674.73	32264.28
674.87	32301.73
675.01	32051.30
675.15	32119.17
675.29	31887.46
675.43	31779.79
675.56	31789.16
675.70	31309.35
675.84	31440.42
675.98	30356.75
676.12	31821.92
676.26	31213.38
676.40	31201.68
676.54	31035.50
676.68	31152.53
676.82	30862.30
676.96	30682.08
677.10	30724.21
677.23	30848.26
677.37	30483.14
677.51	30331.00
677.65	30426.96
677.79	30115.67
677.93	30099.29
678.07	29778.64
678.21	30017.37
678.34	29799.70
678.48	29860.55
678.62	30089.93
678.76	29523.52
678.90	29769.27
679.04	29488.41
679.18	29799.70
679.31	29294.14
679.45	29275.42
679.59	29062.43
679.73	29043.71
679.87	29160.73
680.00	29303.51
680.14	28652.84
680.28	28802.63
680.42	28634.11
680.56	28622.41
680.70	28191.75
680.83	28631.77
680.97	28135.58
681.11	28100.47
681.25	27967.06
681.39	28559.22
681.52	28100.47
681.66	28189.41
681.80	27615.98
681.94	28025.57
682.07	27751.73
682.21	27728.33
682.35	27744.71
682.49	27491.93
682.62	27531.72
682.76	27323.41
682.90	26700.83
683.04	27576.19
683.17	27206.39
683.31	27023.83
683.45	27084.68
683.59	26616.57
683.72	26712.53
683.86	26487.84
684.00	26169.53
684.13	26473.80
684.27	26705.51
684.41	26457.42
684.55	25874.62
684.68	26045.48
684.82	25954.20
684.96	25722.49
685.09	25844.20
685.23	25575.03
685.37	25556.31
685.50	25647.59
685.64	25467.37
685.78	25263.74
685.91	25467.37
686.05	25198.21
686.19	24664.57
686.32	24936.07
686.46	24610.73
686.60	24254.97
686.73	24388.38
686.87	23971.77
687.01	23824.31
687.14	23828.99
687.28	23882.83
687.42	23847.72
687.55	23730.69
687.69	23587.92
687.82	23681.54
687.96	23651.11
688.10	23573.88
688.23	23239.18
688.37	23220.45
688.50	23161.94
688.64	22955.97
688.78	22780.43
688.91	22757.03
689.05	23098.75
689.18	22850.65
689.32	22621.28
689.46	22750.01
689.59	22941.93
689.73	22939.59
689.86	23171.30
690.00	22551.06
690.13	22981.72
690.27	22380.20
690.41	22085.30
690.54	22008.06
690.68	22057.21
690.81	21982.31
690.95	21984.65
691.08	21675.70
691.22	21549.31
691.35	21792.73
691.49	21694.43
691.62	21729.53
691.76	21605.49
691.89	21507.18
692.03	21439.31
692.16	21317.60
692.30	20999.29
692.43	21050.78
692.57	20610.76
692.70	20805.02
692.84	21092.91
692.97	20786.30
693.11	20652.89
693.24	20259.68
693.38	20383.73
693.51	20339.26
693.65	20065.41
693.78	20278.40
693.92	20231.59
694.05	19861.79
694.19	19758.80
694.32	19978.81
694.45	20147.33
694.59	19672.20
694.72	19468.58
694.86	19557.52
694.99	19592.62
695.13	19054.30
695.26	18867.06
695.39	18806.20
695.53	19180.69
695.66	19138.56
695.80	19630.07
695.93	19023.87
696.07	18705.56
696.20	18829.61
696.33	18813.23
696.47	18747.69
696.60	18555.77
696.73	18412.99
696.87	18244.48
697.00	18368.52
697.14	18202.35
697.27	18258.52
697.40	18319.37
697.54	18319.37
697.67	18012.76
697.80	17860.63
697.94	17619.55
698.07	17727.22
698.21	17717.86
698.34	17715.51
698.47	17397.20
698.61	17233.36
698.74	17235.70
698.87	17151.45
699.01	17261.45
699.14	16964.20
699.27	17163.15
699.40	17324.65
699.54	16964.20
699.67	16702.06
699.80	16706.74
699.94	16650.57
700.07	16430.56
700.20	16388.43
700.34	16231.62
700.47	16407.16
700.60	16252.68
700.73	16744.19
700.87	16369.71
701.00	15807.98
701.13	16053.73
701.26	15885.22
701.40	15850.11
701.53	15978.84
701.66	15857.13
701.79	15721.38
701.93	15728.40
702.06	15751.81
702.19	15541.16
702.32	15583.29
702.46	15325.83
702.59	15419.45
702.72	15176.03
702.85	15115.18
702.99	15066.03
703.12	15255.61
703.25	15098.80
703.38	14843.68
703.51	14874.10
703.65	14698.56
703.78	14878.79
703.91	14745.38
704.04	14593.24
704.17	14626.01
704.31	14743.03
704.44	14171.94
704.57	14202.37
704.70	14092.37
704.83	14389.61
704.96	14281.95
705.10	14312.38
705.23	14249.18
>>>>>End Processed Spectral Data<<<<<
