SpectraSuite Data File
++++++++++++++++++++++++++++++++++++
Date: Fri Oct 25 11:34:02 EDT 2013
User: price-jones
Dark Spectrum Present: No
Reference Spectrum Present: No
Number of Sampled Component Spectra: 1
Spectrometers: USB2+H05261
Integration Time (usec): 100000 (USB2+H05261)
Spectra Averaged: 1 (USB2+H05261)
Boxcar Smoothing: 0 (USB2+H05261)
Correct for Electrical Dark: No (USB2+H05261)
Strobe/Lamp Enabled: No (USB2+H05261)
Correct for Detector Non-linearity: No (USB2+H05261)
Correct for Stray Light: No (USB2+H05261)
Number of Pixels in Processed Spectrum: 2048
>>>>>Begin Processed Spectral Data<<<<<
365.73	255.12
365.92	255.12
366.12	255.12
366.32	227.03
366.52	147.45
366.72	161.50
366.91	159.16
367.11	119.37
367.31	177.88
367.51	177.88
367.70	201.29
367.90	205.97
368.10	166.18
368.30	142.77
368.49	201.29
368.69	184.90
368.89	128.73
369.09	229.37
369.28	124.05
369.48	168.52
369.68	255.12
369.87	236.39
370.07	264.48
370.27	264.48
370.47	346.40
370.66	519.60
370.86	491.51
371.06	533.64
371.25	538.32
371.45	557.05
371.65	578.11
371.84	585.13
372.04	519.60
372.24	613.22
372.44	519.60
372.63	559.39
372.83	547.69
373.03	547.69
373.22	594.50
373.42	585.13
373.62	638.97
373.81	543.00
374.01	592.16
374.21	620.24
374.40	610.88
374.60	683.44
374.79	664.71
374.99	676.41
375.19	601.52
375.38	634.29
375.58	482.15
375.78	669.39
375.97	601.52
376.17	702.16
376.37	624.92
376.56	641.31
376.76	585.13
376.95	685.78
377.15	594.50
377.35	692.80
377.54	662.37
377.74	699.82
377.93	699.82
378.13	704.50
378.33	713.86
378.52	711.52
378.72	720.88
378.91	840.25
379.11	744.29
379.31	606.20
379.50	645.99
379.70	744.29
379.89	734.93
380.09	744.29
380.28	650.67
380.48	716.20
380.68	725.57
380.87	746.63
381.07	772.38
381.26	720.88
381.46	678.76
381.65	781.74
381.85	800.46
382.04	781.74
382.24	802.80
382.43	823.87
382.63	727.91
382.83	863.66
383.02	821.53
383.22	795.78
383.41	763.01
383.61	809.83
383.80	798.12
384.00	779.40
384.19	858.98
384.39	861.32
384.58	851.96
384.78	744.29
384.97	821.53
385.17	819.19
385.36	821.53
385.56	842.59
385.75	812.17
385.95	933.87
386.14	837.91
386.34	945.58
386.53	823.87
386.72	847.27
386.92	940.90
387.11	868.34
387.31	870.68
387.50	858.98
387.70	964.30
387.89	856.64
388.09	830.89
388.28	823.87
388.48	868.34
388.67	1036.86
388.86	903.45
389.06	957.28
389.25	952.60
389.45	894.08
389.64	882.38
389.84	938.55
390.03	922.17
390.22	1046.22
390.42	1001.75
390.61	1004.09
390.81	1034.52
391.00	1043.88
391.19	992.39
391.39	931.53
391.58	917.49
391.78	1043.88
391.97	992.39
392.16	1046.22
392.36	978.34
392.55	1041.54
392.75	1104.73
392.94	1074.31
393.13	1022.81
393.33	1036.86
393.52	1076.65
393.71	1090.69
393.91	1104.73
394.10	1055.58
394.29	1086.01
394.49	1123.46
394.68	1137.50
394.88	1203.04
395.07	1139.84
395.26	1205.38
395.46	1160.91
395.65	1132.82
395.84	1240.48
396.04	1228.78
396.23	1200.69
396.42	1205.38
396.62	1259.21
396.81	1170.27
397.00	1275.59
397.19	1181.97
397.39	1172.61
397.58	1313.04
397.77	1181.97
397.97	1200.69
398.16	1256.87
398.35	1233.46
398.55	1203.04
398.74	1385.60
398.93	1376.24
399.12	1308.36
399.32	1261.55
399.51	1341.13
399.70	1345.81
399.90	1275.59
400.09	1310.70
400.28	1423.05
400.47	1397.30
400.67	1476.88
400.86	1359.85
401.05	1462.83
401.24	1411.34
401.44	1371.55
401.63	1514.33
401.82	1373.89
402.01	1373.89
402.21	1406.66
402.40	1373.89
402.59	1434.75
402.78	1483.90
402.97	1549.43
403.17	1486.24
403.36	1537.73
403.55	1504.96
403.74	1619.65
403.93	1575.18
404.13	1692.21
404.32	1645.40
404.51	1544.75
404.70	1549.43
404.89	1629.01
405.09	1640.72
405.28	1720.29
405.47	1593.90
405.66	1739.02
405.85	1795.19
406.05	1652.42
406.24	1767.10
406.43	1619.65
406.62	1727.32
406.81	1802.21
407.00	1757.74
407.20	1757.74
407.39	1795.19
407.58	1764.76
407.77	1797.53
407.96	1872.43
408.15	1884.13
408.34	1757.74
408.54	1888.81
408.73	1842.00
408.92	1949.67
409.11	1963.71
409.30	1916.90
409.49	1977.75
409.68	1961.37
409.87	1895.83
410.07	1984.77
410.26	2010.52
410.45	1902.86
410.64	2015.20
410.83	2031.58
411.02	2108.82
411.21	2113.50
411.40	2078.40
411.59	2150.95
411.78	2193.08
411.98	2186.06
412.17	2235.21
412.36	2167.34
412.55	2251.60
412.74	2284.36
412.93	2321.81
413.12	2244.57
413.31	2382.67
413.50	2326.49
413.69	2356.92
413.88	2525.44
414.07	2452.88
414.26	2450.54
414.45	2401.39
414.64	2548.84
414.83	2534.80
415.02	2546.50
415.22	2661.19
415.41	2654.17
415.60	2612.04
415.79	2506.71
415.98	2672.89
416.17	2581.61
416.36	2682.25
416.55	2785.24
416.74	2822.69
416.93	2761.83
417.12	2761.83
417.31	2855.45
417.50	2890.56
417.69	2913.97
417.88	2883.54
418.07	2942.05
418.26	2881.20
418.45	2895.24
418.64	3059.08
418.83	2984.18
419.02	3075.46
419.21	2991.20
419.39	2998.23
419.58	3180.79
419.77	3045.04
419.96	3157.38
420.15	3225.26
420.34	3148.02
420.53	3187.81
420.72	3129.30
420.91	3201.85
421.10	3185.47
421.29	3293.13
421.48	3119.93
421.67	3218.24
421.86	3162.06
422.05	3222.92
422.24	3183.13
422.43	3279.09
422.61	3279.09
422.80	3342.28
422.99	3297.81
423.18	3328.24
423.37	3328.24
423.56	3377.39
423.75	3379.73
423.94	3258.03
424.13	3112.91
424.32	3323.56
424.50	3461.65
424.69	3473.36
424.88	3353.99
425.07	3332.92
425.26	3368.03
425.45	3449.95
425.64	3325.90
425.83	3356.33
426.01	3480.38
426.20	3442.93
426.39	3375.05
426.58	3356.33
426.77	3442.93
426.96	3485.06
427.15	3480.38
427.33	3597.40
427.52	3471.01
427.71	3630.17
427.90	3590.38
428.09	3581.02
428.28	3597.40
428.46	3751.88
428.65	3606.77
428.84	3770.60
429.03	3836.14
429.22	3658.26
429.40	3786.99
429.59	3796.35
429.78	3669.96
429.97	3550.59
430.16	3695.71
430.34	3805.71
430.53	3756.56
430.72	3836.14
430.91	3866.56
431.10	3768.26
431.28	3920.40
431.47	3960.19
431.66	3943.80
431.85	4007.00
432.03	3997.64
432.22	3985.93
432.41	4114.66
432.60	4009.34
432.79	4077.21
432.97	4044.45
433.16	3981.25
433.35	3985.93
433.54	4081.89
433.72	4112.32
433.91	4168.49
434.10	4079.55
434.28	4205.94
434.47	4063.17
434.66	4315.95
434.85	4299.56
435.03	4318.29
435.22	4219.99
435.41	4372.12
435.59	4273.82
435.78	4367.44
435.97	4435.32
436.16	4376.80
436.34	4372.12
436.53	4376.80
436.72	4484.47
436.90	4437.66
437.09	4379.14
437.28	4308.93
437.46	4535.96
437.65	4402.55
437.84	4528.94
438.02	4421.27
438.21	4688.09
438.40	4554.68
438.58	4631.92
438.77	4798.10
438.96	4624.90
439.14	4781.71
439.33	4851.93
439.52	4713.84
439.70	4919.81
439.89	4805.12
440.08	5041.51
440.26	4987.68
440.45	4884.70
440.63	5139.82
440.82	5149.18
441.01	4980.66
441.19	5083.64
441.38	5156.20
441.57	5217.05
441.75	5240.46
441.94	5291.95
442.12	5231.10
442.31	5502.60
442.50	5434.72
442.68	5390.25
442.87	5467.49
443.05	5401.96
443.24	5619.63
443.43	5401.96
443.61	5362.17
443.80	5771.76
443.98	5303.65
444.17	5289.61
444.35	5392.59
444.54	5724.95
444.73	5584.52
444.91	5500.26
445.10	5612.60
445.28	5628.99
445.47	5504.94
445.65	5589.20
445.84	5631.33
446.02	5570.48
446.21	5687.50
446.39	5607.92
446.58	5753.04
446.77	5877.09
446.95	5596.22
447.14	5591.54
447.32	5893.47
447.51	5724.95
447.69	5701.54
447.88	5792.83
448.06	5678.14
448.25	5703.89
448.43	5755.38
448.62	5703.89
448.80	5797.51
448.99	6001.13
449.17	5984.75
449.36	5785.80
449.54	5937.94
449.73	5872.40
449.91	5930.92
450.10	5900.49
450.28	6045.60
450.46	6108.80
450.65	6033.90
450.83	6043.26
451.02	6001.13
451.20	6059.65
451.39	6050.28
451.57	6115.82
451.76	6092.41
451.94	6197.74
452.13	6080.71
452.31	6099.44
452.49	6087.73
452.68	6197.74
452.86	6148.59
453.05	6366.26
453.23	6300.72
453.42	6424.77
453.60	6230.51
453.78	6303.06
453.97	6286.68
454.15	6251.57
454.34	6113.48
454.52	6410.73
454.70	6541.80
454.89	6565.20
455.07	6523.07
455.26	6459.88
455.44	6644.78
455.62	6530.09
455.81	6567.54
455.99	6752.45
456.17	6822.66
456.36	6757.13
456.54	6691.59
456.73	6846.07
456.91	6927.99
457.09	6902.24
457.28	7108.21
457.46	6944.37
457.64	6918.62
457.83	6909.26
458.01	6864.79
458.19	7052.03
458.38	7002.88
458.56	7112.89
458.74	7012.24
458.93	7054.37
459.11	7110.55
459.29	7169.06
459.48	7126.93
459.66	7089.48
459.84	7330.56
460.03	7349.28
460.21	7403.11
460.39	7293.11
460.57	7400.77
460.76	7178.42
460.94	7503.76
461.12	7314.17
461.31	7407.80
461.49	7515.46
461.67	7449.93
461.85	7623.12
462.04	7513.12
462.22	8063.15
462.40	7747.17
462.59	7686.32
462.77	7578.65
462.95	7784.62
463.13	7712.07
463.32	7768.24
463.50	7735.47
463.68	7833.77
463.86	7688.66
464.05	7534.18
464.23	7763.56
464.41	7815.05
464.59	7707.38
464.78	7786.96
464.96	7889.95
465.14	7934.42
465.32	7899.31
465.50	7864.20
465.69	8105.28
465.87	8044.42
466.05	8049.10
466.23	8079.53
466.41	8107.62
466.60	8369.76
466.78	8030.38
466.96	8308.90
467.14	8131.02
467.32	8135.70
467.51	8339.33
467.69	7892.29
467.87	8348.69
468.05	8395.50
468.23	7974.21
468.41	8088.89
468.60	8304.22
468.78	8334.65
468.96	8128.68
469.14	8514.87
469.32	8641.26
469.50	8304.22
469.69	8475.08
469.87	8669.34
470.05	8353.37
470.23	8683.39
470.41	8519.55
470.59	8854.25
470.77	8772.33
470.95	8669.34
471.14	8950.21
471.32	8545.30
471.50	9011.06
471.68	9034.47
471.86	8954.89
472.04	9114.05
472.22	9207.67
472.40	9001.70
472.58	9074.26
472.77	9294.27
472.95	9238.09
473.13	9661.73
473.31	9317.67
473.49	9387.89
473.67	9256.82
473.85	9378.53
474.03	9563.43
474.21	9603.22
474.39	9856.00
474.57	9731.95
474.75	9778.76
474.93	9661.73
475.12	9863.02
475.30	9802.16
475.48	9675.77
475.66	10197.71
475.84	10012.81
476.02	10183.67
476.20	10155.58
476.38	10317.08
476.56	10335.81
476.74	10480.92
476.92	10410.70
477.10	10328.78
477.28	10546.45
477.46	10651.78
477.64	10843.70
477.82	10637.73
478.00	10958.39
478.18	10815.62
478.36	11133.93
478.54	11169.04
478.72	11335.21
478.90	11157.33
479.08	11311.81
479.26	11632.46
479.44	11410.11
479.62	11770.55
479.80	11730.76
479.98	11847.79
480.16	11878.22
480.34	12100.57
480.52	12313.56
480.70	12248.02
480.88	11871.20
481.06	12306.54
481.24	12353.35
481.41	12292.49
481.59	12517.18
481.77	12638.89
481.95	12741.88
482.13	12828.48
482.31	12638.89
482.49	13245.09
482.67	13013.38
482.85	13434.68
483.03	13359.78
483.21	13556.38
483.39	13598.51
483.57	13425.31
483.74	14001.08
483.92	13841.93
484.10	13624.26
484.28	14188.33
484.46	14279.61
484.64	14244.50
484.82	14375.57
485.00	14284.29
485.18	14586.22
485.35	14871.76
485.53	14902.19
485.71	14984.11
485.89	15396.04
486.07	15234.55
486.25	15169.01
486.43	15342.21
486.61	15548.18
486.78	15475.62
486.96	15723.72
487.14	15721.38
487.32	15836.06
487.50	16053.73
487.68	16137.99
487.85	16198.85
488.03	16711.42
488.21	16524.18
488.39	16702.06
488.57	16849.52
488.75	17015.69
488.92	17085.91
489.10	17579.76
489.28	17451.03
489.46	17600.83
489.64	17385.50
489.81	18071.28
489.99	18017.44
490.17	18085.32
490.35	18075.96
490.53	18359.16
490.70	18279.58
490.88	18326.39
491.06	18558.11
491.24	18616.62
491.41	18787.48
491.59	18944.30
491.77	19054.30
491.95	19283.67
492.13	19426.45
492.30	19269.63
492.48	19747.10
492.66	19349.21
492.84	19637.09
493.01	20130.95
493.19	19976.47
493.37	20264.36
493.54	20252.66
493.72	20568.63
493.90	20376.70
494.08	20238.61
494.25	21130.36
494.43	20919.71
494.61	20868.22
494.79	20779.28
494.96	21022.69
495.14	21359.73
495.32	21434.63
495.49	21369.09
495.67	21387.82
495.85	21680.38
496.02	21886.35
496.20	22024.44
496.38	22157.85
496.55	22134.45
496.73	22604.89
496.91	22558.08
497.09	22665.75
497.26	22534.68
497.44	22637.66
497.62	23002.78
497.79	23290.67
497.97	22838.95
498.14	23094.07
498.32	23573.88
498.50	23524.72
498.67	23498.98
498.85	23557.49
499.03	23901.55
499.20	23817.29
499.38	24144.97
499.56	24093.47
499.73	24196.46
499.91	23913.25
500.08	24725.42
500.26	24383.70
500.44	24350.93
500.61	24409.45
500.79	24521.79
500.97	24786.27
501.14	24793.29
501.32	25017.99
501.49	24940.75
501.67	24943.09
501.84	25090.54
502.02	24954.79
502.20	25256.72
502.37	25193.53
502.55	25525.88
502.72	25465.03
502.90	25748.23
503.07	25500.14
503.25	25898.03
503.43	25986.97
503.60	25710.78
503.78	26176.55
503.95	25942.50
504.13	26204.64
504.30	26492.52
504.48	26335.71
504.65	26342.73
504.83	26459.76
505.01	26789.77
505.18	26731.26
505.36	27157.24
505.53	26745.30
505.71	27049.57
505.88	26925.52
506.06	26745.30
506.23	27323.41
506.41	27019.14
506.58	27271.92
506.76	27379.59
506.93	27613.64
507.11	27433.42
507.28	27615.98
507.46	28126.22
507.63	28016.21
507.81	27995.15
507.98	27634.71
508.16	28187.07
508.33	28350.91
508.50	28381.34
508.68	28175.37
508.85	28432.83
509.03	28266.65
509.20	28549.85
509.38	29116.26
509.55	28411.76
509.73	29144.35
509.90	28968.81
510.08	28821.36
510.25	29338.62
510.42	29156.05
510.60	29455.64
510.77	29352.66
510.95	29827.79
511.12	29347.98
511.30	29790.34
511.47	29750.55
511.64	29888.64
511.82	30012.69
511.99	29715.44
512.17	29722.46
512.34	30064.18
512.51	30370.79
512.69	30572.08
512.86	30333.34
513.04	30838.90
513.21	30616.55
513.38	30546.33
513.56	31012.10
513.73	30780.39
513.90	30904.43
514.08	30782.73
514.25	31433.39
514.43	31346.79
514.60	31283.60
514.77	31012.10
514.95	31349.14
515.12	31381.90
515.29	31241.47
515.47	31541.06
515.64	31772.77
515.81	31274.24
515.99	32140.24
516.16	32018.53
516.33	31903.84
516.51	32011.51
516.68	31559.78
516.85	31974.06
517.03	32348.54
517.20	32547.49
517.37	32512.38
517.54	32378.97
517.72	32526.42
517.89	32414.08
518.06	32503.02
518.24	32247.90
518.41	32914.95
518.58	32900.91
518.75	32552.17
518.93	33013.26
519.10	32753.46
519.27	32882.19
519.45	33530.51
519.62	33067.09
519.79	33380.72
519.96	33369.02
520.14	33095.18
520.31	33109.22
520.48	33654.56
520.65	33469.66
520.83	34232.68
521.00	33825.42
521.17	33909.68
521.34	33919.04
521.52	34511.20
521.69	33706.05
521.86	34342.68
522.03	34029.05
522.20	34553.33
522.38	34670.36
522.55	34223.31
522.72	34710.14
522.89	34703.12
523.07	34696.10
523.24	34969.94
523.41	35342.09
523.58	34658.65
523.75	35318.68
523.92	34778.02
524.10	35068.25
524.27	35000.37
524.44	35068.25
524.61	35304.64
524.78	34752.27
524.96	35704.87
525.13	35452.09
525.30	35821.90
525.47	35718.92
525.64	35840.62
525.81	35632.32
525.98	35899.14
526.16	35627.63
526.33	35959.99
526.50	36077.02
526.67	35915.52
526.84	36048.93
527.01	35861.69
527.18	36006.80
527.36	36584.91
527.53	36294.69
527.70	36652.79
527.87	36521.72
528.04	36329.80
528.21	36395.33
528.38	36208.09
528.55	36896.20
528.72	36762.79
528.89	36767.48
529.07	36872.80
529.24	36643.43
529.41	36975.78
529.58	37331.54
529.75	37141.96
529.92	36943.02
530.09	37464.96
530.26	37209.84
530.43	37322.18
530.60	37036.64
530.77	36872.80
530.94	37324.52
531.11	37715.39
531.28	37687.31
531.46	37539.85
531.63	37596.03
531.80	37361.97
531.97	37904.98
532.14	37668.58
532.31	37347.93
532.48	38326.27
532.65	37830.08
532.82	37804.33
532.99	38106.26
533.16	37801.99
533.33	38256.06
533.50	38644.59
533.67	38164.78
533.84	38209.25
534.01	38548.62
534.18	38649.27
534.35	38642.24
534.52	38658.63
534.69	38845.87
534.86	38550.96
535.03	38653.95
535.20	38667.99
535.37	38609.48
535.54	38820.13
535.71	38773.31
535.88	39012.05
536.05	38803.74
536.22	39108.01
536.38	38766.29
536.55	39632.29
536.72	39016.73
536.89	39330.36
537.06	39302.28
537.23	39405.26
537.40	39068.22
537.57	39290.57
537.74	39302.28
537.91	39611.23
538.08	39613.57
538.25	39171.21
538.42	39910.82
538.59	40100.40
538.75	39576.12
538.92	40030.18
539.09	39805.49
539.26	40194.02
539.43	39840.60
539.60	40130.83
539.77	40009.12
539.94	40460.84
540.11	40268.92
540.28	40367.22
540.44	40133.17
540.61	40245.51
540.78	40465.52
540.95	40367.22
541.12	40287.64
541.29	40156.57
541.46	40231.47
541.62	40376.58
541.79	40648.08
541.96	40524.04
542.13	40788.52
542.30	40961.72
542.47	40753.41
542.63	40786.18
542.80	41273.01
542.97	41226.20
543.14	40861.07
543.31	41354.93
543.48	41392.37
543.64	41418.12
543.81	41453.23
543.98	41867.50
544.15	41724.73
544.32	41970.49
544.48	41776.22
544.65	41832.39
544.82	41614.72
544.99	41331.52
545.16	41783.24
545.32	41979.85
545.49	42178.79
545.66	42209.22
545.83	42288.80
546.00	41947.08
546.16	41858.14
546.33	41596.00
546.50	41790.27
546.67	42408.17
546.83	41797.29
547.00	41907.29
547.17	41972.83
547.34	42333.27
547.50	42443.27
547.67	42995.64
547.84	42904.36
548.00	42370.72
548.17	43126.71
548.34	42443.27
548.51	42686.69
548.67	42782.65
548.84	42270.08
549.01	42871.59
549.18	42401.14
549.34	42700.73
549.51	42883.30
549.68	43164.16
549.84	42677.33
550.01	43278.85
550.18	42934.79
550.34	42717.12
550.51	43091.60
550.68	43611.20
550.84	42866.91
551.01	43414.60
551.18	42932.45
551.34	42995.64
551.51	43430.98
551.68	43494.18
551.84	43189.91
552.01	43168.84
552.18	43522.26
552.34	43260.12
552.51	43779.72
552.68	43180.54
552.84	43351.40
553.01	43833.55
553.18	43360.76
553.34	43463.75
553.51	43426.30
553.67	43543.33
553.84	43821.85
554.01	43810.15
554.17	43473.11
554.34	43814.83
554.51	43880.36
554.67	43964.62
554.84	44114.42
555.00	43938.88
555.17	43835.89
555.33	44498.26
555.50	43847.60
555.67	44364.85
555.83	44177.61
556.00	44210.38
556.16	44591.89
556.33	44491.24
556.50	43922.49
556.66	44463.16
556.83	43896.75
556.99	44474.86
557.16	44395.28
557.32	44507.63
557.49	44818.92
557.65	44339.11
557.82	44451.45
557.98	44680.83
558.15	44430.39
558.32	44406.98
558.48	44404.64
558.65	44552.10
558.81	44334.43
558.98	44891.48
559.14	44439.75
559.31	45017.86
559.47	44477.20
559.64	45090.42
559.80	44428.05
559.97	45172.34
560.13	44516.99
560.30	44907.86
560.46	44788.49
560.63	44924.24
560.79	45144.25
560.96	44898.50
561.12	45027.23
561.29	45387.67
561.45	45130.21
561.61	45174.68
561.78	44713.59
561.94	44856.37
562.11	45450.86
562.27	45139.57
562.44	45326.81
562.60	45415.76
562.77	45668.53
562.93	45228.51
563.10	45422.78
563.26	45397.03
563.42	45691.94
563.59	45151.27
563.75	45617.04
563.92	45558.53
564.08	45500.01
564.24	45656.83
564.41	45277.66
564.57	45111.49
564.74	45375.97
564.90	45291.71
565.07	45652.15
565.23	45329.16
565.39	45343.20
565.56	45450.86
565.72	45530.44
565.88	45603.00
566.05	45628.74
566.21	45614.70
566.38	45408.73
566.54	45476.61
566.70	45986.85
566.87	45748.11
567.03	45408.73
567.19	46178.77
567.36	45813.65
567.52	45626.40
567.68	45890.88
567.85	45940.04
568.01	45996.21
568.17	45879.18
568.34	45954.08
568.50	46230.26
568.66	45460.23
568.83	45687.26
568.99	45991.53
569.15	46124.94
569.32	45874.50
569.48	45626.40
569.64	46087.49
569.81	46003.23
569.97	45766.84
570.13	46036.00
570.30	46117.92
570.46	45883.86
570.62	46192.81
570.78	45839.39
570.95	45743.43
571.11	46106.21
571.27	46082.81
571.43	45982.16
571.60	46185.79
571.76	46218.56
571.92	45979.82
572.09	46209.20
572.25	46213.88
572.41	46028.98
572.57	46323.88
572.74	46689.01
572.90	46375.37
573.06	46279.41
573.22	46246.65
573.38	46239.62
573.55	46281.75
573.71	46721.77
573.87	46218.56
574.03	46197.49
574.20	46499.42
574.36	46337.93
574.52	46635.17
574.68	46277.07
574.84	46141.32
575.01	46426.87
575.17	46291.12
575.33	47009.66
575.49	46183.45
575.65	46473.68
575.82	46450.27
575.98	46351.97
576.14	46962.85
576.30	46527.51
576.46	46117.92
576.62	46094.51
576.79	46117.92
576.95	46471.34
577.11	46227.92
577.27	46681.98
577.43	46752.20
577.59	46724.11
577.75	46248.99
577.92	46108.55
578.08	46384.74
578.24	46663.26
578.40	46660.92
578.56	46321.54
578.72	46700.71
578.88	46696.03
579.04	46806.03
579.21	46560.28
579.37	46492.40
579.53	46588.36
579.69	46639.86
579.85	46377.72
580.01	46630.49
580.17	46174.09
580.33	47000.30
580.49	46389.42
580.65	46829.44
580.82	46522.83
580.98	46419.84
581.14	46094.51
581.30	46855.18
581.46	46724.11
581.62	46674.96
581.78	46431.55
581.94	46787.31
582.10	46637.51
582.26	46719.43
582.42	46897.31
582.58	47091.58
582.74	46766.24
582.90	46784.97
583.06	46845.82
583.22	46415.16
583.38	46885.61
583.54	46541.55
583.70	46700.71
583.86	46885.61
584.02	46527.51
584.18	47105.62
584.34	46986.25
584.50	47360.74
584.66	46698.37
584.82	47047.11
584.98	47000.30
585.14	46721.77
585.30	46967.53
585.46	46726.46
585.62	46223.24
585.78	46501.76
585.94	46557.94
586.10	46902.00
586.26	46639.86
586.42	46838.80
586.58	47131.37
586.74	46752.20
586.90	46581.34
587.06	46761.56
587.22	47136.05
587.38	46487.72
587.54	46799.01
587.70	46983.91
587.86	46955.83
588.02	46700.71
588.18	46871.57
588.34	47072.85
588.49	46806.03
588.65	46777.95
588.81	47051.79
588.97	46981.57
589.13	46869.23
589.29	47140.73
589.45	47217.97
589.61	47285.84
589.77	46759.22
589.93	46869.23
590.08	47054.13
590.24	47384.15
590.40	47735.23
590.56	47599.47
590.72	47863.96
590.88	47047.11
591.04	47138.39
591.20	47428.62
591.35	47414.57
591.51	47613.52
591.67	47342.02
591.83	47480.11
591.99	47068.17
592.15	47374.78
592.31	47358.40
592.46	46995.62
592.62	47044.77
592.78	47639.26
592.94	48025.45
593.10	47517.56
593.26	47758.63
593.41	47515.22
593.57	47634.58
593.73	47711.82
593.89	47618.20
594.05	47473.09
594.20	47311.59
594.36	47779.70
594.52	47456.70
594.68	47655.65
594.84	47381.80
594.99	48051.20
595.15	47547.98
595.31	47655.65
595.47	47426.28
595.62	47466.06
595.78	47789.06
595.94	47702.46
596.10	47657.99
596.25	47828.85
596.41	47330.31
596.57	47257.76
596.73	47423.93
596.88	47812.46
597.04	47852.25
597.20	47770.33
597.36	47264.78
597.51	47599.47
597.67	47599.47
597.83	47578.41
597.99	47578.41
598.14	47547.98
598.30	47540.96
598.46	47065.83
598.61	47800.76
598.77	47636.92
598.93	47908.43
599.09	47758.63
599.24	47805.44
599.40	47800.76
599.56	47917.79
599.71	47901.40
599.87	48315.68
600.03	48072.26
600.18	47571.39
600.34	47849.91
600.50	47772.67
600.65	47833.53
600.81	48009.07
600.97	47695.44
601.12	47826.51
601.28	47784.38
601.44	47707.14
601.59	47849.91
601.75	48046.52
601.91	47856.93
602.06	47908.43
602.22	47627.56
602.37	47547.98
602.53	47716.50
602.69	47957.58
602.84	47737.57
603.00	47597.13
603.16	48203.33
603.31	48114.39
603.47	47639.26
603.62	47569.05
603.78	47870.98
603.94	47547.98
604.09	47618.20
604.25	47327.97
604.40	47360.74
604.56	47683.73
604.71	48093.33
604.87	47213.29
605.03	47702.46
605.18	47873.32
605.34	47866.30
605.49	47414.57
605.65	47835.87
605.80	47061.15
605.96	47093.92
606.12	47496.49
606.27	47728.20
606.43	47391.17
606.58	47700.12
606.74	47704.80
606.89	47653.31
607.05	48217.38
607.20	47510.53
607.36	47580.75
607.51	47428.62
607.67	47796.08
607.82	47604.16
607.98	47374.78
608.13	47316.27
608.29	47611.18
608.44	47648.63
608.60	47290.52
608.75	47646.29
608.91	47250.74
609.06	47346.70
609.22	47723.52
609.37	47318.61
609.53	47707.14
609.68	47672.03
609.84	47459.04
609.99	47402.87
610.15	47040.09
610.30	47646.29
610.46	47681.39
610.61	47473.09
610.76	47445.00
610.92	47283.50
611.07	47540.96
611.23	47271.80
611.38	47040.09
611.54	47203.92
611.69	47746.93
611.84	47601.82
612.00	47168.82
612.15	46700.71
612.31	47248.39
612.46	46857.52
612.62	47363.08
612.77	47405.21
612.92	47473.09
613.08	47353.72
613.23	47526.92
613.39	47075.19
613.54	46796.67
613.69	47192.22
613.85	47346.70
614.00	47281.16
614.15	46965.19
614.31	46972.21
614.46	46609.43
614.62	46593.04
614.77	46883.27
614.92	47089.24
615.08	47323.29
615.23	47065.83
615.38	47309.25
615.54	46920.72
615.69	46642.20
615.84	46712.41
616.00	47103.28
616.15	47023.70
616.30	47009.66
616.46	46927.74
616.61	47145.41
616.76	46960.51
616.92	46653.90
617.07	47107.96
617.22	46953.49
617.37	46707.73
617.53	47012.00
617.68	46623.47
617.83	46866.89
617.99	47112.64
618.14	47234.35
618.29	46637.51
618.45	46616.45
618.60	46476.02
618.75	46457.29
618.90	45982.16
619.06	46714.75
619.21	46387.08
619.36	46885.61
619.51	46263.03
619.67	46323.88
619.82	46326.22
619.97	46686.67
620.12	46625.81
620.28	46410.48
620.43	46188.13
620.58	46595.38
620.73	46361.33
620.89	46471.34
621.04	46560.28
621.19	46412.82
621.34	46263.03
621.49	45984.51
621.65	45860.46
621.80	46096.85
621.95	46419.84
622.10	46347.29
622.25	46323.88
622.41	46087.49
622.56	46113.23
622.71	45893.22
622.86	46096.85
623.01	46043.02
623.16	46138.98
623.32	46218.56
623.47	46424.53
623.62	45909.61
623.77	45804.28
623.92	46106.21
624.07	46155.36
624.23	45986.85
624.38	46169.41
624.53	45610.02
624.68	46047.70
624.83	45532.78
624.98	45703.64
625.13	45474.27
625.29	45614.70
625.44	46059.40
625.59	46108.55
625.74	45759.81
625.89	45289.37
626.04	45404.05
626.19	45649.81
626.34	45329.16
626.49	44987.44
626.65	45305.75
626.80	45226.17
626.95	44821.26
627.10	45013.18
627.25	45317.45
627.40	45158.30
627.55	45235.53
627.70	45151.27
627.85	45069.36
628.00	45717.68
628.15	45364.26
628.30	44587.21
628.45	44989.78
628.60	44676.15
628.76	44708.91
628.91	45560.87
629.06	44975.73
629.21	44947.65
629.36	44781.47
629.51	45052.97
629.66	45422.78
629.81	45059.99
629.96	44718.28
630.11	44957.01
630.26	44430.39
630.41	44809.56
630.56	45006.16
630.71	44772.11
630.86	44605.93
631.01	44315.70
631.16	44545.08
631.31	44725.30
631.46	44610.61
631.61	44519.33
631.76	45184.04
631.91	44896.16
632.06	45055.31
632.21	44992.12
632.36	44753.38
632.51	44697.21
632.66	44697.21
632.81	44617.63
632.96	44442.09
633.10	44308.68
633.25	44418.69
633.40	44453.79
633.55	44453.79
633.70	44346.13
633.85	43915.47
634.00	44055.90
634.15	44296.98
634.30	43768.02
634.45	44376.56
634.60	44074.63
634.75	44154.21
634.90	44088.67
635.05	44346.13
635.19	44189.31
635.34	44465.50
635.49	44027.82
635.64	43992.71
635.79	44231.44
635.94	44123.78
636.09	44374.22
636.24	44091.01
636.39	43299.91
636.53	43866.32
636.68	43765.68
636.83	43744.61
636.98	43512.90
637.13	43686.10
637.28	43498.86
637.43	43550.35
637.57	43992.71
637.72	43372.47
637.87	43309.27
638.02	43384.17
638.17	43592.48
638.32	42944.15
638.46	43185.22
638.61	43257.78
638.76	43278.85
638.91	43384.17
639.06	43414.60
639.20	43428.64
639.35	43332.68
639.50	43122.03
639.65	43779.72
639.80	43758.66
639.94	43180.54
640.09	43498.86
640.24	43826.53
640.39	42845.85
640.54	42834.14
640.68	43077.56
640.83	43456.73
640.98	42766.27
641.13	43028.41
641.27	43707.16
641.42	43435.66
641.57	42878.61
641.72	43056.50
641.86	42829.46
642.01	43360.76
642.16	42794.36
642.31	42581.37
642.45	42904.36
642.60	42632.86
642.75	42686.69
642.90	42911.38
643.04	42934.79
643.19	42726.48
643.34	42396.46
643.48	42241.99
643.63	42253.69
643.78	42974.58
643.93	43056.50
644.07	42679.67
644.22	42962.87
644.37	42314.55
644.51	42621.16
644.66	42829.46
644.81	42476.04
644.95	42562.64
645.10	42490.09
645.25	42232.63
645.39	42452.64
645.54	42433.91
645.69	41984.53
645.83	42059.43
645.98	42099.22
646.13	42183.48
646.27	42520.51
646.42	41570.25
646.57	41904.95
646.71	42066.45
646.86	42576.69
647.00	42124.96
647.15	41970.49
647.30	42305.18
647.44	42195.18
647.59	41640.47
647.74	41825.37
647.88	41958.78
648.03	42171.77
648.17	42209.22
648.32	42178.79
648.47	42433.91
648.61	41755.16
648.76	42038.36
648.90	42270.08
649.05	41270.67
649.20	41298.75
649.34	41577.28
649.49	41813.67
649.63	41600.68
649.78	41865.16
649.92	41986.87
650.07	42319.23
650.21	41940.06
650.36	42010.28
650.51	41682.60
650.65	42258.37
650.80	41823.03
650.94	41383.01
651.09	41572.60
651.23	41148.96
651.38	41282.37
651.52	40933.63
651.67	41263.64
651.81	41287.05
651.96	41305.77
652.10	40931.29
652.25	40966.40
652.39	41104.49
652.54	41581.96
652.68	41160.66
652.83	41331.52
652.97	41347.90
653.12	41123.21
653.26	40849.37
653.41	41191.09
653.55	40919.59
653.70	41191.09
653.84	41446.21
653.99	41361.95
654.13	41118.53
654.27	40465.52
654.42	40570.85
654.56	41003.85
654.71	40912.56
654.85	40868.09
655.00	41008.53
655.14	40842.35
655.29	41085.76
655.43	41083.42
655.57	40596.59
655.72	40741.71
655.86	40484.25
656.01	41015.55
656.15	40062.95
656.30	40594.25
656.44	40727.66
656.58	40484.25
656.73	40687.87
656.87	40088.70
657.01	40257.21
657.16	40821.28
657.30	40119.12
657.45	40414.03
657.59	39913.16
657.73	40170.61
657.88	39690.80
658.02	40856.39
658.16	40444.46
658.31	40341.47
658.45	40311.05
658.60	39929.54
658.74	40037.20
658.88	39793.79
659.03	39585.48
659.17	39620.59
659.31	39536.33
659.46	39819.53
659.60	39880.39
659.74	39761.02
659.89	39065.88
660.03	39255.46
660.17	39414.62
660.32	39803.15
660.46	39625.27
660.60	39435.69
660.74	39061.20
660.89	39653.36
661.03	39044.82
661.17	39012.05
661.32	39103.33
661.46	39292.91
661.60	38740.55
661.74	39110.35
661.89	38649.27
662.03	39005.03
662.17	39070.56
662.31	38923.11
662.46	39096.31
662.60	38892.68
662.74	39026.09
662.88	38773.31
663.03	38188.18
663.17	38237.33
663.31	38265.42
663.45	38689.06
663.60	38433.94
663.74	38672.67
663.88	38583.73
664.02	38319.25
664.17	38504.15
664.31	38424.57
664.45	38162.43
664.59	38270.10
664.73	38092.22
664.88	37961.15
665.02	37684.97
665.16	37654.54
665.30	37935.40
665.44	37713.05
665.59	37572.62
665.73	37699.01
665.87	37340.91
666.01	37783.27
666.15	37750.50
666.29	37249.63
666.44	37441.55
666.58	37312.82
666.72	37022.59
666.86	37635.81
667.00	37102.17
667.14	37046.00
667.28	37055.36
667.43	36655.13
667.57	37614.75
667.71	36898.55
667.85	37331.54
667.99	36540.44
668.13	36758.11
668.27	36886.84
668.41	36168.30
668.56	36147.23
668.70	36327.45
668.84	35751.68
668.98	36388.31
669.12	36261.92
669.26	36727.69
669.40	36245.54
669.54	36854.08
669.68	35887.43
669.82	35955.31
669.96	35337.41
670.10	35248.47
670.25	35871.05
670.39	35952.97
670.53	36123.83
670.67	35489.54
670.81	35711.89
670.95	35456.78
671.09	35526.99
671.23	35292.94
671.37	35950.63
671.51	35180.59
671.65	34932.50
671.79	35112.72
671.93	35157.19
672.07	35082.29
672.21	35164.21
672.35	34941.86
672.49	34738.23
672.63	35061.22
672.77	34511.20
672.91	35000.37
673.05	34188.21
673.19	34314.59
673.33	34256.08
673.47	34120.33
673.61	34153.10
673.75	33624.14
673.89	34265.44
674.03	33757.55
674.17	33940.11
674.31	33771.59
674.45	33687.33
674.59	33507.11
674.73	33413.49
674.87	33518.81
675.01	32971.13
675.15	33139.65
675.29	32634.09
675.43	33041.34
675.56	33034.32
675.70	33177.09
675.84	32917.29
675.98	31955.33
676.12	32423.44
676.26	32407.06
676.40	32334.50
676.54	32346.20
676.68	32177.68
676.82	31372.54
676.96	32175.34
677.10	32137.90
677.23	32318.12
677.37	31842.99
677.51	32011.51
677.65	31658.09
677.79	31850.01
677.93	31669.79
678.07	31133.81
678.21	30792.09
678.34	31400.63
678.48	30918.48
678.62	31253.17
678.76	30625.91
678.90	30855.28
679.04	30581.44
679.18	31087.00
679.31	30600.16
679.45	30251.42
679.59	30099.29
679.73	30286.53
679.87	30003.33
680.00	30096.95
680.14	30157.80
680.28	30000.99
680.42	29848.85
680.56	29715.44
680.70	29699.06
680.83	29385.43
680.97	29441.60
681.11	29027.32
681.25	29083.50
681.39	28673.90
681.52	29139.67
681.66	28809.65
681.80	28166.01
681.94	28222.18
682.07	28168.35
682.21	28217.50
682.35	28158.99
682.49	28496.02
682.62	28776.89
682.76	27887.48
682.90	28114.52
683.04	28224.52
683.17	28121.54
683.31	27896.85
683.45	27536.40
683.59	27019.14
683.72	27374.91
683.86	27433.42
684.00	27278.94
684.13	27175.96
684.27	27178.30
684.41	26810.84
684.55	26916.16
684.68	27250.86
684.82	26450.39
684.96	26422.31
685.09	26733.60
685.23	26302.94
685.37	26581.46
685.50	26934.88
685.64	26291.24
685.78	25907.39
685.91	26206.98
686.05	25902.71
686.19	25127.99
686.32	25715.47
686.46	25308.21
686.60	25214.59
686.73	25172.46
686.87	25415.88
687.01	25415.88
687.14	25390.13
687.28	25050.75
687.42	25057.78
687.55	24657.54
687.69	24531.15
687.82	24498.39
687.96	24687.97
688.10	24664.57
688.23	24636.48
688.37	24723.08
688.50	24414.13
688.64	24519.45
688.78	24226.89
688.91	23737.71
689.05	23922.62
689.18	23873.46
689.32	23417.06
689.46	23414.72
689.59	23290.67
689.73	23597.28
689.86	23384.29
690.00	23019.17
690.13	23295.35
690.27	22981.72
690.41	22972.36
690.54	23098.75
690.68	22735.96
690.81	22726.60
690.95	22632.98
691.08	22260.84
691.22	22501.91
691.35	22410.63
691.49	22277.22
691.62	22347.44
691.76	22185.94
691.89	21832.52
692.03	21586.76
692.16	21600.80
692.30	21699.11
692.43	21671.02
692.57	21350.37
692.70	21303.56
692.84	21209.93
692.97	20861.19
693.11	20903.32
693.24	20830.77
693.38	20947.79
693.51	20781.62
693.65	20706.72
693.78	20463.30
693.92	20442.24
694.05	20580.33
694.19	20222.23
694.32	20170.74
694.45	20549.90
694.59	20397.77
694.72	20287.76
694.86	19735.40
694.99	19978.81
695.13	19653.48
695.26	19508.37
695.39	19503.68
695.53	19419.42
695.66	19515.39
695.80	19232.18
695.93	19470.92
696.07	18944.30
696.20	18672.79
696.33	18766.42
696.47	18595.56
696.60	18677.48
696.73	18541.72
696.87	18913.87
697.00	18733.65
697.14	18560.45
697.27	18410.65
697.40	18181.28
697.54	18314.69
697.67	18143.83
697.80	18136.81
697.94	18129.79
698.07	17977.65
698.21	17755.30
698.34	17776.37
698.47	17352.73
698.61	17224.00
698.74	17355.07
698.87	17633.60
699.01	17001.65
699.14	17577.42
699.27	17200.60
699.40	16938.46
699.54	17174.85
699.67	16940.80
699.80	17008.67
699.94	16865.90
700.07	16664.61
700.20	16505.46
700.34	16510.14
700.47	16334.60
700.60	16627.17
700.73	16634.19
700.87	16374.39
701.00	16152.04
701.13	16262.04
701.26	15894.58
701.40	15733.08
701.53	15845.43
701.66	15545.84
701.79	15777.55
701.93	15602.01
702.06	15382.00
702.19	15405.41
702.32	15325.83
702.46	15300.08
702.59	15262.63
702.72	15154.97
702.85	15398.38
702.99	15201.78
703.12	14995.81
703.25	14906.87
703.38	14782.82
703.51	14766.44
703.65	14600.26
703.78	14626.01
703.91	14434.08
704.04	14256.20
704.17	14148.54
704.31	13902.78
704.44	14143.86
704.57	14216.41
704.70	14073.64
704.83	14033.85
704.96	14033.85
705.10	13919.17
705.23	13855.97
>>>>>End Processed Spectral Data<<<<<
