SpectraSuite Data File
++++++++++++++++++++++++++++++++++++
Date: Fri Oct 25 11:33:15 EDT 2013
User: price-jones
Dark Spectrum Present: No
Reference Spectrum Present: No
Number of Sampled Component Spectra: 1
Spectrometers: USB2+H05261
Integration Time (usec): 100000 (USB2+H05261)
Spectra Averaged: 1 (USB2+H05261)
Boxcar Smoothing: 0 (USB2+H05261)
Correct for Electrical Dark: No (USB2+H05261)
Strobe/Lamp Enabled: No (USB2+H05261)
Correct for Detector Non-linearity: No (USB2+H05261)
Correct for Stray Light: No (USB2+H05261)
Number of Pixels in Processed Spectrum: 2048
>>>>>Begin Processed Spectral Data<<<<<
365.73	283.20
365.92	283.20
366.12	283.20
366.32	210.65
366.52	128.73
366.72	187.24
366.91	220.01
367.11	154.48
367.31	161.50
367.51	138.09
367.70	201.29
367.90	184.90
368.10	241.08
368.30	194.26
368.49	124.05
368.69	236.39
368.89	231.71
369.09	173.20
369.28	259.80
369.48	248.10
369.68	168.52
369.87	227.03
370.07	222.35
370.27	320.65
370.47	301.93
370.66	416.62
370.86	470.45
371.06	503.22
371.25	519.60
371.45	500.87
371.65	589.82
371.84	543.00
372.04	552.37
372.24	585.13
372.44	559.39
372.63	601.52
372.83	676.41
373.03	589.82
373.22	615.56
373.42	638.97
373.62	688.12
373.81	559.39
374.01	643.65
374.21	624.92
374.40	603.86
374.60	685.78
374.79	531.30
374.99	610.88
375.19	606.20
375.38	772.38
375.58	636.63
375.78	748.97
375.97	660.03
376.17	727.91
376.37	676.41
376.56	653.01
376.76	657.69
376.95	671.73
377.15	779.40
377.35	650.67
377.54	704.50
377.74	697.48
377.93	753.65
378.13	809.83
378.33	683.44
378.52	599.18
378.72	760.67
378.91	779.40
379.11	763.01
379.31	671.73
379.50	685.78
379.70	777.06
379.89	784.08
380.09	720.88
380.28	660.03
380.48	718.54
380.68	737.27
380.87	779.40
381.07	748.97
381.26	695.14
381.46	774.72
381.65	784.08
381.85	695.14
382.04	746.63
382.24	791.10
382.43	809.83
382.63	781.74
382.83	746.63
383.02	868.34
383.22	802.80
383.41	774.72
383.61	784.08
383.80	875.36
384.00	779.40
384.19	802.80
384.39	802.80
384.58	826.21
384.78	863.66
384.97	868.34
385.17	795.78
385.36	802.80
385.56	861.32
385.75	812.17
385.95	798.12
386.14	837.91
386.34	847.27
386.53	835.57
386.72	849.61
386.92	837.91
387.11	898.77
387.31	875.36
387.50	851.96
387.70	917.49
387.89	917.49
388.09	854.30
388.28	849.61
388.48	936.21
388.67	905.79
388.86	919.83
389.06	901.11
389.25	1057.92
389.45	952.60
389.64	924.51
389.84	884.72
390.03	929.19
390.22	954.94
390.42	1004.09
390.61	1060.26
390.81	968.98
391.00	952.60
391.19	1050.90
391.39	1004.09
391.58	961.96
391.78	919.83
391.97	1015.79
392.16	1053.24
392.36	1041.54
392.55	1090.69
392.75	1048.56
392.94	1046.22
393.13	1020.47
393.33	1025.15
393.52	1069.62
393.71	1104.73
393.91	1020.47
394.10	1128.14
394.29	1191.33
394.49	1081.33
394.68	1144.52
394.88	1217.08
395.07	1179.63
395.26	1128.14
395.46	1088.35
395.65	1240.48
395.84	1193.67
396.04	1235.80
396.23	1172.61
396.42	1137.50
396.62	1224.10
396.81	1240.48
397.00	1205.38
397.19	1198.35
397.39	1350.49
397.58	1268.57
397.77	1245.16
397.97	1284.95
398.16	1273.25
398.35	1294.32
398.55	1282.61
398.74	1331.76
398.93	1277.93
399.12	1336.45
399.32	1242.82
399.51	1235.80
399.70	1334.11
399.90	1371.55
400.09	1275.59
400.28	1416.02
400.47	1376.24
400.67	1413.68
400.86	1462.83
401.05	1404.32
401.24	1514.33
401.44	1413.68
401.63	1577.52
401.82	1462.83
402.01	1434.75
402.21	1371.55
402.40	1495.60
402.59	1476.88
402.78	1437.09
402.97	1446.45
403.17	1530.71
403.36	1600.93
403.55	1558.80
403.74	1542.41
403.93	1636.03
404.13	1671.14
404.32	1598.59
404.51	1612.63
404.70	1647.74
404.89	1598.59
405.09	1703.91
405.28	1696.89
405.47	1703.91
405.66	1722.63
405.85	1778.81
406.05	1638.38
406.24	1764.76
406.43	1629.01
406.62	1830.30
406.81	1842.00
407.00	1860.73
407.20	1724.97
407.39	1858.39
407.58	1820.94
407.77	1870.09
407.96	1928.60
408.15	1853.70
408.34	1832.64
408.54	1933.28
408.73	1874.77
408.92	1968.39
409.11	1996.48
409.30	1937.96
409.49	2057.33
409.68	1984.77
409.87	1991.80
410.07	2050.31
410.26	2118.18
410.45	2085.42
410.64	2026.90
410.83	2010.52
411.02	2134.57
411.21	2209.47
411.40	2214.15
411.59	2228.19
411.78	2218.83
411.98	2181.38
412.17	2275.00
412.36	2317.13
412.55	2342.88
412.74	2413.09
412.93	2296.07
413.12	2373.30
413.31	2452.88
413.50	2450.54
413.69	2434.16
413.88	2480.97
414.07	2490.33
414.26	2370.96
414.45	2579.27
414.64	2670.55
414.83	2635.44
415.02	2572.25
415.22	2569.91
415.41	2607.36
415.60	2644.81
415.79	2778.22
415.98	2782.90
416.17	2750.13
416.36	2747.79
416.55	2836.73
416.74	2780.56
416.93	2883.54
417.12	2775.88
417.31	2771.19
417.50	2935.03
417.69	2986.52
417.88	2937.37
418.07	2803.96
418.26	2960.78
418.45	2960.78
418.64	3014.61
418.83	3002.91
419.02	2967.80
419.21	3119.93
419.39	3236.96
419.58	3126.96
419.77	3061.42
419.96	3295.47
420.15	3234.62
420.34	3176.11
420.53	3232.28
420.72	3227.60
420.91	3199.51
421.10	3316.54
421.29	3356.33
421.48	3253.34
421.67	3304.84
421.86	3300.16
422.05	3302.50
422.24	3332.92
422.43	3339.94
422.61	3417.18
422.80	3325.90
422.99	3358.67
423.18	3372.71
423.37	3468.67
423.56	3482.72
423.75	3365.69
423.94	3473.36
424.13	3199.51
424.32	3211.22
424.50	3485.06
424.69	3574.00
424.88	3557.61
425.07	3473.36
425.26	3501.44
425.45	3492.08
425.64	3445.27
425.83	3403.14
426.01	3522.51
426.20	3438.25
426.39	3665.28
426.58	3557.61
426.77	3449.95
426.96	3566.98
427.15	3609.11
427.33	3641.87
427.52	3555.27
427.71	3559.95
427.90	3658.26
428.09	3592.72
428.28	3810.39
428.46	3648.90
428.65	3648.90
428.84	3941.46
429.03	3786.99
429.22	3712.09
429.40	3754.22
429.59	3761.24
429.78	3749.54
429.97	3646.55
430.16	3698.05
430.34	3899.33
430.53	3941.46
430.72	3889.97
430.91	3873.59
431.10	3896.99
431.28	3812.73
431.47	4002.32
431.66	4021.04
431.85	3971.89
432.03	4079.55
432.22	4227.01
432.41	4088.92
432.60	4070.19
432.79	4128.70
432.97	4177.86
433.16	4198.92
433.35	4175.52
433.54	4086.58
433.72	4124.02
433.91	4093.60
434.10	4189.56
434.28	4201.26
434.47	4215.30
434.66	4313.61
434.85	4245.73
435.03	4491.49
435.22	4315.95
435.41	4421.27
435.59	4351.06
435.78	4540.64
435.97	4407.23
436.16	4440.00
436.34	4468.08
436.53	4404.89
436.72	4617.88
436.90	4482.13
437.09	4505.53
437.28	4514.89
437.46	4498.51
437.65	4575.75
437.84	4695.11
438.02	4442.34
438.21	4690.43
438.40	4538.30
438.58	4784.06
438.77	4739.58
438.96	4793.42
439.14	4851.93
439.33	4966.62
439.52	4917.47
439.70	4919.81
439.89	5062.58
440.08	5130.45
440.26	5144.50
440.45	5076.62
440.63	5006.41
440.82	5263.86
441.01	5137.48
441.19	5203.01
441.38	5322.38
441.57	5275.57
441.75	5448.77
441.94	5390.25
442.12	5334.08
442.31	5490.90
442.50	5369.19
442.68	5324.72
442.87	5343.44
443.05	5631.33
443.24	5652.39
443.43	5666.44
443.61	5687.50
443.80	5755.38
443.98	5584.52
444.17	5247.48
444.35	5565.79
444.54	5570.48
444.73	5734.31
444.91	5734.31
445.10	5526.00
445.28	5717.93
445.47	5561.11
445.65	5437.06
445.84	5912.19
446.02	5720.27
446.21	5755.38
446.39	5722.61
446.58	5944.96
446.77	5846.66
446.95	5678.14
447.14	5746.02
447.32	5825.59
447.51	5743.67
447.69	5795.17
447.88	5778.78
448.06	5734.31
448.25	5825.59
448.43	5905.17
448.62	5734.31
448.80	5788.14
448.99	5776.44
449.17	5851.34
449.36	5895.81
449.54	5991.77
449.73	6087.73
449.91	6148.59
450.10	6127.52
450.28	6038.58
450.46	5944.96
450.65	6216.46
450.83	6235.19
451.02	6181.35
451.20	6223.48
451.39	6179.01
451.57	6176.67
451.76	6171.99
451.94	6064.33
452.13	6314.77
452.31	6223.48
452.49	6108.80
452.68	6354.55
452.86	6342.85
453.05	6370.94
453.23	6366.26
453.42	6356.90
453.60	6352.21
453.78	6445.84
453.97	6267.95
454.15	6434.13
454.34	6417.75
454.52	6640.10
454.70	6525.41
454.89	6705.63
455.07	6658.82
455.26	6623.72
455.44	6661.16
455.62	6663.51
455.81	6626.06
455.99	6801.60
456.17	6808.62
456.36	6796.92
456.54	6757.13
456.73	6862.45
456.91	7077.78
457.09	7091.82
457.28	7098.84
457.46	6953.73
457.64	7344.60
457.83	7246.30
458.01	7101.19
458.19	7145.66
458.38	7194.81
458.56	7150.34
458.74	7269.70
458.93	7098.84
459.11	7173.74
459.29	7157.36
459.48	7208.85
459.66	7323.54
459.84	7171.40
460.03	7405.46
460.21	7454.61
460.39	7445.24
460.57	7651.21
460.76	7506.10
460.94	7548.23
461.12	7435.88
461.31	7548.23
461.49	7583.34
461.67	7543.55
461.85	7709.72
462.04	7566.95
462.22	8243.37
462.40	7847.82
462.59	7581.00
462.77	7819.73
462.95	7747.17
463.13	7866.54
463.32	7873.56
463.50	7700.36
463.68	7978.89
463.86	8018.68
464.05	7808.03
464.23	7868.88
464.41	8119.32
464.59	7903.99
464.78	8093.57
464.96	8046.76
465.14	8177.83
465.32	7997.61
465.50	8060.80
465.69	8093.57
465.87	8128.68
466.05	8236.35
466.23	8353.37
466.41	8280.82
466.60	8652.96
466.78	8203.58
466.96	8294.86
467.14	8311.24
467.32	8262.09
467.51	8486.78
467.69	8241.03
467.87	8339.33
468.05	8688.07
468.23	8250.39
468.41	8322.94
468.60	8571.04
468.78	8781.69
468.96	8479.76
469.14	8503.17
469.32	8669.34
469.50	8437.63
469.69	8863.61
469.87	8627.21
470.05	8739.56
470.23	9034.47
470.41	8762.97
470.59	8645.94
470.77	8835.52
470.95	8889.35
471.14	8856.59
471.32	8987.66
471.50	9114.05
471.68	9207.67
471.86	9151.49
472.04	9184.26
472.22	9415.98
472.40	8978.30
472.58	9247.46
472.77	9329.38
472.95	9462.79
473.13	9832.59
473.31	9348.10
473.49	9584.49
473.67	9502.58
473.85	9458.10
474.03	9809.19
474.21	9720.24
474.39	9675.77
474.57	9912.17
474.75	9928.55
474.93	10012.81
475.12	9919.19
475.30	10296.02
475.48	10258.57
475.66	10001.11
475.84	10019.83
476.02	10338.15
476.20	10197.71
476.38	10293.68
476.56	10438.79
476.74	10778.17
476.92	10609.65
477.10	10490.28
477.28	10743.06
477.46	10799.23
477.64	10974.77
477.82	10970.09
478.00	11311.81
478.18	11269.68
478.36	11328.19
478.54	11295.43
478.72	11358.62
478.90	11545.86
479.08	11662.89
479.26	11716.72
479.44	11728.42
479.62	11786.94
479.80	11906.31
479.98	11969.50
480.16	12533.57
480.34	12100.57
480.52	12259.73
480.70	12208.23
480.88	12353.35
481.06	12559.31
481.24	12671.66
481.41	12767.62
481.59	12671.66
481.77	12875.29
481.95	12959.55
482.13	13380.84
482.31	13242.75
482.49	13420.63
482.67	13446.38
482.85	13598.51
483.03	13813.84
483.21	13362.12
483.39	13895.76
483.57	13980.02
483.74	14155.56
483.92	14242.16
484.10	14146.20
484.28	14406.00
484.46	14621.33
484.64	14508.98
484.82	14434.08
485.00	15082.41
485.18	15257.95
485.35	15178.37
485.53	15360.94
485.71	15154.97
485.89	15468.60
486.07	15580.95
486.25	15623.08
486.43	15286.04
486.61	15747.12
486.78	15974.16
486.96	15990.54
487.14	15936.71
487.32	16306.51
487.50	16395.45
487.68	16428.22
487.85	16692.70
488.03	17205.28
488.21	17261.45
488.39	16954.84
488.57	17125.70
488.75	17436.99
488.92	17486.14
489.10	17715.51
489.28	17495.50
489.46	17797.43
489.64	17881.69
489.81	18230.43
489.99	18118.09
490.17	18200.01
490.35	18654.07
490.53	18513.64
490.70	18541.72
490.88	18860.04
491.06	19171.33
491.24	18925.57
491.41	19218.14
491.59	19295.38
491.77	19318.78
491.95	19363.25
492.13	19960.09
492.30	19805.61
492.48	19793.91
492.66	19807.95
492.84	20016.26
493.01	20112.22
493.19	20325.21
493.37	20599.05
493.54	20430.54
493.72	20755.87
493.90	20563.95
494.08	21109.29
494.25	21069.50
494.43	21090.57
494.61	21081.21
494.79	21525.91
494.96	20919.71
495.14	21678.04
495.32	21542.29
495.49	21752.94
495.67	21792.73
495.85	22012.74
496.02	22366.16
496.20	22466.80
496.38	22492.55
496.55	22293.60
496.73	23103.43
496.91	23063.64
497.09	22497.23
497.26	23026.19
497.44	23056.62
497.62	23541.11
497.79	23257.90
497.97	23723.67
498.14	23747.08
498.32	23585.58
498.50	24006.87
498.67	23941.34
498.85	23831.33
499.03	24215.18
499.20	24222.20
499.38	24346.25
499.56	24435.19
499.73	24627.12
499.91	24938.41
500.08	24702.01
500.26	24748.82
500.44	24662.22
500.61	24800.32
500.79	24891.60
500.97	24938.41
501.14	25427.58
501.32	25369.07
501.49	25467.37
501.67	25460.35
501.84	25860.58
502.02	25743.55
502.20	25757.60
502.37	25947.18
502.55	26036.12
502.72	25736.53
502.90	26272.51
503.07	25862.92
503.25	26195.28
503.43	26115.70
503.60	26600.19
503.78	26679.77
503.95	26401.24
504.13	26867.01
504.30	26850.63
504.48	26654.02
504.65	26958.29
504.83	27112.77
505.01	27035.53
505.18	27253.20
505.36	27372.57
505.53	27637.05
505.71	27758.75
505.88	27641.73
506.06	27566.83
506.23	27931.95
506.41	27594.92
506.58	28070.04
506.76	27896.85
506.93	28025.57
507.11	28245.58
507.28	28247.93
507.46	28393.04
507.63	28084.09
507.81	28542.83
507.98	28355.59
508.16	28517.09
508.33	28779.23
508.50	28687.95
508.68	28999.24
508.85	28835.40
509.03	29071.79
509.20	29076.48
509.38	29525.86
509.55	29518.84
509.73	29661.61
509.90	29504.79
510.08	29619.48
510.25	29652.25
510.42	29673.31
510.60	29883.96
510.77	30176.53
510.95	30363.77
511.12	30525.27
511.30	29841.83
511.47	30562.72
511.64	30094.61
511.82	30607.19
511.99	30366.11
512.17	30749.96
512.34	30618.89
512.51	31222.75
512.69	31262.54
512.86	31030.82
513.04	31283.60
513.21	31241.47
513.38	31597.23
513.56	31274.24
513.73	31550.42
513.90	31166.57
514.08	31747.03
514.25	31821.92
514.43	31810.22
514.60	31630.00
514.77	31988.10
514.95	31571.49
515.12	31955.33
515.29	31676.81
515.47	32025.55
515.64	32313.44
515.81	32182.37
515.99	32500.68
516.16	32657.49
516.33	32114.49
516.51	32655.15
516.68	32517.06
516.85	32910.27
517.03	32940.70
517.20	32748.78
517.37	32863.46
517.54	33031.98
517.72	33165.39
517.89	33085.81
518.06	33156.03
518.24	33359.66
518.41	33263.69
518.58	33397.10
518.75	33050.70
518.93	33464.98
519.10	33905.00
519.27	33928.41
519.45	33759.89
519.62	34094.58
519.79	33893.30
519.96	33692.01
520.14	34235.02
520.31	34033.73
520.48	34047.77
520.65	34218.63
520.83	34794.40
521.00	34862.28
521.17	34759.30
521.34	34230.33
521.52	34962.92
521.69	34794.40
521.86	35000.37
522.03	34850.58
522.20	35311.66
522.38	34864.62
522.55	35178.25
522.72	35716.58
522.89	35122.08
523.07	35297.62
523.24	34899.73
523.41	35449.75
523.58	35456.78
523.75	35747.00
523.92	35948.29
524.10	35669.76
524.27	35665.08
524.44	35571.46
524.61	35938.93
524.78	35824.24
524.96	36322.77
525.13	36133.19
525.30	36112.13
525.47	36070.00
525.64	36086.38
525.81	36177.66
525.98	36875.14
526.16	36100.42
526.33	36126.17
526.50	37202.82
526.67	36374.27
526.84	36701.94
527.01	37083.45
527.18	37156.00
527.36	36882.16
527.53	37053.02
527.70	37631.13
527.87	37163.03
528.04	37228.56
528.21	37647.52
528.38	37392.40
528.55	37408.78
528.72	37556.24
528.89	37755.18
529.07	37268.35
529.24	37619.43
529.41	37612.41
529.58	37633.47
529.75	37350.27
529.92	37500.06
530.09	37731.78
530.26	37680.28
530.43	38398.83
530.60	37713.05
530.77	37996.26
530.94	38277.12
531.11	37750.50
531.28	38401.17
531.46	38234.99
531.63	38424.57
531.80	38548.62
531.97	38920.77
532.14	38862.26
532.31	38609.48
532.48	38780.34
532.65	38813.10
532.82	39005.03
532.99	38724.16
533.16	38705.44
533.33	39082.27
533.50	38834.17
533.67	39028.43
533.84	38806.08
534.01	39283.55
534.18	38972.26
534.35	39964.65
534.52	39236.74
534.69	39566.76
534.86	39620.59
535.03	39229.72
535.20	39730.59
535.37	39679.10
535.54	39812.51
535.71	39957.63
535.88	39676.76
536.05	39578.46
536.22	40179.98
536.38	40051.25
536.55	40140.19
536.72	39901.45
536.89	39594.84
537.06	39943.58
537.23	40189.34
537.40	40074.65
537.57	39772.72
537.74	40259.55
537.91	40561.48
538.08	40091.04
538.25	39908.47
538.42	40526.38
538.59	40797.88
538.75	40208.06
538.92	40959.38
539.09	40683.19
539.26	40947.67
539.43	40954.69
539.60	40851.71
539.77	41074.06
539.94	41151.30
540.11	41139.60
540.28	41055.34
540.44	41099.81
540.61	40926.61
540.78	41146.62
540.95	41226.20
541.12	41013.21
541.29	40980.44
541.46	41359.61
541.62	41380.67
541.79	41570.25
541.96	41134.92
542.13	41261.30
542.30	41106.83
542.47	41837.08
542.63	41677.92
542.80	41677.92
542.97	42038.36
543.14	42263.05
543.31	42101.56
543.48	42211.56
543.64	42431.57
543.81	42426.89
543.98	42281.78
544.15	42197.52
544.32	42616.47
544.48	42600.09
544.65	42309.86
544.82	42478.38
544.99	42548.60
545.16	42784.99
545.32	42153.05
545.49	42904.36
545.66	43365.45
545.83	42679.67
546.00	43271.82
546.16	42958.19
546.33	42827.12
546.50	42457.32
546.67	43332.68
546.83	42789.67
547.00	43098.62
547.17	42876.27
547.34	43161.82
547.50	43161.82
547.67	43161.82
547.84	42693.71
548.00	43367.79
548.17	43765.68
548.34	43592.48
548.51	43643.97
548.67	43503.54
548.84	43239.06
549.01	43147.78
549.18	43711.84
549.34	43658.01
549.51	43899.09
549.68	43538.65
549.84	43299.91
550.01	43707.16
550.18	43772.70
550.34	43784.40
550.51	43721.21
550.68	43964.62
550.84	43503.54
551.01	43992.71
551.18	43999.73
551.34	43810.15
551.51	44229.10
551.68	44318.04
551.84	44072.29
552.01	43985.69
552.18	44105.06
552.34	44032.50
552.51	44378.90
552.68	44114.42
552.84	44229.10
553.01	44341.45
553.18	43917.81
553.34	44526.35
553.51	44502.95
553.67	44554.44
553.84	44968.71
554.01	44357.83
554.17	44629.34
554.34	44509.97
554.51	44634.02
554.67	44839.98
554.84	44769.77
555.00	44594.23
555.17	44868.07
555.33	45464.91
555.50	44650.40
555.67	44816.58
555.83	45127.87
556.00	45565.55
556.16	45563.21
556.33	44872.75
556.50	44996.80
556.66	45226.17
556.83	44928.92
556.99	45095.10
557.16	45263.62
557.32	45507.04
557.49	45216.81
557.65	45083.40
557.82	45457.88
557.98	45406.39
558.15	45462.57
558.32	45659.17
558.48	45614.70
558.65	45696.62
558.81	45727.05
558.98	45481.29
559.14	45413.41
559.31	45200.43
559.47	45319.79
559.64	45970.46
559.80	45640.45
559.97	45661.51
560.13	45525.76
560.30	45413.41
560.46	46265.37
560.63	45734.07
560.79	46148.34
560.96	45860.46
561.12	45909.61
561.29	46057.06
561.45	45853.44
561.61	46157.70
561.78	45750.45
561.94	45834.71
562.11	45972.80
562.27	45794.92
562.44	46358.99
562.60	46309.84
562.77	46134.30
562.93	45703.64
563.10	46401.12
563.26	45925.99
563.42	46550.91
563.59	45904.93
563.75	45902.59
563.92	46059.40
564.08	46246.65
564.24	46541.55
564.41	46064.08
564.57	46064.08
564.74	46216.22
564.90	45970.46
565.07	46382.40
565.23	45951.74
565.39	46216.22
565.56	46583.68
565.72	46321.54
565.88	46693.69
566.05	46588.36
566.21	46190.47
566.38	46181.11
566.54	46550.91
566.70	46892.63
566.87	46796.67
567.03	46492.40
567.19	46855.18
567.36	46689.01
567.52	46532.19
567.68	47206.26
567.85	46724.11
568.01	46642.20
568.17	46602.41
568.34	46841.14
568.50	46848.16
568.66	46440.91
568.83	46660.92
568.99	46642.20
569.15	46712.41
569.32	46670.28
569.48	46967.53
569.64	47063.49
569.81	46955.83
569.97	47114.98
570.13	46674.96
570.30	46660.92
570.46	47276.48
570.62	47206.26
570.78	46775.61
570.95	46841.14
571.11	46871.57
571.27	46646.88
571.43	46618.79
571.60	46672.62
571.76	46864.55
571.92	46902.00
572.09	46918.38
572.25	46892.63
572.41	46787.31
572.57	47260.10
572.74	47227.33
572.90	47171.16
573.06	47079.88
573.22	47213.29
573.38	46848.16
573.55	47243.71
573.71	47402.87
573.87	46958.17
574.03	47208.61
574.20	47150.09
574.36	47501.17
574.52	47145.41
574.68	47276.48
574.84	47309.25
575.01	47297.55
575.17	47351.38
575.33	47206.26
575.49	47147.75
575.65	47540.96
575.82	47154.77
575.98	47178.18
576.14	47433.30
576.30	47318.61
576.46	47320.95
576.62	47227.33
576.79	47157.11
576.95	46731.14
577.11	47344.36
577.27	47466.06
577.43	47536.28
577.59	47028.38
577.75	47248.39
577.92	47002.64
578.08	46906.68
578.24	47248.39
578.40	47421.59
578.56	47119.66
578.72	47370.10
578.88	47847.57
579.04	47452.02
579.21	47360.74
579.37	47669.69
579.53	47824.17
579.69	47629.90
579.85	47393.51
580.01	47246.05
580.17	47136.05
580.33	47433.30
580.49	47508.19
580.65	47533.94
580.82	47730.54
580.98	47096.26
581.14	47145.41
581.30	47564.37
581.46	47416.91
581.62	47180.52
581.78	47302.23
581.94	47643.94
582.10	47332.65
582.26	47236.69
582.42	47440.32
582.58	47716.50
582.74	47494.15
582.90	47430.96
583.06	47571.39
583.22	47580.75
583.38	47805.44
583.54	47264.78
583.70	47402.87
583.86	47812.46
584.02	47641.60
584.18	47590.11
584.34	47555.00
584.50	48093.33
584.66	47814.80
584.82	47789.06
584.98	47868.64
585.14	48130.78
585.30	47519.90
585.46	47494.15
585.62	47543.30
585.78	47793.74
585.94	47262.44
586.10	47538.62
586.26	47648.63
586.42	48069.92
586.58	48032.47
586.74	47430.96
586.90	47505.85
587.06	47828.85
587.22	47519.90
587.38	47311.59
587.54	47498.83
587.70	47753.95
587.86	48119.07
588.02	47683.73
588.18	47477.77
588.34	47723.52
588.49	47915.45
588.65	47566.71
588.81	47728.20
588.97	47922.47
589.13	47824.17
589.29	47533.94
589.45	47693.10
589.61	48142.48
589.77	47838.21
589.93	48275.89
590.08	47938.85
590.24	48186.95
590.40	48392.92
590.56	48308.66
590.72	48044.18
590.88	48264.19
591.04	47985.66
591.20	48390.58
591.35	47920.13
591.51	47824.17
591.67	48591.86
591.83	48383.55
591.99	48107.37
592.15	47863.96
592.31	48170.57
592.46	47505.85
592.62	48392.92
592.78	48332.06
592.94	48285.25
593.10	48245.46
593.26	48163.54
593.41	48495.90
593.57	48121.41
593.73	48158.86
593.89	48451.43
594.05	48334.40
594.20	48226.74
594.36	48601.22
594.52	48353.13
594.68	48343.77
594.84	48107.37
594.99	48428.02
595.15	48587.18
595.31	48509.94
595.47	48341.42
595.62	48624.63
595.78	48257.17
595.94	48458.45
596.10	48076.94
596.25	48552.07
596.41	48835.28
596.57	47840.55
596.73	48641.01
596.88	48491.22
597.04	48549.73
597.20	48556.75
597.36	48603.56
597.51	48198.65
597.67	48271.21
597.83	48254.82
597.99	48540.37
598.14	48280.57
598.30	48456.11
598.46	48313.34
598.61	48685.48
598.77	48685.48
598.93	48430.36
599.09	48423.34
599.24	48903.15
599.40	48409.30
599.56	48493.56
599.71	48741.66
599.87	49055.29
600.03	48636.33
600.18	48538.03
600.34	48875.07
600.50	48552.07
600.65	48545.05
600.81	48718.25
600.97	48713.57
601.12	48905.49
601.28	48531.01
601.44	48753.36
601.59	48526.33
601.75	48495.90
601.91	48786.13
602.06	48978.05
602.22	48172.91
602.37	48013.75
602.53	48795.49
602.69	48369.51
602.84	48502.92
603.00	48526.33
603.16	48491.22
603.31	48484.20
603.47	48516.96
603.62	48409.30
603.78	49045.93
603.94	48435.05
604.09	48533.35
604.25	48397.60
604.40	48360.15
604.56	48493.56
604.71	49153.59
604.87	48336.74
605.03	48406.96
605.18	48406.96
605.34	48626.97
605.49	48053.54
605.65	48554.41
605.80	48151.84
605.96	48437.39
606.12	48470.15
606.27	48624.63
606.43	48179.93
606.58	48776.76
606.74	48643.35
606.89	48306.32
607.05	48584.84
607.20	48402.28
607.36	48430.36
607.51	48357.81
607.67	48289.93
607.82	48245.46
607.98	48474.84
608.13	48449.09
608.29	48133.12
608.44	48596.54
608.60	48100.35
608.75	48428.02
608.91	48481.86
609.06	48095.67
609.22	48409.30
609.37	48039.50
609.53	48437.39
609.68	48907.83
609.84	48294.61
609.99	48308.66
610.15	48435.05
610.30	48460.79
610.46	48067.58
610.61	48086.31
610.76	48467.81
610.92	47826.51
611.07	48266.53
611.23	48079.28
611.38	48327.38
611.54	48421.00
611.69	48573.14
611.84	48516.96
612.00	48093.33
612.15	48055.88
612.31	48200.99
612.46	47753.95
612.62	48252.48
612.77	47980.98
612.92	48254.82
613.08	47899.06
613.23	48226.74
613.39	48147.16
613.54	47721.18
613.69	48109.71
613.85	48025.45
614.00	47800.76
614.15	48027.79
614.31	47463.72
614.46	47894.38
614.62	47519.90
614.77	47863.96
614.92	47470.75
615.08	47758.63
615.23	47707.14
615.38	48268.87
615.54	47763.31
615.69	47711.82
615.84	47540.96
616.00	47749.27
616.15	48081.63
616.30	48212.70
616.46	47470.75
616.61	47775.02
616.76	47873.32
616.92	47852.25
617.07	47697.78
617.22	47730.54
617.37	47379.46
617.53	47215.63
617.68	47758.63
617.83	47756.29
617.99	48072.26
618.14	47400.53
618.29	47089.24
618.45	47363.08
618.60	47496.49
618.75	46747.52
618.90	47503.51
619.06	47559.69
619.21	47452.02
619.36	47587.77
619.51	47435.64
619.67	47143.07
619.82	47201.58
619.97	47580.75
620.12	46686.67
620.28	47143.07
620.43	47430.96
620.58	47215.63
620.73	47288.18
620.89	47615.86
621.04	47496.49
621.19	46808.37
621.34	47126.69
621.49	47021.36
621.65	47037.75
621.80	47636.92
621.95	47496.49
622.10	47105.62
622.25	46988.60
622.41	47014.34
622.56	46824.76
622.71	47330.31
622.86	46962.85
623.01	47026.04
623.16	47019.02
623.32	47117.32
623.47	46726.46
623.62	46923.06
623.77	47161.79
623.92	46653.90
624.07	46988.60
624.23	47096.26
624.38	46953.49
624.53	46820.08
624.68	46852.84
624.83	46808.37
624.98	46927.74
625.13	46499.42
625.29	46167.07
625.44	46553.26
625.59	46363.67
625.74	46787.31
625.89	46349.63
626.04	46541.55
626.19	46211.54
626.34	46274.73
626.49	46209.20
626.65	46223.24
626.80	46326.22
626.95	45961.10
627.10	45998.55
627.25	46225.58
627.40	46323.88
627.55	46464.32
627.70	46068.76
627.85	46583.68
628.00	46520.49
628.15	46581.34
628.30	46031.32
628.45	45799.60
628.60	45640.45
628.76	46103.87
628.91	45993.87
629.06	45745.77
629.21	45612.36
629.36	45830.03
629.51	45984.51
629.66	45902.59
629.81	45586.61
629.96	45977.48
630.11	45684.92
630.26	45535.12
630.41	46206.86
630.56	45666.19
630.71	45574.91
630.86	45783.22
631.01	45581.93
631.16	45357.24
631.31	45748.11
631.46	45696.62
631.61	45642.79
631.76	45752.79
631.91	45174.68
632.06	46031.32
632.21	45584.27
632.36	45701.30
632.51	45497.67
632.66	45439.16
632.81	45291.71
632.96	45670.87
633.10	45481.29
633.25	44928.92
633.40	45057.65
633.55	45471.93
633.70	44947.65
633.85	45289.37
634.00	44905.52
634.15	44692.53
634.30	44996.80
634.45	45095.10
634.60	45177.02
634.75	44776.79
634.90	45277.66
635.05	45443.84
635.19	45104.46
635.34	45123.19
635.49	45008.50
635.64	44884.45
635.79	45350.22
635.94	45167.66
636.09	45081.06
636.24	45090.42
636.39	44940.63
636.53	44849.35
636.68	44605.93
636.83	44594.23
636.98	44390.60
637.13	43875.68
637.28	44451.45
637.43	44982.76
637.57	44601.25
637.72	44678.49
637.87	44680.83
638.02	44680.83
638.17	44519.33
638.32	44107.40
638.46	44121.44
638.61	43957.60
638.76	43826.53
638.91	44083.99
639.06	44210.38
639.20	44030.16
639.35	44397.62
639.50	44102.71
639.65	44402.30
639.80	44194.00
639.94	44729.98
640.09	44233.78
640.24	44201.02
640.39	44020.80
640.54	43863.98
640.68	44151.87
640.83	44079.31
640.98	44156.55
641.13	43634.61
641.27	44236.12
641.42	43988.03
641.57	44194.00
641.72	43910.79
641.86	43569.07
642.01	43440.34
642.16	43545.67
642.31	43920.15
642.45	43803.13
642.60	43571.41
642.75	43360.76
642.90	43971.64
643.04	43709.50
643.19	43606.52
643.34	43475.45
643.48	43365.45
643.63	43646.31
643.78	43866.32
643.93	43658.01
644.07	43777.38
644.22	44172.93
644.37	43283.53
644.51	43531.62
644.66	43618.22
644.81	43445.02
644.95	43468.43
645.10	43779.72
645.25	43161.82
645.39	42962.87
645.54	43246.08
645.69	43079.90
645.83	42859.89
645.98	42660.94
646.13	43168.84
646.27	43030.75
646.42	42628.18
646.57	43440.34
646.71	43555.03
646.86	43318.64
647.00	43189.91
647.15	43257.78
647.30	43812.49
647.44	43187.56
647.59	42763.93
647.74	43037.77
647.88	42845.85
648.03	43012.02
648.17	43014.37
648.32	42906.70
648.47	42930.11
648.61	42817.76
648.76	43054.15
648.90	42740.52
649.05	42349.65
649.20	42848.19
649.34	42892.66
649.49	42665.63
649.63	42834.14
649.78	42813.08
649.92	42450.30
650.07	43171.18
650.21	43103.31
650.36	42581.37
650.51	42930.11
650.65	42948.83
650.80	42579.03
650.94	42829.46
651.09	42412.85
651.23	41792.61
651.38	42017.30
651.52	41727.07
651.67	42600.09
651.81	42319.23
651.96	42644.56
652.10	42073.47
652.25	42211.56
652.39	42146.03
652.54	42553.28
652.68	42071.13
652.83	41951.76
652.97	42328.59
653.12	41993.89
653.26	41902.61
653.41	42064.11
653.55	41645.15
653.70	42136.66
653.84	42265.39
653.99	42188.16
654.13	41918.99
654.27	41956.44
654.42	42153.05
654.56	41556.21
654.71	41937.72
654.85	41947.08
655.00	41907.29
655.14	42075.81
655.29	41776.22
655.43	42251.35
655.57	41701.32
655.72	41544.51
655.86	41556.21
656.01	41649.83
656.15	41483.66
656.30	41528.13
656.44	41626.43
656.58	41701.32
656.73	41507.06
656.87	41497.70
657.01	41490.68
657.16	41553.87
657.30	41652.17
657.45	41450.89
657.59	41165.34
657.73	40982.78
657.88	41387.69
658.02	40914.90
658.16	41329.18
658.31	41289.39
658.45	41462.59
658.60	40884.48
658.74	41137.26
658.88	41174.70
659.03	40374.24
659.17	40577.87
659.31	40645.74
659.46	40772.13
659.60	40722.98
659.74	40849.37
659.89	40554.46
660.03	40273.60
660.17	40378.92
660.32	40411.69
660.46	40196.36
660.60	40247.85
660.74	40416.37
660.89	40531.06
661.03	39803.15
661.17	39559.73
661.32	40320.41
661.46	40074.65
661.60	40023.16
661.74	39889.75
661.89	39807.83
662.03	39988.05
662.17	39662.72
662.31	39435.69
662.46	39594.84
662.60	39606.55
662.74	39555.05
662.88	39545.69
663.03	38838.85
663.17	39627.61
663.31	39225.04
663.45	39651.02
663.60	39398.24
663.74	39044.82
663.88	38953.54
664.02	39276.53
664.17	39342.06
664.31	39358.45
664.45	38834.17
664.59	38911.41
664.73	38834.17
664.88	38639.90
665.02	38742.89
665.16	38735.87
665.30	38829.49
665.44	38569.69
665.59	38272.44
665.73	38368.40
665.87	38075.84
666.01	38398.83
666.15	38527.56
666.29	38157.75
666.44	38150.73
666.58	38195.20
666.72	37940.08
666.86	38256.06
667.00	37834.76
667.14	37820.72
667.28	37879.23
667.43	37748.16
667.57	38478.41
667.71	38148.39
667.85	38192.86
667.99	37479.00
668.13	37551.56
668.27	37209.84
668.41	37729.44
668.56	37322.18
668.70	37216.86
668.84	36861.10
668.98	36914.93
669.12	37188.77
669.26	36980.46
669.40	37240.26
669.54	36992.17
669.68	37003.87
669.82	36802.58
669.96	36481.93
670.10	36245.54
670.25	36378.95
670.39	36547.47
670.53	36603.64
670.67	36835.35
670.81	36947.70
670.95	36409.37
671.09	36334.48
671.23	35782.11
671.37	36020.84
671.51	36053.61
671.65	36065.31
671.79	36172.98
671.93	36004.46
672.07	36297.03
672.21	36051.27
672.35	35864.03
672.49	35805.52
672.63	35777.43
672.77	35461.46
672.91	35644.02
673.05	35225.06
673.19	35056.54
673.33	35356.13
673.47	35105.70
673.61	34649.29
673.75	34806.11
673.89	34792.06
674.03	34590.78
674.17	34422.26
674.31	34181.18
674.45	33940.11
674.59	34136.71
674.73	34459.71
674.87	34178.84
675.01	34178.84
675.15	33956.49
675.29	33722.44
675.43	33631.16
675.56	33841.81
675.70	33553.92
675.84	33558.60
675.98	32484.30
676.12	33656.90
676.26	33317.53
676.40	33354.97
676.54	32893.89
676.68	32945.38
676.82	32177.68
676.96	33198.16
677.10	32594.30
677.23	32507.70
677.37	32779.20
677.51	32540.47
677.65	32594.30
677.79	32568.55
677.93	32393.01
678.07	32456.21
678.21	32067.68
678.34	31819.58
678.48	32011.51
678.62	31910.86
678.76	31597.23
678.90	31435.74
679.04	31351.48
679.18	31660.43
679.31	31480.21
679.45	31335.09
679.59	31035.50
679.73	31119.76
679.87	30859.96
680.00	30637.61
680.14	30871.67
680.28	30911.46
680.42	30693.79
680.56	30410.58
680.70	30192.91
680.83	30202.27
680.97	30096.95
681.11	29989.28
681.25	29633.52
681.39	29661.61
681.52	29837.15
681.66	29448.62
681.80	29153.71
681.94	29282.44
682.07	29078.82
682.21	28620.07
682.35	28849.44
682.49	28926.68
682.62	28842.42
682.76	29074.13
682.90	28786.25
683.04	28755.82
683.17	28793.27
683.31	28332.18
683.45	28451.55
683.59	28517.09
683.72	27903.87
683.86	28130.90
684.00	27938.97
684.13	27854.72
684.27	27594.92
684.41	27693.22
684.55	27601.94
684.68	27311.71
684.82	27229.79
684.96	27063.61
685.09	27735.35
685.23	27292.99
685.37	27428.74
685.50	27456.82
685.64	26845.94
685.78	26422.31
685.91	26656.36
686.05	26167.19
686.19	25996.33
686.32	26192.94
686.46	25783.34
686.60	25696.74
686.73	26405.92
686.87	25937.82
687.01	25603.12
687.14	25958.88
687.28	25752.91
687.42	25628.87
687.55	25202.89
687.69	25266.08
687.82	25064.80
687.96	25111.61
688.10	25219.27
688.23	24968.84
688.37	25191.19
688.50	25200.55
688.64	24727.76
688.78	25209.91
688.91	24439.87
689.05	24336.89
689.18	24123.90
689.32	23681.54
689.46	24074.75
689.59	24049.00
689.73	24060.71
689.86	23871.12
690.00	24109.86
690.13	23981.13
690.27	23616.01
690.41	23498.98
690.54	23220.45
690.68	23578.56
690.81	23260.24
690.95	23000.44
691.08	22843.63
691.22	22796.82
691.35	22944.27
691.49	22647.02
691.62	22897.46
691.76	22293.60
691.89	22274.88
692.03	22443.40
692.16	21687.40
692.30	22059.55
692.43	21919.12
692.57	21701.45
692.70	21701.45
692.84	21750.60
692.97	21659.32
693.11	21727.19
693.24	21380.79
693.38	21221.64
693.51	21247.38
693.65	21205.25
693.78	21312.92
693.92	21113.97
694.05	21160.78
694.19	20828.43
694.32	20863.54
694.45	20898.64
694.59	20915.03
694.72	20781.62
694.86	20652.89
694.99	20233.93
695.13	20006.90
695.26	20032.65
695.39	19946.05
695.53	19887.53
695.66	19789.23
695.80	19604.33
695.93	19541.13
696.07	19328.14
696.20	19419.42
696.33	18939.62
696.47	19080.05
696.60	19288.35
696.73	19440.49
696.87	19014.51
697.00	19288.35
697.14	19115.16
697.27	18733.65
697.40	18876.42
697.54	18630.66
697.67	18464.49
697.80	18527.68
697.94	18445.76
698.07	18237.45
698.21	18202.35
698.34	18211.71
698.47	17839.56
698.61	17844.24
698.74	17582.10
698.87	17481.46
699.01	17357.41
699.14	17958.93
699.27	17757.64
699.40	17441.67
699.54	17291.88
699.67	17558.70
699.80	17434.65
699.94	17097.61
700.07	17160.81
700.20	17097.61
700.34	16879.94
700.47	16999.31
700.60	17315.28
700.73	16915.05
700.87	16716.11
701.00	16451.63
701.13	16269.06
701.26	16365.03
701.40	16428.22
701.53	16130.97
701.66	16126.29
701.79	16002.24
701.93	15857.13
702.06	15861.81
702.19	15609.03
702.32	15609.03
702.46	15536.48
702.59	15873.51
702.72	15871.17
702.85	15625.42
702.99	15606.69
703.12	15206.46
703.25	15293.06
703.38	15197.10
703.51	15019.22
703.65	15068.37
703.78	14794.53
703.91	14766.44
704.04	14644.73
704.17	14516.00
704.31	14516.00
704.44	14668.14
704.57	14427.06
704.70	14413.02
704.83	14249.18
704.96	14583.88
705.10	14132.15
705.23	13900.44
>>>>>End Processed Spectral Data<<<<<
