SpectraSuite Data File
++++++++++++++++++++++++++++++++++++
Date: Fri Oct 25 10:47:10 EDT 2013
User: price-jones
Dark Spectrum Present: No
Reference Spectrum Present: No
Number of Sampled Component Spectra: 1
Spectrometers: USB2+H05261
Integration Time (usec): 100000 (USB2+H05261)
Spectra Averaged: 1 (USB2+H05261)
Boxcar Smoothing: 0 (USB2+H05261)
Correct for Electrical Dark: No (USB2+H05261)
Strobe/Lamp Enabled: No (USB2+H05261)
Correct for Detector Non-linearity: No (USB2+H05261)
Correct for Stray Light: No (USB2+H05261)
Number of Pixels in Processed Spectrum: 2048
>>>>>Begin Processed Spectral Data<<<<<
365.73	140.43
365.92	140.43
366.12	140.43
366.32	86.60
366.52	84.26
366.72	23.41
366.91	0.00
367.11	7.02
367.31	0.00
367.51	84.26
367.70	98.30
367.90	46.81
368.10	67.88
368.30	110.01
368.49	23.41
368.69	18.72
368.89	14.04
369.09	0.00
369.28	105.32
369.48	49.15
369.68	56.17
369.87	124.05
370.07	70.22
370.27	124.05
370.47	159.16
370.66	411.93
370.86	362.78
371.06	421.30
371.25	465.77
371.45	409.59
371.65	477.47
371.84	433.00
372.04	393.21
372.24	486.83
372.44	428.32
372.63	528.96
372.83	456.40
373.03	475.13
373.22	491.51
373.42	428.32
373.62	571.09
373.81	496.19
374.01	559.39
374.21	552.37
374.40	575.77
374.60	510.24
374.79	575.77
374.99	603.86
375.19	475.13
375.38	489.17
375.58	517.26
375.78	638.97
375.97	582.79
376.17	629.60
376.37	660.03
376.56	606.20
376.76	521.94
376.95	514.92
377.15	592.16
377.35	528.96
377.54	620.24
377.74	585.13
377.93	554.71
378.13	599.18
378.33	657.69
378.52	573.43
378.72	573.43
378.91	683.44
379.11	543.00
379.31	547.69
379.50	638.97
379.70	709.18
379.89	636.63
380.09	634.29
380.28	610.88
380.48	690.46
380.68	690.46
380.87	629.60
381.07	582.79
381.26	641.31
381.46	648.33
381.65	669.39
381.85	629.60
382.04	695.14
382.24	683.44
382.43	655.35
382.63	709.18
382.83	671.73
383.02	688.12
383.22	664.71
383.41	702.16
383.61	664.71
383.80	709.18
384.00	739.61
384.19	753.65
384.39	676.41
384.58	763.01
384.78	627.26
384.97	741.95
385.17	765.36
385.36	833.23
385.56	657.69
385.75	669.39
385.95	793.44
386.14	812.17
386.34	774.72
386.53	732.59
386.72	718.54
386.92	826.21
387.11	763.01
387.31	802.80
387.50	814.51
387.70	706.84
387.89	760.67
388.09	882.38
388.28	793.44
388.48	809.83
388.67	908.13
388.86	856.64
389.06	816.85
389.25	903.45
389.45	861.32
389.64	828.55
389.84	880.04
390.03	868.34
390.22	901.11
390.42	880.04
390.61	863.66
390.81	976.00
391.00	915.15
391.19	1008.77
391.39	922.17
391.58	950.26
391.78	957.28
391.97	1008.77
392.16	973.66
392.36	945.58
392.55	957.28
392.75	961.96
392.94	954.94
393.13	926.85
393.33	908.13
393.52	1004.09
393.71	1071.97
393.91	999.41
394.10	1006.43
394.29	997.07
394.49	1043.88
394.68	1109.41
394.88	1095.37
395.07	1114.10
395.26	1093.03
395.46	1109.41
395.65	1083.67
395.84	1090.69
396.04	1149.20
396.23	1046.22
396.42	1114.10
396.62	1151.54
396.81	1139.84
397.00	1170.27
397.19	1163.25
397.39	1228.78
397.58	1235.80
397.77	1233.46
397.97	1219.42
398.16	1224.10
398.35	1249.85
398.55	1226.44
398.74	1151.54
398.93	1221.76
399.12	1256.87
399.32	1313.04
399.51	1315.38
399.70	1352.83
399.90	1217.08
400.09	1376.24
400.28	1366.87
400.47	1397.30
400.67	1413.68
400.86	1404.32
401.05	1413.68
401.24	1357.51
401.44	1420.71
401.63	1399.64
401.82	1425.39
402.01	1453.47
402.21	1493.26
402.40	1614.97
402.59	1500.28
402.78	1439.43
402.97	1509.65
403.17	1549.43
403.36	1650.08
403.55	1568.16
403.74	1586.88
403.93	1582.20
404.13	1577.52
404.32	1556.46
404.51	1610.29
404.70	1589.22
404.89	1673.48
405.09	1741.36
405.28	1694.55
405.47	1673.48
405.66	1696.89
405.85	1720.29
406.05	1710.93
406.24	1664.12
406.43	1699.23
406.62	1732.00
406.81	1764.76
407.00	1708.59
407.20	1682.85
407.39	1753.06
407.58	1781.15
407.77	1849.02
407.96	1921.58
408.15	2019.88
408.34	1970.73
408.54	1935.62
408.73	1944.99
408.92	1947.33
409.11	2033.93
409.30	1956.69
409.49	1963.71
409.68	2045.63
409.87	2001.16
410.07	2033.93
410.26	2120.53
410.45	1994.14
410.64	2078.40
410.83	2157.97
411.02	2057.33
411.21	2282.02
411.40	2211.81
411.59	2270.32
411.78	2253.94
411.98	2197.76
412.17	2298.41
412.36	2211.81
412.55	2293.72
412.74	2387.35
412.93	2427.14
413.12	2455.22
413.31	2429.48
413.50	2293.72
413.69	2424.80
413.88	2546.50
414.07	2532.46
414.26	2490.33
414.45	2551.18
414.64	2583.95
414.83	2663.53
415.02	2600.34
415.22	2686.94
415.41	2665.87
415.60	2637.78
415.79	2719.70
415.98	2778.22
416.17	2818.00
416.36	2745.45
416.55	2750.13
416.74	2810.98
416.93	2773.53
417.12	2850.77
417.31	2794.60
417.50	2895.24
417.69	3056.74
417.88	3035.67
418.07	3019.29
418.26	3042.70
418.45	3155.04
418.64	3253.34
418.83	3185.47
419.02	3098.87
419.21	3129.30
419.39	3094.19
419.58	3033.33
419.77	3157.38
419.96	3023.97
420.15	3157.38
420.34	3286.11
420.53	3218.24
420.72	3262.71
420.91	3222.92
421.10	3302.50
421.29	3449.95
421.48	3379.73
421.67	3456.97
421.86	3421.86
422.05	3384.41
422.24	3265.05
422.43	3384.41
422.61	3445.27
422.80	3311.86
422.99	3377.39
423.18	3522.51
423.37	3585.70
423.56	3377.39
423.75	3403.14
423.94	3492.08
424.13	3208.87
424.32	3342.28
424.50	3576.34
424.69	3431.23
424.88	3541.23
425.07	3290.79
425.26	3431.23
425.45	3463.99
425.64	3508.46
425.83	3599.74
426.01	3655.92
426.20	3510.80
426.39	3501.44
426.58	3478.04
426.77	3499.10
426.96	3548.25
427.15	3524.85
427.33	3749.54
427.52	3627.83
427.71	3658.26
427.90	3599.74
428.09	3616.13
428.28	3763.58
428.46	3583.36
428.65	3686.34
428.84	3756.56
429.03	3728.47
429.22	3768.26
429.40	3857.20
429.59	3751.88
429.78	3590.38
429.97	3433.57
430.16	3726.13
430.34	3770.60
430.53	3824.44
430.72	3934.44
430.91	3840.82
431.10	3971.89
431.28	3969.55
431.47	3974.23
431.66	4060.83
431.85	3953.16
432.03	4100.62
432.22	4283.18
432.41	4044.45
432.60	4133.39
432.79	4056.15
432.97	4117.00
433.16	4149.77
433.35	4065.51
433.54	4170.83
433.72	4109.98
433.91	4269.14
434.10	4245.73
434.28	4271.48
434.47	4278.50
434.66	4367.44
434.85	4456.38
435.03	4428.29
435.22	4416.59
435.41	4463.40
435.59	4568.73
435.78	4561.70
435.97	4456.38
436.16	4292.54
436.34	4475.10
436.53	4542.98
436.72	4540.64
436.90	4624.90
437.09	4615.54
437.28	4442.34
437.46	4770.01
437.65	4559.36
437.84	4793.42
438.02	4550.00
438.21	4606.17
438.40	4685.75
438.58	4690.43
438.77	4760.65
438.96	4723.20
439.14	4933.85
439.33	4887.04
439.52	5001.72
439.70	5041.51
439.89	5050.88
440.08	4938.53
440.26	4950.23
440.45	5064.92
440.63	5198.33
440.82	5284.93
441.01	5221.74
441.19	5359.83
441.38	5357.49
441.57	5224.08
441.75	5298.97
441.94	5434.72
442.12	5338.76
442.31	5472.17
442.50	5575.16
442.68	5430.04
442.87	5600.90
443.05	5549.41
443.24	5666.44
443.43	5530.69
443.61	5551.75
443.80	5650.05
443.98	5549.41
444.17	5490.90
444.35	5657.07
444.54	5767.08
444.73	5748.36
444.91	5598.56
445.10	5685.16
445.28	5760.06
445.47	5710.91
445.65	5769.42
445.84	5760.06
446.02	5778.78
446.21	5802.19
446.39	5743.67
446.58	5825.59
446.77	5937.94
446.95	5738.99
447.14	5764.74
447.32	5968.37
447.51	5743.67
447.69	5703.89
447.88	5902.83
448.06	5834.96
448.25	5954.32
448.43	5930.92
448.62	5998.79
448.80	5811.55
448.99	6047.94
449.17	6029.22
449.36	6050.28
449.54	6134.54
449.73	6218.80
449.91	6174.33
450.10	6230.51
450.28	6064.33
450.46	6148.59
450.65	6303.06
450.83	6190.72
451.02	6211.78
451.20	6420.09
451.39	6258.59
451.57	6300.72
451.76	6253.91
451.94	6197.74
452.13	6534.78
452.31	6312.42
452.49	6396.68
452.68	6319.45
452.86	6387.32
453.05	6328.81
453.23	6567.54
453.42	6443.49
453.60	6413.07
453.78	6612.01
453.97	6494.99
454.15	6511.37
454.34	6356.90
454.52	6466.90
454.70	6485.62
454.89	6785.21
455.07	6700.95
455.26	6658.82
455.44	6651.80
455.62	6885.86
455.81	6780.53
455.99	6918.62
456.17	6839.05
456.36	6722.02
456.54	7061.40
456.73	7070.76
456.91	7035.65
457.09	7138.63
457.28	7276.73
457.46	7112.89
457.64	7293.11
457.83	6888.20
458.01	7021.61
458.19	7201.83
458.38	7133.95
458.56	7356.30
458.74	7304.81
458.93	7239.28
459.11	7375.03
459.29	7258.00
459.48	7356.30
459.66	7393.75
459.84	7283.75
460.03	7513.12
460.21	7559.93
460.39	7705.04
460.57	7508.44
460.76	7606.74
460.94	7756.54
461.12	7735.47
461.31	7672.28
461.49	7543.55
461.67	7557.59
461.85	7644.19
462.04	7585.68
462.22	8250.39
462.40	7875.90
462.59	7747.17
462.77	7534.18
462.95	7864.20
463.13	7761.22
463.32	7861.86
463.50	7985.91
463.68	8032.72
463.86	8016.33
464.05	7744.83
464.23	7929.74
464.41	7983.57
464.59	7822.07
464.78	8039.74
464.96	7995.27
465.14	7918.03
465.32	8013.99
465.50	8374.44
465.69	8098.25
465.87	8086.55
466.05	8311.24
466.23	8119.32
466.41	8161.45
466.60	8290.18
466.78	8215.28
466.96	8133.36
467.14	8182.51
467.32	8283.16
467.51	8559.34
467.69	8170.81
467.87	8318.26
468.05	8477.42
468.23	8351.03
468.41	8439.97
468.60	8369.76
468.78	8549.98
468.96	8365.07
469.14	8669.34
469.32	8905.74
469.50	8198.90
469.69	8683.39
469.87	8868.29
470.05	8720.84
470.23	8613.17
470.41	8645.94
470.59	8835.52
470.77	8643.60
470.95	8856.59
471.14	9004.04
471.32	8819.14
471.50	9156.18
471.68	9092.98
471.86	8994.68
472.04	9357.46
472.22	9310.65
472.40	9181.92
472.58	9270.86
472.77	9362.14
472.95	9324.69
473.13	9781.10
473.31	9385.55
473.49	9465.13
473.67	9521.30
473.85	9497.89
474.03	9640.67
474.21	9884.08
474.39	9771.74
474.57	9909.83
474.75	9860.68
474.93	10024.51
475.12	9996.43
475.30	10076.01
475.48	10015.15
475.66	10019.83
475.84	10010.47
476.02	10097.07
476.20	10286.65
476.38	10352.19
476.56	10633.05
476.74	10504.32
476.92	10642.42
477.10	10794.55
477.28	10675.18
477.46	10761.78
477.64	10864.77
477.82	11007.54
478.00	11274.36
478.18	11140.95
478.36	11297.77
478.54	11480.33
478.72	11169.04
478.90	11611.40
479.08	11515.44
479.26	11707.36
479.44	11623.10
479.62	11742.47
479.80	11798.64
479.98	11981.20
480.16	12390.80
480.34	12074.82
480.52	12329.94
480.70	12212.92
480.88	12201.21
481.06	12613.15
481.24	12306.54
481.41	12690.38
481.59	12601.44
481.77	12699.75
481.95	12688.04
482.13	13149.13
482.31	13004.02
482.49	13167.85
482.67	13528.30
482.85	13535.32
483.03	13324.67
483.21	13823.20
483.39	13628.94
483.57	13540.00
483.74	13834.91
483.92	14092.37
484.10	13980.02
484.28	14366.21
484.46	14359.19
484.64	14696.22
484.82	14235.14
485.00	14525.36
485.18	14806.23
485.35	15194.76
485.53	15059.01
485.71	14778.14
485.89	15101.14
486.07	15009.86
486.25	15358.60
486.43	15419.45
486.61	15520.09
486.78	15826.70
486.96	15550.52
487.14	16058.42
487.32	16098.20
487.50	16098.20
487.68	16166.08
487.85	16416.52
488.03	16650.57
488.21	16762.92
488.39	16791.00
488.57	16922.07
488.75	17015.69
488.92	17144.42
489.10	17479.12
489.28	17444.01
489.46	17575.08
489.64	17802.11
489.81	17935.53
489.99	18178.94
490.17	18106.38
490.35	18565.13
490.53	18321.71
490.70	18590.88
490.88	18656.41
491.06	18679.82
491.24	18623.64
491.41	18984.09
491.59	18789.82
491.77	19049.62
491.95	18972.38
492.13	19721.35
492.30	19477.94
492.48	19726.04
492.66	19611.35
492.84	19887.53
493.01	19887.53
493.19	19747.10
493.37	20168.40
493.54	20189.46
493.72	20355.64
493.90	20353.30
494.08	20493.73
494.25	20856.51
494.43	21095.25
494.61	21048.44
494.79	21188.87
494.96	20975.88
495.14	21020.35
495.32	21338.66
495.49	21404.20
495.67	21633.57
495.85	21549.31
496.02	21748.26
496.20	21881.67
496.38	22228.07
496.55	22370.84
496.73	22499.57
496.91	22295.94
497.09	22391.91
497.26	22754.69
497.44	22614.26
497.62	22824.90
497.79	22906.82
497.97	22719.58
498.14	23204.07
498.32	23489.62
498.50	23498.98
498.67	23585.58
498.85	23557.49
499.03	23939.00
499.20	23564.51
499.38	23967.09
499.56	23821.97
499.73	23964.75
499.91	24428.17
500.08	24112.20
500.26	24084.11
500.44	24126.24
500.61	24320.51
500.79	24315.83
500.97	24432.85
501.14	24854.15
501.32	24648.18
501.49	24540.52
501.67	25233.32
501.84	25013.31
502.02	25191.19
502.20	25153.74
502.37	25371.41
502.55	25219.27
502.72	26024.42
502.90	25261.40
503.07	25453.33
503.25	25572.69
503.43	25469.71
503.60	25867.60
503.78	25851.22
503.95	25818.45
504.13	26412.95
504.30	26291.24
504.48	26417.63
504.65	26480.82
504.83	26419.97
505.01	26618.91
505.18	26623.59
505.36	27110.43
505.53	26506.57
505.71	27068.30
505.88	26899.78
506.06	27070.64
506.23	27084.68
506.41	26937.23
506.58	27391.29
506.76	27367.88
506.93	27585.55
507.11	27300.01
507.28	27695.56
507.46	27480.23
507.63	27693.22
507.81	27814.93
507.98	27578.53
508.16	28182.39
508.33	27955.36
508.50	28009.19
508.68	28327.50
508.85	28601.35
509.03	28467.94
509.20	28411.76
509.38	28671.56
509.55	28524.11
509.73	28409.42
509.90	29034.35
510.08	28664.54
510.25	29188.82
510.42	28856.46
510.60	29188.82
510.77	29411.17
510.95	29579.69
511.12	29322.23
511.30	29219.25
511.47	29703.74
511.64	29446.28
511.82	29865.24
511.99	29663.95
512.17	29926.09
512.34	29425.22
512.51	29825.45
512.69	30239.72
512.86	30396.54
513.04	30302.92
513.21	30380.15
513.38	30202.27
513.56	30038.44
513.73	30422.28
513.90	30565.06
514.08	30506.54
514.25	30553.35
514.43	30506.54
514.60	30778.04
514.77	30766.34
514.95	30941.88
515.12	30878.69
515.29	31131.47
515.47	31379.56
515.64	31491.91
515.81	30813.15
515.99	31344.45
516.16	31229.77
516.33	31477.86
516.51	31236.79
516.68	31166.57
516.85	31264.88
517.03	31475.52
517.20	31833.63
517.37	31442.76
517.54	31807.88
517.72	31962.36
517.89	31924.91
518.06	31587.87
518.24	31955.33
518.41	31641.70
518.58	32156.62
518.75	31995.12
518.93	32341.52
519.10	32507.70
519.27	32465.57
519.45	32070.02
519.62	32622.39
519.79	33127.94
519.96	32776.86
520.14	33230.93
520.31	32648.13
520.48	32992.19
520.65	32587.28
520.83	33350.29
521.00	33249.65
521.17	33088.15
521.34	33254.33
521.52	33567.96
521.69	33462.64
521.86	33680.31
522.03	33766.91
522.20	33783.29
522.38	34012.66
522.55	33748.18
522.72	33661.58
522.89	33481.36
523.07	33991.60
523.24	34017.35
523.41	33968.19
523.58	34377.79
523.75	34639.93
523.92	34412.90
524.10	34457.37
524.27	34415.24
524.44	34593.12
524.61	34501.84
524.78	34714.83
524.96	35168.89
525.13	34951.22
525.30	35061.22
525.47	35335.07
525.64	35285.92
525.81	35196.98
525.98	35381.88
526.16	35166.55
526.33	34881.00
526.50	35452.09
526.67	35105.70
526.84	35295.28
527.01	35290.60
527.18	35182.93
527.36	35353.79
527.53	35475.50
527.70	35585.50
527.87	35761.05
528.04	35569.12
528.21	35426.35
528.38	36072.34
528.55	36027.87
528.72	35922.54
528.89	35962.33
529.07	36172.98
529.24	36072.34
529.41	36060.63
529.58	36084.04
529.75	35782.11
529.92	35756.36
530.09	36231.49
530.26	36500.65
530.43	36666.83
530.60	36168.30
530.77	36601.30
530.94	36774.50
531.11	37097.49
531.28	36814.29
531.46	36931.31
531.63	36900.89
531.80	37275.37
531.97	37015.57
532.14	36844.71
532.31	36816.63
532.48	37027.28
532.65	37266.01
532.82	37029.62
532.99	37153.66
533.16	37280.05
533.33	37312.82
533.50	37439.21
533.67	37521.13
533.84	37216.86
534.01	37120.90
534.18	37329.20
534.35	37926.04
534.52	37745.82
534.69	37642.84
534.86	37411.12
535.03	37858.17
535.20	38000.94
535.37	38508.83
535.54	38361.38
535.71	37984.55
535.88	37710.71
536.05	38040.73
536.22	38157.75
536.38	38220.95
536.55	38014.98
536.72	38122.65
536.89	38206.90
537.06	38403.51
537.23	38373.08
537.40	38440.96
537.57	38565.01
537.74	38724.16
537.91	38789.70
538.08	38646.93
538.25	38719.48
538.42	38644.59
538.59	38799.06
538.75	38536.92
538.92	38742.89
539.09	38857.57
539.26	38820.13
539.43	39037.80
539.60	39166.52
539.77	38829.49
539.94	39337.38
540.11	38829.49
540.28	38895.02
540.44	39150.14
540.61	39271.85
540.78	38923.11
540.95	39267.17
541.12	38902.04
541.29	39215.68
541.46	38876.30
541.62	39239.08
541.79	39571.44
541.96	39349.09
542.13	39796.13
542.30	39335.04
542.47	39533.99
542.63	39241.42
542.80	39648.68
542.97	39901.45
543.14	40257.21
543.31	40418.71
543.48	40105.08
543.64	40409.35
543.81	40318.07
543.98	40072.31
544.15	40722.98
544.32	40566.16
544.48	40701.92
544.65	40720.64
544.82	40545.10
544.99	40098.06
545.16	40313.39
545.32	39983.37
545.49	40624.68
545.66	40617.66
545.83	40821.28
546.00	40917.25
546.16	40603.61
546.33	40765.11
546.50	40364.88
546.67	40865.75
546.83	40858.73
547.00	40767.45
547.17	40732.34
547.34	40811.92
547.50	41153.64
547.67	41148.96
547.84	40919.59
548.00	41588.98
548.17	41280.03
548.34	41270.67
548.51	41291.73
548.67	41525.78
548.84	41677.92
549.01	41076.40
549.18	41394.71
549.34	41591.32
549.51	41827.71
549.68	41572.60
549.84	41275.35
550.01	41757.50
550.18	41551.53
550.34	41787.92
550.51	41631.11
550.68	41467.27
550.84	41085.76
551.01	41918.99
551.18	42059.43
551.34	41713.03
551.51	41294.07
551.68	41698.98
551.84	42127.30
552.01	41902.61
552.18	41808.99
552.34	41675.58
552.51	41834.74
552.68	41874.52
552.84	42417.53
553.01	42515.83
553.18	42354.33
553.34	42139.00
553.51	41900.27
553.67	41792.61
553.84	42337.95
554.01	42621.16
554.17	42663.28
554.34	42848.19
554.51	41984.53
554.67	42609.45
554.84	42405.83
555.00	41694.30
555.17	42195.18
555.33	42068.79
555.50	42653.92
555.67	42508.81
555.83	42361.36
556.00	42707.76
556.16	42796.70
556.33	43023.73
556.50	42492.43
556.66	42731.16
556.83	42817.76
556.99	43056.50
557.16	43157.14
557.32	43187.56
557.49	42700.73
557.65	42536.90
557.82	42885.64
557.98	42909.04
558.15	42728.82
558.32	43070.54
558.48	43047.13
558.65	42628.18
558.81	42993.30
558.98	42707.76
559.14	43323.32
559.31	42918.40
559.47	42911.38
559.64	43643.97
559.80	43297.57
559.97	43009.68
560.13	42965.21
560.30	43079.90
560.46	43136.07
560.63	43208.63
560.79	43288.21
560.96	43468.43
561.12	43580.78
561.29	43217.99
561.45	43356.08
561.61	43241.40
561.78	43131.39
561.94	43533.96
562.11	43236.72
562.27	43000.32
562.44	43145.44
562.60	43459.07
562.77	43601.84
562.93	43196.93
563.10	43782.06
563.26	43707.16
563.42	43318.64
563.59	43309.27
563.75	43686.10
563.92	43585.46
564.08	43615.88
564.24	44222.08
564.41	43501.20
564.57	43938.88
564.74	43988.03
564.90	44069.95
565.07	43519.92
565.23	43679.08
565.39	43739.93
565.56	43634.61
565.72	43522.26
565.88	43650.99
566.05	43316.29
566.21	43751.63
566.38	43641.63
566.54	43505.88
566.70	44296.98
566.87	43800.79
567.03	44060.58
567.19	44088.67
567.36	43737.59
567.52	43484.81
567.68	44144.84
567.85	43744.61
568.01	44074.63
568.17	43695.46
568.34	43842.92
568.50	44273.57
568.66	43257.78
568.83	44182.29
568.99	43793.76
569.15	43388.85
569.32	43658.01
569.48	43868.66
569.64	44266.55
569.81	44428.05
569.97	43981.01
570.13	44233.78
570.30	43775.04
570.46	43779.72
570.62	43704.82
570.78	43875.68
570.95	43643.97
571.11	44495.92
571.27	44025.48
571.43	44182.29
571.60	43810.15
571.76	44374.22
571.92	44175.27
572.09	44055.90
572.25	43992.71
572.41	43887.39
572.57	44271.23
572.74	44383.58
572.90	44467.84
573.06	44203.36
573.22	43995.05
573.38	44112.08
573.55	43826.53
573.71	44423.37
573.87	44226.76
574.03	43983.35
574.20	43824.19
574.36	44025.48
574.52	44168.25
574.68	43929.51
574.84	44271.23
575.01	44074.63
575.17	44364.85
575.33	44112.08
575.49	44512.31
575.65	44694.87
575.82	44186.97
575.98	43826.53
576.14	44772.11
576.30	44718.28
576.46	44149.53
576.62	44046.54
576.79	44095.69
576.95	43807.81
577.11	43990.37
577.27	44041.86
577.43	44425.71
577.59	44362.51
577.75	44294.64
577.92	44006.75
578.08	44257.19
578.24	44011.43
578.40	44308.68
578.56	44081.65
578.72	44091.01
578.88	44472.52
579.04	44364.85
579.21	44069.95
579.37	44198.68
579.53	44392.94
579.69	43952.92
579.85	44273.57
580.01	44287.62
580.17	44425.71
580.33	44350.81
580.49	44573.16
580.65	44186.97
580.82	44706.57
580.98	44484.22
581.14	44175.27
581.30	44835.30
581.46	44657.42
581.62	44568.48
581.78	44421.03
581.94	44451.45
582.10	44456.14
582.26	44629.34
582.42	44755.72
582.58	44327.41
582.74	44154.21
582.90	44790.83
583.06	44343.79
583.22	44666.78
583.38	44376.56
583.54	44603.59
583.70	44531.03
583.86	44411.67
584.02	44245.49
584.18	44650.40
584.34	44680.83
584.50	44116.76
584.66	44217.40
584.82	44758.06
584.98	44669.12
585.14	44795.51
585.30	44669.12
585.46	43889.73
585.62	44477.20
585.78	44601.25
585.94	44140.16
586.10	44570.82
586.26	44013.77
586.42	44376.56
586.58	44641.04
586.74	44397.62
586.90	44222.08
587.06	43931.86
587.22	44872.75
587.38	44243.15
587.54	44495.92
587.70	45067.02
587.86	44830.62
588.02	44631.68
588.18	44889.13
588.34	44495.92
588.49	44006.75
588.65	44196.34
588.81	44196.34
588.97	44175.27
589.13	44568.48
589.29	44446.77
589.45	44870.41
589.61	44509.97
589.77	44589.55
589.93	44594.23
590.08	44729.98
590.24	44781.47
590.40	44839.98
590.56	45106.80
590.72	44961.69
590.88	44570.82
591.04	44711.25
591.20	44882.11
591.35	44945.31
591.51	45291.71
591.67	44601.25
591.83	44893.82
591.99	44596.57
592.15	44580.18
592.31	44858.71
592.46	44566.14
592.62	44584.86
592.78	45198.09
592.94	44830.62
593.10	44629.34
593.26	45237.87
593.41	44638.70
593.57	44737.00
593.73	44706.57
593.89	44624.65
594.05	44610.61
594.20	44722.96
594.36	44839.98
594.52	44954.67
594.68	44971.05
594.84	44746.36
594.99	45207.45
595.15	44760.40
595.31	44765.09
595.47	44868.07
595.62	44655.08
595.78	44900.84
595.94	45043.61
596.10	45385.33
596.25	45111.49
596.41	44430.39
596.57	44741.68
596.73	45041.27
596.88	44779.13
597.04	44928.92
597.20	45153.62
597.36	44610.61
597.51	45256.60
597.67	44917.22
597.83	45462.57
597.99	45144.25
598.14	44877.43
598.30	45059.99
598.46	45071.70
598.61	44842.32
598.77	44472.52
598.93	44898.50
599.09	44858.71
599.24	45249.58
599.40	45048.29
599.56	45237.87
599.71	45305.75
599.87	44814.24
600.03	44767.43
600.18	44835.30
600.34	44767.43
600.50	44896.16
600.65	44638.70
600.81	45155.96
600.97	45368.94
601.12	45492.99
601.28	45130.21
601.44	44889.13
601.59	44776.79
601.75	44605.93
601.91	45485.97
602.06	44823.60
602.22	45090.42
602.37	44942.97
602.53	44896.16
602.69	45481.29
602.84	44608.27
603.00	44664.44
603.16	44858.71
603.31	44240.81
603.47	45125.53
603.62	44395.28
603.78	44828.28
603.94	44879.77
604.09	45085.74
604.25	44875.09
604.40	44933.60
604.56	44652.74
604.71	45067.02
604.87	44481.88
605.03	44893.82
605.18	44900.84
605.34	44652.74
605.49	44474.86
605.65	44807.22
605.80	44762.75
605.96	45022.54
606.12	45132.55
606.27	44793.17
606.43	44699.55
606.58	45312.77
606.74	44491.24
606.89	45059.99
607.05	44437.41
607.20	44996.80
607.36	44797.85
607.51	45228.51
607.67	45045.95
607.82	45116.17
607.98	44725.30
608.13	44931.26
608.29	44350.81
608.44	44563.80
608.60	44189.31
608.75	44519.33
608.91	44381.24
609.06	44718.28
609.22	44957.01
609.37	44289.96
609.53	44353.15
609.68	44540.39
609.84	44439.75
609.99	45289.37
610.15	44378.90
610.30	44421.03
610.46	44130.80
610.61	44472.52
610.76	44439.75
610.92	44304.00
611.07	44687.85
611.23	44615.29
611.38	44399.96
611.54	44041.86
611.69	44383.58
611.84	44357.83
612.00	44126.12
612.15	43859.30
612.31	44315.70
612.46	44374.22
612.62	44341.45
612.77	43693.12
612.92	44411.67
613.08	43964.62
613.23	44259.53
613.39	43597.16
613.54	43749.29
613.69	43995.05
613.85	43920.15
614.00	44109.74
614.15	44301.66
614.31	44231.44
614.46	44308.68
614.62	43798.44
614.77	44245.49
614.92	43999.73
615.08	43758.66
615.23	43826.53
615.38	43920.15
615.54	43796.10
615.69	43372.47
615.84	43365.45
616.00	43674.40
616.15	43817.17
616.30	43529.28
616.46	43140.75
616.61	43576.09
616.76	43903.77
616.92	43629.93
617.07	43590.14
617.22	43672.06
617.37	43477.79
617.53	43217.99
617.68	43669.72
617.83	43735.25
617.99	43938.88
618.14	43723.55
618.29	43545.67
618.45	43021.39
618.60	43412.26
618.75	43512.90
618.90	43548.01
619.06	43646.31
619.21	43430.98
619.36	43508.22
619.51	43452.05
619.67	43482.47
619.82	43400.55
619.97	43688.44
620.12	42934.79
620.28	42370.72
620.43	42995.64
620.58	42960.53
620.73	43213.31
620.89	42906.70
621.04	43227.35
621.19	43115.01
621.34	43082.24
621.49	43143.09
621.65	42824.78
621.80	42564.98
621.95	42607.11
622.10	42714.78
622.25	42522.85
622.41	42445.62
622.56	42871.59
622.71	43014.37
622.86	42532.22
623.01	42707.76
623.16	42754.57
623.32	42546.26
623.47	43063.52
623.62	42660.94
623.77	42667.97
623.92	42576.69
624.07	42452.64
624.23	42459.66
624.38	42384.76
624.53	42263.05
624.68	42611.79
624.83	42370.72
624.98	42487.74
625.13	42562.64
625.29	42188.16
625.44	42277.10
625.59	41984.53
625.74	41914.31
625.89	41951.76
626.04	41766.86
626.19	42295.82
626.34	42335.61
626.49	42679.67
626.65	41911.97
626.80	42157.73
626.95	41811.33
627.10	41839.42
627.25	41778.56
627.40	42007.94
627.55	41745.80
627.70	41418.12
627.85	41979.85
628.00	41544.51
628.15	42174.11
628.30	41694.30
628.45	42073.47
628.60	41921.34
628.76	41958.78
628.91	42298.16
629.06	41965.81
629.21	41319.82
629.36	41570.25
629.51	41467.27
629.66	41490.68
629.81	41331.52
629.96	41689.62
630.11	41537.49
630.26	41617.07
630.41	41205.13
630.56	41525.78
630.71	41315.14
630.86	41738.77
631.01	41071.72
631.16	41691.96
631.31	41200.45
631.46	40975.76
631.61	41191.09
631.76	41144.28
631.91	41228.54
632.06	41111.51
632.21	41071.72
632.36	41338.54
632.51	41336.20
632.66	40861.07
632.81	40638.72
632.96	41280.03
633.10	40538.08
633.25	40605.95
633.40	40959.38
633.55	41134.92
633.70	41163.00
633.85	40685.53
634.00	40769.79
634.15	40912.56
634.30	40624.68
634.45	41102.15
634.60	40247.85
634.75	40636.38
634.90	40924.27
635.05	40753.41
635.19	40926.61
635.34	40662.13
635.49	40727.66
635.64	40392.97
635.79	40315.73
635.94	40318.07
636.09	40292.32
636.24	40020.82
636.39	40236.15
636.53	40313.39
636.68	40107.42
636.83	40109.76
636.98	40360.20
637.13	39725.91
637.28	40313.39
637.43	40584.89
637.57	40662.13
637.72	40271.26
637.87	40474.88
638.02	40182.32
638.17	40381.26
638.32	39819.53
638.46	39597.18
638.61	40025.50
638.76	39779.74
638.91	39896.77
639.06	39763.36
639.20	39908.47
639.35	40051.25
639.50	39636.97
639.65	39964.65
639.80	39812.51
639.94	39826.56
640.09	39800.81
640.24	39157.16
640.39	39402.92
640.54	39445.05
640.68	39592.50
640.83	39129.08
640.98	39838.26
641.13	39590.16
641.27	39742.30
641.42	39423.98
641.57	39672.08
641.72	40016.14
641.86	39297.59
642.01	39065.88
642.16	39344.41
642.31	38810.76
642.45	39372.49
642.60	39306.96
642.75	39145.46
642.90	39271.85
643.04	39093.97
643.19	39257.81
643.34	39613.57
643.48	39171.21
643.63	39339.72
643.78	39185.25
643.93	38932.47
644.07	39112.69
644.22	38710.12
644.37	38770.97
644.51	38995.67
644.66	38581.39
644.81	38518.20
644.95	39108.01
645.10	39283.55
645.25	38967.58
645.39	39206.31
645.54	39096.31
645.69	38799.06
645.83	38483.09
645.98	38834.17
646.13	38614.16
646.27	39012.05
646.42	38852.89
646.57	38576.71
646.71	38934.81
646.86	39070.56
647.00	38693.74
647.15	39037.80
647.30	38742.89
647.44	38733.53
647.59	38630.54
647.74	38352.02
647.88	38485.43
648.03	38670.33
648.17	38160.09
648.32	38541.60
648.47	38265.42
648.61	37853.48
648.76	38501.81
648.90	38108.60
649.05	38810.76
649.20	38478.41
649.34	38763.95
649.49	37909.66
649.63	38494.79
649.78	38087.54
649.92	37989.24
650.07	38553.30
650.21	38110.94
650.36	37757.52
650.51	38209.25
650.65	38543.94
650.80	38092.22
650.94	38499.47
651.09	38082.86
651.23	38108.60
651.38	37965.83
651.52	37862.85
651.67	37785.61
651.81	38045.41
651.96	37986.89
652.10	37820.72
652.25	37699.01
652.39	38022.00
652.54	37425.17
652.68	37834.76
652.83	37998.60
652.97	38232.65
653.12	37656.88
653.26	37553.90
653.41	37830.08
653.55	37687.31
653.70	37462.61
653.84	37792.63
653.99	37893.27
654.13	37862.85
654.27	37818.38
654.42	38377.76
654.56	37865.19
654.71	37715.39
654.85	37514.11
655.00	37350.27
655.14	37249.63
655.29	36945.36
655.43	37266.01
655.57	36940.68
655.72	37024.93
655.86	36657.47
656.01	36940.68
656.15	37081.11
656.30	36840.03
656.44	36870.46
656.58	36779.18
656.73	36966.42
656.87	36561.51
657.01	36580.23
657.16	36500.65
657.30	36439.80
657.45	36184.68
657.59	36765.14
657.73	36423.42
657.88	36615.34
658.02	36360.22
658.16	36786.20
658.31	36723.01
658.45	36671.51
658.60	36510.02
658.74	36446.82
658.88	36659.81
659.03	36229.15
659.17	36395.33
659.31	36208.09
659.46	36388.31
659.60	36161.28
659.74	36236.17
659.89	36187.02
660.03	36149.57
660.17	36378.95
660.32	36362.56
660.46	36378.95
660.60	36238.51
660.74	36163.62
660.89	35763.39
661.03	35489.54
661.17	35749.34
661.32	35452.09
661.46	35426.35
661.60	35648.70
661.74	35871.05
661.89	35424.01
662.03	35526.99
662.17	35218.04
662.31	35501.25
662.46	35564.44
662.60	35585.50
662.74	35435.71
662.88	35208.68
663.03	35136.12
663.17	35608.91
663.31	34473.75
663.45	34838.87
663.60	35194.64
663.74	34691.42
663.88	34445.66
664.02	34803.77
664.17	34621.20
664.31	34440.98
664.45	34541.63
664.59	34494.82
664.73	35042.50
664.88	34904.41
665.02	34352.04
665.16	34408.22
665.30	34265.44
665.44	34398.85
665.59	34277.15
665.73	33881.60
665.87	34010.32
666.01	34211.61
666.15	33750.52
666.29	33956.49
666.44	34059.48
666.58	34120.33
666.72	33743.50
666.86	34253.74
667.00	34206.93
667.14	33736.48
667.28	33689.67
667.43	33401.79
667.57	33773.93
667.71	33401.79
667.85	33223.90
667.99	33411.15
668.13	33486.04
668.27	33221.56
668.41	33127.94
668.56	33383.06
668.70	33151.35
668.84	33242.63
668.98	32683.24
669.12	33146.67
669.26	33394.76
669.40	33104.54
669.54	32809.63
669.68	32985.17
669.82	32849.42
669.96	32718.35
670.10	32517.06
670.25	32697.28
670.39	33111.56
670.53	32907.93
670.67	32814.31
670.81	32863.46
670.95	32875.16
671.09	32116.83
671.23	32191.73
671.37	32524.08
671.51	31716.60
671.65	31835.97
671.79	32151.94
671.93	31941.29
672.07	32156.62
672.21	32456.21
672.35	31669.79
672.49	31388.92
672.63	32123.85
672.77	31754.05
672.91	31552.76
673.05	31328.07
673.19	31115.08
673.33	31009.76
673.47	31622.98
673.61	31087.00
673.75	30981.67
673.89	31007.42
674.03	30918.48
674.17	30834.22
674.31	31201.68
674.45	30646.97
674.59	30792.09
674.73	31082.31
674.87	31161.89
675.01	30567.40
675.15	30904.43
675.29	30696.13
675.43	30787.41
675.56	30862.30
675.70	30150.78
675.84	30204.61
675.98	28966.47
676.12	30045.46
676.26	30019.71
676.40	29621.82
676.54	29570.33
676.68	29563.31
676.82	29366.70
676.96	29167.76
677.10	29095.20
677.23	29111.58
677.37	29071.79
677.51	29427.56
677.65	29146.69
677.79	28706.67
677.93	28903.28
678.07	28870.51
678.21	28416.44
678.34	28287.71
678.48	28374.31
678.62	28510.07
678.76	28287.71
678.90	28442.19
679.04	28257.29
679.18	28135.58
679.31	27550.45
679.45	27978.76
679.59	27459.16
679.73	27730.67
679.87	27566.83
680.00	27906.21
680.14	27590.24
680.28	27513.00
680.42	27096.38
680.56	27875.78
680.70	27133.83
680.83	26862.33
680.97	26934.88
681.11	27061.27
681.25	26569.76
681.39	26710.19
681.52	26845.94
681.66	26754.66
681.80	26766.37
681.94	26319.32
682.07	26354.43
682.21	26377.84
682.35	26452.73
682.49	26260.81
682.62	26288.90
682.76	25951.86
682.90	25865.26
683.04	25596.10
683.17	25855.90
683.31	25912.07
683.45	25577.37
683.59	25530.56
683.72	25355.02
683.86	25060.12
684.00	25254.38
684.13	25111.61
684.27	25083.52
684.41	25191.19
684.55	25039.05
684.68	24643.50
684.82	24828.40
684.96	24636.48
685.09	24861.17
685.23	24493.71
685.37	24634.14
685.50	24250.29
685.64	24159.01
685.78	24479.66
685.91	24013.90
686.05	24175.39
686.19	23761.12
686.32	23939.00
686.46	23363.23
686.60	23271.95
686.73	23552.81
686.87	23208.75
687.01	23391.31
687.14	23557.49
687.28	23065.98
687.42	23089.38
687.55	22965.34
687.69	22958.31
687.82	22651.70
687.96	22696.17
688.10	22759.37
688.23	22635.32
688.37	22335.73
688.50	21961.25
688.64	22071.25
688.78	21895.71
688.91	22214.02
689.05	22064.23
689.18	22347.44
689.32	21947.20
689.46	22099.34
689.59	22118.06
689.73	22022.10
689.86	21809.11
690.00	21664.00
690.13	21851.24
690.27	21504.84
690.41	21525.91
690.54	21027.37
690.68	21081.21
690.81	21099.93
690.95	20849.49
691.08	20772.25
691.22	20552.24
691.35	21060.14
691.49	20840.13
691.62	20835.45
691.76	20774.60
691.89	20589.69
692.03	20203.50
692.16	20156.69
692.30	20067.75
692.43	20020.94
692.57	19915.62
692.70	19861.79
692.84	19761.14
692.97	19932.00
693.11	19431.13
693.24	19683.91
693.38	19440.49
693.51	19445.17
693.65	19400.70
693.78	19573.90
693.92	19339.85
694.05	19164.31
694.19	19325.80
694.32	19154.94
694.45	18965.36
694.59	18822.59
694.72	18860.04
694.86	18867.06
694.99	18656.41
695.13	18469.17
695.26	18391.93
695.39	18267.88
695.53	18136.81
695.66	18204.69
695.80	18265.54
695.93	18050.21
696.07	18171.92
696.20	18036.17
696.33	17940.21
696.47	17757.64
696.60	17923.82
696.73	17874.67
696.87	17628.92
697.00	17898.08
697.14	17528.27
697.27	17523.59
697.40	17502.53
697.54	17284.86
697.67	17469.76
697.80	17268.47
697.94	17322.30
698.07	16952.50
698.21	17188.89
698.34	16924.41
698.47	16772.28
698.61	16353.32
698.74	16578.01
698.87	16652.91
699.01	16587.38
699.14	16512.48
699.27	16343.96
699.40	16503.12
699.54	16203.53
699.67	16049.05
699.80	16140.33
699.94	15843.09
700.07	15997.56
700.20	15925.00
700.34	15707.34
700.47	15765.85
700.60	15885.22
700.73	15700.31
700.87	15550.52
701.00	15499.03
701.13	15232.21
701.26	15248.59
701.40	15566.90
701.53	15227.53
701.66	15264.97
701.79	15040.28
701.93	14946.66
702.06	14951.34
702.19	14970.07
702.32	14766.44
702.46	14539.41
702.59	14579.20
702.72	14555.79
702.85	14696.22
702.99	14658.78
703.12	14558.13
703.25	14551.11
703.38	14558.13
703.51	14347.48
703.65	14167.26
703.78	14068.96
703.91	14033.85
704.04	14160.24
704.17	13769.37
704.31	13898.10
704.44	13626.60
704.57	13444.04
704.70	13500.21
704.83	13584.47
704.96	13537.66
705.10	13870.01
705.23	13607.87
>>>>>End Processed Spectral Data<<<<<
