SpectraSuite Data File
++++++++++++++++++++++++++++++++++++
Date: Fri Oct 25 10:44:01 EDT 2013
User: price-jones
Dark Spectrum Present: No
Reference Spectrum Present: No
Number of Sampled Component Spectra: 1
Spectrometers: USB2+H05261
Integration Time (usec): 100000 (USB2+H05261)
Spectra Averaged: 1 (USB2+H05261)
Boxcar Smoothing: 0 (USB2+H05261)
Correct for Electrical Dark: No (USB2+H05261)
Strobe/Lamp Enabled: No (USB2+H05261)
Correct for Detector Non-linearity: No (USB2+H05261)
Correct for Stray Light: No (USB2+H05261)
Number of Pixels in Processed Spectrum: 2048
>>>>>Begin Processed Spectral Data<<<<<
365.73	86.60
365.92	86.60
366.12	86.60
366.32	18.72
366.52	0.00
366.72	58.51
366.91	0.00
367.11	0.00
367.31	7.02
367.51	39.79
367.70	0.00
367.90	14.04
368.10	28.09
368.30	35.11
368.49	37.45
368.69	72.56
368.89	4.68
369.09	0.00
369.28	0.00
369.48	0.00
369.68	51.49
369.87	110.01
370.07	110.01
370.27	152.13
370.47	217.67
370.66	402.57
370.86	433.00
371.06	482.15
371.25	514.92
371.45	397.89
371.65	437.68
371.84	418.96
372.04	547.69
372.24	477.47
372.44	503.22
372.63	458.74
372.83	528.96
373.03	491.51
373.22	517.26
373.42	519.60
373.62	559.39
373.81	538.32
374.01	617.90
374.21	538.32
374.40	601.52
374.60	561.73
374.79	601.52
374.99	615.56
375.19	624.92
375.38	608.54
375.58	613.22
375.78	564.07
375.97	533.64
376.17	629.60
376.37	554.71
376.56	603.86
376.76	601.52
376.95	587.47
377.15	578.11
377.35	641.31
377.54	643.65
377.74	573.43
377.93	634.29
378.13	578.11
378.33	671.73
378.52	685.78
378.72	638.97
378.91	617.90
379.11	589.82
379.31	674.07
379.50	617.90
379.70	716.20
379.89	671.73
380.09	643.65
380.28	557.05
380.48	685.78
380.68	720.88
380.87	718.54
381.07	725.57
381.26	772.38
381.46	660.03
381.65	676.41
381.85	629.60
382.04	688.12
382.24	807.48
382.43	697.48
382.63	706.84
382.83	678.76
383.02	755.99
383.22	800.46
383.41	732.59
383.61	725.57
383.80	826.21
384.00	737.27
384.19	727.91
384.39	734.93
384.58	800.46
384.78	856.64
384.97	774.72
385.17	816.85
385.36	809.83
385.56	856.64
385.75	844.93
385.95	800.46
386.14	828.55
386.34	861.32
386.53	748.97
386.72	863.66
386.92	866.00
387.11	938.55
387.31	837.91
387.50	887.06
387.70	912.81
387.89	851.96
388.09	891.74
388.28	931.53
388.48	847.27
388.67	924.51
388.86	926.85
389.06	999.41
389.25	917.49
389.45	1011.11
389.64	1001.75
389.84	990.05
390.03	1008.77
390.22	1078.99
390.42	917.49
390.61	1018.13
390.81	1006.43
391.00	1123.46
391.19	1102.39
391.39	1109.41
391.58	1057.92
391.78	1027.50
391.97	999.41
392.16	1060.26
392.36	1121.12
392.55	976.00
392.75	980.68
392.94	943.24
393.13	1027.50
393.33	992.39
393.52	1025.15
393.71	1135.16
393.91	1111.75
394.10	1104.73
394.29	1118.78
394.49	1139.84
394.68	1273.25
394.88	1270.91
395.07	1256.87
395.26	1252.19
395.46	1315.38
395.65	1221.76
395.84	1245.16
396.04	1228.78
396.23	1158.57
396.42	1130.48
396.62	1179.63
396.81	1163.25
397.00	1350.49
397.19	1357.51
397.39	1317.72
397.58	1380.92
397.77	1313.04
397.97	1409.00
398.16	1369.21
398.35	1570.50
398.55	1439.43
398.74	1523.69
398.93	1502.62
399.12	1554.12
399.32	1418.36
399.51	1554.12
399.70	1596.25
399.90	1696.89
400.09	1650.08
400.28	1652.42
400.47	1629.01
400.67	1764.76
400.86	1720.29
401.05	1699.23
401.24	1575.18
401.44	1703.91
401.63	1809.23
401.82	1668.80
402.01	1680.50
402.21	1771.79
402.40	1802.21
402.59	1757.74
402.78	1806.89
402.97	1762.42
403.17	1867.75
403.36	1856.04
403.55	1898.17
403.74	1907.54
403.93	1930.94
404.13	1926.26
404.32	1942.64
404.51	1863.07
404.70	2022.22
404.89	1970.73
405.09	1994.14
405.28	2005.84
405.47	2001.16
405.66	2003.50
405.85	2050.31
406.05	2064.35
406.24	2099.46
406.43	2090.10
406.62	2153.29
406.81	2157.97
407.00	2043.29
407.20	2066.69
407.39	2153.29
407.58	2181.38
407.77	2200.10
407.96	2267.98
408.15	2286.70
408.34	2200.10
408.54	2399.05
408.73	2253.94
408.92	2258.62
409.11	2298.41
409.30	2459.90
409.49	2434.16
409.68	2305.43
409.87	2258.62
410.07	2387.35
410.26	2399.05
410.45	2464.58
410.64	2506.71
410.83	2546.50
411.02	2462.24
411.21	2761.83
411.40	2635.44
411.59	2689.28
411.78	2743.11
411.98	2703.32
412.17	2700.98
412.36	2752.47
412.55	2839.07
412.74	2911.63
412.93	2771.19
413.12	2832.05
413.31	2897.58
413.50	2909.29
413.69	2932.69
413.88	2993.55
414.07	2890.56
414.26	3005.25
414.45	2974.82
414.64	3040.36
414.83	3150.36
415.02	3082.49
415.22	3094.19
415.41	3192.49
415.60	3199.51
415.79	3337.60
415.98	3295.47
416.17	3403.14
416.36	3426.54
416.55	3375.05
416.74	3361.01
416.93	3435.91
417.12	3466.33
417.31	3463.99
417.50	3487.40
417.69	3653.58
417.88	3456.97
418.07	3503.78
418.26	3508.46
418.45	3583.36
418.64	3597.40
418.83	3662.94
419.02	3634.85
419.21	3702.73
419.39	3770.60
419.58	3684.00
419.77	3534.21
419.96	3719.11
420.15	3735.50
420.34	3836.14
420.53	3705.07
420.72	3847.84
420.91	3908.69
421.10	3861.88
421.29	4016.36
421.48	3761.24
421.67	3904.01
421.86	3794.01
422.05	3861.88
422.24	3812.73
422.43	3782.31
422.61	3798.69
422.80	4039.76
422.99	4014.02
423.18	4014.02
423.37	3913.38
423.56	4037.42
423.75	4114.66
423.94	3999.98
424.13	3936.78
424.32	3861.88
424.50	4112.32
424.69	3929.76
424.88	4100.62
425.07	4051.47
425.26	3969.55
425.45	4049.13
425.64	3929.76
425.83	4093.60
426.01	4241.05
426.20	4147.43
426.39	4002.32
426.58	4081.89
426.77	4042.11
426.96	4042.11
427.15	4100.62
427.33	4250.41
427.52	4184.88
427.71	4180.20
427.90	4278.50
428.09	4414.25
428.28	4292.54
428.46	4198.92
428.65	4362.76
428.84	4486.81
429.03	4458.72
429.22	4161.47
429.40	4168.49
429.59	4245.73
429.78	4121.68
429.97	4119.34
430.16	4100.62
430.34	4138.07
430.53	4271.48
430.72	4451.70
430.91	4266.80
431.10	4411.91
431.28	4465.74
431.47	4784.06
431.66	4692.77
431.85	4550.00
432.03	4720.86
432.22	4702.14
432.41	4711.50
432.60	4833.21
432.79	4821.50
432.97	4983.00
433.16	4985.34
433.35	4788.74
433.54	4746.61
433.72	4823.84
433.91	4767.67
434.10	4910.44
434.28	4978.32
434.47	4877.68
434.66	5064.92
434.85	4938.53
435.03	5268.55
435.22	5104.71
435.41	5282.59
435.59	5305.99
435.78	5238.12
435.97	5095.35
436.16	5252.16
436.34	5341.10
436.53	5256.84
436.72	5296.63
436.90	5259.18
437.09	5195.99
437.28	5083.64
437.46	5317.70
437.65	5383.23
437.84	5355.15
438.02	5261.52
438.21	5263.86
438.40	5083.64
438.58	5617.29
438.77	5476.85
438.96	5699.20
439.14	5626.65
439.33	5748.36
439.52	5675.80
439.70	5746.02
439.89	5788.14
440.08	5907.51
440.26	5865.38
440.45	5851.34
440.63	6043.26
440.82	6064.33
441.01	6097.10
441.19	6183.70
441.38	6188.38
441.57	6359.24
441.75	6267.95
441.94	6502.01
442.12	6546.48
442.31	6476.26
442.50	6298.38
442.68	6471.58
442.87	6511.37
443.05	6462.22
443.24	6593.29
443.43	6626.06
443.61	6656.48
443.80	6839.05
443.98	6513.71
444.17	6244.55
444.35	6619.04
444.54	6906.92
444.73	6583.93
444.91	6562.86
445.10	6597.97
445.28	6469.24
445.47	6698.61
445.65	6724.36
445.84	6621.38
446.02	6843.73
446.21	6705.63
446.39	6768.83
446.58	6977.14
446.77	6656.48
446.95	6710.32
447.14	6764.15
447.32	6949.05
447.51	6909.26
447.69	6839.05
447.88	7016.93
448.06	6841.39
448.25	7108.21
448.43	6843.73
448.62	6857.77
448.80	6768.83
448.99	7117.57
449.17	7117.57
449.36	6949.05
449.54	7119.91
449.73	7206.51
449.91	7279.07
450.10	7255.66
450.28	7232.26
450.46	7396.09
450.65	7447.58
450.83	7492.05
451.02	7323.54
451.20	7478.01
451.39	7449.93
451.57	7571.63
451.76	7391.41
451.94	7557.59
452.13	7536.52
452.31	7307.15
452.49	7236.94
452.68	7550.57
452.86	7400.77
453.05	7349.28
453.23	7466.31
453.42	7356.30
453.60	7442.90
453.78	7641.85
453.97	7524.82
454.15	7735.47
454.34	7634.83
454.52	7859.52
454.70	7672.28
454.89	7747.17
455.07	7843.14
455.26	7756.54
455.44	7992.93
455.62	7920.37
455.81	7847.82
455.99	7857.18
456.17	8067.83
456.36	8145.06
456.54	8016.33
456.73	8156.77
456.91	8348.69
457.09	8203.58
457.28	8592.11
457.46	8287.84
457.64	8442.31
457.83	8510.19
458.01	8322.94
458.19	8592.11
458.38	8180.17
458.56	8444.65
458.74	8430.61
458.93	8456.36
459.11	8446.99
459.29	8402.52
459.48	8423.59
459.66	8561.68
459.84	8552.32
460.03	8683.39
460.21	8692.75
460.39	8533.59
460.57	8762.97
460.76	8535.93
460.94	8882.33
461.12	8889.35
461.31	8727.86
461.49	8788.71
461.67	8908.08
461.85	9048.51
462.04	8924.46
462.22	9437.04
462.40	9067.24
462.59	9121.07
462.77	9200.65
462.95	9074.26
463.13	9172.56
463.32	9128.09
463.50	9146.81
463.68	9128.09
463.86	9156.18
464.05	9298.95
464.23	9289.59
464.41	9308.31
464.59	9095.32
464.78	9476.83
464.96	9430.02
465.14	9343.42
465.32	9509.60
465.50	9380.87
465.69	9373.85
465.87	9462.79
466.05	9291.93
466.23	9378.53
466.41	9352.78
466.60	9617.26
466.78	9392.57
466.96	9493.21
467.14	9558.75
467.32	9369.16
467.51	9750.67
467.69	9488.53
467.87	9465.13
468.05	9783.44
468.23	9797.48
468.41	9633.64
468.60	9834.93
468.78	9837.27
468.96	10080.69
469.14	10047.92
469.32	10026.86
469.50	9750.67
469.69	10181.33
469.87	9900.47
470.05	10136.86
470.23	10118.14
470.41	10286.65
470.59	9907.49
470.77	10043.24
470.95	10186.01
471.14	10333.47
471.32	10054.94
471.50	10532.41
471.68	10485.60
471.86	10328.78
472.04	10473.90
472.22	10745.40
472.40	10349.85
472.58	10494.96
472.77	10548.79
472.95	10906.90
473.13	11321.17
473.31	10815.62
473.49	10813.28
473.67	10930.30
473.85	11035.63
474.03	11302.45
474.21	11103.50
474.39	11342.24
474.57	11513.10
474.75	11194.78
474.93	11522.46
475.12	11342.24
475.30	11485.01
475.48	11356.28
475.66	11454.58
475.84	11611.40
476.02	11709.70
476.20	11672.25
476.38	11810.34
476.56	12063.12
476.74	12191.85
476.92	11985.88
477.10	12180.15
477.28	12528.89
477.46	12243.34
477.64	12468.03
477.82	12556.97
478.00	12905.71
478.18	12886.99
478.36	12769.96
478.54	12884.65
478.72	13036.78
478.90	13446.38
479.08	13387.86
479.26	13259.13
479.44	13378.50
479.62	13617.24
479.80	13561.06
479.98	13701.50
480.16	14122.79
480.34	13949.59
480.52	14045.55
480.70	13944.91
480.88	13968.32
481.06	14239.82
481.24	14539.41
481.41	14839.00
481.59	14745.38
481.77	14635.37
481.95	14843.68
482.13	14850.70
482.31	14984.11
482.49	15339.87
482.67	15222.84
482.85	15269.66
483.03	15517.75
483.21	15445.20
483.39	15868.83
483.57	15639.46
483.74	15644.14
483.92	15910.96
484.10	15744.78
484.28	16257.36
484.46	16500.78
484.64	16727.81
484.82	16299.49
485.00	16622.48
485.18	16723.13
485.35	16889.31
485.53	16524.18
485.71	16418.86
485.89	16826.11
486.07	16753.55
486.25	16814.41
486.43	17401.88
486.61	17228.68
486.78	17745.94
486.96	17385.50
487.14	18232.77
487.32	18207.03
487.50	18513.64
487.68	18331.08
487.85	18862.38
488.03	18794.50
488.21	18967.70
488.39	18829.61
488.57	18773.44
488.75	19077.71
488.92	19562.20
489.10	19601.99
489.28	19761.14
489.46	19882.85
489.64	20077.12
489.81	20601.40
489.99	20671.61
490.17	20465.64
490.35	21088.23
490.53	20851.83
490.70	20662.25
490.88	20945.45
491.06	21111.63
491.24	21252.06
491.41	21212.28
491.59	21373.77
491.77	21420.58
491.95	21373.77
492.13	21624.21
492.30	21848.90
492.48	22312.33
492.66	22253.81
492.84	22466.80
493.01	22560.42
493.19	22609.58
493.37	22679.79
493.54	22789.80
493.72	22794.48
493.90	22862.35
494.08	23515.36
494.25	23468.55
494.43	23592.60
494.61	23566.85
494.79	24159.01
494.96	24023.26
495.14	24264.33
495.32	24013.90
495.49	23995.17
495.67	24809.68
495.85	24538.18
496.02	25046.07
496.20	24872.87
496.38	24786.27
496.55	25081.18
496.73	25472.05
496.91	25326.94
497.09	25404.17
497.26	25406.52
497.44	25450.99
497.62	26146.12
497.79	26115.70
497.97	25560.99
498.14	25652.27
498.32	25993.99
498.50	26281.88
498.67	26501.89
498.85	26478.48
499.03	26813.18
499.20	26391.88
499.38	26993.40
499.56	27138.51
499.73	27061.27
499.91	26967.65
500.08	27363.20
500.26	27068.30
500.44	27288.31
500.61	27295.33
500.79	27185.32
500.97	27559.81
501.14	27730.67
501.32	27679.18
501.49	27892.16
501.67	27548.11
501.84	28114.52
502.02	27840.67
502.20	28140.26
502.37	28512.41
502.55	28231.54
502.72	28753.48
502.90	28732.42
503.07	28128.56
503.25	28638.80
503.43	28418.78
503.60	28514.75
503.78	28472.62
503.95	28692.63
504.13	28807.31
504.30	29172.44
504.48	29146.69
504.65	29207.55
504.83	29820.77
505.01	29991.62
505.18	29893.32
505.36	30263.13
505.53	29991.62
505.71	30120.35
505.88	30412.92
506.06	30127.38
506.23	30127.38
506.41	29717.78
506.58	30459.73
506.76	30490.16
506.93	30649.32
507.11	30574.42
507.28	30911.46
507.46	30665.70
507.63	30274.83
507.81	30649.32
507.98	30953.58
508.16	30607.19
508.33	31068.27
508.50	31438.08
508.68	31234.45
508.85	31812.56
509.03	31538.72
509.20	31424.03
509.38	31573.83
509.55	32002.14
509.73	32362.59
509.90	32273.65
510.08	31978.74
510.25	32081.72
510.42	31974.06
510.60	32074.70
510.77	32397.70
510.95	32877.51
511.12	32470.25
511.30	32458.55
511.47	33039.00
511.64	33193.48
511.82	33364.34
511.99	32533.45
512.17	33090.49
512.34	33053.05
512.51	32762.82
512.69	33385.40
512.86	33163.05
513.04	33500.09
513.21	33589.03
513.38	33020.28
513.56	33399.44
513.73	33504.77
513.90	34033.73
514.08	33668.61
514.25	34073.52
514.43	33652.22
514.60	33954.15
514.77	34192.89
514.95	34323.96
515.12	34239.70
515.29	34003.30
515.47	34574.39
515.64	34588.44
515.81	34438.64
515.99	34345.02
516.16	34272.46
516.33	34267.78
516.51	33923.72
516.68	33940.11
516.85	33743.50
517.03	34078.20
517.20	34852.92
517.37	35033.14
517.54	34778.02
517.72	34644.61
517.89	34625.89
518.06	34848.24
518.24	34932.50
518.41	34810.79
518.58	35461.46
518.75	35082.29
518.93	35351.45
519.10	35538.69
519.27	35660.40
519.45	35655.72
519.62	36081.70
519.79	35658.06
519.96	36023.19
520.14	36158.94
520.31	35948.29
520.48	36222.13
520.65	36346.18
520.83	36767.48
521.00	36374.27
521.17	36797.90
521.34	36252.56
521.52	36664.49
521.69	36900.89
521.86	37200.47
522.03	36868.12
522.20	36989.83
522.38	36758.11
522.55	37483.68
522.72	36992.17
522.89	36816.63
523.07	37347.93
523.24	36945.36
523.41	37497.72
523.58	37174.73
523.75	37799.65
523.92	38073.49
524.10	38075.84
524.27	37975.19
524.44	37942.42
524.61	38300.53
524.78	38143.71
524.96	38096.90
525.13	38024.34
525.30	38249.03
525.47	38438.62
525.64	38328.61
525.81	38319.25
525.98	38230.31
526.16	38452.66
526.33	37823.06
526.50	38094.56
526.67	37907.32
526.84	38139.03
527.01	38071.15
527.18	38497.13
527.36	38806.08
527.53	39367.81
527.70	39407.60
527.87	39384.19
528.04	39152.48
528.21	39189.93
528.38	39035.45
528.55	39363.13
528.72	39187.59
528.89	40161.25
529.07	39428.66
529.24	39271.85
529.41	39285.89
529.58	39758.68
529.75	39679.10
529.92	39955.29
530.09	39803.15
530.26	39749.32
530.43	40074.65
530.60	40273.60
530.77	40271.26
530.94	40158.91
531.11	40140.19
531.28	39784.43
531.46	40289.98
531.63	40491.27
531.80	40130.83
531.97	40018.48
532.14	40168.27
532.31	39648.68
532.48	39978.69
532.65	40397.65
532.82	40275.94
532.99	40540.42
533.16	40247.85
533.33	40758.09
533.50	40463.18
533.67	40854.05
533.84	40502.97
534.01	40727.66
534.18	40800.22
534.35	41434.50
534.52	40947.67
534.69	41013.21
534.86	41439.18
535.03	41263.64
535.20	41392.37
535.37	41436.84
535.54	41516.42
535.71	41418.12
535.88	41717.71
536.05	41413.44
536.22	41467.27
536.38	41261.30
536.55	41148.96
536.72	41385.35
536.89	41825.37
537.06	41708.35
537.23	41371.31
537.40	41340.88
537.57	41537.49
537.74	42263.05
537.91	42244.33
538.08	41860.48
538.25	41897.93
538.42	41890.91
538.59	42258.37
538.75	41619.41
538.92	41727.07
539.09	42293.48
539.26	42129.64
539.43	41911.97
539.60	41661.54
539.77	42054.75
539.94	41918.99
540.11	41998.57
540.28	42429.23
540.44	42167.09
540.61	41741.11
540.78	42103.90
540.95	42190.50
541.12	42267.73
541.29	42113.26
541.46	42752.23
541.62	42579.03
541.79	42738.18
541.96	42190.50
542.13	42604.77
542.30	42499.45
542.47	42600.09
542.63	42703.07
542.80	42824.78
542.97	43412.26
543.14	43042.45
543.31	43215.65
543.48	43210.97
543.64	43866.32
543.81	43704.82
543.98	43679.08
544.15	43201.61
544.32	43667.37
544.48	43798.44
544.65	43693.12
544.82	44018.46
544.99	43592.48
545.16	43367.79
545.32	43260.12
545.49	44399.96
545.66	44100.37
545.83	44102.71
546.00	43927.17
546.16	43454.39
546.33	43910.79
546.50	43377.15
546.67	44154.21
546.83	43746.95
547.00	44362.51
547.17	43606.52
547.34	43613.54
547.50	43739.93
547.67	44060.58
547.84	43828.87
548.00	44289.96
548.17	44247.83
548.34	44926.58
548.51	44631.68
548.67	44509.97
548.84	44655.08
549.01	44458.48
549.18	44320.38
549.34	44098.03
549.51	44622.31
549.68	44285.28
549.84	44533.37
550.01	44807.22
550.18	44645.72
550.34	44617.63
550.51	44292.30
550.68	44575.50
550.84	44357.83
551.01	44985.10
551.18	44278.25
551.34	44678.49
551.51	44877.43
551.68	44928.92
551.84	44907.86
552.01	45130.21
552.18	45052.97
552.34	44652.74
552.51	44788.49
552.68	45345.54
552.84	45172.34
553.01	45436.82
553.18	44818.92
553.34	45090.42
553.51	45272.98
553.67	45275.32
553.84	45371.28
554.01	45441.50
554.17	45858.12
554.34	45209.79
554.51	45691.94
554.67	45535.12
554.84	45621.72
555.00	45158.30
555.17	45504.70
555.33	45570.23
555.50	45429.80
555.67	45343.20
555.83	45148.93
556.00	45380.65
556.16	45436.82
556.33	45588.95
556.50	45441.50
556.66	45600.66
556.83	45027.23
556.99	45628.74
557.16	45680.24
557.32	45930.67
557.49	45897.91
557.65	45404.05
557.82	45490.65
557.98	46094.51
558.15	45663.85
558.32	45764.49
558.48	45118.51
558.65	45434.48
558.81	45181.70
558.98	45757.47
559.14	45860.46
559.31	45556.19
559.47	45825.35
559.64	46246.65
559.80	46164.73
559.97	45626.40
560.13	45855.78
560.30	45762.15
560.46	45794.92
560.63	46260.69
560.79	46314.52
560.96	46019.61
561.12	45944.72
561.29	46213.88
561.45	46174.09
561.61	46021.95
561.78	45734.07
561.94	45457.88
562.11	46209.20
562.27	45705.98
562.44	45982.16
562.60	46305.16
562.77	46340.27
562.93	46181.11
563.10	46436.23
563.26	45998.55
563.42	46443.25
563.59	45970.46
563.75	46263.03
563.92	46368.35
564.08	46279.41
564.24	46672.62
564.41	46106.21
564.57	46225.58
564.74	46234.94
564.90	46319.20
565.07	46213.88
565.23	46225.58
565.39	46120.26
565.56	46660.92
565.72	46265.37
565.88	46445.59
566.05	46167.07
566.21	46660.92
566.38	46068.76
566.54	46445.59
566.70	46494.74
566.87	46607.09
567.03	46532.19
567.19	46651.56
567.36	46632.83
567.52	46054.72
567.68	46738.16
567.85	46417.50
568.01	46504.10
568.17	46251.33
568.34	46642.20
568.50	46408.14
568.66	46677.30
568.83	46340.27
568.99	46595.38
569.15	45998.55
569.32	46436.23
569.48	46377.72
569.64	46672.62
569.81	46136.64
569.97	46300.48
570.13	46522.83
570.30	45888.54
570.46	46321.54
570.62	45750.45
570.78	46176.43
570.95	46398.78
571.11	46323.88
571.27	46291.12
571.43	46466.66
571.60	47131.37
571.76	46614.11
571.92	46476.02
572.09	46850.50
572.25	46939.44
572.41	46583.68
572.57	46979.23
572.74	46834.12
572.90	46424.53
573.06	47030.72
573.22	46649.22
573.38	46864.55
573.55	46293.46
573.71	46759.22
573.87	46588.36
574.03	46705.39
574.20	46780.29
574.36	46319.20
574.52	46330.90
574.68	47047.11
574.84	46923.06
575.01	46616.45
575.17	46639.86
575.33	46553.26
575.49	46564.96
575.65	46967.53
575.82	46466.66
575.98	46251.33
576.14	46553.26
576.30	46443.25
576.46	46679.64
576.62	46293.46
576.79	46621.13
576.95	46309.84
577.11	46188.13
577.27	46892.63
577.43	46499.42
577.59	46724.11
577.75	46562.62
577.92	46068.76
578.08	46075.79
578.24	46335.59
578.40	46288.77
578.56	46546.23
578.72	46529.85
578.88	46841.14
579.04	46759.22
579.21	46869.23
579.37	46822.42
579.53	46550.91
579.69	46717.09
579.85	46511.13
580.01	46829.44
580.17	46499.42
580.33	46866.89
580.49	47117.32
580.65	46979.23
580.82	46529.85
580.98	46265.37
581.14	46586.02
581.30	46803.69
581.46	46731.14
581.62	46892.63
581.78	46651.56
581.94	47297.55
582.10	46660.92
582.26	46974.55
582.42	46349.63
582.58	46677.30
582.74	46815.40
582.90	46944.12
583.06	46768.58
583.22	46944.12
583.38	47182.86
583.54	47079.88
583.70	46972.21
583.86	46990.94
584.02	46815.40
584.18	46925.40
584.34	46857.52
584.50	46703.05
584.66	46939.44
584.82	46302.82
584.98	46756.88
585.14	46972.21
585.30	46579.00
585.46	46681.98
585.62	46368.35
585.78	46672.62
585.94	46298.14
586.10	46766.24
586.26	46749.86
586.42	47107.96
586.58	47072.85
586.74	46862.21
586.90	46693.69
587.06	46642.20
587.22	46696.03
587.38	46590.70
587.54	46628.15
587.70	46946.47
587.86	46866.89
588.02	47117.32
588.18	46763.90
588.34	46747.52
588.49	46284.09
588.65	45909.61
588.81	46270.05
588.97	46384.74
589.13	46223.24
589.29	46295.80
589.45	46843.48
589.61	46347.29
589.77	47157.11
589.93	46609.43
590.08	46689.01
590.24	46927.74
590.40	47042.43
590.56	46873.91
590.72	47019.02
590.88	46993.28
591.04	46925.40
591.20	47072.85
591.35	46885.61
591.51	47213.29
591.67	46707.73
591.83	46717.09
591.99	46871.57
592.15	46941.78
592.31	46958.17
592.46	46972.21
592.62	46724.11
592.78	46850.50
592.94	47171.16
593.10	46997.96
593.26	47363.08
593.41	47224.99
593.57	46548.57
593.73	46857.52
593.89	46979.23
594.05	46820.08
594.20	46986.25
594.36	46539.21
594.52	46981.57
594.68	46983.91
594.84	46801.35
594.99	46892.63
595.15	46923.06
595.31	47224.99
595.47	46941.78
595.62	47192.22
595.78	46464.32
595.94	47189.88
596.10	47564.37
596.25	46824.76
596.41	46969.87
596.57	47044.77
596.73	47093.92
596.88	46461.97
597.04	46604.75
597.20	46684.33
597.36	46555.60
597.51	47007.32
597.67	46450.27
597.83	47217.97
597.99	47182.86
598.14	46653.90
598.30	46754.54
598.46	46738.16
598.61	46810.71
598.77	46366.01
598.93	46752.20
599.09	46913.70
599.24	47531.60
599.40	47091.58
599.56	47019.02
599.71	46923.06
599.87	47194.56
600.03	47206.26
600.18	46625.81
600.34	46770.93
600.50	46658.58
600.65	46829.44
600.81	47150.09
600.97	47159.45
601.12	47384.15
601.28	47409.89
601.44	46780.29
601.59	46356.65
601.75	46602.41
601.91	46967.53
602.06	46892.63
602.22	47171.16
602.37	46394.10
602.53	46997.96
602.69	47232.01
602.84	47166.48
603.00	46176.43
603.16	46913.70
603.31	46841.14
603.47	46775.61
603.62	46801.35
603.78	46848.16
603.94	47068.17
604.09	47168.82
604.25	46726.46
604.40	46916.04
604.56	46813.05
604.71	46855.18
604.87	46485.38
605.03	46918.38
605.18	46424.53
605.34	46787.31
605.49	46597.73
605.65	46799.01
605.80	46677.30
605.96	46990.94
606.12	46581.34
606.27	47323.29
606.43	46733.48
606.58	46206.86
606.74	46511.13
606.89	46920.72
607.05	47117.32
607.20	46567.30
607.36	46852.84
607.51	47311.59
607.67	46574.32
607.82	46756.88
607.98	46581.34
608.13	46630.49
608.29	46588.36
608.44	46436.23
608.60	46026.63
608.75	46504.10
608.91	46452.61
609.06	46487.72
609.22	46445.59
609.37	46387.08
609.53	46707.73
609.68	46078.13
609.84	46227.92
609.99	46167.07
610.15	46316.86
610.30	45867.48
610.46	45619.38
610.61	46176.43
610.76	46553.26
610.92	46487.72
611.07	46405.80
611.23	46150.68
611.38	46672.62
611.54	46258.35
611.69	45689.60
611.84	45500.01
612.00	46092.17
612.15	45918.97
612.31	46047.70
612.46	46089.83
612.62	46131.96
612.77	46021.95
612.92	46562.62
613.08	46230.26
613.23	46019.61
613.39	45661.51
613.54	45570.23
613.69	45649.81
613.85	45492.99
614.00	45844.07
614.15	46176.43
614.31	45918.97
614.46	45713.00
614.62	45970.46
614.77	45991.53
614.92	46003.23
615.08	45813.65
615.23	45432.14
615.38	45436.82
615.54	45303.41
615.69	45223.83
615.84	45282.34
616.00	45605.34
616.15	45619.38
616.30	45294.05
616.46	45240.21
616.61	44989.78
616.76	45432.14
616.92	45095.10
617.07	45294.05
617.22	45209.79
617.37	44952.33
617.53	45708.32
617.68	45209.79
617.83	45380.65
617.99	45668.53
618.14	45141.91
618.29	44966.37
618.45	45120.85
618.60	44706.57
618.75	44727.64
618.90	44538.05
619.06	45001.48
619.21	44992.12
619.36	45167.66
619.51	45312.77
619.67	44968.71
619.82	45048.29
619.97	45205.11
620.12	44861.05
620.28	44411.67
620.43	45057.65
620.58	44584.86
620.73	44694.87
620.89	44823.60
621.04	44825.94
621.19	45172.34
621.34	44800.19
621.49	44343.79
621.65	44624.65
621.80	44851.69
621.95	44058.24
622.10	44533.37
622.25	44449.11
622.41	44135.48
622.56	43990.37
622.71	44259.53
622.86	44186.97
623.01	44495.92
623.16	44626.99
623.32	44474.86
623.47	44556.78
623.62	44060.58
623.77	44369.54
623.92	44254.85
624.07	43976.33
624.23	43868.66
624.38	44409.32
624.53	43931.86
624.68	44306.34
624.83	43882.70
624.98	44058.24
625.13	43725.89
625.29	43697.80
625.44	44074.63
625.59	43440.34
625.74	43655.67
625.89	43438.00
626.04	43489.49
626.19	43868.66
626.34	43800.79
626.49	43585.46
626.65	43641.63
626.80	43442.68
626.95	43543.33
627.10	42904.36
627.25	43632.27
627.40	42787.33
627.55	43384.17
627.70	43129.05
627.85	43215.65
628.00	43164.16
628.15	42871.59
628.30	43199.27
628.45	43540.99
628.60	43168.84
628.76	43412.26
628.91	43213.31
629.06	42969.90
629.21	43061.18
629.36	42953.51
629.51	42782.65
629.66	43133.73
629.81	42665.63
629.96	43185.22
630.11	43075.22
630.26	43358.42
630.41	43115.01
630.56	42557.96
630.71	42686.69
630.86	42515.83
631.01	42651.58
631.16	42677.33
631.31	42426.89
631.46	42265.39
631.61	42836.48
631.76	42965.21
631.91	42412.85
632.06	42852.87
632.21	42485.40
632.36	43056.50
632.51	42244.33
632.66	42312.20
632.81	42480.72
632.96	42440.93
633.10	42572.00
633.25	42515.83
633.40	42356.67
633.55	42686.69
633.70	42497.11
633.85	42293.48
634.00	42202.20
634.15	42384.76
634.30	42080.49
634.45	42373.06
634.60	41591.32
634.75	42344.97
634.90	41832.39
635.05	42080.49
635.19	41996.23
635.34	42309.86
635.49	42300.50
635.64	41816.01
635.79	42033.68
635.94	41895.59
636.09	41497.70
636.24	41687.28
636.39	41446.21
636.53	42031.34
636.68	41708.35
636.83	41706.01
636.98	41493.02
637.13	41514.08
637.28	41895.59
637.43	42216.24
637.57	42148.37
637.72	41497.70
637.87	41680.26
638.02	41511.74
638.17	41825.37
638.32	41371.31
638.46	41474.29
638.61	41282.37
638.76	40919.59
638.91	41291.73
639.06	41371.31
639.20	41701.32
639.35	41691.96
639.50	41497.70
639.65	41490.68
639.80	41324.50
639.94	41502.38
640.09	41017.89
640.24	41378.33
640.39	40999.16
640.54	40865.75
640.68	41097.47
640.83	40933.63
640.98	40610.64
641.13	41221.52
641.27	41399.40
641.42	40467.86
641.57	40877.46
641.72	41008.53
641.86	40620.00
642.01	40392.97
642.16	40519.35
642.31	40519.35
642.45	40917.25
642.60	40289.98
642.75	40680.85
642.90	40575.53
643.04	40605.95
643.19	40418.71
643.34	40435.10
643.48	40140.19
643.63	40481.91
643.78	40137.85
643.93	40517.01
644.07	41113.85
644.22	40320.41
644.37	40107.42
644.51	40472.54
644.66	40208.06
644.81	39974.01
644.95	40657.45
645.10	40484.25
645.25	40442.12
645.39	40367.22
645.54	40048.91
645.69	40212.74
645.83	40224.45
645.98	40189.34
646.13	40430.41
646.27	39786.77
646.42	39585.48
646.57	39639.31
646.71	39878.05
646.86	40130.83
647.00	39831.24
647.15	39852.30
647.30	39658.04
647.44	39707.19
647.59	39805.49
647.74	39695.49
647.88	39459.09
648.03	39985.71
648.17	39487.18
648.32	39814.85
648.47	39730.59
648.61	39386.54
648.76	39501.22
648.90	39543.35
649.05	39372.49
649.20	39892.09
649.34	39290.57
649.49	39386.54
649.63	39627.61
649.78	39395.90
649.92	39754.00
650.07	39887.41
650.21	38979.28
650.36	38770.97
650.51	39669.74
650.65	39395.90
650.80	39906.13
650.94	39304.62
651.09	39489.52
651.23	39384.19
651.38	39096.31
651.52	39009.71
651.67	39040.14
651.81	38644.59
651.96	38937.15
652.10	39005.03
652.25	39089.29
652.39	39054.18
652.54	39133.76
652.68	38892.68
652.83	38981.62
652.97	39393.56
653.12	38976.94
653.26	39077.58
653.41	38644.59
653.55	38455.00
653.70	38389.47
653.84	38735.87
653.99	38480.75
654.13	37958.81
654.27	38356.70
654.42	38153.07
654.56	38141.37
654.71	38543.94
654.85	38480.75
655.00	38457.34
655.14	38366.06
655.29	38227.97
655.43	38328.61
655.57	37832.42
655.72	37713.05
655.86	37940.08
656.01	37741.14
656.15	37633.47
656.30	37504.74
656.44	37748.16
656.58	37617.09
656.73	37935.40
656.87	37626.45
657.01	38045.41
657.16	37745.82
657.30	37729.44
657.45	37799.65
657.59	38216.27
657.73	37867.53
657.88	38202.22
658.02	37958.81
658.16	38124.99
658.31	37874.55
658.45	37720.07
658.60	37675.60
658.74	37933.06
658.88	37350.27
659.03	37551.56
659.17	37855.82
659.31	37373.67
659.46	37790.29
659.60	37308.14
659.74	37422.83
659.89	37064.72
660.03	36863.44
660.17	37125.58
660.32	37254.31
660.46	37376.01
660.60	37226.22
660.74	37078.77
660.89	36886.84
661.03	36938.33
661.17	36514.70
661.32	36582.57
661.46	36854.08
661.60	36825.99
661.74	36900.89
661.89	36126.17
662.03	36900.89
662.17	36807.26
662.31	36287.67
662.46	36678.54
662.60	36765.14
662.74	36610.66
662.88	36329.80
663.03	36339.16
663.17	36201.07
663.31	35882.75
663.45	36233.83
663.60	36198.73
663.74	36098.08
663.88	35974.03
664.02	35569.12
664.17	35831.26
664.31	35772.75
664.45	35702.53
664.59	35641.68
664.73	35716.58
664.88	35608.91
665.02	35260.17
665.16	35391.24
665.30	35613.59
665.44	35328.05
665.59	35498.91
665.73	35110.38
665.87	35023.78
666.01	34960.58
666.15	35129.10
666.29	35051.86
666.44	35328.05
666.58	34824.83
666.72	35428.69
666.86	35047.18
667.00	34677.38
667.14	34719.51
667.28	34682.06
667.43	34382.47
667.57	34803.77
667.71	34941.86
667.85	34555.67
667.99	34976.97
668.13	34396.51
668.27	34426.94
668.41	34536.94
668.56	34127.35
668.70	34403.53
668.84	34007.98
668.98	33525.83
669.12	33713.08
669.26	33916.70
669.40	34141.39
669.54	33937.77
669.68	33933.09
669.82	33432.21
669.96	33647.54
670.10	33329.23
670.25	33434.55
670.39	33752.87
670.53	33401.79
670.67	33371.36
670.81	33523.49
670.95	33656.90
671.09	33179.43
671.23	33174.75
671.37	32877.51
671.51	33046.02
671.65	33085.81
671.79	32868.14
671.93	32542.81
672.07	33039.00
672.21	32545.15
672.35	32788.56
672.49	32868.14
672.63	32694.94
672.77	32568.55
672.91	32294.71
673.05	32203.43
673.19	32643.45
673.33	32158.96
673.47	32332.16
673.61	32170.66
673.75	31761.07
673.89	31882.78
674.03	31945.97
674.17	31889.80
674.31	31964.70
674.45	31775.11
674.59	31501.27
674.73	31702.56
674.87	31646.38
675.01	31311.69
675.15	31005.08
675.29	31363.18
675.43	31414.67
675.56	31335.09
675.70	30831.88
675.84	31079.97
675.98	29883.96
676.12	31150.19
676.26	31065.93
676.40	31075.29
676.54	31152.53
676.68	30803.79
676.82	30396.54
676.96	30323.98
677.10	30047.80
677.23	30335.68
677.37	29991.62
677.51	29729.48
677.65	29638.20
677.79	29572.67
677.93	29577.35
678.07	29521.18
678.21	29450.96
678.34	29134.99
678.48	29055.41
678.62	28835.40
678.76	28823.70
678.90	28566.24
679.04	28697.31
679.18	28744.12
679.31	28655.18
679.45	28369.63
679.59	28493.68
679.73	28458.57
679.87	28376.66
680.00	28114.52
680.14	28116.86
680.28	28025.57
680.42	28311.12
680.56	27953.02
680.70	27887.48
680.83	27985.79
680.97	27814.93
681.11	27566.83
681.25	27826.63
681.39	27707.26
681.52	27367.88
681.66	27330.44
681.80	27314.05
681.94	27080.00
682.07	27283.62
682.21	26883.39
682.35	26768.71
682.49	26735.94
682.62	26462.10
682.76	26677.43
682.90	26375.50
683.04	26384.86
683.17	26567.42
683.31	26115.70
683.45	25886.32
683.59	26026.76
683.72	26206.98
683.86	25919.09
684.00	25937.82
684.13	26176.55
684.27	25820.79
684.41	25277.79
684.55	25647.59
684.68	25268.42
684.82	25565.67
684.96	25046.07
685.09	25317.57
685.23	24922.02
685.37	24936.07
685.50	24954.79
685.64	24868.19
685.78	24814.36
685.91	24624.78
686.05	24542.86
686.19	24177.73
686.32	24325.19
686.46	23969.43
686.60	23697.92
686.73	23573.88
686.87	23276.63
687.01	23332.80
687.14	23159.60
687.28	23487.28
687.42	23513.02
687.55	23274.29
687.69	23192.37
687.82	23192.37
687.96	23281.31
688.10	22986.40
688.23	23035.55
688.37	22899.80
688.50	22845.97
688.64	22450.42
688.78	22679.79
688.91	22405.95
689.05	22452.76
689.18	22560.42
689.32	22317.01
689.46	22094.66
689.59	22387.22
689.73	22211.68
689.86	22120.40
690.00	22167.21
690.13	22207.00
690.27	21984.65
690.41	21591.44
690.54	21214.62
690.68	21385.47
690.81	21289.51
690.95	21558.67
691.08	21446.33
691.22	21436.97
691.35	21589.10
691.49	21556.33
691.62	21036.74
691.76	21137.38
691.89	21118.65
692.03	20821.41
692.16	20940.77
692.30	20957.16
692.43	20613.10
692.57	20353.30
692.70	20130.95
692.84	20264.36
692.97	20175.42
693.11	20189.46
693.24	19929.66
693.38	19646.46
693.51	19936.68
693.65	19913.28
693.78	19866.47
693.92	19562.20
694.05	19695.61
694.19	19707.31
694.32	18956.00
694.45	19229.84
694.59	19463.90
694.72	19241.54
694.86	19213.46
694.99	19159.63
695.13	18883.44
695.26	18970.04
695.39	18787.48
695.53	18754.71
695.66	18937.27
695.80	18640.03
695.93	18520.66
696.07	18654.07
696.20	18457.46
696.33	18541.72
696.47	18064.25
696.60	18197.67
696.73	17745.94
696.87	17935.53
697.00	17984.68
697.14	18050.21
697.27	18057.23
697.40	17631.26
697.54	17502.53
697.67	17682.75
697.80	17523.59
697.94	17441.67
698.07	17188.89
698.21	17078.89
698.34	17214.64
698.47	17462.74
698.61	16957.18
698.74	16905.69
698.87	16903.35
699.01	16802.71
699.14	16468.01
699.27	16358.00
699.40	16332.26
699.54	16540.57
699.67	16233.96
699.80	16451.63
699.94	16006.92
700.07	16086.50
700.20	16130.97
700.34	16102.89
700.47	16182.46
700.60	16060.76
700.73	16255.02
700.87	16072.46
701.00	15878.19
701.13	16032.67
701.26	15557.54
701.40	15604.35
701.53	15545.84
701.66	15616.05
701.79	15529.45
701.93	15122.20
702.06	15091.77
702.19	15049.64
702.32	14824.95
702.46	15063.69
702.59	15185.40
702.72	15117.52
702.85	15232.21
702.99	15040.28
703.12	14665.80
703.25	14656.43
703.38	14588.56
703.51	14413.02
703.65	14501.96
703.78	14342.80
703.91	14078.32
704.04	14228.12
704.17	14139.18
704.31	14284.29
704.44	14047.90
704.57	13973.00
704.70	13862.99
704.83	13846.61
704.96	13935.55
705.10	13584.47
705.23	13933.21
>>>>>End Processed Spectral Data<<<<<
