SpectraSuite Data File
++++++++++++++++++++++++++++++++++++
Date: Fri Oct 25 10:43:54 EDT 2013
User: price-jones
Dark Spectrum Present: No
Reference Spectrum Present: No
Number of Sampled Component Spectra: 1
Spectrometers: USB2+H05261
Integration Time (usec): 100000 (USB2+H05261)
Spectra Averaged: 1 (USB2+H05261)
Boxcar Smoothing: 0 (USB2+H05261)
Correct for Electrical Dark: No (USB2+H05261)
Strobe/Lamp Enabled: No (USB2+H05261)
Correct for Detector Non-linearity: No (USB2+H05261)
Correct for Stray Light: No (USB2+H05261)
Number of Pixels in Processed Spectrum: 2048
>>>>>Begin Processed Spectral Data<<<<<
365.73	135.75
365.92	135.75
366.12	135.75
366.32	7.02
366.52	63.19
366.72	23.41
366.91	0.00
367.11	23.41
367.31	0.00
367.51	0.00
367.70	25.75
367.90	21.06
368.10	23.41
368.30	0.00
368.49	0.00
368.69	14.04
368.89	46.81
369.09	0.00
369.28	60.85
369.48	63.19
369.68	0.00
369.87	91.28
370.07	58.51
370.27	77.24
370.47	248.10
370.66	372.15
370.86	376.83
371.06	493.85
371.25	496.19
371.45	486.83
371.65	531.30
371.84	393.21
372.04	482.15
372.24	557.05
372.44	528.96
372.63	461.09
372.83	475.13
373.03	538.32
373.22	491.51
373.42	538.32
373.62	587.47
373.81	585.13
374.01	547.69
374.21	517.26
374.40	510.24
374.60	582.79
374.79	571.09
374.99	585.13
375.19	678.76
375.38	592.16
375.58	540.66
375.78	641.31
375.97	564.07
376.17	720.88
376.37	573.43
376.56	594.50
376.76	681.10
376.95	648.33
377.15	709.18
377.35	702.16
377.54	671.73
377.74	634.29
377.93	648.33
378.13	648.33
378.33	748.97
378.52	723.23
378.72	725.57
378.91	704.50
379.11	615.56
379.31	641.31
379.50	678.76
379.70	765.36
379.89	720.88
380.09	683.44
380.28	711.52
380.48	662.37
380.68	779.40
380.87	690.46
381.07	734.93
381.26	732.59
381.46	844.93
381.65	737.27
381.85	739.61
382.04	819.19
382.24	713.86
382.43	678.76
382.63	781.74
382.83	676.41
383.02	697.48
383.22	718.54
383.41	781.74
383.61	718.54
383.80	737.27
384.00	821.53
384.19	767.70
384.39	851.96
384.58	812.17
384.78	861.32
384.97	873.02
385.17	807.48
385.36	917.49
385.56	819.19
385.75	842.59
385.95	828.55
386.14	877.70
386.34	851.96
386.53	823.87
386.72	791.10
386.92	917.49
387.11	908.13
387.31	884.72
387.50	851.96
387.70	826.21
387.89	922.17
388.09	858.98
388.28	919.83
388.48	980.68
388.67	922.17
388.86	1020.47
389.06	917.49
389.25	1027.50
389.45	1093.03
389.64	1025.15
389.84	1102.39
390.03	1097.71
390.22	1100.05
390.42	1125.80
390.61	1076.65
390.81	1027.50
391.00	1067.28
391.19	1121.12
391.39	1167.93
391.58	1109.41
391.78	1217.08
391.97	1046.22
392.16	1090.69
392.36	1032.18
392.55	1057.92
392.75	1020.47
392.94	1011.11
393.13	1048.56
393.33	1076.65
393.52	1132.82
393.71	1078.99
393.91	1135.16
394.10	1167.93
394.29	1245.16
394.49	1151.54
394.68	1235.80
394.88	1207.72
395.07	1266.23
395.26	1214.74
395.46	1163.25
395.65	1254.53
395.84	1343.47
396.04	1242.82
396.23	1212.40
396.42	1214.74
396.62	1137.50
396.81	1233.46
397.00	1196.01
397.19	1441.77
397.39	1380.92
397.58	1469.86
397.77	1423.05
397.97	1504.96
398.16	1495.60
398.35	1493.26
398.55	1497.94
398.74	1598.59
398.93	1593.90
399.12	1572.84
399.32	1547.09
399.51	1694.55
399.70	1657.10
399.90	1706.25
400.09	1650.08
400.28	1629.01
400.47	1682.85
400.67	1743.70
400.86	1659.44
401.05	1715.61
401.24	1771.79
401.44	1844.34
401.63	1839.66
401.82	1696.89
402.01	1654.76
402.21	1846.68
402.40	1781.15
402.59	1781.15
402.78	1788.17
402.97	1778.81
403.17	1891.15
403.36	1907.54
403.55	2005.84
403.74	1907.54
403.93	1966.05
404.13	1975.41
404.32	1877.11
404.51	1940.30
404.70	1961.37
404.89	2029.24
405.09	2104.14
405.28	2001.16
405.47	2038.61
405.66	2040.95
405.85	2104.14
406.05	1942.64
406.24	2071.37
406.43	2181.38
406.62	2179.04
406.81	2195.42
407.00	2228.19
407.20	2195.42
407.39	2134.57
407.58	2221.17
407.77	2307.77
407.96	2347.56
408.15	2310.11
408.34	2326.49
408.54	2363.94
408.73	2333.51
408.92	2406.07
409.11	2394.37
409.30	2525.44
409.49	2434.16
409.68	2387.35
409.87	2361.60
410.07	2443.52
410.26	2403.73
410.45	2466.92
410.64	2574.59
410.83	2661.19
411.02	2593.31
411.21	2724.38
411.40	2682.25
411.59	2705.66
411.78	2750.13
411.98	2708.00
412.17	2766.51
412.36	2679.91
412.55	2841.41
412.74	2818.00
412.93	2874.18
413.12	2808.64
413.31	2890.56
413.50	2993.55
413.69	3021.63
413.88	3070.78
414.07	3042.70
414.26	2972.48
414.45	3199.51
414.64	3110.57
414.83	3300.16
415.02	3187.81
415.22	3241.64
415.41	3332.92
415.60	3272.07
415.79	3269.73
415.98	3304.84
416.17	3405.48
416.36	3316.54
416.55	3342.28
416.74	3368.03
416.93	3421.86
417.12	3410.16
417.31	3503.78
417.50	3421.86
417.69	3679.32
417.88	3641.87
418.07	3604.42
418.26	3613.79
418.45	3632.51
418.64	3784.65
418.83	3850.18
419.02	3681.66
419.21	3714.43
419.39	3777.62
419.58	3747.20
419.77	3779.97
419.96	3864.22
420.15	3866.56
420.34	4018.70
420.53	3964.87
420.72	3953.16
420.91	3887.63
421.10	4007.00
421.29	4042.11
421.48	4016.36
421.67	4161.47
421.86	3999.98
422.05	3971.89
422.24	3861.88
422.43	3964.87
422.61	3948.48
422.80	4072.53
422.99	4093.60
423.18	4051.47
423.37	4051.47
423.56	4109.98
423.75	4032.74
423.94	4081.89
424.13	3829.12
424.32	3981.25
424.50	4109.98
424.69	4117.00
424.88	4177.86
425.07	4138.07
425.26	4044.45
425.45	4152.11
425.64	4212.96
425.83	4053.81
426.01	4196.58
426.20	4210.62
426.39	4175.52
426.58	4021.04
426.77	4210.62
426.96	4194.24
427.15	4142.75
427.33	4053.81
427.52	4252.75
427.71	4325.31
427.90	4292.54
428.09	4435.32
428.28	4355.74
428.46	4416.59
428.65	4414.25
428.84	4425.95
429.03	4470.42
429.22	4287.86
429.40	4388.50
429.59	4210.62
429.78	4039.76
429.97	4114.66
430.16	4234.03
430.34	4255.09
430.53	4285.52
430.72	4252.75
430.91	4351.06
431.10	4514.89
431.28	4781.71
431.47	4774.69
431.66	4922.15
431.85	4667.03
432.03	4798.10
432.22	4777.03
432.41	4753.63
432.60	4990.02
432.79	4947.89
432.97	5004.07
433.16	5064.92
433.35	4699.80
433.54	4856.61
433.72	4940.87
433.91	4884.70
434.10	4999.38
434.28	5004.07
434.47	5184.29
434.66	5221.74
434.85	5200.67
435.03	5130.45
435.22	4983.00
435.41	5329.40
435.59	5305.99
435.78	5336.42
435.97	5518.98
436.16	5259.18
436.34	5324.72
436.53	5455.79
436.72	5540.05
436.90	5310.68
437.09	5509.62
437.28	5287.27
437.46	5320.04
437.65	5338.76
437.84	5455.79
438.02	5324.72
438.21	5378.55
438.40	5399.62
438.58	5612.60
438.77	5682.82
438.96	5774.10
439.14	5753.04
439.33	5738.99
439.52	5764.74
439.70	5900.49
439.89	6005.81
440.08	5980.07
440.26	5973.05
440.45	5907.51
440.63	6008.16
440.82	6122.84
441.01	6024.54
441.19	6193.06
441.38	6272.64
441.57	6303.06
441.75	6434.13
441.94	6621.38
442.12	6649.46
442.31	6637.76
442.50	6586.27
442.68	6590.95
442.87	6537.12
443.05	6621.38
443.24	6803.94
443.43	6691.59
443.61	6633.08
443.80	6761.81
443.98	6722.02
444.17	6789.89
444.35	6871.81
444.54	6956.07
444.73	6827.34
444.91	6731.38
445.10	6752.45
445.28	6675.21
445.47	6780.53
445.65	6619.04
445.84	6780.53
446.02	6846.07
446.21	6871.81
446.39	6841.39
446.58	6970.12
446.77	6850.75
446.95	6986.50
447.14	7185.44
447.32	7040.33
447.51	6871.81
447.69	6923.30
447.88	6951.39
448.06	6885.86
448.25	6979.48
448.43	7262.68
448.62	7098.84
448.80	7098.84
448.99	6925.65
449.17	7077.78
449.36	7208.85
449.54	7206.51
449.73	7304.81
449.91	7405.46
450.10	7449.93
450.28	7683.98
450.46	7466.31
450.65	7590.36
450.83	7566.95
451.02	7449.93
451.20	7630.15
451.39	7454.61
451.57	7442.90
451.76	7506.10
451.94	7667.60
452.13	7478.01
452.31	7356.30
452.49	7253.32
452.68	7478.01
452.86	7382.05
453.05	7646.53
453.23	7590.36
453.42	7506.10
453.60	7751.85
453.78	7978.89
453.97	7712.07
454.15	7728.45
454.34	7660.57
454.52	7918.03
454.70	7770.58
454.89	8028.04
455.07	7831.43
455.26	8159.11
455.44	8194.22
455.62	8147.40
455.81	8126.34
455.99	8070.17
456.17	8063.15
456.36	8051.44
456.54	8175.49
456.73	8280.82
456.91	8521.89
457.09	8465.72
457.28	8697.43
457.46	8446.99
457.64	8601.47
457.83	8542.96
458.01	8372.10
458.19	8716.16
458.38	8477.42
458.56	8365.07
458.74	8414.23
458.93	8634.24
459.11	8671.68
459.29	8557.00
459.48	8681.05
459.66	8793.39
459.84	8690.41
460.03	8954.89
460.21	8805.10
460.39	8926.80
460.57	8788.71
460.76	8809.78
460.94	9020.42
461.12	9118.73
461.31	9053.19
461.49	9109.36
461.67	9053.19
461.85	9280.22
462.04	9177.24
462.22	9324.69
462.40	9415.98
462.59	9273.20
462.77	9437.04
462.95	9320.01
463.13	9359.80
463.32	9235.75
463.50	9191.28
463.68	9259.16
463.86	9336.40
464.05	9261.50
464.23	9415.98
464.41	9397.25
464.59	9202.99
464.78	9591.52
464.96	9259.16
465.14	9430.02
465.32	9614.92
465.50	9694.50
465.69	9703.86
465.87	9755.35
466.05	9621.94
466.23	9537.68
466.41	9474.49
466.60	9879.40
466.78	9696.84
466.96	9671.09
467.14	9760.03
467.32	9706.20
467.51	9589.17
467.69	9486.19
467.87	9792.80
468.05	10047.92
468.23	10019.83
468.41	9769.40
468.60	9827.91
468.78	10092.39
468.96	9640.67
469.14	10134.52
469.32	10197.71
469.50	9926.21
469.69	10115.80
469.87	10218.78
470.05	10118.14
470.23	10305.38
470.41	10328.78
470.59	10289.00
470.77	10326.44
470.95	10356.87
471.14	10513.69
471.32	10415.38
471.50	10785.19
471.68	10593.26
471.86	10895.19
472.04	10918.60
472.22	10789.87
472.40	10754.76
472.58	10714.97
472.77	10925.62
472.95	10967.75
473.13	11169.04
473.31	11040.31
473.49	11002.86
473.67	11063.71
473.85	11033.29
474.03	11234.57
474.21	11578.63
474.39	11566.93
474.57	11480.33
474.75	11496.71
474.93	11609.06
475.12	11782.26
475.30	11796.30
475.48	11585.65
475.66	11646.51
475.84	11623.10
476.02	11864.18
476.20	11779.92
476.38	12060.78
476.56	12308.88
476.74	12276.11
476.92	12046.74
477.10	12486.76
477.28	12428.24
477.46	12580.38
477.64	12734.85
477.82	13004.02
478.00	13202.96
478.18	13013.38
478.36	13036.78
478.54	13319.99
478.72	13219.35
478.90	13371.48
479.08	13472.12
479.26	13563.40
479.44	13547.02
479.62	13771.71
479.80	13816.18
479.98	13806.82
480.16	14237.48
480.34	13968.32
480.52	14326.42
480.70	14214.07
480.88	14153.22
481.06	14558.13
481.24	14640.05
481.41	14684.52
481.59	15169.01
481.77	15225.18
481.95	15124.54
482.13	14916.23
482.31	15330.51
482.49	15286.04
482.67	15522.43
482.85	15864.15
483.03	15658.18
483.21	16116.93
483.39	16224.59
483.57	15861.81
483.74	16278.43
483.92	16140.33
484.10	15988.20
484.28	16320.56
484.46	16915.05
484.64	17020.38
484.82	16599.08
485.00	16868.24
485.18	16828.45
485.35	16985.27
485.53	16505.46
485.71	16498.44
485.89	16933.78
486.07	16915.05
486.25	17252.09
486.43	17497.84
486.61	17465.08
486.78	17664.02
486.96	18003.40
487.14	18384.91
487.32	18410.65
487.50	18555.77
487.68	18684.50
487.85	18897.49
488.03	18937.27
488.21	19374.95
488.39	18944.30
488.57	19204.10
488.75	19374.95
488.92	19700.29
489.10	20130.95
489.28	20182.44
489.46	20409.47
489.64	20346.28
489.81	20819.07
489.99	20723.10
490.17	20996.95
490.35	21465.05
490.53	21048.44
490.70	21460.37
490.88	21198.23
491.06	21504.84
491.24	21575.06
491.41	21593.78
491.59	21610.17
491.77	21429.94
491.95	21778.68
492.13	22185.94
492.30	22466.80
492.48	22164.87
492.66	22565.10
492.84	22817.88
493.01	22855.33
493.19	23063.64
493.37	22972.36
493.54	22960.66
493.72	23459.19
493.90	23686.22
494.08	23693.24
494.25	23660.48
494.43	24105.18
494.61	24254.97
494.79	24276.04
494.96	24376.68
495.14	24500.73
495.32	24505.41
495.49	24364.98
495.67	24489.03
495.85	24903.30
496.02	25472.05
496.20	25369.07
496.38	25289.49
496.55	25514.18
496.73	26022.08
496.91	25930.80
497.09	25745.89
497.26	26218.68
497.44	25811.43
497.62	26075.91
497.79	26487.84
497.97	26265.49
498.14	26457.42
498.32	26632.96
498.50	26555.72
498.67	26981.70
498.85	26778.07
499.03	27063.61
499.20	26969.99
499.38	27463.85
499.56	27241.50
499.73	27475.55
499.91	27674.49
500.08	27810.25
500.26	27101.06
500.44	27639.39
500.61	27625.34
500.79	27763.43
500.97	27978.76
501.14	28058.34
501.32	27917.91
501.49	27735.35
501.67	27953.02
501.84	28222.18
502.02	28566.24
502.20	28348.57
502.37	28804.97
502.55	28694.97
502.72	28730.08
502.90	29036.69
503.07	28807.31
503.25	29113.92
503.43	28819.02
503.60	29174.78
503.78	29343.30
503.95	29270.74
504.13	29291.80
504.30	29500.11
504.48	29404.15
504.65	29741.19
504.83	29933.11
505.01	30181.21
505.18	30087.59
505.36	30520.59
505.53	30286.53
505.71	30668.04
505.88	30728.89
506.06	30679.74
506.23	30649.32
506.41	30555.69
506.58	30703.15
506.76	30731.23
506.93	31061.25
507.11	30700.81
507.28	30824.86
507.46	31028.48
507.63	31278.92
507.81	31302.32
507.98	31229.77
508.16	31351.48
508.33	31660.43
508.50	32039.59
508.68	31920.23
508.85	32292.37
509.03	32130.87
509.20	32341.52
509.38	32212.79
509.55	32470.25
509.73	32449.19
509.90	32517.06
510.08	32341.52
510.25	32458.55
510.42	32861.12
510.60	32697.28
510.77	32486.64
510.95	33322.21
511.12	32982.83
511.30	33354.97
511.47	33263.69
511.64	33462.64
511.82	33670.95
511.99	33425.19
512.17	33722.44
512.34	33123.26
512.51	33113.90
512.69	33771.59
512.86	33858.19
513.04	34132.03
513.21	33855.85
513.38	33755.21
513.56	34052.45
513.73	33518.81
513.90	33996.28
514.08	33977.56
514.25	34352.04
514.43	34424.60
514.60	34206.93
514.77	34319.28
514.95	34792.06
515.12	35065.91
515.29	34761.64
515.47	35061.22
515.64	35419.33
515.81	34733.55
515.99	35091.65
516.16	34892.71
516.33	34466.73
516.51	34579.07
516.68	34405.88
516.85	34326.30
517.03	34600.14
517.20	34756.96
517.37	34876.32
517.54	35508.27
517.72	35522.31
517.89	34988.67
518.06	34939.52
518.24	35470.82
518.41	35634.66
518.58	35117.40
518.75	35655.72
518.93	35906.16
519.10	35817.22
519.27	36107.44
519.45	36114.47
519.62	36725.35
519.79	36371.92
519.96	36266.60
520.14	36505.34
520.31	36306.39
520.48	36999.19
520.65	36900.89
520.83	36790.88
521.00	36765.14
521.17	36830.67
521.34	37020.25
521.52	37521.13
521.69	37247.29
521.86	37581.98
522.03	37436.87
522.20	37661.56
522.38	37801.99
522.55	37237.92
522.72	37214.52
522.89	37148.98
523.07	37741.14
523.24	37546.87
523.41	37895.61
523.58	37996.26
523.75	38253.72
523.92	38621.18
524.10	38333.29
524.27	38782.68
524.44	38775.66
524.61	38794.38
524.78	38632.88
524.96	38447.98
525.13	39222.70
525.30	39089.29
525.47	39131.42
525.64	38675.01
525.81	38693.74
525.98	38429.26
526.16	38239.67
526.33	38443.30
526.50	38485.43
526.67	38270.10
526.84	38433.94
527.01	38450.32
527.18	38962.90
527.36	39161.84
527.53	39814.85
527.70	39681.44
527.87	40069.97
528.04	39349.09
528.21	39763.36
528.38	39690.80
528.55	39915.50
528.72	39922.52
528.89	39803.15
529.07	40041.88
529.24	39742.30
529.41	40048.91
529.58	40009.12
529.75	39543.35
529.92	40135.51
530.09	40470.20
530.26	40758.09
530.43	40631.70
530.60	40069.97
530.77	40563.82
530.94	40683.19
531.11	40205.72
531.28	40172.96
531.46	40299.34
531.63	40259.55
531.80	40512.33
531.97	40456.16
532.14	40245.51
532.31	40009.12
532.48	40341.47
532.65	40505.31
532.82	40889.16
532.99	40734.68
533.16	40643.40
533.33	41027.25
533.50	40931.29
533.67	41078.74
533.84	41333.86
534.01	41053.00
534.18	40886.82
534.35	41074.06
534.52	41095.13
534.69	41673.24
534.86	41504.72
535.03	41628.77
535.20	42185.82
535.37	41977.51
535.54	41918.99
535.71	41830.05
535.88	41918.99
536.05	41766.86
536.22	41820.69
536.38	41687.28
536.55	41523.44
536.72	41670.90
536.89	41546.85
537.06	41911.97
537.23	42349.65
537.40	41926.02
537.57	42281.78
537.74	42234.97
537.91	42721.80
538.08	42354.33
538.25	42220.92
538.42	42438.59
538.59	42754.57
538.75	41816.01
538.92	42415.19
539.09	42218.58
539.26	42534.56
539.43	42518.17
539.60	42401.14
539.77	42714.78
539.94	42319.23
540.11	42658.60
540.28	42597.75
540.44	42651.58
540.61	42251.35
540.78	42298.16
540.95	42918.40
541.12	42415.19
541.29	42754.57
541.46	42859.89
541.62	42712.44
541.79	43103.31
541.96	42834.14
542.13	43086.92
542.30	43274.16
542.47	43110.33
542.63	42941.81
542.80	43150.12
542.97	43564.39
543.14	43297.57
543.31	43613.54
543.48	43606.52
543.64	44423.37
543.81	43667.37
543.98	43859.30
544.15	43959.94
544.32	44016.11
544.48	44083.99
544.65	43985.69
544.82	44395.28
544.99	44170.59
545.16	44123.78
545.32	43859.30
545.49	44610.61
545.66	44268.89
545.83	44402.30
546.00	44573.16
546.16	44264.21
546.33	44062.93
546.50	44107.40
546.67	44168.25
546.83	44271.23
547.00	44184.63
547.17	44533.37
547.34	43938.88
547.50	44603.59
547.67	44229.10
547.84	44374.22
548.00	44594.23
548.17	44685.51
548.34	45020.20
548.51	44945.31
548.67	44561.46
548.84	44945.31
549.01	44474.86
549.18	44261.87
549.34	45020.20
549.51	44680.83
549.68	44758.06
549.84	45045.95
550.01	45205.11
550.18	44664.44
550.34	44942.97
550.51	44879.77
550.68	44718.28
550.84	44718.28
551.01	45074.04
551.18	44865.73
551.34	45111.49
551.51	45771.52
551.68	45546.82
551.84	45624.06
552.01	44957.01
552.18	45429.80
552.34	44718.28
552.51	45188.72
552.68	45628.74
552.84	45591.30
553.01	45366.60
553.18	45598.32
553.34	45338.52
553.51	45425.12
553.67	45659.17
553.84	45855.78
554.01	45895.56
554.17	46017.27
554.34	45813.65
554.51	45638.11
554.67	45713.00
554.84	45720.02
555.00	45530.44
555.17	45563.21
555.33	45769.18
555.50	45759.81
555.67	45993.87
555.83	45975.14
556.00	45720.02
556.16	46223.24
556.33	45902.59
556.50	45572.57
556.66	45670.87
556.83	45949.40
556.99	46017.27
557.16	46380.06
557.32	45654.49
557.49	46050.04
557.65	45804.28
557.82	45890.88
557.98	46150.68
558.15	46220.90
558.32	46204.52
558.48	45923.65
558.65	46263.03
558.81	46188.13
558.98	45778.54
559.14	45677.90
559.31	46026.63
559.47	46295.80
559.64	46136.64
559.80	45876.84
559.97	46274.73
560.13	46307.50
560.30	46459.63
560.46	46768.58
560.63	46366.01
560.79	46478.36
560.96	46611.77
561.12	46251.33
561.29	46604.75
561.45	46745.18
561.61	46515.81
561.78	46302.82
561.94	45951.74
562.11	46408.14
562.27	46258.35
562.44	46698.37
562.60	46742.84
562.77	46370.69
562.93	46309.84
563.10	46974.55
563.26	46241.96
563.42	46754.54
563.59	46356.65
563.75	46473.68
563.92	46813.05
564.08	46564.96
564.24	46852.84
564.41	46789.65
564.57	46653.90
564.74	46389.42
564.90	46618.79
565.07	46649.22
565.23	46670.28
565.39	46335.59
565.56	46454.95
565.72	46518.15
565.88	46660.92
566.05	45954.08
566.21	46700.71
566.38	46672.62
566.54	46618.79
566.70	47037.75
566.87	47119.66
567.03	46653.90
567.19	46967.53
567.36	46981.57
567.52	46894.97
567.68	46508.79
567.85	46766.24
568.01	46829.44
568.17	46714.75
568.34	46717.09
568.50	46820.08
568.66	46436.23
568.83	46831.78
568.99	46536.87
569.15	46672.62
569.32	46712.41
569.48	46536.87
569.64	46756.88
569.81	46899.65
569.97	46993.28
570.13	47000.30
570.30	46827.10
570.46	46464.32
570.62	46328.56
570.78	46319.20
570.95	46597.73
571.11	46696.03
571.27	46784.97
571.43	46094.51
571.60	46920.72
571.76	46703.05
571.92	46368.35
572.09	46623.47
572.25	47384.15
572.41	46820.08
572.57	46714.75
572.74	47498.83
572.90	46836.46
573.06	46932.42
573.22	47171.16
573.38	46953.49
573.55	46918.38
573.71	47154.77
573.87	47004.98
574.03	46948.81
574.20	46752.20
574.36	47143.07
574.52	47082.22
574.68	47229.67
574.84	47012.00
575.01	46789.65
575.17	46766.24
575.33	46742.84
575.49	46506.44
575.65	47447.34
575.82	47372.44
575.98	46508.79
576.14	47239.03
576.30	47178.18
576.46	47168.82
576.62	46894.97
576.79	46712.41
576.95	46483.04
577.11	46794.33
577.27	47023.70
577.43	46567.30
577.59	46756.88
577.75	46681.98
577.92	46635.17
578.08	46602.41
578.24	46466.66
578.40	46850.50
578.56	46920.72
578.72	46836.46
578.88	47264.78
579.04	46979.23
579.21	46653.90
579.37	46845.82
579.53	47126.69
579.69	46916.04
579.85	47274.14
580.01	47056.47
580.17	46714.75
580.33	47051.79
580.49	47180.52
580.65	46981.57
580.82	46911.36
580.98	46944.12
581.14	46515.81
581.30	47316.27
581.46	47040.09
581.62	46768.58
581.78	47236.69
581.94	47407.55
582.10	47159.45
582.26	47388.83
582.42	46703.05
582.58	47318.61
582.74	47056.47
582.90	47110.30
583.06	47189.88
583.22	47070.51
583.38	47384.15
583.54	47154.77
583.70	47122.01
583.86	47168.82
584.02	46766.24
584.18	47234.35
584.34	46754.54
584.50	47260.10
584.66	47185.20
584.82	46859.87
584.98	47086.90
585.14	47173.50
585.30	46799.01
585.46	47077.54
585.62	46728.80
585.78	46717.09
585.94	46588.36
586.10	46745.18
586.26	47026.04
586.42	47152.43
586.58	47868.64
586.74	47107.96
586.90	46869.23
587.06	47026.04
587.22	47313.93
587.38	46883.27
587.54	47042.43
587.70	47393.51
587.86	46651.56
588.02	47323.29
588.18	47143.07
588.34	46717.09
588.49	46665.60
588.65	46557.94
588.81	46511.13
588.97	47030.72
589.13	46426.87
589.29	46646.88
589.45	47103.28
589.61	46747.52
589.77	47147.75
589.93	47122.01
590.08	47150.09
590.24	47234.35
590.40	47508.19
590.56	47264.78
590.72	47147.75
590.88	46925.40
591.04	47133.71
591.20	47381.80
591.35	47466.06
591.51	47440.32
591.67	46712.41
591.83	46972.21
591.99	47068.17
592.15	47100.94
592.31	47033.07
592.46	47124.35
592.62	47199.24
592.78	47154.77
592.94	46738.16
593.10	47269.46
593.26	47428.62
593.41	47234.35
593.57	46890.29
593.73	47320.95
593.89	46871.57
594.05	47491.81
594.20	47129.03
594.36	47126.69
594.52	47194.56
594.68	47143.07
594.84	47042.43
594.99	47381.80
595.15	47110.30
595.31	47239.03
595.47	47185.20
595.62	47269.46
595.78	47150.09
595.94	47629.90
596.10	47578.41
596.25	47501.17
596.41	47374.78
596.57	47023.70
596.73	47295.21
596.88	46990.94
597.04	47470.75
597.20	47185.20
597.36	46864.55
597.51	46981.57
597.67	47421.59
597.83	47166.48
597.99	47463.72
598.14	47679.05
598.30	47208.61
598.46	47257.76
598.61	47281.16
598.77	47004.98
598.93	47159.45
599.09	47325.63
599.24	47491.81
599.40	47679.05
599.56	47484.79
599.71	47110.30
599.87	47107.96
600.03	47318.61
600.18	46876.25
600.34	46852.84
600.50	47075.19
600.65	46473.68
600.81	47529.26
600.97	47161.79
601.12	47728.20
601.28	47019.02
601.44	46902.00
601.59	46831.78
601.75	46469.00
601.91	47084.56
602.06	47037.75
602.22	47384.15
602.37	47255.42
602.53	47196.90
602.69	47442.66
602.84	47098.60
603.00	46995.62
603.16	47096.26
603.31	46927.74
603.47	46976.89
603.62	47714.16
603.78	47264.78
603.94	47159.45
604.09	47384.15
604.25	47007.32
604.40	47061.15
604.56	47075.19
604.71	47400.53
604.87	46974.55
605.03	47068.17
605.18	46948.81
605.34	47299.89
605.49	46829.44
605.65	47068.17
605.80	46953.49
605.96	46995.62
606.12	46742.84
606.27	47332.65
606.43	47028.38
606.58	47264.78
606.74	46862.21
606.89	46803.69
607.05	47068.17
607.20	46897.31
607.36	46911.36
607.51	47007.32
607.67	46864.55
607.82	47166.48
607.98	46546.23
608.13	47056.47
608.29	46520.49
608.44	46375.37
608.60	46206.86
608.75	46272.39
608.91	46986.25
609.06	46351.97
609.22	47063.49
609.37	46735.82
609.53	46515.81
609.68	46511.13
609.84	46321.54
609.99	46679.64
610.15	46366.01
610.30	46380.06
610.46	46319.20
610.61	46279.41
610.76	46398.78
610.92	46773.27
611.07	46501.76
611.23	46036.00
611.38	46244.30
611.54	46150.68
611.69	45762.15
611.84	45965.78
612.00	46239.62
612.15	46206.86
612.31	46391.76
612.46	46155.36
612.62	46368.35
612.77	46380.06
612.92	46473.68
613.08	45823.01
613.23	45956.42
613.39	45989.19
613.54	45375.97
613.69	45750.45
613.85	45584.27
614.00	46461.97
614.15	46408.14
614.31	46361.33
614.46	46087.49
614.62	46150.68
614.77	46150.68
614.92	46115.58
615.08	45825.35
615.23	45668.53
615.38	45649.81
615.54	45703.64
615.69	45867.48
615.84	45535.12
616.00	45483.63
616.15	45844.07
616.30	45614.70
616.46	45301.07
616.61	45652.15
616.76	45418.10
616.92	45242.56
617.07	45326.81
617.22	45588.95
617.37	45570.23
617.53	45801.94
617.68	45755.13
617.83	45638.11
617.99	45642.79
618.14	45209.79
618.29	45462.57
618.45	44816.58
618.60	45387.67
618.75	45294.05
618.90	45027.23
619.06	45251.92
619.21	44858.71
619.36	45675.55
619.51	44935.95
619.67	44940.63
619.82	45179.36
619.97	45261.28
620.12	44835.30
620.28	45137.23
620.43	45223.83
620.58	45277.66
620.73	45186.38
620.89	44832.96
621.04	45371.28
621.19	45186.38
621.34	45043.61
621.49	44629.34
621.65	44865.73
621.80	44978.07
621.95	44690.19
622.10	44437.41
622.25	44598.91
622.41	44669.12
622.56	44458.48
622.71	44521.67
622.86	44423.37
623.01	44903.18
623.16	44432.73
623.32	44818.92
623.47	44713.59
623.62	44655.08
623.77	44645.72
623.92	44720.62
624.07	44215.06
624.23	44172.93
624.38	44259.53
624.53	44493.58
624.68	44072.29
624.83	44364.85
624.98	44266.55
625.13	43674.40
625.29	43873.34
625.44	43824.19
625.59	43920.15
625.74	43440.34
625.89	43840.57
626.04	43576.09
626.19	44123.78
626.34	43683.76
626.49	43805.47
626.65	43880.36
626.80	44095.69
626.95	43655.67
627.10	43711.84
627.25	43819.51
627.40	43601.84
627.55	43342.04
627.70	42859.89
627.85	43262.46
628.00	43564.39
628.15	43430.98
628.30	43391.19
628.45	43611.20
628.60	43222.67
628.76	43440.34
628.91	43402.89
629.06	43166.50
629.21	43136.07
629.36	42810.74
629.51	43131.39
629.66	42962.87
629.81	43281.19
629.96	43112.67
630.11	43037.77
630.26	43674.40
630.41	43543.33
630.56	42990.96
630.71	43077.56
630.86	42674.99
631.01	43107.99
631.16	42525.19
631.31	42803.72
631.46	42532.22
631.61	42820.10
631.76	42869.25
631.91	42623.50
632.06	42609.45
632.21	43309.27
632.36	43079.90
632.51	42618.81
632.66	42852.87
632.81	42782.65
632.96	42333.27
633.10	42330.93
633.25	42799.04
633.40	42457.32
633.55	42934.79
633.70	42789.67
633.85	42469.02
634.00	42457.32
634.15	42511.15
634.30	42127.30
634.45	42382.42
634.60	42066.45
634.75	42234.97
634.90	41900.27
635.05	42274.76
635.19	41935.38
635.34	42466.68
635.49	41911.97
635.64	42129.64
635.79	42174.11
635.94	42043.04
636.09	42131.98
636.24	41933.04
636.39	41743.45
636.53	42036.02
636.68	41769.20
636.83	42066.45
636.98	41818.35
637.13	41467.27
637.28	41989.21
637.43	42213.90
637.57	41804.31
637.72	41811.33
637.87	41544.51
638.02	41581.96
638.17	41837.08
638.32	41284.71
638.46	41790.27
638.61	41521.10
638.76	41635.79
638.91	41734.09
639.06	41708.35
639.20	41584.30
639.35	41654.51
639.50	41476.63
639.65	41577.28
639.80	41467.27
639.94	41586.64
640.09	41120.87
640.24	41235.56
640.39	41104.49
640.54	40898.52
640.68	41155.98
640.83	41219.17
640.98	41120.87
641.13	41174.70
641.27	41043.63
641.42	40863.41
641.57	41165.34
641.72	41027.25
641.86	40708.94
642.01	40580.21
642.16	40168.27
642.31	40505.31
642.45	41041.29
642.60	40549.78
642.75	40421.05
642.90	40830.65
643.04	40491.27
643.19	40713.62
643.34	40615.32
643.48	40254.87
643.63	40610.64
643.78	40402.33
643.93	40643.40
644.07	40594.25
644.22	40236.15
644.37	40378.92
644.51	40301.68
644.66	40655.11
644.81	40580.21
644.95	40638.72
645.10	40170.61
645.25	40477.22
645.39	40074.65
645.54	40547.44
645.69	40399.99
645.83	40301.68
645.98	40037.20
646.13	40240.83
646.27	39856.98
646.42	40165.93
646.57	39999.76
646.71	39938.90
646.86	40156.57
647.00	40142.53
647.15	40154.23
647.30	40018.48
647.44	39852.30
647.59	39915.50
647.74	39564.42
647.88	39744.64
648.03	39875.71
648.17	39924.86
648.32	40123.80
648.47	39814.85
648.61	39852.30
648.76	39847.62
648.90	39791.45
649.05	39498.88
649.20	39646.33
649.34	39496.54
649.49	39606.55
649.63	39625.27
649.78	39538.67
649.92	39714.21
650.07	39875.71
650.21	39330.36
650.36	39899.11
650.51	39796.13
650.65	39791.45
650.80	39676.76
650.94	39302.28
651.09	39522.29
651.23	39232.06
651.38	39210.99
651.52	39152.48
651.67	38646.93
651.81	38979.28
651.96	39203.97
652.10	39388.88
652.25	38927.79
652.39	39093.97
652.54	38955.88
652.68	39072.90
652.83	39239.08
652.97	39559.73
653.12	39218.02
653.26	39091.63
653.41	38604.80
653.55	38792.04
653.70	38880.98
653.84	38415.21
653.99	38389.47
654.13	38597.77
654.27	38368.40
654.42	38162.43
654.56	38469.04
654.71	38249.03
654.85	38436.28
655.00	38920.77
655.14	38279.46
655.29	37975.19
655.43	38089.88
655.57	37893.27
655.72	37825.40
655.86	37923.70
656.01	37631.13
656.15	37727.10
656.30	37359.63
656.44	38010.30
656.58	37846.46
656.73	37600.71
656.87	37724.75
657.01	37844.12
657.16	37860.51
657.30	37677.94
657.45	37626.45
657.59	37801.99
657.73	38087.54
657.88	37975.19
658.02	38017.32
658.16	38139.03
658.31	37706.03
658.45	37972.85
658.60	37792.63
658.74	37790.29
658.88	37670.92
659.03	37633.47
659.17	37834.76
659.31	37429.85
659.46	37408.78
659.60	37418.14
659.74	37539.85
659.89	37254.31
660.03	37029.62
660.17	37818.38
660.32	37591.34
660.46	37553.90
660.60	37193.45
660.74	37551.56
660.89	37310.48
661.03	36943.02
661.17	36907.91
661.32	36821.31
661.46	37186.43
661.60	36973.44
661.74	36851.73
661.89	36793.22
662.03	36650.45
662.17	36790.88
662.31	36711.30
662.46	37046.00
662.60	36957.06
662.74	36758.11
662.88	36095.74
663.03	36737.05
663.17	36587.25
663.31	36322.77
663.45	36318.09
663.60	36343.84
663.74	36009.14
663.88	35880.41
664.02	35889.77
664.17	36259.58
664.31	35534.01
664.45	35828.92
664.59	35519.97
664.73	35807.86
664.88	36002.12
665.02	35608.91
665.16	35625.29
665.30	35271.87
665.44	35543.38
665.59	35269.53
665.73	35524.65
665.87	35213.36
666.01	35232.08
666.15	35337.41
666.29	35246.13
666.44	35154.85
666.58	34983.99
666.72	35241.45
666.86	34731.21
667.00	34747.59
667.14	34398.85
667.28	34817.81
667.43	34618.86
667.57	34625.89
667.71	34574.39
667.85	34850.58
667.99	34660.99
668.13	34625.89
668.27	34745.25
668.41	34543.97
668.56	34457.37
668.70	34265.44
668.84	33858.19
668.98	33914.36
669.12	33937.77
669.26	34075.86
669.40	34071.18
669.54	33270.72
669.68	33757.55
669.82	33694.35
669.96	33961.17
670.10	33343.27
670.25	33230.93
670.39	33574.98
670.53	33326.89
670.67	33408.81
670.81	33958.83
670.95	33472.00
671.09	33280.08
671.23	33153.69
671.37	32952.40
671.51	32917.29
671.65	32959.42
671.79	32741.75
671.93	32704.31
672.07	33193.48
672.21	32779.20
672.35	32540.47
672.49	32889.21
672.63	32830.69
672.77	32751.12
672.91	32437.48
673.05	32395.35
673.19	32397.70
673.33	32041.93
673.47	32093.43
673.61	32393.01
673.75	32027.89
673.89	31690.85
674.03	31952.99
674.17	31903.84
674.31	31910.86
674.45	31737.66
674.59	31725.96
674.73	32161.30
674.87	31728.30
675.01	31475.52
675.15	31391.26
675.29	31374.88
675.43	31271.90
675.56	31182.96
675.70	31133.81
675.84	31014.44
675.98	30326.32
676.12	30658.68
676.26	30841.24
676.40	30731.23
676.54	30888.05
676.68	30672.72
676.82	30302.92
676.96	30321.64
677.10	30307.60
677.23	30005.67
677.37	30164.82
677.51	30349.73
677.65	30057.16
677.79	29399.47
677.93	29977.58
678.07	29357.34
678.21	29085.84
678.34	29366.70
678.48	29277.76
678.62	29125.63
678.76	28854.12
678.90	28931.36
679.04	29017.96
679.18	29008.60
679.31	28847.10
679.45	28308.78
679.59	28566.24
679.73	28643.48
679.87	28453.89
680.00	28472.62
680.14	28542.83
680.28	28451.55
680.42	28369.63
680.56	28147.28
680.70	28013.87
680.83	28161.33
680.97	27824.29
681.11	27754.07
681.25	27632.36
681.39	27510.66
681.52	27583.21
681.66	27241.50
681.80	27475.55
681.94	27503.64
682.07	27269.58
682.21	27112.77
682.35	26984.04
682.49	26757.00
682.62	27009.78
682.76	26448.05
682.90	26396.56
683.04	26586.15
683.17	26382.52
683.31	25998.67
683.45	26553.38
683.59	26188.25
683.72	26029.10
683.86	25984.63
684.00	26249.11
684.13	25748.23
684.27	25556.31
684.41	25591.42
684.55	25638.23
684.68	25411.20
684.82	25043.73
684.96	25266.08
685.09	25205.23
685.23	25172.46
685.37	25280.13
685.50	24858.83
685.64	25256.72
685.78	24652.86
685.91	24683.29
686.05	24563.92
686.19	24458.60
686.32	24266.67
686.46	23901.55
686.60	23866.44
686.73	23283.65
686.87	23021.51
687.01	23185.35
687.14	23316.42
687.28	23321.10
687.42	23293.01
687.55	23370.25
687.69	23660.48
687.82	23503.66
687.96	23407.70
688.10	22923.21
688.23	22874.06
688.37	22923.21
688.50	22670.43
688.64	22780.43
688.78	22845.97
688.91	22649.36
689.05	22614.26
689.18	22590.85
689.32	22473.82
689.46	22253.81
689.59	22623.62
689.73	22476.16
689.86	22237.43
690.00	21942.52
690.13	22253.81
690.27	21921.46
690.41	21724.85
690.54	21467.39
690.68	21776.34
690.81	21706.13
690.95	21500.16
691.08	21231.00
691.22	21242.70
691.35	21448.67
691.49	21469.73
691.62	20975.88
691.76	21453.35
691.89	21153.76
692.03	20933.75
692.16	20989.92
692.30	20606.08
692.43	20538.20
692.57	20266.70
692.70	20266.70
692.84	20346.28
692.97	20301.81
693.11	19990.52
693.24	19936.68
693.38	19967.11
693.51	19976.47
693.65	19983.49
693.78	19829.02
693.92	19719.01
694.05	19426.45
694.19	19566.88
694.32	19754.12
694.45	19372.61
694.59	19384.32
694.72	19103.45
694.86	19339.85
694.99	19033.24
695.13	19110.47
695.26	19040.26
695.39	18913.87
695.53	18644.71
695.66	18583.85
695.80	18850.67
695.93	18546.40
696.07	18342.78
696.20	18593.22
696.33	18836.63
696.47	18394.27
696.60	17853.61
696.73	17921.48
696.87	17933.18
697.00	17877.01
697.14	17818.50
697.27	17411.25
697.40	17563.38
697.54	17528.27
697.67	17586.79
697.80	17617.21
697.94	17326.99
698.07	17404.22
698.21	17146.76
698.34	17186.55
698.47	16734.83
698.61	17039.10
698.74	16840.15
698.87	16725.47
699.01	16624.83
699.14	16671.64
699.27	16472.69
699.40	16688.02
699.54	16538.23
699.67	16671.64
699.80	16372.05
699.94	16147.36
700.07	16325.24
700.20	16266.72
700.34	16016.29
700.47	16304.17
700.60	16255.02
700.73	16240.98
700.87	16130.97
701.00	15810.32
701.13	15690.95
701.26	15496.69
701.40	15627.76
701.53	15363.28
701.66	15470.94
701.79	15232.21
701.93	15548.18
702.06	15082.41
702.19	15042.62
702.32	14988.79
702.46	15272.00
702.59	14993.47
702.72	14787.50
702.85	14953.68
702.99	15030.92
703.12	14789.85
703.25	14740.69
703.38	14771.12
703.51	14546.43
703.65	14635.37
703.78	14363.87
703.91	14441.11
704.04	14167.26
704.17	14281.95
704.31	14078.32
704.44	13991.72
704.57	14052.58
704.70	14040.87
704.83	14036.19
704.96	13965.98
705.10	13776.39
705.23	13851.29
>>>>>End Processed Spectral Data<<<<<
