SpectraSuite Data File
++++++++++++++++++++++++++++++++++++
Date: Fri Oct 25 11:33:57 EDT 2013
User: price-jones
Dark Spectrum Present: No
Reference Spectrum Present: No
Number of Sampled Component Spectra: 1
Spectrometers: USB2+H05261
Integration Time (usec): 100000 (USB2+H05261)
Spectra Averaged: 1 (USB2+H05261)
Boxcar Smoothing: 0 (USB2+H05261)
Correct for Electrical Dark: No (USB2+H05261)
Strobe/Lamp Enabled: No (USB2+H05261)
Correct for Detector Non-linearity: No (USB2+H05261)
Correct for Stray Light: No (USB2+H05261)
Number of Pixels in Processed Spectrum: 2048
>>>>>Begin Processed Spectral Data<<<<<
365.73	210.65
365.92	210.65
366.12	210.65
366.32	245.76
366.52	222.35
366.72	177.88
366.91	138.09
367.11	119.37
367.31	212.99
367.51	198.95
367.70	119.37
367.90	252.78
368.10	212.99
368.30	215.33
368.49	156.82
368.69	248.10
368.89	198.95
369.09	273.84
369.28	212.99
369.48	210.65
369.68	285.55
369.87	238.73
370.07	252.78
370.27	266.82
370.47	301.93
370.66	451.72
370.86	491.51
371.06	557.05
371.25	643.65
371.45	517.26
371.65	573.43
371.84	517.26
372.04	550.03
372.24	545.34
372.44	557.05
372.63	561.73
372.83	603.86
373.03	582.79
373.22	631.94
373.42	692.80
373.62	599.18
373.81	566.41
374.01	676.41
374.21	608.54
374.40	662.37
374.60	650.67
374.79	603.86
374.99	674.07
375.19	660.03
375.38	631.94
375.58	690.46
375.78	732.59
375.97	641.31
376.17	657.69
376.37	676.41
376.56	702.16
376.76	716.20
376.95	641.31
377.15	613.22
377.35	660.03
377.54	706.84
377.74	655.35
377.93	653.01
378.13	723.23
378.33	734.93
378.52	685.78
378.72	734.93
378.91	699.82
379.11	695.14
379.31	709.18
379.50	671.73
379.70	699.82
379.89	716.20
380.09	702.16
380.28	737.27
380.48	746.63
380.68	772.38
380.87	748.97
381.07	751.31
381.26	809.83
381.46	723.23
381.65	723.23
381.85	716.20
382.04	772.38
382.24	744.29
382.43	692.80
382.63	840.25
382.83	718.54
383.02	727.91
383.22	809.83
383.41	800.46
383.61	786.42
383.80	835.57
384.00	786.42
384.19	798.12
384.39	819.19
384.58	802.80
384.78	805.14
384.97	863.66
385.17	802.80
385.36	826.21
385.56	891.74
385.75	851.96
385.95	851.96
386.14	861.32
386.34	791.10
386.53	861.32
386.72	884.72
386.92	863.66
387.11	903.45
387.31	905.79
387.50	802.80
387.70	919.83
387.89	978.34
388.09	894.08
388.28	917.49
388.48	854.30
388.67	905.79
388.86	952.60
389.06	919.83
389.25	936.21
389.45	891.74
389.64	1020.47
389.84	952.60
390.03	915.15
390.22	978.34
390.42	968.98
390.61	992.39
390.81	968.98
391.00	945.58
391.19	1004.09
391.39	966.64
391.58	1006.43
391.78	990.05
391.97	1069.62
392.16	931.53
392.36	1046.22
392.55	1036.86
392.75	1025.15
392.94	1083.67
393.13	1055.58
393.33	971.32
393.52	1083.67
393.71	1160.91
393.91	971.32
394.10	1043.88
394.29	1240.48
394.49	1093.03
394.68	1022.81
394.88	1057.92
395.07	1139.84
395.26	1132.82
395.46	1165.59
395.65	1163.25
395.84	1116.44
396.04	1275.59
396.23	1200.69
396.42	1193.67
396.62	1207.72
396.81	1217.08
397.00	1181.97
397.19	1200.69
397.39	1191.33
397.58	1306.02
397.77	1200.69
397.97	1203.04
398.16	1228.78
398.35	1261.55
398.55	1231.12
398.74	1228.78
398.93	1299.00
399.12	1282.61
399.32	1345.81
399.51	1336.45
399.70	1345.81
399.90	1446.45
400.09	1362.19
400.28	1409.00
400.47	1380.92
400.67	1315.38
400.86	1315.38
401.05	1394.96
401.24	1380.92
401.44	1411.34
401.63	1413.68
401.82	1516.67
402.01	1458.15
402.21	1476.88
402.40	1558.80
402.59	1530.71
402.78	1511.99
402.97	1504.96
403.17	1631.35
403.36	1490.92
403.55	1619.65
403.74	1504.96
403.93	1589.22
404.13	1542.41
404.32	1610.29
404.51	1575.18
404.70	1717.95
404.89	1657.10
405.09	1722.63
405.28	1626.67
405.47	1591.56
405.66	1701.57
405.85	1696.89
406.05	1659.44
406.24	1710.93
406.43	1804.55
406.62	1802.21
406.81	1783.49
407.00	1783.49
407.20	1844.34
407.39	1720.29
407.58	1851.36
407.77	1837.32
407.96	1902.86
408.15	1834.98
408.34	1867.75
408.54	1968.39
408.73	1968.39
408.92	1844.34
409.11	1982.43
409.30	1893.49
409.49	1970.73
409.68	1937.96
409.87	2036.27
410.07	2033.93
410.26	2022.22
410.45	2033.93
410.64	2031.58
410.83	2003.50
411.02	1949.67
411.21	2076.06
411.40	2111.16
411.59	2218.83
411.78	2176.70
411.98	2141.59
412.17	2214.15
412.36	2249.25
412.55	2181.38
412.74	2282.02
412.93	2429.48
413.12	2375.64
413.31	2324.15
413.50	2560.55
413.69	2368.62
413.88	2518.42
414.07	2459.90
414.26	2469.27
414.45	2562.89
414.64	2562.89
414.83	2583.95
415.02	2495.01
415.22	2647.15
415.41	2691.62
415.60	2626.08
415.79	2651.83
415.98	2703.32
416.17	2717.36
416.36	2789.92
416.55	2740.77
416.74	2799.28
416.93	2810.98
417.12	2853.11
417.31	2761.83
417.50	2829.71
417.69	2981.84
417.88	2834.39
418.07	2904.60
418.26	2960.78
418.45	2981.84
418.64	3148.02
418.83	2974.82
419.02	3084.83
419.21	3070.78
419.39	2972.48
419.58	3096.53
419.77	3056.74
419.96	3098.87
420.15	3236.96
420.34	3215.90
420.53	3084.83
420.72	3169.09
420.91	3281.43
421.10	3239.30
421.29	3290.79
421.48	3171.43
421.67	3339.94
421.86	3314.20
422.05	3262.71
422.24	3119.93
422.43	3332.92
422.61	3344.63
422.80	3492.08
422.99	3286.11
423.18	3323.56
423.37	3417.18
423.56	3283.77
423.75	3318.88
423.94	3288.45
424.13	3159.72
424.32	3318.88
424.50	3482.72
424.69	3538.89
424.88	3428.88
425.07	3522.51
425.26	3361.01
425.45	3365.69
425.64	3438.25
425.83	3456.97
426.01	3492.08
426.20	3428.88
426.39	3428.88
426.58	3496.76
426.77	3550.59
426.96	3609.11
427.15	3655.92
427.33	3590.38
427.52	3513.14
427.71	3707.41
427.90	3529.53
428.09	3578.68
428.28	3623.15
428.46	3676.98
428.65	3627.83
428.84	3723.79
429.03	3761.24
429.22	3625.49
429.40	3747.20
429.59	3857.20
429.78	3707.41
429.97	3555.27
430.16	3824.44
430.34	3831.46
430.53	3847.84
430.72	3901.67
430.91	3943.80
431.10	3955.51
431.28	3810.39
431.47	3967.21
431.66	4079.55
431.85	3857.20
432.03	4011.68
432.22	3988.27
432.41	4098.28
432.60	4028.06
432.79	4119.34
432.97	4056.15
433.16	4124.02
433.35	4077.21
433.54	4135.73
433.72	4126.36
433.91	4243.39
434.10	4217.65
434.28	4044.45
434.47	4194.24
434.66	4238.71
434.85	4196.58
435.03	4397.87
435.22	4227.01
435.41	4315.95
435.59	4430.63
435.78	4507.87
435.97	4278.50
436.16	4409.57
436.34	4423.61
436.53	4477.44
436.72	4557.02
436.90	4414.25
437.09	4542.98
437.28	4358.08
437.46	4521.92
437.65	4409.57
437.84	4589.79
438.02	4437.66
438.21	4734.90
438.40	4393.19
438.58	4704.48
438.77	4737.24
438.96	4723.20
439.14	4854.27
439.33	4915.12
439.52	4894.06
439.70	4896.40
439.89	4912.78
440.08	4901.08
440.26	4898.74
440.45	4973.64
440.63	4992.36
440.82	5207.69
441.01	5006.41
441.19	5116.41
441.38	5144.50
441.57	5284.93
441.75	5277.91
441.94	5261.52
442.12	5390.25
442.31	5371.53
442.50	5411.32
442.68	5317.70
442.87	5268.55
443.05	5383.23
443.24	5380.89
443.43	5596.22
443.61	5533.03
443.80	5661.76
443.98	5397.28
444.17	5348.12
444.35	5490.90
444.54	5689.84
444.73	5678.14
444.91	5530.69
445.10	5556.43
445.28	5626.65
445.47	5596.22
445.65	5511.96
445.84	5760.06
446.02	5626.65
446.21	5614.95
446.39	5521.32
446.58	5734.31
446.77	5692.18
446.95	5483.88
447.14	5731.97
447.32	5778.78
447.51	5687.50
447.69	5643.03
447.88	5706.23
448.06	5645.37
448.25	5650.05
448.43	5851.34
448.62	5689.84
448.80	5729.63
448.99	5954.32
449.17	5715.59
449.36	5696.86
449.54	6054.97
449.73	5905.17
449.91	6139.23
450.10	6125.18
450.28	6214.12
450.46	5912.19
450.65	6090.07
450.83	6134.54
451.02	6127.52
451.20	6197.74
451.39	6115.82
451.57	6164.97
451.76	6080.71
451.94	6272.64
452.13	6232.85
452.31	6258.59
452.49	6085.39
452.68	6244.55
452.86	6354.55
453.05	6473.92
453.23	6363.92
453.42	6228.17
453.60	6267.95
453.78	6235.19
453.97	6394.34
454.15	6403.71
454.34	6361.58
454.52	6436.47
454.70	6567.54
454.89	6647.12
455.07	6452.86
455.26	6621.38
455.44	6546.48
455.62	6698.61
455.81	6525.41
455.99	6588.61
456.17	6946.71
456.36	6703.29
456.54	6775.85
456.73	6857.77
456.91	7035.65
457.09	7145.66
457.28	7225.23
457.46	6869.47
457.64	7096.50
457.83	7073.10
458.01	7140.97
458.19	7229.91
458.38	7225.23
458.56	7155.02
458.74	7215.87
458.93	7075.44
459.11	6979.48
459.29	7152.68
459.48	7473.33
459.66	7307.15
459.84	7241.62
460.03	7391.41
460.21	7272.04
460.39	7335.24
460.57	7419.50
460.76	7377.37
460.94	7478.01
461.12	7520.14
461.31	7461.63
461.49	7489.71
461.67	7494.40
461.85	7648.87
462.04	7421.84
462.22	8241.03
462.40	7660.57
462.59	7756.54
462.77	7627.81
462.95	7639.51
463.13	7770.58
463.32	7545.89
463.50	8058.46
463.68	8046.76
463.86	7962.50
464.05	7702.70
464.23	7918.03
464.41	7749.51
464.59	7908.67
464.78	8191.88
464.96	7997.61
465.14	7819.73
465.32	8109.96
465.50	7765.90
465.69	8163.79
465.87	8053.78
466.05	8278.47
466.23	8086.55
466.41	8149.75
466.60	8358.05
466.78	8269.11
466.96	8067.83
467.14	8250.39
467.32	8271.45
467.51	8423.59
467.69	7920.37
467.87	8245.71
468.05	8355.71
468.23	8339.33
468.41	8397.84
468.60	8318.26
468.78	8189.53
468.96	8493.80
469.14	8250.39
469.32	8669.34
469.50	8376.78
469.69	8636.58
469.87	8781.69
470.05	8648.28
470.23	8746.58
470.41	8837.86
470.59	8863.61
470.77	8762.97
470.95	8744.24
471.14	9062.55
471.32	8739.56
471.50	8765.31
471.68	8943.19
471.86	9022.77
472.04	9027.45
472.22	9217.03
472.40	9081.28
472.58	8968.93
472.77	9146.81
472.95	9451.08
473.13	9748.33
473.31	9240.44
473.49	9305.97
473.67	9376.19
473.85	9362.14
474.03	9600.88
474.21	9706.20
474.39	9818.55
474.57	9650.03
474.75	9902.81
474.93	9832.59
475.12	9589.17
475.30	10045.58
475.48	9907.49
475.66	10047.92
475.84	9907.49
476.02	10169.63
476.20	10209.42
476.38	10368.57
476.56	10548.79
476.74	10497.30
476.92	10490.28
477.10	10284.31
477.28	10551.14
477.46	10525.39
477.64	10778.17
477.82	10876.47
478.00	11159.67
478.18	10963.07
478.36	10927.96
478.54	11201.80
478.72	11183.08
478.90	11541.18
479.08	11559.91
479.26	11779.92
479.44	11550.54
479.62	11644.17
479.80	11971.84
479.98	11868.86
480.16	11997.59
480.34	11882.90
480.52	12166.10
480.70	12262.07
480.88	12194.19
481.06	12255.04
481.24	12306.54
481.41	12631.87
481.59	12760.60
481.77	12793.37
481.95	12840.18
482.13	13153.81
482.31	13008.70
482.49	13097.64
482.67	13156.15
482.85	13371.48
483.03	13369.14
483.21	13420.63
483.39	13921.51
483.57	13919.17
483.74	13741.29
483.92	13888.74
484.10	13729.58
484.28	14068.96
484.46	14251.52
484.64	14794.53
484.82	14541.75
485.00	14600.26
485.18	14782.82
485.35	15030.92
485.53	14848.36
485.71	14927.94
485.89	15517.75
486.07	14984.11
486.25	15414.77
486.43	15527.11
486.61	15531.80
486.78	15543.50
486.96	15845.43
487.14	16037.35
487.32	16198.85
487.50	16285.45
487.68	16311.19
487.85	16695.04
488.03	16643.55
488.21	16938.46
488.39	16779.30
488.57	16805.05
488.75	17006.33
488.92	17420.61
489.10	17678.07
489.28	17621.89
489.46	17731.90
489.64	17675.73
489.81	17951.91
489.99	18005.74
490.17	17937.87
490.35	18448.10
490.53	18277.24
490.70	18471.51
490.88	18377.89
491.06	18677.48
491.24	18541.72
491.41	18974.72
491.59	19073.03
491.77	18960.68
491.95	19484.96
492.13	19435.81
492.30	19487.30
492.48	19487.30
492.66	19536.45
492.84	19950.73
493.01	19978.81
493.19	19995.20
493.37	20119.24
493.54	20217.55
493.72	20266.70
493.90	20428.20
494.08	20884.60
494.25	20718.42
494.43	20680.97
494.61	21050.78
494.79	21158.44
494.96	20943.11
495.14	21331.64
495.32	21710.81
495.49	21490.80
495.67	21745.92
495.85	22022.10
496.02	22066.57
496.20	22408.29
496.38	22422.33
496.55	22153.17
496.73	22682.13
496.91	22464.46
497.09	22649.36
497.26	22785.12
497.44	22719.58
497.62	22686.81
497.79	23061.30
497.97	22953.63
498.14	23466.21
498.32	23576.22
498.50	23704.95
498.67	23768.14
498.85	23854.74
499.03	23681.54
499.20	24056.03
499.38	23660.48
499.56	23885.17
499.73	24180.07
499.91	24503.07
500.08	24528.81
500.26	24402.43
500.44	24613.07
500.61	24865.85
500.79	24582.65
500.97	24952.45
501.14	25003.94
501.32	25411.20
501.49	25172.46
501.67	25029.69
501.84	25500.14
502.02	25710.78
502.20	25179.48
502.37	25362.04
502.55	25795.04
502.72	25638.23
502.90	25553.97
503.07	25458.01
503.25	25996.33
503.43	25586.74
503.60	25886.32
503.78	26237.41
503.95	26022.08
504.13	26167.19
504.30	26146.12
504.48	26476.14
504.65	26852.97
504.83	26836.58
505.01	26464.44
505.18	27047.23
505.36	26916.16
505.53	27178.30
505.71	27232.13
505.88	27515.34
506.06	26967.65
506.23	27557.47
506.41	27681.52
506.58	27772.80
506.76	27562.15
506.93	27550.45
507.11	27552.79
507.28	27718.96
507.46	28032.60
507.63	27730.67
507.81	28177.71
507.98	27847.69
508.16	28147.28
508.33	28397.72
508.50	28561.56
508.68	28835.40
508.85	28489.00
509.03	28851.78
509.20	28819.02
509.38	29024.98
509.55	28987.53
509.73	28734.76
509.90	29235.63
510.08	29205.20
510.25	29481.39
510.42	29277.76
510.60	29413.51
510.77	29565.65
510.95	29944.81
511.12	29518.84
511.30	29710.76
511.47	29607.78
511.64	29605.44
511.82	30195.25
511.99	30012.69
512.17	29923.75
512.34	30235.04
512.51	30511.22
512.69	30707.83
512.86	30731.23
513.04	30504.20
513.21	30483.14
513.38	31021.46
513.56	31082.31
513.73	31016.78
513.90	31047.21
514.08	30848.26
514.25	31297.64
514.43	31178.28
514.60	30969.97
514.77	31414.67
514.95	31494.25
515.12	31115.08
515.29	31061.25
515.47	31976.40
515.64	32367.27
515.81	31742.35
515.99	31630.00
516.16	32451.53
516.33	32158.96
516.51	32357.91
516.68	32041.93
516.85	32041.93
517.03	32383.65
517.20	32603.66
517.37	32322.80
517.54	32694.94
517.72	32507.70
517.89	32582.60
518.06	32240.88
518.24	32732.39
518.41	32751.12
518.58	32968.79
518.75	32594.30
518.93	33013.26
519.10	32931.34
519.27	32964.10
519.45	33139.65
519.62	33408.81
519.79	33640.52
519.96	33474.34
520.14	33586.69
520.31	33357.32
520.48	33947.13
520.65	33804.36
520.83	33970.54
521.00	33919.04
521.17	34380.13
521.34	34040.75
521.52	34015.01
521.69	34342.68
521.86	34330.98
522.03	34518.22
522.20	34504.18
522.38	34897.39
522.55	34710.14
522.72	34815.47
522.89	34478.43
523.07	34927.81
523.24	34864.62
523.41	35030.80
523.58	34890.37
523.75	35012.07
523.92	35253.15
524.10	35461.46
524.27	35192.30
524.44	35442.73
524.61	35208.68
524.78	35325.71
524.96	35676.79
525.13	35676.79
525.30	35969.35
525.47	35835.94
525.64	35913.18
525.81	35707.21
525.98	36093.40
526.16	36102.76
526.33	36011.48
526.50	36212.77
526.67	36348.52
526.84	36421.08
527.01	36416.40
527.18	35981.06
527.36	36744.07
527.53	36456.18
527.70	36891.52
527.87	36697.26
528.04	36928.97
528.21	36959.40
528.38	36671.51
528.55	37078.77
528.72	36631.72
528.89	37120.90
529.07	36723.01
529.24	36535.76
529.41	37469.64
529.58	37116.22
529.75	37153.66
529.92	37092.81
530.09	37455.59
530.26	37347.93
530.43	37354.95
530.60	37289.42
530.77	37521.13
530.94	37439.21
531.11	37628.79
531.28	37361.97
531.46	37699.01
531.63	37902.64
531.80	38117.96
531.97	38298.19
532.14	37904.98
532.31	38029.02
532.48	38047.75
532.65	38321.59
532.82	38206.90
532.99	37834.76
533.16	38206.90
533.33	38260.74
533.50	37975.19
533.67	38181.16
533.84	37926.04
534.01	38497.13
534.18	38422.23
534.35	39035.45
534.52	38667.99
534.69	39096.31
534.86	39370.15
535.03	38572.03
535.20	38845.87
535.37	38857.57
535.54	39007.37
535.71	39058.86
535.88	39622.93
536.05	39278.87
536.22	39501.22
536.38	39796.13
536.55	39428.66
536.72	39578.46
536.89	39248.44
537.06	39683.78
537.23	40006.78
537.40	39428.66
537.57	39388.88
537.74	39203.97
537.91	39763.36
538.08	39318.66
538.25	39700.17
538.42	39854.64
538.59	40137.85
538.75	39763.36
538.92	40154.23
539.09	40112.10
539.26	40165.93
539.43	40788.52
539.60	39934.22
539.77	40350.84
539.94	40694.89
540.11	40444.46
540.28	40011.46
540.44	40821.28
540.61	40690.21
540.78	40332.11
540.95	40715.96
541.12	40240.83
541.29	40868.09
541.46	40350.84
541.62	40479.57
541.79	40638.72
541.96	40463.18
542.13	41158.32
542.30	40994.48
542.47	41069.38
542.63	41022.57
542.80	41116.19
542.97	41907.29
543.14	41476.63
543.31	41301.09
543.48	41219.17
543.64	42010.28
543.81	41872.18
543.98	41247.26
544.15	41675.58
544.32	41698.98
544.48	41741.11
544.65	41799.63
544.82	41886.23
544.99	41366.63
545.16	42050.06
545.32	42012.62
545.49	42160.07
545.66	42092.19
545.83	42340.29
546.00	42543.92
546.16	42307.52
546.33	42443.27
546.50	42155.39
546.67	42190.50
546.83	42000.91
547.00	42279.44
547.17	42370.72
547.34	42487.74
547.50	42674.99
547.67	42948.83
547.84	42866.91
548.00	42834.14
548.17	43236.72
548.34	42614.13
548.51	43138.41
548.67	42756.91
548.84	42674.99
549.01	42845.85
549.18	42813.08
549.34	42731.16
549.51	43203.95
549.68	43330.34
549.84	42862.23
550.01	43349.06
550.18	42806.06
550.34	43402.89
550.51	43601.84
550.68	43634.61
550.84	43367.79
551.01	43496.52
551.18	43227.35
551.34	43456.73
551.51	43426.30
551.68	43161.82
551.84	43665.03
552.01	43257.78
552.18	43461.41
552.34	43388.85
552.51	43758.66
552.68	43330.34
552.84	43828.87
553.01	43414.60
553.18	43323.32
553.34	43873.34
553.51	43526.94
553.67	43873.34
553.84	44020.80
554.01	44584.86
554.17	44341.45
554.34	44484.22
554.51	43976.33
554.67	44453.79
554.84	44308.68
555.00	44374.22
555.17	44158.89
555.33	44416.35
555.50	44505.29
555.67	44435.07
555.83	44657.42
556.00	44346.13
556.16	45113.83
556.33	44652.74
556.50	44444.43
556.66	44299.32
556.83	44051.22
556.99	44737.00
557.16	44772.11
557.32	44521.67
557.49	44655.08
557.65	44140.16
557.82	44903.18
557.98	44837.64
558.15	45282.34
558.32	44474.86
558.48	44818.92
558.65	44886.79
558.81	45003.82
558.98	44720.62
559.14	44734.66
559.31	44605.93
559.47	45048.29
559.64	44945.31
559.80	44926.58
559.97	45359.58
560.13	45104.46
560.30	45254.26
560.46	45411.07
560.63	45666.19
560.79	45476.61
560.96	45390.01
561.12	45099.78
561.29	45275.32
561.45	45633.42
561.61	45181.70
561.78	45521.08
561.94	45102.12
562.11	45354.90
562.27	44753.38
562.44	45453.20
562.60	45933.01
562.77	45624.06
562.93	45394.69
563.10	45787.90
563.26	45485.97
563.42	45607.68
563.59	45808.96
563.75	45368.94
563.92	45570.23
564.08	45605.34
564.24	45476.61
564.41	45827.69
564.57	46050.04
564.74	45617.04
564.90	45808.96
565.07	45481.29
565.23	45563.21
565.39	45813.65
565.56	46010.25
565.72	45668.53
565.88	45832.37
566.05	45670.87
566.21	45869.82
566.38	45780.88
566.54	46087.49
566.70	45904.93
566.87	46124.94
567.03	45808.96
567.19	45888.54
567.36	45464.91
567.52	46204.52
567.68	46162.39
567.85	45972.80
568.01	46171.75
568.17	46117.92
568.34	46354.31
568.50	46382.40
568.66	45874.50
568.83	46263.03
568.99	46185.79
569.15	45893.22
569.32	46202.18
569.48	45986.85
569.64	46763.90
569.81	46403.46
569.97	45958.76
570.13	46593.04
570.30	46483.04
570.46	46469.00
570.62	46038.34
570.78	46286.43
570.95	46028.98
571.11	46902.00
571.27	46300.48
571.43	46361.33
571.60	46368.35
571.76	46028.98
571.92	46349.63
572.09	46134.30
572.25	46415.16
572.41	46527.51
572.57	46195.15
572.74	46958.17
572.90	46515.81
573.06	46726.46
573.22	46937.10
573.38	46342.61
573.55	46749.86
573.71	46497.08
573.87	46630.49
574.03	46394.10
574.20	46873.91
574.36	46164.73
574.52	47037.75
574.68	46707.73
574.84	46995.62
575.01	46499.42
575.17	47075.19
575.33	46480.70
575.49	46866.89
575.65	46590.70
575.82	46733.48
575.98	46410.48
576.14	46557.94
576.30	46541.55
576.46	46911.36
576.62	46321.54
576.79	46747.52
576.95	46314.52
577.11	46471.34
577.27	46424.53
577.43	46745.18
577.59	46747.52
577.75	46438.57
577.92	46293.46
578.08	47075.19
578.24	46335.59
578.40	46658.58
578.56	46955.83
578.72	46588.36
578.88	46913.70
579.04	46899.65
579.21	46646.88
579.37	47260.10
579.53	46902.00
579.69	46717.09
579.85	46579.00
580.01	46672.62
580.17	46581.34
580.33	47208.61
580.49	46717.09
580.65	47129.03
580.82	46380.06
580.98	46841.14
581.14	46595.38
581.30	46691.35
581.46	46693.69
581.62	46674.96
581.78	46536.87
581.94	47114.98
582.10	47178.18
582.26	47037.75
582.42	46855.18
582.58	46806.03
582.74	46747.52
582.90	46850.50
583.06	46862.21
583.22	46855.18
583.38	46567.30
583.54	46658.58
583.70	46791.99
583.86	47360.74
584.02	46836.46
584.18	47482.45
584.34	47049.45
584.50	47250.74
584.66	47405.21
584.82	46967.53
584.98	47227.33
585.14	47213.29
585.30	46527.51
585.46	46953.49
585.62	46799.01
585.78	47056.47
585.94	46827.10
586.10	47203.92
586.26	46782.63
586.42	46923.06
586.58	47147.75
586.74	46681.98
586.90	46789.65
587.06	47365.42
587.22	47201.58
587.38	46705.39
587.54	47199.24
587.70	47210.95
587.86	47459.04
588.02	47091.58
588.18	46754.54
588.34	46862.21
588.49	47526.92
588.65	47138.39
588.81	46555.60
588.97	47189.88
589.13	46880.93
589.29	47587.77
589.45	47578.41
589.61	47281.16
589.77	47365.42
589.93	47234.35
590.08	47753.95
590.24	47585.43
590.40	47744.59
590.56	47564.37
590.72	47498.83
590.88	47145.41
591.04	47063.49
591.20	47491.81
591.35	47672.03
591.51	47618.20
591.67	47821.83
591.83	47374.78
591.99	47540.96
592.15	47395.85
592.31	47203.92
592.46	47171.16
592.62	47278.82
592.78	47604.16
592.94	47590.11
593.10	48016.09
593.26	48332.06
593.41	47763.31
593.57	47845.23
593.73	47325.63
593.89	48030.13
594.05	48069.92
594.20	48112.05
594.36	48058.22
594.52	47688.42
594.68	47782.04
594.84	47728.20
594.99	47868.64
595.15	48013.75
595.31	47751.61
595.47	47447.34
595.62	47634.58
595.78	47552.66
595.94	47746.93
596.10	47714.16
596.25	47695.44
596.41	47931.83
596.57	47445.00
596.73	48041.84
596.88	47519.90
597.04	47936.51
597.20	47730.54
597.36	48168.22
597.51	47955.24
597.67	47512.88
597.83	47927.15
597.99	47753.95
598.14	47641.60
598.30	47941.19
598.46	47669.69
598.61	47922.47
598.77	47393.51
598.93	47863.96
599.09	48177.59
599.24	48116.73
599.40	48128.44
599.56	48219.72
599.71	47913.11
599.87	48413.98
600.03	48399.94
600.18	47711.82
600.34	48004.39
600.50	47969.28
600.65	47702.46
600.81	48048.86
600.97	48282.91
601.12	47929.49
601.28	47971.62
601.44	47810.12
601.59	48252.48
601.75	48037.16
601.91	47952.90
602.06	48060.56
602.22	47995.03
602.37	48065.24
602.53	47704.80
602.69	48254.82
602.84	48006.73
603.00	48102.69
603.16	47831.19
603.31	47969.28
603.47	48247.80
603.62	47936.51
603.78	48294.61
603.94	48119.07
604.09	47887.36
604.25	47714.16
604.40	47959.92
604.56	48144.82
604.71	48168.22
604.87	47695.44
605.03	47627.56
605.18	48170.57
605.34	47723.52
605.49	47819.49
605.65	47952.90
605.80	47917.79
605.96	47667.35
606.12	47894.38
606.27	47803.10
606.43	47622.88
606.58	48079.28
606.74	48037.16
606.89	47566.71
607.05	48360.15
607.20	48074.60
607.36	47894.38
607.51	47660.33
607.67	47791.40
607.82	47955.24
607.98	47571.39
608.13	47782.04
608.29	47222.65
608.44	48170.57
608.60	47611.18
608.75	47875.66
608.91	47936.51
609.06	47494.15
609.22	47800.76
609.37	47475.43
609.53	47428.62
609.68	48158.86
609.84	47545.64
609.99	47777.36
610.15	47821.83
610.30	47650.97
610.46	47297.55
610.61	47496.49
610.76	47894.38
610.92	47704.80
611.07	47470.75
611.23	47201.58
611.38	47693.10
611.54	47590.11
611.69	47819.49
611.84	47569.05
612.00	47388.83
612.15	47681.39
612.31	47679.05
612.46	47063.49
612.62	47416.91
612.77	47388.83
612.92	47622.88
613.08	47129.03
613.23	47395.85
613.39	47203.92
613.54	46934.76
613.69	47501.17
613.85	47374.78
614.00	47002.64
614.15	47330.31
614.31	47129.03
614.46	46925.40
614.62	46934.76
614.77	46941.78
614.92	47049.45
615.08	47262.44
615.23	47157.11
615.38	47257.76
615.54	47199.24
615.69	46850.50
615.84	47166.48
616.00	47379.46
616.15	46962.85
616.30	47391.17
616.46	47002.64
616.61	47316.27
616.76	47004.98
616.92	46789.65
617.07	47320.95
617.22	47154.77
617.37	46932.42
617.53	46738.16
617.68	46885.61
617.83	46965.19
617.99	47437.98
618.14	47325.63
618.29	46747.52
618.45	46726.46
618.60	47117.32
618.75	46611.77
618.90	46609.43
619.06	46618.79
619.21	46808.37
619.36	46838.80
619.51	46387.08
619.67	46644.54
619.82	46841.14
619.97	46892.63
620.12	46770.93
620.28	46490.06
620.43	46646.88
620.58	46855.18
620.73	46581.34
620.89	47241.37
621.04	46553.26
621.19	46768.58
621.34	46438.57
621.49	46157.70
621.65	46419.84
621.80	46735.82
621.95	46518.15
622.10	46649.22
622.25	46529.85
622.41	46354.31
622.56	46373.03
622.71	46780.29
622.86	46363.67
623.01	46419.84
623.16	46279.41
623.32	46115.58
623.47	46068.76
623.62	45893.22
623.77	46197.49
623.92	46005.57
624.07	46096.85
624.23	46377.72
624.38	46115.58
624.53	45918.97
624.68	45808.96
624.83	45998.55
624.98	46146.00
625.13	45570.23
625.29	45539.80
625.44	45799.60
625.59	45925.99
625.74	46007.91
625.89	45261.28
626.04	45705.98
626.19	45642.79
626.34	45610.02
626.49	45153.62
626.65	45230.85
626.80	45804.28
626.95	45436.82
627.10	44973.39
627.25	45469.59
627.40	45684.92
627.55	45455.54
627.70	45603.00
627.85	45879.18
628.00	45794.92
628.15	45411.07
628.30	45097.44
628.45	44851.69
628.60	44809.56
628.76	45233.19
628.91	45287.03
629.06	44875.09
629.21	45127.87
629.36	45212.13
629.51	45059.99
629.66	45301.07
629.81	44818.92
629.96	44720.62
630.11	44765.09
630.26	44816.58
630.41	45113.83
630.56	45095.10
630.71	45071.70
630.86	45120.85
631.01	45041.27
631.16	44830.62
631.31	44680.83
631.46	45081.06
631.61	45287.03
631.76	44999.14
631.91	45219.15
632.06	45371.28
632.21	44577.84
632.36	45118.51
632.51	44474.86
632.66	45006.16
632.81	44769.77
632.96	45092.76
633.10	44449.11
633.25	44362.51
633.40	44608.27
633.55	44870.41
633.70	44989.78
633.85	44287.62
634.00	44449.11
634.15	43821.85
634.30	44793.17
634.45	44423.37
634.60	44318.04
634.75	44603.59
634.90	44308.68
635.05	44425.71
635.19	44168.25
635.34	44275.91
635.49	44112.08
635.64	44306.34
635.79	44622.31
635.94	44449.11
636.09	44179.95
636.24	44144.84
636.39	44414.01
636.53	44395.28
636.68	43796.10
636.83	43936.54
636.98	43763.34
637.13	43728.23
637.28	43662.69
637.43	43969.30
637.57	43810.15
637.72	43452.05
637.87	43798.44
638.02	43971.64
638.17	43997.39
638.32	43805.47
638.46	43533.96
638.61	42981.60
638.76	43501.20
638.91	43730.57
639.06	43517.58
639.20	42993.30
639.35	43732.91
639.50	43044.79
639.65	43412.26
639.80	43650.99
639.94	43751.63
640.09	43480.13
640.24	43524.60
640.39	43585.46
640.54	43328.00
640.68	43430.98
640.83	43349.06
640.98	43182.88
641.13	42937.13
641.27	44147.18
641.42	43442.68
641.57	43573.75
641.72	43023.73
641.86	42899.68
642.01	43213.31
642.16	42981.60
642.31	42876.27
642.45	43021.39
642.60	42747.54
642.75	42962.87
642.90	43143.09
643.04	43236.72
643.19	42899.68
643.34	42775.63
643.48	42593.07
643.63	43007.34
643.78	42520.51
643.93	43402.89
644.07	43122.03
644.22	42803.72
644.37	42866.91
644.51	42604.77
644.66	42667.97
644.81	42525.19
644.95	42649.24
645.10	42789.67
645.25	42272.42
645.39	42258.37
645.54	42492.43
645.69	42183.48
645.83	41813.67
645.98	42412.85
646.13	42469.02
646.27	42232.63
646.42	42178.79
646.57	42075.81
646.71	42391.78
646.86	42267.73
647.00	42160.07
647.15	42272.42
647.30	42141.35
647.44	42646.90
647.59	41846.44
647.74	42478.38
647.88	42204.54
648.03	42920.74
648.17	42410.51
648.32	42272.42
648.47	42302.84
648.61	41902.61
648.76	42185.82
648.90	41797.29
649.05	42047.72
649.20	41949.42
649.34	41722.39
649.49	42127.30
649.63	42234.97
649.78	41961.12
649.92	42232.63
650.07	42223.26
650.21	41759.84
650.36	42492.43
650.51	41858.14
650.65	41750.48
650.80	41949.42
650.94	41991.55
651.09	41900.27
651.23	41406.42
651.38	41413.44
651.52	41474.29
651.67	41570.25
651.81	41607.70
651.96	41455.57
652.10	41371.31
652.25	40975.76
652.39	41490.68
652.54	41574.94
652.68	40952.35
652.83	41251.94
652.97	41631.11
653.12	41474.29
653.26	41036.61
653.41	41242.58
653.55	40947.67
653.70	41773.88
653.84	41198.11
653.99	41816.01
654.13	41439.18
654.27	41031.93
654.42	41422.80
654.56	41069.38
654.71	41275.35
654.85	41404.08
655.00	40959.38
655.14	40779.15
655.29	41546.85
655.43	41174.70
655.57	40823.62
655.72	40692.55
655.86	41317.48
656.01	41015.55
656.15	40870.43
656.30	40720.64
656.44	40875.12
656.58	40535.74
656.73	40264.24
656.87	40563.82
657.01	40261.90
657.16	40863.41
657.30	40360.20
657.45	40816.60
657.59	40210.40
657.73	40285.30
657.88	40615.32
658.02	40781.49
658.16	40545.10
658.31	40610.64
658.45	40765.11
658.60	39861.66
658.74	40367.22
658.88	40500.63
659.03	40163.59
659.17	40018.48
659.31	39861.66
659.46	39674.42
659.60	40531.06
659.74	40219.77
659.89	39941.24
660.03	39498.88
660.17	39807.83
660.32	39550.37
660.46	39524.63
660.60	39288.23
660.74	39683.78
660.89	39557.39
661.03	39248.44
661.17	39040.14
661.32	39028.43
661.46	39454.41
661.60	39093.97
661.74	39454.41
661.89	39178.23
662.03	39388.88
662.17	39316.32
662.31	39037.80
662.46	39297.59
662.60	39070.56
662.74	38677.35
662.88	38497.13
663.03	38742.89
663.17	38572.03
663.31	38548.62
663.45	38632.88
663.60	39339.72
663.74	38749.91
663.88	38541.60
664.02	38431.60
664.17	38307.55
664.31	38401.17
664.45	38061.79
664.59	38438.62
664.73	38108.60
664.88	38288.82
665.02	37865.19
665.16	37970.51
665.30	38185.84
665.44	38061.79
665.59	37848.80
665.73	37294.10
665.87	37429.85
666.01	38017.32
666.15	37801.99
666.29	37806.67
666.44	37827.74
666.58	37244.94
666.72	36989.83
666.86	37476.66
667.00	37263.67
667.14	37191.11
667.28	37289.42
667.43	37682.62
667.57	37233.24
667.71	37368.99
667.85	37385.38
667.99	37085.79
668.13	37172.39
668.27	36212.77
668.41	36751.09
668.56	36687.90
668.70	36467.89
668.84	36601.30
668.98	36535.76
669.12	36388.31
669.26	36561.51
669.40	36336.82
669.54	36510.02
669.68	36268.94
669.82	36278.30
669.96	36318.09
670.10	35620.61
670.25	35775.09
670.39	35978.72
670.53	36060.63
670.67	36067.66
670.81	35983.40
670.95	35662.74
671.09	35899.14
671.23	35218.04
671.37	35512.95
671.51	35676.79
671.65	35093.99
671.79	35264.85
671.93	35491.88
672.07	35431.03
672.21	35173.57
672.35	34871.64
672.49	34691.42
672.63	35164.21
672.77	34728.87
672.91	34955.90
673.05	34628.23
673.19	34597.80
673.33	34497.16
673.47	34047.77
673.61	34361.40
673.75	34256.08
673.89	34286.51
674.03	33984.58
674.17	33436.89
674.31	33766.91
674.45	33965.85
674.59	33848.83
674.73	33879.25
674.87	33366.68
675.01	33219.22
675.15	33233.27
675.29	33345.61
675.43	33324.55
675.56	33134.96
675.70	33095.18
675.84	32870.48
675.98	32222.16
676.12	33053.05
676.26	33294.12
676.40	32926.66
676.54	32486.64
676.68	32215.13
676.82	32119.17
676.96	32327.48
677.10	32390.67
677.23	32404.72
677.37	32055.98
677.51	32247.90
677.65	31824.26
677.79	31812.56
677.93	31789.16
678.07	31508.29
678.21	31510.63
678.34	31159.55
678.48	31222.75
678.62	30972.31
678.76	30937.20
678.90	31072.95
679.04	30700.81
679.18	31267.22
679.31	30445.69
679.45	30522.93
679.59	30410.58
679.73	30654.00
679.87	30204.61
680.00	29991.62
680.14	30246.74
680.28	30103.97
680.42	29965.88
680.56	29696.72
680.70	29930.77
680.83	29408.83
680.97	29570.33
681.11	29516.50
681.25	29575.01
681.39	29401.81
681.52	29177.12
681.66	28896.25
681.80	28486.66
681.94	28570.92
682.07	28664.54
682.21	28751.14
682.35	28601.35
682.49	28807.31
682.62	28664.54
682.76	28718.37
682.90	28458.57
683.04	28343.89
683.17	28224.52
683.31	27686.20
683.45	27941.32
683.59	27302.35
683.72	27428.74
683.86	27754.07
684.00	27274.26
684.13	27335.12
684.27	27227.45
684.41	27094.04
684.55	26845.94
684.68	27054.25
684.82	26532.31
684.96	26719.56
685.09	26836.58
685.23	26705.51
685.37	26944.25
685.50	27180.64
685.64	26609.55
685.78	26401.24
685.91	26319.32
686.05	25902.71
686.19	25649.93
686.32	25865.26
686.46	25387.79
686.60	25528.22
686.73	25259.06
686.87	25226.29
687.01	25411.20
687.14	25673.34
687.28	25315.23
687.42	25216.93
687.55	24863.51
687.69	24870.53
687.82	24304.12
687.96	25010.96
688.10	24891.60
688.23	24599.03
688.37	24697.33
688.50	25055.43
688.64	24465.62
688.78	24119.22
688.91	24032.62
689.05	23971.77
689.18	23868.78
689.32	23330.46
689.46	23634.73
689.59	23571.54
689.73	23686.22
689.86	23821.97
690.00	23608.98
690.13	23473.23
690.27	23051.94
690.41	23412.38
690.54	22857.67
690.68	22822.56
690.81	22792.14
690.95	22815.54
691.08	22600.21
691.22	22480.85
691.35	22644.68
691.49	22686.81
691.62	22199.98
691.76	22026.78
691.89	21799.75
692.03	21649.96
692.16	21722.51
692.30	21876.99
692.43	21926.14
692.57	21612.51
692.70	21769.32
692.84	21390.16
692.97	21439.31
693.11	21312.92
693.24	20685.65
693.38	20718.42
693.51	20905.66
693.65	20842.47
693.78	20428.20
693.92	20442.24
694.05	20575.65
694.19	20510.11
694.32	20444.58
694.45	20559.27
694.59	20325.21
694.72	20372.02
694.86	20292.44
694.99	19662.84
695.13	19723.69
695.26	19679.22
695.39	19728.38
695.53	19623.05
695.66	19569.22
695.80	19414.74
695.93	19309.42
696.07	19077.71
696.20	19033.24
696.33	18679.82
696.47	18572.15
696.60	18899.83
696.73	18853.02
696.87	18707.90
697.00	18796.84
697.14	18607.26
697.27	18394.27
697.40	18387.25
697.54	18445.76
697.67	18214.05
697.80	18108.72
697.94	17884.03
698.07	17980.00
698.21	17848.93
698.34	17989.36
698.47	17745.94
698.61	17380.82
698.74	17408.90
698.87	17376.14
699.01	17378.48
699.14	17282.52
699.27	17488.48
699.40	17556.36
699.54	16987.61
699.67	16966.54
699.80	16924.41
699.94	16720.79
700.07	16917.39
700.20	16847.18
700.34	16599.08
700.47	16716.11
700.60	16758.24
700.73	16350.98
700.87	16243.32
701.00	16119.27
701.13	16159.06
701.26	16119.27
701.40	15950.75
701.53	15803.30
701.66	15887.56
701.79	16002.24
701.93	15740.10
702.06	15477.96
702.19	15351.57
702.32	15391.36
702.46	15461.58
702.59	15321.15
702.72	15286.04
702.85	15482.64
702.99	15166.67
703.12	15140.93
703.25	15005.17
703.38	14878.79
703.51	14640.05
703.65	14361.53
703.78	14658.78
703.91	14417.70
704.04	14342.80
704.17	14235.14
704.31	14464.51
704.44	14211.73
704.57	14211.73
704.70	14293.65
704.83	13870.01
704.96	13769.37
705.10	13804.48
705.23	13909.80
>>>>>End Processed Spectral Data<<<<<
