SpectraSuite Data File
++++++++++++++++++++++++++++++++++++
Date: Fri Oct 25 10:44:00 EDT 2013
User: price-jones
Dark Spectrum Present: No
Reference Spectrum Present: No
Number of Sampled Component Spectra: 1
Spectrometers: USB2+H05261
Integration Time (usec): 100000 (USB2+H05261)
Spectra Averaged: 1 (USB2+H05261)
Boxcar Smoothing: 0 (USB2+H05261)
Correct for Electrical Dark: No (USB2+H05261)
Strobe/Lamp Enabled: No (USB2+H05261)
Correct for Detector Non-linearity: No (USB2+H05261)
Correct for Stray Light: No (USB2+H05261)
Number of Pixels in Processed Spectrum: 2048
>>>>>Begin Processed Spectral Data<<<<<
365.73	110.01
365.92	110.01
366.12	110.01
366.32	0.00
366.52	18.72
366.72	21.06
366.91	14.04
367.11	0.00
367.31	18.72
367.51	16.38
367.70	98.30
367.90	72.56
368.10	16.38
368.30	0.00
368.49	0.00
368.69	131.07
368.89	0.00
369.09	0.00
369.28	25.75
369.48	18.72
369.68	60.85
369.87	119.37
370.07	70.22
370.27	79.58
370.47	149.79
370.66	365.12
370.86	423.64
371.06	409.59
371.25	514.92
371.45	458.74
371.65	447.04
371.84	454.06
372.04	390.87
372.24	510.24
372.44	458.74
372.63	550.03
372.83	456.40
373.03	552.37
373.22	550.03
373.42	559.39
373.62	543.00
373.81	582.79
374.01	645.99
374.21	561.73
374.40	500.87
374.60	636.63
374.79	540.66
374.99	528.96
375.19	533.64
375.38	585.13
375.58	578.11
375.78	645.99
375.97	585.13
376.17	568.75
376.37	641.31
376.56	554.71
376.76	592.16
376.95	617.90
377.15	711.52
377.35	737.27
377.54	634.29
377.74	695.14
377.93	601.52
378.13	615.56
378.33	641.31
378.52	690.46
378.72	674.07
378.91	657.69
379.11	643.65
379.31	695.14
379.50	685.78
379.70	713.86
379.89	699.82
380.09	690.46
380.28	730.25
380.48	760.67
380.68	713.86
380.87	784.08
381.07	711.52
381.26	781.74
381.46	734.93
381.65	723.23
381.85	741.95
382.04	716.20
382.24	828.55
382.43	704.50
382.63	697.48
382.83	723.23
383.02	748.97
383.22	650.67
383.41	709.18
383.61	711.52
383.80	798.12
384.00	758.33
384.19	800.46
384.39	758.33
384.58	800.46
384.78	816.85
384.97	746.63
385.17	812.17
385.36	793.44
385.56	781.74
385.75	887.06
385.95	898.77
386.14	812.17
386.34	889.40
386.53	877.70
386.72	809.83
386.92	936.21
387.11	805.14
387.31	971.32
387.50	880.04
387.70	833.23
387.89	830.89
388.09	915.15
388.28	889.40
388.48	940.90
388.67	929.19
388.86	896.43
389.06	973.66
389.25	980.68
389.45	957.28
389.64	1067.28
389.84	1020.47
390.03	976.00
390.22	1032.18
390.42	1006.43
390.61	1006.43
390.81	997.07
391.00	1100.05
391.19	1107.07
391.39	1067.28
391.58	1083.67
391.78	1039.20
391.97	1086.01
392.16	1039.20
392.36	1036.86
392.55	1062.60
392.75	992.39
392.94	1100.05
393.13	1032.18
393.33	994.73
393.52	1029.84
393.71	1074.31
393.91	1142.18
394.10	1114.10
394.29	1156.22
394.49	1210.06
394.68	1273.25
394.88	1144.52
395.07	1284.95
395.26	1203.04
395.46	1224.10
395.65	1256.87
395.84	1217.08
396.04	1301.34
396.23	1287.29
396.42	1284.95
396.62	1231.12
396.81	1174.95
397.00	1231.12
397.19	1299.00
397.39	1352.83
397.58	1420.71
397.77	1409.00
397.97	1437.09
398.16	1418.36
398.35	1514.33
398.55	1427.73
398.74	1561.14
398.93	1551.78
399.12	1406.66
399.32	1519.01
399.51	1626.67
399.70	1664.12
399.90	1607.95
400.09	1509.65
400.28	1633.69
400.47	1598.59
400.67	1666.46
400.86	1621.99
401.05	1650.08
401.24	1827.96
401.44	1764.76
401.63	1802.21
401.82	1661.78
402.01	1717.95
402.21	1834.98
402.40	1813.92
402.59	1764.76
402.78	1720.29
402.97	1818.60
403.17	1891.15
403.36	1788.17
403.55	1886.47
403.74	1860.73
403.93	1860.73
404.13	1891.15
404.32	1837.32
404.51	1923.92
404.70	1987.11
404.89	1944.99
405.09	2003.50
405.28	2120.53
405.47	2050.31
405.66	2045.63
405.85	1973.07
406.05	1963.71
406.24	2078.40
406.43	2066.69
406.62	2186.06
406.81	2256.28
407.00	2076.06
407.20	2059.67
407.39	2054.99
407.58	2167.34
407.77	2232.87
407.96	2324.15
408.15	2270.32
408.34	2230.53
408.54	2298.41
408.73	2385.01
408.92	2300.75
409.11	2286.70
409.30	2298.41
409.49	2359.26
409.68	2284.36
409.87	2420.11
410.07	2366.28
410.26	2363.94
410.45	2539.48
410.64	2616.72
410.83	2569.91
411.02	2450.54
411.21	2614.38
411.40	2642.46
411.59	2682.25
411.78	2616.72
411.98	2656.51
412.17	2588.63
412.36	2663.53
412.55	2782.90
412.74	2839.07
412.93	2785.24
413.12	2778.22
413.31	2895.24
413.50	2867.16
413.69	2883.54
413.88	2935.03
414.07	3035.67
414.26	2890.56
414.45	2979.50
414.64	3030.99
414.83	3141.00
415.02	3021.63
415.22	3246.32
415.41	3269.73
415.60	3176.11
415.79	3206.53
415.98	3286.11
416.17	3269.73
416.36	3356.33
416.55	3236.96
416.74	3346.97
416.93	3213.56
417.12	3290.79
417.31	3400.80
417.50	3574.00
417.69	3538.89
417.88	3445.27
418.07	3538.89
418.26	3531.87
418.45	3545.91
418.64	3623.15
418.83	3662.94
419.02	3487.40
419.21	3681.66
419.39	3826.78
419.58	3592.72
419.77	3581.02
419.96	3669.96
420.15	3871.25
420.34	3962.53
420.53	3768.26
420.72	3829.12
420.91	3840.82
421.10	3896.99
421.29	3929.76
421.48	3915.72
421.67	3964.87
421.86	3824.44
422.05	3894.65
422.24	3850.18
422.43	3850.18
422.61	3833.80
422.80	3861.88
422.99	3999.98
423.18	3983.59
423.37	3913.38
423.56	3955.51
423.75	4014.02
423.94	3885.29
424.13	3810.39
424.32	3623.15
424.50	3915.72
424.69	4030.40
424.88	4072.53
425.07	4072.53
425.26	3920.40
425.45	3960.19
425.64	4112.32
425.83	3889.97
426.01	4140.41
426.20	4135.73
426.39	3960.19
426.58	4004.66
426.77	4067.85
426.96	4100.62
427.15	4002.32
427.33	4161.47
427.52	4042.11
427.71	4299.56
427.90	4208.28
428.09	4325.31
428.28	4114.66
428.46	4301.90
428.65	4140.41
428.84	4353.40
429.03	4287.86
429.22	4091.26
429.40	4156.79
429.59	4194.24
429.78	3995.29
429.97	4079.55
430.16	4058.49
430.34	4140.41
430.53	4374.46
430.72	4142.75
430.91	4353.40
431.10	4489.15
431.28	4643.62
431.47	4603.83
431.66	4674.05
431.85	4557.02
432.03	4557.02
432.22	4671.71
432.41	4760.65
432.60	4784.06
432.79	4823.84
432.97	4819.16
433.16	4819.16
433.35	4777.03
433.54	4835.55
433.72	4805.12
433.91	4664.69
434.10	4844.91
434.28	4758.31
434.47	4812.14
434.66	4802.78
434.85	4994.70
435.03	4961.94
435.22	5093.01
435.41	5298.97
435.59	5174.92
435.78	5200.67
435.97	5177.26
436.16	5116.41
436.34	5221.74
436.53	5193.65
436.72	5387.91
436.90	5315.36
437.09	5118.75
437.28	5165.56
437.46	5207.69
437.65	5303.65
437.84	5401.96
438.02	5160.88
438.21	5380.89
438.40	5100.03
438.58	5434.72
438.77	5490.90
438.96	5579.84
439.14	5617.29
439.33	5748.36
439.52	5708.57
439.70	5760.06
439.89	5930.92
440.08	5844.32
440.26	5764.74
440.45	5813.89
440.63	5921.56
440.82	6143.91
441.01	5987.09
441.19	6134.54
441.38	5998.79
441.57	6370.94
441.75	6296.04
441.94	6445.84
442.12	6417.75
442.31	6534.78
442.50	6504.35
442.68	6256.25
442.87	6375.62
443.05	6459.88
443.24	6551.16
443.43	6443.49
443.61	6548.82
443.80	6752.45
443.98	6633.08
444.17	6352.21
444.35	6707.98
444.54	6771.17
444.73	6590.95
444.91	6590.95
445.10	6502.01
445.28	6600.31
445.47	6558.18
445.65	6576.91
445.84	6558.18
446.02	6715.00
446.21	6759.47
446.39	6483.28
446.58	6644.78
446.77	6665.85
446.95	6672.87
447.14	6700.95
447.32	6897.56
447.51	6785.21
447.69	6909.26
447.88	6773.51
448.06	6820.32
448.25	6885.86
448.43	6843.73
448.62	6806.28
448.80	6780.53
448.99	6825.00
449.17	6878.83
449.36	6864.79
449.54	7066.08
449.73	7351.62
449.91	7119.91
450.10	7372.69
450.28	7204.17
450.46	7468.65
450.65	7290.77
450.83	7173.74
451.02	7232.26
451.20	7419.50
451.39	7372.69
451.57	7480.35
451.76	7293.11
451.94	7353.96
452.13	7382.05
452.31	7328.22
452.49	7220.55
452.68	7276.73
452.86	7485.03
453.05	7492.05
453.23	7527.16
453.42	7424.18
453.60	7627.81
453.78	7754.19
453.97	7522.48
454.15	7564.61
454.34	7510.78
454.52	7639.51
454.70	7606.74
454.89	7599.72
455.07	7705.04
455.26	7868.88
455.44	7857.18
455.62	7763.56
455.81	7906.33
455.99	7864.20
456.17	8021.02
456.36	7878.24
456.54	7941.44
456.73	8147.40
456.91	8222.30
457.09	8222.30
457.28	8348.69
457.46	8105.28
457.64	8290.18
457.83	8224.64
458.01	7953.14
458.19	8266.77
458.38	8315.92
458.56	8332.31
458.74	8369.76
458.93	8386.14
459.11	8374.44
459.29	8411.89
459.48	8430.61
459.66	8472.74
459.84	8507.85
460.03	8681.05
460.21	8416.57
460.39	8730.20
460.57	8793.39
460.76	8737.22
460.94	8884.67
461.12	8732.54
461.31	8765.31
461.49	8685.73
461.67	8678.71
461.85	8840.20
462.04	8788.71
462.22	8966.59
462.40	8980.64
462.59	9137.45
462.77	9067.24
462.95	9015.74
463.13	9128.09
463.32	9057.87
463.50	9046.17
463.68	9303.63
463.86	9217.03
464.05	8992.34
464.23	9085.96
464.41	9277.88
464.59	9046.17
464.78	9537.68
464.96	9270.86
465.14	9207.67
465.32	9296.61
465.50	9355.12
465.69	9582.15
465.87	9373.85
466.05	9430.02
466.23	9387.89
466.41	9514.28
466.60	9600.88
466.78	9460.45
466.96	9362.14
467.14	9359.80
467.32	9631.30
467.51	9582.15
467.69	9224.05
467.87	9729.61
468.05	9750.67
468.23	9600.88
468.41	9643.01
468.60	9668.75
468.78	9832.59
468.96	9781.10
469.14	9778.76
469.32	9823.23
469.50	9579.81
469.69	9935.57
469.87	9844.29
470.05	9944.94
470.23	9987.07
470.41	9839.61
470.59	10029.20
470.77	10050.26
470.95	10214.10
471.14	10328.78
471.32	10328.78
471.50	10408.36
471.68	10399.00
471.86	10438.79
472.04	10590.92
472.22	10764.12
472.40	10501.98
472.58	10555.82
472.77	10539.43
472.95	10656.46
473.13	11002.86
473.31	10637.73
473.49	10822.64
473.67	10817.96
473.85	10719.65
474.03	11087.12
474.21	11075.42
474.39	10972.43
474.57	11328.19
474.75	11204.14
474.93	11494.37
475.12	11358.62
475.30	11527.14
475.48	11421.81
475.66	11529.48
475.84	11466.28
476.02	11534.16
476.20	11733.11
476.38	11700.34
476.56	12016.31
476.74	12114.61
476.92	12149.72
477.10	12135.68
477.28	12262.07
477.46	12358.03
477.64	12318.24
477.82	12641.23
478.00	12564.00
478.18	12528.89
478.36	12681.02
478.54	12877.63
478.72	13064.87
478.90	13092.96
479.08	13032.10
479.26	13371.48
479.44	13504.89
479.62	13373.82
479.80	13422.97
479.98	13521.27
480.16	14125.13
480.34	13806.82
480.52	13973.00
480.70	13970.66
480.88	13797.46
481.06	14003.43
481.24	14164.92
481.41	14429.40
481.59	14745.38
481.77	14787.50
481.95	14743.03
482.13	14675.16
482.31	15042.62
482.49	15260.29
482.67	15220.50
482.85	15351.57
483.03	15398.38
483.21	15484.98
483.39	15824.36
483.57	15550.52
483.74	15686.27
483.92	16051.39
484.10	15770.53
484.28	16011.60
484.46	16521.84
484.64	16683.34
484.82	16383.75
485.00	16645.89
485.18	16580.36
485.35	16659.93
485.53	16603.76
485.71	16383.75
485.89	16521.84
486.07	16570.99
486.25	17018.04
486.43	16856.54
486.61	17235.70
486.78	17640.62
486.96	17706.15
487.14	17783.39
487.32	17792.75
487.50	18576.83
487.68	18483.21
487.85	18560.45
488.03	18497.25
488.21	18780.46
488.39	19044.94
488.57	18806.20
488.75	19297.72
488.92	19679.22
489.10	19625.39
489.28	19571.56
489.46	20116.90
489.64	20049.03
489.81	20706.72
489.99	20613.10
490.17	20493.73
490.35	20709.06
490.53	20470.33
490.70	20812.04
490.88	20938.43
491.06	21018.01
491.24	20933.75
491.41	20765.23
491.59	21254.40
491.77	21088.23
491.95	21656.98
492.13	21469.73
492.30	21851.24
492.48	21991.67
492.66	22143.81
492.84	21979.97
493.01	22448.08
493.19	22359.14
493.37	22731.28
493.54	22902.14
493.72	22918.53
493.90	23082.36
494.08	23171.30
494.25	23274.29
494.43	23253.22
494.61	23630.05
494.79	23831.33
494.96	23908.57
495.14	23686.22
495.32	24189.44
495.49	24166.03
495.67	24184.76
495.85	24224.54
496.02	24645.84
496.20	24966.49
496.38	24584.99
496.55	25043.73
496.73	25406.52
496.91	25118.63
497.09	25425.24
497.26	25450.99
497.44	25256.72
497.62	25809.09
497.79	26015.05
497.97	25453.33
498.14	25874.62
498.32	25898.03
498.50	26181.23
498.67	26382.52
498.85	26178.89
499.03	26398.90
499.20	26731.26
499.38	26876.37
499.56	26703.17
499.73	27087.02
499.91	27140.85
500.08	27253.20
500.26	26969.99
500.44	26799.13
500.61	27047.23
500.79	26916.16
500.97	27077.66
501.14	27604.28
501.32	27316.39
501.49	27412.35
501.67	27543.42
501.84	27349.16
502.02	28091.11
502.20	28095.79
502.37	28594.32
502.55	27946.00
502.72	28769.86
502.90	28528.79
503.07	28208.14
503.25	28659.86
503.43	28407.08
503.60	28566.24
503.78	28538.15
503.95	28641.14
504.13	29022.64
504.30	28854.12
504.48	28975.83
504.65	29352.66
504.83	29303.51
505.01	29858.21
505.18	29537.56
505.36	29909.71
505.53	29848.85
505.71	30099.29
505.88	29975.24
506.06	29689.70
506.23	29961.20
506.41	30195.25
506.58	30169.51
506.76	30340.36
506.93	30270.15
507.11	30249.08
507.28	30747.62
507.46	30277.17
507.63	30504.20
507.81	30436.33
507.98	30295.89
508.16	30913.80
508.33	31058.91
508.50	31138.49
508.68	31477.86
508.85	31786.82
509.03	31386.58
509.20	31548.08
509.38	31821.92
509.55	31377.22
509.73	31585.53
509.90	32084.06
510.08	31950.65
510.25	31983.42
510.42	32180.03
510.60	32264.28
510.77	32304.07
510.95	32470.25
511.12	32240.88
511.30	32701.96
511.47	32563.87
511.64	32737.07
511.82	32980.49
511.99	32870.48
512.17	32919.63
512.34	32879.85
512.51	33001.55
512.69	33228.59
512.86	33172.41
513.04	33230.93
513.21	33390.08
513.38	33319.87
513.56	33385.40
513.73	33259.01
513.90	33848.83
514.08	33436.89
514.25	33144.33
514.43	33450.94
514.60	33242.63
514.77	33591.37
514.95	34141.39
515.12	34019.69
515.29	34237.36
515.47	34227.99
515.64	34511.20
515.81	34169.48
515.99	34267.78
516.16	34438.64
516.33	33773.93
516.51	33919.04
516.68	33684.99
516.85	33577.33
517.03	34176.50
517.20	34328.64
517.37	34656.31
517.54	34803.77
517.72	34895.05
517.89	34740.57
518.06	34249.06
518.24	34616.52
518.41	34658.65
518.58	34637.59
518.75	35019.10
518.93	35543.38
519.10	35133.78
519.27	35299.96
519.45	35608.91
519.62	35805.52
519.79	35550.40
519.96	35711.89
520.14	36020.84
520.31	35969.35
520.48	36077.02
520.65	35861.69
520.83	36210.43
521.00	36378.95
521.17	36495.97
521.34	36371.92
521.52	36130.85
521.69	36882.16
521.86	36964.08
522.03	36933.65
522.20	36950.04
522.38	37254.31
522.55	36987.49
522.72	36910.25
522.89	36879.82
523.07	37132.60
523.24	37060.04
523.41	37666.24
523.58	37106.85
523.75	37532.83
523.92	37745.82
524.10	37633.47
524.27	37820.72
524.44	37621.77
524.61	38045.41
524.78	38026.68
524.96	38054.77
525.13	38059.45
525.30	38298.19
525.47	38637.56
525.64	38089.88
525.81	37965.83
525.98	37804.33
526.16	37776.25
526.33	37928.38
526.50	37862.85
526.67	37677.94
526.84	37862.85
527.01	37666.24
527.18	38630.54
527.36	38565.01
527.53	38473.73
527.70	39210.99
527.87	38754.59
528.04	38494.79
528.21	39126.74
528.38	39009.71
528.55	39407.60
528.72	39611.23
528.89	39180.57
529.07	39295.25
529.24	38789.70
529.41	39360.79
529.58	39042.48
529.75	38869.28
529.92	39665.06
530.09	39311.64
530.26	39974.01
530.43	40196.36
530.60	39484.84
530.77	39725.91
530.94	40016.14
531.11	39545.69
531.28	39688.46
531.46	39899.11
531.63	40109.76
531.80	39725.91
531.97	40189.34
532.14	39873.37
532.31	39629.95
532.48	40009.12
532.65	40067.63
532.82	40217.43
532.99	40142.53
533.16	40044.23
533.33	40617.66
533.50	40374.24
533.67	40774.47
533.84	40652.76
534.01	40404.67
534.18	40491.27
534.35	41188.75
534.52	40722.98
534.69	40905.54
534.86	41233.22
535.03	40692.55
535.20	41036.61
535.37	41591.32
535.54	41659.20
535.71	40928.95
535.88	41572.60
536.05	40769.79
536.22	41060.02
536.38	41523.44
536.55	41081.08
536.72	41450.89
536.89	40886.82
537.06	41385.35
537.23	41720.05
537.40	41638.13
537.57	41764.52
537.74	41984.53
537.91	41808.99
538.08	41804.31
538.25	41769.20
538.42	41787.92
538.59	41642.81
538.75	41464.93
538.92	41888.57
539.09	41893.25
539.26	41991.55
539.43	41958.78
539.60	41652.17
539.77	41827.71
539.94	41928.36
540.11	41736.43
540.28	42272.42
540.44	41965.81
540.61	42087.51
540.78	41961.12
540.95	42157.73
541.12	42089.85
541.29	42373.06
541.46	42150.71
541.62	42471.36
541.79	42284.12
541.96	41799.63
542.13	42628.18
542.30	42487.74
542.47	42543.92
542.63	42398.80
542.80	42728.82
542.97	42843.51
543.14	43232.04
543.31	42693.71
543.48	42864.57
543.64	43323.32
543.81	43131.39
543.98	43426.30
544.15	43384.17
544.32	43466.09
544.48	43566.73
544.65	43681.42
544.82	43290.55
544.99	43693.12
545.16	43746.95
545.32	43306.93
545.49	44107.40
545.66	43435.66
545.83	44032.50
546.00	43583.12
546.16	44229.10
546.33	43807.81
546.50	43665.03
546.67	43494.18
546.83	43208.63
547.00	43545.67
547.17	43721.21
547.34	43812.49
547.50	43833.55
547.67	44208.04
547.84	44041.86
548.00	44147.18
548.17	44477.20
548.34	44446.77
548.51	44575.50
548.67	44582.52
548.84	44271.23
549.01	44179.95
549.18	44037.18
549.34	44624.65
549.51	44163.57
549.68	44509.97
549.84	44463.16
550.01	44727.64
550.18	44615.29
550.34	44624.65
550.51	44280.60
550.68	44512.31
550.84	44086.33
551.01	44680.83
551.18	44500.61
551.34	44591.89
551.51	44538.05
551.68	44800.19
551.84	45446.18
552.01	44992.12
552.18	44790.83
552.34	44683.17
552.51	44425.71
552.68	44772.11
552.84	45205.11
553.01	44858.71
553.18	45181.70
553.34	45167.66
553.51	44870.41
553.67	45179.36
553.84	45729.39
554.01	45425.12
554.17	45268.30
554.34	45116.17
554.51	45127.87
554.67	45492.99
554.84	45254.26
555.00	45181.70
555.17	45205.11
555.33	45074.04
555.50	45127.87
555.67	45343.20
555.83	45336.18
556.00	45368.94
556.16	45422.78
556.33	45277.66
556.50	45336.18
556.66	45691.94
556.83	44903.18
556.99	45579.59
557.16	45635.77
557.32	45722.37
557.49	45773.86
557.65	45614.70
557.82	45661.51
557.98	45766.84
558.15	45614.70
558.32	45860.46
558.48	45598.32
558.65	45478.95
558.81	45666.19
558.98	45736.41
559.14	45560.87
559.31	45572.57
559.47	45570.23
559.64	45446.18
559.80	45708.32
559.97	45755.13
560.13	45600.66
560.30	45610.02
560.46	45684.92
560.63	45708.32
560.79	46436.23
560.96	46246.65
561.12	45937.69
561.29	45661.51
561.45	45944.72
561.61	46138.98
561.78	45801.94
561.94	45876.84
562.11	45750.45
562.27	46237.28
562.44	45874.50
562.60	46234.94
562.77	46155.36
562.93	46185.79
563.10	46075.79
563.26	45418.10
563.42	46148.34
563.59	46089.83
563.75	46122.60
563.92	46422.19
564.08	46057.06
564.24	46387.08
564.41	45698.96
564.57	45911.95
564.74	46188.13
564.90	45890.88
565.07	46092.17
565.23	46192.81
565.39	45794.92
565.56	45918.97
565.72	45860.46
565.88	45673.21
566.05	45818.33
566.21	46106.21
566.38	46251.33
566.54	46167.07
566.70	46452.61
566.87	46586.02
567.03	46319.20
567.19	46419.84
567.36	46499.42
567.52	46136.64
567.68	46796.67
567.85	46335.59
568.01	46150.68
568.17	46038.34
568.34	46424.53
568.50	46646.88
568.66	46211.54
568.83	46337.93
568.99	46153.02
569.15	46454.95
569.32	46307.50
569.48	46340.27
569.64	46639.86
569.81	46440.91
569.97	46358.99
570.13	46342.61
570.30	46340.27
570.46	46061.74
570.62	46061.74
570.78	46021.95
570.95	45830.03
571.11	46146.00
571.27	45947.06
571.43	46103.87
571.60	46419.84
571.76	46426.87
571.92	46543.89
572.09	46712.41
572.25	46401.12
572.41	46600.07
572.57	46583.68
572.74	46583.68
572.90	46817.74
573.06	46609.43
573.22	46410.48
573.38	46361.33
573.55	46085.15
573.71	46628.15
573.87	46679.64
574.03	46375.37
574.20	46595.38
574.36	46309.84
574.52	46241.96
574.68	46955.83
574.84	46164.73
575.01	46377.72
575.17	46527.51
575.33	46078.13
575.49	46424.53
575.65	46368.35
575.82	46543.89
575.98	46157.70
576.14	46681.98
576.30	46330.90
576.46	46635.17
576.62	46660.92
576.79	46394.10
576.95	46403.46
577.11	46478.36
577.27	46539.21
577.43	46731.14
577.59	46153.02
577.75	46202.18
577.92	46419.84
578.08	46281.75
578.24	46361.33
578.40	46211.54
578.56	46344.95
578.72	46670.28
578.88	46401.12
579.04	46742.84
579.21	46342.61
579.37	46314.52
579.53	46550.91
579.69	46670.28
579.85	46679.64
580.01	46396.44
580.17	46515.81
580.33	46651.56
580.49	46527.51
580.65	46705.39
580.82	46525.17
580.98	46443.25
581.14	46623.47
581.30	46611.77
581.46	46349.63
581.62	46902.00
581.78	46731.14
581.94	46944.12
582.10	46799.01
582.26	46410.48
582.42	46440.91
582.58	46674.96
582.74	46869.23
582.90	46813.05
583.06	46719.43
583.22	47152.43
583.38	46625.81
583.54	46770.93
583.70	46834.12
583.86	46508.79
584.02	46576.66
584.18	46721.77
584.34	46581.34
584.50	47007.32
584.66	46590.70
584.82	46625.81
584.98	46703.05
585.14	46653.90
585.30	46614.11
585.46	46836.46
585.62	46436.23
585.78	46450.27
585.94	46277.07
586.10	46941.78
586.26	46415.16
586.42	46834.12
586.58	46885.61
586.74	46813.05
586.90	46497.08
587.06	46492.40
587.22	46756.88
587.38	46674.96
587.54	46841.14
587.70	46712.41
587.86	46735.82
588.02	46623.47
588.18	46691.35
588.34	46993.28
588.49	46124.94
588.65	45860.46
588.81	46513.47
588.97	46419.84
589.13	46469.00
589.29	46209.20
589.45	46190.47
589.61	46429.21
589.77	46820.08
589.93	46766.24
590.08	46607.09
590.24	46471.34
590.40	47285.84
590.56	46813.05
590.72	47178.18
590.88	46623.47
591.04	46628.15
591.20	47164.14
591.35	46784.97
591.51	47171.16
591.67	46476.02
591.83	46848.16
591.99	46674.96
592.15	46457.29
592.31	46770.93
592.46	46515.81
592.62	46691.35
592.78	46794.33
592.94	46894.97
593.10	47276.48
593.26	46813.05
593.41	46983.91
593.57	46646.88
593.73	46642.20
593.89	46445.59
594.05	46777.95
594.20	46784.97
594.36	46803.69
594.52	46684.33
594.68	46813.05
594.84	46934.76
594.99	46885.61
595.15	46913.70
595.31	46883.27
595.47	46646.88
595.62	46948.81
595.78	47007.32
595.94	47096.26
596.10	47068.17
596.25	46817.74
596.41	46742.84
596.57	46644.54
596.73	47061.15
596.88	46461.97
597.04	46478.36
597.20	46742.84
597.36	46773.27
597.51	46976.89
597.67	46843.48
597.83	46705.39
597.99	47105.62
598.14	46859.87
598.30	46808.37
598.46	46389.42
598.61	46899.65
598.77	46433.89
598.93	46997.96
599.09	46916.04
599.24	47150.09
599.40	47140.73
599.56	46855.18
599.71	46836.46
599.87	46604.75
600.03	46637.51
600.18	46955.83
600.34	46408.14
600.50	46834.12
600.65	46593.04
600.81	46733.48
600.97	47065.83
601.12	46848.16
601.28	46738.16
601.44	46939.44
601.59	46408.14
601.75	46082.81
601.91	46885.61
602.06	46478.36
602.22	46593.04
602.37	46639.86
602.53	46574.32
602.69	47189.88
602.84	46834.12
603.00	46323.88
603.16	46738.16
603.31	46660.92
603.47	46651.56
603.62	46504.10
603.78	47255.42
603.94	46834.12
604.09	46829.44
604.25	47014.34
604.40	46728.80
604.56	46604.75
604.71	46787.31
604.87	46927.74
605.03	46588.36
605.18	46623.47
605.34	46536.87
605.49	46153.02
605.65	46689.01
605.80	46670.28
605.96	46787.31
606.12	47285.84
606.27	46923.06
606.43	46745.18
606.58	46422.19
606.74	46550.91
606.89	47028.38
607.05	46749.86
607.20	46824.76
607.36	46363.67
607.51	46799.01
607.67	46593.04
607.82	46422.19
607.98	46354.31
608.13	46040.68
608.29	46298.14
608.44	46429.21
608.60	45972.80
608.75	46120.26
608.91	46211.54
609.06	46330.90
609.22	46660.92
609.37	46295.80
609.53	46520.49
609.68	46424.53
609.84	46586.02
609.99	46241.96
610.15	45907.27
610.30	46232.60
610.46	45914.29
610.61	46052.38
610.76	46295.80
610.92	46021.95
611.07	46506.44
611.23	46248.99
611.38	46415.16
611.54	45680.24
611.69	45794.92
611.84	45862.80
612.00	45500.01
612.15	45998.55
612.31	45989.19
612.46	45645.13
612.62	46115.58
612.77	46071.10
612.92	45902.59
613.08	45996.21
613.23	46251.33
613.39	45542.14
613.54	45198.09
613.69	45703.64
613.85	45488.31
614.00	45839.39
614.15	45970.46
614.31	45876.84
614.46	45970.46
614.62	45588.95
614.77	45837.05
614.92	45743.43
615.08	45673.21
615.23	45354.90
615.38	45715.34
615.54	45153.62
615.69	45563.21
615.84	45308.09
616.00	45216.81
616.15	45272.98
616.30	45216.81
616.46	45382.99
616.61	44940.63
616.76	45104.46
616.92	44753.38
617.07	45081.06
617.22	44619.97
617.37	45081.06
617.53	45322.13
617.68	45399.37
617.83	44973.39
617.99	45492.99
618.14	44961.69
618.29	45287.03
618.45	44795.51
618.60	44762.75
618.75	44247.83
618.90	44540.39
619.06	44779.13
619.21	44832.96
619.36	45689.60
619.51	44381.24
619.67	44676.15
619.82	45191.06
619.97	44739.34
620.12	44919.56
620.28	44629.34
620.43	44769.77
620.58	44912.54
620.73	44807.22
620.89	44928.92
621.04	44353.15
621.19	44924.24
621.34	44566.14
621.49	44589.55
621.65	44734.66
621.80	45106.80
621.95	44254.85
622.10	44697.21
622.25	44062.93
622.41	44577.84
622.56	44072.29
622.71	44942.97
622.86	44311.02
623.01	44570.82
623.16	44147.18
623.32	44470.18
623.47	44357.83
623.62	44444.43
623.77	44299.32
623.92	44135.48
624.07	44062.93
624.23	43896.75
624.38	44130.80
624.53	43615.88
624.68	43758.66
624.83	44091.01
624.98	44112.08
625.13	43452.05
625.29	43899.09
625.44	43592.48
625.59	43435.66
625.74	43180.54
625.89	43416.94
626.04	43051.81
626.19	43578.43
626.34	43901.43
626.49	43246.08
626.65	43831.21
626.80	43653.33
626.95	43440.34
627.10	43449.70
627.25	43320.98
627.40	43082.24
627.55	43026.07
627.70	42796.70
627.85	43129.05
628.00	43063.52
628.15	43105.65
628.30	43096.28
628.45	43433.32
628.60	42733.50
628.76	43323.32
628.91	42990.96
629.06	42735.84
629.21	42440.93
629.36	42749.88
629.51	42813.08
629.66	43054.15
629.81	42588.39
629.96	42686.69
630.11	42932.45
630.26	42993.30
630.41	43337.36
630.56	42848.19
630.71	42635.20
630.86	42394.12
631.01	43005.00
631.16	42602.43
631.31	42410.51
631.46	42426.89
631.61	42712.44
631.76	42281.78
631.91	42438.59
632.06	42614.13
632.21	42272.42
632.36	42417.53
632.51	42391.78
632.66	42354.33
632.81	42270.08
632.96	42361.36
633.10	42520.51
633.25	41991.55
633.40	42513.49
633.55	42572.00
633.70	42396.46
633.85	41942.40
634.00	42162.41
634.15	42291.14
634.30	42064.11
634.45	42064.11
634.60	42185.82
634.75	41844.10
634.90	42143.69
635.05	42012.62
635.19	42050.06
635.34	42164.75
635.49	42117.94
635.64	42206.88
635.79	41617.07
635.94	41659.20
636.09	41764.52
636.24	42127.30
636.39	41383.01
636.53	41769.20
636.68	41488.34
636.83	41371.31
636.98	41776.22
637.13	41184.07
637.28	41467.27
637.43	41897.93
637.57	41617.07
637.72	41500.04
637.87	41610.04
638.02	41670.90
638.17	41696.64
638.32	41404.08
638.46	41413.44
638.61	41612.38
638.76	40891.50
638.91	41570.25
639.06	41649.83
639.20	41413.44
639.35	41979.85
639.50	41062.36
639.65	41420.46
639.80	41406.42
639.94	40877.46
640.09	41024.91
640.24	41153.64
640.39	40671.49
640.54	40837.67
640.68	40844.69
640.83	41106.83
640.98	40566.16
641.13	40376.58
641.27	41076.40
641.42	40914.90
641.57	40414.03
641.72	40851.71
641.86	40739.36
642.01	40760.43
642.16	40313.39
642.31	40257.21
642.45	40847.03
642.60	40467.86
642.75	40329.77
642.90	40617.66
643.04	40421.05
643.19	40119.12
643.34	40526.38
643.48	40318.07
643.63	40608.29
643.78	40205.72
643.93	40346.15
644.07	40315.73
644.22	40416.37
644.37	40098.06
644.51	40062.95
644.66	40334.45
644.81	40182.32
644.95	40184.66
645.10	40294.66
645.25	40243.17
645.39	40191.68
645.54	40069.97
645.69	40140.19
645.83	40224.45
645.98	39667.40
646.13	39908.47
646.27	40004.44
646.42	39997.41
646.57	39873.37
646.71	40179.98
646.86	40025.50
647.00	40037.20
647.15	39789.11
647.30	39400.58
647.44	39477.82
647.59	39213.34
647.74	39445.05
647.88	39545.69
648.03	39798.47
648.17	39629.95
648.32	39711.87
648.47	39407.60
648.61	39290.57
648.76	39756.34
648.90	39449.73
649.05	39330.36
649.20	39477.82
649.34	39398.24
649.49	38859.91
649.63	38986.30
649.78	39412.28
649.92	39072.90
650.07	40009.12
650.21	39353.77
650.36	39328.02
650.51	39400.58
650.65	39461.43
650.80	39854.64
650.94	39433.35
651.09	39316.32
651.23	38958.22
651.38	39405.26
651.52	38501.81
651.67	38609.48
651.81	38724.16
651.96	38955.88
652.10	38911.41
652.25	38897.36
652.39	39040.14
652.54	38895.02
652.68	39072.90
652.83	38651.61
652.97	38621.18
653.12	38731.18
653.26	39012.05
653.41	38834.17
653.55	38359.04
653.70	38426.92
653.84	38714.80
653.99	38075.84
654.13	38139.03
654.27	38618.84
654.42	37972.85
654.56	38352.02
654.71	38330.95
654.85	38354.36
655.00	38368.40
655.14	37926.04
655.29	38171.80
655.43	38267.76
655.57	37612.41
655.72	37818.38
655.86	37504.74
656.01	37546.87
656.15	37460.27
656.30	37427.51
656.44	37708.37
656.58	37406.44
656.73	37738.80
656.87	37846.46
657.01	37551.56
657.16	38014.98
657.30	37104.51
657.45	37249.63
657.59	37502.40
657.73	37872.21
657.88	37848.80
658.02	38085.20
658.16	38017.32
658.31	37820.72
658.45	37514.11
658.60	37404.10
658.74	37385.38
658.88	37507.08
659.03	37521.13
659.17	37146.64
659.31	37378.36
659.46	37296.44
659.60	37429.85
659.74	37343.25
659.89	37003.87
660.03	37036.64
660.17	37106.85
660.32	37418.14
660.46	37214.52
660.60	36987.49
660.74	36739.39
660.89	36821.31
661.03	36741.73
661.17	36428.10
661.32	36610.66
661.46	36753.43
661.60	36748.75
661.74	36453.84
661.89	36624.70
662.03	36521.72
662.17	36435.12
662.31	36364.90
662.46	36851.73
662.60	36847.05
662.74	36566.19
662.88	36346.18
663.03	36465.55
663.17	36224.47
663.31	36072.34
663.45	35864.03
663.60	35885.09
663.74	36025.53
663.88	36079.36
664.02	35524.65
664.17	35875.73
664.31	35639.34
664.45	35316.34
664.59	35526.99
664.73	35524.65
664.88	35749.34
665.02	35534.01
665.16	35473.16
665.30	35487.20
665.44	35241.45
665.59	34651.63
665.73	35321.02
665.87	35218.04
666.01	35140.80
666.15	35103.35
666.29	35218.04
666.44	35173.57
666.58	34976.97
666.72	35058.88
666.86	34820.15
667.00	34857.60
667.14	34209.27
667.28	34457.37
667.43	34401.19
667.57	34747.59
667.71	34635.25
667.85	34621.20
667.99	34389.49
668.13	34590.78
668.27	34345.02
668.41	34335.66
668.56	34155.44
668.70	34808.45
668.84	34323.96
668.98	33799.68
669.12	33787.97
669.26	33998.62
669.40	33977.56
669.54	33476.68
669.68	33984.58
669.82	33731.80
669.96	33626.48
670.10	33514.13
670.25	33738.82
670.39	33373.70
670.53	33350.29
670.67	33535.20
670.81	33226.24
670.95	33247.31
671.09	33305.82
671.23	33123.26
671.37	33088.15
671.51	32889.21
671.65	32863.46
671.79	32727.71
671.93	32755.80
672.07	32816.65
672.21	32615.37
672.35	32706.65
672.49	32671.54
672.63	32463.23
672.77	32650.47
672.91	32212.79
673.05	32570.90
673.19	32077.04
673.33	31744.69
673.47	31859.37
673.61	31936.61
673.75	31920.23
673.89	31344.45
674.03	31543.40
674.17	31796.18
674.31	31515.31
674.45	31702.56
674.59	31498.93
674.73	31679.15
674.87	31473.18
675.01	31503.61
675.15	31412.33
675.29	31063.59
675.43	31243.81
675.56	31166.57
675.70	31070.61
675.84	30518.25
675.98	29947.15
676.12	30291.21
676.26	30195.25
676.40	30703.15
676.54	31236.79
676.68	30618.89
676.82	29762.25
676.96	30515.90
677.10	29879.28
677.23	29986.94
677.37	29972.90
677.51	30080.56
677.65	29495.43
677.79	29575.01
677.93	29926.09
678.07	29151.37
678.21	28959.45
678.34	29467.34
678.48	28882.21
678.62	28912.64
678.76	28819.02
678.90	28720.71
679.04	28907.96
679.18	29123.29
679.31	28460.91
679.45	27974.08
679.59	28243.24
679.73	28762.84
679.87	28177.71
680.00	28503.04
680.14	28100.47
680.28	27992.81
680.42	28144.94
680.56	28123.88
680.70	27878.12
680.83	27953.02
680.97	27538.74
681.11	27707.26
681.25	27232.13
681.39	27278.94
681.52	27892.16
681.66	27009.78
681.80	27386.61
681.94	27122.13
682.07	27440.44
682.21	26829.56
682.35	26483.16
682.49	26836.58
682.62	26806.16
682.76	26253.79
682.90	26541.68
683.04	26405.92
683.17	25986.97
683.31	26284.22
683.45	26085.27
683.59	25799.73
683.72	26218.68
683.86	26038.46
684.00	25905.05
684.13	25891.01
684.27	25495.46
684.41	25408.86
684.55	25238.00
684.68	25411.20
684.82	25245.02
684.96	24992.24
685.09	25252.04
685.23	24746.48
685.37	24922.02
685.50	24964.15
685.64	25001.60
685.78	24650.52
685.91	24341.57
686.05	24297.10
686.19	24327.53
686.32	24226.89
686.46	23819.63
686.60	23517.70
686.73	23302.37
686.87	23257.90
687.01	23372.59
687.14	23131.51
687.28	23257.90
687.42	23278.97
687.55	23360.89
687.69	23410.04
687.82	23061.30
687.96	23410.04
688.10	22960.66
688.23	22876.40
688.37	22958.31
688.50	22686.81
688.64	23108.11
688.78	22742.99
688.91	22403.61
689.05	22333.39
689.18	22625.96
689.32	22171.89
689.46	22211.68
689.59	22291.26
689.73	22427.01
689.86	22118.06
690.00	21855.92
690.13	21874.65
690.27	21785.71
690.41	21813.79
690.54	21282.49
690.68	21645.27
690.81	21551.65
690.95	21432.29
691.08	21607.83
691.22	21336.32
691.35	21343.35
691.49	21135.04
691.62	21116.31
691.76	21022.69
691.89	21071.84
692.03	20781.62
692.16	20760.55
692.30	20414.15
692.43	20521.82
692.57	20196.48
692.70	20126.27
692.84	20313.51
692.97	19971.79
693.11	20388.41
693.24	19929.66
693.38	19686.25
693.51	19976.47
693.65	19836.04
693.78	19805.61
693.92	19697.95
694.05	19772.85
694.19	19587.94
694.32	19641.78
694.45	19225.16
694.59	19257.93
694.72	19143.24
694.86	19080.05
694.99	18972.38
695.13	18956.00
695.26	18794.50
695.39	18707.90
695.53	18918.55
695.66	18808.54
695.80	18951.32
695.93	18394.27
696.07	18588.53
696.20	18420.02
696.33	18361.50
696.47	18422.36
696.60	17991.70
696.73	17984.68
696.87	18087.66
697.00	17872.33
697.14	17830.20
697.27	17720.20
697.40	17816.16
697.54	17369.12
697.67	17212.30
697.80	17418.27
697.94	17322.30
698.07	17376.14
698.21	17076.55
698.34	17235.70
698.47	17062.51
698.61	16816.75
698.74	17067.19
698.87	16943.14
699.01	16552.27
699.14	16470.35
699.27	16493.76
699.40	16554.61
699.54	16381.41
699.67	16336.94
699.80	16285.45
699.94	16304.17
700.07	16016.29
700.20	16030.33
700.34	16315.87
700.47	16100.55
700.60	15889.90
700.73	16137.99
700.87	16133.31
701.00	15822.02
701.13	15817.34
701.26	15791.59
701.40	15651.16
701.53	15374.98
701.66	15569.24
701.79	15407.75
701.93	15311.78
702.06	15154.97
702.19	14836.66
702.32	15049.64
702.46	14848.36
702.59	15042.62
702.72	14789.85
702.85	15028.58
702.99	14654.09
703.12	14555.79
703.25	14590.90
703.38	14457.49
703.51	14618.99
703.65	14490.26
703.78	14455.15
703.91	14097.05
704.04	13916.83
704.17	14326.42
704.31	14134.50
704.44	13973.00
704.57	13841.93
704.70	14017.47
704.83	13804.48
704.96	14139.18
705.10	13745.97
705.23	13671.07
>>>>>End Processed Spectral Data<<<<<
