SpectraSuite Data File
++++++++++++++++++++++++++++++++++++
Date: Fri Oct 25 11:33:29 EDT 2013
User: price-jones
Dark Spectrum Present: No
Reference Spectrum Present: No
Number of Sampled Component Spectra: 1
Spectrometers: USB2+H05261
Integration Time (usec): 100000 (USB2+H05261)
Spectra Averaged: 1 (USB2+H05261)
Boxcar Smoothing: 0 (USB2+H05261)
Correct for Electrical Dark: No (USB2+H05261)
Strobe/Lamp Enabled: No (USB2+H05261)
Correct for Detector Non-linearity: No (USB2+H05261)
Correct for Stray Light: No (USB2+H05261)
Number of Pixels in Processed Spectrum: 2048
>>>>>Begin Processed Spectral Data<<<<<
365.73	297.25
365.92	297.25
366.12	297.25
366.32	131.07
366.52	191.92
366.72	238.73
366.91	173.20
367.11	154.48
367.31	250.44
367.51	163.84
367.70	161.50
367.90	196.60
368.10	182.56
368.30	149.79
368.49	196.60
368.69	189.58
368.89	133.41
369.09	177.88
369.28	205.97
369.48	152.13
369.68	273.84
369.87	231.71
370.07	257.46
370.27	252.78
370.47	330.02
370.66	510.24
370.86	571.09
371.06	578.11
371.25	521.94
371.45	526.62
371.65	475.13
371.84	566.41
372.04	587.47
372.24	550.03
372.44	507.90
372.63	587.47
372.83	655.35
373.03	575.77
373.22	669.39
373.42	587.47
373.62	648.33
373.81	589.82
374.01	648.33
374.21	667.05
374.40	613.22
374.60	638.97
374.79	674.07
374.99	704.50
375.19	671.73
375.38	669.39
375.58	566.41
375.78	660.03
375.97	702.16
376.17	732.59
376.37	727.91
376.56	704.50
376.76	585.13
376.95	683.44
377.15	660.03
377.35	653.01
377.54	657.69
377.74	681.10
377.93	725.57
378.13	685.78
378.33	667.05
378.52	706.84
378.72	713.86
378.91	683.44
379.11	732.59
379.31	723.23
379.50	650.67
379.70	734.93
379.89	674.07
380.09	751.31
380.28	641.31
380.48	763.01
380.68	678.76
380.87	748.97
381.07	718.54
381.26	748.97
381.46	842.59
381.65	741.95
381.85	706.84
382.04	823.87
382.24	795.78
382.43	800.46
382.63	725.57
382.83	772.38
383.02	952.60
383.22	741.95
383.41	777.06
383.61	767.70
383.80	868.34
384.00	833.23
384.19	819.19
384.39	826.21
384.58	779.40
384.78	858.98
384.97	842.59
385.17	809.83
385.36	847.27
385.56	798.12
385.75	840.25
385.95	891.74
386.14	915.15
386.34	858.98
386.53	880.04
386.72	940.90
386.92	912.81
387.11	889.40
387.31	903.45
387.50	833.23
387.70	875.36
387.89	954.94
388.09	877.70
388.28	856.64
388.48	903.45
388.67	966.64
388.86	931.53
389.06	901.11
389.25	919.83
389.45	905.79
389.64	870.68
389.84	1013.45
390.03	990.05
390.22	957.28
390.42	973.66
390.61	896.43
390.81	947.92
391.00	971.32
391.19	999.41
391.39	978.34
391.58	1060.26
391.78	1001.75
391.97	999.41
392.16	1071.97
392.36	1036.86
392.55	1011.11
392.75	992.39
392.94	1062.60
393.13	1048.56
393.33	1034.52
393.52	1071.97
393.71	1107.07
393.91	1125.80
394.10	1022.81
394.29	1128.14
394.49	1071.97
394.68	1074.31
394.88	1071.97
395.07	1191.33
395.26	1097.71
395.46	1146.86
395.65	1179.63
395.84	1181.97
396.04	1196.01
396.23	1188.99
396.42	1203.04
396.62	1125.80
396.81	1268.57
397.00	1249.85
397.19	1252.19
397.39	1210.06
397.58	1207.72
397.77	1238.14
397.97	1256.87
398.16	1153.88
398.35	1214.74
398.55	1240.48
398.74	1254.53
398.93	1343.47
399.12	1277.93
399.32	1296.66
399.51	1165.59
399.70	1380.92
399.90	1357.51
400.09	1385.60
400.28	1434.75
400.47	1441.77
400.67	1406.66
400.86	1427.73
401.05	1476.88
401.24	1444.11
401.44	1420.71
401.63	1409.00
401.82	1451.13
402.01	1451.13
402.21	1416.02
402.40	1434.75
402.59	1411.34
402.78	1455.81
402.97	1502.62
403.17	1519.01
403.36	1607.95
403.55	1547.09
403.74	1556.46
403.93	1533.05
404.13	1584.54
404.32	1509.65
404.51	1687.53
404.70	1582.20
404.89	1586.88
405.09	1696.89
405.28	1685.19
405.47	1678.16
405.66	1732.00
405.85	1753.06
406.05	1736.68
406.24	1825.62
406.43	1811.57
406.62	1806.89
406.81	1820.94
407.00	1778.81
407.20	1771.79
407.39	1842.00
407.58	1860.73
407.77	1851.36
407.96	1809.23
408.15	1884.13
408.34	1874.77
408.54	1914.56
408.73	1860.73
408.92	1963.71
409.11	2005.84
409.30	1952.01
409.49	1914.56
409.68	1914.56
409.87	2003.50
410.07	2022.22
410.26	2078.40
410.45	2019.88
410.64	2094.78
410.83	2062.01
411.02	2090.10
411.21	2186.06
411.40	2132.23
411.59	2143.93
411.78	2153.29
411.98	2146.27
412.17	2209.47
412.36	2326.49
412.55	2345.22
412.74	2218.83
412.93	2375.64
413.12	2286.70
413.31	2434.16
413.50	2476.29
413.69	2408.41
413.88	2492.67
414.07	2422.45
414.26	2469.27
414.45	2569.91
414.64	2546.50
414.83	2630.76
415.02	2602.68
415.22	2691.62
415.41	2612.04
415.60	2590.97
415.79	2724.38
415.98	2794.60
416.17	2712.68
416.36	2708.00
416.55	2736.09
416.74	2785.24
416.93	2803.96
417.12	2836.73
417.31	2876.52
417.50	2930.35
417.69	2946.73
417.88	2993.55
418.07	2904.60
418.26	2895.24
418.45	3005.25
418.64	3131.64
418.83	3084.83
419.02	3005.25
419.21	3080.14
419.39	3236.96
419.58	3136.32
419.77	3063.76
419.96	2993.55
420.15	3119.93
420.34	3115.25
420.53	3133.98
420.72	3260.37
420.91	3119.93
421.10	3213.56
421.29	3393.78
421.48	3204.19
421.67	3363.35
421.86	3337.60
422.05	3274.41
422.24	3246.32
422.43	3421.86
422.61	3318.88
422.80	3396.12
422.99	3358.67
423.18	3382.07
423.37	3459.31
423.56	3403.14
423.75	3440.59
423.94	3393.78
424.13	3236.96
424.32	3208.87
424.50	3419.52
424.69	3506.12
424.88	3616.13
425.07	3433.57
425.26	3375.05
425.45	3337.60
425.64	3311.86
425.83	3454.63
426.01	3576.34
426.20	3571.66
426.39	3482.72
426.58	3522.51
426.77	3529.53
426.96	3562.30
427.15	3536.55
427.33	3569.32
427.52	3545.91
427.71	3688.68
427.90	3576.34
428.09	3758.90
428.28	3618.47
428.46	3616.13
428.65	3653.58
428.84	3948.48
429.03	3803.37
429.22	3627.83
429.40	3702.73
429.59	3801.03
429.78	3648.90
429.97	3660.60
430.16	3868.91
430.34	3920.40
430.53	3911.04
430.72	3889.97
430.91	3915.72
431.10	3868.91
431.28	3941.46
431.47	3981.25
431.66	3859.54
431.85	3852.52
432.03	4131.05
432.22	4173.18
432.41	4112.32
432.60	4004.66
432.79	3990.61
432.97	4159.13
433.16	4301.90
433.35	4086.58
433.54	4142.75
433.72	4280.84
433.91	4145.09
434.10	4196.58
434.28	4046.79
434.47	4322.97
434.66	4320.63
434.85	4372.12
435.03	4219.99
435.22	4283.18
435.41	4423.61
435.59	4369.78
435.78	4400.21
435.97	4512.55
436.16	4423.61
436.34	4428.29
436.53	4428.29
436.72	4545.32
436.90	4449.36
437.09	4383.82
437.28	4458.72
437.46	4542.98
437.65	4601.49
437.84	4620.22
438.02	4753.63
438.21	4936.19
438.40	4535.96
438.58	4805.12
438.77	4704.48
438.96	4814.48
439.14	4952.57
439.33	4875.34
439.52	4840.23
439.70	4915.12
439.89	5158.54
440.08	5085.98
440.26	5022.79
440.45	4943.21
440.63	5069.60
440.82	5114.07
441.01	5170.24
441.19	5210.03
441.38	5437.06
441.57	5338.76
441.75	5392.59
441.94	5322.38
442.12	5341.10
442.31	5554.09
442.50	5416.00
442.68	5327.06
442.87	5502.60
443.05	5568.13
443.24	5516.64
443.43	5600.90
443.61	5643.03
443.80	5790.49
443.98	5493.24
444.17	5359.83
444.35	5654.73
444.54	5591.54
444.73	5617.29
444.91	5659.42
445.10	5701.54
445.28	5650.05
445.47	5511.96
445.65	5586.86
445.84	5626.65
446.02	5720.27
446.21	5750.70
446.39	5619.63
446.58	5818.57
446.77	5874.74
446.95	5675.80
447.14	5596.22
447.32	5617.29
447.51	5823.25
447.69	5856.02
447.88	5919.21
448.06	5832.62
448.25	5860.70
448.43	5837.30
448.62	5692.18
448.80	5867.72
448.99	5926.24
449.17	5898.15
449.36	5710.91
449.54	5959.00
449.73	5982.41
449.91	6120.50
450.10	5977.73
450.28	6197.74
450.46	6211.78
450.65	6113.48
450.83	6193.06
451.02	6015.18
451.20	6162.63
451.39	6216.46
451.57	6256.25
451.76	6188.38
451.94	6127.52
452.13	6296.04
452.31	6305.40
452.49	6331.15
452.68	6396.68
452.86	6349.87
453.05	6574.56
453.23	6394.34
453.42	6392.00
453.60	6298.38
453.78	6272.64
453.97	6471.58
454.15	6324.13
454.34	6298.38
454.52	6548.82
454.70	6504.35
454.89	6633.08
455.07	6583.93
455.26	6848.41
455.44	6686.91
455.62	6642.44
455.81	6738.40
455.99	6752.45
456.17	6864.79
456.36	6839.05
456.54	6951.39
456.73	6855.43
456.91	7087.14
457.09	6958.41
457.28	7201.83
457.46	6885.86
457.64	7267.36
457.83	7077.78
458.01	7124.59
458.19	7082.46
458.38	7178.42
458.56	7124.59
458.74	7061.40
458.93	7272.04
459.11	7073.10
459.29	7150.34
459.48	7288.43
459.66	7330.56
459.84	7372.69
460.03	7475.67
460.21	7337.58
460.39	7452.27
460.57	7543.55
460.76	7581.00
460.94	7379.71
461.12	7470.99
461.31	7569.29
461.49	7541.21
461.67	7573.97
461.85	7749.51
462.04	7393.75
462.22	8241.03
462.40	7775.26
462.59	7763.56
462.77	7836.11
462.95	7857.18
463.13	8018.68
463.32	7714.41
463.50	7768.24
463.68	8098.25
463.86	7948.46
464.05	7674.62
464.23	7985.91
464.41	7955.48
464.59	8135.70
464.78	8149.75
464.96	8109.96
465.14	8065.49
465.32	8163.79
465.50	8259.75
465.69	8222.30
465.87	8269.11
466.05	8042.08
466.23	8208.26
466.41	8266.77
466.60	8360.39
466.78	8285.50
466.96	8170.81
467.14	8250.39
467.32	8348.69
467.51	8463.38
467.69	8329.97
467.87	8386.14
468.05	8524.23
468.23	8334.65
468.41	8299.54
468.60	8517.21
468.78	8814.46
468.96	8432.95
469.14	8678.71
469.32	8718.50
469.50	8332.31
469.69	8851.91
469.87	9036.81
470.05	8699.77
470.23	8793.39
470.41	8905.74
470.59	8933.82
470.77	8711.47
470.95	8926.80
471.14	9111.71
471.32	8805.10
471.50	9207.67
471.68	8990.00
471.86	8973.61
472.04	9118.73
472.22	9495.55
472.40	9315.33
472.58	9029.79
472.77	9312.99
472.95	9408.95
473.13	9699.18
473.31	9341.08
473.49	9488.53
473.67	9483.85
473.85	9582.15
474.03	9818.55
474.21	9755.35
474.39	9743.65
474.57	9785.78
474.75	10040.90
474.93	9926.21
475.12	10005.79
475.30	10022.17
475.48	10038.56
475.66	10026.86
475.84	10214.10
476.02	10291.34
476.20	10289.00
476.38	10579.22
476.56	10637.73
476.74	10602.63
476.92	10497.30
477.10	10661.14
477.28	10747.74
477.46	10693.91
477.64	10803.91
477.82	11110.52
478.00	11342.24
478.18	11033.29
478.36	11421.81
478.54	11405.43
478.72	11435.86
478.90	11506.07
479.08	11454.58
479.26	11805.66
479.44	11618.42
479.62	12056.10
479.80	11871.20
479.98	11868.86
480.16	12383.77
480.34	12184.83
480.52	12346.33
480.70	12421.22
480.88	12257.39
481.06	12353.35
481.24	12573.36
481.41	12594.42
481.59	12943.16
481.77	12851.88
481.95	13085.94
482.13	13102.32
482.31	12898.69
482.49	13266.16
482.67	13359.78
482.85	13612.56
483.03	13809.16
483.21	13432.33
483.39	13809.16
483.57	13884.06
483.74	13991.72
483.92	14139.18
484.10	14066.62
484.28	14193.01
484.46	14562.81
484.64	14677.50
484.82	14623.67
485.00	14626.01
485.18	14930.28
485.35	15112.84
485.53	15096.46
485.71	15201.78
485.89	15674.57
486.07	15398.38
486.25	15744.78
486.43	15510.73
486.61	15609.03
486.78	16114.59
486.96	16011.60
487.14	16163.74
487.32	16479.71
487.50	16348.64
487.68	16617.80
487.85	16842.50
488.03	16828.45
488.21	16922.07
488.39	16919.73
488.57	17273.15
488.75	17343.37
488.92	17586.79
489.10	17341.03
489.28	17607.85
489.46	17696.79
489.64	17872.33
489.81	18539.38
489.99	18281.92
490.17	18345.12
490.35	18307.67
490.53	18789.82
490.70	18860.04
490.88	18604.92
491.06	18953.66
491.24	18913.87
491.41	19147.92
491.59	19440.49
491.77	19290.70
491.95	19548.15
492.13	19613.69
492.30	19878.17
492.48	19690.93
492.66	19999.88
492.84	20217.55
493.01	20255.00
493.19	20276.06
493.37	20917.37
493.54	20608.42
493.72	20788.64
493.90	20451.60
494.08	20720.76
494.25	20950.14
494.43	21043.76
494.61	21085.89
494.79	21333.98
494.96	21689.74
495.14	21621.87
495.32	21537.61
495.49	21923.80
495.67	21977.63
495.85	22143.81
496.02	22302.96
496.20	22457.44
496.38	22434.03
496.55	22490.21
496.73	22960.66
496.91	22941.93
497.09	23002.78
497.26	22850.65
497.44	23007.47
497.62	23030.87
497.79	23641.75
497.97	23637.07
498.14	23644.09
498.32	23428.76
498.50	23744.73
498.67	24109.86
498.85	23971.77
499.03	24334.55
499.20	24058.37
499.38	24439.87
499.56	24592.01
499.73	24807.34
499.91	24332.21
500.08	24950.11
500.26	24790.95
500.44	24842.45
500.61	24716.06
500.79	24753.51
500.97	24971.18
501.14	25317.57
501.32	25453.33
501.49	25401.83
501.67	25509.50
501.84	25804.41
502.02	25675.68
502.20	25858.24
502.37	25832.49
502.55	25663.97
502.72	26061.87
502.90	26101.65
503.07	25502.48
503.25	26185.91
503.43	25591.42
503.60	26696.15
503.78	26820.20
503.95	26380.18
504.13	26618.91
504.30	26862.33
504.48	26773.39
504.65	27119.79
504.83	27220.43
505.01	27658.11
505.18	27402.99
505.36	27243.84
505.53	27194.68
505.71	27583.21
505.88	27470.87
506.06	27384.27
506.23	27520.02
506.41	27644.07
506.58	27695.56
506.76	27915.57
506.93	27999.83
507.11	28161.33
507.28	28095.79
507.46	28397.72
507.63	28339.21
507.81	28603.69
507.98	28205.80
508.16	28386.02
508.33	28769.86
508.50	28840.08
508.68	28636.45
508.85	29418.19
509.03	28634.11
509.20	29270.74
509.38	29427.56
509.55	29530.54
509.73	29432.24
509.90	29237.97
510.08	29312.87
510.25	29631.18
510.42	29923.75
510.60	29844.17
510.77	30347.39
510.95	30178.87
511.12	29970.56
511.30	30209.29
511.47	29963.54
511.64	30525.27
511.82	30431.65
511.99	30607.19
512.17	30185.89
512.34	30670.38
512.51	30803.79
512.69	30927.84
512.86	30792.09
513.04	31154.87
513.21	31285.94
513.38	31473.18
513.56	31417.01
513.73	31447.44
513.90	31349.14
514.08	31325.73
514.25	31550.42
514.43	31718.94
514.60	31995.12
514.77	31587.87
514.95	31861.71
515.12	31967.04
515.29	31761.07
515.47	31835.97
515.64	31985.76
515.81	32041.93
515.99	32353.23
516.16	32514.72
516.33	32308.76
516.51	32638.77
516.68	32266.63
516.85	32840.06
517.03	32694.94
517.20	32947.72
517.37	32718.35
517.54	33188.80
517.72	33120.92
517.89	33031.98
518.06	33263.69
518.24	33607.75
518.41	33242.63
518.58	33198.16
518.75	32830.69
518.93	33251.99
519.10	33457.96
519.27	33394.76
519.45	33591.37
519.62	33858.19
519.79	33954.15
519.96	33710.74
520.14	33958.83
520.31	33890.96
520.48	34300.55
520.65	34122.67
520.83	34609.50
521.00	34527.58
521.17	34515.88
521.34	34501.84
521.52	34733.55
521.69	34398.85
521.86	34871.64
522.03	34873.98
522.20	35377.20
522.38	35370.18
522.55	35201.66
522.72	35061.22
522.89	35339.75
523.07	35702.53
523.24	35374.86
523.41	35615.93
523.58	35611.25
523.75	35662.74
523.92	35637.00
524.10	35840.62
524.27	35524.65
524.44	35768.07
524.61	36154.26
524.78	35880.41
524.96	36180.00
525.13	36060.63
525.30	36348.52
525.47	36517.04
525.64	36128.51
525.81	36392.99
525.98	36486.61
526.16	36662.15
526.33	36109.78
526.50	36840.03
526.67	36833.01
526.84	36690.24
527.01	36896.20
527.18	36837.69
527.36	36940.68
527.53	36821.31
527.70	37481.34
527.87	37495.38
528.04	36744.07
528.21	37036.64
528.38	37067.06
528.55	37331.54
528.72	37729.44
528.89	37481.34
529.07	37010.89
529.24	37345.59
529.41	37542.19
529.58	37488.36
529.75	37483.68
529.92	38064.13
530.09	37497.72
530.26	37745.82
530.43	37909.66
530.60	37383.04
530.77	37628.79
530.94	37558.58
531.11	38047.75
531.28	38309.89
531.46	38459.68
531.63	38265.42
531.80	38595.43
531.97	38724.16
532.14	38033.71
532.31	38286.48
532.48	38450.32
532.65	38829.49
532.82	38497.13
532.99	38937.15
533.16	38733.53
533.33	39182.91
533.50	38883.32
533.67	38691.40
533.84	38637.56
534.01	38866.94
534.18	38920.77
534.35	39372.49
534.52	39349.09
534.69	39744.64
534.86	39606.55
535.03	39255.46
535.20	39344.41
535.37	39674.42
535.54	39739.96
535.71	39611.23
535.88	39817.19
536.05	39388.88
536.22	39709.53
536.38	39889.75
536.55	39775.06
536.72	39566.76
536.89	39934.22
537.06	40172.96
537.23	40212.74
537.40	39901.45
537.57	40332.11
537.74	39941.24
537.91	40385.94
538.08	40699.58
538.25	39955.29
538.42	40112.10
538.59	40931.29
538.75	40217.43
538.92	40786.18
539.09	40713.62
539.26	40603.61
539.43	40608.29
539.60	40889.16
539.77	40500.63
539.94	40774.47
540.11	40999.16
540.28	40919.59
540.44	41064.70
540.61	41053.00
540.78	40360.20
540.95	40952.35
541.12	40952.35
541.29	41411.10
541.46	41289.39
541.62	40933.63
541.79	41820.69
541.96	41298.75
542.13	40809.58
542.30	41427.48
542.47	41214.49
542.63	41399.40
542.80	41708.35
542.97	42075.81
543.14	41715.37
543.31	41909.63
543.48	42078.15
543.64	42705.41
543.81	41666.22
543.98	42010.28
544.15	41860.48
544.32	42483.06
544.48	42733.50
544.65	42122.62
544.82	42497.11
544.99	42564.98
545.16	42340.29
545.32	42239.65
545.49	42960.53
545.66	43098.62
545.83	42691.37
546.00	43152.46
546.16	42803.72
546.33	42997.98
546.50	42209.22
546.67	42649.24
546.83	42272.42
547.00	42286.46
547.17	42747.54
547.34	42909.04
547.50	43077.56
547.67	43320.98
547.84	42789.67
548.00	43201.61
548.17	43477.79
548.34	43215.65
548.51	43653.33
548.67	43681.42
548.84	43260.12
549.01	43063.52
549.18	43548.01
549.34	43737.59
549.51	43239.06
549.68	43828.87
549.84	43723.55
550.01	43835.89
550.18	43215.65
550.34	43793.76
550.51	44165.91
550.68	43903.77
550.84	43782.06
551.01	44002.07
551.18	44177.61
551.34	43803.13
551.51	44147.18
551.68	44065.27
551.84	44144.84
552.01	43889.73
552.18	44083.99
552.34	43800.79
552.51	44355.49
552.68	44364.85
552.84	43793.76
553.01	44411.67
553.18	44575.50
553.34	44659.76
553.51	44006.75
553.67	44631.68
553.84	44198.68
554.01	44676.15
554.17	44732.32
554.34	44835.30
554.51	44769.77
554.67	44938.29
554.84	44755.72
555.00	44952.33
555.17	44748.70
555.33	45074.04
555.50	44336.77
555.67	44746.36
555.83	44729.98
556.00	45045.95
556.16	45017.86
556.33	45155.96
556.50	44554.44
556.66	44919.56
556.83	44804.88
556.99	45368.94
557.16	45268.30
557.32	45240.21
557.49	45551.51
557.65	44907.86
557.82	45059.99
557.98	45223.83
558.15	45326.81
558.32	45446.18
558.48	45170.00
558.65	45366.60
558.81	45572.57
558.98	45333.84
559.14	45067.02
559.31	45317.45
559.47	45226.17
559.64	45350.22
559.80	45612.36
559.97	45455.54
560.13	45612.36
560.30	45500.01
560.46	45977.48
560.63	45860.46
560.79	45614.70
560.96	45485.97
561.12	45705.98
561.29	45542.14
561.45	45600.66
561.61	45715.34
561.78	45478.95
561.94	45331.50
562.11	45738.75
562.27	45883.86
562.44	45539.80
562.60	45979.82
562.77	46164.73
562.93	45876.84
563.10	46183.45
563.26	45837.05
563.42	46244.30
563.59	46085.15
563.75	45600.66
563.92	46286.43
564.08	46108.55
564.24	46143.66
564.41	46040.68
564.57	46349.63
564.74	46052.38
564.90	46202.18
565.07	46361.33
565.23	46234.94
565.39	45595.98
565.56	46457.29
565.72	46253.67
565.88	46234.94
566.05	46660.92
566.21	46213.88
566.38	46333.24
566.54	46693.69
566.70	46689.01
566.87	46330.90
567.03	46447.93
567.19	46848.16
567.36	46480.70
567.52	46742.84
567.68	46986.25
567.85	46689.01
568.01	46480.70
568.17	46220.90
568.34	46681.98
568.50	46492.40
568.66	46674.96
568.83	46513.47
568.99	46827.10
569.15	46426.87
569.32	46738.16
569.48	46415.16
569.64	47253.08
569.81	47089.24
569.97	47154.77
570.13	46770.93
570.30	46691.35
570.46	46897.31
570.62	46469.00
570.78	46586.02
570.95	46443.25
571.11	46815.40
571.27	47079.88
571.43	46820.08
571.60	47339.68
571.76	46656.24
571.92	46955.83
572.09	46986.25
572.25	47253.08
572.41	46384.74
572.57	46700.71
572.74	47330.31
572.90	46944.12
573.06	47187.54
573.22	47049.45
573.38	47129.03
573.55	46595.38
573.71	47217.97
573.87	47220.31
574.03	47026.04
574.20	47452.02
574.36	46941.78
574.52	47337.33
574.68	47201.58
574.84	47398.19
575.01	47510.53
575.17	47592.45
575.33	47049.45
575.49	47009.66
575.65	47344.36
575.82	47379.46
575.98	46824.76
576.14	47349.04
576.30	47573.73
576.46	47316.27
576.62	46859.87
576.79	47206.26
576.95	46351.97
577.11	46967.53
577.27	47257.76
577.43	47299.89
577.59	47037.75
577.75	47475.43
577.92	46997.96
578.08	47147.75
578.24	47152.43
578.40	47365.42
578.56	47363.08
578.72	47196.90
578.88	47861.61
579.04	47295.21
579.21	47297.55
579.37	47473.09
579.53	47374.78
579.69	47402.87
579.85	47140.73
580.01	47400.53
580.17	47311.59
580.33	47281.16
580.49	47650.97
580.65	47447.34
580.82	47445.00
580.98	46962.85
581.14	47327.97
581.30	47519.90
581.46	47393.51
581.62	47224.99
581.78	47332.65
581.94	47440.32
582.10	47536.28
582.26	47760.97
582.42	47412.23
582.58	47182.86
582.74	47489.47
582.90	47725.86
583.06	47611.18
583.22	47615.86
583.38	47725.86
583.54	47665.01
583.70	47489.47
583.86	47681.39
584.02	47400.53
584.18	48163.54
584.34	47129.03
584.50	48004.39
584.66	47739.91
584.82	47583.09
584.98	48200.99
585.14	47866.30
585.30	47543.30
585.46	47454.36
585.62	47800.76
585.78	47550.32
585.94	47358.40
586.10	47367.76
586.26	47447.34
586.42	47248.39
586.58	47650.97
586.74	47943.53
586.90	47847.57
587.06	47452.02
587.22	47800.76
587.38	47475.43
587.54	47863.96
587.70	47866.30
587.86	47688.42
588.02	47437.98
588.18	47772.67
588.34	47505.85
588.49	47519.90
588.65	47686.07
588.81	47650.97
588.97	47854.59
589.13	47999.71
589.29	48009.07
589.45	47814.80
589.61	47576.07
589.77	47913.11
589.93	47393.51
590.08	47870.98
590.24	48151.84
590.40	48193.97
590.56	47887.36
590.72	47899.06
590.88	48058.22
591.04	48182.27
591.20	48177.59
591.35	48238.44
591.51	48076.94
591.67	47831.19
591.83	48467.81
591.99	47793.74
592.15	48081.63
592.31	47861.61
592.46	48301.64
592.62	47952.90
592.78	48247.80
592.94	48095.67
593.10	48137.80
593.26	48311.00
593.41	48222.06
593.57	47992.68
593.73	48460.79
593.89	48289.93
594.05	48523.99
594.20	48605.91
594.36	48491.22
594.52	48226.74
594.68	48538.03
594.84	48196.31
594.99	48430.36
595.15	48128.44
595.31	48556.75
595.47	48140.14
595.62	48493.56
595.78	48009.07
595.94	48580.16
596.10	48409.30
596.25	48392.92
596.41	48212.70
596.57	48163.54
596.73	48533.35
596.88	48416.32
597.04	48385.89
597.20	48479.52
597.36	48428.02
597.51	48336.74
597.67	47868.64
597.83	48135.46
597.99	48175.25
598.14	48451.43
598.30	48474.84
598.46	48610.59
598.61	48308.66
598.77	48502.92
598.93	48404.62
599.09	48521.65
599.24	48493.56
599.40	48236.10
599.56	48804.85
599.71	48919.54
599.87	48657.40
600.03	48720.59
600.18	48474.84
600.34	48655.06
600.50	48327.38
600.65	48641.01
600.81	49036.56
600.97	48741.66
601.12	48484.20
601.28	48760.38
601.44	48509.94
601.59	48044.18
601.75	48442.07
601.91	48575.48
602.06	48069.92
602.22	48669.10
602.37	48474.84
602.53	48615.27
602.69	48765.06
602.84	48226.74
603.00	48542.71
603.16	48622.29
603.31	48325.04
603.47	48559.09
603.62	48453.77
603.78	48584.84
603.94	49031.88
604.09	48421.00
604.25	48147.16
604.40	48388.24
604.56	48229.08
604.71	48729.95
604.87	48126.10
605.03	48257.17
605.18	48156.52
605.34	48744.00
605.49	48336.74
605.65	48594.20
605.80	48364.83
605.96	48327.38
606.12	48170.57
606.27	48406.96
606.43	48315.68
606.58	48659.74
606.74	48348.45
606.89	48334.40
607.05	48584.84
607.20	48669.10
607.36	48303.98
607.51	48470.15
607.67	48303.98
607.82	48119.07
607.98	48744.00
608.13	48135.46
608.29	48528.67
608.44	48301.64
608.60	47920.13
608.75	48633.99
608.91	48065.24
609.06	48032.47
609.22	48645.69
609.37	48079.28
609.53	48224.40
609.68	48374.19
609.84	48182.27
609.99	48505.26
610.15	48259.51
610.30	48399.94
610.46	48081.63
610.61	48170.57
610.76	48423.34
610.92	47952.90
611.07	48500.58
611.23	48294.61
611.38	48287.59
611.54	48217.38
611.69	47723.52
611.84	48325.04
612.00	47688.42
612.15	47791.40
612.31	48144.82
612.46	47718.84
612.62	47859.27
612.77	48079.28
612.92	47962.26
613.08	47765.65
613.23	48128.44
613.39	47817.14
613.54	47416.91
613.69	48172.91
613.85	47868.64
614.00	47782.04
614.15	48133.12
614.31	47882.68
614.46	47686.07
614.62	47454.36
614.77	47672.03
614.92	47524.58
615.08	47222.65
615.23	47943.53
615.38	47971.62
615.54	47875.66
615.69	47828.85
615.84	47597.13
616.00	47660.33
616.15	47559.69
616.30	47667.35
616.46	47473.09
616.61	47807.78
616.76	47620.54
616.92	47772.67
617.07	48062.90
617.22	47601.82
617.37	47124.35
617.53	47592.45
617.68	47187.54
617.83	47281.16
617.99	47564.37
618.14	48023.11
618.29	47468.40
618.45	47370.10
618.60	47192.22
618.75	47304.57
618.90	47203.92
619.06	47402.87
619.21	47171.16
619.36	47501.17
619.51	47100.94
619.67	47014.34
619.82	47079.88
619.97	47531.60
620.12	47409.89
620.28	46997.96
620.43	47409.89
620.58	47442.66
620.73	46976.89
620.89	47480.11
621.04	47384.15
621.19	47028.38
621.34	46951.15
621.49	47318.61
621.65	47236.69
621.80	47571.39
621.95	47168.82
622.10	46789.65
622.25	46808.37
622.41	46995.62
622.56	46389.42
622.71	47082.22
622.86	46906.68
623.01	47363.08
623.16	46815.40
623.32	46461.97
623.47	46742.84
623.62	46574.32
623.77	46796.67
623.92	46752.20
624.07	46679.64
624.23	46857.52
624.38	46815.40
624.53	46555.60
624.68	46146.00
624.83	46717.09
624.98	46923.06
625.13	46478.36
625.29	45834.71
625.44	46377.72
625.59	46312.18
625.74	46501.76
625.89	46326.22
626.04	46426.87
626.19	46490.06
626.34	46129.62
626.49	45979.82
626.65	45408.73
626.80	46218.56
626.95	45979.82
627.10	46302.82
627.25	46251.33
627.40	46089.83
627.55	46534.53
627.70	45972.80
627.85	45841.73
628.00	46515.81
628.15	46557.94
628.30	45645.13
628.45	45773.86
628.60	45443.84
628.76	45708.32
628.91	45825.35
629.06	45567.89
629.21	45617.04
629.36	45553.85
629.51	45722.37
629.66	46117.92
629.81	45806.62
629.96	45776.20
630.11	45654.49
630.26	45586.61
630.41	45748.11
630.56	45743.43
630.71	45315.11
630.86	45490.65
631.01	45280.00
631.16	45455.54
631.31	45464.91
631.46	45572.57
631.61	45909.61
631.76	45705.98
631.91	45219.15
632.06	45984.51
632.21	45865.14
632.36	45581.93
632.51	45151.27
632.66	45483.63
632.81	45097.44
632.96	45399.37
633.10	45600.66
633.25	45361.92
633.40	45256.60
633.55	45289.37
633.70	45361.92
633.85	44917.22
634.00	44626.99
634.15	44875.09
634.30	44811.90
634.45	45001.48
634.60	45324.47
634.75	45038.93
634.90	44957.01
635.05	44987.44
635.19	44849.35
635.34	44587.21
635.49	44779.13
635.64	44795.51
635.79	44751.04
635.94	44989.78
636.09	44957.01
636.24	44643.38
636.39	44776.79
636.53	44875.09
636.68	44395.28
636.83	44484.22
636.98	44210.38
637.13	44055.90
637.28	44182.29
637.43	43938.88
637.57	44786.15
637.72	44446.77
637.87	44304.00
638.02	44318.04
638.17	44481.88
638.32	44023.14
638.46	43828.87
638.61	43831.21
638.76	44196.34
638.91	44067.61
639.06	43562.05
639.20	43761.00
639.35	44020.80
639.50	43737.59
639.65	44435.07
639.80	44282.94
639.94	44573.16
640.09	44360.17
640.24	44058.24
640.39	43744.61
640.54	43716.53
640.68	44339.11
640.83	44378.90
640.98	43796.10
641.13	44065.27
641.27	44165.91
641.42	44184.63
641.57	43941.22
641.72	43835.89
641.86	43636.95
642.01	43613.54
642.16	43222.67
642.31	43089.26
642.45	43728.23
642.60	43171.18
642.75	43548.01
642.90	43807.81
643.04	43613.54
643.19	43313.95
643.34	43379.49
643.48	42946.49
643.63	43402.89
643.78	43573.75
643.93	43835.89
644.07	43601.84
644.22	43164.16
644.37	43084.58
644.51	43063.52
644.66	43461.41
644.81	43409.92
644.95	43430.98
645.10	43274.16
645.25	42969.90
645.39	42937.13
645.54	43246.08
645.69	43210.97
645.83	42841.17
645.98	43278.85
646.13	42857.55
646.27	42848.19
646.42	42677.33
646.57	43068.20
646.71	42754.57
646.86	43016.71
647.00	43021.39
647.15	43054.15
647.30	43093.94
647.44	42799.04
647.59	42951.17
647.74	42941.81
647.88	42951.17
648.03	43084.58
648.17	42859.89
648.32	42850.53
648.47	43215.65
648.61	42351.99
648.76	42705.41
648.90	43016.71
649.05	42436.25
649.20	42946.49
649.34	42113.26
649.49	42609.45
649.63	42555.62
649.78	42487.74
649.92	43182.88
650.07	43482.47
650.21	42728.82
650.36	42925.42
650.51	42782.65
650.65	42658.60
650.80	42887.98
650.94	42230.29
651.09	42412.85
651.23	42344.97
651.38	42019.64
651.52	42122.62
651.67	42436.25
651.81	42082.83
651.96	41816.01
652.10	41687.28
652.25	42127.30
652.39	41808.99
652.54	41890.91
652.68	41670.90
652.83	41736.43
652.97	42417.53
653.12	41890.91
653.26	41928.36
653.41	41713.03
653.55	42031.34
653.70	42258.37
653.84	42000.91
653.99	41823.03
654.13	41897.93
654.27	41762.18
654.42	41954.10
654.56	41624.09
654.71	41825.37
654.85	41879.21
655.00	41806.65
655.14	41986.87
655.29	41916.65
655.43	41797.29
655.57	41682.60
655.72	41425.14
655.86	41345.56
656.01	41483.66
656.15	41069.38
656.30	41237.90
656.44	41436.84
656.58	41603.02
656.73	41769.20
656.87	41045.97
657.01	41111.51
657.16	41200.45
657.30	41020.23
657.45	40774.47
657.59	40935.97
657.73	40603.61
657.88	41181.73
658.02	41315.14
658.16	41352.58
658.31	40835.33
658.45	40868.09
658.60	40596.59
658.74	40840.01
658.88	41038.95
659.03	41048.32
659.17	40547.44
659.31	40732.34
659.46	40224.45
659.60	40598.93
659.74	40268.92
659.89	40774.47
660.03	39763.36
660.17	40495.95
660.32	40598.93
660.46	40084.01
660.60	40158.91
660.74	40627.02
660.89	40395.31
661.03	39847.62
661.17	39978.69
661.32	39751.66
661.46	39622.93
661.60	39655.70
661.74	39887.41
661.89	39789.11
662.03	39992.73
662.17	39601.86
662.31	39529.31
662.46	39442.71
662.60	39248.44
662.74	39164.18
662.88	39604.20
663.03	39152.48
663.17	39290.57
663.31	39131.42
663.45	39346.75
663.60	39012.05
663.74	39388.88
663.88	38815.44
664.02	39185.25
664.17	39250.78
664.31	38850.55
664.45	38604.80
664.59	38761.61
664.73	38611.82
664.88	38810.76
665.02	38572.03
665.16	38494.79
665.30	38555.64
665.44	38878.64
665.59	38040.73
665.73	37993.92
665.87	37787.95
666.01	38766.29
666.15	38422.23
666.29	38153.07
666.44	38117.96
666.58	37762.20
666.72	37640.50
666.86	37848.80
667.00	37865.19
667.14	38246.69
667.28	37542.19
667.43	37720.07
667.57	37895.61
667.71	37979.87
667.85	38253.72
667.99	37755.18
668.13	37015.57
668.27	37261.33
668.41	37053.02
668.56	36713.64
668.70	36786.20
668.84	36851.73
668.98	36973.44
669.12	36994.51
669.26	36540.44
669.40	37109.19
669.54	36664.49
669.68	37315.16
669.82	36856.42
669.96	36566.19
670.10	36474.91
670.25	36020.84
670.39	36493.63
670.53	36697.26
670.67	36671.51
670.81	36727.69
670.95	36254.90
671.09	36116.81
671.23	35920.20
671.37	36180.00
671.51	36259.58
671.65	35938.93
671.79	35459.12
671.93	35824.24
672.07	35803.17
672.21	35538.69
672.35	35515.29
672.49	35056.54
672.63	35566.78
672.77	35208.68
672.91	35229.74
673.05	35316.34
673.19	34824.83
673.33	35147.82
673.47	34672.70
673.61	34848.24
673.75	34644.61
673.89	34455.03
674.03	34345.02
674.17	34408.22
674.31	33940.11
674.45	33935.43
674.59	34232.68
674.73	33970.54
674.87	34043.09
675.01	33921.38
675.15	33378.38
675.29	33839.47
675.43	33589.03
675.56	33528.17
675.70	33696.69
675.84	33572.64
675.98	32575.58
676.12	33378.38
676.26	33722.44
676.40	32936.02
676.54	32905.59
676.68	32952.40
676.82	32343.86
676.96	32500.68
677.10	32968.79
677.23	32664.52
677.37	32416.42
677.51	32378.97
677.65	32292.37
677.79	32187.05
677.93	32449.19
678.07	31985.76
678.21	32194.07
678.34	32245.56
678.48	31512.97
678.62	31653.40
678.76	31662.77
678.90	31154.87
679.04	31377.22
679.18	31775.11
679.31	31028.48
679.45	31159.55
679.59	31037.84
679.73	30834.22
679.87	30202.27
680.00	30719.53
680.14	31182.96
680.28	30611.87
680.42	30518.25
680.56	29982.26
680.70	29996.31
680.83	29951.84
680.97	30251.42
681.11	29605.44
681.25	29640.54
681.39	29167.76
681.52	29530.54
681.66	29530.54
681.80	28844.76
681.94	28755.82
682.07	29127.97
682.21	29205.20
682.35	28655.18
682.49	29146.69
682.62	28886.89
682.76	28713.69
682.90	28840.08
683.04	28224.52
683.17	28334.53
683.31	28287.71
683.45	28034.94
683.59	28109.83
683.72	27819.61
683.86	27758.75
684.00	28027.92
684.13	27604.28
684.27	27445.12
684.41	27505.98
684.55	27625.34
684.68	27424.06
684.82	26895.10
684.96	26719.56
685.09	27140.85
685.23	26867.01
685.37	27522.36
685.50	27431.08
685.64	27150.21
685.78	26726.58
685.91	26642.32
686.05	26082.93
686.19	26122.72
686.32	26075.91
686.46	26064.21
686.60	25830.15
686.73	26029.10
686.87	25649.93
687.01	25841.85
687.14	25687.38
687.28	25296.51
687.42	25486.09
687.55	25493.12
687.69	25324.60
687.82	25184.16
687.96	25123.31
688.10	24985.22
688.23	25003.94
688.37	25294.17
688.50	24952.45
688.64	24730.10
688.78	24456.26
688.91	24559.24
689.05	24545.20
689.18	24465.62
689.32	24067.73
689.46	24088.79
689.59	23695.58
689.73	24016.24
689.86	24100.50
690.00	24126.24
690.13	23796.23
690.27	23445.15
690.41	23484.94
690.54	23318.76
690.68	23606.64
690.81	23119.81
690.95	23091.73
691.08	22752.35
691.22	22682.13
691.35	23009.81
691.49	23157.26
691.62	22640.00
691.76	22167.21
691.89	22092.32
692.03	22094.66
692.16	22071.25
692.30	21937.84
692.43	21986.99
692.57	21855.92
692.70	21834.86
692.84	21591.44
692.97	21483.78
693.11	21759.96
693.24	21219.30
693.38	21315.26
693.51	21324.62
693.65	21057.80
693.78	21097.59
693.92	20954.82
694.05	21104.61
694.19	20844.81
694.32	20889.28
694.45	20837.79
694.59	21088.23
694.72	20615.44
694.86	20514.80
694.99	20240.95
695.13	19948.39
695.26	19606.67
695.39	19847.74
695.53	19796.25
695.66	19875.83
695.80	19379.64
695.93	19889.87
696.07	19370.27
696.20	19391.34
696.33	18902.17
696.47	19183.03
696.60	19098.77
696.73	19213.46
696.87	19377.30
697.00	18803.86
697.14	18679.82
697.27	18609.60
697.40	18647.05
697.54	18597.90
697.67	18546.40
697.80	18548.75
697.94	18602.58
698.07	18487.89
698.21	18059.57
698.34	18066.60
698.47	17884.03
698.61	17532.95
698.74	17394.86
698.87	17823.18
699.01	17554.02
699.14	17855.95
699.27	17465.08
699.40	17338.69
699.54	17376.14
699.67	17404.22
699.80	17404.22
699.94	17006.33
700.07	17261.45
700.20	17214.64
700.34	17032.08
700.47	17090.59
700.60	17172.51
700.73	16690.36
700.87	16624.83
701.00	16348.64
701.13	16290.13
701.26	16105.23
701.40	16308.85
701.53	16023.31
701.66	16224.59
701.79	16112.25
701.93	15805.64
702.06	15489.67
702.19	15754.15
702.32	15957.77
702.46	15557.54
702.59	15789.25
702.72	15873.51
702.85	15573.92
702.99	15246.25
703.12	15213.48
703.25	15246.25
703.38	15077.73
703.51	15138.58
703.65	15129.22
703.78	14743.03
703.91	14733.67
704.04	14565.15
704.17	14581.54
704.31	14590.90
704.44	14352.16
704.57	14548.77
704.70	14410.68
704.83	14193.01
704.96	14326.42
705.10	14251.52
705.23	13963.64
>>>>>End Processed Spectral Data<<<<<
