SpectraSuite Data File
++++++++++++++++++++++++++++++++++++
Date: Fri Oct 25 10:47:41 EDT 2013
User: price-jones
Dark Spectrum Present: No
Reference Spectrum Present: No
Number of Sampled Component Spectra: 1
Spectrometers: USB2+H05261
Integration Time (usec): 100000 (USB2+H05261)
Spectra Averaged: 1 (USB2+H05261)
Boxcar Smoothing: 0 (USB2+H05261)
Correct for Electrical Dark: No (USB2+H05261)
Strobe/Lamp Enabled: No (USB2+H05261)
Correct for Detector Non-linearity: No (USB2+H05261)
Correct for Stray Light: No (USB2+H05261)
Number of Pixels in Processed Spectrum: 2048
>>>>>Begin Processed Spectral Data<<<<<
365.73	98.30
365.92	98.30
366.12	98.30
366.32	84.26
366.52	0.00
366.72	72.56
366.91	0.00
367.11	46.81
367.31	51.49
367.51	65.54
367.70	37.45
367.90	51.49
368.10	49.15
368.30	32.77
368.49	11.70
368.69	58.51
368.89	93.62
369.09	42.13
369.28	98.30
369.48	0.00
369.68	102.98
369.87	131.07
370.07	102.98
370.27	227.03
370.47	236.39
370.66	355.76
370.86	360.44
371.06	444.70
371.25	423.64
371.45	369.80
371.65	472.79
371.84	444.70
372.04	416.62
372.24	411.93
372.44	449.38
372.63	430.66
372.83	587.47
373.03	634.29
373.22	477.47
373.42	540.66
373.62	559.39
373.81	461.09
374.01	582.79
374.21	470.45
374.40	468.11
374.60	592.16
374.79	503.22
374.99	456.40
375.19	547.69
375.38	622.58
375.58	582.79
375.78	641.31
375.97	564.07
376.17	610.88
376.37	554.71
376.56	592.16
376.76	554.71
376.95	624.92
377.15	669.39
377.35	638.97
377.54	559.39
377.74	634.29
377.93	533.64
378.13	627.26
378.33	671.73
378.52	662.37
378.72	645.99
378.91	631.94
379.11	627.26
379.31	690.46
379.50	564.07
379.70	667.05
379.89	685.78
380.09	692.80
380.28	624.92
380.48	716.20
380.68	660.03
380.87	678.76
381.07	624.92
381.26	657.69
381.46	645.99
381.65	692.80
381.85	613.22
382.04	711.52
382.24	688.12
382.43	683.44
382.63	702.16
382.83	554.71
383.02	676.41
383.22	685.78
383.41	702.16
383.61	634.29
383.80	793.44
384.00	767.70
384.19	777.06
384.39	674.07
384.58	786.42
384.78	748.97
384.97	765.36
385.17	774.72
385.36	793.44
385.56	755.99
385.75	870.68
385.95	763.01
386.14	830.89
386.34	730.25
386.53	826.21
386.72	734.93
386.92	854.30
387.11	802.80
387.31	880.04
387.50	812.17
387.70	866.00
387.89	800.46
388.09	830.89
388.28	823.87
388.48	882.38
388.67	887.06
388.86	905.79
389.06	889.40
389.25	903.45
389.45	933.87
389.64	915.15
389.84	903.45
390.03	908.13
390.22	915.15
390.42	1006.43
390.61	889.40
390.81	954.94
391.00	870.68
391.19	912.81
391.39	1008.77
391.58	936.21
391.78	957.28
391.97	1001.75
392.16	1022.81
392.36	1020.47
392.55	868.34
392.75	976.00
392.94	987.71
393.13	999.41
393.33	999.41
393.52	933.87
393.71	1083.67
393.91	971.32
394.10	1060.26
394.29	1081.33
394.49	1074.31
394.68	1158.57
394.88	1188.99
395.07	1121.12
395.26	1039.20
395.46	1149.20
395.65	1128.14
395.84	1104.73
396.04	1069.62
396.23	1123.46
396.42	1135.16
396.62	1139.84
396.81	1132.82
397.00	1172.61
397.19	1146.86
397.39	1256.87
397.58	1233.46
397.77	1245.16
397.97	1273.25
398.16	1345.81
398.35	1270.91
398.55	1338.79
398.74	1392.62
398.93	1434.75
399.12	1261.55
399.32	1317.72
399.51	1385.60
399.70	1364.53
399.90	1359.85
400.09	1416.02
400.28	1467.52
400.47	1366.87
400.67	1497.94
400.86	1486.24
401.05	1462.83
401.24	1441.77
401.44	1413.68
401.63	1462.83
401.82	1500.28
402.01	1486.24
402.21	1542.41
402.40	1572.84
402.59	1488.58
402.78	1495.60
402.97	1603.27
403.17	1643.06
403.36	1603.27
403.55	1624.33
403.74	1696.89
403.93	1710.93
404.13	1746.04
404.32	1612.63
404.51	1720.29
404.70	1757.74
404.89	1671.14
405.09	1722.63
405.28	1631.35
405.47	1753.06
405.66	1785.83
405.85	1832.64
406.05	1895.83
406.24	1837.32
406.43	1834.98
406.62	1776.47
406.81	1886.47
407.00	1858.39
407.20	1872.43
407.39	1783.49
407.58	1909.88
407.77	1998.82
407.96	2054.99
408.15	2001.16
408.34	1940.30
408.54	2059.67
408.73	2001.16
408.92	1937.96
409.11	1961.37
409.30	2012.86
409.49	2012.86
409.68	2033.93
409.87	2040.95
410.07	2054.99
410.26	2183.72
410.45	2104.14
410.64	2162.66
410.83	2153.29
411.02	2230.53
411.21	2267.98
411.40	2324.15
411.59	2363.94
411.78	2375.64
411.98	2300.75
412.17	2298.41
412.36	2370.96
412.55	2349.90
412.74	2377.98
412.93	2448.20
413.12	2434.16
413.31	2532.46
413.50	2359.26
413.69	2600.34
413.88	2644.81
414.07	2525.44
414.26	2628.42
414.45	2616.72
414.64	2649.49
414.83	2738.43
415.02	2757.15
415.22	2799.28
415.41	2899.92
415.60	2789.92
415.79	2792.26
415.98	2747.79
416.17	2810.98
416.36	2813.32
416.55	2864.82
416.74	2911.63
416.93	2923.33
417.12	3012.27
417.31	3087.17
417.50	2937.37
417.69	3042.70
417.88	3028.65
418.07	3033.33
418.26	3094.19
418.45	3026.31
418.64	3119.93
418.83	3122.27
419.02	3274.41
419.21	3351.65
419.39	3162.06
419.58	3084.83
419.77	3138.66
419.96	3304.84
420.15	3300.16
420.34	3344.63
420.53	3382.07
420.72	3372.71
420.91	3433.57
421.10	3410.16
421.29	3375.05
421.48	3290.79
421.67	3433.57
421.86	3274.41
422.05	3412.50
422.24	3454.63
422.43	3471.01
422.61	3480.38
422.80	3527.19
422.99	3466.33
423.18	3557.61
423.37	3520.17
423.56	3459.31
423.75	3454.63
423.94	3576.34
424.13	3328.24
424.32	3361.01
424.50	3595.06
424.69	3660.60
424.88	3602.08
425.07	3550.59
425.26	3487.40
425.45	3433.57
425.64	3445.27
425.83	3536.55
426.01	3557.61
426.20	3597.40
426.39	3688.68
426.58	3648.90
426.77	3632.51
426.96	3716.77
427.15	3744.86
427.33	3754.22
427.52	3679.32
427.71	3794.01
427.90	3880.61
428.09	3660.60
428.28	3798.69
428.46	3796.35
428.65	3644.21
428.84	3936.78
429.03	3735.50
429.22	3833.80
429.40	3648.90
429.59	3684.00
429.78	3595.06
429.97	3634.85
430.16	3712.09
430.34	3866.56
430.53	3789.33
430.72	3852.52
430.91	3985.93
431.10	3939.12
431.28	3948.48
431.47	4131.05
431.66	4145.09
431.85	4135.73
432.03	4217.65
432.22	4243.39
432.41	4194.24
432.60	4119.34
432.79	4320.63
432.97	4367.44
433.16	4257.43
433.35	4248.07
433.54	4269.14
433.72	4369.78
433.91	4259.78
434.10	4423.61
434.28	4344.03
434.47	4255.09
434.66	4526.60
434.85	4524.26
435.03	4442.34
435.22	4435.32
435.41	4566.39
435.59	4514.89
435.78	4660.01
435.97	4596.81
436.16	4676.39
436.34	4685.75
436.53	4753.63
436.72	4746.61
436.90	4671.71
437.09	4655.33
437.28	4699.80
437.46	4821.50
437.65	4755.97
437.84	4755.97
438.02	4737.24
438.21	4826.18
438.40	4741.93
438.58	4973.64
438.77	4851.93
438.96	4837.89
439.14	5081.30
439.33	5109.39
439.52	4964.28
439.70	5090.67
439.89	5135.14
440.08	5172.58
440.26	5273.23
440.45	5163.22
440.63	5247.48
440.82	5423.02
441.01	5362.17
441.19	5511.96
441.38	5633.67
441.57	5612.60
441.75	5390.25
441.94	5619.63
442.12	5694.52
442.31	5612.60
442.50	5563.45
442.68	5703.89
442.87	5678.14
443.05	5823.25
443.24	5729.63
443.43	5584.52
443.61	5844.32
443.80	5846.66
443.98	5706.23
444.17	5621.97
444.35	5816.23
444.54	5898.15
444.73	5921.56
444.91	5792.83
445.10	5818.57
445.28	5867.72
445.47	5610.26
445.65	5795.17
445.84	5923.90
446.02	6059.65
446.21	5984.75
446.39	5940.28
446.58	5942.62
446.77	5991.77
446.95	5916.87
447.14	5991.77
447.32	6087.73
447.51	5996.45
447.69	6043.26
447.88	5935.60
448.06	5984.75
448.25	6129.86
448.43	6026.88
448.62	6033.90
448.80	5937.94
448.99	6061.99
449.17	6167.31
449.36	6150.93
449.54	6195.40
449.73	6370.94
449.91	6359.24
450.10	6483.28
450.28	6544.14
450.46	6541.80
450.65	6502.01
450.83	6665.85
451.02	6413.07
451.20	6492.65
451.39	6403.71
451.57	6293.70
451.76	6459.88
451.94	6548.82
452.13	6520.73
452.31	6544.14
452.49	6420.09
452.68	6558.18
452.86	6377.96
453.05	6558.18
453.23	6759.47
453.42	6471.58
453.60	6686.91
453.78	6700.95
453.97	6635.42
454.15	6689.25
454.34	6710.32
454.52	6766.49
454.70	6499.67
454.89	6729.04
455.07	6944.37
455.26	6836.70
455.44	6766.49
455.62	6832.02
455.81	6864.79
455.99	6944.37
456.17	7164.38
456.36	7030.97
456.54	7148.00
456.73	7171.40
456.91	7323.54
457.09	7346.94
457.28	7459.29
457.46	7297.79
457.64	7325.88
457.83	7208.85
458.01	7192.47
458.19	7545.89
458.38	7337.58
458.56	7489.71
458.74	7468.65
458.93	7447.58
459.11	7461.63
459.29	7414.82
459.48	7522.48
459.66	7398.43
459.84	7620.78
460.03	7564.61
460.21	7686.32
460.39	7723.77
460.57	7691.00
460.76	7782.28
460.94	7882.92
461.12	7737.81
461.31	7641.85
461.49	7625.47
461.67	7889.95
461.85	7943.78
462.04	7798.66
462.22	8355.71
462.40	7969.52
462.59	8025.70
462.77	7925.05
462.95	8114.64
463.13	8067.83
463.32	8198.90
463.50	7939.10
463.68	8306.56
463.86	8035.06
464.05	8109.96
464.23	8140.38
464.41	8100.59
464.59	8257.41
464.78	8299.54
464.96	8217.62
465.14	8107.62
465.32	8379.12
465.50	8395.50
465.69	8461.04
465.87	8484.44
466.05	8482.10
466.23	8182.51
466.41	8475.08
466.60	8650.62
466.78	8311.24
466.96	8320.60
467.14	8559.34
467.32	8627.21
467.51	8571.04
467.69	8510.19
467.87	8664.66
468.05	8674.03
468.23	8549.98
468.41	8526.57
468.60	8564.02
468.78	8423.59
468.96	8596.79
469.14	8837.86
469.32	9013.40
469.50	8533.59
469.69	8865.95
469.87	8856.59
470.05	8966.59
470.23	9043.83
470.41	9114.05
470.59	9298.95
470.77	8990.00
470.95	9085.96
471.14	9231.07
471.32	9107.02
471.50	9462.79
471.68	9596.20
471.86	9371.50
472.04	9226.39
472.22	9465.13
472.40	9331.72
472.58	9673.43
472.77	9516.62
472.95	9617.26
473.13	9942.60
473.31	9444.06
473.49	9804.50
473.67	9458.10
473.85	9879.40
474.03	9919.19
474.21	9958.98
474.39	10122.82
474.57	10228.14
474.75	10197.71
474.93	10083.03
475.12	10176.65
475.30	10267.93
475.48	10148.56
475.66	10422.41
475.84	10394.32
476.02	10497.30
476.20	10509.01
476.38	10726.68
476.56	10626.03
476.74	10871.79
476.92	10878.81
477.10	10813.28
477.28	10839.02
477.46	11136.27
477.64	11082.44
477.82	11246.27
478.00	11398.41
478.18	11494.37
478.36	11492.03
478.54	11501.39
478.72	11442.88
478.90	11569.27
479.08	11819.71
479.26	11868.86
479.44	12149.72
479.62	12063.12
479.80	12084.19
479.98	12372.07
480.16	12376.75
480.34	12030.35
480.52	12575.70
480.70	12456.33
480.88	12332.28
481.06	12641.23
481.24	12744.22
481.41	12844.86
481.59	13186.58
481.77	13104.66
481.95	12985.29
482.13	13324.67
482.31	13322.33
482.49	13614.90
482.67	13408.93
482.85	13554.04
483.03	14080.66
483.21	13937.89
483.39	14068.96
483.57	14494.94
483.74	14125.13
483.92	14490.26
484.10	14340.46
484.28	14548.77
484.46	14689.20
484.64	15161.99
484.82	14930.28
485.00	15056.67
485.18	15030.92
485.35	15241.57
485.53	14843.68
485.71	15021.56
485.89	15133.90
486.07	15440.51
486.25	15452.22
486.43	15573.92
486.61	15927.35
486.78	15763.51
486.96	15864.15
487.14	16343.96
487.32	16482.05
487.50	16566.31
487.68	16922.07
487.85	16842.50
488.03	17195.92
488.21	16936.12
488.39	16940.80
488.57	17205.28
488.75	17497.84
488.92	17860.63
489.10	17642.96
489.28	17455.72
489.46	17951.91
489.64	18120.43
489.81	18480.87
489.99	18403.63
490.17	18354.48
490.35	18726.63
490.53	18661.09
490.70	19028.56
490.88	18845.99
491.06	18977.06
491.24	19506.02
491.41	19262.61
491.59	19295.38
491.77	19372.61
491.95	19840.72
492.13	19398.36
492.30	20170.74
492.48	20140.31
492.66	20006.90
492.84	20081.80
493.01	20428.20
493.19	20430.54
493.37	20769.91
493.54	20779.28
493.72	20786.30
493.90	20746.51
494.08	21303.56
494.25	21465.05
494.43	21418.24
494.61	21631.23
494.79	21734.21
494.96	21390.16
495.14	21633.57
495.32	21759.96
495.49	22019.76
495.67	22043.17
495.85	22008.06
496.02	22324.03
496.20	22635.32
496.38	22511.27
496.55	22288.92
496.73	23021.51
496.91	22836.61
497.09	23136.20
497.26	23080.02
497.44	22963.00
497.62	23482.59
497.79	23653.45
497.97	23197.05
498.14	23424.08
498.32	23859.42
498.50	23894.53
498.67	24093.47
498.85	23768.14
499.03	24217.52
499.20	24409.45
499.38	24411.79
499.56	24364.98
499.73	24517.11
499.91	24893.94
500.08	24968.84
500.26	24797.98
500.44	24779.25
500.61	25003.94
500.79	24907.98
500.97	24978.20
501.14	25359.70
501.32	25546.95
501.49	25214.59
501.67	25418.22
501.84	25593.76
502.02	25537.59
502.20	25755.26
502.37	26106.34
502.55	25493.12
502.72	25989.31
502.90	26178.89
503.07	25851.22
503.25	26160.17
503.43	26216.34
503.60	26375.50
503.78	26209.32
503.95	26118.04
504.13	26141.44
504.30	26808.50
504.48	26731.26
504.65	27033.19
504.83	27070.64
505.01	27204.05
505.18	26995.74
505.36	27150.21
505.53	27321.07
505.71	27672.15
505.88	27686.20
506.06	27358.52
506.23	27391.29
506.41	27353.84
506.58	27672.15
506.76	27620.66
506.93	28065.36
507.11	27854.72
507.28	28158.99
507.46	28208.14
507.63	28084.09
507.81	28175.37
507.98	27840.67
508.16	28451.55
508.33	28631.77
508.50	28603.69
508.68	28779.23
508.85	29081.16
509.03	28758.16
509.20	29118.60
509.38	29486.07
509.55	29249.67
509.73	29364.36
509.90	29366.70
510.08	28903.28
510.25	29769.27
510.42	29277.76
510.60	29408.83
510.77	29942.47
510.95	29479.05
511.12	29462.66
511.30	29743.53
511.47	30368.45
511.64	30096.95
511.82	30375.47
511.99	29888.64
512.17	30169.51
512.34	30471.43
512.51	30307.60
512.69	30408.24
512.86	30775.70
513.04	31049.55
513.21	30731.23
513.38	30696.13
513.56	30979.33
513.73	31026.14
513.90	31016.78
514.08	30658.68
514.25	31281.26
514.43	31178.28
514.60	30939.54
514.77	31199.34
514.95	31559.78
515.12	31367.86
515.29	31517.65
515.47	31859.37
515.64	31812.56
515.81	31288.28
515.99	31913.20
516.16	31960.02
516.33	31988.10
516.51	32236.20
516.68	32006.83
516.85	31557.44
517.03	32009.17
517.20	31702.56
517.37	32512.38
517.54	32285.35
517.72	32194.07
517.89	32423.44
518.06	32233.86
518.24	32304.07
518.41	32416.42
518.58	32411.74
518.75	32643.45
518.93	33001.55
519.10	32868.14
519.27	33013.26
519.45	33069.43
519.62	33675.63
519.79	33214.54
519.96	33163.05
520.14	33507.11
520.31	33450.94
520.48	33703.71
520.65	33598.39
520.83	33834.78
521.00	33680.31
521.17	33649.88
521.34	33731.80
521.52	33893.30
521.69	34125.01
521.86	34338.00
522.03	33785.63
522.20	33844.15
522.38	34424.60
522.55	34029.05
522.72	34422.26
522.89	34256.08
523.07	34693.76
523.24	34387.15
523.41	34775.68
523.58	34440.98
523.75	35196.98
523.92	34902.07
524.10	34838.87
524.27	34829.51
524.44	35079.95
524.61	35285.92
524.78	34883.34
524.96	35276.55
525.13	35185.27
525.30	35644.02
525.47	35859.35
525.64	35501.25
525.81	35763.39
525.98	35601.89
526.16	35786.79
526.33	35515.29
526.50	35894.46
526.67	35608.91
526.84	35749.34
527.01	35473.16
527.18	36048.93
527.36	36158.94
527.53	35983.40
527.70	36566.19
527.87	36126.17
528.04	36156.60
528.21	36257.24
528.38	36334.48
528.55	36943.02
528.72	36538.10
528.89	37277.71
529.07	36187.02
529.24	36545.12
529.41	36692.58
529.58	36641.09
529.75	36594.28
529.92	37151.32
530.09	36690.24
530.26	37083.45
530.43	37315.16
530.60	37347.93
530.77	37160.69
530.94	37254.31
531.11	37099.83
531.28	37001.53
531.46	37610.07
531.63	37298.78
531.80	37523.47
531.97	37397.08
532.14	37427.51
532.31	37420.48
532.48	37359.63
532.65	37841.78
532.82	37507.08
532.99	37787.95
533.16	37642.84
533.33	37324.52
533.50	38132.01
533.67	38024.34
533.84	37825.40
534.01	37715.39
534.18	37968.17
534.35	38155.41
534.52	38742.89
534.69	38621.18
534.86	38679.69
535.03	38309.89
535.20	38405.85
535.37	38675.01
535.54	38726.50
535.71	38443.30
535.88	38370.74
536.05	38897.36
536.22	38480.75
536.38	38663.31
536.55	38700.76
536.72	38885.66
536.89	38506.49
537.06	39112.69
537.23	39168.87
537.40	38862.26
537.57	38754.59
537.74	39131.42
537.91	39030.77
538.08	39445.05
538.25	39126.74
538.42	39442.71
538.59	39491.86
538.75	38983.96
538.92	39337.38
539.09	39445.05
539.26	39161.84
539.43	39562.08
539.60	39477.82
539.77	39557.39
539.94	39627.61
540.11	39328.02
540.28	39622.93
540.44	39526.97
540.61	39772.72
540.78	39421.64
540.95	39512.92
541.12	39608.89
541.29	39828.90
541.46	39761.02
541.62	39789.11
541.79	40336.79
541.96	39929.54
542.13	40006.78
542.30	40105.08
542.47	39950.60
542.63	39917.84
542.80	39917.84
542.97	40685.53
543.14	40872.78
543.31	40364.88
543.48	40484.25
543.64	41514.08
543.81	40666.81
543.98	40849.37
544.15	40720.64
544.32	40692.55
544.48	41064.70
544.65	41013.21
544.82	41401.74
544.99	40573.19
545.16	40926.61
545.32	40898.52
545.49	41537.49
545.66	41521.10
545.83	41467.27
546.00	41097.47
546.16	41593.66
546.33	41514.08
546.50	40797.88
546.67	41425.14
546.83	40989.80
547.00	41488.34
547.17	41081.08
547.34	41273.01
547.50	41474.29
547.67	41471.95
547.84	41804.31
548.00	41911.97
548.17	41811.33
548.34	41457.91
548.51	41851.12
548.67	41942.40
548.84	42295.82
549.01	41820.69
549.18	42010.28
549.34	41675.58
549.51	42106.24
549.68	41514.08
549.84	42080.49
550.01	41722.39
550.18	42185.82
550.34	41933.04
550.51	42029.00
550.68	42157.73
550.84	42014.96
551.01	41860.48
551.18	41839.42
551.34	42094.53
551.51	42459.66
551.68	42349.65
551.84	42508.81
552.01	42487.74
552.18	42068.79
552.34	42389.44
552.51	42270.08
552.68	42693.71
552.84	42726.48
553.01	42550.94
553.18	42827.12
553.34	42557.96
553.51	42347.31
553.67	42838.83
553.84	43110.33
554.01	43105.65
554.17	43143.09
554.34	43264.80
554.51	42883.30
554.67	43290.55
554.84	42990.96
555.00	42862.23
555.17	42518.17
555.33	42834.14
555.50	42674.99
555.67	42953.51
555.83	42782.65
556.00	43206.29
556.16	43903.77
556.33	43217.99
556.50	42794.36
556.66	43496.52
556.83	42911.38
556.99	43475.45
557.16	43278.85
557.32	43363.11
557.49	43129.05
557.65	42974.58
557.82	43173.52
557.98	43159.48
558.15	43264.80
558.32	43707.16
558.48	43166.50
558.65	43089.26
558.81	43423.96
558.98	43732.91
559.14	43199.27
559.31	43793.76
559.47	43063.52
559.64	43723.55
559.80	43817.17
559.97	43962.28
560.13	43459.07
560.30	43335.02
560.46	43789.08
560.63	43931.86
560.79	43945.90
560.96	43782.06
561.12	43470.77
561.29	43672.06
561.45	43653.33
561.61	44093.35
561.78	43622.90
561.94	43959.94
562.11	43679.08
562.27	43782.06
562.44	43990.37
562.60	43906.11
562.77	44189.31
562.93	43835.89
563.10	44341.45
563.26	44013.77
563.42	44032.50
563.59	44149.53
563.75	44128.46
563.92	44011.43
564.08	44062.93
564.24	43873.34
564.41	44116.76
564.57	43948.24
564.74	44266.55
564.90	44107.40
565.07	43957.60
565.23	44179.95
565.39	44292.30
565.56	44170.59
565.72	43922.49
565.88	44435.07
566.05	44020.80
566.21	44133.14
566.38	43983.35
566.54	44051.22
566.70	44102.71
566.87	44704.23
567.03	43999.73
567.19	44690.19
567.36	44521.67
567.52	44142.50
567.68	44636.36
567.85	44271.23
568.01	44486.56
568.17	44280.60
568.34	44547.42
568.50	44273.57
568.66	44268.89
568.83	44809.56
568.99	44282.94
569.15	44294.64
569.32	44177.61
569.48	44205.70
569.64	44687.85
569.81	44931.26
569.97	44493.58
570.13	44727.64
570.30	44566.14
570.46	44016.11
570.62	44339.11
570.78	44306.34
570.95	44549.76
571.11	44697.21
571.27	44257.19
571.43	44559.12
571.60	44648.06
571.76	44294.64
571.92	44655.08
572.09	44589.55
572.25	44079.31
572.41	44708.91
572.57	44463.16
572.74	44954.67
572.90	44900.84
573.06	44699.55
573.22	44596.57
573.38	44357.83
573.55	44676.15
573.71	44858.71
573.87	44596.57
574.03	44292.30
574.20	44069.95
574.36	44851.69
574.52	44624.65
574.68	44629.34
574.84	44655.08
575.01	44760.40
575.17	44945.31
575.33	44554.44
575.49	44278.25
575.65	45284.68
575.82	44837.64
575.98	44912.54
576.14	45036.59
576.30	44612.95
576.46	44582.52
576.62	44467.84
576.79	44465.50
576.95	44329.75
577.11	44540.39
577.27	44442.09
577.43	44739.34
577.59	45198.09
577.75	44395.28
577.92	44509.97
578.08	44313.36
578.24	44481.88
578.40	44767.43
578.56	44863.39
578.72	44744.02
578.88	44767.43
579.04	44797.85
579.21	44629.34
579.37	44678.49
579.53	44346.13
579.69	44416.35
579.85	44559.12
580.01	44797.85
580.17	44795.51
580.33	44851.69
580.49	44905.52
580.65	45221.49
580.82	44641.04
580.98	44432.73
581.14	44931.26
581.30	44636.36
581.46	44830.62
581.62	44643.38
581.78	45024.89
581.94	45191.06
582.10	44580.18
582.26	45324.47
582.42	44818.92
582.58	44755.72
582.74	45013.18
582.90	44856.37
583.06	44966.37
583.22	45226.17
583.38	45085.74
583.54	44825.94
583.70	44835.30
583.86	44790.83
584.02	44449.11
584.18	44425.71
584.34	44802.53
584.50	45041.27
584.66	44430.39
584.82	44502.95
584.98	45038.93
585.14	44708.91
585.30	45088.08
585.46	44835.30
585.62	44343.79
585.78	44568.48
585.94	44645.72
586.10	44484.22
586.26	44823.60
586.42	44999.14
586.58	44849.35
586.74	44884.45
586.90	44694.87
587.06	44612.95
587.22	44975.73
587.38	44847.00
587.54	45207.45
587.70	45064.67
587.86	45106.80
588.02	45111.49
588.18	44952.33
588.34	44790.83
588.49	44748.70
588.65	45001.48
588.81	44299.32
588.97	44472.52
589.13	44222.08
589.29	44837.64
589.45	44861.05
589.61	44823.60
589.77	45226.17
589.93	45160.64
590.08	45195.74
590.24	45207.45
590.40	45223.83
590.56	45158.30
590.72	45308.09
590.88	45240.21
591.04	45074.04
591.20	45418.10
591.35	45462.57
591.51	45588.95
591.67	45359.58
591.83	45291.71
591.99	45162.98
592.15	44858.71
592.31	45017.86
592.46	45069.36
592.62	45284.68
592.78	45137.23
592.94	45130.21
593.10	45446.18
593.26	45511.72
593.41	45221.49
593.57	45139.57
593.73	45418.10
593.89	45221.49
594.05	45031.91
594.20	45120.85
594.36	45415.76
594.52	45483.63
594.68	45022.54
594.84	45109.14
594.99	45677.90
595.15	44987.44
595.31	45368.94
595.47	45399.37
595.62	45560.87
595.78	44893.82
595.94	45237.87
596.10	45701.30
596.25	45492.99
596.41	45361.92
596.57	45017.86
596.73	45584.27
596.88	45059.99
597.04	45052.97
597.20	45755.13
597.36	45298.73
597.51	45471.93
597.67	45881.52
597.83	45378.31
597.99	45705.98
598.14	45467.25
598.30	45375.97
598.46	45200.43
598.61	45249.58
598.77	44718.28
598.93	45469.59
599.09	45167.66
599.24	45790.24
599.40	45052.97
599.56	45642.79
599.71	44928.92
599.87	45652.15
600.03	45214.47
600.18	45261.28
600.34	45301.07
600.50	45172.34
600.65	44739.34
600.81	45574.91
600.97	45572.57
601.12	45715.34
601.28	45635.77
601.44	44978.07
601.59	45769.18
601.75	44910.20
601.91	45507.04
602.06	45457.88
602.22	45408.73
602.37	45450.86
602.53	45352.56
602.69	45544.48
602.84	45621.72
603.00	45256.60
603.16	45254.26
603.31	45010.84
603.47	44992.12
603.62	44964.03
603.78	45434.48
603.94	45237.87
604.09	45247.24
604.25	45359.58
604.40	45240.21
604.56	45228.51
604.71	45614.70
604.87	45275.32
605.03	44989.78
605.18	45202.77
605.34	45106.80
605.49	44877.43
605.65	45160.64
605.80	44821.26
605.96	45291.71
606.12	45202.77
606.27	45308.09
606.43	45181.70
606.58	44949.99
606.74	44905.52
606.89	45198.09
607.05	44938.29
607.20	45071.70
607.36	45375.97
607.51	45315.11
607.67	45425.12
607.82	44825.94
607.98	45139.57
608.13	44917.22
608.29	44722.96
608.44	45024.89
608.60	44238.47
608.75	44552.10
608.91	44732.32
609.06	45179.36
609.22	45076.38
609.37	44896.16
609.53	44889.13
609.68	44788.49
609.84	44823.60
609.99	44935.95
610.15	44624.65
610.30	44694.87
610.46	44343.79
610.61	44409.32
610.76	44802.53
610.92	44933.60
611.07	44741.68
611.23	44423.37
611.38	44832.96
611.54	44397.62
611.69	44416.35
611.84	44634.02
612.00	44797.85
612.15	44409.32
612.31	44687.85
612.46	44311.02
612.62	44341.45
612.77	44495.92
612.92	45170.00
613.08	44491.24
613.23	44362.51
613.39	44460.82
613.54	44144.84
613.69	44172.93
613.85	44486.56
614.00	44601.25
614.15	44224.42
614.31	44626.99
614.46	44641.04
614.62	43889.73
614.77	44545.08
614.92	43988.03
615.08	43887.39
615.23	44182.29
615.38	44378.90
615.54	43910.79
615.69	43959.94
615.84	44053.56
616.00	44013.77
616.15	43838.23
616.30	44112.08
616.46	43789.08
616.61	44133.14
616.76	43711.84
616.92	43772.70
617.07	43676.74
617.22	43503.54
617.37	43702.48
617.53	44093.35
617.68	44081.65
617.83	44046.54
617.99	44098.03
618.14	43761.00
618.29	43770.36
618.45	43143.09
618.60	43613.54
618.75	43910.79
618.90	43784.40
619.06	44069.95
619.21	43468.43
619.36	43908.45
619.51	43658.01
619.67	43533.96
619.82	44011.43
619.97	43725.89
620.12	43587.80
620.28	42850.53
620.43	43222.67
620.58	43508.22
620.73	43538.65
620.89	43150.12
621.04	43634.61
621.19	43433.32
621.34	43143.09
621.49	42897.34
621.65	42859.89
621.80	43393.53
621.95	42642.22
622.10	43351.40
622.25	43030.75
622.41	42813.08
622.56	43206.29
622.71	42873.93
622.86	42960.53
623.01	43667.37
623.16	43152.46
623.32	43559.71
623.47	43578.43
623.62	43381.83
623.77	43007.34
623.92	43384.17
624.07	42562.64
624.23	42506.47
624.38	42789.67
624.53	42906.70
624.68	42948.83
624.83	42553.28
624.98	42873.93
625.13	42527.53
625.29	42321.57
625.44	42550.94
625.59	42597.75
625.74	42234.97
625.89	42256.03
626.04	42440.93
626.19	42232.63
626.34	42609.45
626.49	42738.18
626.65	42368.38
626.80	42843.51
626.95	42342.63
627.10	42466.68
627.25	41916.65
627.40	42033.68
627.55	42127.30
627.70	41560.89
627.85	41518.76
628.00	42099.22
628.15	42356.67
628.30	42082.83
628.45	42534.56
628.60	42192.84
628.76	42351.99
628.91	41834.74
629.06	41820.69
629.21	42174.11
629.36	41860.48
629.51	41659.20
629.66	41476.63
629.81	41928.36
629.96	41656.85
630.11	41717.71
630.26	42040.70
630.41	41661.54
630.56	41734.09
630.71	41532.81
630.86	41752.82
631.01	41783.24
631.16	41549.19
631.31	41291.73
631.46	41373.65
631.61	41841.76
631.76	41808.99
631.91	41670.90
632.06	41588.98
632.21	41120.87
632.36	41268.33
632.51	41179.39
632.66	41586.64
632.81	40980.44
632.96	41539.83
633.10	40849.37
633.25	40832.99
633.40	40999.16
633.55	41443.87
633.70	41172.36
633.85	41436.84
634.00	41188.75
634.15	41359.61
634.30	40994.48
634.45	41357.27
634.60	41504.72
634.75	41205.13
634.90	41251.94
635.05	41097.47
635.19	41319.82
635.34	41193.43
635.49	41088.10
635.64	41113.85
635.79	40753.41
635.94	40399.99
636.09	40907.88
636.24	40669.15
636.39	40414.03
636.53	40404.67
636.68	40563.82
636.83	40598.93
636.98	40687.87
637.13	40044.23
637.28	40416.37
637.43	40664.47
637.57	40722.98
637.72	40566.16
637.87	40418.71
638.02	40353.18
638.17	40474.88
638.32	40486.59
638.46	40332.11
638.61	40280.62
638.76	40191.68
638.91	40222.11
639.06	40020.82
639.20	40336.79
639.35	40636.38
639.50	40156.57
639.65	40446.80
639.80	40224.45
639.94	39945.92
640.09	40208.06
640.24	39995.07
640.39	39910.82
640.54	39959.97
640.68	39971.67
640.83	39739.96
640.98	39828.90
641.13	40147.21
641.27	39810.17
641.42	39901.45
641.57	40271.26
641.72	39770.38
641.86	39831.24
642.01	39496.54
642.16	39573.78
642.31	39157.16
642.45	39718.89
642.60	39789.11
642.75	39297.59
642.90	39264.83
643.04	39323.34
643.19	39510.58
643.34	39489.52
643.48	39653.36
643.63	39538.67
643.78	39173.55
643.93	39157.16
644.07	39023.75
644.22	39007.37
644.37	39152.48
644.51	39395.90
644.66	39365.47
644.81	39250.78
644.95	39255.46
645.10	39721.23
645.25	39440.37
645.39	39363.13
645.54	39449.73
645.69	39164.18
645.83	38820.13
645.98	39250.78
646.13	39248.44
646.27	39112.69
646.42	39112.69
646.57	39058.86
646.71	39133.76
646.86	39299.94
647.00	39037.80
647.15	38934.81
647.30	39353.77
647.44	38866.94
647.59	39309.30
647.74	38649.27
647.88	38665.65
648.03	38717.14
648.17	38785.02
648.32	38410.53
648.47	38806.08
648.61	38759.27
648.76	38731.18
648.90	38794.38
649.05	38581.39
649.20	38911.41
649.34	38768.63
649.49	38602.46
649.63	38389.47
649.78	38260.74
649.92	38195.20
650.07	38717.14
650.21	38522.88
650.36	38494.79
650.51	38272.44
650.65	38920.77
650.80	39129.08
650.94	38710.12
651.09	38499.47
651.23	38150.73
651.38	38136.69
651.52	38120.31
651.67	38117.96
651.81	38206.90
651.96	37998.60
652.10	37904.98
652.25	37481.34
652.39	37460.27
652.54	37872.21
652.68	37684.97
652.83	37635.81
652.97	38129.67
653.12	37759.86
653.26	37811.35
653.41	38206.90
653.55	37666.24
653.70	37656.88
653.84	37471.98
653.99	37560.92
654.13	37818.38
654.27	37474.32
654.42	37776.25
654.56	37745.82
654.71	37776.25
654.85	37776.25
655.00	37560.92
655.14	37455.59
655.29	36858.76
655.43	37605.39
655.57	36825.99
655.72	37233.24
655.86	37626.45
656.01	37308.14
656.15	37120.90
656.30	37481.34
656.44	37057.70
656.58	37120.90
656.73	37261.33
656.87	36774.50
657.01	36952.38
657.16	36708.96
657.30	36776.84
657.45	36540.44
657.59	36797.90
657.73	36877.48
657.88	36886.84
658.02	36851.73
658.16	36870.46
658.31	37319.84
658.45	36950.04
658.60	36994.51
658.74	37130.26
658.88	37074.09
659.03	36278.30
659.17	36793.22
659.31	36563.85
659.46	36109.78
659.60	36390.65
659.74	36624.70
659.89	36189.36
660.03	36320.43
660.17	36458.52
660.32	36437.46
660.46	36416.40
660.60	36428.10
660.74	36079.36
660.89	36282.98
661.03	35948.29
661.17	35768.07
661.32	35775.09
661.46	35700.19
661.60	35721.26
661.74	36229.15
661.89	35838.28
662.03	35534.01
662.17	35608.91
662.31	35529.33
662.46	35887.43
662.60	35725.94
662.74	35777.43
662.88	35302.30
663.03	35316.34
663.17	35534.01
663.31	35337.41
663.45	35061.22
663.60	35222.72
663.74	35283.58
663.88	34766.32
664.02	35501.25
664.17	34831.85
664.31	34768.66
664.45	34857.60
664.59	34927.81
664.73	35510.61
664.88	34934.84
665.02	34459.71
665.16	34581.42
665.30	34396.51
665.44	34792.06
665.59	34174.16
665.73	34445.66
665.87	34553.33
666.01	34153.10
666.15	34169.48
666.29	34206.93
666.44	34277.15
666.58	34548.65
666.72	34323.96
666.86	34326.30
667.00	34206.93
667.14	33975.22
667.28	34047.77
667.43	33195.82
667.57	34134.37
667.71	33724.78
667.85	33780.95
667.99	33352.63
668.13	33202.84
668.27	33439.23
668.41	33479.02
668.56	33109.22
668.70	33181.77
668.84	33603.07
668.98	33191.14
669.12	33366.68
669.26	32975.81
669.40	33289.44
669.54	33034.32
669.68	33184.12
669.82	33188.80
669.96	32844.74
670.10	32917.29
670.25	32730.05
670.39	32641.11
670.53	32833.04
670.67	32479.61
670.81	32907.93
670.95	32975.81
671.09	32329.82
671.23	32896.23
671.37	32584.94
671.51	32165.98
671.65	32388.33
671.79	32170.66
671.93	31920.23
672.07	32381.31
672.21	32203.43
672.35	31620.64
672.49	31613.62
672.63	31931.93
672.77	31573.83
672.91	31508.29
673.05	31810.22
673.19	31555.10
673.33	31936.61
673.47	31793.84
673.61	31234.45
673.75	31225.09
673.89	30726.55
674.03	30780.39
674.17	31030.82
674.31	31637.02
674.45	30829.54
674.59	31089.34
674.73	31398.29
674.87	30803.79
675.01	30841.24
675.15	31143.17
675.29	30735.92
675.43	30789.75
675.56	30895.07
675.70	30607.19
675.84	30426.96
675.98	29120.95
676.12	29991.62
676.26	30190.57
676.40	30029.07
676.54	29907.37
676.68	30113.33
676.82	29242.65
676.96	29607.78
677.10	29521.18
677.23	29575.01
677.37	29649.91
677.51	29500.11
677.65	29769.27
677.79	28964.13
677.93	29102.22
678.07	29294.14
678.21	28545.17
678.34	28758.16
678.48	28512.41
678.62	28444.53
678.76	28341.55
678.90	28044.30
679.04	28158.99
679.18	28154.30
679.31	28149.62
679.45	27857.06
679.59	27477.89
679.73	27681.52
679.87	27997.49
680.00	27669.81
680.14	27426.40
680.28	27618.32
680.42	27445.12
680.56	27339.80
680.70	27370.22
680.83	27129.15
680.97	27262.56
681.11	27028.51
681.25	26927.86
681.39	26831.90
681.52	26939.57
681.66	26581.46
681.80	26513.59
681.94	26604.87
682.07	26466.78
682.21	26293.58
682.35	26206.98
682.49	26354.43
682.62	26492.52
682.76	26036.12
682.90	25895.69
683.04	25993.99
683.17	26314.64
683.31	25858.24
683.45	25626.53
683.59	25951.86
683.72	25418.22
683.86	25280.13
684.00	25329.28
684.13	25247.36
684.27	25656.95
684.41	25352.68
684.55	25137.35
684.68	24882.24
684.82	24964.15
684.96	24711.38
685.09	24580.31
685.23	24809.68
685.37	24704.35
685.50	24350.93
685.64	24072.41
685.78	24327.53
685.91	24496.05
686.05	24095.82
686.19	23702.61
686.32	23924.96
686.46	23653.45
686.60	23489.62
686.73	23276.63
686.87	23129.17
687.01	23435.78
687.14	23278.97
687.28	23016.83
687.42	23318.76
687.55	23115.13
687.69	22778.09
687.82	23267.27
687.96	22951.29
688.10	22693.83
688.23	22675.11
688.37	22625.96
688.50	22192.96
688.64	22405.95
688.78	22324.03
688.91	22164.87
689.05	22298.28
689.18	22017.42
689.32	21659.32
689.46	21692.08
689.59	22333.39
689.73	22277.22
689.86	21916.78
690.00	21696.77
690.13	21568.04
690.27	21563.36
690.41	21640.59
690.54	20908.01
690.68	21160.78
690.81	21135.04
690.95	20889.28
691.08	21008.65
691.22	21195.89
691.35	20961.84
691.49	21003.97
691.62	20861.19
691.76	20882.26
691.89	20620.12
692.03	20479.69
692.16	20526.50
692.30	20247.97
692.43	20498.41
692.57	20056.05
692.70	20077.12
692.84	19981.15
692.97	20299.47
693.11	19733.06
693.24	19585.60
693.38	19419.42
693.51	19749.44
693.65	19229.84
693.78	19412.40
693.92	19522.41
694.05	19302.40
694.19	19248.57
694.32	19269.63
694.45	19358.57
694.59	19105.79
694.72	19164.31
694.86	19021.53
694.99	18817.91
695.13	18630.66
695.26	18291.29
695.39	18356.82
695.53	18525.34
695.66	18277.24
695.80	18090.00
695.93	18354.48
696.07	17881.69
696.20	18272.56
696.33	18195.32
696.47	17954.25
696.60	17902.76
696.73	17752.96
696.87	17879.35
697.00	17671.04
697.14	17837.22
697.27	17441.67
697.40	17680.41
697.54	17331.67
697.67	17380.82
697.80	17301.24
697.94	17254.43
698.07	16924.41
698.21	16931.44
698.34	16870.58
698.47	16655.25
698.61	16760.58
698.74	16437.58
698.87	16566.31
699.01	16460.99
699.14	16484.39
699.27	16348.64
699.40	16505.46
699.54	16229.27
699.67	16175.44
699.80	16079.48
699.94	16180.12
700.07	16238.64
700.20	15847.77
700.34	16140.33
700.47	15793.94
700.60	15786.91
700.73	15960.11
700.87	15775.21
701.00	15543.50
701.13	15737.76
701.26	15506.05
701.40	15758.83
701.53	15220.50
701.66	15084.75
701.79	15246.25
701.93	15094.11
702.06	15110.50
702.19	14630.69
702.32	14960.70
702.46	14768.78
702.59	14700.90
702.72	14789.85
702.85	14888.15
702.99	14733.67
703.12	14700.90
703.25	14768.78
703.38	14703.25
703.51	14516.00
703.65	14434.08
703.78	14256.20
703.91	14115.77
704.04	13973.00
704.17	14193.01
704.31	13865.33
704.44	13984.70
704.57	13540.00
704.70	13497.87
704.83	13640.64
704.96	13781.07
705.10	13572.77
705.23	13764.69
>>>>>End Processed Spectral Data<<<<<
