SpectraSuite Data File
++++++++++++++++++++++++++++++++++++
Date: Fri Oct 25 10:44:44 EDT 2013
User: price-jones
Dark Spectrum Present: No
Reference Spectrum Present: No
Number of Sampled Component Spectra: 1
Spectrometers: USB2+H05261
Integration Time (usec): 100000 (USB2+H05261)
Spectra Averaged: 1 (USB2+H05261)
Boxcar Smoothing: 0 (USB2+H05261)
Correct for Electrical Dark: No (USB2+H05261)
Strobe/Lamp Enabled: No (USB2+H05261)
Correct for Detector Non-linearity: No (USB2+H05261)
Correct for Stray Light: No (USB2+H05261)
Number of Pixels in Processed Spectrum: 2048
>>>>>Begin Processed Spectral Data<<<<<
365.73	93.62
365.92	93.62
366.12	93.62
366.32	88.94
366.52	0.00
366.72	77.24
366.91	0.00
367.11	0.00
367.31	0.00
367.51	74.90
367.70	0.00
367.90	39.79
368.10	0.00
368.30	51.49
368.49	39.79
368.69	16.38
368.89	77.24
369.09	4.68
369.28	84.26
369.48	86.60
369.68	98.30
369.87	42.13
370.07	86.60
370.27	72.56
370.47	152.13
370.66	313.63
370.86	383.85
371.06	425.98
371.25	465.77
371.45	440.02
371.65	486.83
371.84	402.57
372.04	479.81
372.24	465.77
372.44	526.62
372.63	484.49
372.83	533.64
373.03	500.87
373.22	526.62
373.42	566.41
373.62	573.43
373.81	500.87
374.01	540.66
374.21	589.82
374.40	545.34
374.60	554.71
374.79	475.13
374.99	505.56
375.19	620.24
375.38	538.32
375.58	627.26
375.78	657.69
375.97	594.50
376.17	688.12
376.37	617.90
376.56	568.75
376.76	580.45
376.95	519.60
377.15	533.64
377.35	655.35
377.54	613.22
377.74	561.73
377.93	479.81
378.13	587.47
378.33	648.33
378.52	653.01
378.72	596.84
378.91	676.41
379.11	596.84
379.31	622.58
379.50	557.05
379.70	655.35
379.89	631.94
380.09	578.11
380.28	566.41
380.48	601.52
380.68	627.26
380.87	615.56
381.07	718.54
381.26	624.92
381.46	667.05
381.65	688.12
381.85	610.88
382.04	695.14
382.24	730.25
382.43	645.99
382.63	748.97
382.83	667.05
383.02	697.48
383.22	723.23
383.41	713.86
383.61	624.92
383.80	727.91
384.00	669.39
384.19	732.59
384.39	709.18
384.58	650.67
384.78	727.91
384.97	725.57
385.17	713.86
385.36	767.70
385.56	753.65
385.75	725.57
385.95	784.08
386.14	781.74
386.34	770.04
386.53	732.59
386.72	702.16
386.92	847.27
387.11	908.13
387.31	805.14
387.50	781.74
387.70	828.55
387.89	898.77
388.09	791.10
388.28	833.23
388.48	788.76
388.67	868.34
388.86	816.85
389.06	849.61
389.25	933.87
389.45	985.37
389.64	847.27
389.84	898.77
390.03	910.47
390.22	987.71
390.42	875.36
390.61	952.60
390.81	901.11
391.00	945.58
391.19	898.77
391.39	950.26
391.58	1004.09
391.78	997.07
391.97	903.45
392.16	863.66
392.36	896.43
392.55	901.11
392.75	1036.86
392.94	987.71
393.13	903.45
393.33	957.28
393.52	997.07
393.71	1039.20
393.91	987.71
394.10	978.34
394.29	1121.12
394.49	1086.01
394.68	1081.33
394.88	1102.39
395.07	1083.67
395.26	1090.69
395.46	1036.86
395.65	1149.20
395.84	1060.26
396.04	1069.62
396.23	1109.41
396.42	1043.88
396.62	1004.09
396.81	1097.71
397.00	1132.82
397.19	1128.14
397.39	1205.38
397.58	1228.78
397.77	1273.25
397.97	1308.36
398.16	1315.38
398.35	1329.42
398.55	1313.04
398.74	1364.53
398.93	1299.00
399.12	1308.36
399.32	1280.27
399.51	1294.32
399.70	1406.66
399.90	1383.26
400.09	1483.90
400.28	1467.52
400.47	1303.68
400.67	1437.09
400.86	1504.96
401.05	1427.73
401.24	1547.09
401.44	1554.12
401.63	1565.82
401.82	1617.31
402.01	1540.07
402.21	1584.54
402.40	1619.65
402.59	1547.09
402.78	1582.20
402.97	1556.46
403.17	1640.72
403.36	1540.07
403.55	1607.95
403.74	1739.02
403.93	1659.44
404.13	1647.74
404.32	1694.55
404.51	1692.21
404.70	1804.55
404.89	1720.29
405.09	1769.44
405.28	1668.80
405.47	1757.74
405.66	1804.55
405.85	1722.63
406.05	1792.85
406.24	1795.19
406.43	1785.83
406.62	1891.15
406.81	1900.52
407.00	1820.94
407.20	1879.45
407.39	1895.83
407.58	1884.13
407.77	1961.37
407.96	1942.64
408.15	2069.03
408.34	1942.64
408.54	2085.42
408.73	1937.96
408.92	2069.03
409.11	2139.25
409.30	2069.03
409.49	2010.52
409.68	2097.12
409.87	2087.76
410.07	2176.70
410.26	2176.70
410.45	2244.57
410.64	2279.68
410.83	2251.60
411.02	2090.10
411.21	2253.94
411.40	2237.55
411.59	2368.62
411.78	2275.00
411.98	2279.68
412.17	2340.54
412.36	2429.48
412.55	2396.71
412.74	2429.48
412.93	2506.71
413.12	2434.16
413.31	2628.42
413.50	2513.74
413.69	2420.11
413.88	2553.52
414.07	2593.31
414.26	2612.04
414.45	2724.38
414.64	2698.64
414.83	2801.62
415.02	2661.19
415.22	2808.64
415.41	2691.62
415.60	2808.64
415.79	2874.18
415.98	2869.50
416.17	2883.54
416.36	2764.17
416.55	2815.66
416.74	2895.24
416.93	2752.47
417.12	2888.22
417.31	2876.52
417.50	2953.76
417.69	3148.02
417.88	3068.44
418.07	3110.57
418.26	3056.74
418.45	3138.66
418.64	3311.86
418.83	3372.71
419.02	3229.94
419.21	3204.19
419.39	3265.05
419.58	3180.79
419.77	3279.09
419.96	3201.85
420.15	3332.92
420.34	3372.71
420.53	3288.45
420.72	3492.08
420.91	3332.92
421.10	3412.50
421.29	3529.53
421.48	3557.61
421.67	3517.83
421.86	3410.16
422.05	3482.72
422.24	3489.74
422.43	3424.20
422.61	3510.80
422.80	3475.70
422.99	3499.10
423.18	3571.66
423.37	3660.60
423.56	3541.23
423.75	3566.98
423.94	3616.13
424.13	3384.41
424.32	3405.48
424.50	3653.58
424.69	3609.11
424.88	3765.92
425.07	3669.96
425.26	3583.36
425.45	3597.40
425.64	3543.57
425.83	3667.62
426.01	3676.98
426.20	3648.90
426.39	3737.84
426.58	3679.32
426.77	3588.04
426.96	3674.64
427.15	3728.47
427.33	3583.36
427.52	3707.41
427.71	3765.92
427.90	3805.71
428.09	3880.61
428.28	3882.95
428.46	3775.28
428.65	3674.64
428.84	4051.47
429.03	3957.85
429.22	3810.39
429.40	3801.03
429.59	3887.63
429.78	3648.90
429.97	3674.64
430.16	3763.58
430.34	3878.27
430.53	3939.12
430.72	3941.46
430.91	3955.51
431.10	3927.42
431.28	4070.19
431.47	4294.88
431.66	4297.22
431.85	4243.39
432.03	4227.01
432.22	4418.93
432.41	4208.28
432.60	4320.63
432.79	4147.43
432.97	4313.61
433.16	4210.62
433.35	4325.31
433.54	4383.82
433.72	4468.08
433.91	4318.29
434.10	4390.84
434.28	4360.42
434.47	4348.72
434.66	4376.80
434.85	4390.84
435.03	4500.85
435.22	4596.81
435.41	4517.23
435.59	4620.22
435.78	4547.66
435.97	4634.26
436.16	4648.30
436.34	4652.98
436.53	4638.94
436.72	4744.27
436.90	4507.87
437.09	4608.51
437.28	4496.17
437.46	4786.40
437.65	4596.81
437.84	4727.88
438.02	4643.62
438.21	4823.84
438.40	4681.07
438.58	4954.91
438.77	5006.41
438.96	4929.17
439.14	5071.94
439.33	5088.32
439.52	5090.67
439.70	4957.25
439.89	5050.88
440.08	5256.84
440.26	5366.85
440.45	5203.01
440.63	5397.28
440.82	5315.36
441.01	5341.10
441.19	5535.37
441.38	5526.00
441.57	5582.18
441.75	5521.32
441.94	5643.03
442.12	5703.89
442.31	5809.21
442.50	5785.80
442.68	5689.84
442.87	5764.74
443.05	5839.64
443.24	6045.60
443.43	5867.72
443.61	5872.40
443.80	6099.44
443.98	5621.97
444.17	5631.33
444.35	5832.62
444.54	5970.71
444.73	5921.56
444.91	6125.18
445.10	6069.01
445.28	5921.56
445.47	5863.04
445.65	5900.49
445.84	5980.07
446.02	5898.15
446.21	5959.00
446.39	5909.85
446.58	6052.63
446.77	6019.86
446.95	5937.94
447.14	5966.03
447.32	6139.23
447.51	6029.22
447.69	6038.58
447.88	6087.73
448.06	6282.00
448.25	6230.51
448.43	6136.88
448.62	6188.38
448.80	6085.39
448.99	6333.49
449.17	6277.32
449.36	6169.65
449.54	6204.76
449.73	6354.55
449.91	6551.16
450.10	6305.40
450.28	6583.93
450.46	6406.05
450.65	6396.68
450.83	6389.66
451.02	6413.07
451.20	6637.76
451.39	6487.96
451.57	6462.22
451.76	6539.46
451.94	6464.56
452.13	6724.36
452.31	6700.95
452.49	6562.86
452.68	6476.26
452.86	6633.08
453.05	6752.45
453.23	6614.35
453.42	6656.48
453.60	6792.23
453.78	6775.85
453.97	6565.20
454.15	6679.89
454.34	6644.78
454.52	6736.06
454.70	6684.57
454.89	6932.67
455.07	6862.45
455.26	7047.35
455.44	7030.97
455.62	6913.94
455.81	6834.36
455.99	7030.97
456.17	7293.11
456.36	7026.29
456.54	7220.55
456.73	7342.26
456.91	7281.41
457.09	7262.68
457.28	7599.72
457.46	7358.64
457.64	7379.71
457.83	7473.33
458.01	7396.09
458.19	7609.08
458.38	7548.23
458.56	7492.05
458.74	7449.93
458.93	7496.74
459.11	7576.31
459.29	7496.74
459.48	7569.29
459.66	7726.11
459.84	7681.64
460.03	7829.09
460.21	7763.56
460.39	7751.85
460.57	7772.92
460.76	7686.32
460.94	7740.15
461.12	7981.23
461.31	7932.08
461.49	7843.14
461.67	7892.29
461.85	8044.42
462.04	7960.16
462.22	8077.19
462.40	8154.43
462.59	8107.62
462.77	8095.91
462.95	8175.49
463.13	8004.63
463.32	8102.93
463.50	8093.57
463.68	8252.73
463.86	8159.11
464.05	8245.71
464.23	8266.77
464.41	8409.54
464.59	8271.45
464.78	8322.94
464.96	8367.42
465.14	8287.84
465.32	8695.09
465.50	8439.97
465.69	8264.43
465.87	8421.25
466.05	8376.78
466.23	8280.82
466.41	8418.91
466.60	8681.05
466.78	8346.35
466.96	8599.13
467.14	8365.07
467.32	8622.53
467.51	8769.99
467.69	8470.40
467.87	8580.40
468.05	8767.65
468.23	8545.30
468.41	8479.76
468.60	8870.63
468.78	8676.37
468.96	8849.57
469.14	8819.14
469.32	8978.30
469.50	8854.25
469.69	9001.70
469.87	9036.81
470.05	8940.85
470.23	9256.82
470.41	8978.30
470.59	9296.61
470.77	9137.45
470.95	9207.67
471.14	9270.86
471.32	9130.43
471.50	9350.44
471.68	9570.45
471.86	9462.79
472.04	9554.07
472.22	9696.84
472.40	9329.38
472.58	9650.03
472.77	9673.43
472.95	9839.61
473.13	10026.86
473.31	9720.24
473.49	9596.20
473.67	9724.93
473.85	9713.22
474.03	10087.71
474.21	10045.58
474.39	10043.24
474.57	10115.80
474.75	10080.69
474.93	10291.34
475.12	10438.79
475.30	10406.02
475.48	10370.91
475.66	10485.60
475.84	10370.91
476.02	10525.39
476.20	10572.20
476.38	10658.80
476.56	10883.49
476.74	10951.37
476.92	10836.68
477.10	10890.51
477.28	10939.66
477.46	11253.30
477.64	11325.85
477.82	11426.50
478.00	11426.50
478.18	11342.24
478.36	11777.58
478.54	11721.40
478.72	11843.11
478.90	11737.79
479.08	11833.75
479.26	12079.50
479.44	12145.04
479.62	12123.98
479.80	12238.66
479.98	12435.27
480.16	12528.89
480.34	12592.08
480.52	12498.46
480.70	12594.42
480.88	12437.61
481.06	12776.98
481.24	12856.56
481.41	13011.04
481.59	13298.92
481.77	13137.43
481.95	13160.83
482.13	13226.37
482.31	13357.44
482.49	13659.37
482.67	13717.88
482.85	13738.94
483.03	13902.78
483.21	14153.22
483.39	14459.83
483.57	14036.19
483.74	14160.24
483.92	14429.40
484.10	14478.55
484.28	14726.65
484.46	14637.71
484.64	15190.08
484.82	14672.82
485.00	14846.02
485.18	15037.94
485.35	15241.57
485.53	15026.24
485.71	14953.68
485.89	15452.22
486.07	15246.25
486.25	15438.17
486.43	15651.16
486.61	15971.82
486.78	15822.02
486.96	15910.96
487.14	16334.60
487.32	16287.79
487.50	16779.30
487.68	16685.68
487.85	16905.69
488.03	17394.86
488.21	17319.96
488.39	17137.40
488.57	17301.24
488.75	17554.02
488.92	17556.36
489.10	17919.14
489.28	17851.27
489.46	18148.51
489.64	18225.75
489.81	18588.53
489.99	18567.47
490.17	18401.29
490.35	19101.11
490.53	18719.60
490.70	18860.04
490.88	19145.58
491.06	19288.35
491.24	19098.77
491.41	19082.39
491.59	19487.30
491.77	19211.12
491.95	19599.65
492.13	20042.01
492.30	20095.84
492.48	19946.05
492.66	20372.02
492.84	20451.60
493.01	20285.42
493.19	20205.84
493.37	20664.59
493.54	20786.30
493.72	20896.30
493.90	20830.77
494.08	21078.86
494.25	21514.20
494.43	21486.12
494.61	21720.17
494.79	21635.91
494.96	21610.17
495.14	21708.47
495.32	22164.87
495.49	22239.77
495.67	22174.24
495.85	22260.84
496.02	22824.90
496.20	22909.16
496.38	22724.26
496.55	22827.24
496.73	23115.13
496.91	22860.01
497.09	23080.02
497.26	23564.51
497.44	23241.52
497.62	23491.96
497.79	23777.50
497.97	23463.87
498.14	23641.75
498.32	23889.85
498.50	23669.84
498.67	24393.06
498.85	24159.01
499.03	24641.16
499.20	24257.31
499.38	24259.65
499.56	24514.77
499.73	24734.78
499.91	24437.53
500.08	24500.73
500.26	24657.54
500.44	24922.02
500.61	24994.58
500.79	25003.94
500.97	24978.20
501.14	25542.27
501.32	25406.52
501.49	25289.49
501.67	25259.06
501.84	25937.82
502.02	25462.69
502.20	25930.80
502.37	25919.09
502.55	25771.64
502.72	26169.53
502.90	26214.00
503.07	26178.89
503.25	26101.65
503.43	26043.14
503.60	26150.81
503.78	26356.77
503.95	26581.46
504.13	26749.98
504.30	26630.62
504.48	26899.78
504.65	26852.97
504.83	27012.12
505.01	27583.21
505.18	27028.51
505.36	27405.33
505.53	27615.98
505.71	27761.09
505.88	27702.58
506.06	27461.51
506.23	27896.85
506.41	27534.06
506.58	27468.53
506.76	28011.53
506.93	27983.44
507.11	28088.77
507.28	28095.79
507.46	27861.74
507.63	28287.71
507.81	28299.42
507.98	28067.70
508.16	28383.68
508.33	28217.50
508.50	28577.94
508.68	28713.69
508.85	29275.42
509.03	29315.21
509.20	29221.59
509.38	29305.85
509.55	29069.45
509.73	29259.04
509.90	29624.16
510.08	29270.74
510.25	29221.59
510.42	29453.30
510.60	29717.78
510.77	29591.39
510.95	30012.69
511.12	29991.62
511.30	30110.99
511.47	30661.02
511.64	30045.46
511.82	30464.41
511.99	30057.16
512.17	30223.34
512.34	30052.48
512.51	30504.20
512.69	30822.51
512.86	30806.13
513.04	30815.49
513.21	30888.05
513.38	30616.55
513.56	30590.80
513.73	30663.36
513.90	30895.07
514.08	31332.75
514.25	31194.66
514.43	31498.93
514.60	31377.22
514.77	30911.46
514.95	31562.12
515.12	31632.34
515.29	31669.79
515.47	32002.14
515.64	32041.93
515.81	31627.66
515.99	31861.71
516.16	31716.60
516.33	31880.44
516.51	31786.82
516.68	31878.10
516.85	31817.24
517.03	32051.30
517.20	32184.71
517.37	32147.26
517.54	32322.80
517.72	32388.33
517.89	32439.82
518.06	32273.65
518.24	32257.26
518.41	32662.18
518.58	32697.28
518.75	32563.87
518.93	32898.57
519.10	32772.18
519.27	33345.61
519.45	32582.60
519.62	33315.19
519.79	33123.26
519.96	33572.64
520.14	33659.24
520.31	32971.13
520.48	33614.77
520.65	33270.72
520.83	33839.47
521.00	33996.28
521.17	33820.74
521.34	34242.04
521.52	34167.14
521.69	33874.57
521.86	34550.99
522.03	34160.12
522.20	34408.22
522.38	34494.82
522.55	34532.26
522.72	34916.11
522.89	34328.64
523.07	34742.91
523.24	34616.52
523.41	34937.18
523.58	34665.67
523.75	34923.13
523.92	34799.08
524.10	34974.63
524.27	35180.59
524.44	35173.57
524.61	35466.14
524.78	35304.64
524.96	35264.85
525.13	35431.03
525.30	35906.16
525.47	35833.60
525.64	35592.53
525.81	35480.18
525.98	35697.85
526.16	35157.19
526.33	35171.23
526.50	35644.02
526.67	35372.52
526.84	35489.54
527.01	35306.98
527.18	35669.76
527.36	36037.23
527.53	36222.13
527.70	36723.01
527.87	36566.19
528.04	35896.80
528.21	36751.09
528.38	36381.29
528.55	36720.66
528.72	37008.55
528.89	36680.88
529.07	36769.82
529.24	36715.98
529.41	36795.56
529.58	36552.15
529.75	36634.06
529.92	36903.23
530.09	36917.27
530.26	36980.46
530.43	37198.13
530.60	37345.59
530.77	37092.81
530.94	37532.83
531.11	36973.44
531.28	37258.99
531.46	37614.75
531.63	37422.83
531.80	37062.38
531.97	36957.06
532.14	37460.27
532.31	37062.38
532.48	37860.51
532.65	37368.99
532.82	37310.48
532.99	38066.47
533.16	38139.03
533.33	37581.98
533.50	38288.82
533.67	38014.98
533.84	37860.51
534.01	38216.27
534.18	38113.28
534.35	38124.99
534.52	38085.20
534.69	38429.26
534.86	38799.06
535.03	38167.12
535.20	38314.57
535.37	39035.45
535.54	38986.30
535.71	38522.88
535.88	38508.83
536.05	38220.95
536.22	39049.50
536.38	38794.38
536.55	38862.26
536.72	38445.64
536.89	38754.59
537.06	39264.83
537.23	38831.83
537.40	38941.83
537.57	39260.15
537.74	38885.66
537.91	39636.97
538.08	39225.04
538.25	39145.46
538.42	38927.79
538.59	39332.70
538.75	39129.08
538.92	39377.17
539.09	39351.43
539.26	39508.24
539.43	38789.70
539.60	39384.19
539.77	39143.12
539.94	39328.02
540.11	39290.57
540.28	39697.83
540.44	39428.66
540.61	39323.34
540.78	39388.88
540.95	39934.22
541.12	39360.79
541.29	40034.86
541.46	39667.40
541.62	40011.46
541.79	39651.02
541.96	39784.43
542.13	39985.71
542.30	40098.06
542.47	40030.18
542.63	40140.19
542.80	40142.53
542.97	40835.33
543.14	40933.63
543.31	40524.04
543.48	40765.11
543.64	40872.78
543.81	41106.83
543.98	40870.43
544.15	40430.41
544.32	41074.06
544.48	40928.95
544.65	41280.03
544.82	41060.02
544.99	41017.89
545.16	40769.79
545.32	41097.47
545.49	41324.50
545.66	41631.11
545.83	40954.69
546.00	41642.81
546.16	41837.08
546.33	41235.56
546.50	40816.60
546.67	41141.94
546.83	40905.54
547.00	40832.99
547.17	41209.81
547.34	41434.50
547.50	41727.07
547.67	41706.01
547.84	41694.30
548.00	41904.95
548.17	41687.28
548.34	41752.82
548.51	41904.95
548.67	42239.65
548.84	41766.86
549.01	41785.58
549.18	41486.00
549.34	41544.51
549.51	42124.96
549.68	41970.49
549.84	42307.52
550.01	42103.90
550.18	41661.54
550.34	42012.62
550.51	42241.99
550.68	42096.88
550.84	41563.23
551.01	42160.07
551.18	41890.91
551.34	42454.98
551.51	42546.26
551.68	42281.78
551.84	42377.74
552.01	42188.16
552.18	42195.18
552.34	42316.89
552.51	42490.09
552.68	42183.48
552.84	42487.74
553.01	42899.68
553.18	42742.86
553.34	42586.05
553.51	42274.76
553.67	42848.19
553.84	42752.23
554.01	42995.64
554.17	42827.12
554.34	43178.20
554.51	42796.70
554.67	42787.33
554.84	42784.99
555.00	42923.08
555.17	42822.44
555.33	42548.60
555.50	42799.04
555.67	42799.04
555.83	42738.18
556.00	42909.04
556.16	43365.45
556.33	43306.93
556.50	42738.18
556.66	43323.32
556.83	42600.09
556.99	43562.05
557.16	43615.88
557.32	43283.53
557.49	43461.41
557.65	43173.52
557.82	43239.06
557.98	42948.83
558.15	43489.49
558.32	43386.51
558.48	43400.55
558.65	43400.55
558.81	43012.02
558.98	43227.35
559.14	43674.40
559.31	43173.52
559.47	43697.80
559.64	43662.69
559.80	43899.09
559.97	43927.17
560.13	43342.04
560.30	43674.40
560.46	43463.75
560.63	44114.42
560.79	43959.94
560.96	43873.34
561.12	43999.73
561.29	44133.14
561.45	43709.50
561.61	43599.50
561.78	43924.83
561.94	43487.15
562.11	43871.00
562.27	43817.17
562.44	43658.01
562.60	43978.67
562.77	44133.14
562.93	43761.00
563.10	43821.85
563.26	43859.30
563.42	43676.74
563.59	43615.88
563.75	43583.12
563.92	44208.04
564.08	44170.59
564.24	44177.61
564.41	43763.34
564.57	44168.25
564.74	43901.43
564.90	43768.02
565.07	43899.09
565.23	44304.00
565.39	43789.08
565.56	43863.98
565.72	43700.14
565.88	44301.66
566.05	43803.13
566.21	43655.67
566.38	43489.49
566.54	43906.11
566.70	44051.22
566.87	44425.71
567.03	44341.45
567.19	44538.05
567.36	44107.40
567.52	44212.72
567.68	44147.18
567.85	44341.45
568.01	43892.07
568.17	43882.70
568.34	44402.30
568.50	44339.11
568.66	43573.75
568.83	44224.42
568.99	44027.82
569.15	43964.62
569.32	44481.88
569.48	44105.06
569.64	44428.05
569.81	44856.37
569.97	44264.21
570.13	44500.61
570.30	44322.72
570.46	43700.14
570.62	44292.30
570.78	43611.20
570.95	44477.20
571.11	44161.23
571.27	44121.44
571.43	44306.34
571.60	44154.21
571.76	44566.14
571.92	44137.82
572.09	44205.70
572.25	44460.82
572.41	44594.23
572.57	44524.01
572.74	45209.79
572.90	44446.77
573.06	44273.57
573.22	44093.35
573.38	44751.04
573.55	44158.89
573.71	44315.70
573.87	44566.14
574.03	44023.14
574.20	44376.56
574.36	44877.43
574.52	44582.52
574.68	44634.02
574.84	44399.96
575.01	44479.54
575.17	44123.78
575.33	44247.83
575.49	44435.07
575.65	44545.08
575.82	44395.28
575.98	44315.70
576.14	44643.38
576.30	44577.84
576.46	44074.63
576.62	44498.26
576.79	44231.44
576.95	44233.78
577.11	44456.14
577.27	44617.63
577.43	44868.07
577.59	44177.61
577.75	44884.45
577.92	44369.54
578.08	44531.03
578.24	44355.49
578.40	44519.33
578.56	44652.74
578.72	44772.11
578.88	44837.64
579.04	44835.30
579.21	44676.15
579.37	44573.16
579.53	44463.16
579.69	44435.07
579.85	44615.29
580.01	44755.72
580.17	44268.89
580.33	44697.21
580.49	44931.26
580.65	44973.39
580.82	44584.86
580.98	44556.78
581.14	44446.77
581.30	44566.14
581.46	44250.17
581.62	44795.51
581.78	44360.17
581.94	44900.84
582.10	44870.41
582.26	44718.28
582.42	44259.53
582.58	44825.94
582.74	44547.42
582.90	44655.08
583.06	45045.95
583.22	44940.63
583.38	44957.01
583.54	45034.25
583.70	44617.63
583.86	44889.13
584.02	44636.36
584.18	44573.16
584.34	44425.71
584.50	44788.49
584.66	44086.33
584.82	44748.70
584.98	45109.14
585.14	44917.22
585.30	44699.55
585.46	44563.80
585.62	44734.66
585.78	44589.55
585.94	44451.45
586.10	44376.56
586.26	44594.23
586.42	44734.66
586.58	44500.61
586.74	44905.52
586.90	44823.60
587.06	44598.91
587.22	44697.21
587.38	44252.51
587.54	44999.14
587.70	45092.76
587.86	44713.59
588.02	44793.17
588.18	44961.69
588.34	44683.17
588.49	44634.02
588.65	43683.76
588.81	44406.98
588.97	44917.22
589.13	43908.45
589.29	44528.69
589.45	45013.18
589.61	44744.02
589.77	45132.55
589.93	44634.02
590.08	44863.39
590.24	44907.86
590.40	45153.62
590.56	45373.63
590.72	44964.03
590.88	44790.83
591.04	44697.21
591.20	44935.95
591.35	45099.78
591.51	45460.23
591.67	44861.05
591.83	45331.50
591.99	45041.27
592.15	44912.54
592.31	44938.29
592.46	45195.74
592.62	45382.99
592.78	45289.37
592.94	45095.10
593.10	44966.37
593.26	44980.42
593.41	45249.58
593.57	44767.43
593.73	44891.48
593.89	44985.10
594.05	44832.96
594.20	44905.52
594.36	45062.33
594.52	45195.74
594.68	45008.50
594.84	45109.14
594.99	45462.57
595.15	44959.35
595.31	45247.24
595.47	45048.29
595.62	45322.13
595.78	45221.49
595.94	45193.40
596.10	45116.17
596.25	44879.77
596.41	45287.03
596.57	44987.44
596.73	45247.24
596.88	45214.47
597.04	44966.37
597.20	44858.71
597.36	45244.90
597.51	45354.90
597.67	45191.06
597.83	44961.69
597.99	44680.83
598.14	45160.64
598.30	44985.10
598.46	44952.33
598.61	44964.03
598.77	44748.70
598.93	45088.08
599.09	45230.85
599.24	45617.04
599.40	45027.23
599.56	45221.49
599.71	45099.78
599.87	45043.61
600.03	45013.18
600.18	45242.56
600.34	44973.39
600.50	44837.64
600.65	45233.19
600.81	45406.39
600.97	45528.10
601.12	45425.12
601.28	45118.51
601.44	44816.58
601.59	45139.57
601.75	44753.38
601.91	44685.51
602.06	45027.23
602.22	44751.04
602.37	44973.39
602.53	45382.99
602.69	45205.11
602.84	45141.91
603.00	44917.22
603.16	44767.43
603.31	45069.36
603.47	45078.72
603.62	45095.10
603.78	45111.49
603.94	44680.83
604.09	45471.93
604.25	45221.49
604.40	45137.23
604.56	45167.66
604.71	44870.41
604.87	44666.78
605.03	44549.76
605.18	44493.58
605.34	44598.91
605.49	44194.00
605.65	44847.00
605.80	45172.34
605.96	44832.96
606.12	45216.81
606.27	45633.42
606.43	44699.55
606.58	45085.74
606.74	44907.86
606.89	44676.15
607.05	44795.51
607.20	44996.80
607.36	44708.91
607.51	44928.92
607.67	44605.93
607.82	44987.44
607.98	44865.73
608.13	44580.18
608.29	44795.51
608.44	44648.06
608.60	44699.55
608.75	44526.35
608.91	44542.74
609.06	44657.42
609.22	44547.42
609.37	44591.89
609.53	44783.81
609.68	44322.72
609.84	44378.90
609.99	44451.45
610.15	44528.69
610.30	44622.31
610.46	44102.71
610.61	44439.75
610.76	44650.40
610.92	44893.82
611.07	44877.43
611.23	44353.15
611.38	44612.95
611.54	43798.44
611.69	44301.66
611.84	44561.46
612.00	44460.82
612.15	44399.96
612.31	44418.69
612.46	44388.26
612.62	44652.74
612.77	44119.10
612.92	44437.41
613.08	43966.96
613.23	44390.60
613.39	44053.56
613.54	43826.53
613.69	43758.66
613.85	44147.18
614.00	44320.38
614.15	44257.19
614.31	43835.89
614.46	44488.90
614.62	44123.78
614.77	43871.00
614.92	44254.85
615.08	44023.14
615.23	43735.25
615.38	43697.80
615.54	43758.66
615.69	43981.01
615.84	43922.49
616.00	43714.19
616.15	43721.21
616.30	43964.62
616.46	43325.66
616.61	43400.55
616.76	43311.61
616.92	43335.02
617.07	43372.47
617.22	43089.26
617.37	43533.96
617.53	43611.20
617.68	43470.77
617.83	43948.24
617.99	43901.43
618.14	43250.76
618.29	43222.67
618.45	43295.23
618.60	43419.28
618.75	43606.52
618.90	43395.87
619.06	43395.87
619.21	43349.06
619.36	43697.80
619.51	43768.02
619.67	43232.04
619.82	43597.16
619.97	43742.27
620.12	43157.14
620.28	42824.78
620.43	43086.92
620.58	43370.13
620.73	43002.66
620.89	42923.08
621.04	43082.24
621.19	43199.27
621.34	43168.84
621.49	42796.70
621.65	42897.34
621.80	43044.79
621.95	42808.40
622.10	42918.40
622.25	42237.31
622.41	42504.13
622.56	42543.92
622.71	42965.21
622.86	42906.70
623.01	42871.59
623.16	43154.80
623.32	42621.16
623.47	42525.19
623.62	42848.19
623.77	42576.69
623.92	42703.07
624.07	42246.67
624.23	42703.07
624.38	42920.74
624.53	42408.17
624.68	42412.85
624.83	42209.22
624.98	42110.92
625.13	42131.98
625.29	42012.62
625.44	42251.35
625.59	42148.37
625.74	41738.77
625.89	42246.67
626.04	41675.58
626.19	41649.83
626.34	42546.26
626.49	42532.22
626.65	42712.44
626.80	42139.00
626.95	42167.09
627.10	41933.04
627.25	42153.05
627.40	41263.64
627.55	41572.60
627.70	41640.47
627.85	41567.91
628.00	41163.00
628.15	41727.07
628.30	41713.03
628.45	41698.98
628.60	41626.43
628.76	41886.23
628.91	41940.06
629.06	41577.28
629.21	41305.77
629.36	41240.24
629.51	41542.17
629.66	41401.74
629.81	41343.22
629.96	41734.09
630.11	41511.74
630.26	41853.46
630.41	42092.19
630.56	41816.01
630.71	41338.54
630.86	41127.89
631.01	41214.49
631.16	41478.97
631.31	41010.87
631.46	40959.38
631.61	41060.02
631.76	41617.07
631.91	41258.96
632.06	41078.74
632.21	41265.99
632.36	41097.47
632.51	40854.05
632.66	40898.52
632.81	40980.44
632.96	40657.45
633.10	40856.39
633.25	41212.15
633.40	41233.22
633.55	40900.86
633.70	40856.39
633.85	40650.42
634.00	40563.82
634.15	40889.16
634.30	40795.54
634.45	40795.54
634.60	40739.36
634.75	41015.55
634.90	40552.12
635.05	40507.65
635.19	40032.52
635.34	40381.26
635.49	40140.19
635.64	40411.69
635.79	40240.83
635.94	40673.83
636.09	40570.85
636.24	40247.85
636.39	40271.26
636.53	39976.35
636.68	40032.52
636.83	40355.52
636.98	40570.85
637.13	40348.50
637.28	40210.40
637.43	40350.84
637.57	40432.75
637.72	40481.91
637.87	39929.54
638.02	40144.87
638.17	40332.11
638.32	39519.95
638.46	40018.48
638.61	40179.98
638.76	39618.25
638.91	39761.02
639.06	39821.87
639.20	40009.12
639.35	40018.48
639.50	39772.72
639.65	39910.82
639.80	40203.38
639.94	39854.64
640.09	39709.53
640.24	39910.82
640.39	39463.77
640.54	39716.55
640.68	40048.91
640.83	39718.89
640.98	39344.41
641.13	39346.75
641.27	39885.07
641.42	39346.75
641.57	39512.92
641.72	39749.32
641.86	39536.33
642.01	39344.41
642.16	39213.34
642.31	39208.65
642.45	39278.87
642.60	39208.65
642.75	39040.14
642.90	39449.73
643.04	39501.22
643.19	39089.29
643.34	39643.99
643.48	38944.17
643.63	39164.18
643.78	39049.50
643.93	38562.67
644.07	39051.84
644.22	38880.98
644.37	38761.61
644.51	38960.56
644.66	39131.42
644.81	38754.59
644.95	39187.59
645.10	39122.05
645.25	38637.56
645.39	39173.55
645.54	38808.42
645.69	38785.02
645.83	38976.94
645.98	38712.46
646.13	38653.95
646.27	38852.89
646.42	38625.86
646.57	39007.37
646.71	39000.35
646.86	38885.66
647.00	39002.69
647.15	38789.70
647.30	38635.22
647.44	38672.67
647.59	38433.94
647.74	38579.05
647.88	38230.31
648.03	38646.93
648.17	38293.50
648.32	38124.99
648.47	38342.66
648.61	38036.05
648.76	38562.67
648.90	37993.92
649.05	38410.53
649.20	38132.01
649.34	38176.48
649.49	37502.40
649.63	37806.67
649.78	37633.47
649.92	38036.05
650.07	38401.17
650.21	37710.71
650.36	38153.07
650.51	37912.00
650.65	38155.41
650.80	38635.22
650.94	38139.03
651.09	38057.11
651.23	37860.51
651.38	38092.22
651.52	37855.82
651.67	37755.18
651.81	37900.29
651.96	37392.40
652.10	37076.43
652.25	37532.83
652.39	37626.45
652.54	37949.45
652.68	38136.69
652.83	37701.35
652.97	37572.62
653.12	37900.29
653.26	37497.72
653.41	37579.64
653.55	37326.86
653.70	37177.07
653.84	37617.09
653.99	37443.89
654.13	37413.46
654.27	37230.90
654.42	37165.37
654.56	37223.88
654.71	37104.51
654.85	37184.09
655.00	37617.09
655.14	36905.57
655.29	36837.69
655.43	37027.28
655.57	36381.29
655.72	36493.63
655.86	36458.52
656.01	36503.00
656.15	36699.60
656.30	36917.27
656.44	36734.71
656.58	36781.52
656.73	36467.89
656.87	36432.78
657.01	36730.03
657.16	36598.96
657.30	36629.38
657.45	36641.09
657.59	36713.64
657.73	36769.82
657.88	36737.05
658.02	36641.09
658.16	36851.73
658.31	36875.14
658.45	36545.12
658.60	36432.78
658.74	36254.90
658.88	36495.97
659.03	36488.95
659.17	36180.00
659.31	35952.97
659.46	36287.67
659.60	36144.89
659.74	36215.11
659.89	36290.01
660.03	35983.40
660.17	35828.92
660.32	35777.43
660.46	36308.73
660.60	35793.81
660.74	35913.18
660.89	35938.93
661.03	35510.61
661.17	35761.05
661.32	35222.72
661.46	35812.54
661.60	35618.27
661.74	35667.42
661.89	35416.99
662.03	35700.19
662.17	35461.46
662.31	35143.14
662.46	35295.28
662.60	35770.41
662.74	34927.81
662.88	35033.14
663.03	34817.81
663.17	35246.13
663.31	35150.17
663.45	34684.40
663.60	35040.16
663.74	34529.92
663.88	34904.41
664.02	34754.61
664.17	34782.70
664.31	34588.44
664.45	34759.30
664.59	34597.80
664.73	34443.32
664.88	34515.88
665.02	34054.79
665.16	34359.06
665.30	34295.87
665.44	34199.91
665.59	33881.60
665.73	33659.24
665.87	34164.80
666.01	33764.57
666.15	34361.40
666.29	33986.92
666.44	33778.61
666.58	34204.59
666.72	34117.99
666.86	34174.16
667.00	33773.93
667.14	33649.88
667.28	33436.89
667.43	33633.50
667.57	33130.28
667.71	33268.37
667.85	33640.52
667.99	33675.63
668.13	33039.00
668.27	33345.61
668.41	33701.37
668.56	33212.20
668.70	33481.36
668.84	33106.88
668.98	32987.51
669.12	33310.50
669.26	32606.00
669.40	32243.22
669.54	32634.09
669.68	32449.19
669.82	32765.16
669.96	32484.30
670.10	32517.06
670.25	32650.47
670.39	32622.39
670.53	32060.66
670.67	32247.90
670.81	32790.91
670.95	32407.06
671.09	32058.32
671.23	31955.33
671.37	32362.59
671.51	31758.73
671.65	31732.98
671.79	31791.50
671.93	31917.89
672.07	31840.65
672.21	32137.90
672.35	31569.15
672.49	31976.40
672.63	32191.73
672.77	31559.78
672.91	31477.86
673.05	31667.45
673.19	31360.84
673.33	31019.12
673.47	31307.01
673.61	31213.38
673.75	30988.69
673.89	30960.61
674.03	31002.74
674.17	30808.47
674.31	30698.47
674.45	30632.93
674.59	30787.41
674.73	30794.43
674.87	30616.55
675.01	30256.11
675.15	30682.08
675.29	30569.74
675.43	29984.60
675.56	30307.60
675.70	30382.49
675.84	30012.69
675.98	29266.06
676.12	30089.93
676.26	29823.11
676.40	29921.41
676.54	29923.75
676.68	29579.69
676.82	29317.55
676.96	29549.26
677.10	29434.58
677.23	29083.50
677.37	29247.33
677.51	28634.11
677.65	29132.65
677.79	28952.43
677.93	28992.22
678.07	28697.31
678.21	28432.83
678.34	28119.20
678.48	28147.28
678.62	27922.59
678.76	27917.91
678.90	27985.79
679.04	27798.54
679.18	27955.36
679.31	27681.52
679.45	27653.43
679.59	27463.85
679.73	27466.19
679.87	27243.84
680.00	27381.93
680.14	27187.66
680.28	27012.12
680.42	27122.13
680.56	27349.16
680.70	27012.12
680.83	27508.32
680.97	27094.04
681.11	26991.06
681.25	26906.80
681.39	26649.34
681.52	26639.98
681.66	26443.37
681.80	26515.93
681.94	26410.60
682.07	26434.01
682.21	26022.08
682.35	25986.97
682.49	26347.41
682.62	25996.33
682.76	26148.46
682.90	25727.17
683.04	25811.43
683.17	25598.44
683.31	25308.21
683.45	25511.84
683.59	25151.40
683.72	25380.77
683.86	25188.85
684.00	25057.78
684.13	25287.15
684.27	24570.94
684.41	24922.02
684.55	24128.58
684.68	24463.28
684.82	24575.62
684.96	24348.59
685.09	24657.54
685.23	24683.29
685.37	24224.54
685.50	24114.54
685.64	24252.63
685.78	24205.82
685.91	23857.08
686.05	23768.14
686.19	23606.64
686.32	23470.89
686.46	23147.90
686.60	22946.61
686.73	23005.13
686.87	22745.33
687.01	23014.49
687.14	22721.92
687.28	22918.53
687.42	22953.63
687.55	22883.42
687.69	23407.70
687.82	22778.09
687.96	22937.25
688.10	22595.53
688.23	22586.17
688.37	22565.10
688.50	21982.31
688.64	22043.17
688.78	22185.94
688.91	21994.01
689.05	22267.86
689.18	22036.14
689.32	21720.17
689.46	21869.97
689.59	21872.31
689.73	21851.24
689.86	21727.19
690.00	21415.90
690.13	21516.54
690.27	21160.78
690.41	21357.39
690.54	21034.39
690.68	20875.24
690.81	21041.42
690.95	21050.78
691.08	20924.39
691.22	20823.75
691.35	20807.36
691.49	20812.04
691.62	20638.84
691.76	20365.00
691.89	20348.62
692.03	20517.14
692.16	20002.22
692.30	19810.29
692.43	20280.74
692.57	20187.12
692.70	19873.49
692.84	19786.89
692.97	19545.81
693.11	19555.18
693.24	19597.31
693.38	19424.11
693.51	19323.46
693.65	19740.08
693.78	19159.63
693.92	19208.78
694.05	19250.91
694.19	18958.34
694.32	19066.00
694.45	18691.52
694.59	18717.26
694.72	18574.49
694.86	18640.03
694.99	18684.50
695.13	18527.68
695.26	18352.14
695.39	18345.12
695.53	18424.70
695.66	18265.54
695.80	18373.21
695.93	18324.05
696.07	18204.69
696.20	18101.70
696.33	18176.60
696.47	17846.58
696.60	17605.51
696.73	17607.85
696.87	17619.55
697.00	17596.15
697.14	17535.29
697.27	17488.48
697.40	17268.47
697.54	17039.10
697.67	16947.82
697.80	17233.36
697.94	17233.36
698.07	16978.25
698.21	16615.46
698.34	16788.66
698.47	16484.39
698.61	16334.60
698.74	16203.53
698.87	16383.75
699.01	16311.19
699.14	16327.58
699.27	16067.78
699.40	16095.86
699.54	16049.05
699.67	15871.17
699.80	16173.10
699.94	15751.81
700.07	15906.28
700.20	15847.77
700.34	15946.07
700.47	15772.87
700.60	15651.16
700.73	15667.55
700.87	15576.27
701.00	15351.57
701.13	15239.23
701.26	15506.05
701.40	15229.87
701.53	15112.84
701.66	14965.39
701.79	14963.04
701.93	15026.24
702.06	14717.29
702.19	14558.13
702.32	14839.00
702.46	14766.44
702.59	14766.44
702.72	14864.74
702.85	14530.05
702.99	14413.02
703.12	14382.59
703.25	14295.99
703.38	14080.66
703.51	13879.38
703.65	14148.54
703.78	14022.15
703.91	14080.66
704.04	13865.33
704.17	13605.53
704.31	14071.30
704.44	13504.89
704.57	13650.00
704.70	13282.54
704.83	13645.32
704.96	13617.24
705.10	13422.97
705.23	13205.30
>>>>>End Processed Spectral Data<<<<<
