SpectraSuite Data File
++++++++++++++++++++++++++++++++++++
Date: Fri Oct 25 10:48:03 EDT 2013
User: price-jones
Dark Spectrum Present: No
Reference Spectrum Present: No
Number of Sampled Component Spectra: 1
Spectrometers: USB2+H05261
Integration Time (usec): 100000 (USB2+H05261)
Spectra Averaged: 1 (USB2+H05261)
Boxcar Smoothing: 0 (USB2+H05261)
Correct for Electrical Dark: No (USB2+H05261)
Strobe/Lamp Enabled: No (USB2+H05261)
Correct for Detector Non-linearity: No (USB2+H05261)
Correct for Stray Light: No (USB2+H05261)
Number of Pixels in Processed Spectrum: 2048
>>>>>Begin Processed Spectral Data<<<<<
365.73	126.39
365.92	126.39
366.12	126.39
366.32	56.17
366.52	46.81
366.72	88.94
366.91	0.00
367.11	25.75
367.31	0.00
367.51	32.77
367.70	21.06
367.90	0.00
368.10	21.06
368.30	0.00
368.49	0.00
368.69	39.79
368.89	0.00
369.09	102.98
369.28	65.54
369.48	67.88
369.68	0.00
369.87	156.82
370.07	131.07
370.27	133.41
370.47	241.08
370.66	322.99
370.86	393.21
371.06	437.68
371.25	463.43
371.45	433.00
371.65	423.64
371.84	388.53
372.04	409.59
372.24	517.26
372.44	440.02
372.63	484.49
372.83	461.09
373.03	573.43
373.22	472.79
373.42	458.74
373.62	479.81
373.81	552.37
374.01	482.15
374.21	573.43
374.40	550.03
374.60	587.47
374.79	550.03
374.99	606.20
375.19	603.86
375.38	503.22
375.58	554.71
375.78	603.86
375.97	613.22
376.17	645.99
376.37	543.00
376.56	608.54
376.76	664.71
376.95	594.50
377.15	547.69
377.35	638.97
377.54	617.90
377.74	578.11
377.93	641.31
378.13	629.60
378.33	662.37
378.52	648.33
378.72	692.80
378.91	631.94
379.11	610.88
379.31	685.78
379.50	624.92
379.70	664.71
379.89	645.99
380.09	615.56
380.28	671.73
380.48	667.05
380.68	683.44
380.87	653.01
381.07	681.10
381.26	634.29
381.46	650.67
381.65	681.10
381.85	631.94
382.04	699.82
382.24	683.44
382.43	709.18
382.63	695.14
382.83	741.95
383.02	755.99
383.22	706.84
383.41	669.39
383.61	751.31
383.80	795.78
384.00	777.06
384.19	699.82
384.39	753.65
384.58	777.06
384.78	777.06
384.97	809.83
385.17	692.80
385.36	746.63
385.56	793.44
385.75	744.29
385.95	781.74
386.14	767.70
386.34	826.21
386.53	786.42
386.72	788.76
386.92	856.64
387.11	800.46
387.31	854.30
387.50	809.83
387.70	788.76
387.89	880.04
388.09	868.34
388.28	826.21
388.48	795.78
388.67	873.02
388.86	858.98
389.06	856.64
389.25	973.66
389.45	933.87
389.64	940.90
389.84	861.32
390.03	905.79
390.22	870.68
390.42	868.34
390.61	875.36
390.81	940.90
391.00	915.15
391.19	957.28
391.39	856.64
391.58	987.71
391.78	915.15
391.97	1001.75
392.16	980.68
392.36	961.96
392.55	971.32
392.75	947.92
392.94	971.32
393.13	961.96
393.33	877.70
393.52	945.58
393.71	992.39
393.91	1064.94
394.10	983.02
394.29	1020.47
394.49	1055.58
394.68	1062.60
394.88	1081.33
395.07	1076.65
395.26	1076.65
395.46	1203.04
395.65	1191.33
395.84	1130.48
396.04	1179.63
396.23	1111.75
396.42	1156.22
396.62	1137.50
396.81	1086.01
397.00	1128.14
397.19	1221.76
397.39	1203.04
397.58	1196.01
397.77	1214.74
397.97	1266.23
398.16	1214.74
398.35	1249.85
398.55	1200.69
398.74	1282.61
398.93	1401.98
399.12	1313.04
399.32	1331.76
399.51	1341.13
399.70	1373.89
399.90	1193.67
400.09	1352.83
400.28	1437.09
400.47	1394.96
400.67	1364.53
400.86	1390.28
401.05	1432.41
401.24	1467.52
401.44	1530.71
401.63	1474.54
401.82	1479.22
402.01	1341.13
402.21	1446.45
402.40	1589.22
402.59	1434.75
402.78	1451.13
402.97	1514.33
403.17	1556.46
403.36	1577.52
403.55	1455.81
403.74	1689.87
403.93	1570.50
404.13	1593.90
404.32	1650.08
404.51	1605.61
404.70	1643.06
404.89	1593.90
405.09	1788.17
405.28	1565.82
405.47	1652.42
405.66	1748.38
405.85	1708.59
406.05	1771.79
406.24	1729.66
406.43	1724.97
406.62	1783.49
406.81	1830.30
407.00	1767.10
407.20	1802.21
407.39	1797.53
407.58	1914.56
407.77	1921.58
407.96	1970.73
408.15	1790.51
408.34	1872.43
408.54	1956.69
408.73	1919.24
408.92	1919.24
409.11	1982.43
409.30	1919.24
409.49	2036.27
409.68	2036.27
409.87	1914.56
410.07	1996.48
410.26	2139.25
410.45	2071.37
410.64	2012.86
410.83	2139.25
411.02	2260.96
411.21	2260.96
411.40	2160.31
411.59	2263.30
411.78	2296.07
411.98	2209.47
412.17	2298.41
412.36	2314.79
412.55	2401.39
412.74	2401.39
412.93	2312.45
413.12	2396.71
413.31	2509.05
413.50	2431.82
413.69	2619.06
413.88	2593.31
414.07	2602.68
414.26	2607.36
414.45	2572.25
414.64	2602.68
414.83	2602.68
415.02	2555.86
415.22	2576.93
415.41	2759.49
415.60	2740.77
415.79	2829.71
415.98	2850.77
416.17	2794.60
416.36	2808.64
416.55	2780.56
416.74	2946.73
416.93	2888.22
417.12	2836.73
417.31	2972.48
417.50	2951.42
417.69	3042.70
417.88	3035.67
418.07	2937.37
418.26	3075.46
418.45	3061.42
418.64	3201.85
418.83	3023.97
419.02	3117.59
419.21	3192.49
419.39	3049.72
419.58	3145.68
419.77	3208.87
419.96	3225.26
420.15	3243.98
420.34	3269.73
420.53	3155.04
420.72	3265.05
420.91	3440.59
421.10	3351.65
421.29	3342.28
421.48	3346.97
421.67	3426.54
421.86	3384.41
422.05	3346.97
422.24	3522.51
422.43	3445.27
422.61	3293.13
422.80	3485.06
422.99	3566.98
423.18	3412.50
423.37	3461.65
423.56	3438.25
423.75	3520.17
423.94	3468.67
424.13	3162.06
424.32	3335.26
424.50	3522.51
424.69	3510.80
424.88	3475.70
425.07	3478.04
425.26	3449.95
425.45	3456.97
425.64	3346.97
425.83	3503.78
426.01	3552.93
426.20	3510.80
426.39	3552.93
426.58	3466.33
426.77	3403.14
426.96	3538.89
427.15	3585.70
427.33	3576.34
427.52	3545.91
427.71	3648.90
427.90	3592.72
428.09	3646.55
428.28	3684.00
428.46	3646.55
428.65	3581.02
428.84	3719.11
429.03	3875.93
429.22	3747.20
429.40	3735.50
429.59	3721.45
429.78	3590.38
429.97	3749.54
430.16	3819.75
430.34	3784.65
430.53	3838.48
430.72	3918.06
430.91	3786.99
431.10	3786.99
431.28	4004.66
431.47	4084.23
431.66	4161.47
431.85	4084.23
432.03	4004.66
432.22	4088.92
432.41	4109.98
432.60	4154.45
432.79	4208.28
432.97	4238.71
433.16	4079.55
433.35	4074.87
433.54	4177.86
433.72	4271.48
433.91	4011.68
434.10	4278.50
434.28	4304.25
434.47	4271.48
434.66	4285.52
434.85	4435.32
435.03	4447.02
435.22	4360.42
435.41	4528.94
435.59	4313.61
435.78	4470.42
435.97	4407.23
436.16	4601.49
436.34	4468.08
436.53	4645.96
436.72	4568.73
436.90	4388.50
437.09	4608.51
437.28	4362.76
437.46	4461.06
437.65	4596.81
437.84	4814.48
438.02	4582.77
438.21	4732.56
438.40	4432.97
438.58	4709.16
438.77	4830.87
438.96	4730.22
439.14	4908.10
439.33	4908.10
439.52	4931.51
439.70	4713.84
439.89	5093.01
440.08	5102.37
440.26	5093.01
440.45	5132.79
440.63	5060.24
440.82	5308.34
441.01	5348.12
441.19	5217.05
441.38	5261.52
441.57	5277.91
441.75	5355.15
441.94	5441.75
442.12	5481.53
442.31	5427.70
442.50	5570.48
442.68	5547.07
442.87	5490.90
443.05	5469.83
443.24	5734.31
443.43	5633.67
443.61	5675.80
443.80	5743.67
443.98	5448.77
444.17	5460.47
444.35	5661.76
444.54	5610.26
444.73	5706.23
444.91	5827.93
445.10	5839.64
445.28	5717.93
445.47	5610.26
445.65	5727.29
445.84	5769.42
446.02	5816.23
446.21	5783.46
446.39	5668.78
446.58	5832.62
446.77	5884.11
446.95	5750.70
447.14	5863.04
447.32	5884.11
447.51	5949.64
447.69	5767.08
447.88	5844.32
448.06	5846.66
448.25	5809.21
448.43	5849.00
448.62	5767.08
448.80	5930.92
448.99	5856.02
449.17	6083.05
449.36	6054.97
449.54	6104.12
449.73	6176.67
449.91	6127.52
450.10	6085.39
450.28	5928.58
450.46	6155.61
450.65	6148.59
450.83	6183.70
451.02	6218.80
451.20	6267.95
451.39	6232.85
451.57	6094.76
451.76	6246.89
451.94	6347.53
452.13	6492.65
452.31	6424.77
452.49	6303.06
452.68	6310.08
452.86	6363.92
453.05	6483.28
453.23	6541.80
453.42	6349.87
453.60	6396.68
453.78	6544.14
453.97	6471.58
454.15	6473.92
454.34	6487.96
454.52	6555.84
454.70	6541.80
454.89	6640.10
455.07	6785.21
455.26	6764.15
455.44	6808.62
455.62	6808.62
455.81	6729.04
455.99	6677.55
456.17	6799.26
456.36	6920.96
456.54	6923.30
456.73	6963.09
456.91	7126.93
457.09	7019.27
457.28	7105.87
457.46	7054.37
457.64	7094.16
457.83	7169.06
458.01	6911.60
458.19	7337.58
458.38	7225.23
458.56	7227.57
458.74	7316.51
458.93	6944.37
459.11	7267.36
459.29	7412.48
459.48	7218.21
459.66	7503.76
459.84	7391.41
460.03	7494.40
460.21	7707.38
460.39	7557.59
460.57	7473.33
460.76	7517.80
460.94	7667.60
461.12	7667.60
461.31	7758.88
461.49	7637.17
461.67	7648.87
461.85	7801.01
462.04	7698.02
462.22	8121.66
462.40	7852.50
462.59	7859.52
462.77	7798.66
462.95	7962.50
463.13	7943.78
463.32	7906.33
463.50	7981.23
463.68	7960.16
463.86	7953.14
464.05	7803.35
464.23	8102.93
464.41	8051.44
464.59	8011.65
464.78	8255.07
464.96	8049.10
465.14	7831.43
465.32	7997.61
465.50	8128.68
465.69	8121.66
465.87	8074.85
466.05	8224.64
466.23	8002.29
466.41	8404.86
466.60	8535.93
466.78	8306.56
466.96	8290.18
467.14	8201.24
467.32	8381.46
467.51	8421.25
467.69	8161.45
467.87	8379.12
468.05	8500.83
468.23	8191.88
468.41	8454.02
468.60	8542.96
468.78	8468.06
468.96	8526.57
469.14	8734.88
469.32	8699.77
469.50	8531.25
469.69	8528.91
469.87	8828.50
470.05	8936.17
470.23	8685.73
470.41	8753.60
470.59	8901.06
470.77	8802.75
470.95	8875.31
471.14	8938.51
471.32	8844.88
471.50	9055.53
471.68	9085.96
471.86	9064.89
472.04	9188.94
472.22	9352.78
472.40	9121.07
472.58	9270.86
472.77	9305.97
472.95	9352.78
473.13	9792.80
473.31	9385.55
473.49	9427.68
473.67	9235.75
473.85	9554.07
474.03	9816.21
474.21	9575.13
474.39	9776.42
474.57	9975.36
474.75	9933.23
474.93	9797.48
475.12	9898.13
475.30	10097.07
475.48	10094.73
475.66	10197.71
475.84	10228.14
476.02	10281.97
476.20	10171.97
476.38	10265.59
476.56	10595.61
476.74	10607.31
476.92	10621.35
477.10	10469.22
477.28	10895.19
477.46	10642.42
477.64	10689.23
477.82	11007.54
478.00	11227.55
478.18	11513.10
478.36	11215.85
478.54	11330.53
478.72	11288.40
478.90	11676.93
479.08	11693.32
479.26	11749.49
479.44	11786.94
479.62	11829.07
479.80	11789.28
479.98	11829.07
480.16	12285.47
480.34	12163.76
480.52	12278.45
480.70	12191.85
480.88	12278.45
481.06	12271.43
481.24	12559.31
481.41	12503.14
481.59	12891.67
481.77	13020.40
481.95	12723.15
482.13	12971.25
482.31	13090.62
482.49	13233.39
482.67	13254.45
482.85	13488.51
483.03	13589.15
483.21	13612.56
483.39	13682.77
483.57	13659.37
483.74	14225.78
483.92	13912.14
484.10	13963.64
484.28	14288.97
484.46	14471.53
484.64	14478.55
484.82	14349.82
485.00	14843.68
485.18	14745.38
485.35	14944.32
485.53	14621.33
485.71	14621.33
485.89	15105.82
486.07	15023.90
486.25	15176.03
486.43	15580.95
486.61	15564.56
486.78	15644.14
486.96	15695.63
487.14	16126.29
487.32	16009.26
487.50	16276.09
487.68	16348.64
487.85	16505.46
488.03	16709.08
488.21	16779.30
488.39	16861.22
488.57	16919.73
488.75	16978.25
488.92	17275.49
489.10	17666.36
489.28	17465.08
489.46	17998.72
489.64	17699.13
489.81	18225.75
489.99	17937.87
490.17	18094.68
490.35	18003.40
490.53	18242.14
490.70	18544.06
490.88	18714.92
491.06	18930.25
491.24	18719.60
491.41	18534.70
491.59	18855.36
491.77	19080.05
491.95	19398.36
492.13	19213.46
492.30	19751.78
492.48	19466.24
492.66	19854.76
492.84	19669.86
493.01	20072.43
493.19	19833.70
493.37	20301.81
493.54	20411.81
493.72	20255.00
493.90	20570.97
494.08	20512.46
494.25	21069.50
494.43	21032.05
494.61	21048.44
494.79	21069.50
494.96	20985.24
495.14	21113.97
495.32	21418.24
495.49	21472.07
495.67	21401.86
495.85	21619.53
496.02	22024.44
496.20	21928.48
496.38	22382.54
496.55	22197.64
496.73	22948.95
496.91	22403.61
497.09	22567.45
497.26	22654.05
497.44	22787.46
497.62	22679.79
497.79	23208.75
497.97	22970.02
498.14	23101.09
498.32	23201.73
498.50	23175.98
498.67	23669.84
498.85	23424.08
499.03	24067.73
499.20	23599.62
499.38	23667.50
499.56	23906.23
499.73	24112.20
499.91	24442.21
500.08	24194.12
500.26	24205.82
500.44	24669.25
500.61	24215.18
500.79	24072.41
500.97	24390.72
501.14	25132.67
501.32	24760.53
501.49	24683.29
501.67	25027.35
501.84	25008.62
502.02	25076.50
502.20	25371.41
502.37	25481.41
502.55	25624.18
502.72	25415.88
502.90	25687.38
503.07	25689.72
503.25	25511.84
503.43	25703.76
503.60	25792.70
503.78	25900.37
503.95	25745.89
504.13	26118.04
504.30	26366.13
504.48	26068.89
504.65	26326.35
504.83	26588.49
505.01	26738.28
505.18	26630.62
505.36	26675.09
505.53	27087.02
505.71	27262.56
505.88	26986.38
506.06	26874.03
506.23	26867.01
506.41	26974.67
506.58	27337.46
506.76	27290.65
506.93	27517.68
507.11	27257.88
507.28	27482.57
507.46	27564.49
507.63	27763.43
507.81	27796.20
507.98	27489.59
508.16	27564.49
508.33	27983.44
508.50	27871.10
508.68	28149.62
508.85	28584.96
509.03	28189.41
509.20	28591.98
509.38	28980.51
509.55	28994.56
509.73	28809.65
509.90	28573.26
510.08	28739.44
510.25	28875.19
510.42	28978.17
510.60	29067.11
510.77	29177.12
510.95	29364.36
511.12	29008.60
511.30	29666.29
511.47	29642.88
511.64	29612.46
511.82	29790.34
511.99	29525.86
512.17	29905.02
512.34	29523.52
512.51	29919.07
512.69	30270.15
512.86	29703.74
513.04	29830.13
513.21	30211.64
513.38	30384.83
513.56	29687.36
513.73	30026.73
513.90	30565.06
514.08	30431.65
514.25	30527.61
514.43	30756.98
514.60	30927.84
514.77	30494.84
514.95	31213.38
515.12	31054.23
515.29	30888.05
515.47	31442.76
515.64	31482.55
515.81	30991.03
515.99	31199.34
516.16	31119.76
516.33	31424.03
516.51	31889.80
516.68	31407.65
516.85	31192.32
517.03	31475.52
517.20	31651.06
517.37	31885.12
517.54	31894.48
517.72	31796.18
517.89	31936.61
518.06	32074.70
518.24	31505.95
518.41	31934.27
518.58	31803.20
518.75	32404.72
518.93	32079.38
519.10	32402.38
519.27	32327.48
519.45	32591.96
519.62	32371.95
519.79	32568.55
519.96	32669.20
520.14	33015.60
520.31	32844.74
520.48	33270.72
520.65	32870.48
520.83	33170.07
521.00	33336.25
521.17	33727.12
521.34	33198.16
521.52	33446.26
521.69	33706.05
521.86	33914.36
522.03	33390.08
522.20	33872.23
522.38	33809.04
522.55	33865.21
522.72	33823.08
522.89	33448.60
523.07	34244.38
523.24	33731.80
523.41	33766.91
523.58	34061.82
523.75	34408.22
523.92	34256.08
524.10	34960.58
524.27	34010.32
524.44	34937.18
524.61	34691.42
524.78	34768.66
524.96	34443.32
525.13	35445.07
525.30	35065.91
525.47	35000.37
525.64	35164.21
525.81	35075.27
525.98	35318.68
526.16	35164.21
526.33	35009.73
526.50	35196.98
526.67	34899.73
526.84	35255.49
527.01	35058.88
527.18	35246.13
527.36	35431.03
527.53	35854.67
527.70	35889.77
527.87	35580.82
528.04	35604.23
528.21	35887.43
528.38	35566.78
528.55	36072.34
528.72	36025.53
528.89	36175.32
529.07	35985.74
529.24	35943.61
529.41	36392.99
529.58	35761.05
529.75	36046.59
529.92	36596.62
530.09	36245.54
530.26	36589.59
530.43	36615.34
530.60	36348.52
530.77	36512.36
530.94	36713.64
531.11	36755.77
531.28	36594.28
531.46	36711.30
531.63	36840.03
531.80	37078.77
531.97	36804.92
532.14	36809.61
532.31	36931.31
532.48	36673.85
532.65	37317.50
532.82	37385.38
532.99	37188.77
533.16	37298.78
533.33	37156.00
533.50	38068.81
533.67	37436.87
533.84	37230.90
534.01	37500.06
534.18	37357.29
534.35	38050.09
534.52	37310.48
534.69	37708.37
534.86	38190.52
535.03	37729.44
535.20	38000.94
535.37	37764.54
535.54	38110.94
535.71	38012.64
535.88	37769.22
536.05	37830.08
536.22	38377.76
536.38	37830.08
536.55	38218.61
536.72	38047.75
536.89	38216.27
537.06	38642.24
537.23	38415.21
537.40	38232.65
537.57	38724.16
537.74	38539.26
537.91	38387.13
538.08	38710.12
538.25	38061.79
538.42	38609.48
538.59	38958.22
538.75	38663.31
538.92	38700.76
539.09	38225.63
539.26	39218.02
539.43	38925.45
539.60	38859.91
539.77	38579.05
539.94	38808.42
540.11	38745.23
540.28	38871.62
540.44	38946.51
540.61	38972.26
540.78	38770.97
540.95	39344.41
541.12	38855.23
541.29	38726.50
541.46	39028.43
541.62	39374.83
541.79	39606.55
541.96	39227.38
542.13	39468.45
542.30	39721.23
542.47	39934.22
542.63	39419.30
542.80	39737.62
542.97	39995.07
543.14	40121.46
543.31	40142.53
543.48	39929.54
543.64	40388.28
543.81	40512.33
543.98	40627.02
544.15	40030.18
544.32	40823.62
544.48	40931.29
544.65	40350.84
544.82	40016.14
544.99	39917.84
545.16	40493.61
545.32	40289.98
545.49	40547.44
545.66	40790.86
545.83	40320.41
546.00	40877.46
546.16	40540.42
546.33	40744.05
546.50	40226.79
546.67	40545.10
546.83	40479.57
547.00	40748.73
547.17	40699.58
547.34	40727.66
547.50	41228.54
547.67	41277.69
547.84	41083.42
548.00	41441.53
548.17	41432.16
548.34	41120.87
548.51	41282.37
548.67	41380.67
548.84	41715.37
549.01	41663.88
549.18	41186.41
549.34	41179.39
549.51	41572.60
549.68	42113.26
549.84	41289.39
550.01	41413.44
550.18	41450.89
550.34	41565.57
550.51	41268.33
550.68	41837.08
550.84	41106.83
551.01	41467.27
551.18	41811.33
551.34	41471.95
551.51	41551.53
551.68	42021.98
551.84	41865.16
552.01	41897.93
552.18	41780.90
552.34	41415.78
552.51	41862.82
552.68	41813.67
552.84	42422.21
553.01	41876.86
553.18	42188.16
553.34	42190.50
553.51	41780.90
553.67	41846.44
553.84	42827.12
554.01	42167.09
554.17	42192.84
554.34	42569.66
554.51	42239.65
554.67	42639.88
554.84	42326.25
555.00	41682.60
555.17	41984.53
555.33	42511.15
555.50	42342.63
555.67	42981.60
555.83	42799.04
556.00	43044.79
556.16	43014.37
556.33	42815.42
556.50	42869.25
556.66	42600.09
556.83	42464.34
556.99	42817.76
557.16	42897.34
557.32	43000.32
557.49	42424.55
557.65	42967.55
557.82	42763.93
557.98	42623.50
558.15	43243.74
558.32	43339.70
558.48	43012.02
558.65	43086.92
558.81	42714.78
558.98	43105.65
559.14	42848.19
559.31	43056.50
559.47	43215.65
559.64	43608.86
559.80	43260.12
559.97	43143.09
560.13	42899.68
560.30	42686.69
560.46	43180.54
560.63	43070.54
560.79	43550.35
560.96	43531.62
561.12	43402.89
561.29	43159.48
561.45	43370.13
561.61	43526.94
561.78	43377.15
561.94	43201.61
562.11	43739.93
562.27	43358.42
562.44	43494.18
562.60	43540.99
562.77	43526.94
562.93	43592.48
563.10	43412.26
563.26	43159.48
563.42	43723.55
563.59	43239.06
563.75	43702.48
563.92	43426.30
564.08	43674.40
564.24	43676.74
564.41	43730.57
564.57	43627.59
564.74	43863.98
564.90	43709.50
565.07	43849.94
565.23	43412.26
565.39	43924.83
565.56	43908.45
565.72	43641.63
565.88	43878.02
566.05	43742.27
566.21	43697.80
566.38	43812.49
566.54	43220.33
566.70	44069.95
566.87	44142.50
567.03	43817.17
567.19	44341.45
567.36	44282.94
567.52	43398.21
567.68	43564.39
567.85	43700.14
568.01	44102.71
568.17	43571.41
568.34	43299.91
568.50	44025.48
568.66	43849.94
568.83	44215.06
568.99	43882.70
569.15	44142.50
569.32	43695.46
569.48	43599.50
569.64	44500.61
569.81	44112.08
569.97	43973.98
570.13	44477.20
570.30	44069.95
570.46	44058.24
570.62	44191.65
570.78	43981.01
570.95	43871.00
571.11	44289.96
571.27	44205.70
571.43	44243.15
571.60	44048.88
571.76	43821.85
571.92	43966.96
572.09	43901.43
572.25	44020.80
572.41	43885.04
572.57	44095.69
572.74	44570.82
572.90	44168.25
573.06	44168.25
573.22	44453.79
573.38	43943.56
573.55	43889.73
573.71	44013.77
573.87	44147.18
574.03	43878.02
574.20	43948.24
574.36	44009.09
574.52	44205.70
574.68	44615.29
574.84	44577.84
575.01	44390.60
575.17	44397.62
575.33	43882.70
575.49	43552.69
575.65	44371.88
575.82	44505.29
575.98	44289.96
576.14	44575.50
576.30	44514.65
576.46	44287.62
576.62	44114.42
576.79	44278.25
576.95	43826.53
577.11	44135.48
577.27	44706.57
577.43	44753.38
577.59	44364.85
577.75	44467.84
577.92	43709.50
578.08	44264.21
578.24	43915.47
578.40	44306.34
578.56	44151.87
578.72	44196.34
578.88	44416.35
579.04	44685.51
579.21	44446.77
579.37	44390.60
579.53	44027.82
579.69	44481.88
579.85	44556.78
580.01	44561.46
580.17	44133.14
580.33	44535.71
580.49	44201.02
580.65	44371.88
580.82	44212.72
580.98	44561.46
581.14	44538.05
581.30	44821.26
581.46	44098.03
581.62	44516.99
581.78	44488.90
581.94	44786.15
582.10	44711.25
582.26	44444.43
582.42	44130.80
582.58	45020.20
582.74	43842.92
582.90	44109.74
583.06	44821.26
583.22	44542.74
583.38	44512.31
583.54	44563.80
583.70	44727.64
583.86	44622.31
584.02	44229.10
584.18	44608.27
584.34	44973.39
584.50	44474.86
584.66	44542.74
584.82	44690.19
584.98	44353.15
585.14	44708.91
585.30	44900.84
585.46	44254.85
585.62	44509.97
585.78	44776.79
585.94	44191.65
586.10	44786.15
586.26	44198.68
586.42	44701.89
586.58	44552.10
586.74	44467.84
586.90	44285.28
587.06	44561.46
587.22	44224.42
587.38	44404.64
587.54	45071.70
587.70	44659.76
587.86	44559.12
588.02	44524.01
588.18	44446.77
588.34	44421.03
588.49	44402.30
588.65	43854.62
588.81	44425.71
588.97	44577.84
589.13	44797.85
589.29	44004.41
589.45	44818.92
589.61	44919.56
589.77	44783.81
589.93	45013.18
590.08	44952.33
590.24	44842.32
590.40	44959.35
590.56	45170.00
590.72	44973.39
590.88	44638.70
591.04	44495.92
591.20	45085.74
591.35	44772.11
591.51	44669.12
591.67	44861.05
591.83	44718.28
591.99	44488.90
592.15	44760.40
592.31	44809.56
592.46	45034.25
592.62	44519.33
592.78	44919.56
592.94	45064.67
593.10	44355.49
593.26	44746.36
593.41	45013.18
593.57	44814.24
593.73	44889.13
593.89	45118.51
594.05	44879.77
594.20	44722.96
594.36	44655.08
594.52	44570.82
594.68	44444.43
594.84	44987.44
594.99	45223.83
595.15	44875.09
595.31	44626.99
595.47	44825.94
595.62	44825.94
595.78	44884.45
595.94	44952.33
596.10	44957.01
596.25	45048.29
596.41	44931.26
596.57	44935.95
596.73	45031.91
596.88	44893.82
597.04	44737.00
597.20	45277.66
597.36	44912.54
597.51	45067.02
597.67	44751.04
597.83	45043.61
597.99	45134.89
598.14	45010.84
598.30	44884.45
598.46	44931.26
598.61	44666.78
598.77	44629.34
598.93	45043.61
599.09	45186.38
599.24	44809.56
599.40	45200.43
599.56	45162.98
599.71	45048.29
599.87	44622.31
600.03	45057.65
600.18	44779.13
600.34	44940.63
600.50	44631.68
600.65	44573.16
600.81	45226.17
600.97	45165.32
601.12	45198.09
601.28	44907.86
601.44	44893.82
601.59	44722.96
601.75	44626.99
601.91	44762.75
602.06	44957.01
602.22	44800.19
602.37	44879.77
602.53	44767.43
602.69	45338.52
602.84	45160.64
603.00	44954.67
603.16	44978.07
603.31	44907.86
603.47	44732.32
603.62	44318.04
603.78	45200.43
603.94	44556.78
604.09	45020.20
604.25	44753.38
604.40	44856.37
604.56	44603.59
604.71	44896.16
604.87	45130.21
605.03	44896.16
605.18	45043.61
605.34	44945.31
605.49	44568.48
605.65	44980.42
605.80	44715.93
605.96	44935.95
606.12	44900.84
606.27	44636.36
606.43	44701.89
606.58	45078.72
606.74	44748.70
606.89	44767.43
607.05	44751.04
607.20	44755.72
607.36	45088.08
607.51	44910.20
607.67	45287.03
607.82	44720.62
607.98	44903.18
608.13	44889.13
608.29	44800.19
608.44	44229.10
608.60	44275.91
608.75	44421.03
608.91	44325.07
609.06	44240.81
609.22	44767.43
609.37	43990.37
609.53	44762.75
609.68	44596.57
609.84	44762.75
609.99	44559.12
610.15	44257.19
610.30	44247.83
610.46	44245.49
610.61	44636.36
610.76	44165.91
610.92	44868.07
611.07	44165.91
611.23	44067.61
611.38	44362.51
611.54	44074.63
611.69	44154.21
611.84	43611.20
612.00	44238.47
612.15	43973.98
612.31	44786.15
612.46	44208.04
612.62	44479.54
612.77	44521.67
612.92	44046.54
613.08	44327.41
613.23	44292.30
613.39	44107.40
613.54	43665.03
613.69	44060.58
613.85	43821.85
614.00	44013.77
614.15	44374.22
614.31	44554.44
614.46	44163.57
614.62	43901.43
614.77	43981.01
614.92	43849.94
615.08	43601.84
615.23	44158.89
615.38	43503.54
615.54	43536.30
615.69	43866.32
615.84	43473.11
616.00	43758.66
616.15	43594.82
616.30	43639.29
616.46	43611.20
616.61	43489.49
616.76	43772.70
616.92	43274.16
617.07	43576.09
617.22	42962.87
617.37	43358.42
617.53	43653.33
617.68	43522.26
617.83	43672.06
617.99	43931.86
618.14	43751.63
618.29	43407.58
618.45	43220.33
618.60	43611.20
618.75	43105.65
618.90	43770.36
619.06	43419.28
619.21	43416.94
619.36	43395.87
619.51	43452.05
619.67	43239.06
619.82	43140.75
619.97	43903.77
620.12	42820.10
620.28	42731.16
620.43	43122.03
620.58	43089.26
620.73	42944.15
620.89	42953.51
621.04	43005.00
621.19	43185.22
621.34	43260.12
621.49	43056.50
621.65	42684.35
621.80	43154.80
621.95	42700.73
622.10	42899.68
622.25	42684.35
622.41	42728.82
622.56	42403.49
622.71	43225.01
622.86	43271.82
623.01	42817.76
623.16	42913.72
623.32	42684.35
623.47	43346.72
623.62	42749.88
623.77	42471.36
623.92	42951.17
624.07	42429.23
624.23	41916.65
624.38	42501.79
624.53	42419.87
624.68	42494.77
624.83	42192.84
624.98	42216.24
625.13	42462.00
625.29	42932.45
625.44	42536.90
625.59	42387.10
625.74	42129.64
625.89	42113.26
626.04	41596.00
626.19	41921.34
626.34	42401.14
626.49	41893.25
626.65	42321.57
626.80	42101.56
626.95	42171.77
627.10	42227.95
627.25	41759.84
627.40	41439.18
627.55	41727.07
627.70	41659.20
627.85	41352.58
628.00	41663.88
628.15	41706.01
628.30	41418.12
628.45	42082.83
628.60	41631.11
628.76	41879.21
628.91	41207.47
629.06	41436.84
629.21	41621.75
629.36	41221.52
629.51	41329.18
629.66	42005.59
629.81	41574.94
629.96	41825.37
630.11	41553.87
630.26	41771.54
630.41	41883.89
630.56	41275.35
630.71	40982.78
630.86	41698.98
631.01	40912.56
631.16	41336.20
631.31	40844.69
631.46	40556.80
631.61	40793.20
631.76	41322.16
631.91	41525.78
632.06	40938.31
632.21	41324.50
632.36	41305.77
632.51	41181.73
632.66	41214.49
632.81	40947.67
632.96	40678.51
633.10	40568.51
633.25	40575.53
633.40	40910.22
633.55	41024.91
633.70	40938.31
633.85	40467.86
634.00	40854.05
634.15	40926.61
634.30	40774.47
634.45	40905.54
634.60	40666.81
634.75	40465.52
634.90	40399.99
635.05	40610.64
635.19	40404.67
635.34	40851.71
635.49	40488.93
635.64	40889.16
635.79	40198.70
635.94	40615.32
636.09	40575.53
636.24	40690.21
636.39	40219.77
636.53	40514.67
636.68	39955.29
636.83	40091.04
636.98	40608.29
637.13	40144.87
637.28	40357.86
637.43	40493.61
637.57	40285.30
637.72	40259.55
637.87	40084.01
638.02	40140.19
638.17	39789.11
638.32	40151.89
638.46	40079.33
638.61	39786.77
638.76	39384.19
638.91	39889.75
639.06	40123.80
639.20	39983.37
639.35	39772.72
639.50	39964.65
639.65	39908.47
639.80	40177.64
639.94	39952.94
640.09	39962.31
640.24	39861.66
640.39	39438.03
640.54	39707.19
640.68	39934.22
640.83	39299.94
640.98	39768.04
641.13	39199.29
641.27	39955.29
641.42	39667.40
641.57	39395.90
641.72	39587.82
641.86	39140.78
642.01	39538.67
642.16	39325.68
642.31	39140.78
642.45	39405.26
642.60	39255.46
642.75	39220.36
642.90	39187.59
643.04	38813.10
643.19	39065.88
643.34	39262.49
643.48	39688.46
643.63	38983.96
643.78	38990.98
643.93	39262.49
644.07	39140.78
644.22	39002.69
644.37	38969.92
644.51	38799.06
644.66	38953.54
644.81	38876.30
644.95	38974.60
645.10	39103.33
645.25	39416.96
645.39	39021.41
645.54	39056.52
645.69	38731.18
645.83	38691.40
645.98	38717.14
646.13	39072.90
646.27	39234.40
646.42	38796.72
646.57	38810.76
646.71	38567.35
646.86	38579.05
647.00	38878.64
647.15	38651.61
647.30	39246.10
647.44	38780.34
647.59	38583.73
647.74	38990.98
647.88	38354.36
648.03	38820.13
648.17	38417.55
648.32	38478.41
648.47	38780.34
648.61	38539.26
648.76	38534.58
648.90	38085.20
649.05	38251.38
649.20	38890.34
649.34	38403.51
649.49	38485.43
649.63	38110.94
649.78	38202.22
649.92	37963.49
650.07	38141.37
650.21	37401.76
650.36	38110.94
650.51	38295.85
650.65	38110.94
650.80	38466.70
650.94	38345.00
651.09	38345.00
651.23	37778.59
651.38	38134.35
651.52	37696.67
651.67	38007.96
651.81	37883.91
651.96	37324.52
652.10	37684.97
652.25	37193.45
652.39	37256.65
652.54	37919.02
652.68	38195.20
652.83	37731.78
652.97	37897.95
653.12	37291.76
653.26	37701.35
653.41	37638.15
653.55	37460.27
653.70	37319.84
653.84	37832.42
653.99	37425.17
654.13	37464.96
654.27	37509.43
654.42	37713.05
654.56	37383.04
654.71	37539.85
654.85	37029.62
655.00	37715.39
655.14	37378.36
655.29	36842.37
655.43	37153.66
655.57	37184.09
655.72	37010.89
655.86	37219.20
656.01	36900.89
656.15	37008.55
656.30	37127.92
656.44	37010.89
656.58	36781.52
656.73	36905.57
656.87	36823.65
657.01	36535.76
657.16	36973.44
657.30	36229.15
657.45	36699.60
657.59	37130.26
657.73	36531.08
657.88	36720.66
658.02	36701.94
658.16	36215.11
658.31	36914.93
658.45	36708.96
658.60	36294.69
658.74	36308.73
658.88	36456.18
659.03	36666.83
659.17	36435.12
659.31	36416.40
659.46	36327.45
659.60	36299.37
659.74	36474.91
659.89	35742.32
660.03	35967.01
660.17	35945.95
660.32	35983.40
660.46	36187.02
660.60	36226.81
660.74	36156.60
660.89	36037.23
661.03	35548.06
661.17	36079.36
661.32	35297.62
661.46	36041.91
661.60	35524.65
661.74	35524.65
661.89	36002.12
662.03	35651.04
662.17	35297.62
662.31	35571.46
662.46	35562.10
662.60	35138.46
662.74	35173.57
662.88	35302.30
663.03	35021.44
663.17	35548.06
663.31	35140.80
663.45	35143.14
663.60	35086.97
663.74	35276.55
663.88	35243.79
664.02	34864.62
664.17	34735.89
664.31	34307.57
664.45	34735.89
664.59	35321.02
664.73	34497.16
664.88	34684.40
665.02	34167.14
665.16	34436.30
665.30	34951.22
665.44	34010.32
665.59	34019.69
665.73	34321.62
665.87	34270.12
666.01	33832.44
666.15	34073.52
666.29	34160.12
666.44	34316.93
666.58	33986.92
666.72	34396.51
666.86	34181.18
667.00	34155.44
667.14	33713.08
667.28	33923.72
667.43	33523.49
667.57	33600.73
667.71	33715.42
667.85	33778.61
667.99	33287.10
668.13	33331.57
668.27	33509.45
668.41	33163.05
668.56	33230.93
668.70	33546.90
668.84	33237.95
668.98	33083.47
669.12	33228.59
669.26	33116.24
669.40	32868.14
669.54	32781.54
669.68	33184.12
669.82	32711.33
669.96	32512.38
670.10	32538.13
670.25	32889.21
670.39	32837.72
670.53	33207.52
670.67	32362.59
670.81	32659.84
670.95	32568.55
671.09	32484.30
671.23	32465.57
671.37	32641.11
671.51	32053.64
671.65	31969.38
671.79	32086.40
671.93	32109.81
672.07	32013.85
672.21	31943.63
672.35	31405.31
672.49	31878.10
672.63	31770.43
672.77	31983.42
672.91	31887.46
673.05	31555.10
673.19	31269.56
673.33	31288.28
673.47	31400.63
673.61	31297.64
673.75	30862.30
673.89	30796.77
674.03	30604.84
674.17	30841.24
674.31	30738.26
674.45	30822.51
674.59	30841.24
674.73	30625.91
674.87	30892.73
675.01	30689.10
675.15	30693.79
675.29	30724.21
675.43	30602.50
675.56	30520.59
675.70	30415.26
675.84	30216.32
675.98	29347.98
676.12	30047.80
676.26	30092.27
676.40	29827.79
676.54	29443.94
676.68	29509.47
676.82	29214.57
676.96	29776.30
677.10	29177.12
677.23	29495.43
677.37	29439.26
677.51	29275.42
677.65	29242.65
677.79	28528.79
677.93	28980.51
678.07	29111.58
678.21	28369.63
678.34	28650.50
678.48	28460.91
678.62	28797.95
678.76	28549.85
678.90	28027.92
679.04	28835.40
679.18	28257.29
679.31	28271.33
679.45	28011.53
679.59	27688.54
679.73	27686.20
679.87	27695.56
680.00	27831.31
680.14	27501.29
680.28	27538.74
680.42	27639.39
680.56	27466.19
680.70	27623.00
680.83	26979.36
680.97	27112.77
681.11	26977.01
681.25	26520.61
681.39	26822.54
681.52	26827.22
681.66	26703.17
681.80	26785.09
681.94	26426.99
682.07	26471.46
682.21	26279.54
682.35	25942.50
682.49	26567.42
682.62	26246.77
682.76	25710.78
682.90	26260.81
683.04	25743.55
683.17	25762.28
683.31	25869.94
683.45	25530.56
683.59	25530.56
683.72	25149.06
683.86	25076.50
684.00	25029.69
684.13	25450.99
684.27	25479.07
684.41	25179.48
684.55	25165.44
684.68	25095.22
684.82	24734.78
684.96	24793.29
685.09	24903.30
685.23	24418.81
685.37	24252.63
685.50	24636.48
685.64	24250.29
685.78	24334.55
685.91	24271.36
686.05	24240.93
686.19	23765.80
686.32	23960.06
686.46	23807.93
686.60	23634.73
686.73	23283.65
686.87	23276.63
687.01	22860.01
687.14	22829.59
687.28	23131.51
687.42	22649.36
687.55	22785.12
687.69	23325.78
687.82	22719.58
687.96	22745.33
688.10	22525.32
688.23	22661.07
688.37	22445.74
688.50	22054.87
688.64	22115.72
688.78	22382.54
688.91	21678.04
689.05	22246.79
689.18	22078.27
689.32	21614.85
689.46	21942.52
689.59	22263.18
689.73	22038.48
689.86	21671.02
690.00	21699.11
690.13	21680.38
690.27	21678.04
690.41	21750.60
690.54	20996.95
690.68	21092.91
690.81	21128.02
690.95	20912.69
691.08	20989.92
691.22	21097.59
691.35	20807.36
691.49	20776.94
691.62	21055.46
691.76	21029.71
691.89	20837.79
692.03	20575.65
692.16	20332.23
692.30	20505.43
692.43	20257.34
692.57	19985.83
692.70	20023.28
692.84	20032.65
692.97	19814.98
693.11	19550.49
693.24	19634.75
693.38	19470.92
693.51	19274.31
693.65	19227.50
693.78	19719.01
693.92	19271.97
694.05	19295.38
694.19	19475.60
694.32	19009.83
694.45	19243.88
694.59	19166.65
694.72	19075.37
694.86	18579.17
694.99	18672.79
695.13	18588.53
695.26	18333.42
695.39	18408.31
695.53	18354.48
695.66	18649.39
695.80	18195.32
695.93	18022.12
696.07	17937.87
696.20	18244.48
696.33	17972.97
696.47	17886.37
696.60	17984.68
696.73	17687.43
696.87	17607.85
697.00	17848.93
697.14	17612.53
697.27	17427.63
697.40	17270.81
697.54	17298.90
697.67	17329.33
697.80	17334.01
697.94	17135.06
698.07	16573.33
698.21	16786.32
698.34	16826.11
698.47	16734.83
698.61	16648.23
698.74	16676.32
698.87	16442.26
699.01	16517.16
699.14	16620.14
699.27	16468.01
699.40	16308.85
699.54	16079.48
699.67	15999.90
699.80	15920.32
699.94	15861.81
700.07	16121.61
700.20	15971.82
700.34	15702.65
700.47	15735.42
700.60	15564.56
700.73	15988.20
700.87	15468.60
701.00	15527.11
701.13	15538.82
701.26	15302.42
701.40	15515.41
701.53	15295.40
701.66	15363.28
701.79	15159.65
701.93	14981.77
702.06	14895.17
702.19	14544.09
702.32	14609.62
702.46	14794.53
702.59	14567.49
702.72	14721.97
702.85	14714.95
702.99	14670.48
703.12	14853.04
703.25	14572.18
703.38	14349.82
703.51	14394.29
703.65	14319.40
703.78	14237.48
703.91	13965.98
704.04	14118.11
704.17	13872.36
704.31	14064.28
704.44	13692.13
704.57	13591.49
704.70	13558.72
704.83	13495.53
704.96	13657.03
705.10	13624.26
705.23	13528.30
>>>>>End Processed Spectral Data<<<<<
