SpectraSuite Data File
++++++++++++++++++++++++++++++++++++
Date: Fri Oct 25 10:44:51 EDT 2013
User: price-jones
Dark Spectrum Present: No
Reference Spectrum Present: No
Number of Sampled Component Spectra: 1
Spectrometers: USB2+H05261
Integration Time (usec): 100000 (USB2+H05261)
Spectra Averaged: 1 (USB2+H05261)
Boxcar Smoothing: 0 (USB2+H05261)
Correct for Electrical Dark: No (USB2+H05261)
Strobe/Lamp Enabled: No (USB2+H05261)
Correct for Detector Non-linearity: No (USB2+H05261)
Correct for Stray Light: No (USB2+H05261)
Number of Pixels in Processed Spectrum: 2048
>>>>>Begin Processed Spectral Data<<<<<
365.73	124.05
365.92	124.05
366.12	124.05
366.32	70.22
366.52	77.24
366.72	0.00
366.91	0.00
367.11	30.43
367.31	23.41
367.51	0.00
367.70	30.43
367.90	74.90
368.10	44.47
368.30	0.00
368.49	0.00
368.69	0.00
368.89	0.00
369.09	23.41
369.28	81.92
369.48	63.19
369.68	53.83
369.87	105.32
370.07	91.28
370.27	124.05
370.47	173.20
370.66	376.83
370.86	482.15
371.06	372.15
371.25	421.30
371.45	379.17
371.65	376.83
371.84	393.21
372.04	454.06
372.24	463.43
372.44	521.94
372.63	507.90
372.83	442.36
373.03	454.06
373.22	517.26
373.42	437.68
373.62	517.26
373.81	458.74
374.01	561.73
374.21	472.79
374.40	545.34
374.60	538.32
374.79	514.92
374.99	573.43
375.19	531.30
375.38	545.34
375.58	571.09
375.78	592.16
375.97	552.37
376.17	617.90
376.37	535.98
376.56	580.45
376.76	510.24
376.95	589.82
377.15	615.56
377.35	610.88
377.54	620.24
377.74	589.82
377.93	533.64
378.13	657.69
378.33	622.58
378.52	538.32
378.72	634.29
378.91	601.52
379.11	585.13
379.31	578.11
379.50	589.82
379.70	641.31
379.89	624.92
380.09	585.13
380.28	709.18
380.48	669.39
380.68	657.69
380.87	561.73
381.07	641.31
381.26	732.59
381.46	634.29
381.65	627.26
381.85	650.67
382.04	655.35
382.24	695.14
382.43	662.37
382.63	655.35
382.83	727.91
383.02	678.76
383.22	716.20
383.41	674.07
383.61	718.54
383.80	788.76
384.00	725.57
384.19	688.12
384.39	788.76
384.58	704.50
384.78	648.33
384.97	662.37
385.17	725.57
385.36	795.78
385.56	842.59
385.75	809.83
385.95	713.86
386.14	786.42
386.34	753.65
386.53	760.67
386.72	821.53
386.92	830.89
387.11	819.19
387.31	851.96
387.50	793.44
387.70	821.53
387.89	866.00
388.09	786.42
388.28	798.12
388.48	851.96
388.67	800.46
388.86	793.44
389.06	819.19
389.25	898.77
389.45	910.47
389.64	849.61
389.84	936.21
390.03	1011.11
390.22	959.62
390.42	1022.81
390.61	854.30
390.81	943.24
391.00	863.66
391.19	945.58
391.39	1046.22
391.58	1036.86
391.78	908.13
391.97	1025.15
392.16	978.34
392.36	973.66
392.55	1057.92
392.75	947.92
392.94	938.55
393.13	901.11
393.33	1046.22
393.52	1043.88
393.71	1043.88
393.91	1020.47
394.10	1015.79
394.29	1022.81
394.49	1107.07
394.68	1174.95
394.88	1102.39
395.07	1071.97
395.26	1132.82
395.46	1069.62
395.65	1165.59
395.84	1107.07
396.04	1102.39
396.23	1078.99
396.42	1139.84
396.62	1093.03
396.81	1165.59
397.00	1095.37
397.19	1083.67
397.39	1163.25
397.58	1224.10
397.77	1287.29
397.97	1287.29
398.16	1252.19
398.35	1303.68
398.55	1249.85
398.74	1359.85
398.93	1409.00
399.12	1240.48
399.32	1364.53
399.51	1296.66
399.70	1401.98
399.90	1329.42
400.09	1357.51
400.28	1373.89
400.47	1469.86
400.67	1465.18
400.86	1495.60
401.05	1446.45
401.24	1441.77
401.44	1516.67
401.63	1537.73
401.82	1465.18
402.01	1490.92
402.21	1481.56
402.40	1476.88
402.59	1474.54
402.78	1568.16
402.97	1607.95
403.17	1593.90
403.36	1612.63
403.55	1537.73
403.74	1736.68
403.93	1549.43
404.13	1692.21
404.32	1631.35
404.51	1563.48
404.70	1771.79
404.89	1757.74
405.09	1664.12
405.28	1696.89
405.47	1673.48
405.66	1717.95
405.85	1816.26
406.05	1834.98
406.24	1753.06
406.43	1888.81
406.62	1928.60
406.81	1893.49
407.00	1863.07
407.20	1689.87
407.39	1811.57
407.58	2001.16
407.77	1944.99
407.96	2040.95
408.15	1926.26
408.34	1895.83
408.54	1966.05
408.73	1989.46
408.92	2045.63
409.11	2101.80
409.30	1977.75
409.49	2036.27
409.68	1959.03
409.87	2080.74
410.07	2010.52
410.26	2132.23
410.45	2153.29
410.64	2155.63
410.83	2139.25
411.02	2279.68
411.21	2324.15
411.40	2284.36
411.59	2284.36
411.78	2352.24
411.98	2340.54
412.17	2359.26
412.36	2438.84
412.55	2473.95
412.74	2487.99
412.93	2321.81
413.12	2387.35
413.31	2583.95
413.50	2469.27
413.69	2427.14
413.88	2567.57
414.07	2612.04
414.26	2644.81
414.45	2761.83
414.64	2825.03
414.83	2630.76
415.02	2588.63
415.22	2787.58
415.41	2775.88
415.60	2715.02
415.79	2883.54
415.98	2883.54
416.17	2909.29
416.36	3014.61
416.55	2930.35
416.74	2904.60
416.93	2925.67
417.12	2888.22
417.31	3075.46
417.50	3035.67
417.69	3194.83
417.88	3239.30
418.07	3014.61
418.26	3126.96
418.45	3066.10
418.64	3248.66
418.83	3145.68
419.02	3138.66
419.21	3171.43
419.39	3194.83
419.58	3218.24
419.77	3302.50
419.96	3346.97
420.15	3265.05
420.34	3342.28
420.53	3431.23
420.72	3307.18
420.91	3337.60
421.10	3433.57
421.29	3463.99
421.48	3417.18
421.67	3382.07
421.86	3442.93
422.05	3311.86
422.24	3632.51
422.43	3421.86
422.61	3407.82
422.80	3363.35
422.99	3552.93
423.18	3597.40
423.37	3520.17
423.56	3569.32
423.75	3538.89
423.94	3487.40
424.13	3403.14
424.32	3377.39
424.50	3552.93
424.69	3618.47
424.88	3639.53
425.07	3562.30
425.26	3597.40
425.45	3445.27
425.64	3613.79
425.83	3613.79
426.01	3707.41
426.20	3669.96
426.39	3705.07
426.58	3536.55
426.77	3630.17
426.96	3613.79
427.15	3543.57
427.33	3679.32
427.52	3712.09
427.71	3625.49
427.90	3679.32
428.09	3833.80
428.28	3737.84
428.46	3761.24
428.65	3665.28
428.84	3817.41
429.03	3873.59
429.22	3805.71
429.40	3700.39
429.59	3730.81
429.78	3770.60
429.97	3632.51
430.16	3618.47
430.34	3810.39
430.53	3810.39
430.72	3969.55
430.91	4049.13
431.10	4032.74
431.28	4196.58
431.47	4088.92
431.66	4187.22
431.85	4198.92
432.03	4276.16
432.22	4308.93
432.41	4152.11
432.60	4191.90
432.79	4163.81
432.97	4217.65
433.16	4217.65
433.35	4166.15
433.54	4273.82
433.72	4229.35
433.91	4257.43
434.10	4236.37
434.28	4299.56
434.47	4280.84
434.66	4337.01
434.85	4437.66
435.03	4454.04
435.22	4505.53
435.41	4622.56
435.59	4596.81
435.78	4601.49
435.97	4526.60
436.16	4472.76
436.34	4571.07
436.53	4613.20
436.72	4667.03
436.90	4615.54
437.09	4702.14
437.28	4699.80
437.46	4746.61
437.65	4823.84
437.84	4601.49
438.02	4615.54
438.21	4688.09
438.40	4713.84
438.58	4809.80
438.77	5020.45
438.96	4975.98
439.14	5034.49
439.33	4971.30
439.52	5139.82
439.70	5093.01
439.89	5170.24
440.08	5191.31
440.26	5263.86
440.45	5221.74
440.63	5369.19
440.82	5423.02
441.01	5289.61
441.19	5348.12
441.38	5448.77
441.57	5420.68
441.75	5420.68
441.94	5465.15
442.12	5490.90
442.31	5680.48
442.50	5668.78
442.68	5600.90
442.87	5650.05
443.05	5584.52
443.24	5956.66
443.43	5738.99
443.61	5738.99
443.80	6064.33
443.98	5614.95
444.17	5577.50
444.35	5914.53
444.54	5970.71
444.73	5703.89
444.91	5912.19
445.10	5891.13
445.28	5830.27
445.47	5767.08
445.65	5675.80
445.84	5961.34
446.02	5973.05
446.21	6071.35
446.39	5844.32
446.58	5874.74
446.77	6113.48
446.95	5956.66
447.14	6040.92
447.32	5933.26
447.51	6129.86
447.69	5980.07
447.88	6150.93
448.06	6061.99
448.25	5982.41
448.43	6104.12
448.62	5973.05
448.80	6038.58
448.99	6230.51
449.17	6120.50
449.36	6078.37
449.54	6242.21
449.73	6375.62
449.91	6497.33
450.10	6415.41
450.28	6471.58
450.46	6427.11
450.65	6319.45
450.83	6403.71
451.02	6420.09
451.20	6478.60
451.39	6527.75
451.57	6417.75
451.76	6502.01
451.94	6530.09
452.13	6597.97
452.31	6527.75
452.49	6368.60
452.68	6520.73
452.86	6466.90
453.05	6651.80
453.23	6541.80
453.42	6551.16
453.60	6705.63
453.78	6637.76
453.97	6825.00
454.15	6583.93
454.34	6792.23
454.52	6780.53
454.70	6750.10
454.89	6981.82
455.07	6717.34
455.26	6857.77
455.44	6953.73
455.62	7021.61
455.81	6906.92
455.99	6810.96
456.17	7049.69
456.36	7012.24
456.54	7152.68
456.73	7241.62
456.91	7201.83
457.09	7166.72
457.28	7412.48
457.46	7316.51
457.64	7286.09
457.83	7225.23
458.01	7269.70
458.19	7637.17
458.38	7393.75
458.56	7510.78
458.74	7428.86
458.93	7414.82
459.11	7442.90
459.29	7517.80
459.48	7620.78
459.66	7447.58
459.84	7332.90
460.03	7978.89
460.21	7754.19
460.39	7744.83
460.57	7810.37
460.76	7887.61
460.94	7911.01
461.12	7667.60
461.31	7637.17
461.49	7712.07
461.67	7805.69
461.85	8198.90
462.04	7857.18
462.22	8224.64
462.40	8105.28
462.59	8109.96
462.77	7892.29
462.95	8215.28
463.13	7957.82
463.32	7817.39
463.50	8138.04
463.68	8257.41
463.86	8280.82
464.05	8131.02
464.23	8166.13
464.41	8175.49
464.59	8004.63
464.78	8454.02
464.96	8374.44
465.14	8271.45
465.32	8449.33
465.50	8608.49
465.69	8554.66
465.87	8264.43
466.05	8297.20
466.23	8409.54
466.41	8280.82
466.60	8629.56
466.78	8250.39
466.96	8425.93
467.14	8484.44
467.32	8533.59
467.51	8664.66
467.69	8224.64
467.87	8533.59
468.05	8842.54
468.23	8702.11
468.41	8823.82
468.60	8695.09
468.78	8821.48
468.96	8545.30
469.14	8767.65
469.32	8711.47
469.50	8580.40
469.69	8931.48
469.87	9104.68
470.05	8952.55
470.23	9029.79
470.41	8980.64
470.59	8978.30
470.77	8994.68
470.95	9041.49
471.14	9210.01
471.32	8999.36
471.50	9301.29
471.68	9331.72
471.86	9296.61
472.04	9551.73
472.22	9631.30
472.40	9427.68
472.58	9427.68
472.77	9427.68
472.95	9593.86
473.13	9750.67
473.31	9717.90
473.49	9577.47
473.67	9771.74
473.85	9774.08
474.03	10073.67
474.21	9970.68
474.39	10132.18
474.57	10008.13
474.75	10045.58
474.93	10111.11
475.12	10068.98
475.30	10139.20
475.48	10029.20
475.66	10391.98
475.84	10202.40
476.02	10403.68
476.20	10555.82
476.38	10703.27
476.56	10860.09
476.74	10817.96
476.92	10656.46
477.10	10799.23
477.28	11201.80
477.46	10745.40
477.64	11293.08
477.82	11295.43
478.00	11372.66
478.18	11456.92
478.36	11351.60
478.54	11566.93
478.72	11548.20
478.90	11852.47
479.08	11674.59
479.26	11861.84
479.44	12180.15
479.62	12086.53
479.80	12025.67
479.98	12187.17
480.16	12564.00
480.34	12264.41
480.52	12552.29
480.70	12479.74
480.88	12381.43
481.06	12671.66
481.24	12737.20
481.41	12751.24
481.59	13008.70
481.77	13146.79
481.95	13198.28
482.13	13352.76
482.31	13334.03
482.49	13654.69
482.67	13788.10
482.85	13720.22
483.03	13802.14
483.21	13944.91
483.39	14155.56
483.57	13928.53
483.74	14235.14
483.92	14633.03
484.10	14214.07
484.28	14483.24
484.46	14721.97
484.64	14995.81
484.82	14623.67
485.00	14850.70
485.18	15269.66
485.35	15101.14
485.53	15005.17
485.71	15021.56
485.89	15248.59
486.07	15456.90
486.25	15356.25
486.43	15264.97
486.61	15606.69
486.78	15932.03
486.96	15866.49
487.14	16182.46
487.32	16154.38
487.50	16236.30
487.68	16439.92
487.85	16830.79
488.03	16943.14
488.21	17135.06
488.39	17137.40
488.57	17202.94
488.75	17137.40
488.92	17635.94
489.10	17408.90
489.28	17727.22
489.46	18001.06
489.64	18001.06
489.81	18389.59
489.99	18097.02
490.17	18455.12
490.35	19000.47
490.53	18735.99
490.70	18899.83
490.88	18984.09
491.06	19168.99
491.24	19241.54
491.41	19073.03
491.59	19267.29
491.77	18974.72
491.95	19438.15
492.13	19728.38
492.30	19887.53
492.48	20114.56
492.66	20065.41
492.84	20276.06
493.01	19969.45
493.19	20130.95
493.37	20730.12
493.54	20739.49
493.72	20915.03
493.90	20680.97
494.08	21252.06
494.25	21481.44
494.43	21137.38
494.61	21401.86
494.79	21493.14
494.96	21462.71
495.14	21633.57
495.32	21827.84
495.49	22008.06
495.67	22043.17
495.85	21996.35
496.02	22352.12
496.20	22258.49
496.38	22534.68
496.55	22471.48
496.73	23178.33
496.91	22890.44
497.09	22944.27
497.26	23349.18
497.44	23260.24
497.62	23342.16
497.79	23459.19
497.97	23590.26
498.14	23367.91
498.32	23616.01
498.50	23527.06
498.67	23974.11
498.85	23955.38
499.03	24381.36
499.20	24142.63
499.38	24297.10
499.56	24098.16
499.73	24638.82
499.91	24898.62
500.08	24891.60
500.26	24531.15
500.44	24458.60
500.61	24844.79
500.79	24400.08
500.97	25036.71
501.14	25486.09
501.32	25003.94
501.49	25123.31
501.67	25209.91
501.84	25373.75
502.02	25743.55
502.20	25448.64
502.37	25909.73
502.55	25727.17
502.72	25715.47
502.90	26169.53
503.07	26080.59
503.25	25874.62
503.43	25919.09
503.60	26319.32
503.78	26111.02
503.95	26106.34
504.13	26384.86
504.30	26347.41
504.48	26555.72
504.65	26904.46
504.83	26822.54
505.01	27164.26
505.18	27080.00
505.36	27164.26
505.53	27204.05
505.71	27522.36
505.88	27559.81
506.06	27339.80
506.23	27676.83
506.41	27578.53
506.58	27854.72
506.76	27833.65
506.93	27983.44
507.11	27828.97
507.28	27957.70
507.46	27538.74
507.63	28173.03
507.81	28283.03
507.98	28154.30
508.16	28334.53
508.33	28606.03
508.50	28383.68
508.68	28683.27
508.85	29205.20
509.03	28711.35
509.20	28781.57
509.38	29242.65
509.55	28961.79
509.73	28985.19
509.90	29373.72
510.08	28879.87
510.25	29338.62
510.42	29610.12
510.60	29465.00
510.77	29495.43
510.95	29867.58
511.12	29717.78
511.30	29961.20
511.47	30487.82
511.64	30092.27
511.82	29965.88
511.99	29682.67
512.17	29930.77
512.34	30178.87
512.51	30314.62
512.69	30529.95
512.86	30717.19
513.04	30918.48
513.21	30707.83
513.38	30380.15
513.56	31061.25
513.73	30581.44
513.90	30883.37
514.08	31040.18
514.25	31260.20
514.43	31211.04
514.60	31016.78
514.77	31257.85
514.95	31225.09
515.12	31358.50
515.29	31566.81
515.47	31651.06
515.64	31744.69
515.81	31524.68
515.99	31704.90
516.16	31857.03
516.33	31786.82
516.51	31442.76
516.68	31608.93
516.85	31426.37
517.03	31873.42
517.20	32121.51
517.37	32128.53
517.54	32077.04
517.72	32325.14
517.89	32123.85
518.06	32027.89
518.24	32306.41
518.41	32297.05
518.58	32701.96
518.75	32748.78
518.93	32966.45
519.10	32706.65
519.27	32730.05
519.45	32711.33
519.62	33181.77
519.79	33151.35
519.96	33163.05
520.14	33427.53
520.31	33345.61
520.48	33546.90
520.65	33448.60
520.83	33476.68
521.00	33717.76
521.17	33598.39
521.34	33949.47
521.52	33792.65
521.69	33584.35
521.86	33752.87
522.03	33930.75
522.20	34206.93
522.38	34312.25
522.55	34536.94
522.72	33666.27
522.89	34307.57
523.07	34843.56
523.24	34490.13
523.41	34426.94
523.58	34890.37
523.75	35033.14
523.92	34548.65
524.10	35150.17
524.27	35126.76
524.44	34866.96
524.61	35304.64
524.78	35288.26
524.96	35431.03
525.13	35325.71
525.30	35683.81
525.47	35821.90
525.64	35269.53
525.81	35351.45
525.98	35379.54
526.16	35468.48
526.33	35480.18
526.50	35477.84
526.67	35072.93
526.84	35597.21
527.01	35786.79
527.18	35646.36
527.36	35861.69
527.53	35892.12
527.70	35924.88
527.87	36292.35
528.04	36196.38
528.21	36329.80
528.38	36460.87
528.55	36868.12
528.72	36449.16
528.89	36676.19
529.07	36446.82
529.24	35894.46
529.41	36568.53
529.58	36460.87
529.75	36676.19
529.92	37043.66
530.09	36512.36
530.26	37053.02
530.43	37120.90
530.60	36877.48
530.77	36779.18
530.94	37368.99
531.11	36985.15
531.28	36875.14
531.46	37352.61
531.63	37305.80
531.80	37652.20
531.97	37130.26
532.14	37268.35
532.31	37514.11
532.48	37577.30
532.65	37586.66
532.82	37502.40
532.99	37666.24
533.16	37394.74
533.33	37572.62
533.50	37919.02
533.67	37434.53
533.84	38106.26
534.01	37713.05
534.18	37741.14
534.35	37858.17
534.52	37804.33
534.69	38520.54
534.86	38071.15
535.03	37872.21
535.20	38630.54
535.37	38883.32
535.54	38939.49
535.71	38328.61
535.88	38600.12
536.05	38326.27
536.22	38398.83
536.38	38433.94
536.55	38698.42
536.72	38260.74
536.89	38417.55
537.06	39042.48
537.23	38691.40
537.40	38684.37
537.57	38660.97
537.74	38724.16
537.91	38756.93
538.08	39014.39
538.25	38845.87
538.42	39019.07
538.59	38855.23
538.75	38946.51
538.92	39166.52
539.09	39175.89
539.26	39442.71
539.43	39330.36
539.60	38990.98
539.77	39313.98
539.94	39012.05
540.11	39159.50
540.28	39487.18
540.44	39349.09
540.61	39508.24
540.78	39117.37
540.95	39583.14
541.12	39908.47
541.29	39370.15
541.46	39313.98
541.62	39608.89
541.79	39955.29
541.96	39351.43
542.13	39648.68
542.30	39737.62
542.47	39908.47
542.63	40219.77
542.80	39976.35
542.97	40528.72
543.14	40514.67
543.31	40666.81
543.48	40568.51
543.64	41284.71
543.81	40418.71
543.98	40783.83
544.15	40495.95
544.32	40790.86
544.48	40713.62
544.65	40889.16
544.82	41043.63
544.99	40966.40
545.16	40933.63
545.32	40938.31
545.49	41338.54
545.66	41130.23
545.83	41181.73
546.00	41731.75
546.16	41148.96
546.33	41099.81
546.50	40751.07
546.67	41106.83
546.83	40741.71
547.00	41223.86
547.17	41422.80
547.34	41296.41
547.50	41287.05
547.67	41748.14
547.84	41228.54
548.00	41710.69
548.17	42019.64
548.34	41963.46
548.51	41586.64
548.67	41488.34
548.84	41804.31
549.01	41530.47
549.18	41619.41
549.34	41680.26
549.51	41895.59
549.68	41635.79
549.84	41635.79
550.01	41785.58
550.18	42134.32
550.34	41483.66
550.51	42209.22
550.68	42007.94
550.84	41790.27
551.01	42232.63
551.18	41827.71
551.34	42162.41
551.51	42122.62
551.68	42349.65
551.84	42087.51
552.01	41984.53
552.18	41911.97
552.34	42064.11
552.51	42263.05
552.68	42139.00
552.84	42784.99
553.01	42490.09
553.18	42412.85
553.34	42321.57
553.51	42199.86
553.67	42335.61
553.84	42298.16
554.01	42969.90
554.17	43105.65
554.34	42593.07
554.51	42974.58
554.67	43115.01
554.84	42618.81
555.00	42707.76
555.17	42614.13
555.33	42492.43
555.50	42569.66
555.67	43112.67
555.83	42932.45
556.00	42911.38
556.16	43426.30
556.33	42782.65
556.50	42728.82
556.66	43253.10
556.83	42745.20
556.99	43239.06
557.16	43365.45
557.32	43152.46
557.49	43419.28
557.65	43100.97
557.82	42873.93
557.98	43798.44
558.15	43515.24
558.32	43615.88
558.48	42965.21
558.65	43185.22
558.81	42738.18
558.98	42955.85
559.14	43407.58
559.31	43246.08
559.47	43533.96
559.64	43566.73
559.80	43236.72
559.97	43416.94
560.13	43550.35
560.30	43213.31
560.46	43480.13
560.63	43683.76
560.79	43718.87
560.96	43995.05
561.12	44009.09
561.29	43770.36
561.45	43782.06
561.61	43545.67
561.78	43459.07
561.94	43463.75
562.11	43548.01
562.27	43517.58
562.44	43505.88
562.60	43824.19
562.77	43693.12
562.93	43569.07
563.10	43707.16
563.26	43124.37
563.42	43536.30
563.59	43686.10
563.75	43791.42
563.92	43681.42
564.08	43491.83
564.24	44121.44
564.41	43833.55
564.57	43807.81
564.74	43906.11
564.90	43756.32
565.07	44177.61
565.23	44133.14
565.39	43999.73
565.56	44133.14
565.72	43477.79
565.88	44156.55
566.05	43988.03
566.21	43784.40
566.38	44083.99
566.54	44182.29
566.70	44498.26
566.87	44332.09
567.03	43952.92
567.19	44540.39
567.36	44072.29
567.52	44257.19
567.68	44062.93
567.85	44100.37
568.01	44121.44
568.17	44119.10
568.34	44278.25
568.50	44196.34
568.66	44069.95
568.83	44491.24
568.99	43508.22
569.15	44013.77
569.32	44261.87
569.48	44030.16
569.64	44402.30
569.81	44208.04
569.97	44626.99
570.13	44275.91
570.30	43969.30
570.46	43744.61
570.62	43714.19
570.78	43807.81
570.95	44201.02
571.11	44594.23
571.27	43959.94
571.43	44231.44
571.60	44332.09
571.76	44037.18
571.92	44233.78
572.09	44280.60
572.25	44318.04
572.41	44002.07
572.57	44184.63
572.74	44861.05
572.90	44477.20
573.06	44243.15
573.22	44133.14
573.38	44383.58
573.55	44182.29
573.71	44275.91
573.87	44095.69
574.03	44325.07
574.20	44308.68
574.36	44488.90
574.52	44208.04
574.68	44128.46
574.84	44495.92
575.01	44715.93
575.17	44397.62
575.33	43887.39
575.49	44404.64
575.65	44521.67
575.82	44769.77
575.98	44414.01
576.14	44594.23
576.30	44257.19
576.46	44451.45
576.62	44561.46
576.79	44133.14
576.95	44030.16
577.11	44098.03
577.27	44493.58
577.43	44463.16
577.59	44706.57
577.75	44236.12
577.92	43971.64
578.08	44257.19
578.24	44289.96
578.40	44474.86
578.56	44411.67
578.72	44453.79
578.88	44811.90
579.04	44542.74
579.21	44664.44
579.37	44531.03
579.53	43976.33
579.69	44053.56
579.85	44659.76
580.01	44542.74
580.17	44626.99
580.33	44903.18
580.49	44294.64
580.65	44521.67
580.82	44659.76
580.98	44626.99
581.14	44931.26
581.30	44807.22
581.46	44776.79
581.62	44825.94
581.78	44341.45
581.94	44624.65
582.10	44268.89
582.26	44762.75
582.42	44776.79
582.58	44456.14
582.74	44390.60
582.90	44676.15
583.06	44849.35
583.22	45024.89
583.38	44470.18
583.54	44919.56
583.70	44636.36
583.86	44786.15
584.02	44673.81
584.18	44811.90
584.34	44683.17
584.50	44603.59
584.66	44545.08
584.82	44275.91
584.98	44933.60
585.14	44545.08
585.30	44575.50
585.46	44638.70
585.62	44053.56
585.78	44458.48
585.94	44458.48
586.10	44285.28
586.26	44442.09
586.42	44495.92
586.58	44865.73
586.74	44722.96
586.90	44678.49
587.06	44598.91
587.22	44591.89
587.38	44498.26
587.54	44666.78
587.70	45109.14
587.86	44924.24
588.02	44652.74
588.18	44722.96
588.34	44603.59
588.49	44254.85
588.65	44060.58
588.81	44619.97
588.97	44355.49
589.13	44619.97
589.29	44376.56
589.45	44947.65
589.61	44795.51
589.77	45006.16
589.93	44374.22
590.08	44900.84
590.24	44680.83
590.40	45097.44
590.56	45364.26
590.72	45155.96
590.88	44886.79
591.04	44856.37
591.20	45425.12
591.35	45045.95
591.51	45244.90
591.67	44931.26
591.83	44823.60
591.99	44545.08
592.15	44870.41
592.31	45226.17
592.46	44720.62
592.62	44987.44
592.78	44940.63
592.94	45364.26
593.10	44978.07
593.26	44694.87
593.41	45120.85
593.57	44718.28
593.73	45132.55
593.89	45078.72
594.05	44879.77
594.20	44809.56
594.36	45282.34
594.52	44886.79
594.68	45062.33
594.84	44697.21
594.99	45303.41
595.15	44933.60
595.31	44769.77
595.47	44856.37
595.62	44989.78
595.78	45048.29
595.94	44931.26
596.10	45195.74
596.25	45610.02
596.41	45148.93
596.57	44884.45
596.73	45081.06
596.88	44659.76
597.04	44641.04
597.20	44898.50
597.36	44907.86
597.51	45083.40
597.67	45441.50
597.83	45563.21
597.99	45052.97
598.14	45277.66
598.30	44411.67
598.46	44856.37
598.61	45214.47
598.77	44631.68
598.93	44685.51
599.09	44907.86
599.24	45485.97
599.40	45198.09
599.56	45226.17
599.71	45287.03
599.87	45268.30
600.03	44809.56
600.18	44992.12
600.34	45191.06
600.50	45064.67
600.65	44720.62
600.81	45181.70
600.97	45371.28
601.12	45113.83
601.28	45104.46
601.44	45439.16
601.59	44889.13
601.75	44811.90
601.91	44811.90
602.06	44978.07
602.22	45340.86
602.37	45106.80
602.53	44903.18
602.69	45610.02
602.84	45212.13
603.00	45127.87
603.16	44596.57
603.31	45347.88
603.47	44978.07
603.62	45022.54
603.78	45303.41
603.94	45258.94
604.09	45514.06
604.25	44818.92
604.40	45357.24
604.56	44715.93
604.71	45333.84
604.87	44884.45
605.03	44720.62
605.18	45081.06
605.34	44715.93
605.49	44402.30
605.65	44924.24
605.80	45003.82
605.96	45083.40
606.12	45043.61
606.27	45322.13
606.43	44851.69
606.58	44917.22
606.74	45036.59
606.89	44605.93
607.05	45074.04
607.20	44942.97
607.36	44591.89
607.51	44896.16
607.67	44762.75
607.82	44830.62
607.98	44830.62
608.13	44781.47
608.29	44418.69
608.44	44414.01
608.60	44282.94
608.75	44479.54
608.91	44498.26
609.06	44236.12
609.22	44697.21
609.37	44252.51
609.53	44547.42
609.68	44477.20
609.84	44549.76
609.99	44505.29
610.15	44156.55
610.30	44151.87
610.46	43983.35
610.61	44336.77
610.76	44481.88
610.92	44767.43
611.07	44776.79
611.23	44404.64
611.38	44484.22
611.54	44402.30
611.69	44591.89
611.84	43793.76
612.00	44329.75
612.15	44219.74
612.31	44273.57
612.46	44430.39
612.62	44512.31
612.77	44411.67
612.92	44409.32
613.08	44292.30
613.23	44308.68
613.39	43711.84
613.54	43824.19
613.69	44296.98
613.85	44327.41
614.00	44409.32
614.15	44402.30
614.31	44212.72
614.46	44271.23
614.62	44060.58
614.77	44030.16
614.92	43814.83
615.08	43714.19
615.23	43718.87
615.38	44009.09
615.54	43948.24
615.69	44058.24
615.84	44170.59
616.00	43683.76
616.15	43889.73
616.30	43957.60
616.46	43250.76
616.61	43171.18
616.76	43416.94
616.92	43442.68
617.07	43093.94
617.22	43236.72
617.37	43213.31
617.53	44002.07
617.68	43742.27
617.83	43611.20
617.99	44081.65
618.14	43636.95
618.29	43892.07
618.45	43138.41
618.60	43641.63
618.75	43332.68
618.90	43634.61
619.06	43700.14
619.21	43288.21
619.36	43304.59
619.51	43599.50
619.67	43543.33
619.82	43426.30
619.97	43693.12
620.12	43683.76
620.28	42735.84
620.43	42864.57
620.58	43152.46
620.73	42763.93
620.89	43124.37
621.04	43115.01
621.19	43028.41
621.34	42972.24
621.49	43309.27
621.65	42494.77
621.80	42693.71
621.95	42583.71
622.10	43058.84
622.25	42642.22
622.41	42834.14
622.56	42674.99
622.71	42682.01
622.86	42497.11
623.01	42609.45
623.16	42513.49
623.32	42632.86
623.47	42766.27
623.62	42506.47
623.77	42410.51
623.92	42761.59
624.07	42316.89
624.23	42834.14
624.38	42705.41
624.53	42164.75
624.68	42089.85
624.83	42356.67
624.98	42066.45
625.13	42520.51
625.29	42029.00
625.44	41635.79
625.59	42230.29
625.74	42167.09
625.89	41808.99
626.04	41752.82
626.19	41904.95
626.34	42316.89
626.49	42602.43
626.65	42241.99
626.80	42777.97
626.95	42330.93
627.10	42010.28
627.25	42078.15
627.40	41734.09
627.55	41397.06
627.70	41289.39
627.85	41420.46
628.00	41420.46
628.15	42026.66
628.30	41317.48
628.45	42029.00
628.60	41888.57
628.76	41844.10
628.91	41766.86
629.06	41560.89
629.21	41397.06
629.36	41680.26
629.51	41324.50
629.66	41368.97
629.81	41354.93
629.96	41464.93
630.11	41710.69
630.26	41495.36
630.41	41457.91
630.56	41397.06
630.71	41577.28
630.86	41181.73
631.01	40893.84
631.16	41230.88
631.31	40711.28
631.46	40917.25
631.61	40914.90
631.76	41378.33
631.91	41184.07
632.06	41235.56
632.21	41181.73
632.36	41666.22
632.51	40673.83
632.66	40973.42
632.81	40418.71
632.96	40657.45
633.10	40847.03
633.25	40620.00
633.40	40879.80
633.55	41043.63
633.70	40959.38
633.85	40772.13
634.00	40383.60
634.15	40891.50
634.30	40917.25
634.45	40879.80
634.60	40755.75
634.75	41003.85
634.90	40409.35
635.05	40399.99
635.19	40364.88
635.34	40341.47
635.49	40219.77
635.64	40215.08
635.79	40720.64
635.94	41067.04
636.09	40112.10
636.24	40112.10
636.39	39997.41
636.53	40062.95
636.68	39936.56
636.83	40208.06
636.98	40212.74
637.13	40329.77
637.28	40339.13
637.43	40172.96
637.57	40432.75
637.72	40025.50
637.87	40102.74
638.02	40187.00
638.17	40687.87
638.32	39826.56
638.46	39690.80
638.61	40161.25
638.76	39655.70
638.91	40058.27
639.06	39756.34
639.20	39969.33
639.35	40095.72
639.50	39777.40
639.65	39754.00
639.80	40671.49
639.94	39772.72
640.09	40121.46
640.24	39421.64
640.39	39550.37
640.54	39400.58
640.68	39669.74
640.83	39452.07
640.98	39288.23
641.13	39533.99
641.27	39704.85
641.42	39749.32
641.57	39356.11
641.72	39318.66
641.86	39407.60
642.01	39000.35
642.16	39402.92
642.31	39042.48
642.45	39150.14
642.60	39400.58
642.75	39178.23
642.90	39335.04
643.04	39058.86
643.19	39260.15
643.34	39065.88
643.48	39009.71
643.63	38909.07
643.78	38483.09
643.93	38689.06
644.07	38775.66
644.22	39321.00
644.37	38630.54
644.51	39122.05
644.66	39241.42
644.81	38778.00
644.95	38857.57
645.10	39037.80
645.25	38983.96
645.39	38960.56
645.54	38616.50
645.69	38642.24
645.83	38574.37
645.98	38485.43
646.13	38892.68
646.27	39065.88
646.42	39005.03
646.57	38684.37
646.71	39145.46
646.86	39100.99
647.00	38850.55
647.15	39054.18
647.30	38293.50
647.44	37914.34
647.59	38586.07
647.74	38363.72
647.88	38401.17
648.03	38513.52
648.17	38354.36
648.32	38162.43
648.47	37797.31
648.61	38333.29
648.76	38206.90
648.90	38492.45
649.05	38183.50
649.20	37979.87
649.34	37972.85
649.49	38171.80
649.63	38185.84
649.78	38157.75
649.92	38029.02
650.07	38272.44
650.21	37670.92
650.36	37816.04
650.51	38003.28
650.65	38347.34
650.80	38387.13
650.94	37972.85
651.09	37860.51
651.23	37404.10
651.38	37944.76
651.52	37268.35
651.67	37628.79
651.81	37703.69
651.96	37460.27
652.10	37748.16
652.25	37631.13
652.39	37853.48
652.54	37701.35
652.68	37970.51
652.83	37579.64
652.97	37890.93
653.12	37663.90
653.26	37364.31
653.41	37694.33
653.55	37209.84
653.70	37156.00
653.84	37361.97
653.99	37268.35
654.13	37184.09
654.27	37638.15
654.42	37603.05
654.56	36800.24
654.71	37368.99
654.85	37572.62
655.00	37280.05
655.14	36875.14
655.29	37036.64
655.43	37256.65
655.57	36699.60
655.72	36699.60
655.86	36704.28
656.01	36699.60
656.15	36723.01
656.30	36573.21
656.44	36730.03
656.58	36978.12
656.73	36636.41
656.87	37205.16
657.01	36856.42
657.16	37074.09
657.30	36418.74
657.45	36219.79
657.59	36334.48
657.73	36058.29
657.88	37006.21
658.02	36788.54
658.16	36430.44
658.31	37319.84
658.45	36215.11
658.60	36725.35
658.74	36395.33
658.88	36531.08
659.03	36514.70
659.17	36411.71
659.31	36362.56
659.46	35791.47
659.60	36287.67
659.74	36493.63
659.89	36280.64
660.03	36226.81
660.17	36318.09
660.32	35885.09
660.46	36247.88
660.60	35681.47
660.74	36037.23
660.89	36081.70
661.03	35725.94
661.17	35749.34
661.32	35086.97
661.46	35426.35
661.60	35796.15
661.74	35840.62
661.89	35627.63
662.03	35349.11
662.17	35145.48
662.31	35145.48
662.46	35534.01
662.60	35512.95
662.74	35302.30
662.88	34888.03
663.03	34976.97
663.17	35079.95
663.31	34838.87
663.45	35070.59
663.60	34974.63
663.74	34724.19
663.88	35103.35
664.02	34763.98
664.17	34967.60
664.31	34506.52
664.45	34480.77
664.59	34167.14
664.73	34639.93
664.88	34506.52
665.02	34356.72
665.16	34520.56
665.30	34422.26
665.44	34029.05
665.59	34078.20
665.73	33923.72
665.87	34401.19
666.01	34307.57
666.15	34195.23
666.29	34082.88
666.44	34284.17
666.58	34068.84
666.72	33663.93
666.86	33888.62
667.00	33776.27
667.14	33572.64
667.28	33549.24
667.43	33362.00
667.57	33638.18
667.71	33158.37
667.85	33001.55
667.99	33441.57
668.13	33532.86
668.27	33116.24
668.41	33305.82
668.56	33039.00
668.70	33549.24
668.84	33319.87
668.98	32793.25
669.12	32926.66
669.26	32549.83
669.40	32217.47
669.54	32774.52
669.68	32701.96
669.82	32507.70
669.96	32582.60
670.10	32512.38
670.25	32458.55
670.39	32669.20
670.53	32395.35
670.67	32449.19
670.81	32823.67
670.95	32488.98
671.09	31927.25
671.23	32210.45
671.37	32063.00
671.51	32140.24
671.65	31599.57
671.79	31950.65
671.93	31889.80
672.07	31707.24
672.21	32011.51
672.35	32128.53
672.49	31772.77
672.63	31658.09
672.77	31578.51
672.91	31950.65
673.05	31686.17
673.19	31646.38
673.33	31199.34
673.47	31044.87
673.61	31344.45
673.75	30925.50
673.89	30827.20
674.03	30539.31
674.17	30890.39
674.31	30675.06
674.45	30663.36
674.59	31026.14
674.73	30476.12
674.87	30424.62
675.01	30675.06
675.15	30490.16
675.29	30445.69
675.43	30417.60
675.56	30026.73
675.70	30164.82
675.84	30066.52
675.98	29174.78
676.12	29497.77
676.26	30000.99
676.40	30211.64
676.54	29490.75
676.68	29453.30
676.82	28940.72
676.96	29483.73
677.10	29724.80
677.23	29146.69
677.37	29600.76
677.51	28671.56
677.65	29055.41
677.79	28807.31
677.93	28776.89
678.07	28760.50
678.21	28306.44
678.34	28627.09
678.48	28400.06
678.62	27894.50
678.76	28180.05
678.90	27833.65
679.04	27948.34
679.18	27988.13
679.31	27484.91
679.45	27662.79
679.59	27365.54
679.73	27108.08
679.87	27332.78
680.00	27349.16
680.14	27374.91
680.28	27316.39
680.42	27098.72
680.56	27346.82
680.70	27424.06
680.83	27035.53
680.97	27342.14
681.11	27314.05
681.25	26548.70
681.39	26651.68
681.52	27075.32
681.66	26934.88
681.80	26647.00
681.94	26522.95
682.07	26438.69
682.21	25930.80
682.35	25900.37
682.49	26471.46
682.62	26045.48
682.76	25678.02
682.90	25965.90
683.04	25500.14
683.17	25628.87
683.31	25280.13
683.45	25305.87
683.59	25369.07
683.72	25303.53
683.86	24959.47
684.00	25401.83
684.13	25268.42
684.27	24931.39
684.41	24643.50
684.55	24641.16
684.68	24652.86
684.82	24711.38
684.96	24556.90
685.09	23997.51
685.23	24592.01
685.37	24254.97
685.50	24617.75
685.64	24357.96
685.78	24168.37
685.91	23974.11
686.05	23985.81
686.19	23847.72
686.32	23768.14
686.46	23782.18
686.60	23484.94
686.73	23178.33
686.87	23358.55
687.01	22909.16
687.14	23047.26
687.28	22719.58
687.42	23051.94
687.55	23138.54
687.69	22993.42
687.82	22778.09
687.96	22951.29
688.10	22726.60
688.23	22614.26
688.37	22419.99
688.50	22267.86
688.64	21963.59
688.78	22108.70
688.91	22551.06
689.05	22059.55
689.18	22087.64
689.32	21771.66
689.46	21738.90
689.59	21738.90
689.73	21638.25
689.86	21694.43
690.00	21537.61
690.13	21647.61
690.27	21427.60
690.41	21415.90
690.54	20996.95
690.68	20870.56
690.81	21181.85
690.95	21074.18
691.08	20863.54
691.22	20837.79
691.35	20854.17
691.49	20514.80
691.62	20723.10
691.76	20662.25
691.89	20336.91
692.03	20152.01
692.16	20299.47
692.30	20063.07
692.43	19885.19
692.57	20032.65
692.70	19667.52
692.84	20013.92
692.97	19576.24
693.11	19901.58
693.24	19814.98
693.38	19372.61
693.51	19449.85
693.65	19400.70
693.78	19468.58
693.92	19452.19
694.05	19309.42
694.19	19278.99
694.32	18899.83
694.45	19227.50
694.59	18551.09
694.72	18974.72
694.86	18738.33
694.99	18487.89
695.13	18644.71
695.26	18401.29
695.39	18319.37
695.53	18331.08
695.66	18312.35
695.80	18403.63
695.93	18277.24
696.07	18082.98
696.20	18033.83
696.33	17869.99
696.47	17436.99
696.60	18090.00
696.73	17879.35
696.87	17486.14
697.00	17603.17
697.14	17600.83
697.27	17404.22
697.40	17481.46
697.54	17359.75
697.67	17029.74
697.80	17207.62
697.94	16875.26
698.07	17039.10
698.21	16510.14
698.34	16959.52
698.47	16608.44
698.61	16582.70
698.74	16486.73
698.87	16414.18
699.01	15943.73
699.14	16210.55
699.27	16156.72
699.40	15988.20
699.54	16130.97
699.67	16044.37
699.80	15974.16
699.94	15807.98
700.07	15817.34
700.20	15798.62
700.34	15922.66
700.47	15749.46
700.60	15819.68
700.73	15609.03
700.87	15602.01
701.00	15920.32
701.13	15414.77
701.26	15166.67
701.40	15475.62
701.53	14834.32
701.66	15056.67
701.79	14843.68
701.93	14927.94
702.06	14831.97
702.19	14733.67
702.32	14644.73
702.46	14459.83
702.59	14733.67
702.72	14415.36
702.85	14518.34
702.99	14579.20
703.12	14314.72
703.25	14157.90
703.38	14338.12
703.51	14066.62
703.65	14277.27
703.78	14134.50
703.91	14017.47
704.04	13881.72
704.17	14003.43
704.31	13771.71
704.44	13881.72
704.57	13748.31
704.70	13710.86
704.83	13806.82
704.96	13647.66
705.10	13635.96
705.23	13385.52
>>>>>End Processed Spectral Data<<<<<
