SpectraSuite Data File
++++++++++++++++++++++++++++++++++++
Date: Fri Oct 25 11:33:10 EDT 2013
User: price-jones
Dark Spectrum Present: No
Reference Spectrum Present: No
Number of Sampled Component Spectra: 1
Spectrometers: USB2+H05261
Integration Time (usec): 100000 (USB2+H05261)
Spectra Averaged: 1 (USB2+H05261)
Boxcar Smoothing: 0 (USB2+H05261)
Correct for Electrical Dark: No (USB2+H05261)
Strobe/Lamp Enabled: No (USB2+H05261)
Correct for Detector Non-linearity: No (USB2+H05261)
Correct for Stray Light: No (USB2+H05261)
Number of Pixels in Processed Spectrum: 2048
>>>>>Begin Processed Spectral Data<<<<<
365.73	248.10
365.92	248.10
366.12	248.10
366.32	147.45
366.52	184.90
366.72	236.39
366.91	100.64
367.11	227.03
367.31	145.11
367.51	152.13
367.70	95.96
367.90	196.60
368.10	133.41
368.30	248.10
368.49	245.76
368.69	138.09
368.89	210.65
369.09	238.73
369.28	180.22
369.48	177.88
369.68	266.82
369.87	210.65
370.07	222.35
370.27	297.25
370.47	290.23
370.66	421.30
370.86	521.94
371.06	538.32
371.25	582.79
371.45	552.37
371.65	540.66
371.84	533.64
372.04	550.03
372.24	519.60
372.44	566.41
372.63	580.45
372.83	589.82
373.03	622.58
373.22	552.37
373.42	685.78
373.62	557.05
373.81	713.86
374.01	622.58
374.21	627.26
374.40	566.41
374.60	622.58
374.79	561.73
374.99	622.58
375.19	603.86
375.38	559.39
375.58	617.90
375.78	629.60
375.97	683.44
376.17	683.44
376.37	683.44
376.56	627.26
376.76	655.35
376.95	613.22
377.15	692.80
377.35	688.12
377.54	685.78
377.74	657.69
377.93	671.73
378.13	716.20
378.33	739.61
378.52	744.29
378.72	788.76
378.91	723.23
379.11	685.78
379.31	681.10
379.50	683.44
379.70	669.39
379.89	755.99
380.09	706.84
380.28	732.59
380.48	704.50
380.68	786.42
380.87	690.46
381.07	774.72
381.26	805.14
381.46	741.95
381.65	788.76
381.85	702.16
382.04	767.70
382.24	844.93
382.43	833.23
382.63	765.36
382.83	793.44
383.02	760.67
383.22	835.57
383.41	821.53
383.61	786.42
383.80	903.45
384.00	795.78
384.19	842.59
384.39	833.23
384.58	748.97
384.78	781.74
384.97	847.27
385.17	800.46
385.36	791.10
385.56	800.46
385.75	826.21
385.95	924.51
386.14	847.27
386.34	898.77
386.53	795.78
386.72	854.30
386.92	821.53
387.11	880.04
387.31	786.42
387.50	884.72
387.70	894.08
387.89	873.02
388.09	929.19
388.28	987.71
388.48	866.00
388.67	943.24
388.86	938.55
389.06	905.79
389.25	945.58
389.45	931.53
389.64	1001.75
389.84	968.98
390.03	983.02
390.22	919.83
390.42	976.00
390.61	887.06
390.81	971.32
391.00	973.66
391.19	1018.13
391.39	1034.52
391.58	983.02
391.78	1039.20
391.97	1041.54
392.16	1022.81
392.36	1146.86
392.55	1046.22
392.75	1095.37
392.94	1062.60
393.13	1097.71
393.33	1125.80
393.52	997.07
393.71	1107.07
393.91	1069.62
394.10	1048.56
394.29	1111.75
394.49	1158.57
394.68	1142.18
394.88	1086.01
395.07	1104.73
395.26	1149.20
395.46	1088.35
395.65	1238.14
395.84	1188.99
396.04	1289.64
396.23	1146.86
396.42	1184.31
396.62	1188.99
396.81	1289.64
397.00	1160.91
397.19	1282.61
397.39	1177.29
397.58	1235.80
397.77	1198.35
397.97	1240.48
398.16	1284.95
398.35	1259.21
398.55	1252.19
398.74	1153.88
398.93	1385.60
399.12	1273.25
399.32	1315.38
399.51	1359.85
399.70	1434.75
399.90	1308.36
400.09	1423.05
400.28	1413.68
400.47	1434.75
400.67	1425.39
400.86	1357.51
401.05	1399.64
401.24	1371.55
401.44	1547.09
401.63	1481.56
401.82	1462.83
402.01	1511.99
402.21	1486.24
402.40	1554.12
402.59	1530.71
402.78	1575.18
402.97	1462.83
403.17	1603.27
403.36	1614.97
403.55	1558.80
403.74	1607.95
403.93	1600.93
404.13	1624.33
404.32	1561.14
404.51	1654.76
404.70	1570.50
404.89	1729.66
405.09	1710.93
405.28	1682.85
405.47	1666.46
405.66	1713.27
405.85	1724.97
406.05	1624.33
406.24	1724.97
406.43	1720.29
406.62	1827.96
406.81	1853.70
407.00	1799.87
407.20	1776.47
407.39	1806.89
407.58	1832.64
407.77	1799.87
407.96	1940.30
408.15	1860.73
408.34	1806.89
408.54	1928.60
408.73	1954.35
408.92	2017.54
409.11	1977.75
409.30	1975.41
409.49	1952.01
409.68	2083.08
409.87	2059.67
410.07	2167.34
410.26	1984.77
410.45	1966.05
410.64	2120.53
410.83	2090.10
411.02	2235.21
411.21	2183.72
411.40	2127.55
411.59	2216.49
411.78	2181.38
411.98	2307.77
412.17	2251.60
412.36	2232.87
412.55	2335.85
412.74	2363.94
412.93	2422.45
413.12	2333.51
413.31	2471.61
413.50	2335.85
413.69	2380.32
413.88	2497.35
414.07	2567.57
414.26	2483.31
414.45	2478.63
414.64	2478.63
414.83	2579.27
415.02	2502.03
415.22	2630.76
415.41	2787.58
415.60	2675.23
415.79	2710.34
415.98	2696.30
416.17	2693.96
416.36	2780.56
416.55	2780.56
416.74	2855.45
416.93	2848.43
417.12	2717.36
417.31	2878.86
417.50	2913.97
417.69	2984.18
417.88	3035.67
418.07	3014.61
418.26	2986.52
418.45	3059.08
418.64	3138.66
418.83	3164.40
419.02	3066.10
419.21	3162.06
419.39	3108.23
419.58	3023.97
419.77	3073.12
419.96	3068.44
420.15	3241.64
420.34	3234.62
420.53	3185.47
420.72	3337.60
420.91	3318.88
421.10	3311.86
421.29	3342.28
421.48	3222.92
421.67	3349.31
421.86	3192.49
422.05	3307.18
422.24	3349.31
422.43	3323.56
422.61	3463.99
422.80	3316.54
422.99	3346.97
423.18	3424.20
423.37	3480.38
423.56	3363.35
423.75	3534.21
423.94	3379.73
424.13	3253.34
424.32	3227.60
424.50	3585.70
424.69	3691.02
424.88	3618.47
425.07	3473.36
425.26	3475.70
425.45	3506.12
425.64	3398.46
425.83	3595.06
426.01	3522.51
426.20	3550.59
426.39	3454.63
426.58	3562.30
426.77	3471.01
426.96	3468.67
427.15	3630.17
427.33	3585.70
427.52	3571.66
427.71	3576.34
427.90	3653.58
428.09	3618.47
428.28	3735.50
428.46	3623.15
428.65	3695.71
428.84	3709.75
429.03	3810.39
429.22	3585.70
429.40	3847.84
429.59	3719.11
429.78	3754.22
429.97	3639.53
430.16	3808.05
430.34	3885.29
430.53	4016.36
430.72	3943.80
430.91	3889.97
431.10	3889.97
431.28	3932.10
431.47	4091.26
431.66	4037.42
431.85	3922.74
432.03	4219.99
432.22	4219.99
432.41	4119.34
432.60	4182.54
432.79	3997.64
432.97	4126.36
433.16	4065.51
433.35	4187.22
433.54	4262.12
433.72	4245.73
433.91	4163.81
434.10	4177.86
434.28	4180.20
434.47	4304.25
434.66	4322.97
434.85	4341.69
435.03	4292.54
435.22	4269.14
435.41	4379.14
435.59	4381.48
435.78	4425.95
435.97	4341.69
436.16	4517.23
436.34	4390.84
436.53	4589.79
436.72	4643.62
436.90	4432.97
437.09	4533.62
437.28	4470.42
437.46	4610.86
437.65	4699.80
437.84	4690.43
438.02	4655.33
438.21	4718.52
438.40	4643.62
438.58	4760.65
438.77	4793.42
438.96	4678.73
439.14	5013.43
439.33	4966.62
439.52	4926.83
439.70	5022.79
439.89	4994.70
440.08	5057.90
440.26	5139.82
440.45	5029.81
440.63	5137.48
440.82	5226.42
441.01	5078.96
441.19	5240.46
441.38	5303.65
441.57	5291.95
441.75	5287.27
441.94	5458.13
442.12	5343.44
442.31	5586.86
442.50	5479.19
442.68	5432.38
442.87	5460.47
443.05	5657.07
443.24	5652.39
443.43	5572.82
443.61	5628.99
443.80	5846.66
443.98	5568.13
444.17	5331.74
444.35	5607.92
444.54	5724.95
444.73	5713.25
444.91	5579.84
445.10	5724.95
445.28	5834.96
445.47	5710.91
445.65	5853.68
445.84	5762.40
446.02	5795.17
446.21	5785.80
446.39	5860.70
446.58	5743.67
446.77	5795.17
446.95	5561.11
447.14	5877.09
447.32	5837.30
447.51	5930.92
447.69	5734.31
447.88	5696.86
448.06	5874.74
448.25	5844.32
448.43	5973.05
448.62	5858.36
448.80	5846.66
448.99	5879.43
449.17	6036.24
449.36	6076.03
449.54	6108.80
449.73	5996.45
449.91	6094.76
450.10	6061.99
450.28	6239.87
450.46	6097.10
450.65	6157.95
450.83	6345.19
451.02	6260.93
451.20	6214.12
451.39	6179.01
451.57	6181.35
451.76	6164.97
451.94	6263.27
452.13	6272.64
452.31	6289.02
452.49	6195.40
452.68	6455.20
452.86	6162.63
453.05	6630.74
453.23	6497.33
453.42	6363.92
453.60	6445.84
453.78	6583.93
453.97	6525.41
454.15	6499.67
454.34	6469.24
454.52	6356.90
454.70	6663.51
454.89	6562.86
455.07	6523.07
455.26	6644.78
455.44	6764.15
455.62	6637.76
455.81	6703.29
455.99	6834.36
456.17	6717.34
456.36	6937.35
456.54	6925.65
456.73	7040.33
456.91	7091.82
457.09	7110.55
457.28	7314.17
457.46	7157.36
457.64	7234.60
457.83	7070.76
458.01	7082.46
458.19	7220.55
458.38	7126.93
458.56	7316.51
458.74	7328.22
458.93	7096.50
459.11	7307.15
459.29	7386.73
459.48	7131.61
459.66	7335.24
459.84	7461.63
460.03	7492.05
460.21	7555.25
460.39	7527.16
460.57	7438.22
460.76	7627.81
460.94	7613.76
461.12	7702.70
461.31	7632.49
461.49	7522.48
461.67	7604.40
461.85	7688.66
462.04	7620.78
462.22	8140.38
462.40	7852.50
462.59	7999.95
462.77	7847.82
462.95	7925.05
463.13	7770.58
463.32	7822.07
463.50	7943.78
463.68	8044.42
463.86	8159.11
464.05	7918.03
464.23	7873.56
464.41	8088.89
464.59	8067.83
464.78	8058.46
464.96	7978.89
465.14	8084.21
465.32	8049.10
465.50	8081.87
465.69	8203.58
465.87	8358.05
466.05	8269.11
466.23	8079.53
466.41	8320.60
466.60	8421.25
466.78	8255.07
466.96	8404.86
467.14	8250.39
467.32	8458.70
467.51	8505.51
467.69	8264.43
467.87	8470.40
468.05	8561.68
468.23	8329.97
468.41	8475.08
468.60	8477.42
468.78	8643.60
468.96	8376.78
469.14	8681.05
469.32	8945.53
469.50	8524.23
469.69	8816.80
469.87	8887.01
470.05	8730.20
470.23	8887.01
470.41	8978.30
470.59	8973.61
470.77	8954.89
470.95	8966.59
471.14	9184.26
471.32	8945.53
471.50	9242.78
471.68	9142.13
471.86	9130.43
472.04	9149.15
472.22	9397.25
472.40	9282.56
472.58	9282.56
472.77	9600.88
472.95	9479.17
473.13	9811.53
473.31	9305.97
473.49	9687.48
473.67	9336.40
473.85	9717.90
474.03	9760.03
474.21	9858.34
474.39	9994.09
474.57	9823.23
474.75	10073.67
474.93	9994.09
475.12	10010.47
475.30	10127.50
475.48	10059.62
475.66	10434.11
475.84	10059.62
476.02	10274.95
476.20	10211.76
476.38	10441.13
476.56	10649.44
476.74	10705.61
476.92	10581.56
477.10	10562.84
477.28	10775.83
477.46	10703.27
477.64	10885.83
477.82	11077.76
478.00	11318.83
478.18	11253.30
478.36	11463.94
478.54	11461.60
478.72	11360.96
478.90	11609.06
479.08	11609.06
479.26	11768.21
479.44	11908.65
479.62	11896.94
479.80	11967.16
479.98	12163.76
480.16	12482.08
480.34	12180.15
480.52	12126.32
480.70	12524.21
480.88	12299.52
481.06	12402.50
481.24	12372.07
481.41	12592.08
481.59	12872.95
481.77	12879.97
481.95	12894.01
482.13	13102.32
482.31	13177.22
482.49	13584.47
482.67	13305.95
482.85	13582.13
483.03	13879.38
483.21	13802.14
483.39	13862.99
483.57	13855.97
483.74	14139.18
483.92	14239.82
484.10	14150.88
484.28	14401.32
484.46	14808.57
484.64	14672.82
484.82	14759.42
485.00	14911.55
485.18	14993.47
485.35	15447.54
485.53	15267.31
485.71	15435.83
485.89	15749.46
486.07	15599.67
486.25	15510.73
486.43	15946.07
486.61	15702.65
486.78	16126.29
486.96	16020.97
487.14	16308.85
487.32	16348.64
487.50	16482.05
487.68	16592.06
487.85	16800.37
488.03	16943.14
488.21	16809.73
488.39	17158.47
488.57	17212.30
488.75	17652.32
488.92	17731.90
489.10	17783.39
489.28	17750.62
489.46	18019.78
489.64	17820.84
489.81	18167.24
489.99	18057.23
490.17	18216.39
490.35	18682.16
490.53	18977.06
490.70	18843.65
490.88	19101.11
491.06	18906.85
491.24	19105.79
491.41	19431.13
491.59	19501.34
491.77	19344.53
491.95	19941.36
492.13	19985.83
492.30	19894.55
492.48	19943.70
492.66	20084.14
492.84	20032.65
493.01	20566.29
493.19	20147.33
493.37	20472.67
493.54	20645.87
493.72	21043.76
493.90	20835.45
494.08	21282.49
494.25	21282.49
494.43	21142.06
494.61	21532.93
494.79	21322.28
494.96	21645.27
495.14	21656.98
495.32	21799.75
495.49	22132.11
495.67	22298.28
495.85	22347.44
496.02	22288.92
496.20	22754.69
496.38	22640.00
496.55	22476.16
496.73	23140.88
496.91	23077.68
497.09	23054.28
497.26	23138.54
497.44	23197.05
497.62	23496.64
497.79	23660.48
497.97	23363.23
498.14	24070.07
498.32	24063.05
498.50	24056.03
498.67	24201.14
498.85	24278.38
499.03	24388.38
499.20	24105.18
499.38	24292.42
499.56	24893.94
499.73	24613.07
499.91	25001.60
500.08	25064.80
500.26	24767.55
500.44	24875.21
500.61	24652.86
500.79	24931.39
500.97	25556.31
501.14	25497.80
501.32	25287.15
501.49	25425.24
501.67	25572.69
501.84	25724.83
502.02	25619.50
502.20	25741.21
502.37	25762.28
502.55	26089.95
502.72	25809.09
502.90	26235.06
503.07	26164.85
503.25	26368.48
503.43	26183.57
503.60	26778.07
503.78	26937.23
503.95	26525.29
504.13	27161.92
504.30	27091.70
504.48	26602.53
504.65	27178.30
504.83	27192.34
505.01	27496.61
505.18	27136.17
505.36	27580.87
505.53	27477.89
505.71	27915.57
505.88	27800.88
506.06	27817.27
506.23	27828.97
506.41	27812.59
506.58	28308.78
506.76	27882.80
506.93	28381.34
507.11	28371.97
507.28	28568.58
507.46	28559.22
507.63	28996.90
507.81	28496.02
507.98	28404.74
508.16	28336.87
508.33	28945.41
508.50	28999.24
508.68	29308.19
508.85	29621.82
509.03	29324.57
509.20	29446.28
509.38	29710.76
509.55	29310.53
509.73	29670.97
509.90	29930.77
510.08	29661.61
510.25	30134.40
510.42	30029.07
510.60	30572.08
510.77	30202.27
510.95	30422.28
511.12	29951.84
511.30	30033.75
511.47	30471.43
511.64	30677.40
511.82	30857.62
511.99	30499.52
512.17	30649.32
512.34	30546.33
512.51	31147.85
512.69	31314.03
512.86	30951.24
513.04	31253.17
513.21	31243.81
513.38	31438.08
513.56	31606.59
513.73	31304.67
513.90	31463.82
514.08	31393.61
514.25	31758.73
514.43	32112.15
514.60	31857.03
514.77	31800.86
514.95	32013.85
515.12	32149.60
515.29	31948.31
515.47	32503.02
515.64	32453.87
515.81	31777.45
515.99	32348.54
516.16	32833.04
516.33	32587.28
516.51	32851.76
516.68	32797.93
516.85	32877.51
517.03	32739.41
517.20	33099.86
517.37	32982.83
517.54	33165.39
517.72	33214.54
517.89	33406.47
518.06	33401.79
518.24	33530.51
518.41	33202.84
518.58	33303.48
518.75	33287.10
518.93	33701.37
519.10	33645.20
519.27	33972.88
519.45	33762.23
519.62	33654.56
519.79	34251.40
519.96	34370.77
520.14	34326.30
520.31	34192.89
520.48	34115.65
520.65	34473.75
520.83	34749.93
521.00	34759.30
521.17	34639.93
521.34	34588.44
521.52	34817.81
521.69	34747.59
521.86	34660.99
522.03	34803.77
522.20	35400.60
522.38	35578.48
522.55	35480.18
522.72	35426.35
522.89	35398.26
523.07	35648.70
523.24	35473.16
523.41	35541.03
523.58	35541.03
523.75	35606.57
523.92	35833.60
524.10	35737.64
524.27	36348.52
524.44	36065.31
524.61	36229.15
524.78	36290.01
524.96	36517.04
525.13	36507.68
525.30	36669.17
525.47	36624.70
525.64	36542.78
525.81	36842.37
525.98	37099.83
526.16	36432.78
526.33	36821.31
526.50	37191.11
526.67	36676.19
526.84	36790.88
527.01	36914.93
527.18	36980.46
527.36	37102.17
527.53	37317.50
527.70	37315.16
527.87	37572.62
528.04	37785.61
528.21	37275.37
528.38	37663.90
528.55	37584.32
528.72	37329.20
528.89	37420.48
529.07	37893.27
529.24	37523.47
529.41	38342.66
529.58	37600.71
529.75	37673.26
529.92	37883.91
530.09	38071.15
530.26	37766.88
530.43	38237.33
530.60	37729.44
530.77	38167.12
530.94	38078.18
531.11	37963.49
531.28	38092.22
531.46	38417.55
531.63	39056.52
531.80	38167.12
531.97	38745.23
532.14	38773.31
532.31	38546.28
532.48	39056.52
532.65	39117.37
532.82	39267.17
532.99	38787.36
533.16	38745.23
533.33	39187.59
533.50	38714.80
533.67	39206.31
533.84	39248.44
534.01	39196.95
534.18	39267.17
534.35	39442.71
534.52	39365.47
534.69	39466.11
534.86	39805.49
535.03	39784.43
535.20	39892.09
535.37	39723.57
535.54	39924.86
535.71	39641.65
535.88	40114.44
536.05	39552.71
536.22	40437.44
536.38	40175.30
536.55	40105.08
536.72	40105.08
536.89	40041.88
537.06	40346.15
537.23	40287.64
537.40	40266.58
537.57	40137.85
537.74	40395.31
537.91	40374.24
538.08	40598.93
538.25	40432.75
538.42	40449.14
538.59	40353.18
538.75	40722.98
538.92	40699.58
539.09	40905.54
539.26	40875.12
539.43	40861.07
539.60	41022.57
539.77	40917.25
539.94	41289.39
540.11	41242.58
540.28	41130.23
540.44	41329.18
540.61	41139.60
540.78	41064.70
540.95	41301.09
541.12	41441.53
541.29	41280.03
541.46	41188.75
541.62	41731.75
541.79	41897.93
541.96	41532.81
542.13	41366.63
542.30	41518.76
542.47	42103.90
542.63	41467.27
542.80	41368.97
542.97	42143.69
543.14	42431.57
543.31	42218.58
543.48	42131.98
543.64	42747.54
543.81	42672.65
543.98	42050.06
544.15	42763.93
544.32	42663.28
544.48	43276.51
544.65	42532.22
544.82	42415.19
544.99	42234.97
545.16	42382.42
545.32	42646.90
545.49	42920.74
545.66	43262.46
545.83	42831.80
546.00	42834.14
546.16	43129.05
546.33	42637.54
546.50	42454.98
546.67	43105.65
546.83	42883.30
547.00	43407.58
547.17	42918.40
547.34	43400.55
547.50	43430.98
547.67	43316.29
547.84	43178.20
548.00	43716.53
548.17	43775.04
548.34	43995.05
548.51	43992.71
548.67	43725.89
548.84	43817.17
549.01	43522.26
549.18	43971.64
549.34	43842.92
549.51	43924.83
549.68	43662.69
549.84	43871.00
550.01	44034.84
550.18	43920.15
550.34	44364.85
550.51	44034.84
550.68	44144.84
550.84	43849.94
551.01	43981.01
551.18	44030.16
551.34	44336.77
551.51	44289.96
551.68	43763.34
551.84	44147.18
552.01	44329.75
552.18	44577.84
552.34	44002.07
552.51	44879.77
552.68	44289.96
552.84	44135.48
553.01	44662.10
553.18	44458.48
553.34	44634.02
553.51	44751.04
553.67	44615.29
553.84	44802.53
554.01	44624.65
554.17	44975.73
554.34	44978.07
554.51	45074.04
554.67	45366.60
554.84	45275.32
555.00	44802.53
555.17	45078.72
555.33	44982.76
555.50	45048.29
555.67	45013.18
555.83	45336.18
556.00	45694.28
556.16	45766.84
556.33	45162.98
556.50	45195.74
556.66	45471.93
556.83	45401.71
556.99	45762.15
557.16	45422.78
557.32	46190.47
557.49	45684.92
557.65	45399.37
557.82	45507.04
557.98	45429.80
558.15	45523.42
558.32	45965.78
558.48	45315.11
558.65	45450.86
558.81	45656.83
558.98	45492.99
559.14	45947.06
559.31	45551.51
559.47	45818.33
559.64	45556.19
559.80	45858.12
559.97	45771.52
560.13	45769.18
560.30	45947.06
560.46	46124.94
560.63	45790.24
560.79	46417.50
560.96	46096.85
561.12	45937.69
561.29	46469.00
561.45	45825.35
561.61	46340.27
561.78	46312.18
561.94	46227.92
562.11	46351.97
562.27	46190.47
562.44	45968.12
562.60	46342.61
562.77	46277.07
562.93	46366.01
563.10	46597.73
563.26	46033.66
563.42	46635.17
563.59	46438.57
563.75	45916.63
563.92	46784.97
564.08	46270.05
564.24	46742.84
564.41	46227.92
564.57	46574.32
564.74	46653.90
564.90	46256.01
565.07	46443.25
565.23	46328.56
565.39	46389.42
565.56	46703.05
565.72	46707.73
565.88	46801.35
566.05	46600.07
566.21	46756.88
566.38	47037.75
566.54	47105.62
566.70	46951.15
566.87	46532.19
567.03	46452.61
567.19	47049.45
567.36	46607.09
567.52	46759.22
567.68	47274.14
567.85	47056.47
568.01	47140.73
568.17	46855.18
568.34	47349.04
568.50	47262.44
568.66	47035.41
568.83	46838.80
568.99	46955.83
569.15	46841.14
569.32	47222.65
569.48	46894.97
569.64	47159.45
569.81	47136.05
569.97	46904.34
570.13	47119.66
570.30	47267.12
570.46	47049.45
570.62	47377.12
570.78	46777.95
570.95	47311.59
571.11	47351.38
571.27	47021.36
571.43	47201.58
571.60	47114.98
571.76	47161.79
571.92	46920.72
572.09	46927.74
572.25	47110.30
572.41	47201.58
572.57	47220.31
572.74	47878.00
572.90	47047.11
573.06	47763.31
573.22	47592.45
573.38	47175.84
573.55	47285.84
573.71	47597.13
573.87	47531.60
574.03	46944.12
574.20	47463.72
574.36	47714.16
574.52	47625.22
574.68	47274.14
574.84	47882.68
575.01	48144.82
575.17	47611.18
575.33	47555.00
575.49	47360.74
575.65	47641.60
575.82	47356.06
575.98	47306.91
576.14	47866.30
576.30	47580.75
576.46	47613.52
576.62	47334.99
576.79	47370.10
576.95	47889.70
577.11	47323.29
577.27	47323.29
577.43	47445.00
577.59	47566.71
577.75	47430.96
577.92	47461.38
578.08	47704.80
578.24	47529.26
578.40	47828.85
578.56	47725.86
578.72	47395.85
578.88	47646.29
579.04	47531.60
579.21	47714.16
579.37	47620.54
579.53	47452.02
579.69	47344.36
579.85	47522.24
580.01	47414.57
580.17	47494.15
580.33	47667.35
580.49	47569.05
580.65	47763.31
580.82	47856.93
580.98	47533.94
581.14	47318.61
581.30	47498.83
581.46	47606.50
581.62	47241.37
581.78	47241.37
581.94	47442.66
582.10	47662.67
582.26	47903.74
582.42	47430.96
582.58	47688.42
582.74	47744.59
582.90	47814.80
583.06	48009.07
583.22	47496.49
583.38	47456.70
583.54	47863.96
583.70	48102.69
583.86	48069.92
584.02	47824.17
584.18	47723.52
584.34	47763.31
584.50	47899.06
584.66	48046.52
584.82	47887.36
584.98	48325.04
585.14	48048.86
585.30	47636.92
585.46	48013.75
585.62	47992.68
585.78	47908.43
585.94	47185.20
586.10	47826.51
586.26	47728.20
586.42	48058.22
586.58	47941.19
586.74	47576.07
586.90	47945.87
587.06	47819.49
587.22	47908.43
587.38	47821.83
587.54	47690.76
587.70	48186.95
587.86	47908.43
588.02	47866.30
588.18	48018.43
588.34	47767.99
588.49	48360.15
588.65	47793.74
588.81	47863.96
588.97	48278.23
589.13	48020.77
589.29	48196.31
589.45	48210.35
589.61	48385.89
589.77	48079.28
589.93	47875.66
590.08	48308.66
590.24	48289.93
590.40	48619.95
590.56	48608.25
590.72	48208.01
590.88	47927.15
591.04	48098.01
591.20	48128.44
591.35	48231.42
591.51	48612.93
591.67	48212.70
591.83	48067.58
591.99	48252.48
592.15	48296.95
592.31	48112.05
592.46	48006.73
592.62	48282.91
592.78	48622.29
592.94	48584.84
593.10	48577.82
593.26	48399.94
593.41	48720.59
593.57	48083.97
593.73	48322.70
593.89	48598.88
594.05	48999.12
594.20	48472.49
594.36	48713.57
594.52	48519.31
594.68	48486.54
594.84	48449.09
594.99	48659.74
595.15	48491.22
595.31	48718.25
595.47	48289.93
595.62	48711.23
595.78	48669.10
595.94	48832.94
596.10	48172.91
596.25	48423.34
596.41	48830.60
596.57	48552.07
596.73	48884.43
596.88	48465.47
597.04	48662.08
597.20	48449.09
597.36	48521.65
597.51	48655.06
597.67	48376.53
597.83	48582.50
597.99	48732.29
598.14	48481.86
598.30	48711.23
598.46	48676.12
598.61	48975.71
598.77	48669.10
598.93	48554.41
599.09	48542.71
599.24	48928.90
599.40	48575.48
599.56	48823.58
599.71	48807.19
599.87	49251.89
600.03	49207.42
600.18	48968.69
600.34	48533.35
600.50	48832.94
600.65	48910.17
600.81	48631.65
600.97	48669.10
601.12	48900.81
601.28	48832.94
601.44	48636.33
601.59	48966.35
601.75	48858.68
601.91	49050.61
602.06	48467.81
602.22	48795.49
602.37	49111.46
602.53	48875.07
602.69	48666.76
602.84	48470.15
603.00	48917.20
603.16	48779.10
603.31	48978.05
603.47	49062.31
603.62	48863.36
603.78	48598.88
603.94	48718.25
604.09	48975.71
604.25	48849.32
604.40	48755.70
604.56	48676.12
604.71	49233.17
604.87	48879.75
605.03	48582.50
605.18	48795.49
605.34	48711.23
605.49	48472.49
605.65	48722.93
605.80	48666.76
605.96	48687.82
606.12	48680.80
606.27	48566.12
606.43	48413.98
606.58	48949.96
606.74	48655.06
606.89	48540.37
607.05	48793.15
607.20	48872.73
607.36	48428.02
607.51	48577.82
607.67	48236.10
607.82	48442.07
607.98	48521.65
608.13	48547.39
608.29	48713.57
608.44	48395.26
608.60	48109.71
608.75	48523.99
608.91	48758.04
609.06	48605.91
609.22	48732.29
609.37	48121.41
609.53	48875.07
609.68	48652.72
609.84	48633.99
609.99	48610.59
610.15	48465.47
610.30	48603.56
610.46	48282.91
610.61	48364.83
610.76	48622.29
610.92	48215.04
611.07	48079.28
611.23	48339.08
611.38	47934.17
611.54	48477.18
611.69	48559.09
611.84	48493.56
612.00	48079.28
612.15	47889.70
612.31	48453.77
612.46	47896.72
612.62	47894.38
612.77	48296.95
612.92	48662.08
613.08	48292.27
613.23	48112.05
613.39	47983.32
613.54	48058.22
613.69	48116.73
613.85	48198.65
614.00	48392.92
614.15	48121.41
614.31	48144.82
614.46	47873.32
614.62	47810.12
614.77	48205.67
614.92	48540.37
615.08	48240.78
615.23	48069.92
615.38	48128.44
615.54	47943.53
615.69	47447.34
615.84	48158.86
616.00	48135.46
616.15	47793.74
616.30	48055.88
616.46	48013.75
616.61	48027.79
616.76	48130.78
616.92	47903.74
617.07	47606.50
617.22	47753.95
617.37	47351.38
617.53	47332.65
617.68	47924.81
617.83	47683.73
617.99	48126.10
618.14	47941.19
618.29	47311.59
618.45	47618.20
618.60	47416.91
618.75	47475.43
618.90	47494.15
619.06	47386.49
619.21	47711.82
619.36	47922.47
619.51	47224.99
619.67	47519.90
619.82	47281.16
619.97	47868.64
620.12	47281.16
620.28	47433.30
620.43	47653.31
620.58	47187.54
620.73	47463.72
620.89	47655.65
621.04	47360.74
621.19	47491.81
621.34	47526.92
621.49	47842.89
621.65	47332.65
621.80	47241.37
621.95	47201.58
622.10	47093.92
622.25	47271.80
622.41	47000.30
622.56	47143.07
622.71	47662.67
622.86	47398.19
623.01	47093.92
623.16	46899.65
623.32	47374.78
623.47	47047.11
623.62	47009.66
623.77	47159.45
623.92	47311.59
624.07	47004.98
624.23	47192.22
624.38	47054.13
624.53	46909.02
624.68	46997.96
624.83	46562.62
624.98	46696.03
625.13	46770.93
625.29	46625.81
625.44	46834.12
625.59	46995.62
625.74	46808.37
625.89	45694.28
626.04	46251.33
626.19	46597.73
626.34	46274.73
626.49	46160.05
626.65	46373.03
626.80	46904.34
626.95	46391.76
627.10	46288.77
627.25	46562.62
627.40	46681.98
627.55	46485.38
627.70	46511.13
627.85	46330.90
628.00	46609.43
628.15	46277.07
628.30	45832.37
628.45	46019.61
628.60	46101.53
628.76	46146.00
628.91	46188.13
629.06	45933.01
629.21	45928.33
629.36	45909.61
629.51	46181.11
629.66	46092.17
629.81	46340.27
629.96	45963.44
630.11	45813.65
630.26	46124.94
630.41	46106.21
630.56	46124.94
630.71	45666.19
630.86	45858.12
631.01	45624.06
631.16	45724.71
631.31	45368.94
631.46	45928.33
631.61	46080.47
631.76	45532.78
631.91	45586.61
632.06	46368.35
632.21	45799.60
632.36	45951.74
632.51	45659.17
632.66	45862.80
632.81	45401.71
632.96	45734.07
633.10	45275.32
633.25	45476.61
633.40	45366.60
633.55	45799.60
633.70	45478.95
633.85	45446.18
634.00	44767.43
634.15	45390.01
634.30	45123.19
634.45	45511.72
634.60	45404.05
634.75	45146.59
634.90	45357.24
635.05	45347.88
635.19	45207.45
635.34	45280.00
635.49	44879.77
635.64	45287.03
635.79	45539.80
635.94	45057.65
636.09	45322.13
636.24	44935.95
636.39	45251.92
636.53	45130.21
636.68	44568.48
636.83	44753.38
636.98	44584.86
637.13	44189.31
637.28	44488.90
637.43	44847.00
637.57	44921.90
637.72	44587.21
637.87	44816.58
638.02	44502.95
638.17	44659.76
638.32	44610.61
638.46	44177.61
638.61	44650.40
638.76	43878.02
638.91	44858.71
639.06	44165.91
639.20	43950.58
639.35	44222.08
639.50	44107.40
639.65	44741.68
639.80	44591.89
639.94	44425.71
640.09	44231.44
640.24	44072.29
640.39	44189.31
640.54	44030.16
640.68	44285.28
640.83	44217.40
640.98	44130.80
641.13	44034.84
641.27	44479.54
641.42	44165.91
641.57	44257.19
641.72	44521.67
641.86	43936.54
642.01	43430.98
642.16	44299.32
642.31	43709.50
642.45	44088.67
642.60	43697.80
642.75	44009.09
642.90	44044.20
643.04	43840.57
643.19	43758.66
643.34	43566.73
643.48	43449.70
643.63	43590.14
643.78	43782.06
643.93	43950.58
644.07	43761.00
644.22	43751.63
644.37	43522.26
644.51	43452.05
644.66	43805.47
644.81	43409.92
644.95	43868.66
645.10	43320.98
645.25	43449.70
645.39	43196.93
645.54	43388.85
645.69	43000.32
645.83	43243.74
645.98	43428.64
646.13	43332.68
646.27	43526.94
646.42	43019.05
646.57	43452.05
646.71	43899.09
646.86	43456.73
647.00	43658.01
647.15	43075.22
647.30	43105.65
647.44	43295.23
647.59	42717.12
647.74	43117.35
647.88	43051.81
648.03	43164.16
648.17	43337.36
648.32	42967.55
648.47	43426.30
648.61	42990.96
648.76	42653.92
648.90	43107.99
649.05	42794.36
649.20	42972.24
649.34	42836.48
649.49	42784.99
649.63	43150.12
649.78	42813.08
649.92	43119.69
650.07	43173.52
650.21	42747.54
650.36	43257.78
650.51	42670.31
650.65	42993.30
650.80	42841.17
650.94	42557.96
651.09	42597.75
651.23	42438.59
651.38	42302.84
651.52	42394.12
651.67	42745.20
651.81	42321.57
651.96	42728.82
652.10	42033.68
652.25	42351.99
652.39	42162.41
652.54	42363.70
652.68	42370.72
652.83	42209.22
652.97	42555.62
653.12	41883.89
653.26	42052.41
653.41	42007.94
653.55	42359.02
653.70	42312.20
653.84	42328.59
653.99	42277.10
654.13	41893.25
654.27	41951.76
654.42	41965.81
654.56	41617.07
654.71	41867.50
654.85	42178.79
655.00	42078.15
655.14	42108.58
655.29	42099.22
655.43	42370.72
655.57	42026.66
655.72	41816.01
655.86	41502.38
656.01	41329.18
656.15	41518.76
656.30	41469.61
656.44	41940.06
656.58	41844.10
656.73	41736.43
656.87	41586.64
657.01	41404.08
657.16	41387.69
657.30	41280.03
657.45	41766.86
657.59	41514.08
657.73	41057.68
657.88	41240.24
658.02	41368.97
658.16	41230.88
658.31	41254.28
658.45	41610.04
658.60	41127.89
658.74	41177.04
658.88	41432.16
659.03	41146.62
659.17	40875.12
659.31	40975.76
659.46	40865.75
659.60	40896.18
659.74	40561.48
659.89	40289.98
660.03	40282.96
660.17	40612.98
660.32	40680.85
660.46	40580.21
660.60	40481.91
660.74	40243.17
660.89	40549.78
661.03	40217.43
661.17	40353.18
661.32	40327.43
661.46	40385.94
661.60	39985.71
661.74	39915.50
661.89	40236.15
662.03	39931.88
662.17	40095.72
662.31	40016.14
662.46	40060.61
662.60	39573.78
662.74	39889.75
662.88	39732.93
663.03	39192.27
663.17	39431.01
663.31	39330.36
663.45	39826.56
663.60	39714.21
663.74	39524.63
663.88	39620.59
664.02	39313.98
664.17	39505.90
664.31	39143.12
664.45	38778.00
664.59	39019.07
664.73	38780.34
664.88	39236.74
665.02	38707.78
665.16	38951.20
665.30	38808.42
665.44	38810.76
665.59	38646.93
665.73	38850.55
665.87	38511.17
666.01	38529.90
666.15	38700.76
666.29	38855.23
666.44	39065.88
666.58	38527.56
666.72	38366.06
666.86	37649.86
667.00	37872.21
667.14	38223.29
667.28	38192.86
667.43	38075.84
667.57	38623.52
667.71	38251.38
667.85	38277.12
667.99	37806.67
668.13	37495.38
668.27	37249.63
668.41	37326.86
668.56	37076.43
668.70	37127.92
668.84	37050.68
668.98	36889.18
669.12	37586.66
669.26	37422.83
669.40	37031.96
669.54	37120.90
669.68	37085.79
669.82	36552.15
669.96	36849.39
670.10	36559.17
670.25	36629.38
670.39	36863.44
670.53	36629.38
670.67	36484.27
670.81	36713.64
670.95	36613.00
671.09	36140.21
671.23	35924.88
671.37	36706.62
671.51	36453.84
671.65	35931.90
671.79	36147.23
671.93	36643.43
672.07	36191.70
672.21	36065.31
672.35	35651.04
672.49	35700.19
672.63	35763.39
672.77	35260.17
672.91	35807.86
673.05	35454.44
673.19	35051.86
673.33	35138.46
673.47	35398.26
673.61	35126.76
673.75	34761.64
673.89	34897.39
674.03	34721.85
674.17	34658.65
674.31	34445.66
674.45	34387.15
674.59	34457.37
674.73	34417.58
674.87	34223.31
675.01	34080.54
675.15	34188.21
675.29	33563.28
675.43	33865.21
675.56	34440.98
675.70	33619.46
675.84	33235.61
675.98	32767.50
676.12	33579.67
676.26	33787.97
676.40	33666.27
676.54	33235.61
676.68	33251.99
676.82	32781.54
676.96	33251.99
677.10	33081.13
677.23	32753.46
677.37	32659.84
677.51	32657.49
677.65	32350.88
677.79	32418.76
677.93	32407.06
678.07	32250.24
678.21	32170.66
678.34	31878.10
678.48	32180.03
678.62	32119.17
678.76	31552.76
678.90	31686.17
679.04	31700.22
679.18	32140.24
679.31	31374.88
679.45	31349.14
679.59	31541.06
679.73	31115.08
679.87	30852.94
680.00	31056.57
680.14	31119.76
680.28	30941.88
680.42	30752.30
680.56	30754.64
680.70	30345.05
680.83	29912.05
680.97	30150.78
681.11	30230.36
681.25	30071.20
681.39	29706.08
681.52	29909.71
681.66	29682.67
681.80	28996.90
681.94	29369.04
682.07	29198.18
682.21	28683.27
682.35	28762.84
682.49	29060.09
682.62	29048.39
682.76	29083.50
682.90	28793.27
683.04	29095.20
683.17	28634.11
683.31	28528.79
683.45	28772.21
683.59	28474.96
683.72	27934.29
683.86	28133.24
684.00	27618.32
684.13	27943.66
684.27	27786.84
684.41	27910.89
684.55	28039.62
684.68	27351.50
684.82	27559.81
684.96	27367.88
685.09	27250.86
685.23	27262.56
685.37	27735.35
685.50	27400.65
685.64	27105.74
685.78	26890.41
685.91	26436.35
686.05	26319.32
686.19	26342.73
686.32	26080.59
686.46	26080.59
686.60	25792.70
686.73	25930.80
686.87	25979.95
687.01	26125.06
687.14	25874.62
687.28	25511.84
687.42	25458.01
687.55	25408.86
687.69	25467.37
687.82	25179.48
687.96	25090.54
688.10	25357.36
688.23	25223.95
688.37	25326.94
688.50	24915.00
688.64	24912.66
688.78	24673.93
688.91	24531.15
689.05	24601.37
689.18	24311.14
689.32	24027.94
689.46	24004.53
689.59	23981.13
689.73	24510.09
689.86	24306.46
690.00	24240.93
690.13	24084.11
690.27	23674.52
690.41	23709.63
690.54	23356.21
690.68	23604.30
690.81	23632.39
690.95	23080.02
691.08	23051.94
691.22	22602.55
691.35	22899.80
691.49	22544.04
691.62	22981.72
691.76	22717.24
691.89	22766.39
692.03	22747.67
692.16	22511.27
692.30	22286.58
692.43	22150.83
692.57	21851.24
692.70	22068.91
692.84	21982.31
692.97	21914.44
693.11	21460.37
693.24	21366.75
693.38	21411.22
693.51	21132.70
693.65	21715.49
693.78	21179.51
693.92	20552.24
694.05	21034.39
694.19	21109.29
694.32	20781.62
694.45	21319.94
694.59	20966.52
694.72	21018.01
694.86	20411.81
694.99	20570.97
695.13	20276.06
695.26	19852.42
695.39	19953.07
695.53	19962.43
695.66	20086.48
695.80	19887.53
695.93	19845.40
696.07	19630.07
696.20	19477.94
696.33	19321.12
696.47	19321.12
696.60	18941.96
696.73	19592.62
696.87	19393.68
697.00	18958.34
697.14	18970.04
697.27	18981.74
697.40	19080.05
697.54	18735.99
697.67	18705.56
697.80	18551.09
697.94	18476.19
698.07	18532.36
698.21	18122.77
698.34	18452.78
698.47	18106.38
698.61	17554.02
698.74	17916.80
698.87	17757.64
699.01	17598.49
699.14	17764.67
699.27	17701.47
699.40	17551.68
699.54	17399.54
699.67	17532.95
699.80	17621.89
699.94	16882.28
700.07	17233.36
700.20	17277.83
700.34	16931.44
700.47	16966.54
700.60	17296.56
700.73	17083.57
700.87	16446.94
701.00	16716.11
701.13	16561.63
701.26	16496.10
701.40	16421.20
701.53	16142.67
701.66	16292.47
701.79	16126.29
701.93	16135.65
702.06	15737.76
702.19	15751.81
702.32	16074.80
702.46	15740.10
702.59	15845.43
702.72	15845.43
702.85	15786.91
702.99	15470.94
703.12	15421.79
703.25	15372.64
703.38	15180.71
703.51	15147.95
703.65	15054.33
703.78	14937.30
703.91	14569.83
704.04	14677.50
704.17	14553.45
704.31	14303.01
704.44	14700.90
704.57	14661.12
704.70	14417.70
704.83	14527.71
704.96	14225.78
705.10	14040.87
705.23	14122.79
>>>>>End Processed Spectral Data<<<<<
