SpectraSuite Data File
++++++++++++++++++++++++++++++++++++
Date: Fri Oct 25 11:33:25 EDT 2013
User: price-jones
Dark Spectrum Present: No
Reference Spectrum Present: No
Number of Sampled Component Spectra: 1
Spectrometers: USB2+H05261
Integration Time (usec): 100000 (USB2+H05261)
Spectra Averaged: 1 (USB2+H05261)
Boxcar Smoothing: 0 (USB2+H05261)
Correct for Electrical Dark: No (USB2+H05261)
Strobe/Lamp Enabled: No (USB2+H05261)
Correct for Detector Non-linearity: No (USB2+H05261)
Correct for Stray Light: No (USB2+H05261)
Number of Pixels in Processed Spectrum: 2048
>>>>>Begin Processed Spectral Data<<<<<
365.73	315.97
365.92	315.97
366.12	315.97
366.32	184.90
366.52	184.90
366.72	238.73
366.91	117.03
367.11	156.82
367.31	152.13
367.51	147.45
367.70	187.24
367.90	257.46
368.10	156.82
368.30	198.95
368.49	168.52
368.69	168.52
368.89	210.65
369.09	187.24
369.28	168.52
369.48	196.60
369.68	210.65
369.87	194.26
370.07	194.26
370.27	259.80
370.47	257.46
370.66	416.62
370.86	484.49
371.06	596.84
371.25	550.03
371.45	472.79
371.65	517.26
371.84	514.92
372.04	568.75
372.24	543.00
372.44	510.24
372.63	648.33
372.83	641.31
373.03	641.31
373.22	543.00
373.42	599.18
373.62	599.18
373.81	601.52
374.01	585.13
374.21	690.46
374.40	613.22
374.60	655.35
374.79	671.73
374.99	573.43
375.19	636.63
375.38	622.58
375.58	695.14
375.78	678.76
375.97	718.54
376.17	704.50
376.37	613.22
376.56	653.01
376.76	608.54
376.95	681.10
377.15	669.39
377.35	748.97
377.54	704.50
377.74	660.03
377.93	594.50
378.13	620.24
378.33	730.25
378.52	706.84
378.72	716.20
378.91	681.10
379.11	765.36
379.31	697.48
379.50	730.25
379.70	774.72
379.89	664.71
380.09	748.97
380.28	711.52
380.48	779.40
380.68	706.84
380.87	807.48
381.07	685.78
381.26	793.44
381.46	748.97
381.65	814.51
381.85	706.84
382.04	807.48
382.24	770.04
382.43	816.85
382.63	788.76
382.83	844.93
383.02	772.38
383.22	784.08
383.41	826.21
383.61	866.00
383.80	837.91
384.00	819.19
384.19	739.61
384.39	821.53
384.58	816.85
384.78	870.68
384.97	847.27
385.17	851.96
385.36	805.14
385.56	828.55
385.75	809.83
385.95	812.17
386.14	915.15
386.34	908.13
386.53	868.34
386.72	891.74
386.92	858.98
387.11	933.87
387.31	863.66
387.50	917.49
387.70	898.77
387.89	929.19
388.09	915.15
388.28	826.21
388.48	882.38
388.67	924.51
388.86	889.40
389.06	877.70
389.25	1022.81
389.45	968.98
389.64	926.85
389.84	968.98
390.03	1022.81
390.22	978.34
390.42	910.47
390.61	947.92
390.81	1027.50
391.00	945.58
391.19	950.26
391.39	1041.54
391.58	987.71
391.78	1011.11
391.97	912.81
392.16	1041.54
392.36	1032.18
392.55	1069.62
392.75	1083.67
392.94	1004.09
393.13	1053.24
393.33	1004.09
393.52	1107.07
393.71	1090.69
393.91	1102.39
394.10	973.66
394.29	1111.75
394.49	1116.44
394.68	1102.39
394.88	1128.14
395.07	1146.86
395.26	1160.91
395.46	1121.12
395.65	1151.54
395.84	1193.67
396.04	1184.31
396.23	1196.01
396.42	1153.88
396.62	1228.78
396.81	1163.25
397.00	1270.91
397.19	1263.89
397.39	1184.31
397.58	1240.48
397.77	1224.10
397.97	1277.93
398.16	1263.89
398.35	1259.21
398.55	1249.85
398.74	1315.38
398.93	1254.53
399.12	1352.83
399.32	1296.66
399.51	1275.59
399.70	1324.74
399.90	1373.89
400.09	1320.06
400.28	1406.66
400.47	1357.51
400.67	1448.79
400.86	1451.13
401.05	1376.24
401.24	1453.47
401.44	1554.12
401.63	1542.41
401.82	1474.54
402.01	1523.69
402.21	1521.35
402.40	1493.26
402.59	1465.18
402.78	1514.33
402.97	1572.84
403.17	1554.12
403.36	1528.37
403.55	1678.16
403.74	1610.29
403.93	1593.90
404.13	1596.25
404.32	1636.03
404.51	1673.48
404.70	1607.95
404.89	1549.43
405.09	1675.82
405.28	1678.16
405.47	1607.95
405.66	1720.29
405.85	1771.79
406.05	1687.53
406.24	1741.36
406.43	1739.02
406.62	1753.06
406.81	1806.89
407.00	1785.83
407.20	1795.19
407.39	1724.97
407.58	1755.40
407.77	1891.15
407.96	1881.79
408.15	1842.00
408.34	1844.34
408.54	1853.70
408.73	1947.33
408.92	1952.01
409.11	1954.35
409.30	1923.92
409.49	1980.09
409.68	2165.00
409.87	2176.70
410.07	2125.21
410.26	2101.80
410.45	2029.24
410.64	2108.82
410.83	2092.44
411.02	2172.02
411.21	2122.87
411.40	2165.00
411.59	2150.95
411.78	2246.91
411.98	2118.18
412.17	2300.75
412.36	2253.94
412.55	2270.32
412.74	2342.88
412.93	2349.90
413.12	2267.98
413.31	2485.65
413.50	2429.48
413.69	2342.88
413.88	2434.16
414.07	2396.71
414.26	2583.95
414.45	2511.39
414.64	2490.33
414.83	2686.94
415.02	2658.85
415.22	2754.81
415.41	2637.78
415.60	2651.83
415.79	2719.70
415.98	2717.36
416.17	2754.81
416.36	2850.77
416.55	2768.85
416.74	2911.63
416.93	2764.17
417.12	2857.79
417.31	2836.73
417.50	2752.47
417.69	2925.67
417.88	2935.03
418.07	2885.88
418.26	3054.40
418.45	2974.82
418.64	3122.27
418.83	2951.42
419.02	2984.18
419.21	3119.93
419.39	3068.44
419.58	3089.51
419.77	3054.40
419.96	3178.45
420.15	3183.13
420.34	3173.77
420.53	3206.53
420.72	3269.73
420.91	3323.56
421.10	3295.47
421.29	3222.92
421.48	3260.37
421.67	3342.28
421.86	3363.35
422.05	3353.99
422.24	3300.16
422.43	3342.28
422.61	3428.88
422.80	3372.71
422.99	3389.10
423.18	3349.31
423.37	3520.17
423.56	3304.84
423.75	3466.33
423.94	3342.28
424.13	3124.62
424.32	3304.84
424.50	3501.44
424.69	3574.00
424.88	3485.06
425.07	3524.85
425.26	3389.10
425.45	3557.61
425.64	3454.63
425.83	3431.23
426.01	3545.91
426.20	3541.23
426.39	3363.35
426.58	3428.88
426.77	3489.74
426.96	3569.32
427.15	3515.48
427.33	3609.11
427.52	3585.70
427.71	3679.32
427.90	3662.94
428.09	3698.05
428.28	3632.51
428.46	3730.81
428.65	3695.71
428.84	3700.39
429.03	3934.44
429.22	3698.05
429.40	3819.75
429.59	3751.88
429.78	3716.77
429.97	3581.02
430.16	3737.84
430.34	3899.33
430.53	3843.16
430.72	3976.57
430.91	3843.16
431.10	3957.85
431.28	3866.56
431.47	3950.82
431.66	4018.70
431.85	4049.13
432.03	4091.26
432.22	4109.98
432.41	4053.81
432.60	4046.79
432.79	4208.28
432.97	4081.89
433.16	4168.49
433.35	4177.86
433.54	4131.05
433.72	4236.37
433.91	4147.43
434.10	4294.88
434.28	4149.77
434.47	4105.30
434.66	4212.96
434.85	4337.01
435.03	4339.35
435.22	4395.53
435.41	4435.32
435.59	4531.28
435.78	4507.87
435.97	4468.08
436.16	4297.22
436.34	4496.17
436.53	4390.84
436.72	4547.66
436.90	4554.68
437.09	4568.73
437.28	4547.66
437.46	4645.96
437.65	4599.15
437.84	4652.98
438.02	4629.58
438.21	4657.67
438.40	4667.03
438.58	4760.65
438.77	4856.61
438.96	4669.37
439.14	5022.79
439.33	5011.09
439.52	4877.68
439.70	4901.08
439.89	5064.92
440.08	4961.94
440.26	5036.83
440.45	4983.00
440.63	5151.52
440.82	5327.06
441.01	5139.82
441.19	5114.07
441.38	5212.37
441.57	5177.26
441.75	5270.89
441.94	5418.34
442.12	5570.48
442.31	5423.02
442.50	5535.37
442.68	5362.17
442.87	5481.53
443.05	5535.37
443.24	5628.99
443.43	5694.52
443.61	5544.73
443.80	5687.50
443.98	5490.90
444.17	5327.06
444.35	5624.31
444.54	5734.31
444.73	5652.39
444.91	5666.44
445.10	5610.26
445.28	5689.84
445.47	5659.42
445.65	5640.69
445.84	5666.44
446.02	5734.31
446.21	5746.02
446.39	5680.48
446.58	5783.46
446.77	5783.46
446.95	5584.52
447.14	5799.85
447.32	5930.92
447.51	5860.70
447.69	5713.25
447.88	5795.17
448.06	5741.33
448.25	5771.76
448.43	5699.20
448.62	5884.11
448.80	5685.16
448.99	5984.75
449.17	5877.09
449.36	5832.62
449.54	5998.79
449.73	6010.50
449.91	6223.48
450.10	6129.86
450.28	6106.46
450.46	6043.26
450.65	6155.61
450.83	6204.76
451.02	6150.93
451.20	6108.80
451.39	6132.20
451.57	5996.45
451.76	6118.16
451.94	6399.02
452.13	6413.07
452.31	6354.55
452.49	6183.70
452.68	6218.80
452.86	6253.91
453.05	6480.94
453.23	6480.94
453.42	6218.80
453.60	6427.11
453.78	6471.58
453.97	6373.28
454.15	6525.41
454.34	6473.92
454.52	6572.22
454.70	6497.33
454.89	6534.78
455.07	6490.31
455.26	6462.22
455.44	6726.70
455.62	6700.95
455.81	6773.51
455.99	6841.39
456.17	6778.19
456.36	6808.62
456.54	6944.37
456.73	6942.03
456.91	7040.33
457.09	6918.62
457.28	7157.36
457.46	6946.71
457.64	7082.46
457.83	7045.01
458.01	7056.72
458.19	7286.09
458.38	7157.36
458.56	7342.26
458.74	7286.09
458.93	7190.13
459.11	7178.42
459.29	7218.21
459.48	7267.36
459.66	7300.13
459.84	7566.95
460.03	7489.71
460.21	7286.09
460.39	7407.80
460.57	7332.90
460.76	7602.06
460.94	7524.82
461.12	7489.71
461.31	7522.48
461.49	7410.14
461.67	7583.34
461.85	7728.45
462.04	7651.21
462.22	8004.63
462.40	7901.65
462.59	7903.99
462.77	7662.91
462.95	7981.23
463.13	7714.41
463.32	7953.14
463.50	7871.22
463.68	8077.19
463.86	7908.67
464.05	7925.05
464.23	8035.06
464.41	8028.04
464.59	7852.50
464.78	8166.13
464.96	8037.40
465.14	7864.20
465.32	8091.23
465.50	8168.47
465.69	8135.70
465.87	8217.62
466.05	8039.74
466.23	8124.00
466.41	8320.60
466.60	8283.16
466.78	8086.55
466.96	8297.20
467.14	8266.77
467.32	8278.47
467.51	8393.16
467.69	8163.79
467.87	8334.65
468.05	8402.52
468.23	8315.92
468.41	8367.42
468.60	8336.99
468.78	8580.40
468.96	8449.33
469.14	8620.19
469.32	8561.68
469.50	8397.84
469.69	8800.41
469.87	8762.97
470.05	8908.08
470.23	8784.03
470.41	8926.80
470.59	8901.06
470.77	8875.31
470.95	8781.69
471.14	9160.86
471.32	8746.58
471.50	9043.83
471.68	9158.52
471.86	9097.66
472.04	9331.72
472.22	9366.82
472.40	9081.28
472.58	9369.16
472.77	9348.10
472.95	9500.23
473.13	9547.05
473.31	9362.14
473.49	9401.93
473.67	9682.80
473.85	9563.43
474.03	9771.74
474.21	9708.54
474.39	9907.49
474.57	10008.13
474.75	9860.68
474.93	9874.72
475.12	9870.04
475.30	9989.41
475.48	9977.70
475.66	10104.09
475.84	10092.39
476.02	10321.76
476.20	10291.34
476.38	10352.19
476.56	10637.73
476.74	10621.35
476.92	10548.79
477.10	10679.86
477.28	10803.91
477.46	10476.24
477.64	10590.92
477.82	11023.92
478.00	11421.81
478.18	11192.44
478.36	11265.00
478.54	11426.50
478.72	11391.39
478.90	11634.80
479.08	11641.82
479.26	11700.34
479.44	11864.18
479.62	11683.95
479.80	12201.21
479.98	12138.02
480.16	12252.70
480.34	12182.49
480.52	12538.25
480.70	12325.26
480.88	12175.47
481.06	12535.91
481.24	12334.62
481.41	12683.36
481.59	12966.57
481.77	12835.50
481.95	12809.75
482.13	13261.48
482.31	12999.34
482.49	13446.38
482.67	13268.50
482.85	13390.20
483.03	13415.95
483.21	13755.33
483.39	13717.88
483.57	14017.47
483.74	13916.83
483.92	13991.72
484.10	14061.94
484.28	14466.85
484.46	14530.05
484.64	14775.80
484.82	14499.62
485.00	14799.21
485.18	15073.05
485.35	15091.77
485.53	14794.53
485.71	15389.02
485.89	15529.45
486.07	15330.51
486.25	15438.17
486.43	15602.01
486.61	15744.78
486.78	16238.64
486.96	15948.41
487.14	16318.22
487.32	16327.58
487.50	16613.12
487.68	16563.97
487.85	16908.03
488.03	16919.73
488.21	17053.14
488.39	16889.31
488.57	17207.62
488.75	17308.26
488.92	17326.99
489.10	17785.73
489.28	17687.43
489.46	17783.39
489.64	18029.15
489.81	18368.52
489.99	18232.77
490.17	18541.72
490.35	18644.71
490.53	18677.48
490.70	18885.78
490.88	18710.24
491.06	19112.81
491.24	18789.82
491.41	19161.97
491.59	19426.45
491.77	19204.10
491.95	19264.95
492.13	19777.53
492.30	19789.23
492.48	19932.00
492.66	20133.29
492.84	20135.63
493.01	20264.36
493.19	20472.67
493.37	20535.86
493.54	20505.43
493.72	20709.06
493.90	20563.95
494.08	21099.93
494.25	21205.25
494.43	20978.22
494.61	21546.97
494.79	21130.36
494.96	21282.49
495.14	21652.30
495.32	21736.56
495.49	22115.72
495.67	21858.26
495.85	22228.07
496.02	21937.84
496.20	22349.78
496.38	22754.69
496.55	22417.65
496.73	23140.88
496.91	23000.44
497.09	22941.93
497.26	22860.01
497.44	23573.88
497.62	23117.47
497.79	23672.18
497.97	23597.28
498.14	23723.67
498.32	23594.94
498.50	23744.73
498.67	24149.65
498.85	23683.88
499.03	24135.60
499.20	24032.62
499.38	24503.07
499.56	24418.81
499.73	24285.40
499.91	24741.80
500.08	24795.64
500.26	24512.43
500.44	25125.65
500.61	25230.98
500.79	24964.15
500.97	25118.63
501.14	25521.20
501.32	25348.00
501.49	25474.39
501.67	25443.96
501.84	25724.83
502.02	25692.06
502.20	25970.58
502.37	25584.40
502.55	25764.62
502.72	26216.34
502.90	25886.32
503.07	26029.10
503.25	26384.86
503.43	26134.42
503.60	26239.75
503.78	26349.75
503.95	26527.63
504.13	26536.99
504.30	26806.16
504.48	26618.91
504.65	27110.43
504.83	26995.74
505.01	27159.58
505.18	27175.96
505.36	27520.02
505.53	27283.62
505.71	27683.86
505.88	27239.15
506.06	27386.61
506.23	27866.42
506.41	27828.97
506.58	28037.28
506.76	28336.87
506.93	28194.09
507.11	27962.38
507.28	28308.78
507.46	28276.01
507.63	28346.23
507.81	28236.22
507.98	28287.71
508.16	28526.45
508.33	28922.00
508.50	28964.13
508.68	28886.89
508.85	29013.28
509.03	29137.33
509.20	29001.58
509.38	29575.01
509.55	29656.93
509.73	29261.38
509.90	29263.72
510.08	30043.12
510.25	29413.51
510.42	29579.69
510.60	30017.37
510.77	30043.12
510.95	30586.12
511.12	30010.35
511.30	30043.12
511.47	30452.71
511.64	30438.67
511.82	30169.51
511.99	30277.17
512.17	30651.66
512.34	30621.23
512.51	31068.27
512.69	31065.93
512.86	30930.18
513.04	30902.09
513.21	31007.42
513.38	31136.15
513.56	31337.43
513.73	31173.60
513.90	31276.58
514.08	31199.34
514.25	31690.85
514.43	31562.12
514.60	31761.07
514.77	31784.48
514.95	32060.66
515.12	31714.26
515.29	32002.14
515.47	32322.80
515.64	32055.98
515.81	31620.64
515.99	32285.35
516.16	32531.11
516.33	32219.81
516.51	32818.99
516.68	32371.95
516.85	32563.87
517.03	32964.10
517.20	33088.15
517.37	33027.30
517.54	33099.86
517.72	32802.61
517.89	32797.93
518.06	33240.29
518.24	33336.25
518.41	33024.96
518.58	33333.91
518.75	33057.73
518.93	33668.61
519.10	33710.74
519.27	33612.43
519.45	33626.48
519.62	33715.42
519.79	34333.32
519.96	33818.40
520.14	34036.07
520.31	33797.34
520.48	34279.49
520.65	34171.82
520.83	34684.40
521.00	34333.32
521.17	34490.13
521.34	34335.66
521.52	34663.33
521.69	34799.08
521.86	34817.81
522.03	35103.35
522.20	35037.82
522.38	35447.41
522.55	35246.13
522.72	35236.77
522.89	35419.33
523.07	35637.00
523.24	35496.56
523.41	35438.05
523.58	35594.87
523.75	35672.10
523.92	35592.53
524.10	35761.05
524.27	36055.95
524.44	35990.42
524.61	36402.35
524.78	36341.50
524.96	36657.47
525.13	36191.70
525.30	36545.12
525.47	36545.12
525.64	36278.30
525.81	36371.92
525.98	36343.84
526.16	36690.24
526.33	36549.81
526.50	36552.15
526.67	36456.18
526.84	37055.36
527.01	36783.86
527.18	36999.19
527.36	37109.19
527.53	37141.96
527.70	37165.37
527.87	37291.76
528.04	36814.29
528.21	37827.74
528.38	37095.15
528.55	37476.66
528.72	37251.97
528.89	37539.85
529.07	37216.86
529.24	37474.32
529.41	37787.95
529.58	37537.51
529.75	37324.52
529.92	37848.80
530.09	37490.70
530.26	38213.93
530.43	37893.27
530.60	37991.58
530.77	38022.00
530.94	38368.40
531.11	37935.40
531.28	38160.09
531.46	38234.99
531.63	37940.08
531.80	38181.16
531.97	38581.39
532.14	38588.41
532.31	38550.96
532.48	38927.79
532.65	38817.78
532.82	38656.29
532.99	38990.98
533.16	38852.89
533.33	38782.68
533.50	39503.56
533.67	38742.89
533.84	38829.49
534.01	39363.13
534.18	39412.28
534.35	39419.30
534.52	38986.30
534.69	39559.73
534.86	39566.76
535.03	39398.24
535.20	39697.83
535.37	39789.11
535.54	39730.59
535.71	39840.60
535.88	39873.37
536.05	39751.66
536.22	39906.13
536.38	39957.63
536.55	39880.39
536.72	39880.39
536.89	39880.39
537.06	40027.84
537.23	40273.60
537.40	40023.16
537.57	39718.89
537.74	40002.10
537.91	40102.74
538.08	40048.91
538.25	40346.15
538.42	40542.76
538.59	40690.21
538.75	40432.75
538.92	40428.07
539.09	41134.92
539.26	40854.05
539.43	40467.86
539.60	40957.03
539.77	40879.80
539.94	41060.02
540.11	40928.95
540.28	40872.78
540.44	40889.16
540.61	40877.46
540.78	40940.65
540.95	40746.39
541.12	41062.36
541.29	41034.27
541.46	40683.19
541.62	41050.66
541.79	41455.57
541.96	41195.77
542.13	40933.63
542.30	41588.98
542.47	41696.64
542.63	41572.60
542.80	42253.69
542.97	42164.75
543.14	41757.50
543.31	41830.05
543.48	42176.45
543.64	42438.59
543.81	42473.70
543.98	42459.66
544.15	42007.94
544.32	42401.14
544.48	42335.61
544.65	42564.98
544.82	42539.24
544.99	42302.84
545.16	42546.26
545.32	42155.39
545.49	42927.77
545.66	42911.38
545.83	42843.51
546.00	42862.23
546.16	42906.70
546.33	42876.27
546.50	42682.01
546.67	43416.94
546.83	42724.14
547.00	43309.27
547.17	43065.86
547.34	43199.27
547.50	42930.11
547.67	43587.80
547.84	43330.34
548.00	43093.94
548.17	43246.08
548.34	43065.86
548.51	43674.40
548.67	43234.38
548.84	43217.99
549.01	43730.57
549.18	43648.65
549.34	43849.94
549.51	43648.65
549.68	43555.03
549.84	43693.12
550.01	43798.44
550.18	43613.54
550.34	43878.02
550.51	43683.76
550.68	44002.07
550.84	43763.34
551.01	43863.98
551.18	43622.90
551.34	43768.02
551.51	44072.29
551.68	44224.42
551.84	44065.27
552.01	44093.35
552.18	44589.55
552.34	43887.39
552.51	44399.96
552.68	44074.63
552.84	43798.44
553.01	44685.51
553.18	44369.54
553.34	44341.45
553.51	44184.63
553.67	44591.89
553.84	44580.18
554.01	44355.49
554.17	44643.38
554.34	44502.95
554.51	44711.25
554.67	44781.47
554.84	45006.16
555.00	44882.11
555.17	44839.98
555.33	45099.78
555.50	44641.04
555.67	44795.51
555.83	44479.54
556.00	44945.31
556.16	45317.45
556.33	45291.71
556.50	45455.54
556.66	45455.54
556.83	44994.46
556.99	45216.81
557.16	45392.35
557.32	45654.49
557.49	45645.13
557.65	45343.20
557.82	45598.32
557.98	45354.90
558.15	45317.45
558.32	45556.19
558.48	45064.67
558.65	45301.07
558.81	45525.76
558.98	45319.79
559.14	45298.73
559.31	45228.51
559.47	45492.99
559.64	45815.99
559.80	45574.91
559.97	45731.73
560.13	45436.82
560.30	45713.00
560.46	46033.66
560.63	45858.12
560.79	46176.43
560.96	46251.33
561.12	46113.23
561.29	46143.66
561.45	46014.93
561.61	45773.86
561.78	46012.59
561.94	46045.36
562.11	46265.37
562.27	46050.04
562.44	46014.93
562.60	46110.89
562.77	46171.75
562.93	46138.98
563.10	46101.53
563.26	46089.83
563.42	46431.55
563.59	46153.02
563.75	45963.44
563.92	46307.50
564.08	46138.98
564.24	46415.16
564.41	46167.07
564.57	46368.35
564.74	46590.70
564.90	46328.56
565.07	46043.02
565.23	46005.57
565.39	46396.44
565.56	46401.12
565.72	46398.78
565.88	46459.63
566.05	46469.00
566.21	46356.65
566.38	46277.07
566.54	46576.66
566.70	46822.42
566.87	46131.96
567.03	46078.13
567.19	46600.07
567.36	46518.15
567.52	46527.51
567.68	46866.89
567.85	46866.89
568.01	46775.61
568.17	46511.13
568.34	46808.37
568.50	46780.29
568.66	46483.04
568.83	46604.75
568.99	46471.34
569.15	46604.75
569.32	46649.22
569.48	46794.33
569.64	47023.70
569.81	46621.13
569.97	47084.56
570.13	47178.18
570.30	46696.03
570.46	47194.56
570.62	47033.07
570.78	46834.12
570.95	46920.72
571.11	47232.01
571.27	46693.69
571.43	46850.50
571.60	46590.70
571.76	46705.39
571.92	46962.85
572.09	46703.05
572.25	47133.71
572.41	46920.72
572.57	46876.25
572.74	46988.60
572.90	47208.61
573.06	47346.70
573.22	47110.30
573.38	47367.76
573.55	47122.01
573.71	47405.21
573.87	47262.44
574.03	47000.30
574.20	47187.54
574.36	47267.12
574.52	47243.71
574.68	47129.03
574.84	47316.27
575.01	47590.11
575.17	46731.14
575.33	47452.02
575.49	47194.56
575.65	47260.10
575.82	47367.76
575.98	47159.45
576.14	47505.85
576.30	47442.66
576.46	47096.26
576.62	47089.24
576.79	47131.37
576.95	47033.07
577.11	46925.40
577.27	47285.84
577.43	47243.71
577.59	47531.60
577.75	46913.70
577.92	47058.81
578.08	47014.34
578.24	47309.25
578.40	47269.46
578.56	47255.42
578.72	47140.73
578.88	47145.41
579.04	47491.81
579.21	47049.45
579.37	47297.55
579.53	47393.51
579.69	47224.99
579.85	47330.31
580.01	47040.09
580.17	47269.46
580.33	47831.19
580.49	47185.20
580.65	47510.53
580.82	47122.01
580.98	47246.05
581.14	47070.51
581.30	47767.99
581.46	47480.11
581.62	47552.66
581.78	47318.61
581.94	47339.68
582.10	47313.93
582.26	47892.04
582.42	47796.08
582.58	47522.24
582.74	47622.88
582.90	47199.24
583.06	47597.13
583.22	47533.94
583.38	47304.57
583.54	47641.60
583.70	47648.63
583.86	47753.95
584.02	47281.16
584.18	47847.57
584.34	47686.07
584.50	47847.57
584.66	47250.74
584.82	47585.43
584.98	47927.15
585.14	47569.05
585.30	47866.30
585.46	47749.27
585.62	47381.80
585.78	47894.38
585.94	47437.98
586.10	47552.66
586.26	47629.90
586.42	47327.97
586.58	48032.47
586.74	47309.25
586.90	47297.55
587.06	47653.31
587.22	48062.90
587.38	47690.76
587.54	48215.04
587.70	47997.37
587.86	47784.38
588.02	47437.98
588.18	47845.23
588.34	47592.45
588.49	48121.41
588.65	47966.94
588.81	47629.90
588.97	47990.34
589.13	47618.20
589.29	47552.66
589.45	48041.84
589.61	47854.59
589.77	47821.83
589.93	48044.18
590.08	48161.20
590.24	48404.62
590.40	48409.30
590.56	48081.63
590.72	48179.93
590.88	47564.37
591.04	47800.76
591.20	47931.83
591.35	48151.84
591.51	48151.84
591.67	48264.19
591.83	48402.28
591.99	47817.14
592.15	47793.74
592.31	47845.23
592.46	48236.10
592.62	48114.39
592.78	48287.59
592.94	48612.93
593.10	48119.07
593.26	48549.73
593.41	48058.22
593.57	48444.41
593.73	48023.11
593.89	48912.52
594.05	48336.74
594.20	48170.57
594.36	49001.46
594.52	48505.26
594.68	48385.89
594.84	47952.90
594.99	48215.04
595.15	48467.81
595.31	48561.44
595.47	48011.41
595.62	48371.85
595.78	48261.85
595.94	48280.57
596.10	48154.18
596.25	48664.42
596.41	48315.68
596.57	48210.35
596.73	48502.92
596.88	48254.82
597.04	48278.23
597.20	48486.54
597.36	48797.83
597.51	48683.14
597.67	48048.86
597.83	48889.11
597.99	48308.66
598.14	48154.18
598.30	48390.58
598.46	48601.22
598.61	49029.54
598.77	48439.73
598.93	48512.28
599.09	48652.72
599.24	48669.10
599.40	48617.61
599.56	48928.90
599.71	48636.33
599.87	48928.90
600.03	48748.68
600.18	48615.27
600.34	48210.35
600.50	48652.72
600.65	48701.87
600.81	48846.98
600.97	48732.29
601.12	48144.82
601.28	48596.54
601.44	48486.54
601.59	48575.48
601.75	48334.40
601.91	48711.23
602.06	48680.80
602.22	48584.84
602.37	48519.31
602.53	48502.92
602.69	48748.68
602.84	48135.46
603.00	48315.68
603.16	48367.17
603.31	48322.70
603.47	48793.15
603.62	48491.22
603.78	48708.89
603.94	48692.50
604.09	48566.12
604.25	48617.61
604.40	48638.67
604.56	48348.45
604.71	48523.99
604.87	48460.79
605.03	48477.18
605.18	48596.54
605.34	48376.53
605.49	48177.59
605.65	48652.72
605.80	48346.11
605.96	48472.49
606.12	48598.88
606.27	48280.57
606.43	48343.77
606.58	48722.93
606.74	48641.01
606.89	48526.33
607.05	48942.94
607.20	48222.06
607.36	48193.97
607.51	48273.55
607.67	48439.73
607.82	48327.38
607.98	48095.67
608.13	48320.36
608.29	48374.19
608.44	48346.11
608.60	48453.77
608.75	48151.84
608.91	48554.41
609.06	48011.41
609.22	48762.72
609.37	47971.62
609.53	48942.94
609.68	48545.05
609.84	48238.44
609.99	48299.30
610.15	48350.79
610.30	48287.59
610.46	48079.28
610.61	48547.39
610.76	48329.72
610.92	47950.56
611.07	48327.38
611.23	47941.19
611.38	48156.52
611.54	48025.45
611.69	48210.35
611.84	48212.70
612.00	48477.18
612.15	47955.24
612.31	48081.63
612.46	47662.67
612.62	48009.07
612.77	48210.35
612.92	48519.31
613.08	47772.67
613.23	48261.85
613.39	47393.51
613.54	47835.87
613.69	48191.63
613.85	48137.80
614.00	48011.41
614.15	47980.98
614.31	47903.74
614.46	47892.04
614.62	47381.80
614.77	48086.31
614.92	47798.42
615.08	48023.11
615.23	47955.24
615.38	48069.92
615.54	47887.36
615.69	47660.33
615.84	47983.32
616.00	47744.59
616.15	47721.18
616.30	47814.80
616.46	47587.77
616.61	47409.89
616.76	47533.94
616.92	47597.13
617.07	47531.60
617.22	47220.31
617.37	47814.80
617.53	47473.09
617.68	47243.71
617.83	47372.44
617.99	47906.08
618.14	47882.68
618.29	47337.33
618.45	47480.11
618.60	47309.25
618.75	47196.90
618.90	47044.77
619.06	47573.73
619.21	47562.03
619.36	47559.69
619.51	47313.93
619.67	47143.07
619.82	47288.18
619.97	47353.72
620.12	47194.56
620.28	46934.76
620.43	47445.00
620.58	47147.75
620.73	47220.31
620.89	47100.94
621.04	47501.17
621.19	47187.54
621.34	46976.89
621.49	47044.77
621.65	47096.26
621.80	47562.03
621.95	46930.08
622.10	47557.35
622.25	47157.11
622.41	47201.58
622.56	47012.00
622.71	47098.60
622.86	47063.49
623.01	47063.49
623.16	46787.31
623.32	46546.23
623.47	46923.06
623.62	46859.87
623.77	46759.22
623.92	47129.03
624.07	47040.09
624.23	46897.31
624.38	47056.47
624.53	46862.21
624.68	46405.80
624.83	46520.49
624.98	46419.84
625.13	46075.79
625.29	46190.47
625.44	46265.37
625.59	46656.24
625.74	46628.15
625.89	46356.65
626.04	46246.65
626.19	46167.07
626.34	46824.76
626.49	45888.54
626.65	46494.74
626.80	46436.23
626.95	45783.22
627.10	46129.62
627.25	46529.85
627.40	45940.04
627.55	46176.43
627.70	46174.09
627.85	46436.23
628.00	45942.38
628.15	46363.67
628.30	45574.91
628.45	45752.79
628.60	45535.12
628.76	45940.04
628.91	45755.13
629.06	45474.27
629.21	46019.61
629.36	45474.27
629.51	45603.00
629.66	46183.45
629.81	45944.72
629.96	45787.90
630.11	45825.35
630.26	45614.70
630.41	45645.13
630.56	45715.34
630.71	45841.73
630.86	45790.24
631.01	45343.20
631.16	45404.05
631.31	45743.43
631.46	45794.92
631.61	45759.81
631.76	46138.98
631.91	45605.34
632.06	45666.19
632.21	45607.68
632.36	45965.78
632.51	44741.68
632.66	45043.61
632.81	45446.18
632.96	45748.11
633.10	45158.30
633.25	45422.78
633.40	45289.37
633.55	45371.28
633.70	45436.82
633.85	45076.38
634.00	45013.18
634.15	45144.25
634.30	45036.59
634.45	45031.91
634.60	45202.77
634.75	45404.05
634.90	44968.71
635.05	45256.60
635.19	45338.52
635.34	44964.03
635.49	44940.63
635.64	44900.84
635.79	45322.13
635.94	45195.74
636.09	45041.27
636.24	45216.81
636.39	44598.91
636.53	45095.10
636.68	44807.22
636.83	44348.47
636.98	44552.10
637.13	44460.82
637.28	44198.68
637.43	44364.85
637.57	44828.28
637.72	44226.76
637.87	44107.40
638.02	44519.33
638.17	44509.97
638.32	44318.04
638.46	43962.28
638.61	44596.57
638.76	44245.49
638.91	44470.18
639.06	44175.27
639.20	44083.99
639.35	44236.12
639.50	43814.83
639.65	44659.76
639.80	44409.32
639.94	44215.06
640.09	43835.89
640.24	44222.08
640.39	43948.24
640.54	43852.28
640.68	44055.90
640.83	44114.42
640.98	44142.50
641.13	43770.36
641.27	44350.81
641.42	43690.78
641.57	44144.84
641.72	44191.65
641.86	44371.88
642.01	43349.06
642.16	43683.76
642.31	43929.51
642.45	44217.40
642.60	43697.80
642.75	43262.46
642.90	44287.62
643.04	43508.22
643.19	43452.05
643.34	43393.53
643.48	43569.07
643.63	43210.97
643.78	43433.32
643.93	43739.93
644.07	43023.73
644.22	43503.54
644.37	43536.30
644.51	43634.61
644.66	43449.70
644.81	43419.28
644.95	43182.88
645.10	43552.69
645.25	43274.16
645.39	43225.01
645.54	43098.62
645.69	42728.82
645.83	42637.54
645.98	43103.31
646.13	42916.06
646.27	43117.35
646.42	43058.84
646.57	42714.78
646.71	43548.01
646.86	43274.16
647.00	43438.00
647.15	42923.08
647.30	43168.84
647.44	42522.85
647.59	42808.40
647.74	42351.99
647.88	42913.72
648.03	42829.46
648.17	43075.22
648.32	42817.76
648.47	42986.28
648.61	43203.95
648.76	42562.64
648.90	42625.84
649.05	42403.49
649.20	42836.48
649.34	42497.11
649.49	42508.81
649.63	42880.95
649.78	42454.98
649.92	42698.39
650.07	42953.51
650.21	42546.26
650.36	42557.96
650.51	42391.78
650.65	42946.49
650.80	42534.56
650.94	42494.77
651.09	42761.59
651.23	42581.37
651.38	42394.12
651.52	41860.48
651.67	42286.46
651.81	42234.97
651.96	42117.94
652.10	41895.59
652.25	41631.11
652.39	42192.84
652.54	41975.17
652.68	41984.53
652.83	42256.03
652.97	42157.73
653.12	42225.60
653.26	41790.27
653.41	41904.95
653.55	42239.65
653.70	42075.81
653.84	42403.49
653.99	42122.62
654.13	42050.06
654.27	41780.90
654.42	42021.98
654.56	41684.94
654.71	41895.59
654.85	42136.66
655.00	41677.92
655.14	41907.29
655.29	41837.08
655.43	41827.71
655.57	41109.17
655.72	41528.13
655.86	41141.94
656.01	41975.17
656.15	41425.14
656.30	41027.25
656.44	41696.64
656.58	41832.39
656.73	41785.58
656.87	40769.79
657.01	40830.65
657.16	41617.07
657.30	41366.63
657.45	41069.38
657.59	40788.52
657.73	41097.47
657.88	40971.08
658.02	40996.82
658.16	41020.23
658.31	41207.47
658.45	41055.34
658.60	40992.14
658.74	41209.81
658.88	41148.96
659.03	40919.59
659.17	40669.15
659.31	40130.83
659.46	40502.97
659.60	40734.68
659.74	40608.29
659.89	40032.52
660.03	40374.24
660.17	40376.58
660.32	40053.59
660.46	40233.81
660.60	39866.34
660.74	39924.86
660.89	40247.85
661.03	39913.16
661.17	39978.69
661.32	40034.86
661.46	40044.23
661.60	39868.69
661.74	39775.06
661.89	39800.81
662.03	39969.33
662.17	39199.29
662.31	39377.17
662.46	39524.63
662.60	39356.11
662.74	39100.99
662.88	39136.10
663.03	39192.27
663.17	39632.29
663.31	39173.55
663.45	39377.17
663.60	39445.05
663.74	39531.65
663.88	39225.04
664.02	39522.29
664.17	39131.42
664.31	39152.48
664.45	38958.22
664.59	39180.57
664.73	38934.81
664.88	39084.61
665.02	38731.18
665.16	38574.37
665.30	38616.50
665.44	38815.44
665.59	38513.52
665.73	38295.85
665.87	37942.42
666.01	38459.68
666.15	37837.10
666.29	38314.57
666.44	38117.96
666.58	38014.98
666.72	37853.48
666.86	37963.49
667.00	38029.02
667.14	37979.87
667.28	37982.21
667.43	37514.11
667.57	38127.33
667.71	37593.68
667.85	37900.29
667.99	37741.14
668.13	37387.72
668.27	37839.44
668.41	37376.01
668.56	37237.92
668.70	37153.66
668.84	36776.84
668.98	37127.92
669.12	37184.09
669.26	36725.35
669.40	36950.04
669.54	36940.68
669.68	37062.38
669.82	36601.30
669.96	36128.51
670.10	36442.14
670.25	36605.98
670.39	36350.86
670.53	36629.38
670.67	36392.99
670.81	36818.97
670.95	36526.40
671.09	36444.48
671.23	36292.35
671.37	36109.78
671.51	35903.82
671.65	35683.81
671.79	35688.49
671.93	35819.56
672.07	35763.39
672.21	36402.35
672.35	35196.98
672.49	35842.96
672.63	35487.20
672.77	35683.81
672.91	35604.23
673.05	35152.51
673.19	34930.16
673.33	34930.16
673.47	35005.05
673.61	34960.58
673.75	34618.86
673.89	34981.65
674.03	34244.38
674.17	34232.68
674.31	34139.05
674.45	34204.59
674.59	34361.40
674.73	34548.65
674.87	34174.16
675.01	33947.13
675.15	33460.30
675.29	33628.82
675.43	33462.64
675.56	34066.50
675.70	33902.66
675.84	33706.05
675.98	32552.17
676.12	33336.25
676.26	33907.34
676.40	33490.73
676.54	32978.15
676.68	33020.28
676.82	32573.24
676.96	32917.29
677.10	33116.24
677.23	32423.44
677.37	32872.82
677.51	32767.50
677.65	32507.70
677.79	32308.76
677.93	32055.98
678.07	32439.82
678.21	31955.33
678.34	31871.07
678.48	31447.44
678.62	31768.09
678.76	31529.36
678.90	31740.00
679.04	30986.35
679.18	31449.78
679.31	31173.60
679.45	30738.26
679.59	30885.71
679.73	31152.53
679.87	30871.67
680.00	30522.93
680.14	30759.32
680.28	30864.64
680.42	30745.28
680.56	30349.73
680.70	30522.93
680.83	29640.54
680.97	30223.34
681.11	29921.41
681.25	29713.10
681.39	29673.31
681.52	29694.38
681.66	29476.71
681.80	28938.38
681.94	29027.32
682.07	29287.12
682.21	29167.76
682.35	28842.42
682.49	29116.26
682.62	29127.97
682.76	28498.36
682.90	28788.59
683.04	28418.78
683.17	28716.03
683.31	28423.47
683.45	28107.49
683.59	28002.17
683.72	27915.57
683.86	28023.23
684.00	27946.00
684.13	28023.23
684.27	27564.49
684.41	27594.92
684.55	27606.62
684.68	27213.41
684.82	27508.32
684.96	26969.99
685.09	27194.68
685.23	27250.86
685.37	27285.97
685.50	27421.72
685.64	26913.82
685.78	26834.24
685.91	26628.27
686.05	26387.20
686.19	25795.04
686.32	26197.62
686.46	26080.59
686.60	26101.65
686.73	25874.62
686.87	26031.44
687.01	26003.35
687.14	25846.54
687.28	25443.96
687.42	25692.06
687.55	25163.10
687.69	25184.16
687.82	24971.18
687.96	25013.31
688.10	24980.54
688.23	25177.14
688.37	24802.66
688.50	25263.74
688.64	25013.31
688.78	24786.27
688.91	24521.79
689.05	24659.88
689.18	24121.56
689.32	23899.21
689.46	24247.95
689.59	23864.10
689.73	24362.64
689.86	23967.09
690.00	23995.17
690.13	24044.32
690.27	23601.96
690.41	23466.21
690.54	22932.57
690.68	23309.40
690.81	23215.77
690.95	22939.59
691.08	23407.70
691.22	22698.52
691.35	22703.20
691.49	22534.68
691.62	23087.04
691.76	22377.86
691.89	22424.67
692.03	22026.78
692.16	22003.38
692.30	22225.73
692.43	22026.78
692.57	21886.35
692.70	21874.65
692.84	21589.10
692.97	21701.45
693.11	21481.44
693.24	21296.53
693.38	21170.15
693.51	21193.55
693.65	20905.66
693.78	21034.39
693.92	20744.17
694.05	21193.55
694.19	20783.96
694.32	20566.29
694.45	21006.31
694.59	20957.16
694.72	20847.15
694.86	20168.40
694.99	20098.18
695.13	20011.58
695.26	20159.03
695.39	20105.20
695.53	19798.59
695.66	20032.65
695.80	19796.25
695.93	19679.22
696.07	19777.53
696.20	19101.11
696.33	19145.58
696.47	19353.89
696.60	18862.38
696.73	19110.47
696.87	18780.46
697.00	19213.46
697.14	18963.02
697.27	18803.86
697.40	18895.14
697.54	18696.20
697.67	18647.05
697.80	18443.42
697.94	18483.21
698.07	18291.29
698.21	18218.73
698.34	18167.24
698.47	18090.00
698.61	17823.18
698.74	17848.93
698.87	18005.74
699.01	17483.80
699.14	17748.28
699.27	17483.80
699.40	17390.18
699.54	17406.56
699.67	17326.99
699.80	17266.13
699.94	17383.16
700.07	17011.01
700.20	17172.51
700.34	17186.55
700.47	16936.12
700.60	17008.67
700.73	16737.17
700.87	16559.29
701.00	16456.31
701.13	16308.85
701.26	16339.28
701.40	16233.96
701.53	15889.90
701.66	16196.51
701.79	16283.11
701.93	15765.85
702.06	15726.06
702.19	15845.43
702.32	15887.56
702.46	15723.72
702.59	15721.38
702.72	15800.96
702.85	15630.10
702.99	15592.65
703.12	15405.41
703.25	15180.71
703.38	15021.56
703.51	15059.01
703.65	14974.75
703.78	14785.16
703.91	14504.30
704.04	14384.93
704.17	14438.76
704.31	14532.39
704.44	14466.85
704.57	14565.15
704.70	14347.48
704.83	14324.08
704.96	14160.24
705.10	14188.33
705.23	14104.07
>>>>>End Processed Spectral Data<<<<<
