SpectraSuite Data File
++++++++++++++++++++++++++++++++++++
Date: Fri Oct 25 10:48:30 EDT 2013
User: price-jones
Dark Spectrum Present: No
Reference Spectrum Present: No
Number of Sampled Component Spectra: 1
Spectrometers: USB2+H05261
Integration Time (usec): 100000 (USB2+H05261)
Spectra Averaged: 1 (USB2+H05261)
Boxcar Smoothing: 0 (USB2+H05261)
Correct for Electrical Dark: No (USB2+H05261)
Strobe/Lamp Enabled: No (USB2+H05261)
Correct for Detector Non-linearity: No (USB2+H05261)
Correct for Stray Light: No (USB2+H05261)
Number of Pixels in Processed Spectrum: 2048
>>>>>Begin Processed Spectral Data<<<<<
365.73	187.24
365.92	187.24
366.12	187.24
366.32	98.30
366.52	37.45
366.72	93.62
366.91	25.75
367.11	70.22
367.31	63.19
367.51	74.90
367.70	60.85
367.90	72.56
368.10	124.05
368.30	70.22
368.49	11.70
368.69	91.28
368.89	72.56
369.09	58.51
369.28	74.90
369.48	0.00
369.68	105.32
369.87	74.90
370.07	110.01
370.27	198.95
370.47	257.46
370.66	447.04
370.86	411.93
371.06	477.47
371.25	540.66
371.45	489.17
371.65	470.45
371.84	491.51
372.04	550.03
372.24	578.11
372.44	517.26
372.63	451.72
372.83	587.47
373.03	528.96
373.22	489.17
373.42	489.17
373.62	456.40
373.81	603.86
374.01	596.84
374.21	631.94
374.40	620.24
374.60	561.73
374.79	603.86
374.99	559.39
375.19	622.58
375.38	601.52
375.58	606.20
375.78	596.84
375.97	582.79
376.17	631.94
376.37	610.88
376.56	645.99
376.76	660.03
376.95	589.82
377.15	662.37
377.35	645.99
377.54	587.47
377.74	634.29
377.93	615.56
378.13	650.67
378.33	678.76
378.52	671.73
378.72	709.18
378.91	676.41
379.11	634.29
379.31	655.35
379.50	629.60
379.70	664.71
379.89	683.44
380.09	704.50
380.28	706.84
380.48	709.18
380.68	767.70
380.87	653.01
381.07	755.99
381.26	744.29
381.46	732.59
381.65	716.20
381.85	772.38
382.04	767.70
382.24	739.61
382.43	690.46
382.63	805.14
382.83	767.70
383.02	833.23
383.22	805.14
383.41	767.70
383.61	755.99
383.80	875.36
384.00	870.68
384.19	826.21
384.39	779.40
384.58	847.27
384.78	720.88
384.97	744.29
385.17	770.04
385.36	805.14
385.56	875.36
385.75	748.97
385.95	791.10
386.14	830.89
386.34	835.57
386.53	887.06
386.72	882.38
386.92	870.68
387.11	898.77
387.31	929.19
387.50	926.85
387.70	826.21
387.89	950.26
388.09	912.81
388.28	912.81
388.48	933.87
388.67	957.28
388.86	936.21
389.06	849.61
389.25	940.90
389.45	938.55
389.64	1008.77
389.84	1062.60
390.03	1029.84
390.22	1055.58
390.42	992.39
390.61	999.41
390.81	1027.50
391.00	1158.57
391.19	1118.78
391.39	1088.35
391.58	1057.92
391.78	1034.52
391.97	1109.41
392.16	1097.71
392.36	1102.39
392.55	1034.52
392.75	1107.07
392.94	1095.37
393.13	1006.43
393.33	1062.60
393.52	1114.10
393.71	1128.14
393.91	1114.10
394.10	1184.31
394.29	1170.27
394.49	1153.88
394.68	1228.78
394.88	1275.59
395.07	1282.61
395.26	1233.46
395.46	1210.06
395.65	1289.64
395.84	1198.35
396.04	1378.58
396.23	1259.21
396.42	1203.04
396.62	1203.04
396.81	1242.82
397.00	1270.91
397.19	1299.00
397.39	1343.47
397.58	1324.74
397.77	1371.55
397.97	1355.17
398.16	1409.00
398.35	1490.92
398.55	1418.36
398.74	1509.65
398.93	1598.59
399.12	1469.86
399.32	1486.24
399.51	1516.67
399.70	1607.95
399.90	1495.60
400.09	1572.84
400.28	1790.51
400.47	1549.43
400.67	1760.08
400.86	1748.38
401.05	1647.74
401.24	1715.61
401.44	1783.49
401.63	1816.26
401.82	1710.93
402.01	1633.69
402.21	1746.04
402.40	1771.79
402.59	1746.04
402.78	1739.02
402.97	1727.32
403.17	1863.07
403.36	1764.76
403.55	1860.73
403.74	1914.56
403.93	1919.24
404.13	1895.83
404.32	1867.75
404.51	1907.54
404.70	1954.35
404.89	1891.15
405.09	1942.64
405.28	2040.95
405.47	1987.11
405.66	2001.16
405.85	1998.82
406.05	2005.84
406.24	2087.76
406.43	2036.27
406.62	2115.84
406.81	2176.70
407.00	2078.40
407.20	2073.71
407.39	2066.69
407.58	2223.51
407.77	2209.47
407.96	2167.34
408.15	2342.88
408.34	2382.67
408.54	2235.21
408.73	2338.20
408.92	2387.35
409.11	2375.64
409.30	2270.32
409.49	2352.24
409.68	2291.38
409.87	2338.20
410.07	2401.39
410.26	2469.27
410.45	2462.24
410.64	2417.77
410.83	2541.82
411.02	2548.84
411.21	2492.67
411.40	2558.21
411.59	2614.38
411.78	2642.46
411.98	2647.15
412.17	2810.98
412.36	2579.27
412.55	2689.28
412.74	2743.11
412.93	2789.92
413.12	2656.51
413.31	3023.97
413.50	2881.20
413.69	2944.39
413.88	3005.25
414.07	2956.10
414.26	2892.90
414.45	3012.27
414.64	3033.33
414.83	3054.40
415.02	3047.38
415.22	3082.49
415.41	3201.85
415.60	3185.47
415.79	3098.87
415.98	3229.94
416.17	3241.64
416.36	3234.62
416.55	3283.77
416.74	3314.20
416.93	3267.39
417.12	3403.14
417.31	3346.97
417.50	3358.67
417.69	3496.76
417.88	3513.14
418.07	3330.58
418.26	3522.51
418.45	3524.85
418.64	3611.45
418.83	3548.25
419.02	3599.74
419.21	3735.50
419.39	3604.42
419.58	3709.75
419.77	3592.72
419.96	3719.11
420.15	3707.41
420.34	3808.05
420.53	3819.75
420.72	3936.78
420.91	3880.61
421.10	3892.31
421.29	3887.63
421.48	3794.01
421.67	3974.23
421.86	3798.69
422.05	3882.95
422.24	3737.84
422.43	3840.82
422.61	3885.29
422.80	3964.87
422.99	3983.59
423.18	3978.91
423.37	4147.43
423.56	4051.47
423.75	3934.44
423.94	3950.82
424.13	3684.00
424.32	3861.88
424.50	3885.29
424.69	3950.82
424.88	3962.53
425.07	4002.32
425.26	3791.67
425.45	3950.82
425.64	3861.88
425.83	4018.70
426.01	4161.47
426.20	4044.45
426.39	4030.40
426.58	3981.25
426.77	3929.76
426.96	4042.11
427.15	3913.38
427.33	4114.66
427.52	4058.49
427.71	4388.50
427.90	4290.20
428.09	4215.30
428.28	4367.44
428.46	4168.49
428.65	4227.01
428.84	4227.01
429.03	4322.97
429.22	4145.09
429.40	4191.90
429.59	4131.05
429.78	3896.99
429.97	4002.32
430.16	4067.85
430.34	4170.83
430.53	4138.07
430.72	4287.86
430.91	4322.97
431.10	4386.16
431.28	4582.77
431.47	4753.63
431.66	4727.88
431.85	4685.75
432.03	4643.62
432.22	4596.81
432.41	4741.93
432.60	4800.44
432.79	4718.52
432.97	4954.91
433.16	4814.48
433.35	4716.18
433.54	4695.11
433.72	4716.18
433.91	4734.90
434.10	4863.63
434.28	4945.55
434.47	5048.54
434.66	5027.47
434.85	4922.15
435.03	4999.38
435.22	5018.11
435.41	5081.30
435.59	5100.03
435.78	5207.69
435.97	5191.31
436.16	5186.63
436.34	5156.20
436.53	5296.63
436.72	5320.04
436.90	4994.70
437.09	5188.97
437.28	4926.83
437.46	5125.77
437.65	5027.47
437.84	5394.93
438.02	5160.88
438.21	5289.61
438.40	5252.16
438.58	5416.00
438.77	5432.38
438.96	5455.79
439.14	5497.92
439.33	5600.90
439.52	5654.73
439.70	5483.88
439.89	5750.70
440.08	5762.40
440.26	5942.62
440.45	5755.38
440.63	5816.23
440.82	6017.52
441.01	5982.41
441.19	5991.77
441.38	6139.23
441.57	6256.25
441.75	6342.85
441.94	6291.36
442.12	6272.64
442.31	6141.57
442.50	6448.18
442.68	6340.51
442.87	6169.65
443.05	6415.41
443.24	6349.87
443.43	6466.90
443.61	6527.75
443.80	6593.29
443.98	6464.56
444.17	6291.36
444.35	6600.31
444.54	6766.49
444.73	6719.68
444.91	6462.22
445.10	6553.50
445.28	6436.47
445.47	6431.79
445.65	6569.88
445.84	6579.25
446.02	6588.61
446.21	6614.35
446.39	6780.53
446.58	6726.70
446.77	6773.51
446.95	6801.60
447.14	6712.66
447.32	6911.60
447.51	6628.40
447.69	6654.14
447.88	6855.43
448.06	6815.64
448.25	6719.68
448.43	6848.41
448.62	6839.05
448.80	6806.28
448.99	6920.96
449.17	6930.33
449.36	6911.60
449.54	7056.72
449.73	7117.57
449.91	7403.11
450.10	7129.27
450.28	7344.60
450.46	7185.44
450.65	7311.83
450.83	7094.16
451.02	7332.90
451.20	7225.23
451.39	7293.11
451.57	7295.45
451.76	7208.85
451.94	7234.60
452.13	7499.08
452.31	7346.94
452.49	7194.81
452.68	7321.20
452.86	7206.51
453.05	7309.49
453.23	7353.96
453.42	7204.17
453.60	7480.35
453.78	7618.44
453.97	7396.09
454.15	7454.61
454.34	7372.69
454.52	7744.83
454.70	7758.88
454.89	7693.34
455.07	7691.00
455.26	7597.38
455.44	7927.39
455.62	7698.02
455.81	7817.39
455.99	7824.41
456.17	7803.35
456.36	7995.27
456.54	8077.19
456.73	8198.90
456.91	8226.98
457.09	8259.75
457.28	8430.61
457.46	8091.23
457.64	8269.11
457.83	8086.55
458.01	8091.23
458.19	8203.58
458.38	8079.53
458.56	8404.86
458.74	8145.06
458.93	8152.09
459.11	8458.70
459.29	8416.57
459.48	8439.97
459.66	8344.01
459.84	8519.55
460.03	8547.64
460.21	8549.98
460.39	8699.77
460.57	8758.28
460.76	8627.21
460.94	8575.72
461.12	8821.48
461.31	8940.85
461.49	8681.05
461.67	8723.18
461.85	9043.83
462.04	8858.93
462.22	9432.36
462.40	8936.17
462.59	9004.04
462.77	9172.56
462.95	9057.87
463.13	9174.90
463.32	9076.60
463.50	9046.17
463.68	9151.49
463.86	9114.05
464.05	9032.13
464.23	8905.74
464.41	9188.94
464.59	8940.85
464.78	9238.09
464.96	9289.59
465.14	9156.18
465.32	9221.71
465.50	9341.08
465.69	9420.66
465.87	9401.93
466.05	9390.23
466.23	9373.85
466.41	9266.18
466.60	9490.87
466.78	9263.84
466.96	9476.83
467.14	9430.02
467.32	9635.99
467.51	9720.24
467.69	9366.82
467.87	9551.73
468.05	9460.45
468.23	9497.89
468.41	9411.29
468.60	9504.92
468.78	9785.78
468.96	9680.46
469.14	9734.29
469.32	10097.07
469.50	9392.57
469.69	9729.61
469.87	9792.80
470.05	9958.98
470.23	10033.88
470.41	9870.04
470.59	9958.98
470.77	10087.71
470.95	10066.64
471.14	10319.42
471.32	10141.54
471.50	10473.90
471.68	10310.06
471.86	10333.47
472.04	10480.92
472.22	10516.03
472.40	10417.72
472.58	10616.67
472.77	10520.71
472.95	10726.68
473.13	10963.07
473.31	10754.76
473.49	10712.63
473.67	10616.67
473.85	10815.62
474.03	10939.66
474.21	11012.22
474.39	11080.10
474.57	11143.29
474.75	11080.10
474.93	11396.07
475.12	11257.98
475.30	11442.88
475.48	11314.15
475.66	11187.76
475.84	11405.43
476.02	11573.95
476.20	11246.27
476.38	11868.86
476.56	12039.72
476.74	11742.47
476.92	12016.31
477.10	11983.54
477.28	12226.96
477.46	12081.85
477.64	12390.80
477.82	12676.34
478.00	12828.48
478.18	12671.66
478.36	12704.43
478.54	12989.97
478.72	12793.37
478.90	13121.04
479.08	13186.58
479.26	13525.96
479.44	13207.64
479.62	13151.47
479.80	13448.72
479.98	13404.25
480.16	13795.12
480.34	14008.11
480.52	13977.68
480.70	13731.92
480.88	13715.54
481.06	14026.83
481.24	14244.50
481.41	14253.86
481.59	14382.59
481.77	14520.68
481.95	14480.89
482.13	14846.02
482.31	14824.95
482.49	15248.59
482.67	15117.52
482.85	15365.62
483.03	15211.14
483.21	15426.47
483.39	15662.86
483.57	15506.05
483.74	15609.03
483.92	15758.83
484.10	15688.61
484.28	16278.43
484.46	16264.38
484.64	16430.56
484.82	16358.00
485.00	16393.11
485.18	16924.41
485.35	16711.42
485.53	16198.85
485.71	16339.28
485.89	16723.13
486.07	16758.24
486.25	16877.60
486.43	17277.83
486.61	17221.66
486.78	17355.07
486.96	17692.11
487.14	17926.16
487.32	17930.84
487.50	18155.54
487.68	18281.92
487.85	18541.72
488.03	18754.71
488.21	18588.53
488.39	18831.95
488.57	18782.80
488.75	18724.29
488.92	19377.30
489.10	19651.14
489.28	19557.52
489.46	19761.14
489.64	19676.88
489.81	20004.56
489.99	20463.30
490.17	20428.20
490.35	20596.71
490.53	20655.23
490.70	20683.31
490.88	20680.97
491.06	21097.59
491.24	21163.12
491.41	21057.80
491.59	21532.93
491.77	21104.61
491.95	21528.25
492.13	21507.18
492.30	21759.96
492.48	21891.03
492.66	21975.29
492.84	22031.46
493.01	22293.60
493.19	22232.75
493.37	22562.76
493.54	22616.60
493.72	22881.08
493.90	22888.10
494.08	23124.49
494.25	23297.69
494.43	23639.41
494.61	23461.53
494.79	23775.16
494.96	23393.65
495.14	23843.04
495.32	23651.11
495.49	24247.95
495.67	23903.89
495.85	24313.48
496.02	24554.56
496.20	24451.58
496.38	24732.44
496.55	24877.55
496.73	25142.03
496.91	24966.49
497.09	25465.03
497.26	25338.64
497.44	25408.86
497.62	25656.95
497.79	25720.15
497.97	25390.13
498.14	25626.53
498.32	25607.80
498.50	26052.50
498.67	26305.28
498.85	26328.69
499.03	26604.87
499.20	26370.82
499.38	26607.21
499.56	26438.69
499.73	26939.57
499.91	26787.43
500.08	27175.96
500.26	26560.40
500.44	27098.72
500.61	27009.78
500.79	27063.61
500.97	27414.69
501.14	27615.98
501.32	27580.87
501.49	27412.35
501.67	27761.09
501.84	27941.32
502.02	27459.16
502.20	27946.00
502.37	27992.81
502.55	28290.06
502.72	28463.25
502.90	28470.28
503.07	28596.67
503.25	28390.70
503.43	28198.77
503.60	28521.77
503.78	28657.52
503.95	28856.46
504.13	28973.49
504.30	29350.32
504.48	28905.62
504.65	29259.04
504.83	29493.09
505.01	29509.47
505.18	28987.53
505.36	29853.53
505.53	29834.81
505.71	30267.81
505.88	30188.23
506.06	29923.75
506.23	29865.24
506.41	29731.83
506.58	30342.70
506.76	30096.95
506.93	30649.32
507.11	30384.83
507.28	30471.43
507.46	30316.96
507.63	30934.86
507.81	30480.80
507.98	30368.45
508.16	31225.09
508.33	31307.01
508.50	31072.95
508.68	31360.84
508.85	31592.55
509.03	31215.72
509.20	31611.28
509.38	31934.27
509.55	31480.21
509.73	32135.56
509.90	32219.81
510.08	31615.96
510.25	31903.84
510.42	32287.69
510.60	32191.73
510.77	31985.76
510.95	32325.14
511.12	31995.12
511.30	32393.01
511.47	32847.08
511.64	32959.42
511.82	33064.75
511.99	32638.77
512.17	32753.46
512.34	32828.35
512.51	32992.19
512.69	33010.92
512.86	33256.67
513.04	33350.29
513.21	33149.01
513.38	33394.76
513.56	33628.82
513.73	33296.46
513.90	33376.04
514.08	33261.35
514.25	33340.93
514.43	33338.59
514.60	33858.19
514.77	33387.74
514.95	33848.83
515.12	34141.39
515.29	34155.44
515.47	34146.08
515.64	34522.90
515.81	34284.17
515.99	34260.76
516.16	33783.29
516.33	33593.71
516.51	33841.81
516.68	33762.23
516.85	33764.57
517.03	34366.09
517.20	34319.28
517.37	34457.37
517.54	34944.20
517.72	34644.61
517.89	34785.04
518.06	34939.52
518.24	34941.86
518.41	34665.67
518.58	35047.18
518.75	34998.03
518.93	35534.01
519.10	35091.65
519.27	35459.12
519.45	35854.67
519.62	35842.96
519.79	35882.75
519.96	35725.94
520.14	35959.99
520.31	35311.66
520.48	35957.65
520.65	36013.82
520.83	36472.57
521.00	36315.75
521.17	36142.55
521.34	36713.64
521.52	36229.15
521.69	36584.91
521.86	36802.58
522.03	36720.66
522.20	36622.36
522.38	36582.57
522.55	36903.23
522.72	36982.80
522.89	36975.78
523.07	37251.97
523.24	37069.40
523.41	37179.41
523.58	37359.63
523.75	37691.99
523.92	37837.10
524.10	37745.82
524.27	37907.32
524.44	37923.70
524.61	37280.05
524.78	38293.50
524.96	38642.24
525.13	37663.90
525.30	38384.79
525.47	37940.08
525.64	38251.38
525.81	37907.32
525.98	38675.01
526.16	37696.67
526.33	37507.08
526.50	38061.79
526.67	37975.19
526.84	37851.14
527.01	38277.12
527.18	38408.19
527.36	39012.05
527.53	38511.17
527.70	39105.67
527.87	39473.13
528.04	38969.92
528.21	39077.58
528.38	38700.76
528.55	39468.45
528.72	39487.18
528.89	39356.11
529.07	39597.18
529.24	39353.77
529.41	39545.69
529.58	39545.69
529.75	39466.11
529.92	39688.46
530.09	39583.14
530.26	40062.95
530.43	40128.48
530.60	39803.15
530.77	39784.43
530.94	40353.18
531.11	39683.78
531.28	39779.74
531.46	40439.78
531.63	40163.59
531.80	39997.41
531.97	39899.11
532.14	40189.34
532.31	39515.26
532.48	39901.45
532.65	39955.29
532.82	40278.28
532.99	40163.59
533.16	40067.63
533.33	40444.46
533.50	40978.10
533.67	40531.06
533.84	40360.20
534.01	40603.61
534.18	40507.65
534.35	41308.11
534.52	40774.47
534.69	41230.88
534.86	40891.50
535.03	40830.65
535.20	41223.86
535.37	41170.02
535.54	41383.01
535.71	41010.87
535.88	41462.59
536.05	40999.16
536.22	41453.23
536.38	41317.48
536.55	41368.97
536.72	41151.30
536.89	40975.76
537.06	41584.30
537.23	41869.84
537.40	41439.18
537.57	41862.82
537.74	41722.39
537.91	42075.81
538.08	41631.11
538.25	41691.96
538.42	41783.24
538.59	42218.58
538.75	41926.02
538.92	41563.23
539.09	42389.44
539.26	41706.01
539.43	41825.37
539.60	42066.45
539.77	42398.80
539.94	42356.67
540.11	41780.90
540.28	41862.82
540.44	41743.45
540.61	42033.68
540.78	42131.98
540.95	42146.03
541.12	42424.55
541.29	42127.30
541.46	42176.45
541.62	42642.22
541.79	43033.09
541.96	41827.71
542.13	42689.03
542.30	42843.51
542.47	42429.23
542.63	42515.83
542.80	42433.91
542.97	43110.33
543.14	43489.49
543.31	43187.56
543.48	43072.88
543.64	43981.01
543.81	43817.17
543.98	43147.78
544.15	43590.14
544.32	43966.96
544.48	43639.29
544.65	43346.72
544.82	43681.42
544.99	43477.79
545.16	43665.03
545.32	43597.16
545.49	43763.34
545.66	43948.24
545.83	43662.69
546.00	43971.64
546.16	43838.23
546.33	43421.62
546.50	43346.72
546.67	43543.33
546.83	43641.63
547.00	43433.32
547.17	43793.76
547.34	43983.35
547.50	43983.35
547.67	44147.18
547.84	43660.35
548.00	44151.87
548.17	44231.44
548.34	43992.71
548.51	44261.87
548.67	44641.04
548.84	44343.79
549.01	44334.43
549.18	44011.43
549.34	44367.20
549.51	44584.86
549.68	45034.25
549.84	44577.84
550.01	44500.61
550.18	44416.35
550.34	44332.09
550.51	44561.46
550.68	44575.50
550.84	44294.64
551.01	44676.15
551.18	44673.81
551.34	44547.42
551.51	44905.52
551.68	44666.78
551.84	45001.48
552.01	44713.59
552.18	45258.94
552.34	44444.43
552.51	44371.88
552.68	44818.92
552.84	44795.51
553.01	45460.23
553.18	45230.85
553.34	44868.07
553.51	44610.61
553.67	45296.39
553.84	45425.12
554.01	45160.64
554.17	45897.91
554.34	45797.26
554.51	45207.45
554.67	45523.42
554.84	45434.48
555.00	45170.00
555.17	45340.86
555.33	45642.79
555.50	45366.60
555.67	45418.10
555.83	45375.97
556.00	45832.37
556.16	45682.58
556.33	45610.02
556.50	45373.63
556.66	45703.64
556.83	45546.82
556.99	45911.95
557.16	45713.00
557.32	45865.14
557.49	45886.20
557.65	45598.32
557.82	45834.71
557.98	45455.54
558.15	45827.69
558.32	45853.44
558.48	45549.17
558.65	46019.61
558.81	45382.99
558.98	45588.95
559.14	45823.01
559.31	45755.13
559.47	45631.08
559.64	45940.04
559.80	46096.85
559.97	46302.82
560.13	45832.37
560.30	45844.07
560.46	45811.31
560.63	45867.48
560.79	46106.21
560.96	46085.15
561.12	46003.23
561.29	46148.34
561.45	46012.59
561.61	46146.00
561.78	46120.26
561.94	45844.07
562.11	46162.39
562.27	46099.19
562.44	45925.99
562.60	46380.06
562.77	46562.62
562.93	46066.42
563.10	46340.27
563.26	45855.78
563.42	46260.69
563.59	45944.72
563.75	46300.48
563.92	46478.36
564.08	46696.03
564.24	46401.12
564.41	46543.89
564.57	46267.71
564.74	46373.03
564.90	46553.26
565.07	46602.41
565.23	45902.59
565.39	46277.07
565.56	46419.84
565.72	46351.97
565.88	46476.02
566.05	46270.05
566.21	46080.47
566.38	46693.69
566.54	46550.91
566.70	46553.26
566.87	46841.14
567.03	46726.46
567.19	47077.54
567.36	46681.98
567.52	46307.50
567.68	46492.40
567.85	46450.27
568.01	46747.52
568.17	46197.49
568.34	46447.93
568.50	46466.66
568.66	46696.03
568.83	46562.62
568.99	46506.44
569.15	46506.44
569.32	46373.03
569.48	46391.76
569.64	46714.75
569.81	46766.24
569.97	46878.59
570.13	46817.74
570.30	46330.90
570.46	46630.49
570.62	45844.07
570.78	46583.68
570.95	46108.55
571.11	46904.34
571.27	46410.48
571.43	46674.96
571.60	46480.70
571.76	46401.12
571.92	46810.71
572.09	46291.12
572.25	46550.91
572.41	46576.66
572.57	46698.37
572.74	46859.87
572.90	46754.54
573.06	46719.43
573.22	46440.91
573.38	46951.15
573.55	46239.62
573.71	46864.55
573.87	46674.96
574.03	46525.17
574.20	46742.84
574.36	46883.27
574.52	46525.17
574.68	47096.26
574.84	46426.87
575.01	47199.24
575.17	47049.45
575.33	46209.20
575.49	46742.84
575.65	46735.82
575.82	47122.01
575.98	46756.88
576.14	46894.97
576.30	46738.16
576.46	46808.37
576.62	46630.49
576.79	46976.89
576.95	46784.97
577.11	46658.58
577.27	47098.60
577.43	46656.24
577.59	46581.34
577.75	46497.08
577.92	46354.31
578.08	46286.43
578.24	46398.78
578.40	46436.23
578.56	46515.81
578.72	46651.56
578.88	47222.65
579.04	46801.35
579.21	46520.49
579.37	46784.97
579.53	46843.48
579.69	46773.27
579.85	46871.57
580.01	46869.23
580.17	46913.70
580.33	47117.32
580.49	47292.86
580.65	46960.51
580.82	46927.74
580.98	46873.91
581.14	47093.92
581.30	46883.27
581.46	46712.41
581.62	47274.14
581.78	47061.15
581.94	47103.28
582.10	46962.85
582.26	47367.76
582.42	47260.10
582.58	47028.38
582.74	46948.81
582.90	46939.44
583.06	46707.73
583.22	47428.62
583.38	47131.37
583.54	47143.07
583.70	47178.18
583.86	46948.81
584.02	46916.04
584.18	46724.11
584.34	46817.74
584.50	47393.51
584.66	46799.01
584.82	46768.58
584.98	46859.87
585.14	46796.67
585.30	47082.22
585.46	47002.64
585.62	46408.14
585.78	46733.48
585.94	46380.06
586.10	46714.75
586.26	46574.32
586.42	46981.57
586.58	46864.55
586.74	47288.18
586.90	46490.06
587.06	46684.33
587.22	47007.32
587.38	46642.20
587.54	47372.44
587.70	47379.46
587.86	46738.16
588.02	46469.00
588.18	47047.11
588.34	46906.68
588.49	46777.95
588.65	46295.80
588.81	46466.66
588.97	46391.76
589.13	46452.61
589.29	46454.95
589.45	46415.16
589.61	46897.31
589.77	47381.80
589.93	46841.14
590.08	47208.61
590.24	46775.61
590.40	47508.19
590.56	47229.67
590.72	47210.95
590.88	46852.84
591.04	46696.03
591.20	47601.82
591.35	47070.51
591.51	47618.20
591.67	47126.69
591.83	47072.85
591.99	46735.82
592.15	47077.54
592.31	46948.81
592.46	47035.41
592.62	46885.61
592.78	47239.03
592.94	47278.82
593.10	46806.03
593.26	47154.77
593.41	47112.64
593.57	46932.42
593.73	47185.20
593.89	47152.43
594.05	46707.73
594.20	46918.38
594.36	47318.61
594.52	47077.54
594.68	46988.60
594.84	46995.62
594.99	47145.41
595.15	46969.87
595.31	47629.90
595.47	47019.02
595.62	47168.82
595.78	47194.56
595.94	47423.93
596.10	47192.22
596.25	47346.70
596.41	47264.78
596.57	47147.75
596.73	47035.41
596.88	47112.64
597.04	46960.51
597.20	47402.87
597.36	47227.33
597.51	47576.07
597.67	47157.11
597.83	47346.70
597.99	47196.90
598.14	47199.24
598.30	46927.74
598.46	46635.17
598.61	47224.99
598.77	47058.81
598.93	47274.14
599.09	47246.05
599.24	47243.71
599.40	47325.63
599.56	47365.42
599.71	47295.21
599.87	47618.20
600.03	47096.26
600.18	47012.00
600.34	47257.76
600.50	47306.91
600.65	47037.75
600.81	47367.76
600.97	47489.47
601.12	47756.29
601.28	47033.07
601.44	46951.15
601.59	47203.92
601.75	46930.08
601.91	47030.72
602.06	46981.57
602.22	47070.51
602.37	47246.05
602.53	46909.02
602.69	47409.89
602.84	47356.06
603.00	47178.18
603.16	47365.42
603.31	47065.83
603.47	46941.78
603.62	47435.64
603.78	47012.00
603.94	47136.05
604.09	47419.25
604.25	47374.78
604.40	46993.28
604.56	47159.45
604.71	47004.98
604.87	46967.53
605.03	46979.23
605.18	46635.17
605.34	47367.76
605.49	46794.33
605.65	47033.07
605.80	47152.43
605.96	47143.07
606.12	47192.22
606.27	47107.96
606.43	46824.76
606.58	47426.28
606.74	47051.79
606.89	46902.00
607.05	47051.79
607.20	47136.05
607.36	46988.60
607.51	46962.85
607.67	46672.62
607.82	46951.15
607.98	46719.43
608.13	46749.86
608.29	46799.01
608.44	46380.06
608.60	46501.76
608.75	46375.37
608.91	46110.89
609.06	46391.76
609.22	46834.12
609.37	46670.28
609.53	47093.92
609.68	46543.89
609.84	46464.32
609.99	47058.81
610.15	46761.56
610.30	46536.87
610.46	46167.07
610.61	46256.01
610.76	46759.22
610.92	46431.55
611.07	46461.97
611.23	46246.65
611.38	46536.87
611.54	46424.53
611.69	46110.89
611.84	46150.68
612.00	46389.42
612.15	46014.93
612.31	46520.49
612.46	46295.80
612.62	46326.22
612.77	46579.00
612.92	46787.31
613.08	45628.74
613.23	45951.74
613.39	46382.40
613.54	45677.90
613.69	46120.26
613.85	45881.52
614.00	46305.16
614.15	46527.51
614.31	45986.85
614.46	46021.95
614.62	46146.00
614.77	45794.92
614.92	46234.94
615.08	46061.74
615.23	46038.34
615.38	45954.08
615.54	46066.42
615.69	45661.51
615.84	45294.05
616.00	45619.38
616.15	45659.17
616.30	45862.80
616.46	45595.98
616.61	45024.89
616.76	45565.55
616.92	45282.34
617.07	45652.15
617.22	45247.24
617.37	45467.25
617.53	45661.51
617.68	45935.35
617.83	45434.48
617.99	45947.06
618.14	45975.14
618.29	45118.51
618.45	45343.20
618.60	45497.67
618.75	44952.33
618.90	45656.83
619.06	45270.64
619.21	45223.83
619.36	45523.42
619.51	45144.25
619.67	45331.50
619.82	45837.05
619.97	45462.57
620.12	44917.22
620.28	45123.19
620.43	45123.19
620.58	45006.16
620.73	45057.65
620.89	44910.20
621.04	44877.43
621.19	44891.48
621.34	45017.86
621.49	44999.14
621.65	44779.13
621.80	45102.12
621.95	45024.89
622.10	44650.40
622.25	44987.44
622.41	45010.84
622.56	44540.39
622.71	44493.58
622.86	44641.04
623.01	44533.37
623.16	44914.88
623.32	45198.09
623.47	44987.44
623.62	44669.12
623.77	44355.49
623.92	44542.74
624.07	44140.16
624.23	44322.72
624.38	44353.15
624.53	43931.86
624.68	44795.51
624.83	44512.31
624.98	44339.11
625.13	44116.76
625.29	44165.91
625.44	44016.11
625.59	44163.57
625.74	43819.51
625.89	43770.36
626.04	43606.52
626.19	43988.03
626.34	44041.86
626.49	43569.07
626.65	44252.51
626.80	44016.11
626.95	43524.60
627.10	43618.22
627.25	43723.55
627.40	43414.60
627.55	43831.21
627.70	43189.91
627.85	43414.60
628.00	43763.34
628.15	44009.09
628.30	43126.71
628.45	43533.96
628.60	43225.01
628.76	43536.30
628.91	43536.30
629.06	43583.12
629.21	43421.62
629.36	43217.99
629.51	43475.45
629.66	43246.08
629.81	43145.44
629.96	42904.36
630.11	43288.21
630.26	43297.57
630.41	43096.28
630.56	42923.08
630.71	43370.13
630.86	43423.96
631.01	43084.58
631.16	43264.80
631.31	42902.02
631.46	42899.68
631.61	42728.82
631.76	43150.12
631.91	43445.02
632.06	42892.66
632.21	42794.36
632.36	43438.00
632.51	43213.31
632.66	42679.67
632.81	43058.84
632.96	42770.95
633.10	42469.02
633.25	42389.44
633.40	42679.67
633.55	42754.57
633.70	42710.10
633.85	42721.80
634.00	42913.72
634.15	42256.03
634.30	42527.53
634.45	42335.61
634.60	42497.11
634.75	42529.87
634.90	42808.40
635.05	42525.19
635.19	42185.82
635.34	42948.83
635.49	42391.78
635.64	42003.25
635.79	42211.56
635.94	42469.02
636.09	42288.80
636.24	42195.18
636.39	42270.08
636.53	41904.95
636.68	42230.29
636.83	41921.34
636.98	42061.77
637.13	41588.98
637.28	42239.65
637.43	42359.02
637.57	42344.97
637.72	42333.27
637.87	41897.93
638.02	41799.63
638.17	42225.60
638.32	41787.92
638.46	41284.71
638.61	41797.29
638.76	41242.58
638.91	41549.19
639.06	41638.13
639.20	41591.32
639.35	42078.15
639.50	41301.09
639.65	42057.09
639.80	41823.03
639.94	41453.23
640.09	41380.67
640.24	41170.02
640.39	41446.21
640.54	41076.40
640.68	41350.24
640.83	41010.87
640.98	40893.84
641.13	41354.93
641.27	41844.10
641.42	41572.60
641.57	41375.99
641.72	41191.09
641.86	40989.80
642.01	41310.46
642.16	40865.75
642.31	40783.83
642.45	41324.50
642.60	40432.75
642.75	40786.18
642.90	40863.41
643.04	41095.13
643.19	40697.24
643.34	41476.63
643.48	40652.76
643.63	41057.68
643.78	40893.84
643.93	40643.40
644.07	40718.30
644.22	40690.21
644.37	40292.32
644.51	40531.06
644.66	40545.10
644.81	40919.59
644.95	40980.44
645.10	40699.58
645.25	41055.34
645.39	40975.76
645.54	40671.49
645.69	40444.46
645.83	40617.66
645.98	40669.15
646.13	40994.48
646.27	40781.49
646.42	39761.02
646.57	40360.20
646.71	39676.76
646.86	40453.82
647.00	40161.25
647.15	40257.21
647.30	40348.50
647.44	40069.97
647.59	39793.79
647.74	39854.64
647.88	39955.29
648.03	39882.73
648.17	39906.13
648.32	39746.98
648.47	40100.40
648.61	39770.38
648.76	40402.33
648.90	39864.00
649.05	39903.79
649.20	40095.72
649.34	40154.23
649.49	39761.02
649.63	39632.29
649.78	40013.80
649.92	39725.91
650.07	40144.87
650.21	39353.77
650.36	39985.71
650.51	39391.22
650.65	40205.72
650.80	39709.53
650.94	39922.52
651.09	39728.25
651.23	39723.57
651.38	39342.06
651.52	39271.85
651.67	39171.21
651.81	39665.06
651.96	38885.66
652.10	39365.47
652.25	39150.14
652.39	39365.47
652.54	39234.40
652.68	39461.43
652.83	39241.42
652.97	39463.77
653.12	39222.70
653.26	39538.67
653.41	39182.91
653.55	38995.67
653.70	39133.76
653.84	38920.77
653.99	39112.69
654.13	39157.16
654.27	39152.48
654.42	39281.21
654.56	39182.91
654.71	39014.39
654.85	39054.18
655.00	38782.68
655.14	39061.20
655.29	38270.10
655.43	38328.61
655.57	38490.11
655.72	38110.94
655.86	38452.66
656.01	38244.35
656.15	37809.01
656.30	38124.99
656.44	37727.10
656.58	37895.61
656.73	38087.54
656.87	37858.17
657.01	37895.61
657.16	38384.79
657.30	38003.28
657.45	37673.26
657.59	38096.90
657.73	38209.25
657.88	38181.16
658.02	38078.18
658.16	38010.30
658.31	38258.40
658.45	37919.02
658.60	38092.22
658.74	38089.88
658.88	38352.02
659.03	37696.67
659.17	37284.73
659.31	37701.35
659.46	37865.19
659.60	37869.87
659.74	37326.86
659.89	37193.45
660.03	37785.61
660.17	38096.90
660.32	37792.63
660.46	37907.32
660.60	37638.15
660.74	37366.65
660.89	37359.63
661.03	36751.09
661.17	37298.78
661.32	36828.33
661.46	37188.77
661.60	37127.92
661.74	36514.70
661.89	36802.58
662.03	37298.78
662.17	36795.56
662.31	36715.98
662.46	37200.47
662.60	36526.40
662.74	36954.72
662.88	36879.82
663.03	36704.28
663.17	36503.00
663.31	36610.66
663.45	36816.63
663.60	36746.41
663.74	36404.69
663.88	36238.51
664.02	36065.31
664.17	36222.13
664.31	35819.56
664.45	35927.22
664.59	36041.91
664.73	35793.81
664.88	36250.22
665.02	35955.31
665.16	36009.14
665.30	35445.07
665.44	35978.72
665.59	35405.28
665.73	35576.14
665.87	35412.31
666.01	35442.73
666.15	35344.43
666.29	35938.93
666.44	35634.66
666.58	35377.20
666.72	35192.30
666.86	35658.06
667.00	35482.52
667.14	35019.10
667.28	35133.78
667.43	34979.31
667.57	35227.40
667.71	35089.31
667.85	35225.06
667.99	34768.66
668.13	34885.68
668.27	34759.30
668.41	34677.38
668.56	34497.16
668.70	34548.65
668.84	34199.91
668.98	34099.26
669.12	34742.91
669.26	34796.74
669.40	34132.03
669.54	34361.40
669.68	34665.67
669.82	34213.95
669.96	34129.69
670.10	33574.98
670.25	33832.44
670.39	34181.18
670.53	33804.36
670.67	33795.00
670.81	34150.76
670.95	34003.30
671.09	33942.45
671.23	33633.50
671.37	33769.25
671.51	33331.57
671.65	33352.63
671.79	33319.87
671.93	33518.81
672.07	33432.21
672.21	33352.63
672.35	32725.37
672.49	33294.12
672.63	33362.00
672.77	32842.40
672.91	32809.63
673.05	33254.33
673.19	32835.38
673.33	32634.09
673.47	32598.98
673.61	32718.35
673.75	32311.10
673.89	32018.53
674.03	32039.59
674.17	31936.61
674.31	31732.98
674.45	31658.09
674.59	31908.52
674.73	31878.10
674.87	31906.18
675.01	31910.86
675.15	32060.66
675.29	31531.70
675.43	32018.53
675.56	31702.56
675.70	31452.12
675.84	31335.09
675.98	30480.80
676.12	31180.62
676.26	31126.78
676.40	30930.18
676.54	31079.97
676.68	30602.50
676.82	30129.72
676.96	30773.36
677.10	30176.53
677.23	30300.58
677.37	30572.08
677.51	30319.30
677.65	30183.55
677.79	30202.27
677.93	29773.95
678.07	30389.52
678.21	29710.76
678.34	29696.72
678.48	29666.29
678.62	29448.62
678.76	29553.94
678.90	29558.63
679.04	29230.95
679.18	29685.01
679.31	29280.10
679.45	29029.66
679.59	28980.51
679.73	28966.47
679.87	29008.60
680.00	29034.35
680.14	28570.92
680.28	28512.41
680.42	27936.63
680.56	28510.07
680.70	28222.18
680.83	28364.95
680.97	28077.07
681.11	28056.00
681.25	28034.94
681.39	27828.97
681.52	27927.27
681.66	27828.97
681.80	27662.79
681.94	27419.38
682.07	27477.89
682.21	27087.02
682.35	27133.83
682.49	27070.64
682.62	27054.25
682.76	26494.86
682.90	26927.86
683.04	26871.69
683.17	26590.83
683.31	26426.99
683.45	26593.17
683.59	26478.48
683.72	26171.87
683.86	25902.71
684.00	26071.23
684.13	26422.31
684.27	26113.36
684.41	25781.00
684.55	25675.68
684.68	25694.40
684.82	25340.98
684.96	25830.15
685.09	25516.52
685.23	25256.72
685.37	25439.28
685.50	25317.57
685.64	25184.16
685.78	24718.40
685.91	25149.06
686.05	24807.34
686.19	24702.01
686.32	24851.81
686.46	24243.27
686.60	23978.79
686.73	23726.01
686.87	23688.56
687.01	23569.19
687.14	23742.39
687.28	23365.57
687.42	23854.74
687.55	23587.92
687.69	23545.79
687.82	23267.27
687.96	23913.25
688.10	23342.16
688.23	23278.97
688.37	23089.38
688.50	23080.02
688.64	23037.89
688.78	22672.77
688.91	22813.20
689.05	22642.34
689.18	22581.49
689.32	22160.19
689.46	22256.15
689.59	22714.90
689.73	22745.33
689.86	22263.18
690.00	21996.35
690.13	22150.83
690.27	22326.37
690.41	21869.97
690.54	21771.66
690.68	21598.46
690.81	22146.15
690.95	21682.72
691.08	21909.75
691.22	21509.52
691.35	21584.42
691.49	21528.25
691.62	21530.59
691.76	21392.50
691.89	21441.65
692.03	21090.57
692.16	20964.18
692.30	20805.02
692.43	20779.28
692.57	20627.14
692.70	20823.75
692.84	20713.74
692.97	20563.95
693.11	20489.05
693.24	20006.90
693.38	19981.15
693.51	20088.82
693.65	20231.59
693.78	20105.20
693.92	19660.50
694.05	19995.20
694.19	19616.03
694.32	19936.68
694.45	19751.78
694.59	19674.54
694.72	19269.63
694.86	19311.76
694.99	19084.73
695.13	18948.98
695.26	18923.23
695.39	18932.59
695.53	18958.34
695.66	18829.61
695.80	18974.72
695.93	18611.94
696.07	18466.83
696.20	18555.77
696.33	18625.98
696.47	18523.00
696.60	18604.92
696.73	18410.65
696.87	18302.99
697.00	18265.54
697.14	18169.58
697.27	17909.78
697.40	18225.75
697.54	17982.34
697.67	17783.39
697.80	17942.55
697.94	17872.33
698.07	17951.91
698.21	17575.08
698.34	17539.97
698.47	17689.77
698.61	17153.79
698.74	17165.49
698.87	17275.49
699.01	17142.08
699.14	16570.99
699.27	16975.91
699.40	16847.18
699.54	16870.58
699.67	16578.01
699.80	16542.91
699.94	16699.72
700.07	16458.65
700.20	16180.12
700.34	16173.10
700.47	16194.17
700.60	16404.81
700.73	16367.37
700.87	15796.28
701.00	15843.09
701.13	15913.30
701.26	15892.24
701.40	15969.48
701.53	15728.40
701.66	15751.81
701.79	15758.83
701.93	15594.99
702.06	15328.17
702.19	15452.22
702.32	15176.03
702.46	15379.66
702.59	15218.16
702.72	15426.47
702.85	15166.67
702.99	15143.27
703.12	15323.49
703.25	14974.75
703.38	14995.81
703.51	14930.28
703.65	14850.70
703.78	14759.42
703.91	14644.73
704.04	14623.67
704.17	14607.28
704.31	14230.46
704.44	14319.40
704.57	14087.68
704.70	13877.04
704.83	13994.06
704.96	13914.48
705.10	14157.90
705.23	14303.01
>>>>>End Processed Spectral Data<<<<<
