SpectraSuite Data File
++++++++++++++++++++++++++++++++++++
Date: Fri Oct 25 10:47:56 EDT 2013
User: price-jones
Dark Spectrum Present: No
Reference Spectrum Present: No
Number of Sampled Component Spectra: 1
Spectrometers: USB2+H05261
Integration Time (usec): 100000 (USB2+H05261)
Spectra Averaged: 1 (USB2+H05261)
Boxcar Smoothing: 0 (USB2+H05261)
Correct for Electrical Dark: No (USB2+H05261)
Strobe/Lamp Enabled: No (USB2+H05261)
Correct for Detector Non-linearity: No (USB2+H05261)
Correct for Stray Light: No (USB2+H05261)
Number of Pixels in Processed Spectrum: 2048
>>>>>Begin Processed Spectral Data<<<<<
365.73	175.54
365.92	175.54
366.12	175.54
366.32	84.26
366.52	65.54
366.72	93.62
366.91	74.90
367.11	70.22
367.31	23.41
367.51	49.15
367.70	28.09
367.90	30.43
368.10	44.47
368.30	63.19
368.49	105.32
368.69	56.17
368.89	25.75
369.09	37.45
369.28	65.54
369.48	14.04
369.68	95.96
369.87	100.64
370.07	117.03
370.27	166.18
370.47	231.71
370.66	346.40
370.86	461.09
371.06	327.68
371.25	456.40
371.45	418.96
371.65	482.15
371.84	528.96
372.04	433.00
372.24	411.93
372.44	428.32
372.63	456.40
372.83	496.19
373.03	470.45
373.22	435.34
373.42	564.07
373.62	500.87
373.81	543.00
374.01	601.52
374.21	538.32
374.40	517.26
374.60	585.13
374.79	465.77
374.99	526.62
375.19	610.88
375.38	568.75
375.58	514.92
375.78	585.13
375.97	641.31
376.17	561.73
376.37	543.00
376.56	596.84
376.76	587.47
376.95	587.47
377.15	622.58
377.35	533.64
377.54	655.35
377.74	610.88
377.93	622.58
378.13	660.03
378.33	645.99
378.52	645.99
378.72	634.29
378.91	648.33
379.11	606.20
379.31	575.77
379.50	657.69
379.70	641.31
379.89	669.39
380.09	671.73
380.28	676.41
380.48	681.10
380.68	613.22
380.87	650.67
381.07	706.84
381.26	674.07
381.46	641.31
381.65	631.94
381.85	746.63
382.04	709.18
382.24	592.16
382.43	727.91
382.63	730.25
382.83	709.18
383.02	678.76
383.22	699.82
383.41	676.41
383.61	791.10
383.80	746.63
384.00	718.54
384.19	704.50
384.39	765.36
384.58	777.06
384.78	709.18
384.97	704.50
385.17	692.80
385.36	828.55
385.56	858.98
385.75	767.70
385.95	814.51
386.14	772.38
386.34	751.31
386.53	814.51
386.72	739.61
386.92	772.38
387.11	835.57
387.31	880.04
387.50	842.59
387.70	748.97
387.89	842.59
388.09	826.21
388.28	929.19
388.48	856.64
388.67	866.00
388.86	880.04
389.06	851.96
389.25	866.00
389.45	823.87
389.64	880.04
389.84	901.11
390.03	912.81
390.22	896.43
390.42	968.98
390.61	938.55
390.81	905.79
391.00	957.28
391.19	1053.24
391.39	1032.18
391.58	978.34
391.78	992.39
391.97	861.32
392.16	985.37
392.36	997.07
392.55	940.90
392.75	912.81
392.94	922.17
393.13	940.90
393.33	875.36
393.52	954.94
393.71	1018.13
393.91	1069.62
394.10	1018.13
394.29	1053.24
394.49	1022.81
394.68	1114.10
394.88	1116.44
395.07	1214.74
395.26	1151.54
395.46	1118.78
395.65	1203.04
395.84	1109.41
396.04	1221.76
396.23	1097.71
396.42	1104.73
396.62	1170.27
396.81	1142.18
397.00	1121.12
397.19	1207.72
397.39	1219.42
397.58	1242.82
397.77	1214.74
397.97	1303.68
398.16	1256.87
398.35	1308.36
398.55	1270.91
398.74	1277.93
398.93	1327.08
399.12	1320.06
399.32	1406.66
399.51	1362.19
399.70	1416.02
399.90	1352.83
400.09	1301.34
400.28	1301.34
400.47	1406.66
400.67	1486.24
400.86	1502.62
401.05	1387.94
401.24	1453.47
401.44	1406.66
401.63	1474.54
401.82	1556.46
402.01	1526.03
402.21	1397.30
402.40	1511.99
402.59	1657.10
402.78	1537.73
402.97	1493.26
403.17	1591.56
403.36	1554.12
403.55	1593.90
403.74	1678.16
403.93	1593.90
404.13	1724.97
404.32	1650.08
404.51	1643.06
404.70	1748.38
404.89	1547.09
405.09	1713.27
405.28	1666.46
405.47	1727.32
405.66	1715.61
405.85	1748.38
406.05	1825.62
406.24	1804.55
406.43	1755.40
406.62	1914.56
406.81	1877.11
407.00	1685.19
407.20	1741.36
407.39	1825.62
407.58	1891.15
407.77	2036.27
407.96	1856.04
408.15	1926.26
408.34	2001.16
408.54	2019.88
408.73	1947.33
408.92	2036.27
409.11	2045.63
409.30	1970.73
409.49	1961.37
409.68	1998.82
409.87	1952.01
410.07	2115.84
410.26	2125.21
410.45	2139.25
410.64	2106.48
410.83	2202.44
411.02	2153.29
411.21	2246.91
411.40	2279.68
411.59	2436.50
411.78	2284.36
411.98	2420.11
412.17	2319.47
412.36	2401.39
412.55	2345.22
412.74	2354.58
412.93	2455.22
413.12	2389.69
413.31	2504.37
413.50	2492.67
413.69	2455.22
413.88	2513.74
414.07	2567.57
414.26	2537.14
414.45	2499.69
414.64	2644.81
414.83	2675.23
415.02	2677.57
415.22	2864.82
415.41	2794.60
415.60	2747.79
415.79	2724.38
415.98	2869.50
416.17	2935.03
416.36	2869.50
416.55	2916.31
416.74	2855.45
416.93	2949.08
417.12	3045.04
417.31	2928.01
417.50	3045.04
417.69	3110.57
417.88	3014.61
418.07	3052.06
418.26	2993.55
418.45	3105.89
418.64	3297.81
418.83	3344.63
419.02	3028.65
419.21	3101.21
419.39	3225.26
419.58	3098.87
419.77	3110.57
419.96	3335.26
420.15	3300.16
420.34	3251.00
420.53	3279.09
420.72	3398.46
420.91	3272.07
421.10	3358.67
421.29	3379.73
421.48	3407.82
421.67	3426.54
421.86	3445.27
422.05	3382.07
422.24	3328.24
422.43	3384.41
422.61	3515.48
422.80	3501.44
422.99	3648.90
423.18	3552.93
423.37	3407.82
423.56	3611.45
423.75	3524.85
423.94	3424.20
424.13	3269.73
424.32	3417.18
424.50	3555.27
424.69	3648.90
424.88	3641.87
425.07	3576.34
425.26	3356.33
425.45	3508.46
425.64	3566.98
425.83	3463.99
426.01	3585.70
426.20	3569.32
426.39	3592.72
426.58	3485.06
426.77	3592.72
426.96	3592.72
427.15	3548.25
427.33	3737.84
427.52	3723.79
427.71	3611.45
427.90	3726.13
428.09	3693.37
428.28	3786.99
428.46	3875.93
428.65	3723.79
428.84	3868.91
429.03	3812.73
429.22	3763.58
429.40	3782.31
429.59	3791.67
429.78	3714.43
429.97	3496.76
430.16	3658.26
430.34	3929.76
430.53	3882.95
430.72	3861.88
430.91	3873.59
431.10	3932.10
431.28	3934.44
431.47	4231.69
431.66	4231.69
431.85	4028.06
432.03	4149.77
432.22	4229.35
432.41	4255.09
432.60	4269.14
432.79	4189.56
432.97	4346.37
433.16	4196.58
433.35	4194.24
433.54	4121.68
433.72	4287.86
433.91	4278.50
434.10	4353.40
434.28	4262.12
434.47	4393.19
434.66	4472.76
434.85	4381.48
435.03	4533.62
435.22	4407.23
435.41	4531.28
435.59	4533.62
435.78	4634.26
435.97	4746.61
436.16	4538.30
436.34	4730.22
436.53	4681.07
436.72	4669.37
436.90	4554.68
437.09	4545.32
437.28	4667.03
437.46	4606.17
437.65	4732.56
437.84	4823.84
438.02	4720.86
438.21	4833.21
438.40	4800.44
438.58	4830.87
438.77	5025.13
438.96	4851.93
439.14	4985.34
439.33	5053.22
439.52	5043.85
439.70	5146.84
439.89	5163.22
440.08	5132.79
440.26	5184.29
440.45	5240.46
440.63	5149.18
440.82	5357.49
441.01	5291.95
441.19	5392.59
441.38	5537.71
441.57	5383.23
441.75	5483.88
441.94	5617.29
442.12	5708.57
442.31	5654.73
442.50	5582.18
442.68	5605.58
442.87	5624.31
443.05	5706.23
443.24	5863.04
443.43	5720.27
443.61	5769.42
443.80	5879.43
443.98	5591.54
444.17	5558.77
444.35	5832.62
444.54	6017.52
444.73	5722.61
444.91	5881.77
445.10	5881.77
445.28	5760.06
445.47	5720.27
445.65	5916.87
445.84	5696.86
446.02	5944.96
446.21	6012.84
446.39	5834.96
446.58	5982.41
446.77	6221.14
446.95	5696.86
447.14	5994.11
447.32	6019.86
447.51	5942.62
447.69	5905.17
447.88	5998.79
448.06	6050.28
448.25	5968.37
448.43	6101.78
448.62	6120.50
448.80	5966.03
448.99	6258.59
449.17	6113.48
449.36	5781.12
449.54	6214.12
449.73	6338.17
449.91	6279.66
450.10	6282.00
450.28	6265.61
450.46	6394.34
450.65	6331.15
450.83	6410.73
451.02	6415.41
451.20	6431.79
451.39	6410.73
451.57	6403.71
451.76	6473.92
451.94	6490.31
452.13	6487.96
452.31	6457.54
452.49	6368.60
452.68	6452.86
452.86	6506.69
453.05	6593.29
453.23	6565.20
453.42	6586.27
453.60	6619.04
453.78	6801.60
453.97	6686.91
454.15	6485.62
454.34	6415.41
454.52	6729.04
454.70	6789.89
454.89	6761.81
455.07	6871.81
455.26	6864.79
455.44	6869.47
455.62	6810.96
455.81	6810.96
455.99	6911.60
456.17	6927.99
456.36	6986.50
456.54	7232.26
456.73	7007.56
456.91	7370.35
457.09	7356.30
457.28	7323.54
457.46	7166.72
457.64	7358.64
457.83	7272.04
458.01	7089.48
458.19	7164.38
458.38	7267.36
458.56	7384.39
458.74	7407.80
458.93	7386.73
459.11	7485.03
459.29	7419.50
459.48	7494.40
459.66	7623.12
459.84	7506.10
460.03	7857.18
460.21	7431.20
460.39	7461.63
460.57	7513.12
460.76	7772.92
460.94	7812.71
461.12	7758.88
461.31	7674.62
461.49	7868.88
461.67	7716.75
461.85	7854.84
462.04	7854.84
462.22	8365.07
462.40	8070.17
462.59	8030.38
462.77	7985.91
462.95	8079.53
463.13	8112.30
463.32	7981.23
463.50	7925.05
463.68	8121.66
463.86	8255.07
464.05	8011.65
464.23	7901.65
464.41	8016.33
464.59	8093.57
464.78	8231.66
464.96	8222.30
465.14	8147.40
465.32	8423.59
465.50	8383.80
465.69	8552.32
465.87	8454.02
466.05	8341.67
466.23	8128.68
466.41	8292.52
466.60	8386.14
466.78	8456.36
466.96	8367.42
467.14	8259.75
467.32	8461.04
467.51	8500.83
467.69	8465.72
467.87	8468.06
468.05	8517.21
468.23	8575.72
468.41	8442.31
468.60	8599.13
468.78	8671.68
468.96	8713.81
469.14	8856.59
469.32	8655.30
469.50	8610.83
469.69	8709.13
469.87	8791.05
470.05	8793.39
470.23	8777.01
470.41	8898.72
470.59	9231.07
470.77	9076.60
470.95	9142.13
471.14	9151.49
471.32	9128.09
471.50	9247.46
471.68	9219.37
471.86	9305.97
472.04	9460.45
472.22	9748.33
472.40	9469.81
472.58	9415.98
472.77	9476.83
472.95	9572.79
473.13	9720.24
473.31	9633.64
473.49	9507.26
473.67	9425.34
473.85	9694.50
474.03	9977.70
474.21	10003.45
474.39	10064.30
474.57	9881.74
474.75	10057.28
474.93	10200.05
475.12	10036.22
475.30	10291.34
475.48	10216.44
475.66	10214.10
475.84	10171.97
476.02	10525.39
476.20	10401.34
476.38	10619.01
476.56	10904.56
476.74	10644.76
476.92	10759.44
477.10	10820.30
477.28	10986.47
477.46	11019.24
477.64	10988.82
477.82	11325.85
478.00	11332.87
478.18	11386.71
478.36	11286.06
478.54	11426.50
478.72	11524.80
478.90	11721.40
479.08	11875.88
479.26	12109.93
479.44	12049.08
479.62	11786.94
479.80	12236.32
479.98	12182.49
480.16	12219.94
480.34	12465.69
480.52	12538.25
480.70	12498.46
480.88	12304.20
481.06	12475.06
481.24	12655.28
481.41	12779.32
481.59	13071.89
481.77	13083.59
481.95	13064.87
482.13	13357.44
482.31	13249.77
482.49	13544.68
482.67	13411.27
482.85	13474.46
483.03	13795.12
483.21	14054.92
483.39	14218.75
483.57	13837.25
483.74	14452.81
483.92	14312.38
484.10	14195.35
484.28	14508.98
484.46	14707.93
484.64	14934.96
484.82	14628.35
485.00	14824.95
485.18	14871.76
485.35	15096.46
485.53	15288.38
485.71	15232.21
485.89	15201.78
486.07	15316.47
486.25	15349.23
486.43	15550.52
486.61	15726.06
486.78	15723.72
486.96	16056.08
487.14	16432.90
487.32	16280.77
487.50	16575.67
487.68	16519.50
487.85	16992.29
488.03	16905.69
488.21	17022.72
488.39	17111.66
488.57	17116.34
488.75	17249.75
488.92	17448.69
489.10	17525.93
489.28	17811.48
489.46	17846.58
489.64	17872.33
489.81	18244.48
489.99	18305.33
490.17	18368.52
490.35	18721.95
490.53	18618.96
490.70	18813.23
490.88	18810.89
491.06	19335.17
491.24	19054.30
491.41	19239.20
491.59	19487.30
491.77	19431.13
491.95	19321.12
492.13	19594.96
492.30	19910.94
492.48	19950.73
492.66	19723.69
492.84	20046.69
493.01	19957.75
493.19	20276.06
493.37	20428.20
493.54	20547.56
493.72	20554.58
493.90	20699.70
494.08	21036.74
494.25	21329.30
494.43	21085.89
494.61	21380.79
494.79	21441.65
494.96	21160.78
495.14	21441.65
495.32	21837.20
495.49	21862.94
495.67	22089.98
495.85	21895.71
496.02	22258.49
496.20	22597.87
496.38	22569.79
496.55	22700.86
496.73	22972.36
496.91	22895.12
497.09	22700.86
497.26	22794.48
497.44	23117.47
497.62	23054.28
497.79	23489.62
497.97	23278.97
498.14	23353.87
498.32	23723.67
498.50	23604.30
498.67	23854.74
498.85	23950.70
499.03	23983.47
499.20	24030.28
499.38	24451.58
499.56	24325.19
499.73	24168.37
499.91	24877.55
500.08	24802.66
500.26	24379.02
500.44	24524.13
500.61	24762.87
500.79	24624.78
500.97	25184.16
501.14	25476.73
501.32	25242.68
501.49	25193.53
501.67	25287.15
501.84	25329.28
502.02	25132.67
502.20	25741.21
502.37	25841.85
502.55	25926.11
502.72	25872.28
502.90	25448.64
503.07	25977.61
503.25	26164.85
503.43	25701.42
503.60	26057.18
503.78	26342.73
503.95	26181.23
504.13	26419.97
504.30	26689.13
504.48	26141.44
504.65	26338.05
504.83	26843.60
505.01	26794.45
505.18	26827.22
505.36	27468.53
505.53	27047.23
505.71	27164.26
505.88	27489.59
506.06	26874.03
506.23	27405.33
506.41	27381.93
506.58	27592.58
506.76	27946.00
506.93	27875.78
507.11	27686.20
507.28	28039.62
507.46	27702.58
507.63	28180.05
507.81	27906.21
507.98	27953.02
508.16	28215.16
508.33	28762.84
508.50	28680.92
508.68	28591.98
508.85	29048.39
509.03	28772.21
509.20	28727.74
509.38	29181.80
509.55	28786.25
509.73	29362.02
509.90	29120.95
510.08	29273.08
510.25	29350.32
510.42	29284.78
510.60	29724.80
510.77	29680.33
510.95	29703.74
511.12	29439.26
511.30	29790.34
511.47	29872.26
511.64	30335.68
511.82	30040.78
511.99	29916.73
512.17	30195.25
512.34	30153.12
512.51	30242.06
512.69	30298.23
512.86	30693.79
513.04	30562.72
513.21	30890.39
513.38	30225.68
513.56	30754.64
513.73	30345.05
513.90	30824.86
514.08	30810.81
514.25	30857.62
514.43	30944.22
514.60	30764.00
514.77	31227.43
514.95	31288.28
515.12	31311.69
515.29	31433.39
515.47	31831.29
515.64	32086.40
515.81	31159.55
515.99	31253.17
516.16	31758.73
516.33	31854.69
516.51	31955.33
516.68	31318.71
516.85	31517.65
517.03	31679.15
517.20	32205.77
517.37	32058.32
517.54	32411.74
517.72	31707.24
517.89	32400.04
518.06	32009.17
518.24	31850.01
518.41	32275.99
518.58	32486.64
518.75	32301.73
518.93	32701.96
519.10	32924.32
519.27	32505.36
519.45	32762.82
519.62	33266.03
519.79	32755.80
519.96	33240.29
520.14	33862.87
520.31	32556.85
520.48	33036.66
520.65	33144.33
520.83	33874.57
521.00	33502.43
521.17	33736.48
521.34	33525.83
521.52	33617.11
521.69	33876.91
521.86	34045.43
522.03	34192.89
522.20	34225.65
522.38	34080.54
522.55	34359.06
522.72	34323.96
522.89	34410.56
523.07	34391.83
523.24	34480.77
523.41	34017.35
523.58	34485.45
523.75	35079.95
523.92	34749.93
524.10	35227.40
524.27	34876.32
524.44	35182.93
524.61	35381.88
524.78	35070.59
524.96	35306.98
525.13	35204.00
525.30	35487.20
525.47	35868.71
525.64	35676.79
525.81	35978.72
525.98	35674.45
526.16	35138.46
526.33	35288.26
526.50	35704.87
526.67	35751.68
526.84	35826.58
527.01	35379.54
527.18	35536.35
527.36	36182.34
527.53	36397.67
527.70	36095.74
527.87	36210.43
528.04	36016.16
528.21	36238.51
528.38	36088.72
528.55	36378.95
528.72	36561.51
528.89	36666.83
529.07	36652.79
529.24	36290.01
529.41	36620.02
529.58	36512.36
529.75	35754.02
529.92	36772.16
530.09	37053.02
530.26	36664.49
530.43	36966.42
530.60	36587.25
530.77	36531.08
530.94	37420.48
531.11	36744.07
531.28	37523.47
531.46	37263.67
531.63	37521.13
531.80	37193.45
531.97	37471.98
532.14	37230.90
532.31	37303.46
532.48	37572.62
532.65	37612.41
532.82	37556.24
532.99	37661.56
533.16	37734.12
533.33	37415.80
533.50	37839.44
533.67	37874.55
533.84	37277.71
534.01	37998.60
534.18	37916.68
534.35	38644.59
534.52	37986.89
534.69	37970.51
534.86	37701.35
535.03	38085.20
535.20	38422.23
535.37	38871.62
535.54	38770.97
535.71	38394.15
535.88	38740.55
536.05	38689.06
536.22	38749.91
536.38	38670.33
536.55	38890.34
536.72	38431.60
536.89	38717.14
537.06	38803.74
537.23	39012.05
537.40	38843.53
537.57	39026.09
537.74	39072.90
537.91	39318.66
538.08	39335.04
538.25	38485.43
538.42	38951.20
538.59	39440.37
538.75	39063.54
538.92	39182.91
539.09	39419.30
539.26	39283.55
539.43	39285.89
539.60	39239.08
539.77	39379.51
539.94	39482.50
540.11	39356.11
540.28	40013.80
540.44	39416.96
540.61	39051.84
540.78	39023.75
540.95	39147.80
541.12	39438.03
541.29	39704.85
541.46	39922.52
541.62	39929.54
541.79	39985.71
541.96	39550.37
542.13	39833.58
542.30	39538.67
542.47	40339.13
542.63	39826.56
542.80	39885.07
542.97	40540.42
543.14	40617.66
543.31	40584.89
543.48	40758.09
543.64	41366.63
543.81	40795.54
543.98	40591.91
544.15	40758.09
544.32	40907.88
544.48	41095.13
544.65	40741.71
544.82	40449.14
544.99	40446.80
545.16	40910.22
545.32	40727.66
545.49	40893.84
545.66	41043.63
545.83	41287.05
546.00	41296.41
546.16	41296.41
546.33	40814.26
546.50	40772.13
546.67	40875.12
546.83	40669.15
547.00	41069.38
547.17	41375.99
547.34	41490.68
547.50	41748.14
547.67	41720.05
547.84	42085.17
548.00	41827.71
548.17	41504.72
548.34	41818.35
548.51	42075.81
548.67	41909.63
548.84	41764.52
549.01	41914.31
549.18	41900.27
549.34	41649.83
549.51	41865.16
549.68	41696.64
549.84	42337.95
550.01	41937.72
550.18	42007.94
550.34	42080.49
550.51	42078.15
550.68	41656.85
550.84	41624.09
551.01	41991.55
551.18	42085.17
551.34	42326.25
551.51	41848.78
551.68	41991.55
551.84	42087.51
552.01	42384.76
552.18	42710.10
552.34	42649.24
552.51	42504.13
552.68	42398.80
552.84	42766.27
553.01	42670.31
553.18	42600.09
553.34	42246.67
553.51	42272.42
553.67	42660.94
553.84	42834.14
554.01	43054.15
554.17	42801.38
554.34	42822.44
554.51	42887.98
554.67	42773.29
554.84	42731.16
555.00	42466.68
555.17	42969.90
555.33	42710.10
555.50	42974.58
555.67	42934.79
555.83	42906.70
556.00	42960.53
556.16	43611.20
556.33	43047.13
556.50	43154.80
556.66	43100.97
556.83	42789.67
556.99	42794.36
557.16	43721.21
557.32	43302.25
557.49	43292.89
557.65	42974.58
557.82	43049.47
557.98	43000.32
558.15	43222.67
558.32	43512.90
558.48	43318.64
558.65	43690.78
558.81	43400.55
558.98	43531.62
559.14	43264.80
559.31	43812.49
559.47	43620.56
559.64	43791.42
559.80	43667.37
559.97	43838.23
560.13	43278.85
560.30	43447.36
560.46	43309.27
560.63	43445.02
560.79	43597.16
560.96	43899.09
561.12	43463.75
561.29	43817.17
561.45	43625.25
561.61	43571.41
561.78	43580.78
561.94	43480.13
562.11	43878.02
562.27	43730.57
562.44	44231.44
562.60	43697.80
562.77	44140.16
562.93	43686.10
563.10	44018.46
563.26	43871.00
563.42	44020.80
563.59	43779.72
563.75	43503.54
563.92	44217.40
564.08	44051.22
564.24	44231.44
564.41	44009.09
564.57	44051.22
564.74	44259.53
564.90	44109.74
565.07	44060.58
565.23	43758.66
565.39	44198.68
565.56	44156.55
565.72	44105.06
565.88	43908.45
566.05	43871.00
566.21	44229.10
566.38	44020.80
566.54	44238.47
566.70	44385.92
566.87	44362.51
567.03	44208.04
567.19	44266.55
567.36	44479.54
567.52	43852.28
567.68	44619.97
567.85	44261.87
568.01	44390.60
568.17	44196.34
568.34	44252.51
568.50	44587.21
568.66	44722.96
568.83	44076.97
568.99	43988.03
569.15	44121.44
569.32	44374.22
569.48	44261.87
569.64	44603.59
569.81	44514.65
569.97	44102.71
570.13	44051.22
570.30	44034.84
570.46	44416.35
570.62	44236.12
570.78	44231.44
570.95	44105.06
571.11	44741.68
571.27	44479.54
571.43	44119.10
571.60	44676.15
571.76	44294.64
571.92	44619.97
572.09	44067.61
572.25	44418.69
572.41	44699.55
572.57	44809.56
572.74	44884.45
572.90	44650.40
573.06	44708.91
573.22	44009.09
573.38	44236.12
573.55	44296.98
573.71	44397.62
573.87	44615.29
574.03	44217.40
574.20	44928.92
574.36	44135.48
574.52	44655.08
574.68	44690.19
574.84	44612.95
575.01	44671.46
575.17	44451.45
575.33	44439.75
575.49	44381.24
575.65	44889.13
575.82	45074.04
575.98	44741.68
576.14	45162.98
576.30	44781.47
576.46	44722.96
576.62	44154.21
576.79	44353.15
576.95	44376.56
577.11	44577.84
577.27	44676.15
577.43	44552.10
577.59	44215.06
577.75	44299.32
577.92	44140.16
578.08	44495.92
578.24	44189.31
578.40	44512.31
578.56	44528.69
578.72	44383.58
578.88	44713.59
579.04	44816.58
579.21	44346.13
579.37	44711.25
579.53	44526.35
579.69	44357.83
579.85	44280.60
580.01	44807.22
580.17	44547.42
580.33	45272.98
580.49	44804.88
580.65	44884.45
580.82	45188.72
580.98	44645.72
581.14	44552.10
581.30	44940.63
581.46	44549.76
581.62	45200.43
581.78	44961.69
581.94	45102.12
582.10	44868.07
582.26	45062.33
582.42	44694.87
582.58	44907.86
582.74	44488.90
582.90	44357.83
583.06	44680.83
583.22	44926.58
583.38	45158.30
583.54	45322.13
583.70	44418.69
583.86	44423.37
584.02	44423.37
584.18	44641.04
584.34	44865.73
584.50	45109.14
584.66	44470.18
584.82	44423.37
584.98	44891.48
585.14	44949.99
585.30	44641.04
585.46	45221.49
585.62	44835.30
585.78	44769.77
585.94	44755.72
586.10	44980.42
586.26	44739.34
586.42	45162.98
586.58	44617.63
586.74	44610.61
586.90	44891.48
587.06	44643.38
587.22	44711.25
587.38	44680.83
587.54	45109.14
587.70	45045.95
587.86	44837.64
588.02	45038.93
588.18	44781.47
588.34	44861.05
588.49	44706.57
588.65	44481.88
588.81	44463.16
588.97	44428.05
589.13	44486.56
589.29	45177.02
589.45	45404.05
589.61	45319.79
589.77	45230.85
589.93	44985.10
590.08	45301.07
590.24	45268.30
590.40	45233.19
590.56	45106.80
590.72	45350.22
590.88	45151.27
591.04	45120.85
591.20	45420.44
591.35	45378.31
591.51	45352.56
591.67	45184.04
591.83	45301.07
591.99	44861.05
592.15	45195.74
592.31	44755.72
592.46	45003.82
592.62	44636.36
592.78	45179.36
592.94	44842.32
593.10	45280.00
593.26	45167.66
593.41	45390.01
593.57	44790.83
593.73	45336.18
593.89	45151.27
594.05	45287.03
594.20	44980.42
594.36	45488.31
594.52	45120.85
594.68	45331.50
594.84	45083.40
594.99	45441.50
595.15	44804.88
595.31	44935.95
595.47	45160.64
595.62	45120.85
595.78	44835.30
595.94	45640.45
596.10	45111.49
596.25	45476.61
596.41	45455.54
596.57	45422.78
596.73	45701.30
596.88	44477.20
597.04	45256.60
597.20	45130.21
597.36	45235.53
597.51	45188.72
597.67	45258.94
597.83	45233.19
597.99	45390.01
598.14	45312.77
598.30	45443.84
598.46	44872.75
598.61	44964.03
598.77	44800.19
598.93	44811.90
599.09	45429.80
599.24	45766.84
599.40	45572.57
599.56	45268.30
599.71	45397.03
599.87	45464.91
600.03	45207.45
600.18	44816.58
600.34	45083.40
600.50	44886.79
600.65	45235.53
600.81	45502.35
600.97	45563.21
601.12	45432.14
601.28	44994.46
601.44	45181.70
601.59	45069.36
601.75	45083.40
601.91	45392.35
602.06	45249.58
602.22	45551.51
602.37	45013.18
602.53	45464.91
602.69	45392.35
602.84	45359.58
603.00	45179.36
603.16	45015.52
603.31	45195.74
603.47	44823.60
603.62	45244.90
603.78	45485.97
603.94	45214.47
604.09	45373.63
604.25	45111.49
604.40	45397.03
604.56	45375.97
604.71	45497.67
604.87	44940.63
605.03	45312.77
605.18	45378.31
605.34	45373.63
605.49	44942.97
605.65	45429.80
605.80	44959.35
605.96	45324.47
606.12	45237.87
606.27	45261.28
606.43	44650.40
606.58	44804.88
606.74	45469.59
606.89	45071.70
607.05	45027.23
607.20	45064.67
607.36	45155.96
607.51	45177.02
607.67	45195.74
607.82	45289.37
607.98	44868.07
608.13	44996.80
608.29	44978.07
608.44	44863.39
608.60	44655.08
608.75	44835.30
608.91	44577.84
609.06	44650.40
609.22	45095.10
609.37	44608.27
609.53	44622.31
609.68	44570.82
609.84	44554.44
609.99	44828.28
610.15	44781.47
610.30	44626.99
610.46	44545.08
610.61	44837.64
610.76	44526.35
610.92	44563.80
611.07	44435.07
611.23	44495.92
611.38	44561.46
611.54	44416.35
611.69	44435.07
611.84	44327.41
612.00	44395.28
612.15	44556.78
612.31	44540.39
612.46	44823.60
612.62	44673.81
612.77	44304.00
612.92	44945.31
613.08	44432.73
613.23	44437.41
613.39	44369.54
613.54	44100.37
613.69	44444.43
613.85	44018.46
614.00	43908.45
614.15	44573.16
614.31	44605.93
614.46	44762.75
614.62	43882.70
614.77	44460.82
614.92	44205.70
615.08	44453.79
615.23	44013.77
615.38	44126.12
615.54	44018.46
615.69	43779.72
615.84	43779.72
616.00	44023.14
616.15	44252.51
616.30	43978.67
616.46	43440.34
616.61	43749.29
616.76	43924.83
616.92	43901.43
617.07	43690.78
617.22	43971.64
617.37	44107.40
617.53	43810.15
617.68	44158.89
617.83	44144.84
617.99	44091.01
618.14	44198.68
618.29	43482.47
618.45	43508.22
618.60	44023.14
618.75	43650.99
618.90	43821.85
619.06	43590.14
619.21	43573.75
619.36	43454.39
619.51	43786.74
619.67	43196.93
619.82	43400.55
619.97	43718.87
620.12	43555.03
620.28	42719.46
620.43	43576.09
620.58	43398.21
620.73	43136.07
620.89	43379.49
621.04	43585.46
621.19	43697.80
621.34	43077.56
621.49	43232.04
621.65	43047.13
621.80	43304.59
621.95	43512.90
622.10	43203.95
622.25	43239.06
622.41	43061.18
622.56	43086.92
622.71	42962.87
622.86	43019.05
623.01	43430.98
623.16	43278.85
623.32	42974.58
623.47	43241.40
623.62	42518.17
623.77	42630.52
623.92	42684.35
624.07	42745.20
624.23	42628.18
624.38	42136.66
624.53	42717.12
624.68	42988.62
624.83	43049.47
624.98	42836.48
625.13	42579.03
625.29	42501.79
625.44	42417.53
625.59	42253.69
625.74	42351.99
625.89	41799.63
626.04	41949.42
626.19	42211.56
626.34	43065.86
626.49	42220.92
626.65	42424.55
626.80	42644.56
626.95	42300.50
627.10	42387.10
627.25	42202.20
627.40	42085.17
627.55	41886.23
627.70	41698.98
627.85	41944.74
628.00	42012.62
628.15	42073.47
628.30	41556.21
628.45	42066.45
628.60	42124.96
628.76	41933.04
628.91	42014.96
629.06	41918.99
629.21	41551.53
629.36	41691.96
629.51	41621.75
629.66	41886.23
629.81	41544.51
629.96	41574.94
630.11	41956.44
630.26	42017.30
630.41	41649.83
630.56	41464.93
630.71	41469.61
630.86	41301.09
631.01	41120.87
631.16	41975.17
631.31	41163.00
631.46	40837.67
631.61	41769.20
631.76	41102.15
631.91	41441.53
632.06	41799.63
632.21	41963.46
632.36	41364.29
632.51	41429.82
632.66	41670.90
632.81	41106.83
632.96	41294.07
633.10	41120.87
633.25	40996.82
633.40	41244.92
633.55	40999.16
633.70	41462.59
633.85	40760.43
634.00	41254.28
634.15	41102.15
634.30	40694.89
634.45	40903.20
634.60	40959.38
634.75	41043.63
634.90	40900.86
635.05	41020.23
635.19	41017.89
635.34	40779.15
635.49	41043.63
635.64	40500.63
635.79	40734.68
635.94	40573.19
636.09	40554.46
636.24	40898.52
636.39	40744.05
636.53	40573.19
636.68	40444.46
636.83	40460.84
636.98	40863.41
637.13	40318.07
637.28	40453.82
637.43	40727.66
637.57	40603.61
637.72	40465.52
637.87	40694.89
638.02	40540.42
638.17	40755.75
638.32	39981.03
638.46	40222.11
638.61	40556.80
638.76	40074.65
638.91	40156.57
639.06	40109.76
639.20	40388.28
639.35	40430.41
639.50	40299.34
639.65	40502.97
639.80	40201.04
639.94	40428.07
640.09	39864.00
640.24	39505.90
640.39	39917.84
640.54	39936.56
640.68	39545.69
640.83	39941.24
640.98	39452.07
641.13	39606.55
641.27	39866.34
641.42	39576.12
641.57	39590.16
641.72	39878.05
641.86	39758.68
642.01	39559.73
642.16	39489.52
642.31	39405.26
642.45	39992.73
642.60	39466.11
642.75	39154.82
642.90	39543.35
643.04	39356.11
643.19	39435.69
643.34	39662.72
643.48	39335.04
643.63	39688.46
643.78	39510.58
643.93	39278.87
644.07	38951.20
644.22	38962.90
644.37	39047.16
644.51	39112.69
644.66	39168.87
644.81	39154.82
644.95	39306.96
645.10	39374.83
645.25	39077.58
645.39	39365.47
645.54	39704.85
645.69	39091.63
645.83	38810.76
645.98	39070.56
646.13	38824.81
646.27	38962.90
646.42	38918.43
646.57	38902.04
646.71	38951.20
646.86	38593.09
647.00	39049.50
647.15	39014.39
647.30	38934.81
647.44	38960.56
647.59	38998.01
647.74	38497.13
647.88	38651.61
648.03	38485.43
648.17	38614.16
648.32	38057.11
648.47	38885.66
648.61	38323.93
648.76	38911.41
648.90	38618.84
649.05	38766.29
649.20	38726.50
649.34	38677.35
649.49	38225.63
649.63	38396.49
649.78	38209.25
649.92	38562.67
650.07	38838.85
650.21	38391.81
650.36	38256.06
650.51	38417.55
650.65	38455.00
650.80	38820.13
650.94	38864.60
651.09	38277.12
651.23	38291.16
651.38	37825.40
651.52	38342.66
651.67	38066.47
651.81	38249.03
651.96	37865.19
652.10	38092.22
652.25	37766.88
652.39	37708.37
652.54	37933.06
652.68	38019.66
652.83	37872.21
652.97	38469.04
653.12	38249.03
653.26	37486.02
653.41	38052.43
653.55	37897.95
653.70	37757.52
653.84	37635.81
653.99	38181.16
654.13	37710.71
654.27	37610.07
654.42	37486.02
654.56	37654.54
654.71	37811.35
654.85	37497.72
655.00	37769.22
655.14	37331.54
655.29	37081.11
655.43	37046.00
655.57	37434.53
655.72	36914.93
655.86	36933.65
656.01	37338.57
656.15	36701.94
656.30	37139.62
656.44	37083.45
656.58	37048.34
656.73	37111.53
656.87	37078.77
657.01	36865.78
657.16	36921.95
657.30	36641.09
657.45	36659.81
657.59	37060.04
657.73	36645.77
657.88	37106.85
658.02	36781.52
658.16	36659.81
658.31	37111.53
658.45	37226.22
658.60	37235.58
658.74	36891.52
658.88	36790.88
659.03	36865.78
659.17	36098.08
659.31	36591.94
659.46	36191.70
659.60	36507.68
659.74	36652.79
659.89	36201.07
660.03	35894.46
660.17	36495.97
660.32	36268.94
660.46	36233.83
660.60	36428.10
660.74	36348.52
660.89	36355.54
661.03	35945.95
661.17	35976.37
661.32	35716.58
661.46	35903.82
661.60	35580.82
661.74	36236.17
661.89	35735.30
662.03	35971.69
662.17	35578.48
662.31	35828.92
662.46	35885.09
662.60	35894.46
662.74	35311.66
662.88	35473.16
663.03	35412.31
663.17	35419.33
663.31	35302.30
663.45	35072.93
663.60	35248.47
663.74	35447.41
663.88	34948.88
664.02	35042.50
664.17	35239.11
664.31	34913.77
664.45	34752.27
664.59	35086.97
664.73	34801.43
664.88	34953.56
665.02	34724.19
665.16	35117.40
665.30	34768.66
665.44	34405.88
665.59	34103.95
665.73	34405.88
665.87	34679.72
666.01	34323.96
666.15	34546.31
666.29	33993.94
666.44	33996.28
666.58	34471.41
666.72	34361.40
666.86	34354.38
667.00	34539.29
667.14	34047.77
667.28	33827.76
667.43	33930.75
667.57	33762.23
667.71	34024.37
667.85	34059.48
667.99	33577.33
668.13	33469.66
668.27	33916.70
668.41	33666.27
668.56	33481.36
668.70	33511.79
668.84	33200.50
668.98	33081.13
669.12	33235.61
669.26	33104.54
669.40	33111.56
669.54	33151.35
669.68	32954.74
669.82	32999.21
669.96	32568.55
670.10	32568.55
670.25	32802.61
670.39	32837.72
670.53	32725.37
670.67	32636.43
670.81	32797.93
670.95	33167.73
671.09	32669.20
671.23	32795.59
671.37	32613.02
671.51	32271.31
671.65	32285.35
671.79	31929.59
671.93	32322.80
672.07	32432.80
672.21	31854.69
672.35	31910.86
672.49	32018.53
672.63	32430.46
672.77	31990.44
672.91	31545.74
673.05	32236.20
673.19	31431.05
673.33	31531.70
673.47	31433.39
673.61	30965.29
673.75	31501.27
673.89	30932.52
674.03	31042.53
674.17	31068.27
674.31	30874.01
674.45	30705.49
674.59	30852.94
674.73	31307.01
674.87	30656.34
675.01	30911.46
675.15	30897.41
675.29	30859.96
675.43	31211.04
675.56	30691.44
675.70	30265.47
675.84	30368.45
675.98	29706.08
676.12	29874.60
676.26	30253.76
676.40	30050.14
676.54	29738.85
676.68	29919.07
676.82	29483.73
676.96	29450.96
677.10	29212.23
677.23	29401.81
677.37	29319.89
677.51	29392.45
677.65	29146.69
677.79	29088.18
677.93	29036.69
678.07	28943.06
678.21	28931.36
678.34	28788.59
678.48	28781.57
678.62	28589.64
678.76	28484.32
678.90	28652.84
679.04	28371.97
679.18	28371.97
679.31	28353.25
679.45	28020.89
679.59	27852.38
679.73	28105.15
679.87	28184.73
680.00	27784.50
680.14	27791.52
680.28	27449.80
680.42	27302.35
680.56	27613.64
680.70	27391.29
680.83	27255.54
680.97	26984.04
681.11	26939.57
681.25	27096.38
681.39	26867.01
681.52	26852.97
681.66	26824.88
681.80	26686.79
681.94	26307.62
682.07	26403.58
682.21	26281.88
682.35	26604.87
682.49	26628.27
682.62	26387.20
682.76	25883.98
682.90	26216.34
683.04	26024.42
683.17	26024.42
683.31	25607.80
683.45	25696.74
683.59	25968.24
683.72	25142.03
683.86	25502.48
684.00	25191.19
684.13	25797.38
684.27	25242.68
684.41	25090.54
684.55	25191.19
684.68	24748.82
684.82	24938.41
684.96	24725.42
685.09	24879.89
685.23	24959.47
685.37	24549.88
685.50	24847.13
685.64	24559.24
685.78	24100.50
685.91	23981.13
686.05	23889.85
686.19	23962.40
686.32	23882.83
686.46	23754.10
686.60	23522.38
686.73	23267.27
686.87	23388.97
687.01	23608.98
687.14	23115.13
687.28	23374.93
687.42	23328.12
687.55	22764.05
687.69	22792.14
687.82	22995.76
687.96	22637.66
688.10	22607.23
688.23	22752.35
688.37	22689.15
688.50	22298.28
688.64	22331.05
688.78	22691.49
688.91	22066.57
689.05	22167.21
689.18	22157.85
689.32	21741.24
689.46	21895.71
689.59	22298.28
689.73	22045.51
689.86	21771.66
690.00	21844.22
690.13	22005.72
690.27	21774.00
690.41	21497.82
690.54	21348.03
690.68	21113.97
690.81	21078.86
690.95	20877.58
691.08	21050.78
691.22	21003.97
691.35	20800.34
691.49	20828.43
691.62	20954.82
691.76	20493.73
691.89	21156.10
692.03	20463.30
692.16	20655.23
692.30	20521.82
692.43	20638.84
692.57	20067.75
692.70	20039.67
692.84	19969.45
692.97	19700.29
693.11	19695.61
693.24	19716.67
693.38	19461.55
693.51	19660.50
693.65	19763.48
693.78	19620.71
693.92	19594.96
694.05	19061.32
694.19	19110.47
694.32	19131.54
694.45	19339.85
694.59	18965.36
694.72	18934.93
694.86	19070.68
694.99	18560.45
695.13	18630.66
695.26	18363.84
695.39	18267.88
695.53	18803.86
695.66	18480.87
695.80	18466.83
695.93	18284.26
696.07	17799.77
696.20	18139.15
696.33	18134.47
696.47	18050.21
696.60	17862.97
696.73	17951.91
696.87	18181.28
697.00	17727.22
697.14	17820.84
697.27	17748.28
697.40	17633.60
697.54	17364.43
697.67	17453.37
697.80	17200.60
697.94	17116.34
698.07	17163.15
698.21	17259.11
698.34	16950.16
698.47	17029.74
698.61	16755.90
698.74	16697.38
698.87	16912.71
699.01	16493.76
699.14	16414.18
699.27	16491.41
699.40	16397.79
699.54	16025.65
699.67	16210.55
699.80	16201.19
699.94	15796.28
700.07	16182.46
700.20	15751.81
700.34	15784.57
700.47	15864.15
700.60	15805.64
700.73	16255.02
700.87	15524.77
701.00	15377.32
701.13	15662.86
701.26	15618.39
701.40	15433.49
701.53	15272.00
701.66	15225.18
701.79	15105.82
701.93	15138.58
702.06	14923.26
702.19	15009.86
702.32	14993.47
702.46	14848.36
702.59	14836.66
702.72	14738.35
702.85	14817.93
702.99	14628.35
703.12	14721.97
703.25	14457.49
703.38	14256.20
703.51	14459.83
703.65	14300.67
703.78	14307.69
703.91	14319.40
704.04	14038.53
704.17	13973.00
704.31	14038.53
704.44	13671.07
704.57	13657.03
704.70	13530.64
704.83	13525.96
704.96	13392.55
705.10	13862.99
705.23	13575.11
>>>>>End Processed Spectral Data<<<<<
