SpectraSuite Data File
++++++++++++++++++++++++++++++++++++
Date: Fri Oct 25 10:43:20 EDT 2013
User: price-jones
Dark Spectrum Present: No
Reference Spectrum Present: No
Number of Sampled Component Spectra: 1
Spectrometers: USB2+H05261
Integration Time (usec): 100000 (USB2+H05261)
Spectra Averaged: 1 (USB2+H05261)
Boxcar Smoothing: 0 (USB2+H05261)
Correct for Electrical Dark: No (USB2+H05261)
Strobe/Lamp Enabled: No (USB2+H05261)
Correct for Detector Non-linearity: No (USB2+H05261)
Correct for Stray Light: No (USB2+H05261)
Number of Pixels in Processed Spectrum: 2048
>>>>>Begin Processed Spectral Data<<<<<
365.73	93.62
365.92	93.62
366.12	93.62
366.32	37.45
366.52	16.38
366.72	91.28
366.91	0.00
367.11	49.15
367.31	2.34
367.51	0.00
367.70	0.00
367.90	0.00
368.10	11.70
368.30	51.49
368.49	49.15
368.69	11.70
368.89	42.13
369.09	0.00
369.28	72.56
369.48	86.60
369.68	117.03
369.87	142.77
370.07	0.00
370.27	156.82
370.47	166.18
370.66	320.65
370.86	407.25
371.06	496.19
371.25	416.62
371.45	435.34
371.65	519.60
371.84	423.64
372.04	454.06
372.24	484.49
372.44	514.92
372.63	627.26
372.83	512.58
373.03	477.47
373.22	463.43
373.42	603.86
373.62	571.09
373.81	447.04
374.01	571.09
374.21	615.56
374.40	484.49
374.60	599.18
374.79	566.41
374.99	547.69
375.19	517.26
375.38	512.58
375.58	543.00
375.78	606.20
375.97	610.88
376.17	737.27
376.37	589.82
376.56	624.92
376.76	620.24
376.95	594.50
377.15	585.13
377.35	596.84
377.54	718.54
377.74	631.94
377.93	667.05
378.13	692.80
378.33	622.58
378.52	669.39
378.72	709.18
378.91	566.41
379.11	674.07
379.31	685.78
379.50	634.29
379.70	645.99
379.89	748.97
380.09	624.92
380.28	622.58
380.48	629.60
380.68	653.01
380.87	681.10
381.07	615.56
381.26	781.74
381.46	793.44
381.65	692.80
381.85	671.73
382.04	650.67
382.24	695.14
382.43	751.31
382.63	706.84
382.83	669.39
383.02	739.61
383.22	744.29
383.41	690.46
383.61	716.20
383.80	734.93
384.00	819.19
384.19	711.52
384.39	798.12
384.58	823.87
384.78	814.51
384.97	753.65
385.17	786.42
385.36	720.88
385.56	774.72
385.75	868.34
385.95	882.38
386.14	823.87
386.34	863.66
386.53	812.17
386.72	800.46
386.92	894.08
387.11	812.17
387.31	887.06
387.50	873.02
387.70	844.93
387.89	896.43
388.09	823.87
388.28	912.81
388.48	910.47
388.67	933.87
388.86	903.45
389.06	959.62
389.25	940.90
389.45	1001.75
389.64	898.77
389.84	1008.77
390.03	985.37
390.22	1004.09
390.42	1018.13
390.61	997.07
390.81	1034.52
391.00	1069.62
391.19	1039.20
391.39	1100.05
391.58	1029.84
391.78	1069.62
391.97	997.07
392.16	964.30
392.36	1046.22
392.55	1015.79
392.75	950.26
392.94	971.32
393.13	999.41
393.33	1015.79
393.52	1076.65
393.71	1121.12
393.91	1081.33
394.10	1104.73
394.29	1219.42
394.49	1158.57
394.68	1118.78
394.88	1184.31
395.07	1259.21
395.26	1228.78
395.46	1219.42
395.65	1303.68
395.84	1235.80
396.04	1238.14
396.23	1139.84
396.42	1160.91
396.62	1163.25
396.81	1240.48
397.00	1217.08
397.19	1331.76
397.39	1364.53
397.58	1376.24
397.77	1380.92
397.97	1392.62
398.16	1362.19
398.35	1486.24
398.55	1455.81
398.74	1418.36
398.93	1493.26
399.12	1605.61
399.32	1502.62
399.51	1481.56
399.70	1561.14
399.90	1523.69
400.09	1605.61
400.28	1521.35
400.47	1643.06
400.67	1568.16
400.86	1607.95
401.05	1605.61
401.24	1671.14
401.44	1621.99
401.63	1734.34
401.82	1713.27
402.01	1619.65
402.21	1783.49
402.40	1727.32
402.59	1722.63
402.78	1722.63
402.97	1710.93
403.17	1783.49
403.36	1783.49
403.55	1921.58
403.74	1839.66
403.93	1834.98
404.13	1816.26
404.32	1865.41
404.51	1865.41
404.70	1942.64
404.89	1865.41
405.09	1886.47
405.28	1928.60
405.47	1994.14
405.66	1996.48
405.85	1968.39
406.05	1870.09
406.24	1996.48
406.43	2043.29
406.62	1956.69
406.81	2148.61
407.00	2174.36
407.20	1926.26
407.39	2019.88
407.58	2108.82
407.77	2139.25
407.96	2256.28
408.15	2155.63
408.34	2146.27
408.54	2214.15
408.73	2272.66
408.92	2260.96
409.11	2225.85
409.30	2279.68
409.49	2340.54
409.68	2300.75
409.87	2296.07
410.07	2242.23
410.26	2424.80
410.45	2305.43
410.64	2427.14
410.83	2363.94
411.02	2504.37
411.21	2551.18
411.40	2541.82
411.59	2574.59
411.78	2619.06
411.98	2588.63
412.17	2715.02
412.36	2684.59
412.55	2750.13
412.74	2808.64
412.93	2703.32
413.12	2764.17
413.31	2935.03
413.50	2710.34
413.69	2888.22
413.88	2843.75
414.07	2892.90
414.26	2998.23
414.45	2928.01
414.64	3012.27
414.83	2984.18
415.02	3028.65
415.22	3087.17
415.41	3133.98
415.60	3164.40
415.79	3133.98
415.98	3283.77
416.17	3185.47
416.36	3260.37
416.55	3194.83
416.74	3229.94
416.93	3353.99
417.12	3339.94
417.31	3194.83
417.50	3501.44
417.69	3391.44
417.88	3524.85
418.07	3272.07
418.26	3417.18
418.45	3478.04
418.64	3566.98
418.83	3585.70
419.02	3447.61
419.21	3510.80
419.39	3531.87
419.58	3534.21
419.77	3538.89
419.96	3754.22
420.15	3712.09
420.34	3676.98
420.53	3733.15
420.72	3667.62
420.91	3737.84
421.10	3822.09
421.29	3899.33
421.48	3726.13
421.67	3817.41
421.86	3918.06
422.05	3847.84
422.24	3723.79
422.43	3815.07
422.61	3836.14
422.80	3932.10
422.99	3899.33
423.18	3871.25
423.37	3826.78
423.56	3981.25
423.75	3948.48
423.94	3845.50
424.13	3744.86
424.32	3801.03
424.50	3861.88
424.69	3985.93
424.88	3929.76
425.07	3901.67
425.26	3922.74
425.45	4023.38
425.64	3864.22
425.83	3847.84
426.01	3882.95
426.20	3915.72
426.39	3957.85
426.58	3904.01
426.77	3887.63
426.96	4014.02
427.15	4086.58
427.33	4014.02
427.52	4002.32
427.71	4018.70
427.90	4149.77
428.09	4166.15
428.28	4124.02
428.46	4252.75
428.65	4100.62
428.84	4145.09
429.03	4184.88
429.22	4175.52
429.40	4264.46
429.59	3995.29
429.78	3974.23
429.97	3976.57
430.16	4091.26
430.34	4145.09
430.53	4262.12
430.72	4212.96
430.91	4128.70
431.10	4278.50
431.28	4533.62
431.47	4587.45
431.66	4800.44
431.85	4442.34
432.03	4463.40
432.22	4568.73
432.41	4650.64
432.60	4793.42
432.79	4622.56
432.97	4788.74
433.16	4578.09
433.35	4559.36
433.54	4667.03
433.72	4662.35
433.91	4720.86
434.10	4711.50
434.28	4793.42
434.47	4772.35
434.66	4924.49
434.85	4924.49
435.03	4978.32
435.22	4954.91
435.41	5254.50
435.59	5085.98
435.78	5088.32
435.97	5137.48
436.16	5179.61
436.34	5130.45
436.53	5137.48
436.72	5226.42
436.90	5109.39
437.09	5289.61
437.28	5123.43
437.46	5069.60
437.65	5111.73
437.84	5242.80
438.02	5149.18
438.21	5245.14
438.40	5102.37
438.58	5345.78
438.77	5383.23
438.96	5420.68
439.14	5526.00
439.33	5619.63
439.52	5598.56
439.70	5563.45
439.89	5586.86
440.08	5626.65
440.26	5666.44
440.45	5682.82
440.63	5755.38
440.82	5947.30
441.01	5781.12
441.19	5994.11
441.38	6050.28
441.57	5966.03
441.75	6066.67
441.94	6190.72
442.12	6230.51
442.31	6443.49
442.50	6324.13
442.68	6345.19
442.87	6394.34
443.05	6291.36
443.24	6476.26
443.43	6431.79
443.61	6436.47
443.80	6757.13
443.98	6289.02
444.17	6265.61
444.35	6567.54
444.54	6619.04
444.73	6532.44
444.91	6494.99
445.10	6420.09
445.28	6296.04
445.47	6202.42
445.65	6314.77
445.84	6576.91
446.02	6600.31
446.21	6506.69
446.39	6445.84
446.58	6595.63
446.77	6604.99
446.95	6382.64
447.14	6555.84
447.32	6670.53
447.51	6619.04
447.69	6476.26
447.88	6724.36
448.06	6562.86
448.25	6520.73
448.43	6630.74
448.62	6651.80
448.80	6738.40
448.99	6707.98
449.17	6822.66
449.36	6668.19
449.54	6920.96
449.73	7028.63
449.91	6993.52
450.10	7211.19
450.28	7136.29
450.46	7136.29
450.65	7122.25
450.83	7073.10
451.02	7082.46
451.20	7265.02
451.39	7119.91
451.57	7052.03
451.76	7265.02
451.94	7054.37
452.13	7159.70
452.31	7096.50
452.49	7140.97
452.68	7456.95
452.86	7283.75
453.05	7236.94
453.23	7279.07
453.42	7110.55
453.60	7208.85
453.78	7405.46
453.97	7314.17
454.15	7391.41
454.34	7279.07
454.52	7456.95
454.70	7428.86
454.89	7522.48
455.07	7517.80
455.26	7499.08
455.44	7791.64
455.62	7728.45
455.81	7782.28
455.99	7648.87
456.17	7845.48
456.36	7730.79
456.54	7957.82
456.73	7885.26
456.91	8198.90
457.09	7983.57
457.28	8124.00
457.46	7960.16
457.64	8264.43
457.83	8262.09
458.01	7889.95
458.19	8243.37
458.38	8229.32
458.56	8210.60
458.74	8177.83
458.93	8065.49
459.11	8381.46
459.29	8189.53
459.48	8205.92
459.66	8283.16
459.84	8212.94
460.03	8498.49
460.21	8655.30
460.39	8528.91
460.57	8482.10
460.76	8599.13
460.94	8622.53
461.12	8451.67
461.31	8526.57
461.49	8603.81
461.67	8865.95
461.85	8875.31
462.04	8872.97
462.22	9207.67
462.40	8746.58
462.59	8835.52
462.77	8891.70
462.95	8709.13
463.13	9001.70
463.32	8936.17
463.50	8938.51
463.68	8982.98
463.86	8954.89
464.05	8842.54
464.23	8711.47
464.41	8990.00
464.59	8683.39
464.78	9151.49
464.96	9032.13
465.14	8828.50
465.32	9205.33
465.50	9322.35
465.69	9280.22
465.87	9174.90
466.05	9135.11
466.23	9055.53
466.41	9102.34
466.60	9565.77
466.78	9245.12
466.96	9172.56
467.14	9186.60
467.32	9430.02
467.51	9565.77
467.69	9228.73
467.87	9231.07
468.05	9312.99
468.23	9607.90
468.41	9233.41
468.60	9451.08
468.78	9523.64
468.96	9296.61
469.14	9643.01
469.32	9802.16
469.50	9514.28
469.69	9893.44
469.87	9713.22
470.05	9682.80
470.23	9673.43
470.41	9888.76
470.59	10076.01
470.77	9736.63
470.95	10223.46
471.14	10125.16
471.32	10010.47
471.50	10387.30
471.68	10256.23
471.86	10375.59
472.04	10462.19
472.22	10717.31
472.40	10296.02
472.58	10380.28
472.77	10296.02
472.95	10623.69
473.13	10647.10
473.31	10408.36
473.49	10441.13
473.67	10401.34
473.85	10368.57
474.03	10813.28
474.21	10888.17
474.39	10934.98
474.57	10848.38
474.75	11295.43
474.93	11047.33
475.12	10951.37
475.30	11007.54
475.48	11169.04
475.66	11157.33
475.84	10920.94
476.02	11543.52
476.20	11370.32
476.38	11496.71
476.56	11723.74
476.74	11854.81
476.92	11681.61
477.10	11822.05
477.28	12039.72
477.46	11971.84
477.64	12273.77
477.82	12425.90
478.00	12493.78
478.18	12435.27
478.36	12549.95
478.54	12772.30
478.72	12683.36
478.90	12786.35
479.08	13294.24
479.26	12858.90
479.44	13139.77
479.62	13081.25
479.80	13345.73
479.98	13355.10
480.16	13439.36
480.34	13528.30
480.52	13418.29
480.70	13855.97
480.88	13462.76
481.06	13832.57
481.24	13802.14
481.41	14143.86
481.59	14286.63
481.77	14185.99
481.95	14478.55
482.13	14548.77
482.31	14438.76
482.49	14714.95
482.67	14761.76
482.85	14799.21
483.03	14719.63
483.21	15393.70
483.39	15365.62
483.57	15520.09
483.74	15374.98
483.92	15618.39
484.10	15391.36
484.28	15812.66
484.46	16290.13
484.64	16353.32
484.82	15859.47
485.00	15843.09
485.18	16149.70
485.35	16423.54
485.53	16152.04
485.71	15964.79
485.89	16238.64
486.07	16458.65
486.25	16690.36
486.43	16783.98
486.61	16744.19
486.78	17296.56
486.96	17401.88
487.14	17294.22
487.32	17408.90
487.50	17996.38
487.68	18209.37
487.85	18022.12
488.03	18314.69
488.21	18408.31
488.39	18539.38
488.57	18775.78
488.75	18567.47
488.92	18925.57
489.10	19066.00
489.28	19653.48
489.46	19524.75
489.64	19594.96
489.81	19962.43
489.99	19985.83
490.17	20152.01
490.35	20287.76
490.53	20376.70
490.70	20357.98
490.88	20311.17
491.06	21050.78
491.24	20657.57
491.41	20505.43
491.59	20657.57
491.77	20971.20
491.95	21282.49
492.13	21235.68
492.30	21523.57
492.48	21575.06
492.66	21572.72
492.84	21474.42
493.01	21790.39
493.19	22293.60
493.37	22113.38
493.54	22228.07
493.72	22401.27
493.90	22501.91
494.08	22623.62
494.25	23068.32
494.43	23080.02
494.61	23222.80
494.79	23314.08
494.96	23154.92
495.14	23555.15
495.32	23601.96
495.49	23625.37
495.67	23915.59
495.85	23838.36
496.02	23995.17
496.20	23960.06
496.38	24400.08
496.55	23950.70
496.73	24987.56
496.91	24702.01
497.09	24795.64
497.26	24882.24
497.44	25027.35
497.62	24898.62
497.79	25298.85
497.97	24933.73
498.14	25088.20
498.32	25214.59
498.50	25256.72
498.67	26099.31
498.85	25640.57
499.03	26256.13
499.20	25809.09
499.38	26204.64
499.56	26312.30
499.73	26286.56
499.91	26244.43
500.08	26452.73
500.26	26319.32
500.44	26492.52
500.61	26555.72
500.79	26249.11
500.97	26815.52
501.14	27042.55
501.32	26616.57
501.49	26834.24
501.67	27175.96
501.84	27356.18
502.02	27250.86
502.20	27405.33
502.37	27660.45
502.55	27332.78
502.72	27733.01
502.90	28016.21
503.07	27723.65
503.25	28072.39
503.43	28044.30
503.60	27880.46
503.78	27880.46
503.95	28222.18
504.13	28666.88
504.30	28783.91
504.48	28514.75
504.65	28856.46
504.83	28994.56
505.01	28737.10
505.18	28973.49
505.36	29006.26
505.53	29289.46
505.71	29390.11
505.88	29177.12
506.06	28968.81
506.23	29247.33
506.41	29439.26
506.58	29699.06
506.76	29661.61
506.93	29790.34
507.11	29675.65
507.28	29923.75
507.46	30015.03
507.63	30024.39
507.81	30043.12
507.98	30038.44
508.16	29926.09
508.33	30045.46
508.50	30590.80
508.68	30459.73
508.85	30869.33
509.03	30859.96
509.20	31000.40
509.38	31222.75
509.55	31042.53
509.73	30794.43
509.90	31299.98
510.08	31145.51
510.25	31536.38
510.42	31655.75
510.60	31833.63
510.77	31894.48
510.95	31688.51
511.12	31765.75
511.30	32051.30
511.47	32259.60
511.64	32182.37
511.82	32400.04
511.99	31821.92
512.17	32327.48
512.34	32423.44
512.51	32346.20
512.69	32334.50
512.86	32603.66
513.04	32657.49
513.21	32540.47
513.38	32713.67
513.56	32554.51
513.73	32706.65
513.90	32833.04
514.08	32992.19
514.25	33149.01
514.43	32837.72
514.60	33015.60
514.77	33394.76
514.95	33415.83
515.12	33212.20
515.29	33542.22
515.47	34176.50
515.64	33710.74
515.81	33357.32
515.99	33680.31
516.16	33591.37
516.33	33612.43
516.51	33755.21
516.68	33104.54
516.85	33167.73
517.03	33333.91
517.20	33930.75
517.37	33799.68
517.54	34284.17
517.72	34015.01
517.89	33944.79
518.06	33846.49
518.24	34012.66
518.41	33881.60
518.58	33937.77
518.75	34476.09
518.93	34572.05
519.10	34579.07
519.27	34696.10
519.45	34918.45
519.62	35194.64
519.79	35218.04
519.96	35150.17
520.14	35225.06
520.31	34808.45
520.48	35454.44
520.65	35271.87
520.83	35775.09
521.00	35461.46
521.17	35526.99
521.34	35416.99
521.52	35611.25
521.69	35791.47
521.86	36332.14
522.03	36271.28
522.20	36371.92
522.38	36357.88
522.55	36320.43
522.72	36046.59
522.89	36065.31
523.07	36795.56
523.24	36266.60
523.41	37081.11
523.58	36460.87
523.75	37277.71
523.92	36652.79
524.10	37179.41
524.27	37165.37
524.44	36938.33
524.61	37177.07
524.78	37434.53
524.96	37102.17
525.13	37345.59
525.30	37694.33
525.47	37736.46
525.64	37366.65
525.81	37834.76
525.98	37141.96
526.16	37745.82
526.33	37148.98
526.50	37603.05
526.67	37289.42
526.84	36978.12
527.01	36957.06
527.18	37336.23
527.36	37933.06
527.53	37904.98
527.70	38005.62
527.87	38007.96
528.04	37684.97
528.21	38426.92
528.38	38293.50
528.55	38380.10
528.72	38597.77
528.89	38831.83
529.07	38845.87
529.24	38323.93
529.41	38820.13
529.58	38319.25
529.75	38588.41
529.92	38728.84
530.09	39091.63
530.26	38747.57
530.43	38714.80
530.60	38843.53
530.77	39009.71
530.94	39182.91
531.11	38829.49
531.28	39028.43
531.46	39136.10
531.63	39407.60
531.80	39098.65
531.97	38906.73
532.14	39173.55
532.31	38738.21
532.48	39278.87
532.65	39482.50
532.82	39646.33
532.99	39707.19
533.16	39035.45
533.33	39463.77
533.50	40135.51
533.67	39791.45
533.84	39826.56
534.01	40044.23
534.18	39625.27
534.35	39959.97
534.52	39950.60
534.69	40289.98
534.86	40194.02
535.03	40517.01
535.20	40460.84
535.37	40634.04
535.54	40573.19
535.71	40491.27
535.88	40196.36
536.05	40332.11
536.22	40556.80
536.38	40493.61
536.55	40620.00
536.72	40587.23
536.89	39924.86
537.06	40594.25
537.23	40994.48
537.40	41106.83
537.57	40783.83
537.74	40549.78
537.91	41223.86
538.08	41315.14
538.25	40652.76
538.42	40804.90
538.59	41029.59
538.75	41099.81
538.92	41029.59
539.09	40952.35
539.26	40989.80
539.43	41132.57
539.60	41230.88
539.77	40872.78
539.94	41298.75
540.11	41041.29
540.28	40968.74
540.44	41010.87
540.61	41333.86
540.78	41418.12
540.95	41251.94
541.12	41163.00
541.29	41237.90
541.46	41525.78
541.62	41752.82
541.79	41500.04
541.96	41418.12
542.13	41951.76
542.30	41581.96
542.47	41579.62
542.63	42052.41
542.80	41886.23
542.97	42302.84
543.14	42422.21
543.31	42078.15
543.48	42403.49
543.64	43012.02
543.81	42962.87
543.98	42665.63
544.15	42450.30
544.32	42323.91
544.48	43129.05
544.65	42644.56
544.82	42803.72
544.99	42241.99
545.16	42707.76
545.32	42220.92
545.49	43271.82
545.66	43414.60
545.83	42890.32
546.00	43033.09
546.16	43049.47
546.33	42752.23
546.50	42415.19
546.67	42796.70
546.83	42419.87
547.00	43377.15
547.17	42728.82
547.34	42820.10
547.50	43203.95
547.67	43433.32
547.84	43138.41
548.00	43594.82
548.17	43625.25
548.34	43786.74
548.51	43571.41
548.67	43725.89
548.84	43573.75
549.01	43171.18
549.18	43337.36
549.34	43220.33
549.51	43306.93
549.68	44030.16
549.84	43707.16
550.01	43400.55
550.18	43702.48
550.34	43438.00
550.51	43723.55
550.68	43674.40
550.84	43112.67
551.01	43931.86
551.18	43756.32
551.34	43358.42
551.51	43580.78
551.68	44074.63
551.84	44051.22
552.01	43681.42
552.18	44088.67
552.34	43924.83
552.51	43929.51
552.68	43828.87
552.84	44034.84
553.01	44535.71
553.18	44289.96
553.34	44425.71
553.51	44762.75
553.67	44105.06
553.84	44648.06
554.01	44685.51
554.17	44935.95
554.34	44526.35
554.51	44350.81
554.67	44844.66
554.84	44388.26
555.00	43988.03
555.17	44325.07
555.33	44729.98
555.50	44542.74
555.67	44432.73
555.83	44404.64
556.00	44549.76
556.16	44767.43
556.33	44690.19
556.50	44830.62
556.66	44655.08
556.83	44479.54
556.99	44591.89
557.16	45017.86
557.32	44875.09
557.49	44765.09
557.65	44671.46
557.82	44980.42
557.98	44947.65
558.15	44847.00
558.32	44868.07
558.48	44821.26
558.65	44835.30
558.81	44594.23
558.98	44430.39
559.14	44502.95
559.31	44910.20
559.47	44779.13
559.64	44655.08
559.80	44837.64
559.97	45380.65
560.13	44463.16
560.30	45228.51
560.46	45284.68
560.63	45048.29
560.79	45574.91
560.96	45230.85
561.12	45301.07
561.29	44870.41
561.45	45038.93
561.61	45048.29
561.78	45200.43
561.94	44832.96
562.11	44989.78
562.27	44971.05
562.44	45418.10
562.60	45439.16
562.77	45427.46
562.93	44816.58
563.10	45783.22
563.26	45095.10
563.42	45790.24
563.59	44844.66
563.75	45537.46
563.92	45624.06
564.08	45588.95
564.24	45418.10
564.41	45188.72
564.57	45453.20
564.74	45034.25
564.90	44912.54
565.07	45303.41
565.23	45572.57
565.39	45296.39
565.56	45305.75
565.72	45303.41
565.88	45144.25
566.05	45521.08
566.21	45141.91
566.38	45418.10
566.54	45595.98
566.70	45652.15
566.87	45617.04
567.03	45713.00
567.19	45738.75
567.36	45797.26
567.52	45490.65
567.68	45862.80
567.85	45647.47
568.01	45507.04
568.17	45390.01
568.34	45820.67
568.50	45762.15
568.66	44992.12
568.83	45556.19
568.99	45450.86
569.15	45729.39
569.32	45340.86
569.48	45446.18
569.64	45574.91
569.81	45432.14
569.97	45502.35
570.13	46007.91
570.30	45193.40
570.46	45228.51
570.62	45162.98
570.78	45418.10
570.95	45256.60
571.11	45825.35
571.27	45244.90
571.43	45698.96
571.60	45741.09
571.76	45595.98
571.92	45516.40
572.09	45916.63
572.25	45750.45
572.41	45666.19
572.57	45565.55
572.74	46181.11
572.90	45734.07
573.06	45813.65
573.22	46160.05
573.38	45427.46
573.55	45394.69
573.71	45448.52
573.87	45766.84
574.03	45177.02
574.20	45434.48
574.36	45359.58
574.52	46040.68
574.68	45942.38
574.84	45682.58
575.01	45579.59
575.17	45509.38
575.33	45598.32
575.49	45656.83
575.65	45727.05
575.82	45776.20
575.98	45535.12
576.14	45951.74
576.30	46232.60
576.46	45907.27
576.62	45603.00
576.79	45371.28
576.95	45308.09
577.11	45694.28
577.27	45771.52
577.43	45478.95
577.59	45841.73
577.75	45659.17
577.92	45551.51
578.08	45443.84
578.24	45427.46
578.40	45724.71
578.56	45727.05
578.72	45619.38
578.88	45982.16
579.04	45911.95
579.21	45518.74
579.37	45668.53
579.53	46082.81
579.69	45258.94
579.85	45713.00
580.01	45769.18
580.17	45904.93
580.33	45647.47
580.49	45787.90
580.65	45645.13
580.82	45776.20
580.98	45610.02
581.14	45963.44
581.30	46082.81
581.46	45663.85
581.62	46227.92
581.78	45914.29
581.94	46258.35
582.10	46089.83
582.26	45872.16
582.42	45464.91
582.58	45806.62
582.74	45918.97
582.90	45958.76
583.06	45970.46
583.22	45684.92
583.38	46241.96
583.54	46026.63
583.70	45991.53
583.86	45956.42
584.02	45799.60
584.18	46312.18
584.34	46021.95
584.50	45855.78
584.66	45497.67
584.82	45890.88
584.98	45951.74
585.14	45979.82
585.30	45617.04
585.46	45593.64
585.62	45425.12
585.78	45677.90
585.94	45741.09
586.10	45680.24
586.26	45680.24
586.42	45951.74
586.58	45965.78
586.74	46190.47
586.90	45841.73
587.06	46040.68
587.22	45951.74
587.38	45933.01
587.54	45904.93
587.70	46007.91
587.86	45633.42
588.02	45492.99
588.18	45874.50
588.34	45677.90
588.49	45322.13
588.65	45233.19
588.81	45287.03
588.97	44917.22
589.13	45254.26
589.29	45586.61
589.45	45525.76
589.61	45633.42
589.77	46164.73
589.93	45872.16
590.08	46129.62
590.24	45659.17
590.40	45799.60
590.56	46134.30
590.72	45930.67
590.88	46279.41
591.04	46213.88
591.20	46274.73
591.35	46754.54
591.51	46738.16
591.67	45698.96
591.83	45581.93
591.99	45970.46
592.15	46279.41
592.31	46003.23
592.46	45893.22
592.62	46007.91
592.78	46401.12
592.94	46230.26
593.10	46078.13
593.26	46174.09
593.41	46321.54
593.57	45837.05
593.73	46234.94
593.89	46270.05
594.05	46103.87
594.20	46363.67
594.36	45937.69
594.52	45865.14
594.68	45759.81
594.84	45968.12
594.99	46050.04
595.15	45984.51
595.31	46473.68
595.47	45996.21
595.62	46052.38
595.78	46146.00
595.94	46387.08
596.10	46082.81
596.25	45972.80
596.41	46555.60
596.57	45804.28
596.73	45900.25
596.88	46113.23
597.04	45820.67
597.20	45961.10
597.36	45832.37
597.51	46677.30
597.67	46122.60
597.83	45965.78
597.99	46349.63
598.14	46415.16
598.30	45900.25
598.46	46019.61
598.61	46422.19
598.77	45684.92
598.93	46265.37
599.09	46302.82
599.24	46586.02
599.40	46358.99
599.56	46277.07
599.71	46162.39
599.87	46302.82
600.03	46307.50
600.18	46216.22
600.34	45818.33
600.50	45895.56
600.65	45895.56
600.81	46223.24
600.97	46162.39
601.12	46225.58
601.28	46019.61
601.44	45645.13
601.59	45799.60
601.75	45825.35
601.91	45815.99
602.06	46000.89
602.22	46197.49
602.37	46220.90
602.53	46244.30
602.69	45965.78
602.84	46174.09
603.00	45652.15
603.16	45982.16
603.31	45883.86
603.47	45844.07
603.62	45851.09
603.78	46225.58
603.94	46026.63
604.09	46312.18
604.25	45771.52
604.40	45799.60
604.56	46007.91
604.71	46127.28
604.87	45968.12
605.03	45944.72
605.18	45860.46
605.34	46047.70
605.49	45539.80
605.65	46169.41
605.80	45886.20
605.96	46019.61
606.12	45780.88
606.27	45925.99
606.43	45935.35
606.58	46286.43
606.74	45769.18
606.89	45415.76
607.05	45713.00
607.20	46115.58
607.36	46082.81
607.51	46323.88
607.67	45738.75
607.82	45478.95
607.98	45631.08
608.13	45862.80
608.29	45743.43
608.44	45518.74
608.60	45165.32
608.75	45951.74
608.91	45731.73
609.06	45638.11
609.22	45727.05
609.37	45682.58
609.53	45862.80
609.68	45603.00
609.84	45420.44
609.99	45258.94
610.15	45272.98
610.30	45659.17
610.46	45254.26
610.61	45024.89
610.76	45752.79
610.92	45631.08
611.07	46014.93
611.23	45708.32
611.38	45565.55
611.54	45015.52
611.69	45052.97
611.84	45130.21
612.00	45249.58
612.15	45432.14
612.31	45099.78
612.46	45106.80
612.62	45441.50
612.77	44875.09
612.92	45282.34
613.08	45151.27
613.23	44786.15
613.39	44664.44
613.54	44575.50
613.69	44729.98
613.85	44495.92
614.00	45184.04
614.15	45076.38
614.31	44884.45
614.46	45123.19
614.62	45270.64
614.77	45092.76
614.92	44816.58
615.08	44673.81
615.23	44505.29
615.38	44971.05
615.54	44629.34
615.69	44416.35
615.84	44577.84
616.00	44378.90
616.15	44673.81
616.30	44940.63
616.46	44767.43
616.61	44676.15
616.76	44105.06
616.92	44334.43
617.07	44648.06
617.22	44072.29
617.37	43983.35
617.53	44341.45
617.68	44786.15
617.83	44205.70
617.99	44540.39
618.14	44271.23
618.29	44570.82
618.45	44203.36
618.60	44002.07
618.75	43648.65
618.90	43566.73
619.06	43840.57
619.21	44018.46
619.36	44165.91
619.51	44336.77
619.67	43903.77
619.82	44088.67
619.97	43957.60
620.12	44186.97
620.28	43421.62
620.43	43761.00
620.58	43880.36
620.73	43817.17
620.89	43950.58
621.04	43941.22
621.19	43964.62
621.34	43768.02
621.49	43784.40
621.65	43861.64
621.80	43763.34
621.95	43274.16
622.10	43615.88
622.25	43866.32
622.41	43983.35
622.56	43154.80
622.71	43824.19
622.86	43320.98
623.01	43416.94
623.16	43660.35
623.32	43316.29
623.47	43145.44
623.62	43304.59
623.77	43320.98
623.92	43185.22
624.07	43213.31
624.23	42890.32
624.38	43608.86
624.53	43068.20
624.68	43386.51
624.83	43611.20
624.98	43388.85
625.13	42740.52
625.29	43232.04
625.44	43040.11
625.59	42581.37
625.74	42930.11
625.89	42770.95
626.04	42817.76
626.19	42986.28
626.34	43086.92
626.49	42749.88
626.65	42689.03
626.80	42672.65
626.95	42850.53
627.10	42450.30
627.25	42469.02
627.40	42333.27
627.55	42464.34
627.70	42930.11
627.85	42581.37
628.00	42646.90
628.15	42658.60
628.30	42436.25
628.45	43110.33
628.60	42293.48
628.76	42143.69
628.91	42377.74
629.06	41949.42
629.21	42078.15
629.36	42284.12
629.51	42309.86
629.66	42314.55
629.81	41668.56
629.96	42089.85
630.11	42033.68
630.26	42333.27
630.41	42052.41
630.56	42162.41
630.71	42181.13
630.86	42155.39
631.01	41720.05
631.16	41909.63
631.31	41773.88
631.46	41471.95
631.61	42078.15
631.76	41640.47
631.91	42106.24
632.06	42457.32
632.21	42073.47
632.36	41741.11
632.51	41640.47
632.66	41942.40
632.81	41490.68
632.96	41514.08
633.10	41558.55
633.25	41698.98
633.40	41600.68
633.55	41703.67
633.70	41385.35
633.85	41336.20
634.00	41806.65
634.15	41628.77
634.30	41284.71
634.45	41212.15
634.60	41544.51
634.75	41177.04
634.90	40832.99
635.05	40788.52
635.19	41226.20
635.34	41055.34
635.49	41261.30
635.64	41195.77
635.79	40994.48
635.94	41043.63
636.09	41233.22
636.24	40912.56
636.39	40711.28
636.53	41120.87
636.68	40952.35
636.83	40872.78
636.98	40687.87
637.13	40830.65
637.28	41581.96
637.43	41071.72
637.57	41240.24
637.72	40966.40
637.87	40638.72
638.02	40767.45
638.17	40982.78
638.32	40350.84
638.46	40343.81
638.61	40432.75
638.76	40636.38
638.91	40360.20
639.06	40673.83
639.20	41085.76
639.35	40730.00
639.50	40229.13
639.65	40765.11
639.80	40259.55
639.94	40339.13
640.09	39838.26
640.24	40123.80
640.39	40016.14
640.54	40079.33
640.68	40226.79
640.83	39770.38
640.98	40044.23
641.13	39910.82
641.27	40266.58
641.42	39405.26
641.57	40119.12
641.72	40013.80
641.86	39866.34
642.01	39985.71
642.16	39920.18
642.31	39789.11
642.45	39913.16
642.60	39983.37
642.75	39894.43
642.90	39969.33
643.04	40327.43
643.19	39772.72
643.34	39803.15
643.48	39765.70
643.63	39763.36
643.78	39512.92
643.93	39716.55
644.07	39225.04
644.22	39117.37
644.37	39246.10
644.51	39381.85
644.66	39683.78
644.81	39566.76
644.95	39318.66
645.10	39384.19
645.25	39541.01
645.39	39622.93
645.54	39466.11
645.69	39503.56
645.83	39342.06
645.98	38770.97
646.13	39356.11
646.27	39086.95
646.42	38824.81
646.57	39346.75
646.71	39108.01
646.86	39098.65
647.00	39201.63
647.15	39431.01
647.30	39285.89
647.44	39147.80
647.59	38829.49
647.74	38808.42
647.88	38920.77
648.03	39058.86
648.17	38796.72
648.32	38869.28
648.47	38651.61
648.61	38260.74
648.76	38801.40
648.90	38806.08
649.05	38888.00
649.20	38536.92
649.34	38698.42
649.49	38590.75
649.63	38686.71
649.78	38553.30
649.92	38555.64
650.07	38705.44
650.21	38323.93
650.36	38382.45
650.51	38974.60
650.65	38890.34
650.80	38836.51
650.94	38314.57
651.09	38539.26
651.23	37844.12
651.38	38263.08
651.52	38052.43
651.67	38181.16
651.81	37926.04
651.96	38120.31
652.10	38724.16
652.25	38183.50
652.39	38171.80
652.54	38127.33
652.68	37930.72
652.83	38181.16
652.97	38347.34
653.12	38312.23
653.26	37947.11
653.41	38033.71
653.55	38284.14
653.70	38216.27
653.84	38209.25
653.99	38075.84
654.13	37846.46
654.27	38019.66
654.42	37919.02
654.56	38047.75
654.71	38237.33
654.85	37993.92
655.00	37776.25
655.14	37298.78
655.29	37282.39
655.43	37207.50
655.57	37111.53
655.72	37221.54
655.86	37118.56
656.01	36971.10
656.15	36566.19
656.30	36685.56
656.44	37219.20
656.58	37008.55
656.73	37092.81
656.87	36893.86
657.01	36964.08
657.16	36907.91
657.30	36512.36
657.45	36795.56
657.59	36985.15
657.73	36961.74
657.88	36931.31
658.02	36938.33
658.16	37132.60
658.31	37179.41
658.45	36917.27
658.60	37006.21
658.74	37120.90
658.88	36683.22
659.03	36896.20
659.17	36477.25
659.31	36605.98
659.46	36236.17
659.60	36552.15
659.74	36397.67
659.89	36470.23
660.03	36460.87
660.17	36479.59
660.32	36622.36
660.46	36416.40
660.60	36282.98
660.74	35948.29
660.89	36601.30
661.03	35892.12
661.17	36390.65
661.32	36065.31
661.46	36247.88
661.60	35674.45
661.74	35550.40
661.89	35747.00
662.03	36182.34
662.17	35484.86
662.31	36231.49
662.46	36521.72
662.60	35978.72
662.74	35667.42
662.88	35672.10
663.03	35311.66
663.17	35679.13
663.31	35606.57
663.45	35447.41
663.60	35318.68
663.74	35063.57
663.88	35175.91
664.02	35194.64
664.17	35482.52
664.31	35295.28
664.45	35065.91
664.59	35103.35
664.73	35000.37
664.88	35234.42
665.02	34747.59
665.16	34873.98
665.30	34555.67
665.44	34096.92
665.59	34504.18
665.73	34466.73
665.87	34338.00
666.01	34438.64
666.15	34080.54
666.29	34038.41
666.44	34515.88
666.58	34478.43
666.72	34270.12
666.86	34347.36
667.00	34415.24
667.14	34227.99
667.28	33783.29
667.43	34033.73
667.57	34253.74
667.71	33872.23
667.85	33785.63
667.99	34024.37
668.13	33776.27
668.27	34312.25
668.41	33757.55
668.56	33785.63
668.70	33338.59
668.84	33132.62
668.98	33219.22
669.12	33174.75
669.26	33612.43
669.40	33165.39
669.54	32912.61
669.68	32987.51
669.82	33242.63
669.96	33050.70
670.10	32903.25
670.25	32533.45
670.39	32575.58
670.53	32725.37
670.67	32577.92
670.81	32772.18
670.95	32465.57
671.09	32292.37
671.23	32397.70
671.37	32308.76
671.51	32496.00
671.65	32423.44
671.79	31847.67
671.93	32055.98
672.07	32100.45
672.21	31543.40
672.35	31740.00
672.49	31936.61
672.63	31885.12
672.77	31466.16
672.91	31847.67
673.05	31789.16
673.19	31552.76
673.33	31360.84
673.47	31791.50
673.61	31318.71
673.75	31054.23
673.89	31243.81
674.03	30998.06
674.17	31105.72
674.31	31531.70
674.45	31229.77
674.59	31227.43
674.73	31531.70
674.87	31150.19
675.01	31084.65
675.15	30504.20
675.29	30630.59
675.43	30527.61
675.56	30691.44
675.70	30794.43
675.84	30522.93
675.98	29488.41
676.12	30314.62
676.26	30251.42
676.40	30349.73
676.54	29956.52
676.68	29722.46
676.82	29661.61
676.96	29610.12
677.10	29853.53
677.23	29607.78
677.37	29633.52
677.51	29149.03
677.65	29280.10
677.79	28952.43
677.93	28669.22
678.07	28795.61
678.21	28449.21
678.34	28692.63
678.48	28198.77
678.62	28264.31
678.76	28037.28
678.90	28381.34
679.04	28507.72
679.18	28283.03
679.31	27953.02
679.45	27388.95
679.59	28095.79
679.73	27772.80
679.87	27709.60
680.00	27557.47
680.14	27838.33
680.28	27384.27
680.42	27339.80
680.56	27601.94
680.70	27367.88
680.83	27489.59
680.97	27267.24
681.11	26962.97
681.25	27323.41
681.39	27094.04
681.52	27087.02
681.66	26827.22
681.80	26560.40
681.94	26576.78
682.07	26286.56
682.21	26319.32
682.35	26333.37
682.49	26321.66
682.62	26052.50
682.76	25968.24
682.90	25886.32
683.04	25694.40
683.17	25865.26
683.31	25706.10
683.45	25668.66
683.59	25734.19
683.72	25788.02
683.86	25198.21
684.00	25151.40
684.13	25116.29
684.27	24694.99
684.41	25003.94
684.55	24915.00
684.68	24889.26
684.82	24819.04
684.96	24491.37
685.09	24807.34
685.23	24376.68
685.37	24409.45
685.50	24432.85
685.64	24360.30
685.78	24030.28
685.91	24231.57
686.05	23854.74
686.19	23793.89
686.32	23438.12
686.46	23552.81
686.60	23140.88
686.73	23545.79
686.87	23328.12
687.01	23164.28
687.14	22637.66
687.28	22806.18
687.42	23173.64
687.55	22644.68
687.69	22984.06
687.82	22717.24
687.96	22682.13
688.10	22593.19
688.23	22326.37
688.37	22394.25
688.50	22256.15
688.64	22597.87
688.78	22033.80
688.91	22038.48
689.05	22043.17
689.18	21710.81
689.32	21476.76
689.46	21951.88
689.59	22036.14
689.73	22031.46
689.86	21891.03
690.00	21418.24
690.13	21429.94
690.27	21226.32
690.41	21383.13
690.54	21202.91
690.68	21151.42
690.81	21259.09
690.95	21345.69
691.08	20882.26
691.22	20936.09
691.35	20945.45
691.49	20706.72
691.62	20767.57
691.76	21048.44
691.89	20683.31
692.03	20561.61
692.16	20372.02
692.30	20414.15
692.43	20168.40
692.57	19946.05
692.70	19807.95
692.84	19761.14
692.97	19522.41
693.11	19466.24
693.24	19449.85
693.38	19484.96
693.51	19482.62
693.65	19515.39
693.78	19421.77
693.92	19758.80
694.05	18871.74
694.19	18981.74
694.32	18888.12
694.45	19019.19
694.59	19117.50
694.72	18820.25
694.86	18953.66
694.99	18604.92
695.13	18466.83
695.26	18808.54
695.39	18326.39
695.53	18616.62
695.66	18616.62
695.80	18237.45
695.93	18382.57
696.07	18211.71
696.20	18216.39
696.33	18139.15
696.47	17823.18
696.60	17921.48
696.73	18031.49
696.87	17659.34
697.00	17675.73
697.14	17202.94
697.27	17420.61
697.40	17422.95
697.54	17224.00
697.67	17322.30
697.80	16936.12
697.94	16924.41
698.07	17027.40
698.21	16837.81
698.34	17041.44
698.47	16847.18
698.61	16636.53
698.74	16561.63
698.87	16748.87
699.01	16437.58
699.14	16322.90
699.27	16255.02
699.40	16133.31
699.54	16119.27
699.67	16018.63
699.80	16004.58
699.94	15941.39
700.07	16126.29
700.20	16058.42
700.34	15800.96
700.47	15815.00
700.60	15850.11
700.73	15644.14
700.87	15859.47
701.00	15501.37
701.13	15414.77
701.26	15323.49
701.40	15550.52
701.53	15225.18
701.66	15037.94
701.79	14967.73
701.93	14857.72
702.06	14815.59
702.19	14853.04
702.32	15166.67
702.46	15049.64
702.59	14890.49
702.72	14750.06
702.85	14452.81
702.99	14560.47
703.12	14293.65
703.25	14469.19
703.38	14511.32
703.51	14387.27
703.65	14164.92
703.78	14031.51
703.91	13893.42
704.04	13987.04
704.17	13912.14
704.31	13729.58
704.44	13589.15
704.57	13621.92
704.70	13813.84
704.83	13605.53
704.96	13523.62
705.10	13385.52
705.23	13437.02
>>>>>End Processed Spectral Data<<<<<
