SpectraSuite Data File
++++++++++++++++++++++++++++++++++++
Date: Fri Oct 25 11:33:45 EDT 2013
User: price-jones
Dark Spectrum Present: No
Reference Spectrum Present: No
Number of Sampled Component Spectra: 1
Spectrometers: USB2+H05261
Integration Time (usec): 100000 (USB2+H05261)
Spectra Averaged: 1 (USB2+H05261)
Boxcar Smoothing: 0 (USB2+H05261)
Correct for Electrical Dark: No (USB2+H05261)
Strobe/Lamp Enabled: No (USB2+H05261)
Correct for Detector Non-linearity: No (USB2+H05261)
Correct for Stray Light: No (USB2+H05261)
Number of Pixels in Processed Spectrum: 2048
>>>>>Begin Processed Spectral Data<<<<<
365.73	294.91
365.92	294.91
366.12	294.91
366.32	245.76
366.52	238.73
366.72	234.05
366.91	231.71
367.11	142.77
367.31	131.07
367.51	133.41
367.70	149.79
367.90	250.44
368.10	257.46
368.30	163.84
368.49	198.95
368.69	147.45
368.89	177.88
369.09	220.01
369.28	231.71
369.48	215.33
369.68	201.29
369.87	273.84
370.07	231.71
370.27	264.48
370.47	299.59
370.66	477.47
370.86	500.87
371.06	575.77
371.25	599.18
371.45	547.69
371.65	498.53
371.84	573.43
372.04	510.24
372.24	575.77
372.44	528.96
372.63	617.90
372.83	568.75
373.03	580.45
373.22	587.47
373.42	599.18
373.62	582.79
373.81	643.65
374.01	653.01
374.21	653.01
374.40	643.65
374.60	718.54
374.79	671.73
374.99	655.35
375.19	653.01
375.38	594.50
375.58	667.05
375.78	676.41
375.97	695.14
376.17	669.39
376.37	774.72
376.56	674.07
376.76	669.39
376.95	727.91
377.15	688.12
377.35	683.44
377.54	664.71
377.74	718.54
377.93	660.03
378.13	606.20
378.33	725.57
378.52	657.69
378.72	739.61
378.91	774.72
379.11	697.48
379.31	676.41
379.50	683.44
379.70	699.82
379.89	713.86
380.09	779.40
380.28	723.23
380.48	763.01
380.68	704.50
380.87	746.63
381.07	751.31
381.26	676.41
381.46	713.86
381.65	690.46
381.85	807.48
382.04	702.16
382.24	826.21
382.43	828.55
382.63	685.78
382.83	812.17
383.02	753.65
383.22	849.61
383.41	758.33
383.61	795.78
383.80	891.74
384.00	835.57
384.19	856.64
384.39	830.89
384.58	873.02
384.78	751.31
384.97	861.32
385.17	814.51
385.36	805.14
385.56	866.00
385.75	795.78
385.95	847.27
386.14	819.19
386.34	819.19
386.53	856.64
386.72	943.24
386.92	940.90
387.11	922.17
387.31	880.04
387.50	858.98
387.70	901.11
387.89	922.17
388.09	866.00
388.28	1006.43
388.48	978.34
388.67	936.21
388.86	940.90
389.06	915.15
389.25	929.19
389.45	1011.11
389.64	1004.09
389.84	1004.09
390.03	983.02
390.22	1015.79
390.42	964.30
390.61	952.60
390.81	985.37
391.00	973.66
391.19	1006.43
391.39	990.05
391.58	1027.50
391.78	1081.33
391.97	1057.92
392.16	983.02
392.36	1069.62
392.55	1001.75
392.75	1104.73
392.94	1032.18
393.13	1039.20
393.33	952.60
393.52	1181.97
393.71	1041.54
393.91	1062.60
394.10	1114.10
394.29	1032.18
394.49	1036.86
394.68	1128.14
394.88	1139.84
395.07	1114.10
395.26	1128.14
395.46	1196.01
395.65	1263.89
395.84	1090.69
396.04	1212.40
396.23	1256.87
396.42	1181.97
396.62	1160.91
396.81	1205.38
397.00	1210.06
397.19	1235.80
397.39	1308.36
397.58	1357.51
397.77	1277.93
397.97	1266.23
398.16	1247.51
398.35	1334.11
398.55	1235.80
398.74	1315.38
398.93	1273.25
399.12	1324.74
399.32	1291.98
399.51	1214.74
399.70	1427.73
399.90	1263.89
400.09	1348.15
400.28	1355.17
400.47	1336.45
400.67	1394.96
400.86	1495.60
401.05	1423.05
401.24	1404.32
401.44	1434.75
401.63	1474.54
401.82	1399.64
402.01	1427.73
402.21	1533.05
402.40	1479.22
402.59	1554.12
402.78	1519.01
402.97	1495.60
403.17	1551.78
403.36	1521.35
403.55	1526.03
403.74	1535.39
403.93	1643.06
404.13	1607.95
404.32	1717.95
404.51	1605.61
404.70	1614.97
404.89	1624.33
405.09	1727.32
405.28	1694.55
405.47	1659.44
405.66	1783.49
405.85	1753.06
406.05	1633.69
406.24	1664.12
406.43	1816.26
406.62	1788.17
406.81	1842.00
407.00	1778.81
407.20	1797.53
407.39	1851.36
407.58	1834.98
407.77	1954.35
407.96	1923.92
408.15	1839.66
408.34	1849.02
408.54	1900.52
408.73	1825.62
408.92	1944.99
409.11	1994.14
409.30	1928.60
409.49	1900.52
409.68	1942.64
409.87	2019.88
410.07	2057.33
410.26	2054.99
410.45	2083.08
410.64	2045.63
410.83	2080.74
411.02	2108.82
411.21	2132.23
411.40	2118.18
411.59	2125.21
411.78	2127.55
411.98	2216.49
412.17	2146.27
412.36	2200.10
412.55	2340.54
412.74	2413.09
412.93	2298.41
413.12	2324.15
413.31	2509.05
413.50	2427.14
413.69	2326.49
413.88	2539.48
414.07	2455.22
414.26	2375.64
414.45	2567.57
414.64	2551.18
414.83	2509.05
415.02	2616.72
415.22	2609.70
415.41	2637.78
415.60	2628.42
415.79	2626.08
415.98	2740.77
416.17	2729.06
416.36	2684.59
416.55	2757.15
416.74	2759.49
416.93	2792.26
417.12	2839.07
417.31	2836.73
417.50	2906.95
417.69	2876.52
417.88	2993.55
418.07	3007.59
418.26	3038.02
418.45	2974.82
418.64	3171.43
418.83	3157.38
419.02	3103.55
419.21	3047.38
419.39	3087.17
419.58	3077.80
419.77	3073.12
419.96	3309.52
420.15	3159.72
420.34	3255.69
420.53	3143.34
420.72	3199.51
420.91	3208.87
421.10	3342.28
421.29	3265.05
421.48	3279.09
421.67	3311.86
421.86	3227.60
422.05	3328.24
422.24	3325.90
422.43	3363.35
422.61	3375.05
422.80	3442.93
422.99	3358.67
423.18	3445.27
423.37	3419.52
423.56	3403.14
423.75	3478.04
423.94	3337.60
424.13	3339.94
424.32	3332.92
424.50	3456.97
424.69	3489.74
424.88	3674.64
425.07	3517.83
425.26	3480.38
425.45	3620.81
425.64	3365.69
425.83	3424.20
426.01	3440.59
426.20	3393.78
426.39	3424.20
426.58	3536.55
426.77	3559.95
426.96	3520.17
427.15	3522.51
427.33	3562.30
427.52	3609.11
427.71	3609.11
427.90	3562.30
428.09	3655.92
428.28	3529.53
428.46	3669.96
428.65	3719.11
428.84	3899.33
429.03	3728.47
429.22	3630.17
429.40	3684.00
429.59	3749.54
429.78	3590.38
429.97	3667.62
430.16	3723.79
430.34	3932.10
430.53	3985.93
430.72	3775.28
430.91	3817.41
431.10	3875.93
431.28	3955.51
431.47	3953.16
431.66	4009.34
431.85	4077.21
432.03	4107.64
432.22	4128.70
432.41	4072.53
432.60	4028.06
432.79	4147.43
432.97	4227.01
433.16	4063.17
433.35	4166.15
433.54	4229.35
433.72	4236.37
433.91	4126.36
434.10	4273.82
434.28	4241.05
434.47	4168.49
434.66	4367.44
434.85	4269.14
435.03	4421.27
435.22	4468.08
435.41	4465.74
435.59	4372.12
435.78	4512.55
435.97	4449.36
436.16	4332.33
436.34	4475.10
436.53	4369.78
436.72	4491.49
436.90	4355.74
437.09	4535.96
437.28	4573.41
437.46	4498.51
437.65	4648.30
437.84	4599.15
438.02	4599.15
438.21	4713.84
438.40	4620.22
438.58	4770.01
438.77	4807.46
438.96	4638.94
439.14	4767.67
439.33	4891.72
439.52	4837.89
439.70	4964.28
439.89	5076.62
440.08	4971.30
440.26	5139.82
440.45	5053.22
440.63	5046.20
440.82	5324.72
441.01	5114.07
441.19	5195.99
441.38	5191.31
441.57	5219.39
441.75	5364.51
441.94	5551.75
442.12	5444.09
442.31	5362.17
442.50	5458.13
442.68	5338.76
442.87	5495.58
443.05	5514.30
443.24	5437.06
443.43	5568.13
443.61	5434.72
443.80	5774.10
443.98	5554.09
444.17	5254.50
444.35	5743.67
444.54	5776.44
444.73	5664.10
444.91	5659.42
445.10	5771.76
445.28	5738.99
445.47	5465.15
445.65	5757.72
445.84	5774.10
446.02	5834.96
446.21	5797.51
446.39	5516.64
446.58	5738.99
446.77	5593.88
446.95	5703.89
447.14	5837.30
447.32	5741.33
447.51	5671.12
447.69	5790.49
447.88	5832.62
448.06	5713.25
448.25	5898.15
448.43	5921.56
448.62	5895.81
448.80	5879.43
448.99	5959.00
449.17	5881.77
449.36	5966.03
449.54	6031.56
449.73	6155.61
449.91	6076.03
450.10	6143.91
450.28	6064.33
450.46	6029.22
450.65	6033.90
450.83	6066.67
451.02	6216.46
451.20	6176.67
451.39	6171.99
451.57	6162.63
451.76	6218.80
451.94	6090.07
452.13	6359.24
452.31	6242.21
452.49	6127.52
452.68	6352.21
452.86	6265.61
453.05	6469.24
453.23	6289.02
453.42	6340.51
453.60	6176.67
453.78	6464.56
453.97	6455.20
454.15	6502.01
454.34	6609.67
454.52	6579.25
454.70	6476.26
454.89	6502.01
455.07	6574.56
455.26	6803.94
455.44	6789.89
455.62	6724.36
455.81	6647.12
455.99	6717.34
456.17	6890.54
456.36	6738.40
456.54	6862.45
456.73	6984.16
456.91	7026.29
457.09	6956.07
457.28	7117.57
457.46	6930.33
457.64	7005.22
457.83	7061.40
458.01	6995.86
458.19	7117.57
458.38	7204.17
458.56	7424.18
458.74	7307.15
458.93	7133.95
459.11	7190.13
459.29	7250.98
459.48	7360.98
459.66	7421.84
459.84	7232.26
460.03	7438.22
460.21	7536.52
460.39	7295.45
460.57	7440.56
460.76	7595.04
460.94	7398.43
461.12	7564.61
461.31	7590.36
461.49	7576.31
461.67	7641.85
461.85	7740.15
462.04	7534.18
462.22	7822.07
462.40	7653.55
462.59	7908.67
462.77	7793.98
462.95	7634.83
463.13	7779.94
463.32	7812.71
463.50	7838.45
463.68	7908.67
463.86	7908.67
464.05	8056.12
464.23	7971.86
464.41	8072.51
464.59	7922.71
464.78	8187.19
464.96	8088.89
465.14	7768.24
465.32	8077.19
465.50	8131.02
465.69	7955.48
465.87	8072.51
466.05	8035.06
466.23	8093.57
466.41	8278.47
466.60	8257.41
466.78	8086.55
466.96	8304.22
467.14	8414.23
467.32	8388.48
467.51	8596.79
467.69	8273.79
467.87	8226.98
468.05	8329.97
468.23	8489.12
468.41	8269.11
468.60	8528.91
468.78	8538.27
468.96	8428.27
469.14	8683.39
469.32	8704.45
469.50	8517.21
469.69	8863.61
469.87	8622.53
470.05	8837.86
470.23	8851.91
470.41	8676.37
470.59	9004.04
470.77	8758.28
470.95	8997.02
471.14	9153.84
471.32	8865.95
471.50	9233.41
471.68	9083.62
471.86	9235.75
472.04	9217.03
472.22	9252.14
472.40	9139.79
472.58	9174.90
472.77	9142.13
472.95	9294.27
473.13	9647.69
473.31	9462.79
473.49	9376.19
473.67	9666.41
473.85	9575.13
474.03	9668.75
474.21	9664.07
474.39	9767.06
474.57	9996.43
474.75	10050.26
474.93	9970.68
475.12	9872.38
475.30	10099.41
475.48	9963.66
475.66	10071.33
475.84	9891.10
476.02	10274.95
476.20	10153.24
476.38	10485.60
476.56	10623.69
476.74	10721.99
476.92	10483.26
477.10	10518.37
477.28	10534.75
477.46	10857.75
477.64	10998.18
477.82	11014.56
478.00	11246.27
478.18	11164.36
478.36	11255.64
478.54	11477.99
478.72	11543.52
478.90	11412.45
479.08	11632.46
479.26	11796.30
479.44	11702.68
479.62	11824.39
479.80	12084.19
479.98	12084.19
480.16	12322.92
480.34	12177.81
480.52	12376.75
480.70	12594.42
480.88	12208.23
481.06	12180.15
481.24	12484.42
481.41	12552.29
481.59	12800.39
481.77	12975.93
481.95	12760.60
482.13	13057.85
482.31	13043.81
482.49	13275.52
482.67	13214.66
482.85	13596.17
483.03	13680.43
483.21	13401.91
483.39	13926.19
483.57	13781.07
483.74	13933.21
483.92	14108.75
484.10	13965.98
484.28	14611.96
484.46	14602.60
484.64	14693.88
484.82	14501.96
485.00	14815.59
485.18	14831.97
485.35	15115.18
485.53	14904.53
485.71	15185.40
485.89	15466.26
486.07	15279.02
486.25	15520.09
486.43	15316.47
486.61	15707.34
486.78	15796.28
486.96	15768.19
487.14	15995.22
487.32	15939.05
487.50	16407.16
487.68	16475.03
487.85	16631.85
488.03	16903.35
488.21	16978.25
488.39	16807.39
488.57	16915.05
488.75	17425.29
488.92	17289.54
489.10	17584.44
489.28	17556.36
489.46	18057.23
489.64	17785.73
489.81	17893.40
489.99	18398.95
490.17	18345.12
490.35	18424.70
490.53	18728.97
490.70	18923.23
490.88	18717.26
491.06	18883.44
491.24	18906.85
491.41	19140.90
491.59	19112.81
491.77	19145.58
491.95	19304.74
492.13	19716.67
492.30	19461.55
492.48	20011.58
492.66	19922.64
492.84	19777.53
493.01	20119.24
493.19	19955.41
493.37	20446.92
493.54	20379.04
493.72	20526.50
493.90	20772.25
494.08	20865.88
494.25	20973.54
494.43	20723.10
494.61	20989.92
494.79	21378.45
494.96	21284.83
495.14	21591.44
495.32	21752.94
495.49	21872.31
495.67	22001.04
495.85	21685.06
496.02	22288.92
496.20	22401.27
496.38	22476.16
496.55	22403.61
496.73	22913.84
496.91	22511.27
497.09	22768.73
497.26	22930.23
497.44	22995.76
497.62	23157.26
497.79	23527.06
497.97	23300.03
498.14	23726.01
498.32	24170.71
498.50	23641.75
498.67	24149.65
498.85	23934.32
499.03	23941.34
499.20	24425.83
499.38	24121.56
499.56	24056.03
499.73	24613.07
499.91	24318.17
500.08	24884.58
500.26	24664.57
500.44	24533.50
500.61	25137.35
500.79	25041.39
500.97	25156.08
501.14	25165.44
501.32	25296.51
501.49	25109.27
501.67	25425.24
501.84	25736.53
502.02	25610.14
502.20	25916.75
502.37	25940.16
502.55	26012.71
502.72	25788.02
502.90	26064.21
503.07	25982.29
503.25	26106.34
503.43	26150.81
503.60	26675.09
503.78	26499.55
503.95	26506.57
504.13	26780.41
504.30	26771.05
504.48	26242.09
504.65	26864.67
504.83	27124.47
505.01	27187.66
505.18	27447.46
505.36	27021.48
505.53	27229.79
505.71	27206.39
505.88	27524.70
506.06	27356.18
506.23	28025.57
506.41	27630.02
506.58	27573.85
506.76	27990.47
506.93	27892.16
507.11	27831.31
507.28	28236.22
507.46	27976.42
507.63	28339.21
507.81	28294.74
507.98	28364.95
508.16	28793.27
508.33	28718.37
508.50	29123.29
508.68	28582.62
508.85	28971.15
509.03	29319.89
509.20	28886.89
509.38	29427.56
509.55	29347.98
509.73	29685.01
509.90	29603.10
510.08	29462.66
510.25	29521.18
510.42	29792.68
510.60	29942.47
510.77	29769.27
510.95	30321.64
511.12	30024.39
511.30	30015.03
511.47	30228.02
511.64	29972.90
511.82	30263.13
511.99	30522.93
512.17	30799.11
512.34	30469.09
512.51	31026.14
512.69	31124.44
512.86	30616.55
513.04	31323.39
513.21	30902.09
513.38	31175.94
513.56	31374.88
513.73	31180.62
513.90	31028.48
514.08	30838.90
514.25	31690.85
514.43	31583.19
514.60	31871.07
514.77	31622.98
514.95	31754.05
515.12	31557.44
515.29	32044.27
515.47	32201.09
515.64	32362.59
515.81	32023.21
515.99	32030.23
516.16	32540.47
516.33	32404.72
516.51	32758.14
516.68	32105.13
516.85	32414.08
517.03	32945.38
517.20	33153.69
517.37	32734.73
517.54	32467.91
517.72	33055.39
517.89	32989.85
518.06	33230.93
518.24	33364.34
518.41	32959.42
518.58	33153.69
518.75	33034.32
518.93	33186.46
519.10	33776.27
519.27	33558.60
519.45	33425.19
519.62	33656.90
519.79	33687.33
519.96	33804.36
520.14	33748.18
520.31	33895.64
520.48	33851.17
520.65	34108.63
520.83	34398.85
521.00	34342.68
521.17	34466.73
521.34	34307.57
521.52	34927.81
521.69	34579.07
521.86	34314.59
522.03	35070.59
522.20	35105.70
522.38	35391.24
522.55	35407.62
522.72	34967.60
522.89	35611.25
523.07	35283.58
523.24	34939.52
523.41	35426.35
523.58	35541.03
523.75	35243.79
523.92	35351.45
524.10	35641.68
524.27	35796.15
524.44	35648.70
524.61	35608.91
524.78	35599.55
524.96	35707.21
525.13	35838.28
525.30	36100.42
525.47	36084.04
525.64	36229.15
525.81	36198.73
525.98	36416.40
526.16	36254.90
526.33	36364.90
526.50	36797.90
526.67	36421.08
526.84	36650.45
527.01	36641.09
527.18	36622.36
527.36	36786.20
527.53	36701.94
527.70	37062.38
527.87	37156.00
528.04	37055.36
528.21	37088.13
528.38	37258.99
528.55	37347.93
528.72	37160.69
528.89	37518.79
529.07	37177.07
529.24	37352.61
529.41	37502.40
529.58	37574.96
529.75	37340.91
529.92	37841.78
530.09	37769.22
530.26	37687.31
530.43	38274.78
530.60	37574.96
530.77	37741.14
530.94	37844.12
531.11	37570.28
531.28	38148.39
531.46	37935.40
531.63	38146.05
531.80	38085.20
531.97	38485.43
532.14	38508.83
532.31	38560.33
532.48	38490.11
532.65	38562.67
532.82	38417.55
532.99	38480.75
533.16	38660.97
533.33	38939.49
533.50	38658.63
533.67	38667.99
533.84	39115.03
534.01	38810.76
534.18	38862.26
534.35	39105.67
534.52	38965.24
534.69	39529.31
534.86	39264.83
535.03	39208.65
535.20	39281.21
535.37	39536.33
535.54	39852.30
535.71	39716.55
535.88	39618.25
536.05	39505.90
536.22	39629.95
536.38	40128.48
536.55	39763.36
536.72	40039.54
536.89	39435.69
537.06	39880.39
537.23	40217.43
537.40	40222.11
537.57	39878.05
537.74	40004.44
537.91	40133.17
538.08	40177.64
538.25	40023.16
538.42	40407.01
538.59	40622.34
538.75	40229.13
538.92	40652.76
539.09	40353.18
539.26	40418.71
539.43	40217.43
539.60	40758.09
539.77	40664.47
539.94	40641.06
540.11	40917.25
540.28	41064.70
540.44	40744.05
540.61	40781.49
540.78	40882.14
540.95	40912.56
541.12	41008.53
541.29	40556.80
541.46	40985.12
541.62	41078.74
541.79	41249.60
541.96	40907.88
542.13	40861.07
542.30	40996.82
542.47	41483.66
542.63	41364.29
542.80	41670.90
542.97	41982.19
543.14	41888.57
543.31	41666.22
543.48	41759.84
543.64	42143.69
543.81	42101.56
543.98	42272.42
544.15	42251.35
544.32	42103.90
544.48	42389.44
544.65	42586.05
544.82	42773.29
544.99	42312.20
545.16	42478.38
545.32	42539.24
545.49	42923.08
545.66	42548.60
545.83	42429.23
546.00	42667.97
546.16	42560.30
546.33	42773.29
546.50	42813.08
546.67	42693.71
546.83	42223.26
547.00	42646.90
547.17	42674.99
547.34	43089.26
547.50	43611.20
547.67	43229.69
547.84	42866.91
548.00	43178.20
548.17	43751.63
548.34	42976.92
548.51	43599.50
548.67	43508.22
548.84	43391.19
549.01	43030.75
549.18	43203.95
549.34	43702.48
549.51	43749.29
549.68	44144.84
549.84	43253.10
550.01	43744.61
550.18	43246.08
550.34	43622.90
550.51	43803.13
550.68	43538.65
550.84	43175.86
551.01	43756.32
551.18	43732.91
551.34	43475.45
551.51	43873.34
551.68	43910.79
551.84	43892.07
552.01	44144.84
552.18	43625.25
552.34	43576.09
552.51	43887.39
552.68	43826.53
552.84	44121.44
553.01	44229.10
553.18	43627.59
553.34	44435.07
553.51	44203.36
553.67	44343.79
553.84	44074.63
554.01	44605.93
554.17	44538.05
554.34	44285.28
554.51	44870.41
554.67	44804.88
554.84	44678.49
555.00	44577.84
555.17	44837.64
555.33	44545.08
555.50	44442.09
555.67	44861.05
555.83	44718.28
556.00	44924.24
556.16	45308.09
556.33	45027.23
556.50	44933.60
556.66	44605.93
556.83	45223.83
556.99	45120.85
557.16	45214.47
557.32	45469.59
557.49	45326.81
557.65	44825.94
557.82	45373.63
557.98	44971.05
558.15	45237.87
558.32	45500.01
558.48	45006.16
558.65	45223.83
558.81	45228.51
558.98	45565.55
559.14	45420.44
559.31	45600.66
559.47	45631.08
559.64	45530.44
559.80	45265.96
559.97	45485.97
560.13	45287.03
560.30	45378.31
560.46	45745.77
560.63	45605.34
560.79	45794.92
560.96	46260.69
561.12	45724.71
561.29	45907.27
561.45	45780.88
561.61	46061.74
561.78	45560.87
561.94	45937.69
562.11	45858.12
562.27	45787.90
562.44	46110.89
562.60	46080.47
562.77	45584.27
562.93	45677.90
563.10	46204.52
563.26	45280.00
563.42	46557.94
563.59	45993.87
563.75	45841.73
563.92	45958.76
564.08	45605.34
564.24	46457.29
564.41	46127.28
564.57	46003.23
564.74	45982.16
564.90	45954.08
565.07	45940.04
565.23	46473.68
565.39	46213.88
565.56	46466.66
565.72	46396.44
565.88	46384.74
566.05	46286.43
566.21	46415.16
566.38	46291.12
566.54	46307.50
566.70	46560.28
566.87	46288.77
567.03	46120.26
567.19	46534.53
567.36	46389.42
567.52	46459.63
567.68	46707.73
567.85	46431.55
568.01	46471.34
568.17	46237.28
568.34	46614.11
568.50	46789.65
568.66	46209.20
568.83	46604.75
568.99	46396.44
569.15	46314.52
569.32	46309.84
569.48	46658.58
569.64	46740.50
569.81	46628.15
569.97	46696.03
570.13	46766.24
570.30	46344.95
570.46	47140.73
570.62	46740.50
570.78	46494.74
570.95	46864.55
571.11	47004.98
571.27	46497.08
571.43	47105.62
571.60	47042.43
571.76	46593.04
571.92	46611.77
572.09	47065.83
572.25	46794.33
572.41	46553.26
572.57	46894.97
572.74	46969.87
572.90	46614.11
573.06	46916.04
573.22	47171.16
573.38	46946.47
573.55	47016.68
573.71	47669.69
573.87	47208.61
574.03	46527.51
574.20	47063.49
574.36	46997.96
574.52	47016.68
574.68	47189.88
574.84	47033.07
575.01	46873.91
575.17	47241.37
575.33	47044.77
575.49	46756.88
575.65	47054.13
575.82	47353.72
575.98	47061.15
576.14	47194.56
576.30	47334.99
576.46	46974.55
576.62	46677.30
576.79	46981.57
576.95	46824.76
577.11	47171.16
577.27	47426.28
577.43	47250.74
577.59	47145.41
577.75	47051.79
577.92	47180.52
578.08	46904.34
578.24	46883.27
578.40	47409.89
578.56	47349.04
578.72	46576.66
578.88	47346.70
579.04	47164.14
579.21	46595.38
579.37	47276.48
579.53	47058.81
579.69	47271.80
579.85	47122.01
580.01	47278.82
580.17	47047.11
580.33	47192.22
580.49	47466.06
580.65	47494.15
580.82	47122.01
580.98	47320.95
581.14	46962.85
581.30	47426.28
581.46	47002.64
581.62	47236.69
581.78	46988.60
581.94	47477.77
582.10	47365.42
582.26	47084.56
582.42	47140.73
582.58	47672.03
582.74	47210.95
582.90	47112.64
583.06	47447.34
583.22	47320.95
583.38	47716.50
583.54	47161.79
583.70	47590.11
583.86	47033.07
584.02	47203.92
584.18	47564.37
584.34	47498.83
584.50	47648.63
584.66	47833.53
584.82	47557.35
584.98	47653.31
585.14	47936.51
585.30	47126.69
585.46	47236.69
585.62	46997.96
585.78	47641.60
585.94	47047.11
586.10	47536.28
586.26	48034.81
586.42	47334.99
586.58	47386.49
586.74	47648.63
586.90	47627.56
587.06	47264.78
587.22	47480.11
587.38	47042.43
587.54	47917.79
587.70	47571.39
587.86	47578.41
588.02	47283.50
588.18	47566.71
588.34	47543.30
588.49	47580.75
588.65	47826.51
588.81	47290.52
588.97	47681.39
589.13	47459.04
589.29	47407.55
589.45	47819.49
589.61	48002.05
589.77	47878.00
589.93	47533.94
590.08	47707.14
590.24	48112.05
590.40	47962.26
590.56	47973.96
590.72	48016.09
590.88	47847.57
591.04	47662.67
591.20	48011.41
591.35	47629.90
591.51	48257.17
591.67	47931.83
591.83	48119.07
591.99	47838.21
592.15	47978.64
592.31	47686.07
592.46	47887.36
592.62	47999.71
592.78	47995.03
592.94	48154.18
593.10	47976.30
593.26	48191.63
593.41	48306.32
593.57	48289.93
593.73	48037.16
593.89	48685.48
594.05	48208.01
594.20	48198.65
594.36	48245.46
594.52	48229.08
594.68	48065.24
594.84	48086.31
594.99	48196.31
595.15	47899.06
595.31	48311.00
595.47	48533.35
595.62	48039.50
595.78	48435.05
595.94	48119.07
596.10	48222.06
596.25	48444.41
596.41	48158.86
596.57	48182.27
596.73	48554.41
596.88	48329.72
597.04	48236.10
597.20	48357.81
597.36	48238.44
597.51	48280.57
597.67	48090.99
597.83	48278.23
597.99	48467.81
598.14	48203.33
598.30	48287.59
598.46	48238.44
598.61	48568.46
598.77	48711.23
598.93	48311.00
599.09	48390.58
599.24	48832.94
599.40	48430.36
599.56	48584.84
599.71	48498.24
599.87	48739.32
600.03	48598.88
600.18	48591.86
600.34	48456.11
600.50	48023.11
600.65	48631.65
600.81	48158.86
600.97	48512.28
601.12	48339.08
601.28	48348.45
601.44	48636.33
601.59	48484.20
601.75	48259.51
601.91	48507.60
602.06	48215.04
602.22	48685.48
602.37	48083.97
602.53	48287.59
602.69	48121.41
602.84	48493.56
603.00	48254.82
603.16	48208.01
603.31	48229.08
603.47	48538.03
603.62	48240.78
603.78	48566.12
603.94	48437.39
604.09	48741.66
604.25	48266.53
604.40	48303.98
604.56	48556.75
604.71	48760.38
604.87	48119.07
605.03	48133.12
605.18	48465.47
605.34	48851.66
605.49	48144.82
605.65	48493.56
605.80	48327.38
605.96	48158.86
606.12	48362.49
606.27	48266.53
606.43	48072.26
606.58	48444.41
606.74	48083.97
606.89	48449.09
607.05	48259.51
607.20	48659.74
607.36	48519.31
607.51	48615.27
607.67	47847.57
607.82	48348.45
607.98	48376.53
608.13	48266.53
608.29	48184.61
608.44	48172.91
608.60	47889.70
608.75	48409.30
608.91	47906.08
609.06	47896.72
609.22	48449.09
609.37	47948.21
609.53	48538.03
609.68	48109.71
609.84	47959.92
609.99	48247.80
610.15	47896.72
610.30	48095.67
610.46	47791.40
610.61	48123.75
610.76	48313.34
610.92	47742.25
611.07	47562.03
611.23	47807.78
611.38	47826.51
611.54	48081.63
611.69	48259.51
611.84	48018.43
612.00	47988.00
612.15	48046.52
612.31	47945.87
612.46	47709.48
612.62	47885.02
612.77	47892.04
612.92	48268.87
613.08	47765.65
613.23	47332.65
613.39	47756.29
613.54	47189.88
613.69	47791.40
613.85	47707.14
614.00	47363.08
614.15	47700.12
614.31	47749.27
614.46	47550.32
614.62	47374.78
614.77	47826.51
614.92	47243.71
615.08	47669.69
615.23	47519.90
615.38	47634.58
615.54	47791.40
615.69	47772.67
615.84	47639.26
616.00	47611.18
616.15	47334.99
616.30	47461.38
616.46	47276.48
616.61	47419.25
616.76	47459.04
616.92	47290.52
617.07	47103.28
617.22	47227.33
617.37	47117.32
617.53	47278.82
617.68	47498.83
617.83	47730.54
617.99	47611.18
618.14	47124.35
618.29	46920.72
618.45	47185.20
618.60	47208.61
618.75	47026.04
618.90	47063.49
619.06	47220.31
619.21	47065.83
619.36	47096.26
619.51	47047.11
619.67	46965.19
619.82	47164.14
619.97	47058.81
620.12	46995.62
620.28	46948.81
620.43	46813.05
620.58	46927.74
620.73	46997.96
620.89	47255.42
621.04	47194.56
621.19	46862.21
621.34	46534.53
621.49	46525.17
621.65	47047.11
621.80	47611.18
621.95	46969.87
622.10	46925.40
622.25	46918.38
622.41	46887.95
622.56	46681.98
622.71	47077.54
622.86	46930.08
623.01	46707.73
623.16	46593.04
623.32	46628.15
623.47	46246.65
623.62	46569.64
623.77	46590.70
623.92	46777.95
624.07	46693.69
624.23	46866.89
624.38	46784.97
624.53	46288.77
624.68	45984.51
624.83	46483.04
624.98	46604.75
625.13	45837.05
625.29	46017.27
625.44	46380.06
625.59	46625.81
625.74	46401.12
625.89	46017.27
626.04	46038.34
626.19	46106.21
626.34	46038.34
626.49	45991.53
626.65	45848.75
626.80	46054.72
626.95	45495.33
627.10	45806.62
627.25	45853.44
627.40	46024.29
627.55	45848.75
627.70	46160.05
627.85	45902.59
628.00	45883.86
628.15	45895.56
628.30	45443.84
628.45	45574.91
628.60	45394.69
628.76	45731.73
628.91	45546.82
629.06	45024.89
629.21	45481.29
629.36	45738.75
629.51	45830.03
629.66	46026.63
629.81	45694.28
629.96	45581.93
630.11	45897.91
630.26	45359.58
630.41	45558.53
630.56	45841.73
630.71	45925.99
630.86	45691.94
631.01	45490.65
631.16	45111.49
631.31	44964.03
631.46	45453.20
631.61	45462.57
631.76	45317.45
631.91	45385.33
632.06	45214.47
632.21	45778.54
632.36	45705.98
632.51	44842.32
632.66	45694.28
632.81	45247.24
632.96	45404.05
633.10	45067.02
633.25	45509.38
633.40	45345.54
633.55	45265.96
633.70	44992.12
633.85	45172.34
634.00	44734.66
634.15	44610.61
634.30	44882.11
634.45	44758.06
634.60	44648.06
634.75	44952.33
634.90	44762.75
635.05	44832.96
635.19	44985.10
635.34	45003.82
635.49	44748.70
635.64	44868.07
635.79	44737.00
635.94	44975.73
636.09	45118.51
636.24	44671.46
636.39	44985.10
636.53	44418.69
636.68	44432.73
636.83	44596.57
636.98	44285.28
637.13	44093.35
637.28	43938.88
637.43	44629.34
637.57	44603.59
637.72	44292.30
637.87	44060.58
638.02	44474.86
638.17	44233.78
638.32	44191.65
638.46	43845.26
638.61	44233.78
638.76	43690.78
638.91	44196.34
639.06	43707.16
639.20	43849.94
639.35	44163.57
639.50	43667.37
639.65	44086.33
639.80	43906.11
639.94	43931.86
640.09	44205.70
640.24	44046.54
640.39	43732.91
640.54	43187.56
640.68	43913.13
640.83	44076.97
640.98	43770.36
641.13	43917.81
641.27	43803.13
641.42	43981.01
641.57	43721.21
641.72	43765.68
641.86	43639.29
642.01	43459.07
642.16	43035.43
642.31	43117.35
642.45	43363.11
642.60	43103.31
642.75	43634.61
642.90	43709.50
643.04	43285.87
643.19	43435.66
643.34	43335.02
643.48	43098.62
643.63	43337.36
643.78	43192.25
643.93	43772.70
644.07	43016.71
644.22	43377.15
644.37	43000.32
644.51	43229.69
644.66	43171.18
644.81	42902.02
644.95	43241.40
645.10	43526.94
645.25	43122.03
645.39	42490.09
645.54	42986.28
645.69	42958.19
645.83	42815.42
645.98	43084.58
646.13	42986.28
646.27	42983.94
646.42	42660.94
646.57	42763.93
646.71	42738.18
646.86	43253.10
647.00	43065.86
647.15	42693.71
647.30	42864.57
647.44	42726.48
647.59	42880.95
647.74	42883.30
647.88	42562.64
648.03	42948.83
648.17	42836.48
648.32	42555.62
648.47	43168.84
648.61	42621.16
648.76	42593.07
648.90	42579.03
649.05	42593.07
649.20	42595.41
649.34	42663.28
649.49	42642.22
649.63	42520.51
649.78	42501.79
649.92	42679.67
650.07	42665.63
650.21	42635.20
650.36	42534.56
650.51	42110.92
650.65	42515.83
650.80	42611.79
650.94	42284.12
651.09	42029.00
651.23	41911.97
651.38	42024.32
651.52	41837.08
651.67	42136.66
651.81	42131.98
651.96	41909.63
652.10	41666.22
652.25	41675.58
652.39	41975.17
652.54	42127.30
652.68	41956.44
652.83	42059.43
652.97	42003.25
653.12	41844.10
653.26	41326.84
653.41	41860.48
653.55	41532.81
653.70	42108.58
653.84	41837.08
653.99	42068.79
654.13	41776.22
654.27	41680.26
654.42	41813.67
654.56	41495.36
654.71	41427.48
654.85	41949.42
655.00	41935.38
655.14	41956.44
655.29	41923.68
655.43	41769.20
655.57	41298.75
655.72	41134.92
655.86	41249.60
656.01	40994.48
656.15	40725.32
656.30	40610.64
656.44	41659.20
656.58	41111.51
656.73	41659.20
656.87	40783.83
657.01	40877.46
657.16	41188.75
657.30	41172.36
657.45	40844.69
657.59	40821.28
657.73	40275.94
657.88	40739.36
658.02	41368.97
658.16	41076.40
658.31	41106.83
658.45	40982.78
658.60	40711.28
658.74	40495.95
658.88	40416.37
659.03	40304.02
659.17	40388.28
659.31	40282.96
659.46	40648.08
659.60	41003.85
659.74	40156.57
659.89	40245.51
660.03	40067.63
660.17	40065.29
660.32	40451.48
660.46	40088.70
660.60	39861.66
660.74	40020.82
660.89	39840.60
661.03	39786.77
661.17	39798.47
661.32	39590.16
661.46	39988.05
661.60	39489.52
661.74	39899.11
661.89	39508.24
662.03	39627.61
662.17	39269.51
662.31	39442.71
662.46	39643.99
662.60	39316.32
662.74	39239.08
662.88	38876.30
663.03	39084.61
663.17	39014.39
663.31	39124.40
663.45	38845.87
663.60	39512.92
663.74	39192.27
663.88	38799.06
664.02	38543.94
664.17	39168.87
664.31	38607.14
664.45	38579.05
664.59	38738.21
664.73	38529.90
664.88	38555.64
665.02	38326.27
665.16	38483.09
665.30	38855.23
665.44	38139.03
665.59	38380.10
665.73	37600.71
665.87	37902.64
666.01	38110.94
666.15	37830.08
666.29	38085.20
666.44	38110.94
666.58	37783.27
666.72	37673.26
666.86	38054.77
667.00	37872.21
667.14	37574.96
667.28	37902.64
667.43	37380.70
667.57	37567.94
667.71	37982.21
667.85	37869.87
667.99	37497.72
668.13	36910.25
668.27	37071.75
668.41	37392.40
668.56	36985.15
668.70	36659.81
668.84	36465.55
668.98	36613.00
669.12	37006.21
669.26	36552.15
669.40	36921.95
669.54	37036.64
669.68	36617.68
669.82	36978.12
669.96	36451.50
670.10	36144.89
670.25	36355.54
670.39	36013.82
670.53	36119.15
670.67	36144.89
670.81	36280.64
670.95	35854.67
671.09	35913.18
671.23	35786.79
671.37	36004.46
671.51	35754.02
671.65	35555.08
671.79	35704.87
671.93	35648.70
672.07	35887.43
672.21	35714.23
672.35	35180.59
672.49	35449.75
672.63	35356.13
672.77	34944.20
672.91	35672.10
673.05	35168.89
673.19	34925.47
673.33	35016.75
673.47	34960.58
673.61	34515.88
673.75	34485.45
673.89	34132.03
674.03	34506.52
674.17	33958.83
674.31	33860.53
674.45	34089.90
674.59	34010.32
674.73	34115.65
674.87	33546.90
675.01	33497.75
675.15	33259.01
675.29	33336.25
675.43	33462.64
675.56	33493.07
675.70	33308.16
675.84	33354.97
675.98	32170.66
676.12	33226.24
676.26	33502.43
676.40	33329.23
676.54	33109.22
676.68	32807.29
676.82	32098.11
676.96	32577.92
677.10	32559.19
677.23	32858.78
677.37	32863.46
677.51	32374.29
677.65	31943.63
677.79	32346.20
677.93	31838.31
678.07	32285.35
678.21	31831.29
678.34	31730.64
678.48	31761.07
678.62	31768.09
678.76	30934.86
678.90	31346.79
679.04	31419.35
679.18	31496.59
679.31	30845.92
679.45	30969.97
679.59	30361.43
679.73	31005.08
679.87	30632.93
680.00	30494.84
680.14	30698.47
680.28	30452.71
680.42	30522.93
680.56	29902.68
680.70	30415.26
680.83	29603.10
680.97	29457.98
681.11	29879.28
681.25	29465.00
681.39	29544.58
681.52	29369.04
681.66	29125.63
681.80	29076.48
681.94	28690.29
682.07	28835.40
682.21	28844.76
682.35	29092.86
682.49	29130.31
682.62	28404.74
682.76	28823.70
682.90	28308.78
683.04	28432.83
683.17	28486.66
683.31	28208.14
683.45	28180.05
683.59	28140.26
683.72	27662.79
683.86	27740.03
684.00	27775.14
684.13	27653.43
684.27	27388.95
684.41	27325.75
684.55	27772.80
684.68	27225.11
684.82	26925.52
684.96	27157.24
685.09	27023.83
685.23	27012.12
685.37	27236.81
685.50	27000.42
685.64	27033.19
685.78	26778.07
685.91	26806.16
686.05	25940.16
686.19	25872.28
686.32	26029.10
686.46	25993.99
686.60	25282.47
686.73	25769.30
686.87	25544.61
687.01	25872.28
687.14	25532.90
687.28	25408.86
687.42	25596.10
687.55	25415.88
687.69	25392.47
687.82	24758.19
687.96	25184.16
688.10	24898.62
688.23	24662.22
688.37	25111.61
688.50	24947.77
688.64	24311.14
688.78	24294.76
688.91	24444.56
689.05	24418.81
689.18	23847.72
689.32	23814.95
689.46	23838.36
689.59	23496.64
689.73	24009.22
689.86	24313.48
690.00	23686.22
690.13	23943.68
690.27	23396.00
690.41	23545.79
690.54	22930.23
690.68	22918.53
690.81	22855.33
690.95	22911.50
691.08	22757.03
691.22	22761.71
691.35	22827.24
691.49	22925.55
691.62	22625.96
691.76	22113.38
691.89	22270.20
692.03	22031.46
692.16	21778.68
692.30	21961.25
692.43	22183.60
692.57	21893.37
692.70	21965.93
692.84	21799.75
692.97	21532.93
693.11	21284.83
693.24	21198.23
693.38	21256.75
693.51	21083.55
693.65	20996.95
693.78	20484.37
693.92	20709.06
694.05	20683.31
694.19	20570.97
694.32	20716.08
694.45	20620.12
694.59	20718.42
694.72	20556.93
694.86	20149.67
694.99	20137.97
695.13	19782.21
695.26	19700.29
695.39	19681.56
695.53	19805.61
695.66	19810.29
695.80	19590.28
695.93	19590.28
696.07	19499.00
696.20	18977.06
696.33	19019.19
696.47	19243.88
696.60	18951.32
696.73	19047.28
696.87	19302.40
697.00	19028.56
697.14	18696.20
697.27	18565.13
697.40	18438.74
697.54	18803.86
697.67	18270.22
697.80	18443.42
697.94	18675.13
698.07	17947.23
698.21	18148.51
698.34	18068.94
698.47	17848.93
698.61	17755.30
698.74	17668.70
698.87	17797.43
699.01	17575.08
699.14	17502.53
699.27	17291.88
699.40	17488.48
699.54	17364.43
699.67	16978.25
699.80	16905.69
699.94	16947.82
700.07	17106.98
700.20	16791.00
700.34	16856.54
700.47	16856.54
700.60	16940.80
700.73	16819.09
700.87	16662.27
701.00	16327.58
701.13	16114.59
701.26	16168.42
701.40	16400.13
701.53	16023.31
701.66	15964.79
701.79	16114.59
701.93	15557.54
702.06	15613.71
702.19	15695.63
702.32	15545.84
702.46	15463.92
702.59	15702.65
702.72	15616.05
702.85	15522.43
702.99	15580.95
703.12	15197.10
703.25	15012.20
703.38	15129.22
703.51	14930.28
703.65	14855.38
703.78	14731.33
703.91	14668.14
704.04	14654.09
704.17	14307.69
704.31	14333.44
704.44	14225.78
704.57	14600.26
704.70	14183.65
704.83	14148.54
704.96	14050.24
705.10	14005.77
705.23	14207.05
>>>>>End Processed Spectral Data<<<<<
