SpectraSuite Data File
++++++++++++++++++++++++++++++++++++
Date: Fri Oct 25 10:43:24 EDT 2013
User: price-jones
Dark Spectrum Present: No
Reference Spectrum Present: No
Number of Sampled Component Spectra: 1
Spectrometers: USB2+H05261
Integration Time (usec): 100000 (USB2+H05261)
Spectra Averaged: 1 (USB2+H05261)
Boxcar Smoothing: 0 (USB2+H05261)
Correct for Electrical Dark: No (USB2+H05261)
Strobe/Lamp Enabled: No (USB2+H05261)
Correct for Detector Non-linearity: No (USB2+H05261)
Correct for Stray Light: No (USB2+H05261)
Number of Pixels in Processed Spectrum: 2048
>>>>>Begin Processed Spectral Data<<<<<
365.73	95.96
365.92	95.96
366.12	95.96
366.32	23.41
366.52	11.70
366.72	30.43
366.91	110.01
367.11	18.72
367.31	0.00
367.51	0.00
367.70	0.00
367.90	0.00
368.10	0.00
368.30	114.69
368.49	0.00
368.69	63.19
368.89	46.81
369.09	0.00
369.28	58.51
369.48	28.09
369.68	117.03
369.87	0.00
370.07	81.92
370.27	133.41
370.47	128.73
370.66	360.44
370.86	379.17
371.06	440.02
371.25	587.47
371.45	442.36
371.65	449.38
371.84	362.78
372.04	425.98
372.24	482.15
372.44	454.06
372.63	521.94
372.83	524.28
373.03	528.96
373.22	505.56
373.42	510.24
373.62	559.39
373.81	547.69
374.01	613.22
374.21	545.34
374.40	545.34
374.60	568.75
374.79	587.47
374.99	594.50
375.19	566.41
375.38	512.58
375.58	620.24
375.78	582.79
375.97	620.24
376.17	603.86
376.37	580.45
376.56	671.73
376.76	554.71
376.95	648.33
377.15	688.12
377.35	674.07
377.54	657.69
377.74	535.98
377.93	580.45
378.13	667.05
378.33	641.31
378.52	641.31
378.72	655.35
378.91	631.94
379.11	599.18
379.31	629.60
379.50	641.31
379.70	744.29
379.89	716.20
380.09	587.47
380.28	669.39
380.48	678.76
380.68	653.01
380.87	770.04
381.07	716.20
381.26	744.29
381.46	704.50
381.65	678.76
381.85	767.70
382.04	711.52
382.24	786.42
382.43	669.39
382.63	681.10
382.83	664.71
383.02	765.36
383.22	732.59
383.41	629.60
383.61	692.80
383.80	725.57
384.00	791.10
384.19	802.80
384.39	770.04
384.58	847.27
384.78	791.10
384.97	772.38
385.17	786.42
385.36	786.42
385.56	765.36
385.75	758.33
385.95	753.65
386.14	786.42
386.34	870.68
386.53	851.96
386.72	786.42
386.92	924.51
387.11	919.83
387.31	842.59
387.50	863.66
387.70	870.68
387.89	826.21
388.09	919.83
388.28	830.89
388.48	837.91
388.67	943.24
388.86	929.19
389.06	910.47
389.25	884.72
389.45	973.66
389.64	983.02
389.84	976.00
390.03	936.21
390.22	1008.77
390.42	894.08
390.61	954.94
390.81	940.90
391.00	1121.12
391.19	1097.71
391.39	1004.09
391.58	1057.92
391.78	1078.99
391.97	1067.28
392.16	1025.15
392.36	1029.84
392.55	994.73
392.75	873.02
392.94	994.73
393.13	922.17
393.33	1022.81
393.52	1057.92
393.71	1125.80
393.91	1060.26
394.10	1029.84
394.29	1160.91
394.49	1111.75
394.68	1174.95
394.88	1151.54
395.07	1252.19
395.26	1247.51
395.46	1102.39
395.65	1200.69
395.84	1256.87
396.04	1221.76
396.23	1095.37
396.42	1214.74
396.62	1132.82
396.81	1203.04
397.00	1284.95
397.19	1228.78
397.39	1247.51
397.58	1411.34
397.77	1238.14
397.97	1331.76
398.16	1387.94
398.35	1483.90
398.55	1362.19
398.74	1535.39
398.93	1399.64
399.12	1469.86
399.32	1334.11
399.51	1383.26
399.70	1565.82
399.90	1497.94
400.09	1437.09
400.28	1519.01
400.47	1507.30
400.67	1593.90
400.86	1647.74
401.05	1668.80
401.24	1624.33
401.44	1638.38
401.63	1586.88
401.82	1680.50
402.01	1785.83
402.21	1678.16
402.40	1703.91
402.59	1760.08
402.78	1703.91
402.97	1799.87
403.17	1849.02
403.36	1755.40
403.55	1767.10
403.74	1844.34
403.93	1748.38
404.13	1741.36
404.32	1797.53
404.51	1975.41
404.70	2001.16
404.89	1952.01
405.09	1973.07
405.28	1961.37
405.47	1806.89
405.66	1998.82
405.85	1961.37
406.05	1921.58
406.24	1933.28
406.43	1937.96
406.62	2005.84
406.81	2047.97
407.00	1902.86
407.20	1982.43
407.39	2029.24
407.58	2050.31
407.77	2026.90
407.96	2118.18
408.15	2148.61
408.34	2204.78
408.54	2216.49
408.73	2340.54
408.92	2310.11
409.11	2296.07
409.30	2291.38
409.49	2352.24
409.68	2193.08
409.87	2289.04
410.07	2162.66
410.26	2335.85
410.45	2235.21
410.64	2284.36
410.83	2523.10
411.02	2427.14
411.21	2471.61
411.40	2487.99
411.59	2586.29
411.78	2588.63
411.98	2614.38
412.17	2583.95
412.36	2560.55
412.55	2595.65
412.74	2663.53
412.93	2771.19
413.12	2651.83
413.31	2750.13
413.50	2834.39
413.69	2785.24
413.88	2787.58
414.07	2773.53
414.26	2834.39
414.45	2860.13
414.64	2890.56
414.83	2885.88
415.02	3082.49
415.22	3068.44
415.41	3138.66
415.60	3014.61
415.79	3133.98
415.98	3192.49
416.17	3215.90
416.36	3262.71
416.55	3232.28
416.74	3241.64
416.93	3208.87
417.12	3293.13
417.31	3382.07
417.50	3239.30
417.69	3330.58
417.88	3297.81
418.07	3410.16
418.26	3403.14
418.45	3414.84
418.64	3564.64
418.83	3412.50
419.02	3463.99
419.21	3536.55
419.39	3454.63
419.58	3515.48
419.77	3440.59
419.96	3726.13
420.15	3536.55
420.34	3705.07
420.53	3728.47
420.72	3796.35
420.91	3794.01
421.10	3765.92
421.29	3784.65
421.48	3627.83
421.67	3756.56
421.86	3648.90
422.05	3775.28
422.24	3763.58
422.43	3728.47
422.61	3779.97
422.80	3824.44
422.99	3873.59
423.18	3801.03
423.37	4030.40
423.56	3892.31
423.75	4011.68
423.94	3782.31
424.13	3543.57
424.32	3789.33
424.50	3934.44
424.69	3866.56
424.88	3967.21
425.07	3911.04
425.26	3927.42
425.45	3908.69
425.64	3857.20
425.83	4011.68
426.01	3969.55
426.20	3901.67
426.39	3918.06
426.58	3894.65
426.77	3962.53
426.96	3913.38
427.15	3868.91
427.33	3955.51
427.52	3904.01
427.71	4105.30
427.90	4028.06
428.09	4067.85
428.28	4234.03
428.46	4177.86
428.65	4154.45
428.84	4198.92
429.03	4161.47
429.22	4016.36
429.40	3913.38
429.59	3964.87
429.78	3843.16
429.97	3913.38
430.16	3875.93
430.34	3981.25
430.53	4079.55
430.72	4074.87
430.91	4063.17
431.10	4313.61
431.28	4388.50
431.47	4489.15
431.66	4650.64
431.85	4414.25
432.03	4622.56
432.22	4615.54
432.41	4589.79
432.60	4559.36
432.79	4585.11
432.97	4535.96
433.16	4683.41
433.35	4645.96
433.54	4550.00
433.72	4550.00
433.91	4622.56
434.10	4676.39
434.28	4734.90
434.47	4873.00
434.66	4725.54
434.85	4755.97
435.03	4908.10
435.22	4882.36
435.41	5034.49
435.59	5020.45
435.78	4835.55
435.97	5085.98
436.16	5097.69
436.34	4915.12
436.53	5121.09
436.72	5238.12
436.90	5027.47
437.09	5062.58
437.28	4992.36
437.46	5095.35
437.65	5109.39
437.84	5036.83
438.02	4947.89
438.21	5219.39
438.40	5015.77
438.58	5195.99
438.77	5385.57
438.96	5275.57
439.14	5497.92
439.33	5675.80
439.52	5537.71
439.70	5469.83
439.89	5554.09
440.08	5640.69
440.26	5584.52
440.45	5720.27
440.63	5799.85
440.82	5879.43
441.01	5851.34
441.19	5837.30
441.38	5912.19
441.57	5879.43
441.75	5914.53
441.94	6326.47
442.12	6225.82
442.31	6176.67
442.50	6125.18
442.68	6349.87
442.87	6216.46
443.05	6293.70
443.24	6326.47
443.43	6459.88
443.61	6377.96
443.80	6422.43
443.98	6148.59
444.17	6347.53
444.35	6427.11
444.54	6487.96
444.73	6361.58
444.91	6399.02
445.10	6478.60
445.28	6183.70
445.47	6235.19
445.65	6256.25
445.84	6427.11
446.02	6497.33
446.21	6520.73
446.39	6417.75
446.58	6497.33
446.77	6572.22
446.95	6565.20
447.14	6604.99
447.32	6675.21
447.51	6579.25
447.69	6553.50
447.88	6518.39
448.06	6569.88
448.25	6558.18
448.43	6696.27
448.62	6663.51
448.80	6558.18
448.99	6766.49
449.17	6771.17
449.36	6523.07
449.54	6991.18
449.73	6927.99
449.91	7105.87
450.10	7021.61
450.28	7096.50
450.46	7173.74
450.65	7126.93
450.83	7077.78
451.02	7087.14
451.20	7136.29
451.39	7155.02
451.57	7253.32
451.76	7206.51
451.94	6906.92
452.13	7096.50
452.31	7014.59
452.49	7194.81
452.68	7159.70
452.86	7101.19
453.05	7255.66
453.23	7227.57
453.42	7140.97
453.60	7155.02
453.78	7295.45
453.97	7145.66
454.15	7412.48
454.34	7215.87
454.52	7506.10
454.70	7325.88
454.89	7307.15
455.07	7358.64
455.26	7520.14
455.44	7590.36
455.62	7557.59
455.81	7658.23
455.99	7763.56
456.17	7658.23
456.36	7761.22
456.54	7714.41
456.73	7730.79
456.91	8173.15
457.09	7971.86
457.28	8006.97
457.46	7967.18
457.64	8013.99
457.83	8067.83
458.01	7805.69
458.19	8112.30
458.38	8006.97
458.56	8086.55
458.74	8140.38
458.93	8145.06
459.11	8053.78
459.29	8161.45
459.48	8362.73
459.66	8177.83
459.84	8280.82
460.03	8493.80
460.21	8306.56
460.39	8489.12
460.57	8243.37
460.76	8571.04
460.94	8292.52
461.12	8423.59
461.31	8500.83
461.49	8425.93
461.67	8517.21
461.85	8547.64
462.04	8805.10
462.22	9111.71
462.40	8697.43
462.59	8655.30
462.77	8690.41
462.95	8709.13
463.13	8807.44
463.32	8674.03
463.50	8957.23
463.68	9097.66
463.86	8961.91
464.05	8732.54
464.23	8695.09
464.41	8706.79
464.59	8856.59
464.78	9015.74
464.96	8924.46
465.14	8903.40
465.32	8966.59
465.50	9085.96
465.69	9200.65
465.87	9083.62
466.05	9020.42
466.23	8870.63
466.41	9060.21
466.60	9146.81
466.78	8982.98
466.96	9202.99
467.14	9177.24
467.32	9334.06
467.51	9214.69
467.69	9240.44
467.87	9305.97
468.05	9390.23
468.23	9369.16
468.41	9069.58
468.60	9317.67
468.78	9535.34
468.96	9338.74
469.14	9638.33
469.32	9736.63
469.50	9341.08
469.69	9322.35
469.87	9745.99
470.05	9774.08
470.23	9839.61
470.41	9624.28
470.59	9884.08
470.77	9584.49
470.95	9987.07
471.14	10101.75
471.32	9668.75
471.50	10202.40
471.68	10167.29
471.86	10150.90
472.04	10078.35
472.22	10260.91
472.40	10296.02
472.58	10167.29
472.77	10242.18
472.95	10387.30
473.13	10792.21
473.31	10382.62
473.49	10246.87
473.67	10525.39
473.85	10527.73
474.03	10682.20
474.21	10621.35
474.39	10885.83
474.57	10761.78
474.75	11084.78
474.93	10909.24
475.12	10897.53
475.30	11150.31
475.48	10899.87
475.66	11164.36
475.84	11059.03
476.02	11215.85
476.20	11400.75
476.38	11634.80
476.56	11833.75
476.74	11569.27
476.92	11508.41
477.10	11761.19
477.28	11932.05
477.46	11955.46
477.64	12016.31
477.82	12126.32
478.00	12409.52
478.18	12360.37
478.36	12060.78
478.54	12222.28
478.72	12634.21
478.90	12884.65
479.08	12886.99
479.26	13149.13
479.44	12950.18
479.62	13158.49
479.80	13266.16
479.98	13289.56
480.16	13511.91
480.34	13151.47
480.52	13621.92
480.70	13820.86
480.88	13455.74
481.06	13947.25
481.24	13825.54
481.41	14075.98
481.59	14518.34
481.77	14167.26
481.95	14218.75
482.13	14197.69
482.31	14232.80
482.49	14867.08
482.67	14672.82
482.85	14668.14
483.03	14815.59
483.21	14934.96
483.39	15145.61
483.57	15136.24
483.74	15503.71
483.92	15325.83
484.10	15344.55
484.28	15922.66
484.46	15885.22
484.64	16287.79
484.82	15763.51
485.00	16088.84
485.18	16170.76
485.35	16208.21
485.53	15786.91
485.71	15763.51
485.89	16383.75
486.07	16304.17
486.25	16229.27
486.43	16613.12
486.61	16868.24
486.78	17109.32
486.96	17310.60
487.14	17434.65
487.32	17642.96
487.50	17820.84
487.68	18216.39
487.85	17827.86
488.03	18480.87
488.21	18249.16
488.39	18003.40
488.57	18506.62
488.75	18691.52
488.92	18738.33
489.10	19103.45
489.28	19115.16
489.46	19103.45
489.64	19190.05
489.81	20088.82
489.99	19988.18
490.17	19812.63
490.35	20084.14
490.53	20152.01
490.70	20091.16
490.88	20013.92
491.06	20484.37
491.24	20259.68
491.41	20290.10
491.59	20517.14
491.77	20341.60
491.95	20772.25
492.13	20542.88
492.30	21422.92
492.48	21336.32
492.66	21439.31
492.84	21216.96
493.01	21507.18
493.19	21701.45
493.37	21862.94
493.54	22249.13
493.72	22022.10
493.90	22377.86
494.08	22445.74
494.25	22738.30
494.43	22918.53
494.61	22700.86
494.79	23250.88
494.96	22916.19
495.14	23192.37
495.32	23208.75
495.49	23201.73
495.67	23718.99
495.85	23861.76
496.02	23908.57
496.20	24175.39
496.38	24034.96
496.55	23957.72
496.73	24929.05
496.91	23969.43
497.09	24863.51
497.26	24748.82
497.44	24547.54
497.62	24961.81
497.79	24835.42
497.97	24926.71
498.14	25041.39
498.32	25046.07
498.50	25432.26
498.67	25511.84
498.85	25563.33
499.03	25785.68
499.20	25694.40
499.38	26008.03
499.56	26050.16
499.73	25949.52
499.91	26178.89
500.08	26434.01
500.26	25769.30
500.44	26326.35
500.61	26148.46
500.79	26354.43
500.97	26583.80
501.14	26595.51
501.32	26972.33
501.49	26712.53
501.67	26775.73
501.84	26960.63
502.02	26885.73
502.20	27461.51
502.37	27442.78
502.55	27159.58
502.72	27761.09
502.90	27840.67
503.07	27648.75
503.25	27943.66
503.43	27728.33
503.60	27723.65
503.78	27882.80
503.95	27871.10
504.13	28004.51
504.30	28175.37
504.48	28126.22
504.65	28041.96
504.83	28694.97
505.01	28620.07
505.18	28563.90
505.36	28858.81
505.53	29116.26
505.71	29244.99
505.88	29097.54
506.06	28943.06
506.23	29427.56
506.41	29181.80
506.58	29474.37
506.76	29521.18
506.93	29490.75
507.11	29493.09
507.28	29663.95
507.46	29481.39
507.63	29809.06
507.81	30031.41
507.98	29876.94
508.16	29853.53
508.33	30593.14
508.50	30375.47
508.68	30492.50
508.85	30803.79
509.03	30632.93
509.20	30604.84
509.38	31227.43
509.55	30991.03
509.73	30850.60
509.90	30658.68
510.08	30897.41
510.25	30866.98
510.42	31335.09
510.60	31269.56
510.77	31379.56
510.95	31728.30
511.12	31346.79
511.30	31402.97
511.47	31960.02
511.64	31768.09
511.82	32098.11
511.99	31747.03
512.17	31711.92
512.34	31702.56
512.51	31772.77
512.69	32570.90
512.86	32393.01
513.04	32404.72
513.21	32507.70
513.38	32086.40
513.56	32767.50
513.73	32615.37
513.90	32926.66
514.08	32755.80
514.25	32741.75
514.43	32893.89
514.60	32835.38
514.77	33078.79
514.95	33369.02
515.12	32943.04
515.29	32973.47
515.47	33198.16
515.64	33593.71
515.81	33118.58
515.99	33757.55
516.16	33244.97
516.33	33113.90
516.51	33783.29
516.68	32973.47
516.85	33020.28
517.03	32980.49
517.20	33710.74
517.37	33792.65
517.54	33935.43
517.72	34089.90
517.89	33275.40
518.06	33525.83
518.24	33502.43
518.41	33738.82
518.58	33977.56
518.75	34405.88
518.93	34031.39
519.10	34581.42
519.27	34754.61
519.45	34202.25
519.62	34960.58
519.79	35068.25
519.96	34700.78
520.14	34878.66
520.31	35126.76
520.48	35049.52
520.65	34918.45
520.83	35545.72
521.00	35475.50
521.17	35335.07
521.34	35793.81
521.52	35737.64
521.69	35831.26
521.86	36051.27
522.03	35957.65
522.20	35477.84
522.38	35859.35
522.55	35978.72
522.72	36261.92
522.89	35817.22
523.07	36402.35
523.24	36264.26
523.41	36180.00
523.58	36631.72
523.75	36746.41
523.92	36840.03
524.10	36851.73
524.27	36842.37
524.44	36704.28
524.61	37043.66
524.78	36964.08
524.96	37460.27
525.13	36596.62
525.30	37677.94
525.47	37336.23
525.64	37266.01
525.81	37607.73
525.98	37233.24
526.16	36844.71
526.33	37095.15
526.50	37338.57
526.67	36931.31
526.84	36552.15
527.01	36753.43
527.18	37158.34
527.36	37635.81
527.53	37764.54
527.70	38305.21
527.87	37715.39
528.04	38078.18
528.21	37928.38
528.38	37823.06
528.55	38356.70
528.72	38508.83
528.89	38618.84
529.07	38462.02
529.24	38288.82
529.41	37792.63
529.58	38595.43
529.75	38457.34
529.92	38740.55
530.09	38848.21
530.26	38401.17
530.43	38827.15
530.60	38710.12
530.77	38651.61
530.94	39108.01
531.11	38806.08
531.28	38983.96
531.46	39173.55
531.63	39229.72
531.80	38698.42
531.97	39152.48
532.14	39505.90
532.31	38834.17
532.48	38974.60
532.65	39023.75
532.82	39372.49
532.99	39512.92
533.16	39171.21
533.33	39667.40
533.50	39772.72
533.67	39576.12
533.84	39414.62
534.01	39632.29
534.18	39665.06
534.35	39559.73
534.52	39683.78
534.69	39679.10
534.86	40034.86
535.03	39868.69
535.20	40208.06
535.37	40245.51
535.54	40634.04
535.71	39952.94
535.88	40678.51
536.05	40107.42
536.22	40348.50
536.38	40275.94
536.55	40004.44
536.72	40233.81
536.89	40023.16
537.06	40631.70
537.23	40287.64
537.40	40414.03
537.57	40463.18
537.74	40505.31
537.91	41090.44
538.08	40603.61
538.25	40615.32
538.42	40823.62
538.59	40954.69
538.75	40402.33
538.92	40676.17
539.09	41251.94
539.26	40816.60
539.43	40872.78
539.60	41015.55
539.77	40886.82
539.94	41020.23
540.11	40797.88
540.28	40589.57
540.44	40741.71
540.61	41518.76
540.78	40917.25
540.95	41324.50
541.12	40868.09
541.29	41771.54
541.46	41397.06
541.62	41703.67
541.79	41289.39
541.96	41277.69
542.13	41048.32
542.30	41741.11
542.47	41535.15
542.63	41645.15
542.80	41581.96
542.97	42066.45
543.14	42305.18
543.31	41734.09
543.48	42082.83
543.64	42445.62
543.81	42548.60
543.98	42155.39
544.15	42356.67
544.32	42169.43
544.48	42677.33
544.65	42705.41
544.82	42836.48
544.99	42103.90
545.16	42370.72
545.32	42506.47
545.49	42775.63
545.66	42965.21
545.83	42698.39
546.00	42820.10
546.16	42787.33
546.33	42316.89
546.50	42494.77
546.67	42742.86
546.83	42375.40
547.00	42969.90
547.17	42822.44
547.34	42939.47
547.50	42787.33
547.67	43283.53
547.84	43274.16
548.00	43175.86
548.17	43323.32
548.34	43091.60
548.51	43634.61
548.67	43433.32
548.84	43449.70
549.01	43489.49
549.18	43505.88
549.34	43241.40
549.51	43344.38
549.68	43557.37
549.84	43187.56
550.01	43470.77
550.18	43105.65
550.34	43185.22
550.51	43012.02
550.68	43559.71
550.84	43342.04
551.01	43435.66
551.18	43281.19
551.34	44030.16
551.51	43791.42
551.68	43903.77
551.84	43683.76
552.01	43215.65
552.18	43496.52
552.34	43543.33
552.51	43686.10
552.68	43653.33
552.84	43992.71
553.01	44144.84
553.18	43784.40
553.34	44076.97
553.51	44128.46
553.67	44257.19
553.84	44254.85
554.01	44610.61
554.17	44575.50
554.34	43952.92
554.51	44020.80
554.67	44137.82
554.84	43899.09
555.00	44088.67
555.17	44645.72
555.33	43969.30
555.50	44446.77
555.67	44271.23
555.83	44626.99
556.00	44584.86
556.16	44500.61
556.33	44334.43
556.50	44470.18
556.66	44341.45
556.83	44009.09
556.99	44774.45
557.16	44519.33
557.32	44919.56
557.49	44313.36
557.65	44369.54
557.82	44964.03
557.98	44549.76
558.15	44451.45
558.32	44631.68
558.48	44332.09
558.65	44514.65
558.81	44406.98
558.98	44439.75
559.14	44617.63
559.31	44769.77
559.47	44573.16
559.64	44959.35
559.80	44858.71
559.97	45195.74
560.13	44282.94
560.30	44893.82
560.46	45179.36
560.63	44987.44
560.79	45181.70
560.96	44889.13
561.12	45151.27
561.29	44687.85
561.45	44924.24
561.61	44854.03
561.78	44985.10
561.94	44952.33
562.11	44999.14
562.27	44870.41
562.44	45027.23
562.60	45317.45
562.77	45544.48
562.93	45219.15
563.10	45682.58
563.26	44673.81
563.42	45357.24
563.59	44910.20
563.75	45172.34
563.92	45406.39
564.08	45322.13
564.24	45511.72
564.41	45310.43
564.57	45291.71
564.74	45359.58
564.90	45146.59
565.07	45287.03
565.23	45443.84
565.39	45095.10
565.56	45090.42
565.72	44924.24
565.88	45404.05
566.05	44935.95
566.21	45289.37
566.38	45340.86
566.54	45429.80
566.70	45551.51
566.87	45240.21
567.03	45584.27
567.19	45443.84
567.36	45338.52
567.52	45268.30
567.68	45581.93
567.85	44872.75
568.01	45539.80
568.17	45322.13
568.34	45591.30
568.50	45235.53
568.66	45329.16
568.83	45478.95
568.99	44942.97
569.15	45172.34
569.32	45574.91
569.48	45242.56
569.64	45432.14
569.81	45778.54
569.97	45055.31
570.13	45354.90
570.30	45078.72
570.46	45333.84
570.62	44987.44
570.78	44861.05
570.95	44931.26
571.11	45406.39
571.27	45670.87
571.43	45490.65
571.60	45397.03
571.76	45162.98
571.92	45399.37
572.09	45312.77
572.25	45284.68
572.41	45532.78
572.57	45708.32
572.74	46078.13
572.90	45677.90
573.06	45291.71
573.22	45471.93
573.38	45483.63
573.55	45738.75
573.71	45485.97
573.87	45759.81
574.03	45525.76
574.20	45727.05
574.36	45734.07
574.52	45839.39
574.68	45598.32
574.84	45268.30
575.01	45881.52
575.17	44966.37
575.33	45275.32
575.49	45371.28
575.65	45673.21
575.82	45567.89
575.98	45591.30
576.14	45897.91
576.30	45600.66
576.46	45823.01
576.62	45310.43
576.79	45233.19
576.95	45436.82
577.11	45851.09
577.27	45656.83
577.43	45808.96
577.59	45422.78
577.75	45574.91
577.92	44947.65
578.08	45741.09
578.24	45177.02
578.40	45415.76
578.56	45591.30
578.72	45546.82
578.88	45530.44
579.04	45785.56
579.21	45808.96
579.37	45801.94
579.53	45890.88
579.69	45406.39
579.85	45603.00
580.01	45329.16
580.17	45443.84
580.33	45687.26
580.49	45858.12
580.65	45851.09
580.82	45507.04
580.98	45680.24
581.14	45378.31
581.30	45956.42
581.46	45640.45
581.62	45619.38
581.78	45670.87
581.94	46117.92
582.10	45998.55
582.26	45911.95
582.42	45771.52
582.58	45827.69
582.74	45619.38
582.90	46230.26
583.06	45780.88
583.22	45904.93
583.38	45942.38
583.54	45626.40
583.70	45780.88
583.86	45610.02
584.02	45368.94
584.18	45874.50
584.34	45368.94
584.50	45588.95
584.66	45823.01
584.82	45558.53
584.98	45621.72
585.14	45769.18
585.30	45687.26
585.46	45308.09
585.62	45317.45
585.78	45731.73
585.94	45574.91
586.10	45544.48
586.26	45457.88
586.42	46174.09
586.58	46094.51
586.74	45904.93
586.90	45418.10
587.06	45588.95
587.22	46050.04
587.38	45523.42
587.54	46071.10
587.70	46234.94
587.86	45603.00
588.02	45544.48
588.18	45886.20
588.34	45485.97
588.49	45254.26
588.65	45230.85
588.81	45099.78
588.97	45628.74
589.13	45006.16
589.29	45558.53
589.45	45392.35
589.61	45731.73
589.77	46045.36
589.93	45954.08
590.08	45598.32
590.24	45900.25
590.40	46010.25
590.56	46316.86
590.72	46096.85
590.88	45759.81
591.04	46216.22
591.20	46188.13
591.35	45677.90
591.51	46281.75
591.67	45556.19
591.83	46087.49
591.99	45972.80
592.15	45881.52
592.31	45911.95
592.46	45942.38
592.62	46155.36
592.78	46057.06
592.94	46197.49
593.10	46204.52
593.26	46513.47
593.41	45780.88
593.57	45886.20
593.73	45808.96
593.89	46103.87
594.05	45792.58
594.20	45855.78
594.36	46150.68
594.52	46033.66
594.68	45928.33
594.84	45986.85
594.99	46160.05
595.15	46078.13
595.31	46117.92
595.47	46099.19
595.62	46043.02
595.78	45720.02
595.94	45862.80
596.10	46298.14
596.25	46335.59
596.41	45911.95
596.57	45666.19
596.73	45933.01
596.88	45595.98
597.04	45631.08
597.20	45928.33
597.36	45811.31
597.51	46499.42
597.67	46103.87
597.83	45823.01
597.99	46361.33
598.14	46078.13
598.30	46003.23
598.46	46052.38
598.61	45820.67
598.77	45453.20
598.93	45661.51
599.09	45780.88
599.24	46216.22
599.40	45855.78
599.56	45691.94
599.71	46157.70
599.87	46017.27
600.03	46073.45
600.18	45731.73
600.34	45897.91
600.50	45851.09
600.65	46036.00
600.81	46190.47
600.97	46019.61
601.12	46178.77
601.28	45886.20
601.44	45687.26
601.59	45930.67
601.75	45925.99
601.91	46277.07
602.06	46005.57
602.22	46087.49
602.37	46354.31
602.53	45846.41
602.69	46169.41
602.84	46117.92
603.00	45748.11
603.16	46003.23
603.31	45977.48
603.47	45755.13
603.62	45574.91
603.78	46115.58
603.94	45743.43
604.09	46036.00
604.25	45949.40
604.40	45867.48
604.56	45722.37
604.71	45860.46
604.87	45961.10
605.03	45560.87
605.18	45722.37
605.34	45392.35
605.49	45794.92
605.65	46078.13
605.80	46036.00
605.96	45762.15
606.12	46155.36
606.27	46101.53
606.43	45432.14
606.58	45457.88
606.74	45720.02
606.89	45490.65
607.05	46043.02
607.20	45432.14
607.36	45715.34
607.51	45972.80
607.67	45619.38
607.82	45724.71
607.98	45504.70
608.13	45088.08
608.29	45195.74
608.44	45401.71
608.60	45254.26
608.75	45331.50
608.91	45488.31
609.06	45223.83
609.22	45659.17
609.37	45628.74
609.53	45586.61
609.68	45944.72
609.84	45050.63
609.99	45357.24
610.15	44959.35
610.30	44975.73
610.46	45249.58
610.61	45144.25
610.76	44641.04
610.92	45595.98
611.07	45516.40
611.23	45530.44
611.38	45317.45
611.54	44774.45
611.69	44919.56
611.84	44949.99
612.00	44758.06
612.15	45109.14
612.31	44999.14
612.46	45301.07
612.62	45209.79
612.77	45125.53
612.92	45137.23
613.08	45216.81
613.23	44683.17
613.39	44570.82
613.54	44790.83
613.69	44320.38
613.85	44446.77
614.00	44807.22
614.15	44942.97
614.31	44797.85
614.46	45160.64
614.62	44706.57
614.77	44980.42
614.92	44692.53
615.08	44636.36
615.23	44570.82
615.38	44566.14
615.54	44641.04
615.69	44603.59
615.84	44296.98
616.00	44479.54
616.15	44428.05
616.30	44734.66
616.46	44500.61
616.61	44264.21
616.76	44395.28
616.92	43833.55
617.07	44243.15
617.22	44362.51
617.37	44051.22
617.53	44795.51
617.68	44439.75
617.83	44652.74
617.99	44332.09
618.14	44257.19
618.29	44259.53
618.45	44140.16
618.60	44055.90
618.75	43828.87
618.90	43430.98
619.06	44081.65
619.21	43859.30
619.36	44130.80
619.51	44414.01
619.67	44081.65
619.82	44304.00
619.97	44460.82
620.12	43611.20
620.28	43449.70
620.43	43768.02
620.58	44172.93
620.73	43524.60
620.89	43344.38
621.04	43992.71
621.19	43880.36
621.34	43908.45
621.49	43611.20
621.65	43421.62
621.80	44044.20
621.95	43398.21
622.10	43578.43
622.25	43250.76
622.41	43351.40
622.56	43416.94
622.71	43510.56
622.86	43304.59
623.01	43412.26
623.16	43306.93
623.32	43107.99
623.47	43871.00
623.62	43700.14
623.77	42616.47
623.92	43079.90
624.07	43023.73
624.23	42808.40
624.38	43215.65
624.53	42782.65
624.68	43096.28
624.83	43409.92
624.98	43288.21
625.13	43021.39
625.29	42490.09
625.44	43145.44
625.59	42997.98
625.74	42494.77
625.89	42892.66
626.04	42969.90
626.19	42628.18
626.34	43012.02
626.49	42962.87
626.65	42628.18
626.80	42452.64
626.95	42478.38
627.10	42167.09
627.25	42398.80
627.40	42225.60
627.55	42387.10
627.70	42045.38
627.85	42883.30
628.00	42689.03
628.15	42469.02
628.30	42473.70
628.45	42445.62
628.60	42649.24
628.76	42349.65
628.91	42157.73
629.06	42199.86
629.21	42550.94
629.36	42066.45
629.51	42183.48
629.66	42307.52
629.81	42106.24
629.96	42108.58
630.11	41951.76
630.26	42071.13
630.41	41827.71
630.56	41813.67
630.71	42258.37
630.86	42146.03
631.01	41500.04
631.16	41984.53
631.31	41296.41
631.46	41406.42
631.61	41909.63
631.76	41280.03
631.91	41848.78
632.06	41752.82
632.21	41607.70
632.36	42000.91
632.51	41687.28
632.66	41301.09
632.81	41116.19
632.96	41406.42
633.10	41305.77
633.25	41691.96
633.40	41427.48
633.55	41895.59
633.70	41745.80
633.85	41366.63
634.00	41603.02
634.15	41209.81
634.30	41195.77
634.45	41633.45
634.60	41357.27
634.75	41596.00
634.90	40896.18
635.05	41043.63
635.19	40952.35
635.34	41488.34
635.49	41125.55
635.64	41097.47
635.79	40825.96
635.94	41319.82
636.09	41003.85
636.24	40318.07
636.39	40891.50
636.53	40664.47
636.68	40631.70
636.83	40624.68
636.98	40486.59
637.13	40737.02
637.28	40872.78
637.43	40973.42
637.57	41104.49
637.72	40287.64
637.87	40865.75
638.02	40467.86
638.17	40928.95
638.32	40928.95
638.46	40744.05
638.61	40514.67
638.76	40758.09
638.91	40720.64
639.06	40231.47
639.20	40580.21
639.35	40772.13
639.50	40357.86
639.65	40561.48
639.80	40552.12
639.94	40601.27
640.09	40264.24
640.24	40268.92
640.39	39988.05
640.54	40156.57
640.68	39732.93
640.83	39819.53
640.98	40130.83
641.13	40032.52
641.27	40013.80
641.42	39807.83
641.57	39910.82
641.72	40030.18
641.86	39814.85
642.01	39810.17
642.16	39875.71
642.31	39517.60
642.45	39721.23
642.60	39646.33
642.75	39536.33
642.90	40013.80
643.04	39861.66
643.19	39636.97
643.34	39496.54
643.48	39871.03
643.63	39583.14
643.78	39496.54
643.93	39742.30
644.07	39297.59
644.22	39360.79
644.37	39423.98
644.51	39480.16
644.66	39330.36
644.81	39496.54
644.95	39519.95
645.10	39271.85
645.25	39328.02
645.39	39342.06
645.54	39524.63
645.69	39098.65
645.83	39218.02
645.98	39133.76
646.13	39084.61
646.27	38841.19
646.42	38948.85
646.57	38855.23
646.71	38951.20
646.86	39147.80
647.00	39302.28
647.15	39047.16
647.30	38677.35
647.44	38572.03
647.59	38923.11
647.74	38560.33
647.88	38572.03
648.03	39093.97
648.17	38625.86
648.32	38550.96
648.47	39283.55
648.61	38639.90
648.76	38878.64
648.90	38749.91
649.05	38632.88
649.20	38644.59
649.34	38494.79
649.49	38373.08
649.63	38476.07
649.78	38747.57
649.92	38169.46
650.07	38485.43
650.21	38429.26
650.36	38459.68
650.51	38288.82
650.65	39075.24
650.80	38892.68
650.94	38745.23
651.09	38588.41
651.23	38321.59
651.38	38396.49
651.52	37935.40
651.67	38101.58
651.81	37982.21
651.96	38099.24
652.10	38300.53
652.25	38345.00
652.39	38366.06
652.54	37996.26
652.68	38288.82
652.83	37780.93
652.97	38527.56
653.12	38497.13
653.26	37450.91
653.41	37963.49
653.55	37991.58
653.70	37923.70
653.84	37509.43
653.99	37860.51
654.13	37558.58
654.27	37773.91
654.42	37820.72
654.56	37521.13
654.71	37296.44
654.85	37490.70
655.00	37603.05
655.14	37198.13
655.29	37605.39
655.43	37724.75
655.57	37069.40
655.72	37223.88
655.86	36992.17
656.01	37102.17
656.15	36769.82
656.30	36769.82
656.44	36914.93
656.58	37432.19
656.73	37067.06
656.87	36961.74
657.01	36547.47
657.16	36671.51
657.30	36851.73
657.45	36669.17
657.59	36924.29
657.73	37186.43
657.88	36943.02
658.02	37521.13
658.16	37200.47
658.31	37317.50
658.45	36833.01
658.60	36676.19
658.74	37493.04
658.88	37083.45
659.03	36397.67
659.17	36390.65
659.31	36397.67
659.46	36685.56
659.60	36346.18
659.74	36587.25
659.89	36018.50
660.03	36084.04
660.17	35976.37
660.32	36907.91
660.46	35880.41
660.60	36009.14
660.74	36060.63
660.89	36121.49
661.03	35997.44
661.17	36318.09
661.32	35899.14
661.46	35812.54
661.60	35913.18
661.74	35833.60
661.89	35840.62
662.03	36030.21
662.17	35768.07
662.31	35632.32
662.46	35857.01
662.60	36004.46
662.74	35917.86
662.88	35288.26
663.03	35452.09
663.17	35725.94
663.31	35040.16
663.45	35634.66
663.60	35367.84
663.74	34962.92
663.88	35236.77
664.02	34628.23
664.17	35246.13
664.31	35061.22
664.45	34979.31
664.59	35129.10
664.73	34871.64
664.88	34803.77
665.02	34302.89
665.16	34810.79
665.30	34724.19
665.44	34455.03
665.59	34293.53
665.73	34548.65
665.87	34363.75
666.01	34459.71
666.15	34326.30
666.29	34223.31
666.44	34515.88
666.58	34333.32
666.72	34026.71
666.86	34363.75
667.00	34235.02
667.14	33832.44
667.28	33661.58
667.43	34143.74
667.57	33853.51
667.71	33813.72
667.85	33923.72
667.99	33956.49
668.13	34293.53
668.27	34003.30
668.41	33776.27
668.56	33757.55
668.70	33167.73
668.84	33371.36
668.98	33200.50
669.12	33427.53
669.26	33455.62
669.40	33158.37
669.54	32985.17
669.68	33376.04
669.82	32442.17
669.96	32818.99
670.10	32783.88
670.25	32751.12
670.39	32652.81
670.53	32786.22
670.67	32573.24
670.81	32779.20
670.95	32519.40
671.09	32306.41
671.23	32236.20
671.37	32369.61
671.51	32421.10
671.65	32142.58
671.79	32034.91
671.93	31847.67
672.07	32109.81
672.21	31873.42
672.35	31906.18
672.49	32191.73
672.63	31672.13
672.77	31459.14
672.91	31742.35
673.05	31852.35
673.19	31615.96
673.33	31735.32
673.47	31094.02
673.61	31358.50
673.75	31072.95
673.89	30773.36
674.03	31028.48
674.17	31049.55
674.31	31075.29
674.45	31044.87
674.59	30906.77
674.73	31676.81
674.87	30993.37
675.01	30749.96
675.15	30735.92
675.29	30616.55
675.43	30553.35
675.56	30595.48
675.70	30504.20
675.84	30511.22
675.98	29371.38
676.12	29853.53
676.26	30522.93
676.40	29940.13
676.54	30052.48
676.68	30167.16
676.82	29523.52
676.96	30008.01
677.10	29928.43
677.23	29291.80
677.37	29743.53
677.51	29586.71
677.65	29127.97
677.79	28601.35
677.93	29024.98
678.07	28933.70
678.21	28538.15
678.34	28643.48
678.48	28531.13
678.62	28294.74
678.76	28327.50
678.90	28360.27
679.04	28156.64
679.18	28236.22
679.31	27824.29
679.45	27798.54
679.59	27873.44
679.73	27850.03
679.87	27484.91
680.00	27803.22
680.14	27690.88
680.28	27810.25
680.42	27239.15
680.56	27204.05
680.70	27171.28
680.83	27185.32
680.97	27147.87
681.11	27131.49
681.25	26775.73
681.39	27030.85
681.52	27077.66
681.66	26799.13
681.80	26724.24
681.94	26211.66
682.07	26462.10
682.21	26162.51
682.35	26050.16
682.49	26356.77
682.62	25989.31
682.76	25935.48
682.90	25750.57
683.04	26082.93
683.17	25553.97
683.31	25542.27
683.45	25736.53
683.59	25287.15
683.72	25640.57
683.86	25755.26
684.00	25046.07
684.13	25062.46
684.27	25010.96
684.41	25053.09
684.55	24936.07
684.68	24816.70
684.82	24596.69
684.96	24737.12
685.09	24325.19
685.23	24313.48
685.37	24655.20
685.50	24215.18
685.64	24372.00
685.78	24292.42
685.91	24273.70
686.05	24002.19
686.19	23679.20
686.32	23651.11
686.46	23295.35
686.60	23220.45
686.73	22883.42
686.87	22869.37
687.01	23159.60
687.14	23063.64
687.28	22916.19
687.42	22670.43
687.55	22733.62
687.69	22698.52
687.82	23138.54
687.96	22871.72
688.10	22331.05
688.23	22305.31
688.37	22398.93
688.50	22066.57
688.64	22221.05
688.78	22326.37
688.91	22045.51
689.05	22010.40
689.18	21764.64
689.32	21514.20
689.46	21769.32
689.59	22001.04
689.73	22333.39
689.86	21502.50
690.00	21582.08
690.13	21408.88
690.27	21078.86
690.41	21067.16
690.54	21270.79
690.68	21139.72
690.81	21092.91
690.95	21130.36
691.08	21043.76
691.22	20945.45
691.35	20767.57
691.49	20648.21
691.62	20879.92
691.76	20936.09
691.89	20727.78
692.03	20627.14
692.16	20322.87
692.30	20180.10
692.43	20280.74
692.57	19955.41
692.70	19957.75
692.84	19723.69
692.97	19819.66
693.11	19606.67
693.24	19515.39
693.38	19393.68
693.51	19389.00
693.65	19470.92
693.78	19276.65
693.92	19550.49
694.05	19138.56
694.19	19138.56
694.32	19136.22
694.45	19215.80
694.59	18864.72
694.72	18654.07
694.86	18637.69
694.99	18766.42
695.13	18684.50
695.26	18546.40
695.39	18530.02
695.53	18845.99
695.66	18537.04
695.80	18370.86
695.93	18274.90
696.07	17853.61
696.20	18008.08
696.33	18068.94
696.47	17912.12
696.60	17741.26
696.73	18036.17
696.87	17453.37
697.00	17586.79
697.14	17198.26
697.27	17399.54
697.40	17366.78
697.54	17184.21
697.67	17039.10
697.80	17032.08
697.94	17046.12
698.07	16872.92
698.21	16620.14
698.34	16854.20
698.47	17114.00
698.61	16477.37
698.74	16535.88
698.87	16596.74
699.01	16549.93
699.14	15932.03
699.27	16168.42
699.40	16341.62
699.54	16177.78
699.67	15917.98
699.80	15974.16
699.94	15775.21
700.07	16156.72
700.20	15836.06
700.34	15726.06
700.47	15618.39
700.60	15885.22
700.73	15758.83
700.87	15803.30
701.00	15290.72
701.13	15283.70
701.26	15321.15
701.40	15129.22
701.53	14941.98
701.66	15208.80
701.79	15040.28
701.93	14902.19
702.06	14860.06
702.19	14801.55
702.32	14878.79
702.46	14815.59
702.59	14745.38
702.72	14630.69
702.85	14565.15
702.99	14595.58
703.12	14595.58
703.25	14295.99
703.38	14368.55
703.51	14366.21
703.65	13968.32
703.78	13944.91
703.91	13551.70
704.04	13738.94
704.17	13900.44
704.31	13792.78
704.44	13582.13
704.57	13507.23
704.70	13273.18
704.83	13731.92
704.96	13582.13
705.10	13507.23
705.23	13467.44
>>>>>End Processed Spectral Data<<<<<
