SpectraSuite Data File
++++++++++++++++++++++++++++++++++++
Date: Fri Oct 25 11:34:48 EDT 2013
User: price-jones
Dark Spectrum Present: No
Reference Spectrum Present: No
Number of Sampled Component Spectra: 1
Spectrometers: USB2+H05261
Integration Time (usec): 100000 (USB2+H05261)
Spectra Averaged: 1 (USB2+H05261)
Boxcar Smoothing: 0 (USB2+H05261)
Correct for Electrical Dark: No (USB2+H05261)
Strobe/Lamp Enabled: No (USB2+H05261)
Correct for Detector Non-linearity: No (USB2+H05261)
Correct for Stray Light: No (USB2+H05261)
Number of Pixels in Processed Spectrum: 2048
>>>>>Begin Processed Spectral Data<<<<<
365.73	292.57
365.92	292.57
366.12	292.57
366.32	215.33
366.52	128.73
366.72	156.82
366.91	189.58
367.11	180.22
367.31	259.80
367.51	198.95
367.70	163.84
367.90	196.60
368.10	224.69
368.30	161.50
368.49	184.90
368.69	217.67
368.89	238.73
369.09	224.69
369.28	250.44
369.48	196.60
369.68	332.36
369.87	271.50
370.07	285.55
370.27	266.82
370.47	337.04
370.66	454.06
370.86	470.45
371.06	550.03
371.25	500.87
371.45	510.24
371.65	594.50
371.84	592.16
372.04	566.41
372.24	561.73
372.44	550.03
372.63	622.58
372.83	585.13
373.03	559.39
373.22	655.35
373.42	634.29
373.62	692.80
373.81	657.69
374.01	608.54
374.21	671.73
374.40	613.22
374.60	641.31
374.79	622.58
374.99	674.07
375.19	657.69
375.38	704.50
375.58	620.24
375.78	601.52
375.97	709.18
376.17	690.46
376.37	631.94
376.56	697.48
376.76	617.90
376.95	718.54
377.15	690.46
377.35	620.24
377.54	734.93
377.74	662.37
377.93	730.25
378.13	688.12
378.33	657.69
378.52	720.88
378.72	669.39
378.91	681.10
379.11	662.37
379.31	676.41
379.50	755.99
379.70	660.03
379.89	727.91
380.09	758.33
380.28	725.57
380.48	730.25
380.68	784.08
380.87	774.72
381.07	744.29
381.26	727.91
381.46	748.97
381.65	730.25
381.85	711.52
382.04	713.86
382.24	758.33
382.43	744.29
382.63	758.33
382.83	767.70
383.02	835.57
383.22	779.40
383.41	758.33
383.61	777.06
383.80	849.61
384.00	765.36
384.19	674.07
384.39	744.29
384.58	786.42
384.78	798.12
384.97	800.46
385.17	798.12
385.36	849.61
385.56	922.17
385.75	779.40
385.95	791.10
386.14	840.25
386.34	842.59
386.53	819.19
386.72	823.87
386.92	861.32
387.11	856.64
387.31	844.93
387.50	870.68
387.70	903.45
387.89	851.96
388.09	830.89
388.28	940.90
388.48	880.04
388.67	894.08
388.86	856.64
389.06	903.45
389.25	910.47
389.45	950.26
389.64	933.87
389.84	964.30
390.03	936.21
390.22	924.51
390.42	1001.75
390.61	917.49
390.81	938.55
391.00	882.38
391.19	1064.94
391.39	1036.86
391.58	964.30
391.78	985.37
391.97	945.58
392.16	957.28
392.36	994.73
392.55	983.02
392.75	1048.56
392.94	978.34
393.13	1104.73
393.33	1067.28
393.52	990.05
393.71	1025.15
393.91	999.41
394.10	1036.86
394.29	1071.97
394.49	1006.43
394.68	1078.99
394.88	1104.73
395.07	1130.48
395.26	1109.41
395.46	1097.71
395.65	1086.01
395.84	1081.33
396.04	1205.38
396.23	1043.88
396.42	1163.25
396.62	1184.31
396.81	1163.25
397.00	1196.01
397.19	1179.63
397.39	1205.38
397.58	1266.23
397.77	1128.14
397.97	1146.86
398.16	1219.42
398.35	1228.78
398.55	1231.12
398.74	1217.08
398.93	1291.98
399.12	1245.16
399.32	1210.06
399.51	1259.21
399.70	1308.36
399.90	1196.01
400.09	1259.21
400.28	1390.28
400.47	1308.36
400.67	1345.81
400.86	1282.61
401.05	1423.05
401.24	1362.19
401.44	1310.70
401.63	1317.72
401.82	1481.56
402.01	1371.55
402.21	1397.30
402.40	1486.24
402.59	1359.85
402.78	1519.01
402.97	1460.49
403.17	1488.58
403.36	1444.11
403.55	1474.54
403.74	1603.27
403.93	1495.60
404.13	1511.99
404.32	1570.50
404.51	1465.18
404.70	1624.33
404.89	1570.50
405.09	1624.33
405.28	1570.50
405.47	1577.52
405.66	1586.88
405.85	1591.56
406.05	1678.16
406.24	1582.20
406.43	1561.14
406.62	1659.44
406.81	1729.66
407.00	1792.85
407.20	1682.85
407.39	1767.10
407.58	1823.28
407.77	1858.39
407.96	1827.96
408.15	1888.81
408.34	1734.34
408.54	1783.49
408.73	1895.83
408.92	1722.63
409.11	1811.57
409.30	1856.04
409.49	1881.79
409.68	1907.54
409.87	1849.02
410.07	1968.39
410.26	1942.64
410.45	1952.01
410.64	1940.30
410.83	1926.26
411.02	1987.11
411.21	1977.75
411.40	1942.64
411.59	2132.23
411.78	2120.53
411.98	2047.97
412.17	2062.01
412.36	2174.36
412.55	2169.68
412.74	2195.42
412.93	2174.36
413.12	2200.10
413.31	2282.02
413.50	2312.45
413.69	2270.32
413.88	2436.50
414.07	2429.48
414.26	2462.24
414.45	2415.43
414.64	2366.28
414.83	2487.99
415.02	2525.44
415.22	2569.91
415.41	2560.55
415.60	2450.54
415.79	2579.27
415.98	2558.21
416.17	2619.06
416.36	2553.52
416.55	2595.65
416.74	2640.12
416.93	2628.42
417.12	2602.68
417.31	2729.06
417.50	2752.47
417.69	2759.49
417.88	2759.49
418.07	2855.45
418.26	2928.01
418.45	2825.03
418.64	2949.08
418.83	2890.56
419.02	2895.24
419.21	3021.63
419.39	3052.06
419.58	2960.78
419.77	2876.52
419.96	2939.71
420.15	3117.59
420.34	3019.29
420.53	2909.29
420.72	3047.38
420.91	3108.23
421.10	3052.06
421.29	3009.93
421.48	3007.59
421.67	3155.04
421.86	3143.34
422.05	3178.45
422.24	3082.49
422.43	3155.04
422.61	3220.58
422.80	3105.89
422.99	3141.00
423.18	3143.34
423.37	3316.54
423.56	3185.47
423.75	3239.30
423.94	3124.62
424.13	3054.40
424.32	3119.93
424.50	3283.77
424.69	3262.71
424.88	3356.33
425.07	3192.49
425.26	3173.77
425.45	3150.36
425.64	3204.19
425.83	3222.92
426.01	3332.92
426.20	3335.26
426.39	3382.07
426.58	3314.20
426.77	3377.39
426.96	3363.35
427.15	3295.47
427.33	3405.48
427.52	3349.31
427.71	3349.31
427.90	3473.36
428.09	3361.01
428.28	3396.12
428.46	3501.44
428.65	3569.32
428.84	3691.02
429.03	3520.17
429.22	3459.31
429.40	3728.47
429.59	3613.79
429.78	3630.17
429.97	3501.44
430.16	3648.90
430.34	3585.70
430.53	3705.07
430.72	3735.50
430.91	3669.96
431.10	3651.24
431.28	3758.90
431.47	3789.33
431.66	3744.86
431.85	3695.71
432.03	3803.37
432.22	3955.51
432.41	3843.16
432.60	3873.59
432.79	3915.72
432.97	3908.69
433.16	3889.97
433.35	3936.78
433.54	3852.52
433.72	3957.85
433.91	3999.98
434.10	3920.40
434.28	3974.23
434.47	4028.06
434.66	3873.59
434.85	3896.99
435.03	4177.86
435.22	4154.45
435.41	4241.05
435.59	4109.98
435.78	4194.24
435.97	4224.67
436.16	4084.23
436.34	4229.35
436.53	4250.41
436.72	4234.03
436.90	4201.26
437.09	4234.03
437.28	4182.54
437.46	4198.92
437.65	4376.80
437.84	4351.06
438.02	4320.63
438.21	4376.80
438.40	4318.29
438.58	4587.45
438.77	4557.02
438.96	4519.57
439.14	4601.49
439.33	4575.75
439.52	4765.33
439.70	4580.43
439.89	4828.53
440.08	4816.82
440.26	4826.18
440.45	4713.84
440.63	4760.65
440.82	4919.81
441.01	4774.69
441.19	4905.76
441.38	4997.04
441.57	4924.49
441.75	4964.28
441.94	5149.18
442.12	5186.63
442.31	5123.43
442.50	5048.54
442.68	5256.84
442.87	5055.56
443.05	5327.06
443.24	5160.88
443.43	5085.98
443.61	5280.25
443.80	5425.36
443.98	5132.79
444.17	5050.88
444.35	5219.39
444.54	5350.46
444.73	5373.87
444.91	5214.71
445.10	5392.59
445.28	5472.17
445.47	5245.14
445.65	5317.70
445.84	5378.55
446.02	5444.09
446.21	5366.85
446.39	5315.36
446.58	5523.66
446.77	5659.42
446.95	5324.72
447.14	5371.53
447.32	5596.22
447.51	5530.69
447.69	5444.09
447.88	5432.38
448.06	5565.79
448.25	5205.35
448.43	5462.81
448.62	5488.56
448.80	5481.53
448.99	5523.66
449.17	5563.45
449.36	5631.33
449.54	5715.59
449.73	5687.50
449.91	5738.99
450.10	5659.42
450.28	5856.02
450.46	5863.04
450.65	5795.17
450.83	5746.02
451.02	5731.97
451.20	5919.21
451.39	5881.77
451.57	5818.57
451.76	5926.24
451.94	5746.02
452.13	5902.83
452.31	5991.77
452.49	5870.06
452.68	6235.19
452.86	5790.49
453.05	6148.59
453.23	5940.28
453.42	6146.25
453.60	5844.32
453.78	6054.97
453.97	6080.71
454.15	6277.32
454.34	6078.37
454.52	6061.99
454.70	6246.89
454.89	6342.85
455.07	6326.47
455.26	6230.51
455.44	6186.04
455.62	6202.42
455.81	6441.15
455.99	6438.81
456.17	6282.00
456.36	6445.84
456.54	6387.32
456.73	6476.26
456.91	6700.95
457.09	6619.04
457.28	6640.10
457.46	6410.73
457.64	6665.85
457.83	6640.10
458.01	6539.46
458.19	6785.21
458.38	6595.63
458.56	6843.73
458.74	6658.82
458.93	6895.22
459.11	6780.53
459.29	6857.77
459.48	6918.62
459.66	6960.75
459.84	6911.60
460.03	6906.92
460.21	6923.30
460.39	6937.35
460.57	6951.39
460.76	7082.46
460.94	7129.27
461.12	7262.68
461.31	7042.67
461.49	7131.61
461.67	7265.02
461.85	7206.51
462.04	7089.48
462.22	7267.36
462.40	7255.66
462.59	7302.47
462.77	7239.28
462.95	7255.66
463.13	7295.45
463.32	7197.15
463.50	7412.48
463.68	7410.14
463.86	7644.19
464.05	7398.43
464.23	7370.35
464.41	7630.15
464.59	7382.05
464.78	7543.55
464.96	7639.51
465.14	7487.37
465.32	7588.02
465.50	7705.04
465.69	7733.13
465.87	7726.11
466.05	7707.38
466.23	7744.83
466.41	7721.43
466.60	7929.74
466.78	7793.98
466.96	7606.74
467.14	7681.64
467.32	7646.53
467.51	7906.33
467.69	7625.47
467.87	7976.55
468.05	7971.86
468.23	7772.92
468.41	7995.27
468.60	8002.29
468.78	7906.33
468.96	7894.63
469.14	8191.88
469.32	8201.24
469.50	8049.10
469.69	8074.85
469.87	8135.70
470.05	8236.35
470.23	8248.05
470.41	8262.09
470.59	8344.01
470.77	8238.69
470.95	8124.00
471.14	8344.01
471.32	8142.72
471.50	8428.27
471.68	8533.59
471.86	8650.62
472.04	8676.37
472.22	8744.24
472.40	8533.59
472.58	8685.73
472.77	8793.39
472.95	8589.77
473.13	9022.77
473.31	8833.18
473.49	8917.44
473.67	8849.57
473.85	8879.99
474.03	9217.03
474.21	9013.40
474.39	9240.44
474.57	9263.84
474.75	9177.24
474.93	9369.16
475.12	9430.02
475.30	9563.43
475.48	9465.13
475.66	9666.41
475.84	9495.55
476.02	9572.79
476.20	9643.01
476.38	9888.76
476.56	9675.77
476.74	10122.82
476.92	10040.90
477.10	9977.70
477.28	10150.90
477.46	9994.09
477.64	10408.36
477.82	10326.44
478.00	10349.85
478.18	10324.10
478.36	10375.59
478.54	10663.48
478.72	10738.38
478.90	10815.62
479.08	10822.64
479.26	10904.56
479.44	11073.07
479.62	11382.03
479.80	11311.81
479.98	11405.43
480.16	11391.39
480.34	11403.09
480.52	11538.84
480.70	11524.80
480.88	11625.44
481.06	11585.65
481.24	11730.76
481.41	11714.38
481.59	11908.65
481.77	11960.14
481.95	11964.82
482.13	12250.36
482.31	12168.45
482.49	12559.31
482.67	12538.25
482.85	12636.55
483.03	12751.24
483.21	12912.74
483.39	12952.52
483.57	12877.63
483.74	13062.53
483.92	13111.68
484.10	13011.04
484.28	13479.15
484.46	13715.54
484.64	13575.11
484.82	13628.94
485.00	13605.53
485.18	13954.27
485.35	13926.19
485.53	14429.40
485.71	14141.52
485.89	14387.27
486.07	14553.45
486.25	14389.61
486.43	14492.60
486.61	14614.30
486.78	14792.19
486.96	14925.60
487.14	15243.91
487.32	15384.34
487.50	15171.35
487.68	15398.38
487.85	15524.77
488.03	15632.44
488.21	15913.30
488.39	15969.48
488.57	15850.11
488.75	16116.93
488.92	16379.07
489.10	16453.97
489.28	16531.20
489.46	16788.66
489.64	16573.33
489.81	17102.29
489.99	17163.15
490.17	17015.69
490.35	17298.90
490.53	17446.35
490.70	17547.00
490.88	17596.15
491.06	17504.87
491.24	17680.41
491.41	17823.18
491.59	17919.14
491.77	18200.01
491.95	18221.07
492.13	18342.78
492.30	18530.02
492.48	18831.95
492.66	18361.50
492.84	18759.39
493.01	18890.46
493.19	18829.61
493.37	19358.57
493.54	19330.48
493.72	19468.58
493.90	19459.21
494.08	19658.16
494.25	19728.38
494.43	19847.74
494.61	20215.21
494.79	20030.30
494.96	19866.47
495.14	20372.02
495.32	20343.94
495.49	20575.65
495.67	20463.30
495.85	20561.61
496.02	20748.85
496.20	20826.09
496.38	20858.85
496.55	20999.29
496.73	21362.07
496.91	21041.42
497.09	21308.24
497.26	21774.00
497.44	21434.63
497.62	21355.05
497.79	21858.26
497.97	21926.14
498.14	22295.94
498.32	22443.40
498.50	22211.68
498.67	22422.33
498.85	22417.65
499.03	22490.21
499.20	22338.07
499.38	22511.27
499.56	22799.16
499.73	22909.16
499.91	23068.32
500.08	23084.70
500.26	23379.61
500.44	23136.20
500.61	23108.11
500.79	23283.65
500.97	23396.00
501.14	24032.62
501.32	23707.29
501.49	23779.84
501.67	24159.01
501.84	23847.72
502.02	23894.53
502.20	23934.32
502.37	23941.34
502.55	24233.91
502.72	24435.19
502.90	24444.56
503.07	24355.61
503.25	24505.41
503.43	24648.18
503.60	24870.53
503.78	24638.82
503.95	25111.61
504.13	24790.95
504.30	25022.67
504.48	25338.64
504.65	25490.77
504.83	25521.20
505.01	25642.91
505.18	25596.10
505.36	25605.46
505.53	25411.20
505.71	25701.42
505.88	25425.24
506.06	25834.83
506.23	25989.31
506.41	25949.52
506.58	25830.15
506.76	26106.34
506.93	26061.87
507.11	26195.28
507.28	26464.44
507.46	26665.72
507.63	26354.43
507.81	26532.31
507.98	26199.96
508.16	26632.96
508.33	27115.11
508.50	26937.23
508.68	27159.58
508.85	27229.79
509.03	27220.43
509.20	27087.02
509.38	27520.02
509.55	27728.33
509.73	27690.88
509.90	27501.29
510.08	27817.27
510.25	27716.62
510.42	27927.27
510.60	27931.95
510.77	27901.53
510.95	28280.69
511.12	28290.06
511.30	28067.70
511.47	28034.94
511.64	28079.41
511.82	28463.25
511.99	28283.03
512.17	28622.41
512.34	28769.86
512.51	29032.00
512.69	28870.51
512.86	28994.56
513.04	28631.77
513.21	28819.02
513.38	28849.44
513.56	29256.70
513.73	29331.59
513.90	29324.57
514.08	29282.44
514.25	29717.78
514.43	29453.30
514.60	29771.61
514.77	29736.51
514.95	29738.85
515.12	29610.12
515.29	29804.38
515.47	29886.30
515.64	30368.45
515.81	29919.07
515.99	30272.49
516.16	31068.27
516.33	30139.08
516.51	30167.16
516.68	30717.19
516.85	30506.54
517.03	30621.23
517.20	30576.76
517.37	30799.11
517.54	30906.77
517.72	30871.67
517.89	31117.42
518.06	31213.38
518.24	30838.90
518.41	30747.62
518.58	30824.86
518.75	30885.71
518.93	31379.56
519.10	31372.54
519.27	31260.20
519.45	31529.36
519.62	31573.83
519.79	31735.32
519.96	31386.58
520.14	31662.77
520.31	31807.88
520.48	31941.29
520.65	32063.00
520.83	32343.86
521.00	32306.41
521.17	32013.85
521.34	32589.62
521.52	32498.34
521.69	32451.53
521.86	32442.17
522.03	32755.80
522.20	32807.29
522.38	33188.80
522.55	32943.04
522.72	32648.13
522.89	32940.70
523.07	33486.04
523.24	33181.77
523.41	33127.94
523.58	33165.39
523.75	33633.50
523.92	33216.88
524.10	33532.86
524.27	33755.21
524.44	33376.04
524.61	33818.40
524.78	33743.50
524.96	33727.12
525.13	34263.10
525.30	34146.08
525.47	34270.12
525.64	34167.14
525.81	33741.16
525.98	34672.70
526.16	33958.83
526.33	34190.55
526.50	34773.34
526.67	33846.49
526.84	34656.31
527.01	34117.99
527.18	34237.36
527.36	34448.00
527.53	34600.14
527.70	35082.29
527.87	34607.16
528.04	34426.94
528.21	34834.19
528.38	34890.37
528.55	34902.07
528.72	34822.49
528.89	35129.10
529.07	34660.99
529.24	34742.91
529.41	35541.03
529.58	35089.31
529.75	35201.66
529.92	35552.74
530.09	35299.96
530.26	35166.55
530.43	35508.27
530.60	34937.18
530.77	35309.32
530.94	35779.77
531.11	35548.06
531.28	35789.13
531.46	35871.05
531.63	36168.30
531.80	35716.58
531.97	35906.16
532.14	36282.98
532.31	36320.43
532.48	35959.99
532.65	36402.35
532.82	36301.71
532.99	36533.42
533.16	36411.71
533.33	36016.16
533.50	36297.03
533.67	36142.55
533.84	36123.83
534.01	36147.23
534.18	36392.99
534.35	36840.03
534.52	37186.43
534.69	36254.90
534.86	36807.26
535.03	36692.58
535.20	36985.15
535.37	37038.98
535.54	36760.45
535.71	37198.13
535.88	37376.01
536.05	37013.23
536.22	37654.54
536.38	37387.72
536.55	37523.47
536.72	37230.90
536.89	37170.05
537.06	37762.20
537.23	37563.26
537.40	37343.25
537.57	37242.60
537.74	37418.14
537.91	37759.86
538.08	37551.56
538.25	37287.07
538.42	37404.10
538.59	37813.70
538.75	37474.32
538.92	37977.53
539.09	38373.08
539.26	38417.55
539.43	38026.68
539.60	38087.54
539.77	38089.88
539.94	38370.74
540.11	38225.63
540.28	38541.60
540.44	38209.25
540.61	38153.07
540.78	38335.63
540.95	38099.24
541.12	38529.90
541.29	38534.58
541.46	38550.96
541.62	38529.90
541.79	38857.57
541.96	38377.76
542.13	38829.49
542.30	38604.80
542.47	39201.63
542.63	39171.21
542.80	38920.77
542.97	39454.41
543.14	39765.70
543.31	39267.17
543.48	38932.47
543.64	39641.65
543.81	39676.76
543.98	39522.29
544.15	39044.82
544.32	39749.32
544.48	39805.49
544.65	39772.72
544.82	40219.77
544.99	39580.80
545.16	39702.51
545.32	39772.72
545.49	40271.26
545.66	40189.34
545.83	39950.60
546.00	40355.52
546.16	39868.69
546.33	39695.49
546.50	40062.95
546.67	40149.55
546.83	39859.32
547.00	40268.92
547.17	39913.16
547.34	39969.33
547.50	40346.15
547.67	40526.38
547.84	40608.29
548.00	40399.99
548.17	41062.36
548.34	40687.87
548.51	40676.17
548.67	40907.88
548.84	40762.77
549.01	40964.06
549.18	40421.05
549.34	41258.96
549.51	40835.33
549.68	40793.20
549.84	40570.85
550.01	41141.94
550.18	40620.00
550.34	40942.99
550.51	41528.13
550.68	41488.34
550.84	40727.66
551.01	41357.27
551.18	40877.46
551.34	40858.73
551.51	41099.81
551.68	41603.02
551.84	41383.01
552.01	41392.37
552.18	41265.99
552.34	41067.04
552.51	41532.81
552.68	41141.94
552.84	41294.07
553.01	41371.31
553.18	41493.02
553.34	41638.13
553.51	41535.15
553.67	41364.29
553.84	41827.71
554.01	41549.19
554.17	41219.17
554.34	41703.67
554.51	41736.43
554.67	41963.46
554.84	42160.07
555.00	41808.99
555.17	41825.37
555.33	42394.12
555.50	41682.60
555.67	41998.57
555.83	42312.20
556.00	42253.69
556.16	42686.69
556.33	42148.37
556.50	42548.60
556.66	42677.33
556.83	41654.51
556.99	42253.69
557.16	42873.93
557.32	42522.85
557.49	42679.67
557.65	42281.78
557.82	42176.45
557.98	42021.98
558.15	42595.41
558.32	42291.14
558.48	42131.98
558.65	42562.64
558.81	42951.17
558.98	42330.93
559.14	42710.10
559.31	42913.72
559.47	42710.10
559.64	42871.59
559.80	43255.44
559.97	43360.76
560.13	42773.29
560.30	42635.20
560.46	42939.47
560.63	43007.34
560.79	42890.32
560.96	42965.21
561.12	42838.83
561.29	43058.84
561.45	43026.07
561.61	42932.45
561.78	43304.59
561.94	43285.87
562.11	42906.70
562.27	43517.58
562.44	43501.20
562.60	43613.54
562.77	43196.93
562.93	43063.52
563.10	43379.49
563.26	43208.63
563.42	43351.40
563.59	43470.77
563.75	43016.71
563.92	43540.99
564.08	43187.56
564.24	43349.06
564.41	43496.52
564.57	43510.56
564.74	43438.00
564.90	43400.55
565.07	43112.67
565.23	43316.29
565.39	43225.01
565.56	43739.93
565.72	43203.95
565.88	43868.66
566.05	43398.21
566.21	43695.46
566.38	44069.95
566.54	43922.49
566.70	43693.12
566.87	43548.01
567.03	43768.02
567.19	43702.48
567.36	43613.54
567.52	43732.91
567.68	43915.47
567.85	43655.67
568.01	43796.10
568.17	43491.83
568.34	43880.36
568.50	43412.26
568.66	43339.70
568.83	43798.44
568.99	44039.52
569.15	43758.66
569.32	43880.36
569.48	43906.11
569.64	44264.21
569.81	43782.06
569.97	43583.12
570.13	44250.17
570.30	43861.64
570.46	43765.68
570.62	43723.55
570.78	44168.25
570.95	44091.01
571.11	44788.49
571.27	43807.81
571.43	43655.67
571.60	44247.83
571.76	43887.39
571.92	43906.11
572.09	44137.82
572.25	43973.98
572.41	43856.96
572.57	44313.36
572.74	44641.04
572.90	44215.06
573.06	44226.76
573.22	44156.55
573.38	44282.94
573.55	44423.37
573.71	44680.83
573.87	44205.70
574.03	44343.79
574.20	44020.80
574.36	44582.52
574.52	44081.65
574.68	44123.78
574.84	44355.49
575.01	44474.86
575.17	44488.90
575.33	44385.92
575.49	43824.19
575.65	44741.68
575.82	44673.81
575.98	44432.73
576.14	44610.61
576.30	44626.99
576.46	44271.23
576.62	44076.97
576.79	44194.00
576.95	43676.74
577.11	44161.23
577.27	44919.56
577.43	44392.94
577.59	44069.95
577.75	43966.96
577.92	44055.90
578.08	44362.51
578.24	44360.17
578.40	44509.97
578.56	44285.28
578.72	44568.48
578.88	44617.63
579.04	44486.56
579.21	44498.26
579.37	44767.43
579.53	44931.26
579.69	44514.65
579.85	44245.49
580.01	44561.46
580.17	45120.85
580.33	44737.00
580.49	44814.24
580.65	44495.92
580.82	44243.15
580.98	44582.52
581.14	44418.69
581.30	44554.44
581.46	44779.13
581.62	44350.81
581.78	44278.25
581.94	44641.04
582.10	44472.52
582.26	44669.12
582.42	44657.42
582.58	44741.68
582.74	44472.52
582.90	44556.78
583.06	45017.86
583.22	44472.52
583.38	45020.20
583.54	44767.43
583.70	44980.42
583.86	44676.15
584.02	44905.52
584.18	45041.27
584.34	44793.17
584.50	44825.94
584.66	44886.79
584.82	44891.48
584.98	45010.84
585.14	44949.99
585.30	44626.99
585.46	44720.62
585.62	44556.78
585.78	44910.20
585.94	44186.97
586.10	44437.41
586.26	44044.20
586.42	44896.16
586.58	44491.24
586.74	44678.49
586.90	44545.08
587.06	44217.40
587.22	44926.58
587.38	44425.71
587.54	44779.13
587.70	44844.66
587.86	44994.46
588.02	44428.05
588.18	44978.07
588.34	44753.38
588.49	44786.15
588.65	44772.11
588.81	44472.52
588.97	44524.01
589.13	44875.09
589.29	44596.57
589.45	45153.62
589.61	44994.46
589.77	44959.35
589.93	45230.85
590.08	45099.78
590.24	45003.82
590.40	45254.26
590.56	45485.97
590.72	45312.77
590.88	45036.59
591.04	45237.87
591.20	45338.52
591.35	44966.37
591.51	45567.89
591.67	45104.46
591.83	45488.31
591.99	45326.81
592.15	45471.93
592.31	45216.81
592.46	44823.60
592.62	45209.79
592.78	45492.99
592.94	45546.82
593.10	45556.19
593.26	45457.88
593.41	45654.49
593.57	45511.72
593.73	45778.54
593.89	45727.05
594.05	45663.85
594.20	45617.04
594.36	46178.77
594.52	45099.78
594.68	45387.67
594.84	45298.73
594.99	45694.28
595.15	45565.55
595.31	45696.62
595.47	45535.12
595.62	45436.82
595.78	45436.82
595.94	45408.73
596.10	45703.64
596.25	45324.47
596.41	45586.61
596.57	45282.34
596.73	45572.57
596.88	45675.55
597.04	45684.92
597.20	45617.04
597.36	45677.90
597.51	45556.19
597.67	45504.70
597.83	45219.15
597.99	45577.25
598.14	45205.11
598.30	45558.53
598.46	45752.79
598.61	45904.93
598.77	45516.40
598.93	45455.54
599.09	45296.39
599.24	46157.70
599.40	45668.53
599.56	45652.15
599.71	45624.06
599.87	46110.89
600.03	45914.29
600.18	45780.88
600.34	45244.90
600.50	45839.39
600.65	45305.75
600.81	46047.70
600.97	45668.53
601.12	46031.32
601.28	45525.76
601.44	45708.32
601.59	45759.81
601.75	45102.12
601.91	45921.31
602.06	45521.08
602.22	45897.91
602.37	45553.85
602.53	45771.52
602.69	45862.80
602.84	45460.23
603.00	45385.33
603.16	45757.47
603.31	45851.09
603.47	45888.54
603.62	45853.44
603.78	45661.51
603.94	45645.13
604.09	45860.46
604.25	45413.41
604.40	45296.39
604.56	45883.86
604.71	45481.29
604.87	45408.73
605.03	45425.12
605.18	45785.56
605.34	45675.55
605.49	45558.53
605.65	45750.45
605.80	45097.44
605.96	45249.58
606.12	45148.93
606.27	45666.19
606.43	45347.88
606.58	45860.46
606.74	45785.56
606.89	45839.39
607.05	45720.02
607.20	45635.77
607.36	45275.32
607.51	45649.81
607.67	45223.83
607.82	45067.02
607.98	45705.98
608.13	45841.73
608.29	45518.74
608.44	45448.52
608.60	44875.09
608.75	45310.43
608.91	45097.44
609.06	45104.46
609.22	45666.19
609.37	45230.85
609.53	45411.07
609.68	45848.75
609.84	45148.93
609.99	45106.80
610.15	45329.16
610.30	45483.63
610.46	45280.00
610.61	45305.75
610.76	45256.60
610.92	44863.39
611.07	44458.48
611.23	44505.29
611.38	45127.87
611.54	45258.94
611.69	45574.91
611.84	45294.05
612.00	45207.45
612.15	44994.46
612.31	45095.10
612.46	44722.96
612.62	45177.02
612.77	44898.50
612.92	45305.75
613.08	45155.96
613.23	45268.30
613.39	45146.59
613.54	44549.76
613.69	45106.80
613.85	44832.96
614.00	44835.30
614.15	45209.79
614.31	44886.79
614.46	44737.00
614.62	44645.72
614.77	45258.94
614.92	44591.89
615.08	44690.19
615.23	44634.02
615.38	45186.38
615.54	44886.79
615.69	44861.05
615.84	45141.91
616.00	45001.48
616.15	44634.02
616.30	44978.07
616.46	44313.36
616.61	44573.16
616.76	44692.53
616.92	44453.79
617.07	44617.63
617.22	44528.69
617.37	44538.05
617.53	44889.13
617.68	44416.35
617.83	44772.11
617.99	44704.23
618.14	44957.01
618.29	44250.17
618.45	44783.81
618.60	44191.65
618.75	44006.75
618.90	44341.45
619.06	44652.74
619.21	44275.91
619.36	44744.02
619.51	44208.04
619.67	43878.02
619.82	44559.12
619.97	44343.79
620.12	43917.81
620.28	44474.86
620.43	44423.37
620.58	44226.76
620.73	44432.73
620.89	44514.65
621.04	44374.22
621.19	44264.21
621.34	44116.76
621.49	43791.42
621.65	44196.34
621.80	44767.43
621.95	44203.36
622.10	44140.16
622.25	44147.18
622.41	44074.63
622.56	44163.57
622.71	43803.13
622.86	43798.44
623.01	44308.68
623.16	43721.21
623.32	43920.15
623.47	43997.39
623.62	43454.39
623.77	43775.04
623.92	43676.74
624.07	44041.86
624.23	43559.71
624.38	43945.90
624.53	43880.36
624.68	43835.89
624.83	43555.03
624.98	43597.16
625.13	43430.98
625.29	43711.84
625.44	43489.49
625.59	43461.41
625.74	43459.07
625.89	43346.72
626.04	43103.31
626.19	43325.66
626.34	43302.25
626.49	42913.72
626.65	43019.05
626.80	43187.56
626.95	43412.26
627.10	42836.48
627.25	43096.28
627.40	43248.42
627.55	42780.31
627.70	42946.49
627.85	43349.06
628.00	43061.18
628.15	43185.22
628.30	42782.65
628.45	42869.25
628.60	42895.00
628.76	42925.42
628.91	43016.71
629.06	42581.37
629.21	43105.65
629.36	42354.33
629.51	42712.44
629.66	43056.50
629.81	42827.12
629.96	42925.42
630.11	42349.65
630.26	42450.30
630.41	42494.77
630.56	42520.51
630.71	42644.56
630.86	42480.72
631.01	42218.58
631.16	42490.09
631.31	42761.59
631.46	42337.95
631.61	42862.23
631.76	42487.74
631.91	42787.33
632.06	42424.55
632.21	42934.79
632.36	42429.23
632.51	42050.06
632.66	42209.22
632.81	41984.53
632.96	42181.13
633.10	42204.54
633.25	42103.90
633.40	42253.69
633.55	42454.98
633.70	42354.33
633.85	42106.24
634.00	42103.90
634.15	42328.59
634.30	41984.53
634.45	42124.96
634.60	41769.20
634.75	42206.88
634.90	41944.74
635.05	42082.83
635.19	41755.16
635.34	42412.85
635.49	42094.53
635.64	41851.12
635.79	41748.14
635.94	41741.11
636.09	41825.37
636.24	41392.37
636.39	42096.88
636.53	41816.01
636.68	41486.00
636.83	41188.75
636.98	41326.84
637.13	41556.21
637.28	41523.44
637.43	41474.29
637.57	41516.42
637.72	41462.59
637.87	41450.89
638.02	41523.44
638.17	41420.46
638.32	40898.52
638.46	41092.79
638.61	40987.46
638.76	41312.80
638.91	41069.38
639.06	40940.65
639.20	41120.87
639.35	41074.06
639.50	41050.66
639.65	41116.19
639.80	41439.18
639.94	41497.70
640.09	41490.68
640.24	40952.35
640.39	40634.04
640.54	41024.91
640.68	41130.23
640.83	41453.23
640.98	40975.76
641.13	40715.96
641.27	40802.56
641.42	40898.52
641.57	40577.87
641.72	41329.18
641.86	40659.79
642.01	40662.13
642.16	40615.32
642.31	40212.74
642.45	40692.55
642.60	40589.57
642.75	40577.87
642.90	40870.43
643.04	40945.33
643.19	40414.03
643.34	40299.34
643.48	40198.70
643.63	40362.54
643.78	40992.14
643.93	41074.06
644.07	40788.52
644.22	40474.88
644.37	40348.50
644.51	40495.95
644.66	40495.95
644.81	39943.58
644.95	40416.37
645.10	40402.33
645.25	40378.92
645.39	40198.70
645.54	40292.32
645.69	40304.02
645.83	40158.91
645.98	39922.52
646.13	39959.97
646.27	40018.48
646.42	40072.31
646.57	39885.07
646.71	40311.05
646.86	40011.46
647.00	39903.79
647.15	40217.43
647.30	40577.87
647.44	39454.41
647.59	39861.66
647.74	40301.68
647.88	39739.96
648.03	40065.29
648.17	40421.05
648.32	40114.44
648.47	39952.94
648.61	39761.02
648.76	39845.28
648.90	39505.90
649.05	39971.67
649.20	39964.65
649.34	39585.48
649.49	39934.22
649.63	39789.11
649.78	39344.41
649.92	39398.24
650.07	40004.44
650.21	39440.37
650.36	39981.03
650.51	39784.43
650.65	39683.78
650.80	39590.16
650.94	39557.39
651.09	39482.50
651.23	39014.39
651.38	39161.84
651.52	39248.44
651.67	39442.71
651.81	39360.79
651.96	38817.78
652.10	39075.24
652.25	38998.01
652.39	39105.67
652.54	39332.70
652.68	38934.81
652.83	38836.51
652.97	39461.43
653.12	39072.90
653.26	39159.50
653.41	39150.14
653.55	39108.01
653.70	39196.95
653.84	39241.42
653.99	38689.06
654.13	39180.57
654.27	38752.25
654.42	39023.75
654.56	38675.01
654.71	39019.07
654.85	39093.97
655.00	39007.37
655.14	38672.67
655.29	39093.97
655.43	38808.42
655.57	38499.47
655.72	38422.23
655.86	38340.32
656.01	38686.71
656.15	38277.12
656.30	38120.31
656.44	38417.55
656.58	38796.72
656.73	38438.62
656.87	38314.57
657.01	38354.36
657.16	38581.39
657.30	38696.08
657.45	38499.47
657.59	38106.26
657.73	38197.54
657.88	38169.46
658.02	38213.93
658.16	38696.08
658.31	38326.27
658.45	38059.45
658.60	37956.47
658.74	37919.02
658.88	37923.70
659.03	38129.67
659.17	37619.43
659.31	37600.71
659.46	38026.68
659.60	37900.29
659.74	37530.49
659.89	37577.30
660.03	37455.59
660.17	37668.58
660.32	37572.62
660.46	37158.34
660.60	37055.36
660.74	37123.24
660.89	37390.06
661.03	37783.27
661.17	37022.59
661.32	37261.33
661.46	37240.26
661.60	37017.91
661.74	36704.28
661.89	37584.32
662.03	37053.02
662.17	37064.72
662.31	36809.61
662.46	36999.19
662.60	36285.33
662.74	36624.70
662.88	36570.87
663.03	36662.15
663.17	36549.81
663.31	36158.94
663.45	36498.31
663.60	36898.55
663.74	36708.96
663.88	36898.55
664.02	35786.79
664.17	36582.57
664.31	35971.69
664.45	35943.61
664.59	36388.31
664.73	36032.55
664.88	36121.49
665.02	35655.72
665.16	36290.01
665.30	35770.41
665.44	36297.03
665.59	35199.32
665.73	35587.85
665.87	35571.46
666.01	35845.30
666.15	35332.73
666.29	35571.46
666.44	35426.35
666.58	35363.15
666.72	35086.97
666.86	35325.71
667.00	35412.31
667.14	35089.31
667.28	34871.64
667.43	35047.18
667.57	35342.09
667.71	35250.81
667.85	35105.70
667.99	34483.11
668.13	35061.22
668.27	34721.85
668.41	34513.54
668.56	33940.11
668.70	34309.91
668.84	34132.03
668.98	33935.43
669.12	34291.19
669.26	34209.27
669.40	34419.92
669.54	33900.32
669.68	34300.55
669.82	34012.66
669.96	34253.74
670.10	33722.44
670.25	33762.23
670.39	33839.47
670.53	34094.58
670.67	33652.22
670.81	33757.55
670.95	34178.84
671.09	33727.12
671.23	33057.73
671.37	33579.67
671.51	33092.83
671.65	33338.59
671.79	32994.53
671.93	33448.60
672.07	33237.95
672.21	32961.76
672.35	32678.56
672.49	32978.15
672.63	32694.94
672.77	32957.08
672.91	32638.77
673.05	32517.06
673.19	32275.99
673.33	32697.28
673.47	32643.45
673.61	31915.54
673.75	31716.60
673.89	32004.49
674.03	31976.40
674.17	31669.79
674.31	31569.15
674.45	31749.37
674.59	31763.41
674.73	31770.43
674.87	31407.65
675.01	31508.29
675.15	31138.49
675.29	31054.23
675.43	31358.50
675.56	31321.05
675.70	31274.24
675.84	30941.88
675.98	29818.42
676.12	31082.31
676.26	30909.11
676.40	30785.07
676.54	30642.29
676.68	30644.63
676.82	30155.46
676.96	30597.82
677.10	30157.80
677.23	30433.99
677.37	30113.33
677.51	29837.15
677.65	30611.87
677.79	29972.90
677.93	29895.66
678.07	29404.15
678.21	29340.96
678.34	29572.67
678.48	29539.90
678.62	28910.30
678.76	29401.81
678.90	29163.08
679.04	29097.54
679.18	29392.45
679.31	28971.15
679.45	28638.80
679.59	28807.31
679.73	28589.64
679.87	28444.53
680.00	28617.73
680.14	28048.98
680.28	28381.34
680.42	28432.83
680.56	28390.70
680.70	28208.14
680.83	27772.80
680.97	28100.47
681.11	27807.90
681.25	27527.04
681.39	27597.26
681.52	27356.18
681.66	27014.46
681.80	26621.25
681.94	26897.44
682.07	26621.25
682.21	26801.47
682.35	26759.34
682.49	26857.65
682.62	26913.82
682.76	26738.28
682.90	26623.59
683.04	26773.39
683.17	26637.64
683.31	26228.04
683.45	26204.64
683.59	25734.19
683.72	25542.27
683.86	25858.24
684.00	25598.44
684.13	25680.36
684.27	25563.33
684.41	25568.01
684.55	25308.21
684.68	25343.32
684.82	24987.56
684.96	25149.06
685.09	24781.59
685.23	25062.46
685.37	25153.74
685.50	25481.41
685.64	24954.79
685.78	24802.66
685.91	24613.07
686.05	24669.25
686.19	24081.77
686.32	23983.47
686.46	23878.15
686.60	23716.65
686.73	23789.20
686.87	23786.86
687.01	23733.03
687.14	24194.12
687.28	23618.35
687.42	23403.02
687.55	23559.83
687.69	23477.91
687.82	22995.76
687.96	23253.22
688.10	23426.42
688.23	23332.80
688.37	23218.11
688.50	23325.78
688.64	22864.69
688.78	22916.19
688.91	22714.90
689.05	22813.20
689.18	22672.77
689.32	22317.01
689.46	21820.81
689.59	22082.95
689.73	22473.82
689.86	22419.99
690.00	22155.51
690.13	21848.90
690.27	21872.31
690.41	21638.25
690.54	21659.32
690.68	21738.90
690.81	21301.22
690.95	21128.02
691.08	21057.80
691.22	21167.80
691.35	21008.65
691.49	21057.80
691.62	20971.20
691.76	20669.27
691.89	20486.71
692.03	20603.74
692.16	20194.14
692.30	20250.32
692.43	20278.40
692.57	19850.08
692.70	20149.67
692.84	20411.81
692.97	19763.48
693.11	19768.16
693.24	19761.14
693.38	19761.14
693.51	19697.95
693.65	19522.41
693.78	19346.87
693.92	19529.43
694.05	19379.64
694.19	18944.30
694.32	19112.81
694.45	19262.61
694.59	19396.02
694.72	19335.17
694.86	18930.25
694.99	18511.30
695.13	18614.28
695.26	18885.78
695.39	18246.82
695.53	18253.84
695.66	18520.66
695.80	18370.86
695.93	18455.12
696.07	18132.13
696.20	18127.45
696.33	18033.83
696.47	17579.76
696.60	17610.19
696.73	17666.36
696.87	17642.96
697.00	17628.92
697.14	17455.72
697.27	17348.05
697.40	17554.02
697.54	17462.74
697.67	17111.66
697.80	17170.17
697.94	17083.57
698.07	16884.62
698.21	17032.08
698.34	17125.70
698.47	16629.51
698.61	16484.39
698.74	16404.81
698.87	16313.53
699.01	16173.10
699.14	16362.69
699.27	16252.68
699.40	16098.20
699.54	15885.22
699.67	16196.51
699.80	16365.03
699.94	15927.35
700.07	15913.30
700.20	15784.57
700.34	15637.12
700.47	15695.63
700.60	15700.31
700.73	15623.08
700.87	15276.68
701.00	15400.72
701.13	14991.13
701.26	15150.29
701.40	14995.81
701.53	15016.88
701.66	14836.66
701.79	15016.88
701.93	14705.59
702.06	14665.80
702.19	14728.99
702.32	14665.80
702.46	14480.89
702.59	14579.20
702.72	14705.59
702.85	14628.35
702.99	14230.46
703.12	14281.95
703.25	14218.75
703.38	13965.98
703.51	14078.32
703.65	13984.70
703.78	13509.57
703.91	13848.95
704.04	13668.73
704.17	13621.92
704.31	13591.49
704.44	13575.11
704.57	13369.14
704.70	13593.83
704.83	13130.41
704.96	13266.16
705.10	13200.62
705.23	12870.61
>>>>>End Processed Spectral Data<<<<<
