SpectraSuite Data File
++++++++++++++++++++++++++++++++++++
Date: Fri Oct 25 10:47:59 EDT 2013
User: price-jones
Dark Spectrum Present: No
Reference Spectrum Present: No
Number of Sampled Component Spectra: 1
Spectrometers: USB2+H05261
Integration Time (usec): 100000 (USB2+H05261)
Spectra Averaged: 1 (USB2+H05261)
Boxcar Smoothing: 0 (USB2+H05261)
Correct for Electrical Dark: No (USB2+H05261)
Strobe/Lamp Enabled: No (USB2+H05261)
Correct for Detector Non-linearity: No (USB2+H05261)
Correct for Stray Light: No (USB2+H05261)
Number of Pixels in Processed Spectrum: 2048
>>>>>Begin Processed Spectral Data<<<<<
365.73	112.35
365.92	112.35
366.12	112.35
366.32	46.81
366.52	9.36
366.72	95.96
366.91	67.88
367.11	74.90
367.31	23.41
367.51	0.00
367.70	35.11
367.90	0.00
368.10	25.75
368.30	0.00
368.49	0.00
368.69	79.58
368.89	67.88
369.09	84.26
369.28	77.24
369.48	91.28
369.68	98.30
369.87	65.54
370.07	105.32
370.27	180.22
370.47	245.76
370.66	423.64
370.86	407.25
371.06	500.87
371.25	449.38
371.45	477.47
371.65	416.62
371.84	533.64
372.04	386.19
372.24	456.40
372.44	456.40
372.63	465.77
372.83	477.47
373.03	479.81
373.22	533.64
373.42	528.96
373.62	458.74
373.81	526.62
374.01	500.87
374.21	568.75
374.40	470.45
374.60	664.71
374.79	561.73
374.99	505.56
375.19	559.39
375.38	557.05
375.58	575.77
375.78	624.92
375.97	538.32
376.17	676.41
376.37	690.46
376.56	519.60
376.76	531.30
376.95	601.52
377.15	610.88
377.35	610.88
377.54	606.20
377.74	606.20
377.93	517.26
378.13	669.39
378.33	669.39
378.52	568.75
378.72	540.66
378.91	627.26
379.11	599.18
379.31	631.94
379.50	566.41
379.70	645.99
379.89	655.35
380.09	629.60
380.28	739.61
380.48	655.35
380.68	631.94
380.87	653.01
381.07	585.13
381.26	695.14
381.46	702.16
381.65	737.27
381.85	653.01
382.04	650.67
382.24	755.99
382.43	713.86
382.63	664.71
382.83	706.84
383.02	645.99
383.22	755.99
383.41	697.48
383.61	662.37
383.80	723.23
384.00	772.38
384.19	723.23
384.39	816.85
384.58	662.37
384.78	791.10
384.97	734.93
385.17	706.84
385.36	723.23
385.56	758.33
385.75	716.20
385.95	716.20
386.14	821.53
386.34	830.89
386.53	711.52
386.72	753.65
386.92	744.29
387.11	779.40
387.31	880.04
387.50	858.98
387.70	858.98
387.89	763.01
388.09	823.87
388.28	807.48
388.48	784.08
388.67	849.61
388.86	922.17
389.06	837.91
389.25	828.55
389.45	863.66
389.64	851.96
389.84	908.13
390.03	980.68
390.22	992.39
390.42	833.23
390.61	887.06
390.81	922.17
391.00	875.36
391.19	954.94
391.39	957.28
391.58	987.71
391.78	908.13
391.97	945.58
392.16	985.37
392.36	983.02
392.55	1022.81
392.75	1001.75
392.94	933.87
393.13	1020.47
393.33	954.94
393.52	1048.56
393.71	1050.90
393.91	1062.60
394.10	1015.79
394.29	978.34
394.49	1114.10
394.68	1057.92
394.88	1090.69
395.07	1146.86
395.26	1097.71
395.46	1158.57
395.65	1116.44
395.84	1097.71
396.04	1200.69
396.23	1172.61
396.42	1102.39
396.62	1130.48
396.81	1132.82
397.00	1179.63
397.19	1184.31
397.39	1231.12
397.58	1207.72
397.77	1193.67
397.97	1212.40
398.16	1423.05
398.35	1252.19
398.55	1322.40
398.74	1231.12
398.93	1270.91
399.12	1404.32
399.32	1280.27
399.51	1296.66
399.70	1366.87
399.90	1364.53
400.09	1299.00
400.28	1427.73
400.47	1320.06
400.67	1434.75
400.86	1439.43
401.05	1502.62
401.24	1467.52
401.44	1521.35
401.63	1444.11
401.82	1465.18
402.01	1577.52
402.21	1533.05
402.40	1533.05
402.59	1444.11
402.78	1519.01
402.97	1432.41
403.17	1596.25
403.36	1621.99
403.55	1610.29
403.74	1687.53
403.93	1584.54
404.13	1617.31
404.32	1586.88
404.51	1701.57
404.70	1621.99
404.89	1612.63
405.09	1753.06
405.28	1743.70
405.47	1682.85
405.66	1715.61
405.85	1710.93
406.05	1764.76
406.24	1755.40
406.43	1710.93
406.62	1790.51
406.81	1963.71
407.00	1853.70
407.20	1750.72
407.39	1823.28
407.58	1874.77
407.77	1909.88
407.96	1902.86
408.15	2031.58
408.34	1907.54
408.54	2043.29
408.73	1879.45
408.92	2017.54
409.11	2038.61
409.30	2036.27
409.49	1987.11
409.68	1968.39
409.87	1975.41
410.07	2083.08
410.26	2017.54
410.45	2045.63
410.64	2132.23
410.83	2242.23
411.02	2235.21
411.21	2225.85
411.40	2104.14
411.59	2267.98
411.78	2317.13
411.98	2186.06
412.17	2289.04
412.36	2237.55
412.55	2349.90
412.74	2363.94
412.93	2462.24
413.12	2335.85
413.31	2459.90
413.50	2455.22
413.69	2473.95
413.88	2532.46
414.07	2640.12
414.26	2555.86
414.45	2567.57
414.64	2499.69
414.83	2640.12
415.02	2628.42
415.22	2703.32
415.41	2698.64
415.60	2705.66
415.79	2708.00
415.98	2778.22
416.17	2850.77
416.36	2895.24
416.55	2902.26
416.74	2834.39
416.93	2937.37
417.12	2995.89
417.31	2864.82
417.50	2979.50
417.69	3098.87
417.88	3026.31
418.07	2972.48
418.26	3047.38
418.45	3000.57
418.64	3283.77
418.83	3080.14
419.02	3155.04
419.21	3213.56
419.39	3152.70
419.58	3194.83
419.77	3101.21
419.96	3253.34
420.15	3297.81
420.34	3215.90
420.53	3311.86
420.72	3382.07
420.91	3389.10
421.10	3356.33
421.29	3412.50
421.48	3260.37
421.67	3471.01
421.86	3449.95
422.05	3496.76
422.24	3356.33
422.43	3365.69
422.61	3440.59
422.80	3508.46
422.99	3604.42
423.18	3391.44
423.37	3559.95
423.56	3466.33
423.75	3447.61
423.94	3527.19
424.13	3218.24
424.32	3435.91
424.50	3543.57
424.69	3487.40
424.88	3620.81
425.07	3494.42
425.26	3419.52
425.45	3506.12
425.64	3485.06
425.83	3585.70
426.01	3583.36
426.20	3492.08
426.39	3606.77
426.58	3506.12
426.77	3487.40
426.96	3576.34
427.15	3574.00
427.33	3616.13
427.52	3665.28
427.71	3775.28
427.90	3625.49
428.09	3749.54
428.28	3660.60
428.46	3817.41
428.65	3796.35
428.84	3885.29
429.03	3859.54
429.22	3627.83
429.40	3777.62
429.59	3768.26
429.78	3737.84
429.97	3552.93
430.16	3660.60
430.34	3812.73
430.53	3871.25
430.72	3712.09
430.91	3794.01
431.10	3864.22
431.28	3988.27
431.47	4032.74
431.66	4100.62
431.85	3948.48
432.03	4107.64
432.22	4257.43
432.41	4173.18
432.60	4159.13
432.79	4187.22
432.97	4138.07
433.16	4208.28
433.35	4121.68
433.54	4257.43
433.72	4217.65
433.91	4231.69
434.10	4318.29
434.28	4236.37
434.47	4397.87
434.66	4294.88
434.85	4388.50
435.03	4444.68
435.22	4383.82
435.41	4402.55
435.59	4603.83
435.78	4557.02
435.97	4638.94
436.16	4386.16
436.34	4512.55
436.53	4514.89
436.72	4702.14
436.90	4535.96
437.09	4601.49
437.28	4699.80
437.46	4599.15
437.65	4545.32
437.84	4688.09
438.02	4685.75
438.21	4744.27
438.40	4669.37
438.58	4807.46
438.77	4936.19
438.96	4849.59
439.14	4999.38
439.33	4938.53
439.52	5001.72
439.70	5081.30
439.89	5097.69
440.08	5046.20
440.26	5146.84
440.45	5125.77
440.63	5158.54
440.82	5348.12
441.01	5158.54
441.19	5217.05
441.38	5308.34
441.57	5383.23
441.75	5446.43
441.94	5509.62
442.12	5570.48
442.31	5577.50
442.50	5743.67
442.68	5493.24
442.87	5523.66
443.05	5572.82
443.24	5624.31
443.43	5603.24
443.61	5746.02
443.80	5837.30
443.98	5776.44
444.17	5483.88
444.35	5542.39
444.54	5851.34
444.73	5767.08
444.91	5710.91
445.10	5561.11
445.28	5832.62
445.47	5664.10
445.65	5909.85
445.84	5947.30
446.02	5820.91
446.21	5781.12
446.39	5809.21
446.58	5944.96
446.77	6043.26
446.95	5668.78
447.14	5865.38
447.32	5909.85
447.51	5891.13
447.69	5921.56
447.88	5977.73
448.06	5942.62
448.25	5804.53
448.43	5998.79
448.62	6069.01
448.80	5982.41
448.99	5973.05
449.17	5980.07
449.36	6113.48
449.54	6174.33
449.73	6272.64
449.91	6244.55
450.10	6237.53
450.28	6340.51
450.46	6286.68
450.65	6452.86
450.83	6415.41
451.02	6363.92
451.20	6415.41
451.39	6359.24
451.57	6265.61
451.76	6174.33
451.94	6415.41
452.13	6527.75
452.31	6392.00
452.49	6361.58
452.68	6253.91
452.86	6408.39
453.05	6333.49
453.23	6569.88
453.42	6490.31
453.60	6399.02
453.78	6698.61
453.97	6686.91
454.15	6590.95
454.34	6668.19
454.52	6775.85
454.70	6700.95
454.89	6551.16
455.07	6619.04
455.26	6836.70
455.44	6949.05
455.62	6759.47
455.81	6867.13
455.99	6897.56
456.17	7005.22
456.36	6970.12
456.54	7019.27
456.73	7152.68
456.91	7276.73
457.09	7169.06
457.28	7407.80
457.46	7049.69
457.64	7185.44
457.83	7218.21
458.01	7236.94
458.19	7258.00
458.38	7229.91
458.56	7279.07
458.74	7377.37
458.93	7419.50
459.11	7356.30
459.29	7323.54
459.48	7393.75
459.66	7489.71
459.84	7468.65
460.03	7515.46
460.21	7564.61
460.39	7627.81
460.57	7712.07
460.76	7611.42
460.94	7616.10
461.12	7623.12
461.31	7669.94
461.49	7585.68
461.67	7749.51
461.85	7726.11
462.04	7606.74
462.22	8285.50
462.40	8154.43
462.59	8102.93
462.77	7819.73
462.95	8177.83
463.13	8021.02
463.32	8018.68
463.50	7957.82
463.68	8173.15
463.86	7969.52
464.05	8107.62
464.23	8060.80
464.41	8039.74
464.59	7974.21
464.78	8044.42
464.96	8116.98
465.14	8086.55
465.32	8191.88
465.50	8173.15
465.69	8372.10
465.87	8037.40
466.05	8229.32
466.23	8444.65
466.41	8463.38
466.60	8393.16
466.78	8297.20
466.96	8264.43
467.14	8140.38
467.32	8355.71
467.51	8351.03
467.69	8229.32
467.87	8344.01
468.05	8681.05
468.23	8465.72
468.41	8421.25
468.60	8489.12
468.78	8786.37
468.96	8386.14
469.14	8727.86
469.32	8533.59
469.50	8629.56
469.69	8926.80
469.87	8868.29
470.05	8926.80
470.23	8795.73
470.41	8692.75
470.59	8985.32
470.77	8982.98
470.95	8931.48
471.14	9301.29
471.32	8922.12
471.50	9104.68
471.68	9446.40
471.86	9338.74
472.04	9291.93
472.22	9432.36
472.40	9128.09
472.58	9109.36
472.77	9359.80
472.95	9493.21
473.13	9879.40
473.31	9542.36
473.49	9535.34
473.67	9488.53
473.85	9596.20
474.03	9692.16
474.21	9760.03
474.39	10052.60
474.57	9804.50
474.75	9811.53
474.93	10111.11
475.12	10127.50
475.30	10167.29
475.48	10157.92
475.66	9989.41
475.84	9916.85
476.02	10293.68
476.20	10483.26
476.38	10553.48
476.56	10600.29
476.74	10686.89
476.92	10712.63
477.10	10731.36
477.28	11091.80
477.46	10820.30
477.64	10899.87
477.82	11002.86
478.00	11349.26
478.18	11239.25
478.36	11290.74
478.54	11246.27
478.72	11477.99
478.90	11625.44
479.08	11833.75
479.26	11719.06
479.44	11805.66
479.62	11712.04
479.80	12006.95
479.98	12138.02
480.16	12341.64
480.34	12020.99
480.52	12311.22
480.70	12250.36
480.88	12400.16
481.06	12439.95
481.24	12631.87
481.41	12805.07
481.59	13011.04
481.77	12884.65
481.95	13013.38
482.13	13055.51
482.31	12858.90
482.49	13378.50
482.67	13474.46
482.85	13483.83
483.03	13532.98
483.21	13867.67
483.39	13820.86
483.57	13851.29
483.74	13951.93
483.92	13963.64
484.10	14066.62
484.28	13984.70
484.46	14450.47
484.64	14941.98
484.82	14239.82
485.00	14885.81
485.18	14855.38
485.35	15047.30
485.53	14960.70
485.71	14874.10
485.89	15468.60
486.07	15353.91
486.25	15108.16
486.43	15276.68
486.61	15531.80
486.78	15779.89
486.96	15978.84
487.14	15955.43
487.32	16264.38
487.50	16236.30
487.68	16432.90
487.85	16697.38
488.03	16989.95
488.21	16868.24
488.39	16760.58
488.57	17123.36
488.75	17053.14
488.92	17413.59
489.10	17612.53
489.28	17467.42
489.46	17811.48
489.64	17797.43
489.81	18228.09
489.99	18436.40
490.17	18167.24
490.35	18302.99
490.53	18370.86
490.70	18541.72
490.88	18841.31
491.06	19070.68
491.24	18850.67
491.41	18703.22
491.59	19157.28
491.77	18853.02
491.95	19122.18
492.13	19609.01
492.30	19328.14
492.48	19590.28
492.66	19747.10
492.84	19899.23
493.01	19967.11
493.19	20191.80
493.37	20304.15
493.54	20437.56
493.72	20599.05
493.90	20437.56
494.08	20851.83
494.25	20931.41
494.43	20886.94
494.61	21186.53
494.79	21373.77
494.96	21132.70
495.14	21167.80
495.32	21703.79
495.49	21514.20
495.67	21972.95
495.85	21881.67
496.02	22078.27
496.20	22335.73
496.38	22309.99
496.55	22515.95
496.73	22710.22
496.91	22555.74
497.09	22813.20
497.26	22967.68
497.44	22583.83
497.62	22864.69
497.79	23543.45
497.97	23260.24
498.14	23321.10
498.32	23587.92
498.50	23726.01
498.67	23658.14
498.85	23936.66
499.03	24320.51
499.20	23800.91
499.38	23871.12
499.56	24177.73
499.73	24308.80
499.91	24084.11
500.08	24163.69
500.26	24201.14
500.44	24355.61
500.61	24446.90
500.79	24318.17
500.97	24692.65
501.14	25174.80
501.32	25013.31
501.49	24805.00
501.67	25003.94
501.84	25579.71
502.02	25078.84
502.20	25219.27
502.37	25378.43
502.55	25525.88
502.72	25635.89
502.90	25958.88
503.07	25603.12
503.25	25958.88
503.43	25724.83
503.60	26087.61
503.78	26342.73
503.95	25837.17
504.13	26387.20
504.30	26218.68
504.48	26169.53
504.65	26410.60
504.83	26384.86
505.01	26740.62
505.18	26801.47
505.36	27140.85
505.53	27019.14
505.71	27386.61
505.88	27400.65
506.06	27012.12
506.23	27536.40
506.41	26993.40
506.58	27400.65
506.76	27503.64
506.93	27669.81
507.11	27536.40
507.28	27632.36
507.46	27686.20
507.63	27672.15
507.81	28105.15
507.98	27728.33
508.16	27833.65
508.33	28236.22
508.50	27953.02
508.68	28182.39
508.85	28587.30
509.03	28652.84
509.20	28273.67
509.38	29046.05
509.55	28786.25
509.73	28973.49
509.90	29074.13
510.08	28617.73
510.25	29027.32
510.42	29457.98
510.60	29413.51
510.77	29127.97
510.95	29724.80
511.12	29324.57
511.30	29745.87
511.47	29408.83
511.64	29596.07
511.82	29984.60
511.99	30026.73
512.17	30064.18
512.34	30108.65
512.51	29970.56
512.69	30436.33
512.86	30178.87
513.04	30274.83
513.21	30656.34
513.38	30295.89
513.56	30199.93
513.73	30429.30
513.90	30728.89
514.08	30778.04
514.25	30934.86
514.43	30689.10
514.60	30380.15
514.77	30412.92
514.95	31290.62
515.12	31079.97
515.29	30813.15
515.47	31187.64
515.64	31571.49
515.81	31625.32
515.99	31667.45
516.16	31229.77
516.33	31534.04
516.51	31601.91
516.68	31592.55
516.85	31302.32
517.03	31784.48
517.20	31653.40
517.37	31641.70
517.54	32215.13
517.72	31817.24
517.89	31931.93
518.06	32154.28
518.24	32217.47
518.41	31850.01
518.58	32332.16
518.75	31901.50
518.93	32481.95
519.10	32704.31
519.27	32577.92
519.45	32512.38
519.62	32835.38
519.79	32779.20
519.96	32933.68
520.14	33125.60
520.31	33017.94
520.48	32767.50
520.65	32804.95
520.83	33326.89
521.00	33247.31
521.17	33603.07
521.34	33439.23
521.52	33715.42
521.69	33809.04
521.86	33563.28
522.03	33851.17
522.20	33977.56
522.38	33984.58
522.55	34293.53
522.72	33907.34
522.89	34302.89
523.07	34602.48
523.24	34281.83
523.41	34415.24
523.58	34267.78
523.75	34567.37
523.92	34595.46
524.10	34698.44
524.27	34759.30
524.44	34653.97
524.61	34815.47
524.78	34712.49
524.96	34771.00
525.13	35267.19
525.30	35304.64
525.47	35295.28
525.64	35285.92
525.81	35644.02
525.98	35517.63
526.16	35091.65
526.33	35211.02
526.50	35498.91
526.67	34925.47
526.84	35147.82
527.01	35161.87
527.18	35592.53
527.36	35557.42
527.53	35955.31
527.70	36006.80
527.87	36306.39
528.04	35749.34
528.21	35674.45
528.38	35962.33
528.55	36222.13
528.72	36278.30
528.89	36304.05
529.07	36044.25
529.24	36102.76
529.41	36549.81
529.58	36563.85
529.75	36334.48
529.92	36610.66
530.09	36835.35
530.26	36596.62
530.43	36458.52
530.60	36435.12
530.77	36566.19
530.94	37504.74
531.11	36975.78
531.28	37003.87
531.46	37031.96
531.63	37336.23
531.80	37340.91
531.97	37319.84
532.14	37343.25
532.31	36835.35
532.48	37450.91
532.65	37165.37
532.82	37132.60
532.99	37532.83
533.16	37174.73
533.33	37574.96
533.50	37680.28
533.67	37617.09
533.84	37436.87
534.01	38000.94
534.18	37691.99
534.35	38122.65
534.52	37680.28
534.69	38017.32
534.86	38031.36
535.03	37549.21
535.20	38153.07
535.37	38007.96
535.54	38171.80
535.71	38157.75
535.88	38085.20
536.05	38057.11
536.22	38600.12
536.38	38314.57
536.55	38277.12
536.72	38478.41
536.89	38429.26
537.06	38192.86
537.23	38572.03
537.40	38452.66
537.57	38452.66
537.74	38747.57
537.91	38778.00
538.08	39175.89
538.25	39068.22
538.42	38501.81
538.59	38962.90
538.75	38387.13
538.92	38845.87
539.09	39007.37
539.26	38878.64
539.43	39187.59
539.60	39459.09
539.77	38492.45
539.94	39051.84
540.11	39033.11
540.28	39164.18
540.44	38960.56
540.61	38939.49
540.78	39234.40
540.95	39316.32
541.12	39044.82
541.29	39646.33
541.46	39665.06
541.62	39501.22
541.79	40072.31
541.96	39768.04
542.13	39452.07
542.30	39927.20
542.47	39318.66
542.63	39810.17
542.80	39580.80
542.97	40524.04
543.14	40577.87
543.31	40402.33
543.48	40407.01
543.64	40748.73
543.81	40659.79
543.98	40187.00
544.15	40187.00
544.32	40638.72
544.48	40928.95
544.65	40212.74
544.82	40767.45
544.99	40498.29
545.16	40800.22
545.32	40505.31
545.49	41003.85
545.66	41001.50
545.83	41015.55
546.00	41090.44
546.16	40722.98
546.33	41198.11
546.50	40421.05
546.67	40739.36
546.83	40575.53
547.00	40680.85
547.17	40858.73
547.34	41265.99
547.50	41181.73
547.67	41495.36
547.84	41308.11
548.00	41462.59
548.17	41474.29
548.34	41659.20
548.51	41862.82
548.67	41490.68
548.84	41474.29
549.01	41303.43
549.18	41581.96
549.34	41881.55
549.51	41336.20
549.68	41418.12
549.84	41670.90
550.01	41979.85
550.18	41439.18
550.34	41631.11
550.51	41642.81
550.68	41326.84
550.84	41928.36
551.01	41752.82
551.18	41907.29
551.34	41872.18
551.51	41893.25
551.68	41928.36
551.84	42312.20
552.01	41617.07
552.18	41928.36
552.34	41727.07
552.51	42094.53
552.68	42141.35
552.84	42302.84
553.01	42410.51
553.18	42508.81
553.34	42237.31
553.51	42199.86
553.67	42389.44
553.84	42265.39
554.01	43232.04
554.17	42796.70
554.34	42738.18
554.51	42436.25
554.67	42663.28
554.84	42462.00
555.00	42218.58
555.17	42703.07
555.33	42698.39
555.50	42738.18
555.67	42782.65
555.83	43042.45
556.00	42871.59
556.16	42895.00
556.33	42843.51
556.50	42689.03
556.66	42682.01
556.83	42696.05
556.99	43182.88
557.16	43173.52
557.32	42932.45
557.49	42930.11
557.65	42398.80
557.82	42972.24
557.98	43072.88
558.15	42871.59
558.32	43175.86
558.48	42946.49
558.65	43070.54
558.81	43239.06
558.98	43143.09
559.14	43068.20
559.31	42670.31
559.47	43636.95
559.64	43377.15
559.80	43503.54
559.97	43428.64
560.13	43103.31
560.30	43363.11
560.46	42997.98
560.63	43669.72
560.79	43487.15
560.96	43271.82
561.12	43360.76
561.29	43264.80
561.45	43597.16
561.61	43761.00
561.78	43608.86
561.94	43512.90
562.11	43519.92
562.27	43105.65
562.44	43379.49
562.60	43697.80
562.77	43852.28
562.93	43667.37
563.10	44009.09
563.26	43536.30
563.42	44156.55
563.59	43360.76
563.75	43821.85
563.92	43679.08
564.08	43782.06
564.24	44243.15
564.41	43693.12
564.57	43531.62
564.74	43882.70
564.90	43735.25
565.07	44189.31
565.23	43711.84
565.39	43807.81
565.56	44002.07
565.72	43978.67
565.88	43812.49
566.05	44332.09
566.21	43564.39
566.38	43531.62
566.54	44140.16
566.70	44306.34
566.87	44175.27
567.03	43941.22
567.19	44275.91
567.36	44294.64
567.52	44149.53
567.68	44086.33
567.85	43686.10
568.01	44041.86
568.17	43838.23
568.34	43899.09
568.50	44006.75
568.66	43819.51
568.83	44179.95
568.99	44196.34
569.15	44126.12
569.32	44243.15
569.48	43868.66
569.64	44690.19
569.81	44140.16
569.97	44158.89
570.13	44360.17
570.30	44224.42
570.46	43288.21
570.62	43952.92
570.78	43941.22
570.95	44109.74
571.11	44098.03
571.27	44516.99
571.43	44011.43
571.60	44311.02
571.76	44184.63
571.92	43995.05
572.09	44179.95
572.25	44404.64
572.41	44514.65
572.57	44304.00
572.74	44395.28
572.90	44509.97
573.06	44257.19
573.22	44306.34
573.38	44325.07
573.55	43952.92
573.71	44636.36
573.87	44287.62
574.03	43981.01
574.20	44402.30
574.36	44100.37
574.52	44467.84
574.68	44570.82
574.84	44715.93
575.01	43927.17
575.17	44186.97
575.33	44086.33
575.49	43920.15
575.65	44631.68
575.82	44371.88
575.98	44516.99
576.14	44395.28
576.30	44561.46
576.46	44165.91
576.62	44612.95
576.79	44390.60
576.95	43842.92
577.11	44559.12
577.27	44250.17
577.43	44313.36
577.59	44432.73
577.75	44563.80
577.92	44102.71
578.08	43959.94
578.24	43679.08
578.40	44231.44
578.56	44430.39
578.72	44105.06
578.88	44744.02
579.04	44432.73
579.21	44362.51
579.37	44041.86
579.53	44325.07
579.69	44083.99
579.85	44516.99
580.01	44367.20
580.17	44603.59
580.33	44624.65
580.49	44847.00
580.65	44406.98
580.82	44463.16
580.98	44619.97
581.14	44224.42
581.30	44617.63
581.46	44516.99
581.62	44781.47
581.78	44589.55
581.94	44935.95
582.10	44519.33
582.26	44907.86
582.42	44278.25
582.58	44526.35
582.74	44336.77
582.90	44610.61
583.06	44893.82
583.22	44615.29
583.38	44395.28
583.54	44435.07
583.70	44737.00
583.86	44348.47
584.02	44299.32
584.18	44292.30
584.34	44556.78
584.50	44205.70
584.66	44811.90
584.82	44428.05
584.98	44493.58
585.14	44856.37
585.30	44636.36
585.46	44453.79
585.62	44657.42
585.78	44488.90
585.94	44390.60
586.10	44507.63
586.26	44718.28
586.42	44634.02
586.58	44816.58
586.74	44390.60
586.90	44446.77
587.06	44428.05
587.22	44741.68
587.38	44589.55
587.54	44980.42
587.70	45003.82
587.86	44570.82
588.02	44575.50
588.18	44879.77
588.34	44961.69
588.49	44329.75
588.65	44711.25
588.81	44046.54
588.97	44460.82
589.13	44217.40
589.29	44430.39
589.45	44425.71
589.61	44676.15
589.77	45162.98
589.93	44659.76
590.08	44821.26
590.24	44652.74
590.40	44982.76
590.56	45338.52
590.72	44839.98
590.88	45022.54
591.04	44699.55
591.20	44776.79
591.35	44699.55
591.51	45226.17
591.67	44727.64
591.83	44825.94
591.99	44332.09
592.15	44402.30
592.31	44732.32
592.46	45139.57
592.62	44858.71
592.78	45268.30
592.94	45160.64
593.10	45001.48
593.26	44823.60
593.41	45081.06
593.57	44868.07
593.73	44683.17
593.89	45090.42
594.05	44634.02
594.20	45041.27
594.36	44968.71
594.52	44816.58
594.68	44825.94
594.84	45104.46
594.99	45539.80
595.15	44985.10
595.31	44961.69
595.47	45001.48
595.62	44509.97
595.78	45418.10
595.94	45254.26
596.10	45272.98
596.25	45055.31
596.41	45272.98
596.57	44996.80
596.73	45071.70
596.88	44886.79
597.04	44926.58
597.20	45078.72
597.36	45324.47
597.51	45146.59
597.67	45155.96
597.83	45488.31
597.99	45193.40
598.14	45268.30
598.30	44666.78
598.46	44722.96
598.61	44931.26
598.77	44526.35
598.93	44772.11
599.09	44800.19
599.24	45380.65
599.40	45036.59
599.56	45186.38
599.71	45104.46
599.87	45188.72
600.03	45055.31
600.18	45097.44
600.34	45155.96
600.50	45207.45
600.65	44875.09
600.81	45216.81
600.97	45333.84
601.12	45408.73
601.28	45249.58
601.44	45081.06
601.59	45272.98
601.75	44957.01
601.91	45092.76
602.06	44596.57
602.22	45116.17
602.37	45045.95
602.53	45640.45
602.69	45230.85
602.84	44603.59
603.00	45064.67
603.16	45177.02
603.31	45233.19
603.47	45184.04
603.62	44802.53
603.78	44928.92
603.94	44781.47
604.09	45024.89
604.25	45394.69
604.40	45179.36
604.56	45106.80
604.71	44917.22
604.87	45371.28
605.03	44968.71
605.18	44713.59
605.34	44832.96
605.49	44491.24
605.65	45015.52
605.80	44781.47
605.96	45118.51
606.12	45230.85
606.27	44856.37
606.43	44788.49
606.58	45172.34
606.74	45277.66
606.89	45022.54
607.05	44547.42
607.20	44957.01
607.36	45036.59
607.51	45301.07
607.67	45104.46
607.82	44678.49
607.98	45020.20
608.13	44952.33
608.29	44659.76
608.44	44383.58
608.60	44219.74
608.75	44238.47
608.91	44788.49
609.06	44341.45
609.22	44280.60
609.37	44219.74
609.53	44776.79
609.68	44839.98
609.84	44559.12
609.99	44610.61
610.15	44397.62
610.30	44664.44
610.46	44313.36
610.61	44147.18
610.76	44561.46
610.92	44903.18
611.07	44418.69
611.23	44327.41
611.38	44067.61
611.54	44556.78
611.69	44252.51
611.84	44334.43
612.00	44217.40
612.15	44453.79
612.31	44168.25
612.46	44467.84
612.62	44847.00
612.77	44376.56
612.92	44186.97
613.08	44109.74
613.23	44278.25
613.39	44023.14
613.54	43601.84
613.69	44191.65
613.85	44079.31
614.00	44378.90
614.15	44409.32
614.31	43969.30
614.46	44266.55
614.62	44233.78
614.77	44016.11
614.92	43805.47
615.08	43873.34
615.23	43650.99
615.38	44062.93
615.54	43110.33
615.69	43627.59
615.84	43693.12
616.00	43899.09
616.15	43753.97
616.30	43627.59
616.46	43402.89
616.61	43571.41
616.76	43536.30
616.92	43742.27
617.07	43744.61
617.22	43459.07
617.37	43487.15
617.53	43667.37
617.68	43683.76
617.83	43463.75
617.99	43779.72
618.14	43634.61
618.29	43370.13
618.45	43215.65
618.60	43697.80
618.75	43805.47
618.90	43716.53
619.06	43821.85
619.21	43381.83
619.36	43789.08
619.51	43409.92
619.67	43166.50
619.82	43325.66
619.97	43318.64
620.12	42923.08
620.28	43339.70
620.43	43147.78
620.58	43161.82
620.73	43166.50
620.89	43007.34
621.04	43133.73
621.19	43049.47
621.34	43133.73
621.49	43056.50
621.65	42672.65
621.80	43107.99
621.95	43042.45
622.10	42986.28
622.25	43089.26
622.41	42869.25
622.56	43009.68
622.71	43182.88
622.86	43278.85
623.01	43215.65
623.16	43182.88
623.32	42698.39
623.47	43292.89
623.62	42892.66
623.77	42700.73
623.92	42864.57
624.07	42773.29
624.23	42450.30
624.38	42433.91
624.53	42536.90
624.68	43105.65
624.83	42534.56
624.98	42562.64
625.13	42548.60
625.29	42122.62
625.44	42616.47
625.59	42628.18
625.74	42291.14
625.89	42518.17
626.04	42342.63
626.19	42260.71
626.34	42356.67
626.49	41972.83
626.65	42265.39
626.80	42220.92
626.95	42361.36
627.10	42174.11
627.25	41806.65
627.40	41720.05
627.55	41628.77
627.70	41804.31
627.85	42024.32
628.00	41764.52
628.15	42012.62
628.30	42225.60
628.45	42021.98
628.60	41879.21
628.76	42375.40
628.91	41869.84
629.06	41841.76
629.21	41631.11
629.36	41722.39
629.51	41713.03
629.66	41074.06
629.81	41141.94
629.96	41783.24
630.11	41345.56
630.26	41488.34
630.41	41689.62
630.56	41497.70
630.71	41680.26
630.86	41715.37
631.01	41574.94
631.16	41640.47
631.31	41282.37
631.46	40648.08
631.61	41605.36
631.76	41364.29
631.91	41429.82
632.06	41280.03
632.21	41258.96
632.36	41708.35
632.51	41478.97
632.66	41020.23
632.81	41076.40
632.96	41205.13
633.10	40999.16
633.25	41146.62
633.40	41163.00
633.55	41015.55
633.70	40910.22
633.85	41219.17
634.00	40767.45
634.15	40968.74
634.30	40921.93
634.45	40973.42
634.60	40849.37
634.75	40704.26
634.90	40369.56
635.05	40891.50
635.19	40353.18
635.34	40802.56
635.49	40715.96
635.64	40718.30
635.79	40409.35
635.94	40418.71
636.09	40360.20
636.24	40491.27
636.39	40545.10
636.53	40240.83
636.68	40491.27
636.83	40133.17
636.98	40278.28
637.13	40154.23
637.28	40645.74
637.43	40107.42
637.57	40299.34
637.72	40076.99
637.87	40444.46
638.02	40151.89
638.17	40528.72
638.32	39899.11
638.46	40179.98
638.61	40140.19
638.76	39686.12
638.91	39681.44
639.06	40194.02
639.20	40009.12
639.35	40397.65
639.50	39728.25
639.65	39913.16
639.80	40355.52
639.94	39754.00
640.09	39856.98
640.24	39491.86
640.39	39353.77
640.54	39723.57
640.68	39679.10
640.83	39643.99
640.98	39386.54
641.13	39407.60
641.27	39901.45
641.42	39405.26
641.57	39791.45
641.72	39648.68
641.86	38880.98
642.01	39433.35
642.16	39381.85
642.31	39042.48
642.45	39473.13
642.60	39023.75
642.75	38869.28
642.90	39339.72
643.04	39288.23
643.19	39365.47
643.34	39526.97
643.48	39309.30
643.63	39330.36
643.78	39138.44
643.93	39133.76
644.07	38920.77
644.22	39180.57
644.37	39030.77
644.51	38906.73
644.66	39276.53
644.81	38979.28
644.95	38885.66
645.10	39126.74
645.25	39086.95
645.39	38866.94
645.54	39180.57
645.69	38972.26
645.83	38862.26
645.98	39077.58
646.13	38932.47
646.27	38876.30
646.42	38667.99
646.57	38728.84
646.71	39089.29
646.86	39213.34
647.00	39096.31
647.15	38979.28
647.30	39012.05
647.44	38768.63
647.59	38850.55
647.74	38590.75
647.88	38433.94
648.03	38429.26
648.17	38415.21
648.32	38321.59
648.47	38560.33
648.61	38232.65
648.76	38557.99
648.90	38321.59
649.05	38609.48
649.20	38707.78
649.34	38387.13
649.49	38422.23
649.63	38422.23
649.78	38761.61
649.92	38417.55
650.07	38799.06
650.21	38178.82
650.36	38141.37
650.51	37942.42
650.65	38607.14
650.80	38274.78
650.94	38445.64
651.09	37947.11
651.23	38192.86
651.38	37921.36
651.52	37933.06
651.67	38141.37
651.81	37825.40
651.96	38108.60
652.10	37982.21
652.25	37432.19
652.39	37713.05
652.54	37378.36
652.68	38136.69
652.83	38242.01
652.97	37944.76
653.12	38022.00
653.26	37687.31
653.41	37923.70
653.55	37230.90
653.70	37474.32
653.84	37780.93
653.99	37904.98
654.13	37539.85
654.27	37715.39
654.42	37713.05
654.56	37500.06
654.71	37926.04
654.85	37490.70
655.00	37647.52
655.14	37242.60
655.29	36737.05
655.43	37104.51
655.57	36835.35
655.72	36802.58
655.86	36844.71
656.01	37181.75
656.15	37022.59
656.30	37113.87
656.44	37226.22
656.58	37195.79
656.73	37266.01
656.87	36598.96
657.01	36940.68
657.16	36783.86
657.30	36458.52
657.45	36779.18
657.59	36788.54
657.73	37081.11
657.88	36582.57
658.02	37062.38
658.16	36584.91
658.31	36692.58
658.45	36795.56
658.60	36652.79
658.74	37053.02
658.88	36685.56
659.03	36428.10
659.17	36465.55
659.31	36959.40
659.46	36320.43
659.60	36252.56
659.74	36275.96
659.89	35952.97
660.03	36135.53
660.17	36112.13
660.32	36062.97
660.46	36280.64
660.60	36278.30
660.74	36180.00
660.89	35857.01
661.03	35536.35
661.17	35637.00
661.32	35269.53
661.46	35559.76
661.60	35356.13
661.74	35814.88
661.89	35929.56
662.03	35470.82
662.17	35641.68
662.31	35611.25
662.46	35578.48
662.60	35761.05
662.74	35171.23
662.88	35660.40
663.03	35466.14
663.17	35494.22
663.31	35213.36
663.45	35655.72
663.60	35335.07
663.74	34785.04
663.88	34834.19
664.02	34637.59
664.17	34902.07
664.31	34527.58
664.45	34712.49
664.59	34590.78
664.73	34995.69
664.88	34785.04
665.02	34771.00
665.16	34916.11
665.30	34735.89
665.44	34724.19
665.59	33792.65
665.73	34335.66
665.87	34195.23
666.01	34235.02
666.15	33909.68
666.29	34721.85
666.44	34373.11
666.58	34319.28
666.72	34115.65
666.86	34319.28
667.00	34621.20
667.14	34010.32
667.28	33490.73
667.43	33729.46
667.57	33626.48
667.71	33572.64
667.85	33897.98
667.99	33502.43
668.13	33242.63
668.27	33556.26
668.41	33607.75
668.56	33214.54
668.70	33352.63
668.84	33462.64
668.98	32760.48
669.12	33172.41
669.26	33645.20
669.40	33209.86
669.54	32800.27
669.68	33102.20
669.82	32505.36
669.96	32662.18
670.10	32264.28
670.25	32727.71
670.39	32882.19
670.53	32531.11
670.67	32320.46
670.81	32226.84
670.95	32627.07
671.09	32545.15
671.23	32456.21
671.37	32430.46
671.51	32060.66
671.65	32121.51
671.79	31700.22
671.93	32058.32
672.07	32100.45
672.21	31955.33
672.35	31503.61
672.49	31875.76
672.63	31960.02
672.77	31583.19
672.91	31363.18
673.05	31667.45
673.19	31709.58
673.33	31758.73
673.47	31236.79
673.61	31044.87
673.75	31445.10
673.89	31168.91
674.03	31000.40
674.17	30864.64
674.31	30497.18
674.45	30742.94
674.59	31161.89
674.73	30543.99
674.87	30834.22
675.01	31079.97
675.15	30892.73
675.29	30565.06
675.43	31056.57
675.56	30630.59
675.70	30691.44
675.84	30476.12
675.98	29310.53
676.12	29998.65
676.26	29776.30
676.40	29951.84
676.54	29933.11
676.68	29851.19
676.82	29109.24
676.96	29869.92
677.10	29362.02
677.23	29900.34
677.37	29207.55
677.51	29593.73
677.65	29347.98
677.79	28898.59
677.93	28980.51
678.07	29095.20
678.21	28650.50
678.34	28753.48
678.48	28467.94
678.62	28402.40
678.76	28346.23
678.90	28617.73
679.04	28294.74
679.18	28507.72
679.31	28442.19
679.45	27971.74
679.59	27531.72
679.73	28070.04
679.87	27660.45
680.00	27709.60
680.14	27388.95
680.28	27559.81
680.42	27592.58
680.56	27110.43
680.70	27513.00
680.83	27309.37
680.97	26831.90
681.11	27232.13
681.25	26597.85
681.39	26993.40
681.52	26888.07
681.66	26939.57
681.80	26583.80
681.94	26389.54
682.07	26572.10
682.21	26504.23
682.35	26356.77
682.49	26307.62
682.62	26340.39
682.76	26092.29
682.90	25919.09
683.04	25881.64
683.17	25734.19
683.31	25582.06
683.45	25792.70
683.59	25703.76
683.72	25305.87
683.86	24957.13
684.00	25083.52
684.13	25195.87
684.27	25308.21
684.41	25057.78
684.55	24943.09
684.68	24610.73
684.82	24617.75
684.96	24453.92
685.09	24601.37
685.23	24512.43
685.37	24594.35
685.50	24503.07
685.64	24411.79
685.78	24339.23
685.91	23819.63
686.05	24201.14
686.19	23459.19
686.32	24011.56
686.46	23772.82
686.60	23419.40
686.73	23555.15
686.87	23187.69
687.01	23421.74
687.14	23307.05
687.28	22941.93
687.42	23164.28
687.55	22661.07
687.69	23213.43
687.82	22824.90
687.96	22970.02
688.10	22916.19
688.23	22778.09
688.37	22520.63
688.50	22466.80
688.64	22417.65
688.78	22218.71
688.91	22097.00
689.05	22094.66
689.18	21638.25
689.32	21802.09
689.46	21834.86
689.59	21998.70
689.73	21923.80
689.86	21844.22
690.00	21617.19
690.13	21895.71
690.27	21270.79
690.41	21685.06
690.54	21259.09
690.68	20910.35
690.81	21097.59
690.95	20678.63
691.08	20854.17
691.22	21053.12
691.35	20905.66
691.49	20961.84
691.62	20968.86
691.76	20821.41
691.89	20542.88
692.03	20416.49
692.16	20294.79
692.30	20388.41
692.43	20318.19
692.57	20009.24
692.70	19866.47
692.84	20135.63
692.97	19857.10
693.11	19735.40
693.24	19669.86
693.38	19822.00
693.51	19363.25
693.65	19583.26
693.78	19475.60
693.92	19459.21
694.05	19468.58
694.19	19073.03
694.32	19084.73
694.45	19063.66
694.59	18988.77
694.72	18871.74
694.86	18824.93
694.99	18614.28
695.13	18539.38
695.26	18274.90
695.39	18003.40
695.53	18569.81
695.66	18448.10
695.80	18237.45
695.93	18246.82
696.07	18143.83
696.20	18335.76
696.33	18125.11
696.47	18207.03
696.60	18029.15
696.73	17586.79
696.87	17841.90
697.00	17820.84
697.14	17652.32
697.27	17600.83
697.40	17441.67
697.54	17479.12
697.67	17060.16
697.80	17071.87
697.94	17418.27
698.07	17032.08
698.21	16943.14
698.34	17083.57
698.47	16762.92
698.61	16374.39
698.74	16549.93
698.87	16425.88
699.01	16423.54
699.14	16313.53
699.27	16308.85
699.40	16407.16
699.54	16035.01
699.67	16067.78
699.80	16170.76
699.94	15864.15
700.07	16133.31
700.20	15798.62
700.34	15737.76
700.47	15763.51
700.60	15651.16
700.73	15805.64
700.87	15503.71
701.00	15236.89
701.13	15798.62
701.26	15325.83
701.40	15555.20
701.53	15267.31
701.66	15293.06
701.79	15042.62
701.93	15154.97
702.06	14630.69
702.19	14789.85
702.32	14977.09
702.46	14780.48
702.59	14867.08
702.72	14640.05
702.85	14691.54
702.99	14572.18
703.12	14867.08
703.25	14588.56
703.38	14448.13
703.51	14122.79
703.65	14279.61
703.78	14181.31
703.91	14050.24
704.04	13991.72
704.17	14038.53
704.31	13893.42
704.44	13579.79
704.57	13701.50
704.70	13657.03
704.83	13603.19
704.96	13617.24
705.10	13603.19
705.23	13715.54
>>>>>End Processed Spectral Data<<<<<
