SpectraSuite Data File
++++++++++++++++++++++++++++++++++++
Date: Fri Oct 25 10:44:54 EDT 2013
User: price-jones
Dark Spectrum Present: No
Reference Spectrum Present: No
Number of Sampled Component Spectra: 1
Spectrometers: USB2+H05261
Integration Time (usec): 100000 (USB2+H05261)
Spectra Averaged: 1 (USB2+H05261)
Boxcar Smoothing: 0 (USB2+H05261)
Correct for Electrical Dark: No (USB2+H05261)
Strobe/Lamp Enabled: No (USB2+H05261)
Correct for Detector Non-linearity: No (USB2+H05261)
Correct for Stray Light: No (USB2+H05261)
Number of Pixels in Processed Spectrum: 2048
>>>>>Begin Processed Spectral Data<<<<<
365.73	63.19
365.92	63.19
366.12	63.19
366.32	60.85
366.52	0.00
366.72	77.24
366.91	28.09
367.11	46.81
367.31	77.24
367.51	7.02
367.70	56.17
367.90	0.00
368.10	0.00
368.30	16.38
368.49	0.00
368.69	81.92
368.89	84.26
369.09	11.70
369.28	0.00
369.48	49.15
369.68	72.56
369.87	117.03
370.07	140.43
370.27	124.05
370.47	173.20
370.66	388.53
370.86	313.63
371.06	416.62
371.25	404.91
371.45	393.21
371.65	416.62
371.84	404.91
372.04	435.34
372.24	442.36
372.44	493.85
372.63	470.45
372.83	416.62
373.03	395.55
373.22	472.79
373.42	535.98
373.62	521.94
373.81	468.11
374.01	477.47
374.21	533.64
374.40	564.07
374.60	594.50
374.79	526.62
374.99	564.07
375.19	552.37
375.38	601.52
375.58	521.94
375.78	592.16
375.97	573.43
376.17	613.22
376.37	535.98
376.56	533.64
376.76	587.47
376.95	587.47
377.15	613.22
377.35	592.16
377.54	566.41
377.74	681.10
377.93	634.29
378.13	573.43
378.33	592.16
378.52	571.09
378.72	540.66
378.91	704.50
379.11	547.69
379.31	557.05
379.50	594.50
379.70	660.03
379.89	660.03
380.09	690.46
380.28	648.33
380.48	664.71
380.68	697.48
380.87	631.94
381.07	638.97
381.26	653.01
381.46	676.41
381.65	648.33
381.85	657.69
382.04	650.67
382.24	664.71
382.43	709.18
382.63	655.35
382.83	631.94
383.02	681.10
383.22	620.24
383.41	667.05
383.61	681.10
383.80	725.57
384.00	746.63
384.19	688.12
384.39	706.84
384.58	751.31
384.78	755.99
384.97	681.10
385.17	653.01
385.36	781.74
385.56	847.27
385.75	664.71
385.95	704.50
386.14	690.46
386.34	732.59
386.53	734.93
386.72	821.53
386.92	830.89
387.11	777.06
387.31	809.83
387.50	770.04
387.70	826.21
387.89	805.14
388.09	798.12
388.28	828.55
388.48	791.10
388.67	863.66
388.86	809.83
389.06	924.51
389.25	896.43
389.45	814.51
389.64	922.17
389.84	924.51
390.03	924.51
390.22	889.40
390.42	901.11
390.61	877.70
390.81	908.13
391.00	1036.86
391.19	882.38
391.39	933.87
391.58	1018.13
391.78	968.98
391.97	936.21
392.16	894.08
392.36	1039.20
392.55	908.13
392.75	964.30
392.94	983.02
393.13	1001.75
393.33	908.13
393.52	1001.75
393.71	994.73
393.91	1034.52
394.10	1053.24
394.29	1050.90
394.49	999.41
394.68	1048.56
394.88	1086.01
395.07	1163.25
395.26	1036.86
395.46	1081.33
395.65	1137.50
395.84	1118.78
396.04	1130.48
396.23	1100.05
396.42	1076.65
396.62	1125.80
396.81	1146.86
397.00	1128.14
397.19	1123.46
397.39	1132.82
397.58	1242.82
397.77	1259.21
397.97	1249.85
398.16	1277.93
398.35	1228.78
398.55	1301.34
398.74	1373.89
398.93	1355.17
399.12	1287.29
399.32	1273.25
399.51	1266.23
399.70	1313.04
399.90	1299.00
400.09	1425.39
400.28	1397.30
400.47	1446.45
400.67	1540.07
400.86	1401.98
401.05	1488.58
401.24	1465.18
401.44	1497.94
401.63	1556.46
401.82	1507.30
402.01	1486.24
402.21	1528.37
402.40	1509.65
402.59	1432.41
402.78	1528.37
402.97	1500.28
403.17	1514.33
403.36	1593.90
403.55	1603.27
403.74	1596.25
403.93	1633.69
404.13	1696.89
404.32	1680.50
404.51	1645.40
404.70	1692.21
404.89	1717.95
405.09	1659.44
405.28	1881.79
405.47	1790.51
405.66	1781.15
405.85	1689.87
406.05	1746.04
406.24	1734.34
406.43	1823.28
406.62	1837.32
406.81	1783.49
407.00	1802.21
407.20	1867.75
407.39	1827.96
407.58	1867.75
407.77	1771.79
407.96	1942.64
408.15	2015.20
408.34	1928.60
408.54	2050.31
408.73	2059.67
408.92	2019.88
409.11	2071.37
409.30	2054.99
409.49	2083.08
409.68	1996.48
409.87	2003.50
410.07	2045.63
410.26	2134.57
410.45	2143.93
410.64	2008.18
410.83	2228.19
411.02	2141.59
411.21	2150.95
411.40	2211.81
411.59	2303.09
411.78	2326.49
411.98	2244.57
412.17	2389.69
412.36	2413.09
412.55	2485.65
412.74	2307.77
412.93	2438.84
413.12	2502.03
413.31	2593.31
413.50	2471.61
413.69	2551.18
413.88	2588.63
414.07	2581.61
414.26	2605.02
414.45	2605.02
414.64	2534.80
414.83	2623.74
415.02	2675.23
415.22	2726.72
415.41	2839.07
415.60	2773.53
415.79	2897.58
415.98	2876.52
416.17	2939.71
416.36	2775.88
416.55	2846.09
416.74	2939.71
416.93	2878.86
417.12	2822.69
417.31	2918.65
417.50	2963.12
417.69	3094.19
417.88	3038.02
418.07	3045.04
418.26	2988.86
418.45	3068.44
418.64	3262.71
418.83	3117.59
419.02	3119.93
419.21	3145.68
419.39	3260.37
419.58	3178.45
419.77	3145.68
419.96	3290.79
420.15	3241.64
420.34	3267.39
420.53	3330.58
420.72	3442.93
420.91	3361.01
421.10	3456.97
421.29	3332.92
421.48	3393.78
421.67	3506.12
421.86	3417.18
422.05	3492.08
422.24	3417.18
422.43	3407.82
422.61	3433.57
422.80	3363.35
422.99	3602.08
423.18	3412.50
423.37	3562.30
423.56	3459.31
423.75	3403.14
423.94	3419.52
424.13	3321.22
424.32	3375.05
424.50	3548.25
424.69	3669.96
424.88	3566.98
425.07	3414.84
425.26	3566.98
425.45	3524.85
425.64	3478.04
425.83	3480.38
426.01	3417.18
426.20	3574.00
426.39	3679.32
426.58	3534.21
426.77	3449.95
426.96	3578.68
427.15	3499.10
427.33	3634.85
427.52	3555.27
427.71	3524.85
427.90	3709.75
428.09	3826.78
428.28	3660.60
428.46	3808.05
428.65	3857.20
428.84	3808.05
429.03	3831.46
429.22	3728.47
429.40	3805.71
429.59	3798.69
429.78	3712.09
429.97	3623.15
430.16	3716.77
430.34	3875.93
430.53	3805.71
430.72	3866.56
430.91	3911.04
431.10	3836.14
431.28	4067.85
431.47	4086.58
431.66	4259.78
431.85	4100.62
432.03	4121.68
432.22	4208.28
432.41	4079.55
432.60	4259.78
432.79	4145.09
432.97	4229.35
433.16	4280.84
433.35	4098.28
433.54	4182.54
433.72	4234.03
433.91	4276.16
434.10	4243.39
434.28	4292.54
434.47	4386.16
434.66	4568.73
434.85	4304.25
435.03	4383.82
435.22	4447.02
435.41	4550.00
435.59	4435.32
435.78	4456.38
435.97	4468.08
436.16	4573.41
436.34	4470.42
436.53	4580.43
436.72	4624.90
436.90	4655.33
437.09	4671.71
437.28	4482.13
437.46	4589.79
437.65	4770.01
437.84	4784.06
438.02	4737.24
438.21	4699.80
438.40	4681.07
438.58	4851.93
438.77	4917.47
438.96	4968.96
439.14	4973.64
439.33	4987.68
439.52	5008.75
439.70	5088.32
439.89	5078.96
440.08	5153.86
440.26	5060.24
440.45	5163.22
440.63	5254.50
440.82	5364.51
441.01	5301.31
441.19	5465.15
441.38	5453.45
441.57	5462.81
441.75	5455.79
441.94	5535.37
442.12	5465.15
442.31	5701.54
442.50	5682.82
442.68	5720.27
442.87	5699.20
443.05	5671.12
443.24	5678.14
443.43	5804.53
443.61	5764.74
443.80	6001.13
443.98	5563.45
444.17	5633.67
444.35	5872.40
444.54	5959.00
444.73	5701.54
444.91	5863.04
445.10	5844.32
445.28	5884.11
445.47	5762.40
445.65	5827.93
445.84	5849.00
446.02	5832.62
446.21	5928.58
446.39	5846.66
446.58	5973.05
446.77	6069.01
446.95	5771.76
447.14	6104.12
447.32	5991.77
447.51	5884.11
447.69	5933.26
447.88	5870.06
448.06	5947.30
448.25	6064.33
448.43	6029.22
448.62	6111.14
448.80	5893.47
448.99	6127.52
449.17	6104.12
449.36	6106.46
449.54	6298.38
449.73	6298.38
449.91	6396.68
450.10	6258.59
450.28	6492.65
450.46	6338.17
450.65	6459.88
450.83	6492.65
451.02	6565.20
451.20	6553.50
451.39	6476.26
451.57	6354.55
451.76	6455.20
451.94	6537.12
452.13	6544.14
452.31	6368.60
452.49	6387.32
452.68	6523.07
452.86	6452.86
453.05	6443.49
453.23	6511.37
453.42	6768.83
453.60	6525.41
453.78	6686.91
453.97	6640.10
454.15	6738.40
454.34	6635.42
454.52	6796.92
454.70	6832.02
454.89	6834.36
455.07	6691.59
455.26	6853.09
455.44	6988.84
455.62	6878.83
455.81	6738.40
455.99	7052.03
456.17	7059.06
456.36	7077.78
456.54	7143.32
456.73	7136.29
456.91	7241.62
457.09	7049.69
457.28	7314.17
457.46	7173.74
457.64	7276.73
457.83	7304.81
458.01	7138.63
458.19	7328.22
458.38	7382.05
458.56	7396.09
458.74	7403.11
458.93	7485.03
459.11	7360.98
459.29	7428.86
459.48	7480.35
459.66	7503.76
459.84	7660.57
460.03	7672.28
460.21	7564.61
460.39	7510.78
460.57	7632.49
460.76	7679.30
460.94	7763.56
461.12	7803.35
461.31	7768.24
461.49	7679.30
461.67	7616.10
461.85	8152.09
462.04	7786.96
462.22	7995.27
462.40	8002.29
462.59	7985.91
462.77	7939.10
462.95	7859.52
463.13	7978.89
463.32	7929.74
463.50	8222.30
463.68	8088.89
463.86	8170.81
464.05	8107.62
464.23	8035.06
464.41	8152.09
464.59	7875.90
464.78	8344.01
464.96	8147.40
465.14	8037.40
465.32	8451.67
465.50	8451.67
465.69	8348.69
465.87	8175.49
466.05	8355.71
466.23	8294.86
466.41	8439.97
466.60	8568.70
466.78	8332.31
466.96	8250.39
467.14	8489.12
467.32	8348.69
467.51	8755.94
467.69	8446.99
467.87	8475.08
468.05	8554.66
468.23	8446.99
468.41	8435.29
468.60	8486.78
468.78	8730.20
468.96	8725.52
469.14	8725.52
469.32	8781.69
469.50	8533.59
469.69	8933.82
469.87	8805.10
470.05	8908.08
470.23	9013.40
470.41	8945.53
470.59	8961.91
470.77	9078.94
470.95	9062.55
471.14	9062.55
471.32	8887.01
471.50	9226.39
471.68	9174.90
471.86	9331.72
472.04	9317.67
472.22	9575.13
472.40	9338.74
472.58	9451.08
472.77	9401.93
472.95	9490.87
473.13	9921.53
473.31	9591.52
473.49	9537.68
473.67	9586.83
473.85	9785.78
474.03	10003.45
474.21	9963.66
474.39	10026.86
474.57	9907.49
474.75	10181.33
474.93	10029.20
475.12	10057.28
475.30	10176.65
475.48	10333.47
475.66	10415.38
475.84	10064.30
476.02	10366.23
476.20	10352.19
476.38	10626.03
476.56	10803.91
476.74	10738.38
476.92	10569.86
477.10	10691.57
477.28	10991.16
477.46	11049.67
477.64	11206.48
477.82	11232.23
478.00	11351.60
478.18	11370.32
478.36	11386.71
478.54	11398.41
478.72	11487.35
478.90	11407.77
479.08	11829.07
479.26	11698.00
479.44	11971.84
479.62	12042.06
479.80	12196.53
479.98	12180.15
480.16	12402.50
480.34	12285.47
480.52	12535.91
480.70	12650.60
480.88	12528.89
481.06	12540.59
481.24	12662.30
481.41	12648.26
481.59	12863.58
481.77	13099.98
481.95	13151.47
482.13	13217.01
482.31	13289.56
482.49	13404.25
482.67	13486.17
482.85	13832.57
483.03	13980.02
483.21	14132.15
483.39	14155.56
483.57	13745.97
483.74	14146.20
483.92	14307.69
484.10	14143.86
484.28	14520.68
484.46	14633.03
484.64	14787.50
484.82	14827.29
485.00	14663.46
485.18	15129.22
485.35	14927.94
485.53	15054.33
485.71	15002.83
485.89	15337.53
486.07	15201.78
486.25	15529.45
486.43	15573.92
486.61	15630.10
486.78	15896.92
486.96	16006.92
487.14	16484.39
487.32	16311.19
487.50	16435.24
487.68	16322.90
487.85	16798.02
488.03	17020.38
488.21	17076.55
488.39	17170.17
488.57	17114.00
488.75	17102.29
488.92	17626.57
489.10	17666.36
489.28	17795.09
489.46	17970.63
489.64	17757.64
489.81	18548.75
489.99	18689.18
490.17	18621.30
490.35	18576.83
490.53	18492.57
490.70	18845.99
490.88	18614.28
491.06	19400.70
491.24	19103.45
491.41	19051.96
491.59	19122.18
491.77	19271.97
491.95	19243.88
492.13	19653.48
492.30	19742.42
492.48	20121.59
492.66	20077.12
492.84	20381.38
493.01	20367.34
493.19	19843.06
493.37	20283.08
493.54	20620.12
493.72	20793.32
493.90	20868.22
494.08	20833.11
494.25	21085.89
494.43	21179.51
494.61	21451.01
494.79	21453.35
494.96	21212.28
495.14	21975.29
495.32	21902.73
495.49	21797.41
495.67	22120.40
495.85	22207.00
496.02	22012.74
496.20	22309.99
496.38	22391.91
496.55	22438.72
496.73	23253.22
496.91	22721.92
497.09	23016.83
497.26	23164.28
497.44	23035.55
497.62	23098.75
497.79	23440.47
497.97	23358.55
498.14	23318.76
498.32	23515.36
498.50	23857.08
498.67	23700.26
498.85	23655.79
499.03	24189.44
499.20	24011.56
499.38	23889.85
499.56	24252.63
499.73	24542.86
499.91	24215.18
500.08	24561.58
500.26	24692.65
500.44	24519.45
500.61	24575.62
500.79	24989.90
500.97	25106.93
501.14	25521.20
501.32	24716.06
501.49	25132.67
501.67	24823.72
501.84	24924.36
502.02	25359.70
502.20	25474.39
502.37	25685.04
502.55	25752.91
502.72	26176.55
502.90	25872.28
503.07	25944.84
503.25	26008.03
503.43	25972.92
503.60	25923.77
503.78	25792.70
503.95	26375.50
504.13	26305.28
504.30	26253.79
504.48	26466.78
504.65	26939.57
504.83	26771.05
505.01	27395.97
505.18	27246.18
505.36	26977.01
505.53	26953.61
505.71	27002.76
505.88	27318.73
506.06	27033.19
506.23	27824.29
506.41	27515.34
506.58	27421.72
506.76	27501.29
506.93	28119.20
507.11	27821.95
507.28	27798.54
507.46	27723.65
507.63	28198.77
507.81	27999.83
507.98	27899.19
508.16	28121.54
508.33	28545.17
508.50	28767.52
508.68	28545.17
508.85	28594.32
509.03	29008.60
509.20	28425.81
509.38	29151.37
509.55	29158.39
509.73	29174.78
509.90	29149.03
510.08	29010.94
510.25	29301.17
510.42	29415.85
510.60	29727.14
510.77	29394.79
510.95	29603.10
511.12	29488.41
511.30	29816.08
511.47	29780.98
511.64	30249.08
511.82	30312.28
511.99	29893.32
512.17	30445.69
512.34	29998.65
512.51	30195.25
512.69	30312.28
512.86	30314.62
513.04	30789.75
513.21	30754.64
513.38	30504.20
513.56	30754.64
513.73	30871.67
513.90	30721.87
514.08	31180.62
514.25	31318.71
514.43	30646.97
514.60	30974.65
514.77	30981.67
514.95	31454.46
515.12	31201.68
515.29	31459.14
515.47	31564.46
515.64	31882.78
515.81	31463.82
515.99	31620.64
516.16	31758.73
516.33	31330.41
516.51	31672.13
516.68	31381.90
516.85	31508.29
517.03	31653.40
517.20	31700.22
517.37	32025.55
517.54	32385.99
517.72	32465.57
517.89	32055.98
518.06	32053.64
518.24	32208.11
518.41	32226.84
518.58	32257.26
518.75	32219.81
518.93	32858.78
519.10	32477.27
519.27	32912.61
519.45	32727.71
519.62	32926.66
519.79	33331.57
519.96	33324.55
520.14	33221.56
520.31	32912.61
520.48	33181.77
520.65	33425.19
520.83	33469.66
521.00	33940.11
521.17	33420.51
521.34	33816.06
521.52	33598.39
521.69	33991.60
521.86	34113.31
522.03	34071.18
522.20	33909.68
522.38	34134.37
522.55	34113.31
522.72	34085.22
522.89	34164.80
523.07	34347.36
523.24	34132.03
523.41	34618.86
523.58	34157.78
523.75	34677.38
523.92	34937.18
524.10	34920.79
524.27	35152.51
524.44	34909.09
524.61	34951.22
524.78	35122.08
524.96	35421.67
525.13	35110.38
525.30	35571.46
525.47	35964.67
525.64	35342.09
525.81	35651.04
525.98	35386.56
526.16	35316.34
526.33	35576.14
526.50	35592.53
526.67	35414.65
526.84	35363.15
527.01	35393.58
527.18	35594.87
527.36	36259.58
527.53	35938.93
527.70	35861.69
527.87	36091.06
528.04	35941.27
528.21	36018.50
528.38	36093.40
528.55	36662.15
528.72	36568.53
528.89	36449.16
529.07	36456.18
529.24	36397.67
529.41	36500.65
529.58	36189.36
529.75	36620.02
529.92	36566.19
530.09	36678.54
530.26	36531.08
530.43	36669.17
530.60	37230.90
530.77	37057.70
530.94	36964.08
531.11	36690.24
531.28	37460.27
531.46	37289.42
531.63	37371.33
531.80	36821.31
531.97	37109.19
532.14	37130.26
532.31	36926.63
532.48	37556.24
532.65	37242.60
532.82	37141.96
532.99	37493.04
533.16	37535.17
533.33	37785.61
533.50	37834.76
533.67	37769.22
533.84	37612.41
534.01	37982.21
534.18	37834.76
534.35	38017.32
534.52	37708.37
534.69	38181.16
534.86	38298.19
535.03	37921.36
535.20	38480.75
535.37	38429.26
535.54	38590.75
535.71	38265.42
535.88	38181.16
536.05	38368.40
536.22	38398.83
536.38	38471.39
536.55	38658.63
536.72	38429.26
536.89	38209.25
537.06	38560.33
537.23	39023.75
537.40	38660.97
537.57	38639.90
537.74	38848.21
537.91	38918.43
538.08	39161.84
538.25	38927.79
538.42	38806.08
538.59	39466.11
538.75	38710.12
538.92	38845.87
539.09	38998.01
539.26	39189.93
539.43	39082.27
539.60	39147.80
539.77	38855.23
539.94	39416.96
540.11	38934.81
540.28	39524.63
540.44	39220.36
540.61	39414.62
540.78	39232.06
540.95	39278.87
541.12	39660.38
541.29	39189.93
541.46	39564.42
541.62	39648.68
541.79	39709.53
541.96	38988.64
542.13	39611.23
542.30	39910.82
542.47	39903.79
542.63	40486.59
542.80	40355.52
542.97	40271.26
543.14	40591.91
543.31	40315.73
543.48	40184.66
543.64	40807.24
543.81	41022.57
543.98	40364.88
544.15	40549.78
544.32	40547.44
544.48	40690.21
544.65	40697.24
544.82	40730.00
544.99	40353.18
545.16	40587.23
545.32	40662.13
545.49	40886.82
545.66	41244.92
545.83	40942.99
546.00	41214.49
546.16	40987.46
546.33	40786.18
546.50	40727.66
546.67	40786.18
546.83	40718.30
547.00	40872.78
547.17	41118.53
547.34	41265.99
547.50	41563.23
547.67	41401.74
547.84	41368.97
548.00	41144.28
548.17	41588.98
548.34	41226.20
548.51	41357.27
548.67	41766.86
548.84	41558.55
549.01	41591.32
549.18	41261.30
549.34	41663.88
549.51	41790.27
549.68	41902.61
549.84	41488.34
550.01	41886.23
550.18	41387.69
550.34	41750.48
550.51	42031.34
550.68	41928.36
550.84	41469.61
551.01	42087.51
551.18	41820.69
551.34	41947.08
551.51	42433.91
551.68	42394.12
551.84	41930.70
552.01	42305.18
552.18	42054.75
552.34	41970.49
552.51	42574.34
552.68	41991.55
552.84	42541.58
553.01	42454.98
553.18	42199.86
553.34	42155.39
553.51	42131.98
553.67	42328.59
553.84	42642.22
554.01	42674.99
554.17	42892.66
554.34	42433.91
554.51	42836.48
554.67	42604.77
554.84	42703.07
555.00	42244.33
555.17	42635.20
555.33	42550.94
555.50	42106.24
555.67	43005.00
555.83	42726.48
556.00	42824.78
556.16	42850.53
556.33	43098.62
556.50	42806.06
556.66	43150.12
556.83	42962.87
556.99	43152.46
557.16	43306.93
557.32	43196.93
557.49	43517.58
557.65	42918.40
557.82	42803.72
557.98	43164.16
558.15	43159.48
558.32	43215.65
558.48	42782.65
558.65	42850.53
558.81	43143.09
558.98	43028.41
559.14	43342.04
559.31	42941.81
559.47	43126.71
559.64	43126.71
559.80	43489.49
559.97	43281.19
560.13	42969.90
560.30	43360.76
560.46	43241.40
560.63	43274.16
560.79	43840.57
560.96	43913.13
561.12	43817.17
561.29	43330.34
561.45	43580.78
561.61	43229.69
561.78	43288.21
561.94	43487.15
562.11	43473.11
562.27	43737.59
562.44	43618.22
562.60	43943.56
562.77	43445.02
562.93	43917.81
563.10	43840.57
563.26	43241.40
563.42	43622.90
563.59	43498.86
563.75	43093.94
563.92	44037.18
564.08	43688.44
564.24	44254.85
564.41	43440.34
564.57	43749.29
564.74	43508.22
564.90	43725.89
565.07	43569.07
565.23	43730.57
565.39	43615.88
565.56	43941.22
565.72	43407.58
565.88	43906.11
566.05	43763.34
566.21	43856.96
566.38	43339.70
566.54	43917.81
566.70	44261.87
566.87	44016.11
567.03	44247.83
567.19	44318.04
567.36	43845.26
567.52	43985.69
567.68	43899.09
567.85	44189.31
568.01	44119.10
568.17	43440.34
568.34	44332.09
568.50	43882.70
568.66	44009.09
568.83	43908.45
568.99	43768.02
569.15	43545.67
569.32	43908.45
569.48	43728.23
569.64	44205.70
569.81	44451.45
569.97	43915.47
570.13	44161.23
570.30	43959.94
570.46	44126.12
570.62	44095.69
570.78	43957.60
570.95	43681.42
571.11	43985.69
571.27	44502.95
571.43	43845.26
571.60	43854.62
571.76	44135.48
571.92	44044.20
572.09	43971.64
572.25	43927.17
572.41	44133.14
572.57	44570.82
572.74	44559.12
572.90	44013.77
573.06	44418.69
573.22	43988.03
573.38	44020.80
573.55	43835.89
573.71	44273.57
573.87	44360.17
574.03	43992.71
574.20	44320.38
574.36	44315.70
574.52	44135.48
574.68	44177.61
574.84	44247.83
575.01	44184.63
575.17	44252.51
575.33	44720.62
575.49	44189.31
575.65	44245.49
575.82	44741.68
575.98	44023.14
576.14	44304.00
576.30	44617.63
576.46	44222.08
576.62	44212.72
576.79	44399.96
576.95	43995.05
577.11	44175.27
577.27	44353.15
577.43	44158.89
577.59	44322.72
577.75	44381.24
577.92	43775.04
578.08	44002.07
578.24	43786.74
578.40	44477.20
578.56	44502.95
578.72	44559.12
578.88	44458.48
579.04	44449.11
579.21	44371.88
579.37	43969.30
579.53	44411.67
579.69	44133.14
579.85	44465.50
580.01	44325.07
580.17	44252.51
580.33	44158.89
580.49	44786.15
580.65	44737.00
580.82	44575.50
580.98	44608.27
581.14	44027.82
581.30	44769.77
581.46	44294.64
581.62	44549.76
581.78	44526.35
581.94	44898.50
582.10	44456.14
582.26	44203.36
582.42	44601.25
582.58	44594.23
582.74	44327.41
582.90	44666.78
583.06	45132.55
583.22	44552.10
583.38	44467.84
583.54	44879.77
583.70	44729.98
583.86	44505.29
584.02	44502.95
584.18	44765.09
584.34	44631.68
584.50	44650.40
584.66	44280.60
584.82	44287.62
584.98	44957.01
585.14	44704.23
585.30	44439.75
585.46	44650.40
585.62	44224.42
585.78	44683.17
585.94	44296.98
586.10	44591.89
586.26	44694.87
586.42	44582.52
586.58	44617.63
586.74	44498.26
586.90	44301.66
587.06	44545.08
587.22	44655.08
587.38	44037.18
587.54	44411.67
587.70	44622.31
587.86	44439.75
588.02	44634.02
588.18	44959.35
588.34	44755.72
588.49	44355.49
588.65	44105.06
588.81	44402.30
588.97	44442.09
589.13	43796.10
589.29	44493.58
589.45	44580.18
589.61	44369.54
589.77	44561.46
589.93	44657.42
590.08	44631.68
590.24	44706.57
590.40	45155.96
590.56	44996.80
590.72	45123.19
590.88	44694.87
591.04	45008.50
591.20	45406.39
591.35	45027.23
591.51	44762.75
591.67	44821.26
591.83	44905.52
591.99	45074.04
592.15	45174.68
592.31	44877.43
592.46	44715.93
592.62	44734.66
592.78	44467.84
592.94	44945.31
593.10	44641.04
593.26	44399.96
593.41	44505.29
593.57	44729.98
593.73	45162.98
593.89	44519.33
594.05	45146.59
594.20	44964.03
594.36	45673.21
594.52	44531.03
594.68	44964.03
594.84	44863.39
594.99	45148.93
595.15	44685.51
595.31	44594.23
595.47	44889.13
595.62	44687.85
595.78	44942.97
595.94	44924.24
596.10	45429.80
596.25	44926.58
596.41	45326.81
596.57	44954.67
596.73	45083.40
596.88	44575.50
597.04	44720.62
597.20	44914.88
597.36	44959.35
597.51	45034.25
597.67	44879.77
597.83	45074.04
597.99	44912.54
598.14	44828.28
598.30	44893.82
598.46	45078.72
598.61	44720.62
598.77	44992.12
598.93	44711.25
599.09	45006.16
599.24	45476.61
599.40	45371.28
599.56	45223.83
599.71	44971.05
599.87	44961.69
600.03	44706.57
600.18	44926.58
600.34	44737.00
600.50	45127.87
600.65	44767.43
600.81	44664.44
600.97	45158.30
601.12	45029.57
601.28	45003.82
601.44	44994.46
601.59	44973.39
601.75	44830.62
601.91	44765.09
602.06	44479.54
602.22	44839.98
602.37	44924.24
602.53	44872.75
602.69	45170.00
602.84	44858.71
603.00	44968.71
603.16	44570.82
603.31	44882.11
603.47	44748.70
603.62	44734.66
603.78	44809.56
603.94	44830.62
604.09	45455.54
604.25	45324.47
604.40	45036.59
604.56	45280.00
604.71	45074.04
604.87	44362.51
605.03	44776.79
605.18	44687.85
605.34	44318.04
605.49	44334.43
605.65	44811.90
605.80	45045.95
605.96	44814.24
606.12	45141.91
606.27	45209.79
606.43	44772.11
606.58	44641.04
606.74	44706.57
606.89	44760.40
607.05	44856.37
607.20	45148.93
607.36	44875.09
607.51	44594.23
607.67	44708.91
607.82	44793.17
607.98	44823.60
608.13	44577.84
608.29	45153.62
608.44	44404.64
608.60	44065.27
608.75	44259.53
608.91	44645.72
609.06	44348.47
609.22	44460.82
609.37	44126.12
609.53	44392.94
609.68	44601.25
609.84	44273.57
609.99	44514.65
610.15	44161.23
610.30	44650.40
610.46	44271.23
610.61	44044.20
610.76	44631.68
610.92	44329.75
611.07	44233.78
611.23	44484.22
611.38	44313.36
611.54	44650.40
611.69	44074.63
611.84	43945.90
612.00	44304.00
612.15	44009.09
612.31	44329.75
612.46	44395.28
612.62	44170.59
612.77	44287.62
612.92	44671.46
613.08	43828.87
613.23	44346.13
613.39	43789.08
613.54	43646.31
613.69	43955.26
613.85	44006.75
614.00	44247.83
614.15	43889.73
614.31	44287.62
614.46	44610.61
614.62	44278.25
614.77	43856.96
614.92	43899.09
615.08	43660.35
615.23	43695.46
615.38	43892.07
615.54	43255.44
615.69	43842.92
615.84	43737.59
616.00	43901.43
616.15	43786.74
616.30	43704.82
616.46	43697.80
616.61	43283.53
616.76	43353.74
616.92	43077.56
617.07	43360.76
617.22	43494.18
617.37	43351.40
617.53	43840.57
617.68	43690.78
617.83	43744.61
617.99	43435.66
618.14	43639.29
618.29	43597.16
618.45	43189.91
618.60	43304.59
618.75	43220.33
618.90	42824.78
619.06	43672.06
619.21	43379.49
619.36	43342.04
619.51	42885.64
619.67	43143.09
619.82	43508.22
619.97	43604.18
620.12	42878.61
620.28	43093.94
620.43	43173.52
620.58	42841.17
620.73	42866.91
620.89	42859.89
621.04	42911.38
621.19	43047.13
621.34	43241.40
621.49	42906.70
621.65	42471.36
621.80	43103.31
621.95	42822.44
622.10	42962.87
622.25	42520.51
622.41	42696.05
622.56	42724.14
622.71	42836.48
622.86	42792.01
623.01	42817.76
623.16	42710.10
623.32	42635.20
623.47	42848.19
623.62	42602.43
623.77	42387.10
623.92	42415.19
624.07	42300.50
624.23	42782.65
624.38	42349.65
624.53	42108.58
624.68	42457.32
624.83	42380.08
624.98	42497.11
625.13	42167.09
625.29	42366.04
625.44	42382.42
625.59	41963.46
625.74	42082.83
625.89	41724.73
626.04	41977.51
626.19	42216.24
626.34	42462.00
626.49	42082.83
626.65	41647.49
626.80	42010.28
626.95	42068.79
627.10	41759.84
627.25	41874.52
627.40	41872.18
627.55	41633.45
627.70	41312.80
627.85	41453.23
628.00	41916.65
628.15	41406.42
628.30	41549.19
628.45	41326.84
628.60	41577.28
628.76	41684.94
628.91	41205.13
629.06	41497.70
629.21	41111.51
629.36	41581.96
629.51	41598.34
629.66	41144.28
629.81	41652.17
629.96	41422.80
630.11	41427.48
630.26	41567.91
630.41	41553.87
630.56	41216.83
630.71	41380.67
630.86	40875.12
631.01	40968.74
631.16	41291.73
631.31	40903.20
631.46	40767.45
631.61	40971.08
631.76	41172.36
631.91	40830.65
632.06	41488.34
632.21	41434.50
632.36	41258.96
632.51	40758.09
632.66	41205.13
632.81	40275.94
632.96	40545.10
633.10	40825.96
633.25	40879.80
633.40	40657.45
633.55	40975.76
633.70	40758.09
633.85	40950.01
634.00	40470.20
634.15	40708.94
634.30	41090.44
634.45	40676.17
634.60	40399.99
634.75	40114.44
634.90	40411.69
635.05	40500.63
635.19	40542.76
635.34	40692.55
635.49	41155.98
635.64	40062.95
635.79	40676.17
635.94	40687.87
636.09	40545.10
636.24	40444.46
636.39	40437.44
636.53	40172.96
636.68	39906.13
636.83	40311.05
636.98	40322.75
637.13	40116.78
637.28	40292.32
637.43	40364.88
637.57	40184.66
637.72	39688.46
637.87	40240.83
638.02	40219.77
638.17	40210.40
638.32	39835.92
638.46	39775.06
638.61	40318.07
638.76	39789.11
638.91	39943.58
639.06	39632.29
639.20	39482.50
639.35	39910.82
639.50	39395.90
639.65	40271.26
639.80	39981.03
639.94	39533.99
640.09	39856.98
640.24	39679.10
640.39	39655.70
640.54	39487.18
640.68	39988.05
640.83	39278.87
640.98	39150.14
641.13	39138.44
641.27	39887.41
641.42	39583.14
641.57	39313.98
641.72	39849.96
641.86	38958.22
642.01	39346.75
642.16	39056.52
642.31	38880.98
642.45	39199.29
642.60	38721.82
642.75	38897.36
642.90	39192.27
643.04	39100.99
643.19	38675.01
643.34	39234.40
643.48	39274.19
643.63	38773.31
643.78	38593.09
643.93	38700.76
644.07	38665.65
644.22	38675.01
644.37	38700.76
644.51	38796.72
644.66	38794.38
644.81	38939.49
644.95	39133.76
645.10	38962.90
645.25	39124.40
645.39	38649.27
645.54	38738.21
645.69	38485.43
645.83	38438.62
645.98	38946.51
646.13	38749.91
646.27	38628.20
646.42	38644.59
646.57	38604.80
646.71	39021.41
646.86	39140.78
647.00	38649.27
647.15	38941.83
647.30	38120.31
647.44	38337.98
647.59	38321.59
647.74	38092.22
647.88	38190.52
648.03	38642.24
648.17	38157.75
648.32	37865.19
648.47	38174.14
648.61	37928.38
648.76	38204.56
648.90	38515.86
649.05	38012.64
649.20	38038.39
649.34	38499.47
649.49	37881.57
649.63	37912.00
649.78	37628.79
649.92	37762.20
650.07	38251.38
650.21	37464.96
650.36	38260.74
650.51	37984.55
650.65	38019.66
650.80	38211.59
650.94	38066.47
651.09	38192.86
651.23	37727.10
651.38	38267.76
651.52	37394.74
651.67	37773.91
651.81	37376.01
651.96	37837.10
652.10	37476.66
652.25	37612.41
652.39	37694.33
652.54	37954.13
652.68	37710.71
652.83	37635.81
652.97	37823.06
653.12	37900.29
653.26	37226.22
653.41	37425.17
653.55	37010.89
653.70	37553.90
653.84	37523.47
653.99	37567.94
654.13	37619.43
654.27	37240.26
654.42	37390.06
654.56	37148.98
654.71	37099.83
654.85	37507.08
655.00	37397.08
655.14	37261.33
655.29	37085.79
655.43	37078.77
655.57	36973.44
655.72	36425.76
655.86	36196.38
656.01	36809.61
656.15	36837.69
656.30	36760.45
656.44	36851.73
656.58	36545.12
656.73	36498.31
656.87	36751.09
657.01	36528.74
657.16	36739.39
657.30	37017.91
657.45	36177.66
657.59	36872.80
657.73	36587.25
657.88	36481.93
658.02	36893.86
658.16	36620.02
658.31	37031.96
658.45	36332.14
658.60	36362.56
658.74	36891.52
658.88	36519.38
659.03	36594.28
659.17	36495.97
659.31	36172.98
659.46	36217.45
659.60	36259.58
659.74	36065.31
659.89	36077.02
660.03	36107.44
660.17	36037.23
660.32	35943.61
660.46	36023.19
660.60	36070.00
660.74	35725.94
660.89	36004.46
661.03	35573.80
661.17	35299.96
661.32	35538.69
661.46	35459.12
661.60	35449.75
661.74	35826.58
661.89	35234.42
662.03	35697.85
662.17	35192.30
662.31	35285.92
662.46	35477.84
662.60	35178.25
662.74	35250.81
662.88	34885.68
663.03	34574.39
663.17	35044.84
663.31	34520.56
663.45	35093.99
663.60	35023.78
663.74	35255.49
663.88	34684.40
664.02	34560.35
664.17	34637.59
664.31	34822.49
664.45	34644.61
664.59	34869.30
664.73	34307.57
664.88	34246.72
665.02	34204.59
665.16	34190.55
665.30	34672.70
665.44	34089.90
665.59	33972.88
665.73	34064.16
665.87	34213.95
666.01	34075.86
666.15	34092.24
666.29	34120.33
666.44	33989.26
666.58	33799.68
666.72	33975.22
666.86	33727.12
667.00	34115.65
667.14	33603.07
667.28	33383.06
667.43	33565.62
667.57	33596.05
667.71	33277.74
667.85	33181.77
667.99	33558.60
668.13	33134.96
668.27	33551.58
668.41	33055.39
668.56	33046.02
668.70	33212.20
668.84	33233.27
668.98	33277.74
669.12	32636.43
669.26	33163.05
669.40	32500.68
669.54	32598.98
669.68	32407.06
669.82	32584.94
669.96	32957.08
670.10	32486.64
670.25	32540.47
670.39	32290.03
670.53	32154.28
670.67	32577.92
670.81	32524.08
670.95	32264.28
671.09	32004.49
671.23	31995.12
671.37	31871.07
671.51	31831.29
671.65	31550.42
671.79	31487.23
671.93	31531.70
672.07	32161.30
672.21	31681.49
672.35	31667.45
672.49	31901.50
672.63	31988.10
672.77	31180.62
672.91	31903.84
673.05	31351.48
673.19	31157.21
673.33	31072.95
673.47	30967.63
673.61	31063.59
673.75	31199.34
673.89	30869.33
674.03	30684.42
674.17	30995.71
674.31	31103.38
674.45	30775.70
674.59	31028.48
674.73	30747.62
674.87	30677.40
675.01	30796.77
675.15	30590.80
675.29	30359.09
675.43	30586.12
675.56	30267.81
675.70	30136.74
675.84	30139.08
675.98	28762.84
676.12	29956.52
676.26	30022.05
676.40	29589.05
676.54	29846.51
676.68	29898.00
676.82	28858.81
676.96	29366.70
677.10	29565.65
677.23	29137.33
677.37	29156.05
677.51	28943.06
677.65	29010.94
677.79	28348.57
677.93	28793.27
678.07	28877.53
678.21	28325.16
678.34	28362.61
678.48	28170.69
678.62	28126.22
678.76	27927.27
678.90	27662.79
679.04	27908.55
679.18	28397.72
679.31	27608.96
679.45	27213.41
679.59	27140.85
679.73	27012.12
679.87	27426.40
680.00	27098.72
680.14	27222.77
680.28	27157.24
680.42	27072.98
680.56	27271.92
680.70	26728.92
680.83	27182.98
680.97	27000.42
681.11	26878.71
681.25	26988.72
681.39	26590.83
681.52	27030.85
681.66	26185.91
681.80	26785.09
681.94	26513.59
682.07	26347.41
682.21	26649.34
682.35	26253.79
682.49	26108.68
682.62	25963.56
682.76	25706.10
682.90	25820.79
683.04	25720.15
683.17	25689.72
683.31	25394.81
683.45	25612.48
683.59	25144.38
683.72	25233.32
683.86	25301.19
684.00	25399.49
684.13	25242.68
684.27	25172.46
684.41	24596.69
684.55	24783.93
684.68	24594.35
684.82	24900.96
684.96	24814.36
685.09	24554.56
685.23	24449.24
685.37	24414.13
685.50	24346.25
685.64	23988.15
685.78	23915.59
685.91	24196.46
686.05	23873.46
686.19	23562.17
686.32	23517.70
686.46	23122.15
686.60	23459.19
686.73	23056.62
686.87	23194.71
687.01	23058.96
687.14	22848.31
687.28	23246.20
687.42	23115.13
687.55	22752.35
687.69	23051.94
687.82	22712.56
687.96	22808.52
688.10	22618.94
688.23	22530.00
688.37	22111.04
688.50	21841.88
688.64	22181.26
688.78	22450.42
688.91	22157.85
689.05	22260.84
689.18	22155.51
689.32	21642.93
689.46	21507.18
689.59	21640.59
689.73	21717.83
689.86	21762.30
690.00	21785.71
690.13	21504.84
690.27	21053.12
690.41	21280.15
690.54	20919.71
690.68	20695.02
690.81	21055.46
690.95	20601.40
691.08	20875.24
691.22	20690.34
691.35	20861.19
691.49	20746.51
691.62	20517.14
691.76	20491.39
691.89	20496.07
692.03	20091.16
692.16	20313.51
692.30	20135.63
692.43	19829.02
692.57	19934.34
692.70	20027.96
692.84	19782.21
692.97	19335.17
693.11	19583.26
693.24	19585.60
693.38	19278.99
693.51	19445.17
693.65	19271.97
693.78	19367.93
693.92	19344.53
694.05	19344.53
694.19	19138.56
694.32	19304.74
694.45	18579.17
694.59	18483.21
694.72	18518.32
694.86	18462.15
694.99	18677.48
695.13	18469.17
695.26	18333.42
695.39	18249.16
695.53	18132.13
695.66	18565.13
695.80	18328.74
695.93	18087.66
696.07	18108.72
696.20	18244.48
696.33	17940.21
696.47	17877.01
696.60	18155.54
696.73	17600.83
696.87	17568.06
697.00	17624.23
697.14	17455.72
697.27	17584.44
697.40	17493.16
697.54	17434.65
697.67	17029.74
697.80	16631.85
697.94	16821.43
698.07	16634.19
698.21	16718.45
698.34	16938.46
698.47	16615.46
698.61	16446.94
698.74	16573.33
698.87	16271.40
699.01	16027.99
699.14	16079.48
699.27	16233.96
699.40	16414.18
699.54	15782.23
699.67	15866.49
699.80	15768.19
699.94	16060.76
700.07	15922.66
700.20	15700.31
700.34	15728.40
700.47	15749.46
700.60	15728.40
700.73	16020.97
700.87	15822.02
701.00	15489.67
701.13	15714.36
701.26	15300.08
701.40	15370.30
701.53	15096.46
701.66	15117.52
701.79	14836.66
701.93	15164.33
702.06	14796.87
702.19	14642.39
702.32	14953.68
702.46	14501.96
702.59	14480.89
702.72	14796.87
702.85	14359.19
702.99	14581.54
703.12	14602.60
703.25	14293.65
703.38	14094.71
703.51	14134.50
703.65	14239.82
703.78	14068.96
703.91	13928.53
704.04	13965.98
704.17	14139.18
704.31	14047.90
704.44	13626.60
704.57	13774.05
704.70	13427.65
704.83	13514.25
704.96	13666.39
705.10	13760.01
705.23	13769.37
>>>>>End Processed Spectral Data<<<<<
