SpectraSuite Data File
++++++++++++++++++++++++++++++++++++
Date: Fri Oct 25 10:48:01 EDT 2013
User: price-jones
Dark Spectrum Present: No
Reference Spectrum Present: No
Number of Sampled Component Spectra: 1
Spectrometers: USB2+H05261
Integration Time (usec): 100000 (USB2+H05261)
Spectra Averaged: 1 (USB2+H05261)
Boxcar Smoothing: 0 (USB2+H05261)
Correct for Electrical Dark: No (USB2+H05261)
Strobe/Lamp Enabled: No (USB2+H05261)
Correct for Detector Non-linearity: No (USB2+H05261)
Correct for Stray Light: No (USB2+H05261)
Number of Pixels in Processed Spectrum: 2048
>>>>>Begin Processed Spectral Data<<<<<
365.73	145.11
365.92	145.11
366.12	145.11
366.32	35.11
366.52	0.00
366.72	182.56
366.91	30.43
367.11	16.38
367.31	42.13
367.51	0.00
367.70	49.15
367.90	37.45
368.10	70.22
368.30	32.77
368.49	44.47
368.69	58.51
368.89	0.00
369.09	72.56
369.28	93.62
369.48	86.60
369.68	63.19
369.87	100.64
370.07	93.62
370.27	147.45
370.47	262.14
370.66	341.72
370.86	402.57
371.06	423.64
371.25	484.49
371.45	411.93
371.65	447.04
371.84	449.38
372.04	409.59
372.24	514.92
372.44	458.74
372.63	510.24
372.83	521.94
373.03	486.83
373.22	507.90
373.42	454.06
373.62	484.49
373.81	571.09
374.01	491.51
374.21	596.84
374.40	547.69
374.60	599.18
374.79	524.28
374.99	613.22
375.19	592.16
375.38	578.11
375.58	617.90
375.78	631.94
375.97	564.07
376.17	582.79
376.37	559.39
376.56	631.94
376.76	645.99
376.95	589.82
377.15	575.77
377.35	596.84
377.54	596.84
377.74	540.66
377.93	709.18
378.13	535.98
378.33	657.69
378.52	664.71
378.72	638.97
378.91	671.73
379.11	629.60
379.31	622.58
379.50	631.94
379.70	702.16
379.89	650.67
380.09	608.54
380.28	587.47
380.48	678.76
380.68	681.10
380.87	655.35
381.07	641.31
381.26	676.41
381.46	643.65
381.65	638.97
381.85	636.63
382.04	648.33
382.24	678.76
382.43	664.71
382.63	601.52
382.83	645.99
383.02	653.01
383.22	660.03
383.41	662.37
383.61	627.26
383.80	723.23
384.00	730.25
384.19	657.69
384.39	828.55
384.58	746.63
384.78	784.08
384.97	765.36
385.17	723.23
385.36	739.61
385.56	755.99
385.75	779.40
385.95	784.08
386.14	802.80
386.34	732.59
386.53	718.54
386.72	746.63
386.92	760.67
387.11	777.06
387.31	755.99
387.50	816.85
387.70	828.55
387.89	791.10
388.09	884.72
388.28	807.48
388.48	805.14
388.67	908.13
388.86	873.02
389.06	748.97
389.25	915.15
389.45	919.83
389.64	905.79
389.84	816.85
390.03	910.47
390.22	894.08
390.42	835.57
390.61	828.55
390.81	901.11
391.00	976.00
391.19	957.28
391.39	1004.09
391.58	952.60
391.78	873.02
391.97	961.96
392.16	940.90
392.36	1025.15
392.55	1100.05
392.75	1022.81
392.94	959.62
393.13	908.13
393.33	903.45
393.52	896.43
393.71	985.37
393.91	999.41
394.10	966.64
394.29	1055.58
394.49	1036.86
394.68	1123.46
394.88	1050.90
395.07	1074.31
395.26	1125.80
395.46	1015.79
395.65	1179.63
395.84	1064.94
396.04	1165.59
396.23	1078.99
396.42	1146.86
396.62	1046.22
396.81	1121.12
397.00	1111.75
397.19	1177.29
397.39	1123.46
397.58	1301.34
397.77	1245.16
397.97	1296.66
398.16	1275.59
398.35	1196.01
398.55	1329.42
398.74	1303.68
398.93	1315.38
399.12	1249.85
399.32	1331.76
399.51	1282.61
399.70	1392.62
399.90	1350.49
400.09	1301.34
400.28	1416.02
400.47	1357.51
400.67	1448.79
400.86	1420.71
401.05	1439.43
401.24	1390.28
401.44	1448.79
401.63	1406.66
401.82	1270.91
402.01	1448.79
402.21	1547.09
402.40	1458.15
402.59	1481.56
402.78	1490.92
402.97	1521.35
403.17	1561.14
403.36	1579.86
403.55	1542.41
403.74	1593.90
403.93	1507.30
404.13	1624.33
404.32	1671.14
404.51	1694.55
404.70	1617.31
404.89	1666.46
405.09	1699.23
405.28	1748.38
405.47	1739.02
405.66	1823.28
405.85	1757.74
406.05	1762.42
406.24	1734.34
406.43	1764.76
406.62	1858.39
406.81	1884.13
407.00	1720.29
407.20	1813.92
407.39	1827.96
407.58	1792.85
407.77	1860.73
407.96	1923.92
408.15	1947.33
408.34	1895.83
408.54	1947.33
408.73	1930.94
408.92	1930.94
409.11	1970.73
409.30	2073.71
409.49	1914.56
409.68	1989.46
409.87	2038.61
410.07	1900.52
410.26	2012.86
410.45	2050.31
410.64	2080.74
410.83	2101.80
411.02	2209.47
411.21	2209.47
411.40	2115.84
411.59	2197.76
411.78	2265.64
411.98	2331.17
412.17	2242.23
412.36	2300.75
412.55	2235.21
412.74	2401.39
412.93	2394.37
413.12	2429.48
413.31	2502.03
413.50	2452.88
413.69	2506.71
413.88	2434.16
414.07	2471.61
414.26	2675.23
414.45	2480.97
414.64	2693.96
414.83	2675.23
415.02	2619.06
415.22	2759.49
415.41	2768.85
415.60	2705.66
415.79	2771.19
415.98	2839.07
416.17	2792.26
416.36	2766.51
416.55	2787.58
416.74	2850.77
416.93	2909.29
417.12	2787.58
417.31	2925.67
417.50	3000.57
417.69	2946.73
417.88	3068.44
418.07	2986.52
418.26	3014.61
418.45	3080.14
418.64	3049.72
418.83	3246.32
419.02	3110.57
419.21	3049.72
419.39	3164.40
419.58	3204.19
419.77	3084.83
419.96	3112.91
420.15	3351.65
420.34	3225.26
420.53	3251.00
420.72	3236.96
420.91	3365.69
421.10	3335.26
421.29	3363.35
421.48	3302.50
421.67	3330.58
421.86	3332.92
422.05	3419.52
422.24	3323.56
422.43	3351.65
422.61	3426.54
422.80	3440.59
422.99	3482.72
423.18	3506.12
423.37	3574.00
423.56	3527.19
423.75	3487.40
423.94	3351.65
424.13	3185.47
424.32	3368.03
424.50	3545.91
424.69	3606.77
424.88	3506.12
425.07	3466.33
425.26	3435.91
425.45	3435.91
425.64	3541.23
425.83	3419.52
426.01	3557.61
426.20	3513.14
426.39	3625.49
426.58	3482.72
426.77	3508.46
426.96	3550.59
427.15	3583.36
427.33	3538.89
427.52	3679.32
427.71	3618.47
427.90	3714.43
428.09	3665.28
428.28	3857.20
428.46	3808.05
428.65	3606.77
428.84	3871.25
429.03	3812.73
429.22	3592.72
429.40	3669.96
429.59	3794.01
429.78	3571.66
429.97	3515.48
430.16	3653.58
430.34	3770.60
430.53	3852.52
430.72	3946.14
430.91	3960.19
431.10	3861.88
431.28	3974.23
431.47	4112.32
431.66	4152.11
431.85	4161.47
432.03	4030.40
432.22	4163.81
432.41	4292.54
432.60	4191.90
432.79	4077.21
432.97	4285.52
433.16	4131.05
433.35	4194.24
433.54	4217.65
433.72	4079.55
433.91	4182.54
434.10	4208.28
434.28	4358.08
434.47	4290.20
434.66	4346.37
434.85	4423.61
435.03	4519.57
435.22	4425.95
435.41	4505.53
435.59	4442.34
435.78	4430.63
435.97	4458.72
436.16	4491.49
436.34	4482.13
436.53	4491.49
436.72	4601.49
436.90	4526.60
437.09	4615.54
437.28	4454.04
437.46	4435.32
437.65	4550.00
437.84	4671.71
438.02	4550.00
438.21	4550.00
438.40	4454.04
438.58	4641.28
438.77	4744.27
438.96	4760.65
439.14	4905.76
439.33	4889.38
439.52	4999.38
439.70	4933.85
439.89	5041.51
440.08	4983.00
440.26	4997.04
440.45	5074.28
440.63	5217.05
440.82	5341.10
441.01	5284.93
441.19	5366.85
441.38	5364.51
441.57	5310.68
441.75	5392.59
441.94	5462.81
442.12	5416.00
442.31	5755.38
442.50	5612.60
442.68	5547.07
442.87	5624.31
443.05	5645.37
443.24	5540.05
443.43	5621.97
443.61	5743.67
443.80	5788.14
443.98	5624.31
444.17	5315.36
444.35	5839.64
444.54	5769.42
444.73	5886.45
444.91	5659.42
445.10	5827.93
445.28	5659.42
445.47	5628.99
445.65	5675.80
445.84	5717.93
446.02	5895.81
446.21	5893.47
446.39	6010.50
446.58	5802.19
446.77	5954.32
446.95	5706.23
447.14	5900.49
447.32	5970.71
447.51	5884.11
447.69	5799.85
447.88	5865.38
448.06	5928.58
448.25	5954.32
448.43	5902.83
448.62	5865.38
448.80	5853.68
448.99	5998.79
449.17	5937.94
449.36	5987.09
449.54	6202.42
449.73	6282.00
449.91	6108.80
450.10	6267.95
450.28	6286.68
450.46	6277.32
450.65	6256.25
450.83	6303.06
451.02	6052.63
451.20	6237.53
451.39	6303.06
451.57	6317.11
451.76	6225.82
451.94	6246.89
452.13	6319.45
452.31	6331.15
452.49	6392.00
452.68	6427.11
452.86	6420.09
453.05	6513.71
453.23	6443.49
453.42	6270.30
453.60	6382.64
453.78	6689.25
453.97	6319.45
454.15	6541.80
454.34	6539.46
454.52	6782.87
454.70	6668.19
454.89	6588.61
455.07	6726.70
455.26	6731.38
455.44	6918.62
455.62	6808.62
455.81	6815.64
455.99	6827.34
456.17	6846.07
456.36	6979.48
456.54	6930.33
456.73	7197.15
456.91	7302.47
457.09	7187.79
457.28	7255.66
457.46	7190.13
457.64	7166.72
457.83	7023.95
458.01	7211.19
458.19	7201.83
458.38	7218.21
458.56	7330.56
458.74	7393.75
458.93	7253.32
459.11	7356.30
459.29	7377.37
459.48	7290.77
459.66	7248.64
459.84	7456.95
460.03	7555.25
460.21	7325.88
460.39	7676.96
460.57	7225.23
460.76	7573.97
460.94	7808.03
461.12	7808.03
461.31	7698.02
461.49	7662.91
461.67	7728.45
461.85	7871.22
462.04	7571.63
462.22	8269.11
462.40	7843.14
462.59	7716.75
462.77	7915.69
462.95	7927.39
463.13	7896.97
463.32	7889.95
463.50	8049.10
463.68	7882.92
463.86	7915.69
464.05	8044.42
464.23	7913.35
464.41	8121.66
464.59	7786.96
464.78	8234.00
464.96	8105.28
465.14	7992.93
465.32	8191.88
465.50	8208.26
465.69	8273.79
465.87	8224.64
466.05	8376.78
466.23	8355.71
466.41	8365.07
466.60	8224.64
466.78	8339.33
466.96	8114.64
467.14	8341.67
467.32	8428.27
467.51	8404.86
467.69	8145.06
467.87	8369.76
468.05	8566.36
468.23	8252.73
468.41	8407.20
468.60	8535.93
468.78	8336.99
468.96	8643.60
469.14	8772.33
469.32	8828.50
469.50	8596.79
469.69	8505.51
469.87	8830.84
470.05	8901.06
470.23	8767.65
470.41	8863.61
470.59	8793.39
470.77	8795.73
470.95	8940.85
471.14	9039.15
471.32	8975.95
471.50	9341.08
471.68	9046.17
471.86	9188.94
472.04	9287.25
472.22	9334.06
472.40	9144.47
472.58	9221.71
472.77	9394.91
472.95	9376.19
473.13	9699.18
473.31	9334.06
473.49	9371.50
473.67	9495.55
473.85	9371.50
474.03	9738.97
474.21	9525.98
474.39	9851.31
474.57	9909.83
474.75	9886.42
474.93	10073.67
475.12	9963.66
475.30	10033.88
475.48	9921.53
475.66	10115.80
475.84	10085.37
476.02	10307.72
476.20	10382.62
476.38	10551.14
476.56	10754.76
476.74	10803.91
476.92	10576.88
477.10	10476.24
477.28	10946.69
477.46	10782.85
477.64	10637.73
477.82	11033.29
478.00	11222.87
478.18	11239.25
478.36	11283.72
478.54	11386.71
478.72	11449.90
478.90	11414.79
479.08	11569.27
479.26	11566.93
479.44	11765.87
479.62	11466.28
479.80	11791.62
479.98	11927.37
480.16	12161.42
480.34	12049.08
480.52	12301.86
480.70	12215.26
480.88	12318.24
481.06	12510.16
481.24	12524.21
481.41	12652.94
481.59	12678.68
481.77	12973.59
481.95	12975.93
482.13	12898.69
482.31	12772.30
482.49	13481.49
482.67	13460.42
482.85	13458.08
483.03	13411.27
483.21	13607.87
483.39	13886.40
483.57	13380.84
483.74	13760.01
483.92	14024.49
484.10	13933.21
484.28	14155.56
484.46	14551.11
484.64	14672.82
484.82	14319.40
485.00	14846.02
485.18	14977.09
485.35	14782.82
485.53	14789.85
485.71	14883.47
485.89	15154.97
486.07	14986.45
486.25	14991.13
486.43	15290.72
486.61	15391.36
486.78	15913.30
486.96	15758.83
487.14	16070.12
487.32	16072.46
487.50	16402.47
487.68	16318.22
487.85	16681.00
488.03	16430.56
488.21	16989.95
488.39	16870.58
488.57	16870.58
488.75	17099.95
488.92	17216.98
489.10	17303.58
489.28	17544.66
489.46	17572.74
489.64	17577.42
489.81	18092.34
489.99	18347.46
490.17	18284.26
490.35	18534.70
490.53	18258.52
490.70	18302.99
490.88	18452.78
491.06	18890.46
491.24	18831.95
491.41	18670.45
491.59	19524.75
491.77	18981.74
491.95	19171.33
492.13	19304.74
492.30	19229.84
492.48	19449.85
492.66	19878.17
492.84	19733.06
493.01	20166.06
493.19	20072.43
493.37	20154.35
493.54	20423.51
493.72	20255.00
493.90	20425.86
494.08	20624.80
494.25	20690.34
494.43	20936.09
494.61	21462.71
494.79	21116.31
494.96	21245.04
495.14	21355.05
495.32	21439.31
495.49	21472.07
495.67	21486.12
495.85	22141.47
496.02	21738.90
496.20	21963.59
496.38	22080.61
496.55	22104.02
496.73	22387.22
496.91	22443.40
497.09	22647.02
497.26	22799.16
497.44	22677.45
497.62	22960.66
497.79	22965.34
497.97	22890.44
498.14	23290.67
498.32	23166.62
498.50	23381.95
498.67	23529.41
498.85	23318.76
499.03	24016.24
499.20	23845.38
499.38	24060.71
499.56	23948.36
499.73	24243.27
499.91	24290.08
500.08	24231.57
500.26	23880.49
500.44	24226.89
500.61	24226.89
500.79	24535.84
500.97	24709.04
501.14	25085.86
501.32	24795.64
501.49	24683.29
501.67	25118.63
501.84	24879.89
502.02	24650.52
502.20	25223.95
502.37	25582.06
502.55	25432.26
502.72	25528.22
502.90	25701.42
503.07	25621.84
503.25	25434.60
503.43	25551.63
503.60	25736.53
503.78	26195.28
503.95	26150.81
504.13	26132.08
504.30	25928.45
504.48	26043.14
504.65	26611.89
504.83	26583.80
505.01	26590.83
505.18	26649.34
505.36	26689.13
505.53	26775.73
505.71	27250.86
505.88	26787.43
506.06	27061.27
506.23	27175.96
506.41	27246.18
506.58	27234.47
506.76	27358.52
506.93	27562.15
507.11	27447.46
507.28	27608.96
507.46	27466.19
507.63	28006.85
507.81	27733.01
507.98	27803.22
508.16	27913.23
508.33	27955.36
508.50	27953.02
508.68	28308.78
508.85	28472.62
509.03	28341.55
509.20	28411.76
509.38	28456.23
509.55	28528.79
509.73	28535.81
509.90	28950.09
510.08	28989.88
510.25	28641.14
510.42	29106.90
510.60	28957.11
510.77	29223.93
510.95	29329.25
511.12	29319.89
511.30	29633.52
511.47	29528.20
511.64	29673.31
511.82	29715.44
511.99	29649.91
512.17	29626.50
512.34	29575.01
512.51	30075.88
512.69	30005.67
512.86	30349.73
513.04	30305.26
513.21	30541.65
513.38	30181.21
513.56	30267.81
513.73	30293.55
513.90	30398.88
514.08	30579.10
514.25	30749.96
514.43	31070.61
514.60	30684.42
514.77	30742.94
514.95	31187.64
515.12	30918.48
515.29	31140.83
515.47	31393.61
515.64	31559.78
515.81	31601.91
515.99	31290.62
516.16	31182.96
516.33	31173.60
516.51	31241.47
516.68	31103.38
516.85	31147.85
517.03	31672.13
517.20	31765.75
517.37	31545.74
517.54	31992.78
517.72	32072.36
517.89	31948.31
518.06	32243.22
518.24	31831.29
518.41	31723.62
518.58	31938.95
518.75	32027.89
518.93	32217.47
519.10	32233.86
519.27	32521.74
519.45	32723.03
519.62	32638.77
519.79	32655.15
519.96	32851.76
520.14	33102.20
520.31	32788.56
520.48	32968.79
520.65	32898.57
520.83	33345.61
521.00	33158.37
521.17	33354.97
521.34	33586.69
521.52	33406.47
521.69	33366.68
521.86	33745.84
522.03	33364.34
522.20	33930.75
522.38	33921.38
522.55	34279.49
522.72	33652.22
522.89	33804.36
523.07	33902.66
523.24	34052.45
523.41	33907.34
523.58	33886.28
523.75	34363.75
523.92	34525.24
524.10	34501.84
524.27	34347.36
524.44	34848.24
524.61	34759.30
524.78	34658.65
524.96	34773.34
525.13	35136.12
525.30	35065.91
525.47	35213.36
525.64	35292.94
525.81	34958.24
525.98	34974.63
526.16	34852.92
526.33	34782.70
526.50	35379.54
526.67	34946.54
526.84	34883.34
527.01	35206.34
527.18	35304.64
527.36	35812.54
527.53	35634.66
527.70	35978.72
527.87	35906.16
528.04	35531.67
528.21	35807.86
528.38	35789.13
528.55	36205.75
528.72	35765.73
528.89	36072.34
529.07	36105.10
529.24	35807.86
529.41	36495.97
529.58	35644.02
529.75	36465.55
529.92	36648.11
530.09	36311.07
530.26	36371.92
530.43	36629.38
530.60	36400.01
530.77	36697.26
530.94	36650.45
531.11	36835.35
531.28	36753.43
531.46	37228.56
531.63	37050.68
531.80	36678.54
531.97	36978.12
532.14	36769.82
532.31	37050.68
532.48	37289.42
532.65	37303.46
532.82	37151.32
532.99	37078.77
533.16	36966.42
533.33	37319.84
533.50	37603.05
533.67	37745.82
533.84	37340.91
534.01	37282.39
534.18	37668.58
534.35	38167.12
534.52	37558.58
534.69	38225.63
534.86	37860.51
535.03	37811.35
535.20	37832.42
535.37	38007.96
535.54	38342.66
535.71	37993.92
535.88	37921.36
536.05	37860.51
536.22	38356.70
536.38	38143.71
536.55	38237.33
536.72	37869.87
536.89	38211.59
537.06	38162.43
537.23	38782.68
537.40	38153.07
537.57	38373.08
537.74	38501.81
537.91	38855.23
538.08	38885.66
538.25	38520.54
538.42	38682.03
538.59	38850.55
538.75	38312.23
538.92	39019.07
539.09	39089.29
539.26	39021.41
539.43	38939.49
539.60	39110.35
539.77	39250.78
539.94	39349.09
540.11	38799.06
540.28	38843.53
540.44	38745.23
540.61	39625.27
540.78	39026.09
540.95	39438.03
541.12	39110.35
541.29	39239.08
541.46	39604.20
541.62	39360.79
541.79	39115.03
541.96	39332.70
542.13	39262.49
542.30	38967.58
542.47	39627.61
542.63	39328.02
542.80	39800.81
542.97	40444.46
543.14	40062.95
543.31	40444.46
543.48	39892.09
543.64	41071.72
543.81	40299.34
543.98	40168.27
544.15	40208.06
544.32	40409.35
544.48	40622.34
544.65	40474.88
544.82	40718.30
544.99	40374.24
545.16	40886.82
545.32	40102.74
545.49	40762.77
545.66	41071.72
545.83	40762.77
546.00	40608.29
546.16	40622.34
546.33	40868.09
546.50	40371.90
546.67	40612.98
546.83	40374.24
547.00	40378.92
547.17	40744.05
547.34	40917.25
547.50	41097.47
547.67	41146.62
547.84	41029.59
548.00	41268.33
548.17	41769.20
548.34	41221.52
548.51	41303.43
548.67	41659.20
548.84	41247.26
549.01	41514.08
549.18	41256.62
549.34	41280.03
549.51	41874.52
549.68	41495.36
549.84	41907.29
550.01	41244.92
550.18	41265.99
550.34	41614.72
550.51	41429.82
550.68	41448.55
550.84	41832.39
551.01	41668.56
551.18	41830.05
551.34	41626.43
551.51	41727.07
551.68	42157.73
551.84	41654.51
552.01	41570.25
552.18	41926.02
552.34	41268.33
552.51	41612.38
552.68	42160.07
552.84	41764.52
553.01	42525.19
553.18	42312.20
553.34	41874.52
553.51	42087.51
553.67	42312.20
553.84	42150.71
554.01	42351.99
554.17	42667.97
554.34	42403.49
554.51	42583.71
554.67	42637.54
554.84	42117.94
555.00	42405.83
555.17	42562.64
555.33	42506.47
555.50	42106.24
555.67	42733.50
555.83	42576.69
556.00	42740.52
556.16	43117.35
556.33	42653.92
556.50	42719.46
556.66	42801.38
556.83	42555.62
556.99	42958.19
557.16	43007.34
557.32	43093.94
557.49	42972.24
557.65	42450.30
557.82	42951.17
557.98	42831.80
558.15	42396.46
558.32	42836.48
558.48	42955.85
558.65	42848.19
558.81	42586.05
558.98	42777.97
559.14	43395.87
559.31	43419.28
559.47	43278.85
559.64	43412.26
559.80	43662.69
559.97	43342.04
560.13	43152.46
560.30	42958.19
560.46	43203.95
560.63	42801.38
560.79	43346.72
560.96	43278.85
561.12	43189.91
561.29	43285.87
561.45	43253.10
561.61	43526.94
561.78	43246.08
561.94	43323.32
562.11	43222.67
562.27	43269.48
562.44	43042.45
562.60	43192.25
562.77	43452.05
562.93	43014.37
563.10	43526.94
563.26	43318.64
563.42	43423.96
563.59	43548.01
563.75	43618.22
563.92	43454.39
564.08	43428.64
564.24	43789.08
564.41	43613.54
564.57	43611.20
564.74	43587.80
564.90	43349.06
565.07	43817.17
565.23	43395.87
565.39	43957.60
565.56	43936.54
565.72	43538.65
565.88	43604.18
566.05	43344.38
566.21	43667.37
566.38	43962.28
566.54	43835.89
566.70	44390.60
566.87	44151.87
567.03	43505.88
567.19	44313.36
567.36	43821.85
567.52	43978.67
567.68	44065.27
567.85	44147.18
568.01	43849.94
568.17	43557.37
568.34	44282.94
568.50	43473.11
568.66	43772.70
568.83	43922.49
568.99	43580.78
569.15	43728.23
569.32	43859.30
569.48	43882.70
569.64	44392.94
569.81	44245.49
569.97	43711.84
570.13	44133.14
570.30	43819.51
570.46	43756.32
570.62	44151.87
570.78	43786.74
570.95	44044.20
571.11	44397.62
571.27	43999.73
571.43	43920.15
571.60	44053.56
571.76	44278.25
571.92	44114.42
572.09	44144.84
572.25	44009.09
572.41	44179.95
572.57	43924.83
572.74	44676.15
572.90	43962.28
573.06	44151.87
573.22	44151.87
573.38	44076.97
573.55	43756.32
573.71	44357.83
573.87	44055.90
574.03	43585.46
574.20	44505.29
574.36	44163.57
574.52	44399.96
574.68	44055.90
574.84	44088.67
575.01	43973.98
575.17	44430.39
575.33	43990.37
575.49	44245.49
575.65	44580.18
575.82	44449.11
575.98	44383.58
576.14	44563.80
576.30	44233.78
576.46	43999.73
576.62	43789.08
576.79	44069.95
576.95	43908.45
577.11	44378.90
577.27	44449.11
577.43	44512.31
577.59	44322.72
577.75	44194.00
577.92	44261.87
578.08	44226.76
578.24	44371.88
578.40	44102.71
578.56	44495.92
578.72	44360.17
578.88	44423.37
579.04	44495.92
579.21	44231.44
579.37	44374.22
579.53	44514.65
579.69	44229.10
579.85	44348.47
580.01	44636.36
580.17	44154.21
580.33	44484.22
580.49	44470.18
580.65	44566.14
580.82	44582.52
580.98	44376.56
581.14	44006.75
581.30	44512.31
581.46	44580.18
581.62	44318.04
581.78	44437.41
581.94	44144.84
582.10	44383.58
582.26	44807.22
582.42	44722.96
582.58	44734.66
582.74	44355.49
582.90	44336.77
583.06	44533.37
583.22	44692.53
583.38	44414.01
583.54	44432.73
583.70	44236.12
583.86	44498.26
584.02	44079.31
584.18	44428.05
584.34	44746.36
584.50	44278.25
584.66	44327.41
584.82	44432.73
584.98	44463.16
585.14	44409.32
585.30	44524.01
585.46	44418.69
585.62	44107.40
585.78	44151.87
585.94	43725.89
586.10	44023.14
586.26	43941.22
586.42	44444.43
586.58	44847.00
586.74	44608.27
586.90	43969.30
587.06	44074.63
587.22	44697.21
587.38	44308.68
587.54	44626.99
587.70	44917.22
587.86	44842.32
588.02	44444.43
588.18	45022.54
588.34	44685.51
588.49	44065.27
588.65	44444.43
588.81	44182.29
588.97	44128.46
589.13	44460.82
589.29	44121.44
589.45	44484.22
589.61	44245.49
589.77	45013.18
589.93	44453.79
590.08	44683.17
590.24	44767.43
590.40	44814.24
590.56	44919.56
590.72	44481.88
590.88	44961.69
591.04	44858.71
591.20	45127.87
591.35	44811.90
591.51	45134.89
591.67	44687.85
591.83	44697.21
591.99	44690.19
592.15	44205.70
592.31	44509.97
592.46	44971.05
592.62	44367.20
592.78	45270.64
592.94	45195.74
593.10	45020.20
593.26	44596.57
593.41	44645.72
593.57	44582.52
593.73	44507.63
593.89	44725.30
594.05	44701.89
594.20	44772.11
594.36	44903.18
594.52	44900.84
594.68	44957.01
594.84	45017.86
594.99	45223.83
595.15	44587.21
595.31	45160.64
595.47	44865.73
595.62	45141.91
595.78	45048.29
595.94	45373.63
596.10	44786.15
596.25	44940.63
596.41	45071.70
596.57	44884.45
596.73	44942.97
596.88	44678.49
597.04	44949.99
597.20	44809.56
597.36	44818.92
597.51	45036.59
597.67	44832.96
597.83	44949.99
597.99	45099.78
598.14	44971.05
598.30	44626.99
598.46	44652.74
598.61	44797.85
598.77	44608.27
598.93	44631.68
599.09	44783.81
599.24	45399.37
599.40	45125.53
599.56	45399.37
599.71	45020.20
599.87	44589.55
600.03	45132.55
600.18	44762.75
600.34	45219.15
600.50	44818.92
600.65	44863.39
600.81	45017.86
600.97	45003.82
601.12	45235.53
601.28	45296.39
601.44	44655.08
601.59	45071.70
601.75	44912.54
601.91	45137.23
602.06	44456.14
602.22	45228.51
602.37	45043.61
602.53	45354.90
602.69	45184.04
602.84	45038.93
603.00	44830.62
603.16	45097.44
603.31	44889.13
603.47	44561.46
603.62	44830.62
603.78	44823.60
603.94	44610.61
604.09	44715.93
604.25	45092.76
604.40	44697.21
604.56	44680.83
604.71	44521.67
604.87	44912.54
605.03	45287.03
605.18	44343.79
605.34	44919.56
605.49	44542.74
605.65	45069.36
605.80	44662.10
605.96	45048.29
606.12	45010.84
606.27	44811.90
606.43	44292.30
606.58	44940.63
606.74	44821.26
606.89	45256.60
607.05	45055.31
607.20	44718.28
607.36	44942.97
607.51	44905.52
607.67	44802.53
607.82	44701.89
607.98	44776.79
608.13	44655.08
608.29	44809.56
608.44	44074.63
608.60	44292.30
608.75	44296.98
608.91	44519.33
609.06	44315.70
609.22	44758.06
609.37	44233.78
609.53	44353.15
609.68	44729.98
609.84	44332.09
609.99	44662.10
610.15	44793.17
610.30	44109.74
610.46	44196.34
610.61	44243.15
610.76	44224.42
610.92	44175.27
611.07	44318.04
611.23	44346.13
611.38	44245.49
611.54	44191.65
611.69	43943.56
611.84	43784.40
612.00	44170.59
612.15	44540.39
612.31	44287.62
612.46	44292.30
612.62	44353.15
612.77	44135.48
612.92	44524.01
613.08	44030.16
613.23	43842.92
613.39	43606.52
613.54	43957.60
613.69	44116.76
613.85	43606.52
614.00	44395.28
614.15	44205.70
614.31	44292.30
614.46	44339.11
614.62	44350.81
614.77	43845.26
614.92	44076.97
615.08	43821.85
615.23	44083.99
615.38	43667.37
615.54	43377.15
615.69	43847.60
615.84	43571.41
616.00	44034.84
616.15	43976.33
616.30	43992.71
616.46	43676.74
616.61	43463.75
616.76	43501.20
616.92	43384.17
617.07	43456.73
617.22	43377.15
617.37	43573.75
617.53	43627.59
617.68	43615.88
617.83	43976.33
617.99	43880.36
618.14	43161.82
618.29	43641.63
618.45	42777.97
618.60	42918.40
618.75	43669.72
618.90	43536.30
619.06	42904.36
619.21	43964.62
619.36	43491.83
619.51	43800.79
619.67	43189.91
619.82	43337.36
619.97	43182.88
620.12	43154.80
620.28	43047.13
620.43	43447.36
620.58	42976.92
620.73	43302.25
620.89	42983.94
621.04	43171.18
621.19	42845.85
621.34	42588.39
621.49	42850.53
621.65	42604.77
621.80	43077.56
621.95	42817.76
622.10	42845.85
622.25	43138.41
622.41	42412.85
622.56	42508.81
622.71	43157.14
622.86	43122.03
623.01	42560.30
623.16	43042.45
623.32	43302.25
623.47	42726.48
623.62	42897.34
623.77	42717.12
623.92	42796.70
624.07	42543.92
624.23	42707.76
624.38	42576.69
624.53	42735.84
624.68	42220.92
624.83	42504.13
624.98	42272.42
625.13	42314.55
625.29	42232.63
625.44	42115.60
625.59	42174.11
625.74	41881.55
625.89	41624.09
626.04	42230.29
626.19	42115.60
626.34	42120.28
626.49	42005.59
626.65	41722.39
626.80	42230.29
626.95	42330.93
627.10	41724.73
627.25	41869.84
627.40	41453.23
627.55	41631.11
627.70	41268.33
627.85	41638.13
628.00	41862.82
628.15	41933.04
628.30	41638.13
628.45	41970.49
628.60	41673.24
628.76	41921.34
628.91	41846.44
629.06	41743.45
629.21	41413.44
629.36	41558.55
629.51	41675.58
629.66	41296.41
629.81	41481.31
629.96	41556.21
630.11	41715.37
630.26	41797.29
630.41	41333.86
630.56	41038.95
630.71	41329.18
630.86	41525.78
631.01	41134.92
631.16	41411.10
631.31	41088.10
631.46	40772.13
631.61	41235.56
631.76	41439.18
631.91	41476.63
632.06	41076.40
632.21	41184.07
632.36	41691.96
632.51	40636.38
632.66	40931.29
632.81	40854.05
632.96	40964.06
633.10	41031.93
633.25	40725.32
633.40	40371.90
633.55	41261.30
633.70	40898.52
633.85	40725.32
634.00	41106.83
634.15	41029.59
634.30	40484.25
634.45	40886.82
634.60	40828.30
634.75	40336.79
634.90	40612.98
635.05	41095.13
635.19	40617.66
635.34	40851.71
635.49	40409.35
635.64	40753.41
635.79	40215.08
635.94	40053.59
636.09	40891.50
636.24	40322.75
636.39	40294.66
636.53	40261.90
636.68	40172.96
636.83	39952.94
636.98	40423.39
637.13	40158.91
637.28	40240.83
637.43	40243.17
637.57	40463.18
637.72	40491.27
637.87	40236.15
638.02	39969.33
638.17	40062.95
638.32	40205.72
638.46	40165.93
638.61	40144.87
638.76	39636.97
638.91	39754.00
639.06	39847.62
639.20	39896.77
639.35	39782.09
639.50	39674.42
639.65	40240.83
639.80	40048.91
639.94	39676.76
640.09	39910.82
640.24	39765.70
640.39	39541.01
640.54	39529.31
640.68	39861.66
640.83	39590.16
640.98	39374.83
641.13	39426.32
641.27	39674.42
641.42	39512.92
641.57	39718.89
641.72	39342.06
641.86	39564.42
642.01	39838.26
642.16	39470.79
642.31	39119.71
642.45	39264.83
642.60	38962.90
642.75	39173.55
642.90	38998.01
643.04	39196.95
643.19	39372.49
643.34	39098.65
643.48	39164.18
643.63	38920.77
643.78	39402.92
643.93	38892.68
644.07	38717.14
644.22	38658.63
644.37	38731.18
644.51	38618.84
644.66	39203.97
644.81	38831.83
644.95	39168.87
645.10	39070.56
645.25	39056.52
645.39	39166.52
645.54	39152.48
645.69	38625.86
645.83	38567.35
645.98	38972.26
646.13	38862.26
646.27	39243.76
646.42	38653.95
646.57	39077.58
646.71	38471.39
646.86	38778.00
647.00	38902.04
647.15	38621.18
647.30	38892.68
647.44	38590.75
647.59	38490.11
647.74	38340.32
647.88	38256.06
648.03	38288.82
648.17	38569.69
648.32	38043.07
648.47	38141.37
648.61	37930.72
648.76	38499.47
648.90	38256.06
649.05	38249.03
649.20	38234.99
649.34	38178.82
649.49	38471.39
649.63	38270.10
649.78	38132.01
649.92	37949.45
650.07	38714.80
650.21	38040.73
650.36	37979.87
650.51	38089.88
650.65	38600.12
650.80	38401.17
650.94	38389.47
651.09	38234.99
651.23	37769.22
651.38	37787.95
651.52	37963.49
651.67	37799.65
651.81	38192.86
651.96	37507.08
652.10	37654.54
652.25	37397.08
652.39	37670.92
652.54	38124.99
652.68	37813.70
652.83	37708.37
652.97	37647.52
653.12	37633.47
653.26	37736.46
653.41	37975.19
653.55	37691.99
653.70	37521.13
653.84	37394.74
653.99	37439.21
654.13	37397.08
654.27	37088.13
654.42	37560.92
654.56	37343.25
654.71	37886.25
654.85	37221.54
655.00	37233.24
655.14	37170.05
655.29	36790.88
655.43	37001.53
655.57	36893.86
655.72	37130.26
655.86	36926.63
656.01	37486.02
656.15	36767.48
656.30	36666.83
656.44	36510.02
656.58	36741.73
656.73	36538.10
656.87	37167.71
657.01	36568.53
657.16	36620.02
657.30	36383.63
657.45	36411.71
657.59	36940.68
657.73	36217.45
657.88	36645.77
658.02	36610.66
658.16	36830.67
658.31	37090.47
658.45	36561.51
658.60	36327.45
658.74	36730.03
658.88	36825.99
659.03	36191.70
659.17	36390.65
659.31	36451.50
659.46	36671.51
659.60	36016.16
659.74	36100.42
659.89	35756.36
660.03	35803.17
660.17	35828.92
660.32	36243.20
660.46	36332.14
660.60	36041.91
660.74	36161.28
660.89	36329.80
661.03	35622.95
661.17	35744.66
661.32	35196.98
661.46	35761.05
661.60	35302.30
661.74	35660.40
661.89	35625.29
662.03	35339.75
662.17	35541.03
662.31	35372.52
662.46	35562.10
662.60	35349.11
662.74	35157.19
662.88	34939.52
663.03	35311.66
663.17	35477.84
663.31	35105.70
663.45	34955.90
663.60	35349.11
663.74	34637.59
663.88	34906.75
664.02	34714.83
664.17	34710.14
664.31	34192.89
664.45	34899.73
664.59	34822.49
664.73	34560.35
664.88	34567.37
665.02	33961.17
665.16	34567.37
665.30	34763.98
665.44	34433.96
665.59	34230.33
665.73	33921.38
665.87	33837.12
666.01	34235.02
666.15	34185.86
666.29	33888.62
666.44	34246.72
666.58	34150.76
666.72	34309.91
666.86	34022.03
667.00	34338.00
667.14	34108.63
667.28	33738.82
667.43	33610.09
667.57	33572.64
667.71	33677.97
667.85	33757.55
667.99	33312.84
668.13	32893.89
668.27	33113.90
668.41	33233.27
668.56	33195.82
668.70	33266.03
668.84	33092.83
668.98	33074.11
669.12	33090.49
669.26	32987.51
669.40	33354.97
669.54	33132.62
669.68	33123.26
669.82	32912.61
669.96	32598.98
670.10	32582.60
670.25	32718.35
670.39	32603.66
670.53	32669.20
670.67	32407.06
670.81	32699.62
670.95	32706.65
671.09	32861.12
671.23	33006.23
671.37	31981.08
671.51	32226.84
671.65	32355.57
671.79	31967.04
671.93	32011.51
672.07	32217.47
672.21	32041.93
672.35	31740.00
672.49	31714.26
672.63	32109.81
672.77	31637.02
672.91	31552.76
673.05	31536.38
673.19	31311.69
673.33	31328.07
673.47	31580.85
673.61	31105.72
673.75	31084.65
673.89	30857.62
674.03	30976.99
674.17	30930.18
674.31	30623.57
674.45	31054.23
674.59	31021.46
674.73	30953.58
674.87	30866.98
675.01	30644.63
675.15	30572.08
675.29	30780.39
675.43	30696.13
675.56	30792.09
675.70	30288.87
675.84	30223.34
675.98	29338.62
676.12	29865.24
676.26	29680.33
676.40	29841.83
676.54	29759.91
676.68	29680.33
676.82	29202.86
676.96	29570.33
677.10	29605.44
677.23	29324.57
677.37	29500.11
677.51	29401.81
677.65	29209.89
677.79	29156.05
677.93	28938.38
678.07	28711.35
678.21	28587.30
678.34	28467.94
678.48	28407.08
678.62	28156.64
678.76	28161.33
678.90	28032.60
679.04	28144.94
679.18	28030.26
679.31	27817.27
679.45	28084.09
679.59	27431.08
679.73	27510.66
679.87	27791.52
680.00	27590.24
680.14	27543.42
680.28	27204.05
680.42	27513.00
680.56	27283.62
680.70	26932.54
680.83	27267.24
680.97	26796.79
681.11	26630.62
681.25	26405.92
681.39	26478.48
681.52	26794.45
681.66	26588.49
681.80	26778.07
681.94	26412.95
682.07	26284.22
682.21	26349.75
682.35	26202.30
682.49	26295.92
682.62	26384.86
682.76	25802.07
682.90	25771.64
683.04	26164.85
683.17	25916.75
683.31	25778.66
683.45	25654.61
683.59	25553.97
683.72	25610.14
683.86	25289.49
684.00	25074.16
684.13	25390.13
684.27	25355.02
684.41	25188.85
684.55	24992.24
684.68	24704.35
684.82	24790.95
684.96	24900.96
685.09	24400.08
685.23	24435.19
685.37	24521.79
685.50	24360.30
685.64	24549.88
685.78	24175.39
685.91	24409.45
686.05	24154.33
686.19	24086.45
686.32	23843.04
686.46	23594.94
686.60	23405.36
686.73	23250.88
686.87	23594.94
687.01	23414.72
687.14	23161.94
687.28	23035.55
687.42	22808.52
687.55	22923.21
687.69	22909.16
687.82	22829.59
687.96	22712.56
688.10	22445.74
688.23	22698.52
688.37	22342.75
688.50	22066.57
688.64	22228.07
688.78	22167.21
688.91	22267.86
689.05	22204.66
689.18	21759.96
689.32	21446.33
689.46	21848.90
689.59	21996.35
689.73	22134.45
689.86	21479.10
690.00	21668.68
690.13	21701.45
690.27	21603.14
690.41	21668.68
690.54	21165.46
690.68	20931.41
690.81	21025.03
690.95	20989.92
691.08	21020.35
691.22	21022.69
691.35	20685.65
691.49	20732.47
691.62	20648.21
691.76	20812.04
691.89	20835.45
692.03	20357.98
692.16	20336.91
692.30	20585.01
692.43	20407.13
692.57	20130.95
692.70	20006.90
692.84	20056.05
692.97	19981.15
693.11	19527.09
693.24	19522.41
693.38	19550.49
693.51	19042.60
693.65	19232.18
693.78	19323.46
693.92	19358.57
694.05	19365.59
694.19	19126.86
694.32	19077.71
694.45	19023.87
694.59	18717.26
694.72	18782.80
694.86	18998.13
694.99	18750.03
695.13	18586.19
695.26	18242.14
695.39	18302.99
695.53	18485.55
695.66	18658.75
695.80	18604.92
695.93	17996.38
696.07	18073.62
696.20	18293.63
696.33	17991.70
696.47	17731.90
696.60	17865.31
696.73	17633.60
696.87	17605.51
697.00	17727.22
697.14	17830.20
697.27	17914.46
697.40	17436.99
697.54	17184.21
697.67	17053.14
697.80	17181.87
697.94	17111.66
698.07	17263.79
698.21	17008.67
698.34	16795.68
698.47	16865.90
698.61	16428.22
698.74	16641.21
698.87	16507.80
699.01	16327.58
699.14	16514.82
699.27	16397.79
699.40	16285.45
699.54	15887.56
699.67	16074.80
699.80	15936.71
699.94	15714.36
700.07	15927.35
700.20	15899.26
700.34	15934.37
700.47	15534.14
700.60	15833.72
700.73	16051.39
700.87	15513.07
701.00	15503.71
701.13	15527.11
701.26	15639.46
701.40	15662.86
701.53	15206.46
701.66	15110.50
701.79	15154.97
701.93	14953.68
702.06	14862.40
702.19	15007.52
702.32	14937.30
702.46	14253.86
702.59	14733.67
702.72	14600.26
702.85	14642.39
702.99	14565.15
703.12	14778.14
703.25	14766.44
703.38	14562.81
703.51	14307.69
703.65	14314.72
703.78	14251.52
703.91	14249.18
704.04	14064.28
704.17	14265.57
704.31	13853.63
704.44	13717.88
704.57	13664.05
704.70	13694.47
704.83	13664.05
704.96	13483.83
705.10	13893.42
705.23	13614.90
>>>>>End Processed Spectral Data<<<<<
