SpectraSuite Data File
++++++++++++++++++++++++++++++++++++
Date: Fri Oct 25 10:47:10 EDT 2013
User: price-jones
Dark Spectrum Present: No
Reference Spectrum Present: No
Number of Sampled Component Spectra: 1
Spectrometers: USB2+H05261
Integration Time (usec): 100000 (USB2+H05261)
Spectra Averaged: 1 (USB2+H05261)
Boxcar Smoothing: 0 (USB2+H05261)
Correct for Electrical Dark: No (USB2+H05261)
Strobe/Lamp Enabled: No (USB2+H05261)
Correct for Detector Non-linearity: No (USB2+H05261)
Correct for Stray Light: No (USB2+H05261)
Number of Pixels in Processed Spectrum: 2048
>>>>>Begin Processed Spectral Data<<<<<
365.73	184.90
365.92	184.90
366.12	184.90
366.32	39.79
366.52	0.00
366.72	46.81
366.91	35.11
367.11	44.47
367.31	53.83
367.51	110.01
367.70	37.45
367.90	86.60
368.10	93.62
368.30	154.48
368.49	42.13
368.69	95.96
368.89	72.56
369.09	86.60
369.28	140.43
369.48	32.77
369.68	93.62
369.87	112.35
370.07	88.94
370.27	149.79
370.47	212.99
370.66	374.49
370.86	365.12
371.06	463.43
371.25	528.96
371.45	461.09
371.65	552.37
371.84	421.30
372.04	489.17
372.24	493.85
372.44	498.53
372.63	547.69
372.83	468.11
373.03	500.87
373.22	456.40
373.42	564.07
373.62	456.40
373.81	521.94
374.01	526.62
374.21	521.94
374.40	489.17
374.60	526.62
374.79	533.64
374.99	608.54
375.19	594.50
375.38	512.58
375.58	465.77
375.78	543.00
375.97	491.51
376.17	655.35
376.37	559.39
376.56	559.39
376.76	521.94
376.95	587.47
377.15	634.29
377.35	594.50
377.54	615.56
377.74	545.34
377.93	557.05
378.13	645.99
378.33	610.88
378.52	650.67
378.72	638.97
378.91	638.97
379.11	620.24
379.31	692.80
379.50	596.84
379.70	624.92
379.89	627.26
380.09	643.65
380.28	664.71
380.48	634.29
380.68	606.20
380.87	575.77
381.07	676.41
381.26	681.10
381.46	676.41
381.65	748.97
381.85	739.61
382.04	676.41
382.24	664.71
382.43	669.39
382.63	641.31
382.83	746.63
383.02	709.18
383.22	664.71
383.41	655.35
383.61	653.01
383.80	732.59
384.00	809.83
384.19	774.72
384.39	760.67
384.58	772.38
384.78	791.10
384.97	779.40
385.17	760.67
385.36	732.59
385.56	727.91
385.75	739.61
385.95	779.40
386.14	840.25
386.34	716.20
386.53	858.98
386.72	772.38
386.92	767.70
387.11	777.06
387.31	868.34
387.50	784.08
387.70	730.25
387.89	835.57
388.09	851.96
388.28	816.85
388.48	819.19
388.67	802.80
388.86	910.47
389.06	847.27
389.25	866.00
389.45	919.83
389.64	931.53
389.84	891.74
390.03	917.49
390.22	891.74
390.42	915.15
390.61	919.83
390.81	844.93
391.00	938.55
391.19	875.36
391.39	1039.20
391.58	1055.58
391.78	945.58
391.97	1008.77
392.16	961.96
392.36	957.28
392.55	957.28
392.75	1025.15
392.94	980.68
393.13	976.00
393.33	957.28
393.52	1041.54
393.71	992.39
393.91	1034.52
394.10	1020.47
394.29	971.32
394.49	1027.50
394.68	1111.75
394.88	1142.18
395.07	1083.67
395.26	1109.41
395.46	1039.20
395.65	1095.37
395.84	1217.08
396.04	1167.93
396.23	1118.78
396.42	1118.78
396.62	1181.97
396.81	1158.57
397.00	1165.59
397.19	1210.06
397.39	1179.63
397.58	1277.93
397.77	1151.54
397.97	1252.19
398.16	1301.34
398.35	1327.08
398.55	1306.02
398.74	1320.06
398.93	1373.89
399.12	1345.81
399.32	1270.91
399.51	1364.53
399.70	1427.73
399.90	1345.81
400.09	1301.34
400.28	1404.32
400.47	1432.41
400.67	1474.54
400.86	1413.68
401.05	1364.53
401.24	1549.43
401.44	1448.79
401.63	1401.98
401.82	1558.80
402.01	1458.15
402.21	1465.18
402.40	1497.94
402.59	1479.22
402.78	1612.63
402.97	1528.37
403.17	1526.03
403.36	1476.88
403.55	1565.82
403.74	1626.67
403.93	1624.33
404.13	1640.72
404.32	1586.88
404.51	1596.25
404.70	1715.61
404.89	1678.16
405.09	1647.74
405.28	1680.50
405.47	1748.38
405.66	1732.00
405.85	1722.63
406.05	1708.59
406.24	1715.61
406.43	1701.57
406.62	1781.15
406.81	1849.02
407.00	1790.51
407.20	1710.93
407.39	1739.02
407.58	1839.66
407.77	1879.45
407.96	1916.90
408.15	1923.92
408.34	1916.90
408.54	1872.43
408.73	1895.83
408.92	1919.24
409.11	2024.56
409.30	1975.41
409.49	1991.80
409.68	2080.74
409.87	1919.24
410.07	2136.91
410.26	2066.69
410.45	2064.35
410.64	2139.25
410.83	2085.42
411.02	2155.63
411.21	2221.17
411.40	2162.66
411.59	2223.51
411.78	2136.91
411.98	2176.70
412.17	2375.64
412.36	2380.32
412.55	2352.24
412.74	2370.96
412.93	2473.95
413.12	2431.82
413.31	2509.05
413.50	2448.20
413.69	2558.21
413.88	2492.67
414.07	2485.65
414.26	2525.44
414.45	2626.08
414.64	2537.14
414.83	2609.70
415.02	2567.57
415.22	2658.85
415.41	2832.05
415.60	2708.00
415.79	2752.47
415.98	2768.85
416.17	2810.98
416.36	2829.71
416.55	2754.81
416.74	2883.54
416.93	2846.09
417.12	2904.60
417.31	2946.73
417.50	2874.18
417.69	3054.40
417.88	2991.20
418.07	2949.08
418.26	2981.84
418.45	3059.08
418.64	3190.15
418.83	3047.38
419.02	3075.46
419.21	3267.39
419.39	3084.83
419.58	3225.26
419.77	3094.19
419.96	3213.56
420.15	3255.69
420.34	3204.19
420.53	3286.11
420.72	3335.26
420.91	3300.16
421.10	3330.58
421.29	3431.23
421.48	3323.56
421.67	3293.13
421.86	3365.69
422.05	3393.78
422.24	3344.63
422.43	3405.48
422.61	3281.43
422.80	3461.65
422.99	3440.59
423.18	3412.50
423.37	3463.99
423.56	3370.37
423.75	3440.59
423.94	3625.49
424.13	3129.30
424.32	3300.16
424.50	3517.83
424.69	3609.11
424.88	3712.09
425.07	3499.10
425.26	3405.48
425.45	3452.29
425.64	3492.08
425.83	3449.95
426.01	3548.25
426.20	3574.00
426.39	3625.49
426.58	3510.80
426.77	3665.28
426.96	3435.91
427.15	3536.55
427.33	3634.85
427.52	3688.68
427.71	3686.34
427.90	3634.85
428.09	3768.26
428.28	3660.60
428.46	3679.32
428.65	3705.07
428.84	3796.35
429.03	3840.82
429.22	3674.64
429.40	3845.50
429.59	3716.77
429.78	3602.08
429.97	3534.21
430.16	3662.94
430.34	3796.35
430.53	3826.78
430.72	3854.86
430.91	3845.50
431.10	3932.10
431.28	3943.80
431.47	4030.40
431.66	4053.81
431.85	3978.91
432.03	4145.09
432.22	4107.64
432.41	4028.06
432.60	4194.24
432.79	4053.81
432.97	4285.52
433.16	4107.64
433.35	4147.43
433.54	4168.49
433.72	4208.28
433.91	4238.71
434.10	4292.54
434.28	4386.16
434.47	4229.35
434.66	4327.65
434.85	4432.97
435.03	4259.78
435.22	4294.88
435.41	4512.55
435.59	4486.81
435.78	4454.04
435.97	4505.53
436.16	4397.87
436.34	4470.42
436.53	4554.68
436.72	4669.37
436.90	4592.13
437.09	4720.86
437.28	4526.60
437.46	4596.81
437.65	4638.94
437.84	4662.35
438.02	4580.43
438.21	4554.68
438.40	4723.20
438.58	4835.55
438.77	4608.51
438.96	4880.02
439.14	5034.49
439.33	4985.34
439.52	4898.74
439.70	5029.81
439.89	5137.48
440.08	4973.64
440.26	5050.88
440.45	4912.78
440.63	5167.90
440.82	5221.74
441.01	5210.03
441.19	5163.22
441.38	5345.78
441.57	5348.12
441.75	5373.87
441.94	5530.69
442.12	5514.30
442.31	5497.92
442.50	5647.71
442.68	5511.96
442.87	5565.79
443.05	5427.70
443.24	5518.98
443.43	5708.57
443.61	5596.22
443.80	5799.85
443.98	5523.66
444.17	5371.53
444.35	5783.46
444.54	5776.44
444.73	5785.80
444.91	5717.93
445.10	5696.86
445.28	5701.54
445.47	5563.45
445.65	5753.04
445.84	5584.52
446.02	5809.21
446.21	5832.62
446.39	5804.53
446.58	5717.93
446.77	5680.48
446.95	5699.20
447.14	5694.52
447.32	5963.68
447.51	5998.79
447.69	5769.42
447.88	5769.42
448.06	5860.70
448.25	5905.17
448.43	6003.47
448.62	5867.72
448.80	5863.04
448.99	6003.47
449.17	5989.43
449.36	5916.87
449.54	6181.35
449.73	6076.03
449.91	6186.04
450.10	6368.60
450.28	6396.68
450.46	6406.05
450.65	6272.64
450.83	6176.67
451.02	6136.88
451.20	6471.58
451.39	6349.87
451.57	6345.19
451.76	6361.58
451.94	6223.48
452.13	6387.32
452.31	6384.98
452.49	6300.72
452.68	6516.05
452.86	6583.93
453.05	6438.81
453.23	6448.18
453.42	6424.77
453.60	6478.60
453.78	6619.04
453.97	6558.18
454.15	6534.78
454.34	6511.37
454.52	6476.26
454.70	6649.46
454.89	6693.93
455.07	6534.78
455.26	6815.64
455.44	6871.81
455.62	6717.34
455.81	6878.83
455.99	6827.34
456.17	7030.97
456.36	6897.56
456.54	6988.84
456.73	6998.20
456.91	7033.31
457.09	7211.19
457.28	7304.81
457.46	7112.89
457.64	7169.06
457.83	7321.20
458.01	7108.21
458.19	7370.35
458.38	7178.42
458.56	7281.41
458.74	7325.88
458.93	7101.19
459.11	7414.82
459.29	7344.60
459.48	7321.20
459.66	7515.46
459.84	7377.37
460.03	7648.87
460.21	7506.10
460.39	7482.69
460.57	7576.31
460.76	7581.00
460.94	7803.35
461.12	7625.47
461.31	7662.91
461.49	7604.40
461.67	7707.38
461.85	7810.37
462.04	7721.43
462.22	8238.69
462.40	7878.24
462.59	7826.75
462.77	7709.72
462.95	7796.32
463.13	7796.32
463.32	7941.44
463.50	7955.48
463.68	8035.06
463.86	8037.40
464.05	8006.97
464.23	7941.44
464.41	8156.77
464.59	8025.70
464.78	8170.81
464.96	8166.13
465.14	8184.85
465.32	8100.59
465.50	8187.19
465.69	8210.60
465.87	8187.19
466.05	8145.06
466.23	8243.37
466.41	8290.18
466.60	8465.72
466.78	8175.49
466.96	8285.50
467.14	8238.69
467.32	8463.38
467.51	8475.08
467.69	8102.93
467.87	8456.36
468.05	8535.93
468.23	8290.18
468.41	8388.48
468.60	8524.23
468.78	8662.32
468.96	8528.91
469.14	8716.16
469.32	8648.28
469.50	8425.93
469.69	8580.40
469.87	8847.22
470.05	8858.93
470.23	8805.10
470.41	8748.92
470.59	8856.59
470.77	8847.22
470.95	9027.45
471.14	8856.59
471.32	8936.17
471.50	9156.18
471.68	8933.82
471.86	9170.22
472.04	9137.45
472.22	9348.10
472.40	9195.96
472.58	9233.41
472.77	9308.31
472.95	9540.02
473.13	9682.80
473.31	9451.08
473.49	9413.63
473.67	9500.23
473.85	9493.21
474.03	9841.95
474.21	9795.14
474.39	9717.90
474.57	9830.25
474.75	9893.44
474.93	10106.43
475.12	9994.09
475.30	10118.14
475.48	10136.86
475.66	10188.35
475.84	9898.13
476.02	10167.29
476.20	10291.34
476.38	10611.99
476.56	10682.20
476.74	10534.75
476.92	10490.28
477.10	10492.62
477.28	10534.75
477.46	10759.44
477.64	10771.15
477.82	10939.66
478.00	11169.04
478.18	11187.76
478.36	11267.34
478.54	11438.20
478.72	11527.14
478.90	11688.64
479.08	11583.31
479.26	11873.54
479.44	11618.42
479.62	11726.08
479.80	11693.32
479.98	12091.21
480.16	12329.94
480.34	12161.42
480.52	12271.43
480.70	12379.09
480.88	11901.62
481.06	12500.80
481.24	12442.29
481.41	12556.97
481.59	12716.13
481.77	12760.60
481.95	12872.95
482.13	12901.03
482.31	13137.43
482.49	13327.01
482.67	13467.44
482.85	13270.84
483.03	13336.37
483.21	13703.84
483.39	14015.13
483.57	13916.83
483.74	13661.71
483.92	14153.22
484.10	14085.34
484.28	14225.78
484.46	14141.52
484.64	14740.69
484.82	14523.02
485.00	14696.22
485.18	14839.00
485.35	15192.42
485.53	14654.09
485.71	14885.81
485.89	15187.74
486.07	15356.25
486.25	15147.95
486.43	15297.74
486.61	15552.86
486.78	15494.35
486.96	15845.43
487.14	15976.50
487.32	16081.82
487.50	16388.43
487.68	16395.45
487.85	16212.89
488.03	16753.55
488.21	16952.50
488.39	17006.33
488.57	16872.92
488.75	17111.66
488.92	17170.17
489.10	17399.54
489.28	17645.30
489.46	17682.75
489.64	17619.55
489.81	18005.74
489.99	18094.68
490.17	18146.17
490.35	18462.15
490.53	18349.80
490.70	18546.40
490.88	18293.63
491.06	18909.19
491.24	18710.24
491.41	18775.78
491.59	19234.52
491.77	18869.40
491.95	19073.03
492.13	19433.47
492.30	19618.37
492.48	19468.58
492.66	19770.51
492.84	19400.70
493.01	20238.61
493.19	19901.58
493.37	20327.55
493.54	20210.53
493.72	20369.68
493.90	20493.73
494.08	20985.24
494.25	20685.65
494.43	20875.24
494.61	20985.24
494.79	21167.80
494.96	21010.99
495.14	21266.11
495.32	21624.21
495.49	21586.76
495.67	21668.68
495.85	21884.01
496.02	21841.88
496.20	22097.00
496.38	21860.60
496.55	22396.59
496.73	22600.21
496.91	22590.85
497.09	22508.93
497.26	22735.96
497.44	22707.88
497.62	22955.97
497.79	23054.28
497.97	22845.97
498.14	23250.88
498.32	23559.83
498.50	23227.48
498.67	23358.55
498.85	23599.62
499.03	23843.04
499.20	24074.75
499.38	23669.84
499.56	24030.28
499.73	24229.23
499.91	23939.00
500.08	24147.31
500.26	24105.18
500.44	24362.64
500.61	24477.32
500.79	24507.75
500.97	24477.32
501.14	25017.99
501.32	25057.78
501.49	24694.99
501.67	24893.94
501.84	24924.36
502.02	25336.30
502.20	25240.34
502.37	25727.17
502.55	25275.45
502.72	25408.86
502.90	25432.26
503.07	25717.81
503.25	25301.19
503.43	25575.03
503.60	26054.84
503.78	25523.54
503.95	25926.11
504.13	26307.62
504.30	26183.57
504.48	26160.17
504.65	26714.87
504.83	26419.97
505.01	26476.14
505.18	26487.84
505.36	26974.67
505.53	26916.16
505.71	26981.70
505.88	27234.47
506.06	27026.17
506.23	27445.12
506.41	27023.83
506.58	27255.54
506.76	27707.26
506.93	27576.19
507.11	27410.01
507.28	27611.30
507.46	27520.02
507.63	27772.80
507.81	27805.56
507.98	27665.13
508.16	27796.20
508.33	28208.14
508.50	27957.70
508.68	28032.60
508.85	28673.90
509.03	28261.97
509.20	28540.49
509.38	28760.50
509.55	28421.13
509.73	28992.22
509.90	28610.71
510.08	28835.40
510.25	28802.63
510.42	29113.92
510.60	29130.31
510.77	29497.77
510.95	29687.36
511.12	29237.97
511.30	29479.05
511.47	29729.48
511.64	30010.35
511.82	29645.23
511.99	29750.55
512.17	29741.19
512.34	29582.03
512.51	30071.20
512.69	30115.67
512.86	30108.65
513.04	30445.69
513.21	30433.99
513.38	30244.40
513.56	30569.74
513.73	30153.12
513.90	30705.49
514.08	30483.14
514.25	31220.41
514.43	30403.56
514.60	30628.25
514.77	30721.87
514.95	31250.83
515.12	31335.09
515.29	30539.31
515.47	31484.89
515.64	31501.27
515.81	31248.49
515.99	31370.20
516.16	31442.76
516.33	31363.18
516.51	31702.56
516.68	31143.17
516.85	31150.19
517.03	31379.56
517.20	31662.77
517.37	31920.23
517.54	32184.71
517.72	31807.88
517.89	31662.77
518.06	31873.42
518.24	31793.84
518.41	31810.22
518.58	32123.85
518.75	32116.83
518.93	32512.38
519.10	32360.25
519.27	32842.40
519.45	32369.61
519.62	32959.42
519.79	32528.77
519.96	32910.27
520.14	33146.67
520.31	33207.52
520.48	33015.60
520.65	33296.46
520.83	33411.15
521.00	32847.08
521.17	33453.28
521.34	33460.30
521.52	33663.93
521.69	33607.75
521.86	33865.21
522.03	33663.93
522.20	34015.01
522.38	33869.89
522.55	34141.39
522.72	34005.64
522.89	33940.11
523.07	34007.98
523.24	33563.28
523.41	33912.02
523.58	33865.21
523.75	34572.05
523.92	34251.40
524.10	34675.04
524.27	34480.77
524.44	34497.16
524.61	34888.03
524.78	34726.53
524.96	35241.45
525.13	34761.64
525.30	35138.46
525.47	35171.23
525.64	34916.11
525.81	35360.81
525.98	35468.48
526.16	35086.97
526.33	35033.14
526.50	35407.62
526.67	35105.70
526.84	35077.61
527.01	35395.92
527.18	35433.37
527.36	35566.78
527.53	35857.01
527.70	35887.43
527.87	35784.45
528.04	35695.51
528.21	35777.43
528.38	35751.68
528.55	36449.16
528.72	35742.32
528.89	36362.56
529.07	36467.89
529.24	36130.85
529.41	36404.69
529.58	36266.60
529.75	36079.36
529.92	36165.96
530.09	36407.03
530.26	36229.15
530.43	36460.87
530.60	36601.30
530.77	36343.84
530.94	36928.97
531.11	36821.31
531.28	36730.03
531.46	36814.29
531.63	36973.44
531.80	36919.61
531.97	37013.23
532.14	37146.64
532.31	36706.62
532.48	37027.28
532.65	37050.68
532.82	36940.68
532.99	37268.35
533.16	36928.97
533.33	37287.07
533.50	37460.27
533.67	37425.17
533.84	37244.94
534.01	37411.12
534.18	37289.42
534.35	38258.40
534.52	37811.35
534.69	37502.40
534.86	38036.05
535.03	37741.14
535.20	38050.09
535.37	38183.50
535.54	38333.29
535.71	38204.56
535.88	37851.14
536.05	37813.70
536.22	38422.23
536.38	38129.67
536.55	38045.41
536.72	38356.70
536.89	38223.29
537.06	38494.79
537.23	38548.62
537.40	38295.85
537.57	38672.67
537.74	38738.21
537.91	38548.62
538.08	38609.48
538.25	37956.47
538.42	39002.69
538.59	38904.38
538.75	38396.49
538.92	38925.45
539.09	39110.35
539.26	38808.42
539.43	39257.81
539.60	38838.85
539.77	38576.71
539.94	39056.52
540.11	38602.46
540.28	39318.66
540.44	39393.56
540.61	39091.63
540.78	39100.99
540.95	39407.60
541.12	39330.36
541.29	39267.17
541.46	39229.72
541.62	39428.66
541.79	39632.29
541.96	39229.72
542.13	39590.16
542.30	39360.79
542.47	39856.98
542.63	39835.92
542.80	39922.52
542.97	40231.47
543.14	40350.84
543.31	40069.97
543.48	40643.40
543.64	40631.70
543.81	40432.75
543.98	40662.13
544.15	40184.66
544.32	40465.52
544.48	40800.22
544.65	40299.34
544.82	40322.75
544.99	40294.66
545.16	40804.90
545.32	40556.80
545.49	40968.74
545.66	40781.49
545.83	40692.55
546.00	41366.63
546.16	40807.24
546.33	40353.18
546.50	40458.50
546.67	40781.49
546.83	40533.40
547.00	40694.89
547.17	40886.82
547.34	41132.57
547.50	41036.61
547.67	41310.46
547.84	41202.79
548.00	41387.69
548.17	41481.31
548.34	41214.49
548.51	41787.92
548.67	41420.46
548.84	41511.74
549.01	41212.15
549.18	41333.86
549.34	41654.51
549.51	41893.25
549.68	40971.08
549.84	41708.35
550.01	41560.89
550.18	41357.27
550.34	41385.35
550.51	41603.02
550.68	41305.77
550.84	41488.34
551.01	41708.35
551.18	41949.42
551.34	41422.80
551.51	41867.50
551.68	41965.81
551.84	41706.01
552.01	41507.06
552.18	41869.84
552.34	41591.32
552.51	42307.52
552.68	42230.29
552.84	42384.76
553.01	42351.99
553.18	42450.30
553.34	42223.26
553.51	41972.83
553.67	42438.59
553.84	42319.23
554.01	42244.33
554.17	42630.52
554.34	42726.48
554.51	42387.10
554.67	42766.27
554.84	42553.28
555.00	42127.30
555.17	42113.26
555.33	42787.33
555.50	42686.69
555.67	42710.10
555.83	42777.97
556.00	42635.20
556.16	43002.66
556.33	43206.29
556.50	42539.24
556.66	42773.29
556.83	42082.83
556.99	42997.98
557.16	42995.64
557.32	42815.42
557.49	42674.99
557.65	42665.63
557.82	42974.58
557.98	42567.32
558.15	42752.23
558.32	43667.37
558.48	43260.12
558.65	43086.92
558.81	42579.03
558.98	43384.17
559.14	42904.36
559.31	42880.95
559.47	42920.74
559.64	43189.91
559.80	43477.79
559.97	43339.70
560.13	43438.00
560.30	42925.42
560.46	43012.02
560.63	43234.38
560.79	43363.11
560.96	43702.48
561.12	43199.27
561.29	43306.93
561.45	43615.88
561.61	43484.81
561.78	43407.58
561.94	43220.33
562.11	43292.89
562.27	43531.62
562.44	43428.64
562.60	43973.98
562.77	43576.09
562.93	43079.90
563.10	43386.51
563.26	42904.36
563.42	43601.84
563.59	43430.98
563.75	43386.51
563.92	43482.47
564.08	43707.16
564.24	43686.10
564.41	44013.77
564.57	43515.24
564.74	43833.55
564.90	43704.82
565.07	43840.57
565.23	43182.88
565.39	43646.31
565.56	43723.55
565.72	43569.07
565.88	43438.00
566.05	43852.28
566.21	43833.55
566.38	43672.06
566.54	43552.69
566.70	44091.01
566.87	43999.73
567.03	43744.61
567.19	44390.60
567.36	44175.27
567.52	44069.95
567.68	43908.45
567.85	43819.51
568.01	43833.55
568.17	43882.70
568.34	44079.31
568.50	44467.84
568.66	44020.80
568.83	44203.36
568.99	44076.97
569.15	44037.18
569.32	44353.15
569.48	43871.00
569.64	44196.34
569.81	44259.53
569.97	44004.41
570.13	43533.96
570.30	43833.55
570.46	43917.81
570.62	43810.15
570.78	43936.54
570.95	44081.65
571.11	43854.62
571.27	44107.40
571.43	44444.43
571.60	44254.85
571.76	43732.91
571.92	44229.10
572.09	43971.64
572.25	43981.01
572.41	43702.48
572.57	44458.48
572.74	44924.24
572.90	43969.30
573.06	44201.02
573.22	44311.02
573.38	43732.91
573.55	43367.79
573.71	44177.61
573.87	43768.02
574.03	44116.76
574.20	44435.07
574.36	44091.01
574.52	44453.79
574.68	44591.89
574.84	44147.18
575.01	44348.47
575.17	44472.52
575.33	43833.55
575.49	44229.10
575.65	44362.51
575.82	44493.58
575.98	44603.59
576.14	44446.77
576.30	43957.60
576.46	44025.48
576.62	44236.12
576.79	44521.67
576.95	43854.62
577.11	44320.38
577.27	44332.09
577.43	44222.08
577.59	44294.64
577.75	44339.11
577.92	44212.72
578.08	44224.42
578.24	44041.86
578.40	44205.70
578.56	44458.48
578.72	44343.79
578.88	44467.84
579.04	44568.48
579.21	43913.13
579.37	44500.61
579.53	44076.97
579.69	44121.44
579.85	44416.35
580.01	44488.90
580.17	44697.21
580.33	44512.31
580.49	44851.69
580.65	44643.38
580.82	44320.38
580.98	44095.69
581.14	44201.02
581.30	44650.40
581.46	44521.67
581.62	44519.33
581.78	44847.00
581.94	44617.63
582.10	44680.83
582.26	44320.38
582.42	44842.32
582.58	44830.62
582.74	44025.48
582.90	44292.30
583.06	44676.15
583.22	44079.31
583.38	45078.72
583.54	44744.02
583.70	44404.64
583.86	44271.23
584.02	43793.76
584.18	44163.57
584.34	44701.89
584.50	44355.49
584.66	44528.69
584.82	44346.13
584.98	44830.62
585.14	44765.09
585.30	44591.89
585.46	44140.16
585.62	44357.83
585.78	44495.92
585.94	44247.83
586.10	44484.22
586.26	44463.16
586.42	44259.53
586.58	44823.60
586.74	44519.33
586.90	44369.54
587.06	44357.83
587.22	44865.73
587.38	44467.84
587.54	44835.30
587.70	44769.77
587.86	44598.91
588.02	44566.14
588.18	44439.75
588.34	44615.29
588.49	44460.82
588.65	44472.52
588.81	44334.43
588.97	44554.44
589.13	44025.48
589.29	44598.91
589.45	44409.32
589.61	44406.98
589.77	44961.69
589.93	44884.45
590.08	44884.45
590.24	45184.04
590.40	44973.39
590.56	45158.30
590.72	45010.84
590.88	44402.30
591.04	44858.71
591.20	44708.91
591.35	45223.83
591.51	44849.35
591.67	44910.20
591.83	44622.31
591.99	44306.34
592.15	44428.05
592.31	44711.25
592.46	44844.66
592.62	44367.20
592.78	44746.36
592.94	45031.91
593.10	44697.21
593.26	44704.23
593.41	45090.42
593.57	44357.83
593.73	44516.99
593.89	44985.10
594.05	44877.43
594.20	44554.44
594.36	44889.13
594.52	44935.95
594.68	44870.41
594.84	44893.82
594.99	45198.09
595.15	44858.71
595.31	45441.50
595.47	44786.15
595.62	45425.12
595.78	44711.25
595.94	45092.76
596.10	44783.81
596.25	45146.59
596.41	44741.68
596.57	45174.68
596.73	45027.23
596.88	44596.57
597.04	44706.57
597.20	44521.67
597.36	44856.37
597.51	44907.86
597.67	44765.09
597.83	45371.28
597.99	45069.36
598.14	44839.98
598.30	44949.99
598.46	44811.90
598.61	44975.73
598.77	44411.67
598.93	44870.41
599.09	44678.49
599.24	45801.94
599.40	44959.35
599.56	45141.91
599.71	44828.28
599.87	44889.13
600.03	45116.17
600.18	45069.36
600.34	44790.83
600.50	45141.91
600.65	44914.88
600.81	45132.55
600.97	45097.44
601.12	45801.94
601.28	45139.57
601.44	44737.00
601.59	44531.03
601.75	44931.26
601.91	45221.49
602.06	44949.99
602.22	44814.24
602.37	44776.79
602.53	45137.23
602.69	44987.44
602.84	44577.84
603.00	44619.97
603.16	44837.64
603.31	44933.60
603.47	44762.75
603.62	44655.08
603.78	44975.73
603.94	44905.52
604.09	44783.81
604.25	44690.19
604.40	45116.17
604.56	45457.88
604.71	44996.80
604.87	44865.73
605.03	45125.53
605.18	44947.65
605.34	44919.56
605.49	44722.96
605.65	45111.49
605.80	44378.90
605.96	44957.01
606.12	45343.20
606.27	44996.80
606.43	44720.62
606.58	44683.17
606.74	44554.44
606.89	44737.00
607.05	44381.24
607.20	44886.79
607.36	44788.49
607.51	44971.05
607.67	44802.53
607.82	44945.31
607.98	45069.36
608.13	44392.94
608.29	44516.99
608.44	44556.78
608.60	44418.69
608.75	44498.26
608.91	44240.81
609.06	44533.37
609.22	44842.32
609.37	44552.10
609.53	44563.80
609.68	44694.87
609.84	44580.18
609.99	44369.54
610.15	44313.36
610.30	44531.03
610.46	44376.56
610.61	44119.10
610.76	44648.06
610.92	44451.45
611.07	44268.89
611.23	44278.25
611.38	44418.69
611.54	44626.99
611.69	43971.64
611.84	44046.54
612.00	44186.97
612.15	44194.00
612.31	44535.71
612.46	44676.15
612.62	44624.65
612.77	44336.77
612.92	44088.67
613.08	43833.55
613.23	43988.03
613.39	44044.20
613.54	43725.89
613.69	44088.67
613.85	43908.45
614.00	44418.69
614.15	44392.94
614.31	44100.37
614.46	44414.01
614.62	43962.28
614.77	43718.87
614.92	44044.20
615.08	44027.82
615.23	43992.71
615.38	43910.79
615.54	43395.87
615.69	43580.78
615.84	43379.49
616.00	43749.29
616.15	44224.42
616.30	44051.22
616.46	43950.58
616.61	43033.09
616.76	43271.82
616.92	43463.75
617.07	43576.09
617.22	43585.46
617.37	43658.01
617.53	43873.34
617.68	43613.54
617.83	43470.77
617.99	44130.80
618.14	43501.20
618.29	43604.18
618.45	43461.41
618.60	43611.20
618.75	43030.75
618.90	43985.69
619.06	43714.19
619.21	43063.52
619.36	43594.82
619.51	43246.08
619.67	43555.03
619.82	43363.11
619.97	43878.02
620.12	42930.11
620.28	42714.78
620.43	43215.65
620.58	43761.00
620.73	43283.53
620.89	42852.87
621.04	43182.88
621.19	42794.36
621.34	42595.41
621.49	43070.54
621.65	42843.51
621.80	43014.37
621.95	42733.50
622.10	42649.24
622.25	42845.85
622.41	42625.84
622.56	43122.03
622.71	43171.18
622.86	43051.81
623.01	42848.19
623.16	43126.71
623.32	42864.57
623.47	42689.03
623.62	43028.41
623.77	42438.59
623.92	42384.76
624.07	42321.57
624.23	42501.79
624.38	42595.41
624.53	42253.69
624.68	42490.09
624.83	42817.76
624.98	42391.78
625.13	42321.57
625.29	42356.67
625.44	42330.93
625.59	42562.64
625.74	42515.83
625.89	42080.49
626.04	41535.15
626.19	42361.36
626.34	42108.58
626.49	42351.99
626.65	42284.12
626.80	42134.32
626.95	42225.60
627.10	41954.10
627.25	41720.05
627.40	41813.67
627.55	41345.56
627.70	41486.00
627.85	41834.74
628.00	41462.59
628.15	41923.68
628.30	41825.37
628.45	41886.23
628.60	41804.31
628.76	42010.28
628.91	41553.87
629.06	41280.03
629.21	41848.78
629.36	41546.85
629.51	41357.27
629.66	41230.88
629.81	40952.35
629.96	41706.01
630.11	41734.09
630.26	41647.49
630.41	41773.88
630.56	41603.02
630.71	41469.61
630.86	41687.28
631.01	41462.59
631.16	41579.62
631.31	41186.41
631.46	40734.68
631.61	41422.80
631.76	41450.89
631.91	41322.16
632.06	40830.65
632.21	41123.21
632.36	40914.90
632.51	40730.00
632.66	41118.53
632.81	40622.34
632.96	41099.81
633.10	40353.18
633.25	40582.55
633.40	40823.62
633.55	41277.69
633.70	40919.59
633.85	40598.93
634.00	40954.69
634.15	40589.57
634.30	40605.95
634.45	40921.93
634.60	40840.01
634.75	40650.42
634.90	40947.67
635.05	40755.75
635.19	40622.34
635.34	40840.01
635.49	40575.53
635.64	40914.90
635.79	40264.24
635.94	40098.06
636.09	40254.87
636.24	40645.74
636.39	40421.05
636.53	40060.61
636.68	40224.45
636.83	40198.70
636.98	40751.07
637.13	40006.78
637.28	40488.93
637.43	40449.14
637.57	40165.93
637.72	40084.01
637.87	40289.98
638.02	40074.65
638.17	40229.13
638.32	40123.80
638.46	40032.52
638.61	39791.45
638.76	39803.15
638.91	39866.34
639.06	40023.16
639.20	39943.58
639.35	40088.70
639.50	39842.94
639.65	40275.94
639.80	39978.69
639.94	39754.00
640.09	39856.98
640.24	40137.85
640.39	39856.98
640.54	39629.95
640.68	39716.55
640.83	39709.53
640.98	39482.50
641.13	39744.64
641.27	39770.38
641.42	39510.58
641.57	39585.48
641.72	39695.49
641.86	39182.91
642.01	39075.24
642.16	39063.54
642.31	38993.32
642.45	39494.20
642.60	38993.32
642.75	39112.69
642.90	39360.79
643.04	39337.38
643.19	39063.54
643.34	39627.61
643.48	39131.42
643.63	38557.99
643.78	38829.49
643.93	39194.61
644.07	39213.34
644.22	39246.10
644.37	38871.62
644.51	38927.79
644.66	38801.40
644.81	39288.23
644.95	39124.40
645.10	39145.46
645.25	39175.89
645.39	39086.95
645.54	39505.90
645.69	38813.10
645.83	39171.21
645.98	38829.49
646.13	38595.43
646.27	39023.75
646.42	38653.95
646.57	38876.30
646.71	38855.23
646.86	38895.02
647.00	39145.46
647.15	38646.93
647.30	38534.58
647.44	38274.78
647.59	38749.91
647.74	38635.22
647.88	38337.98
648.03	38696.08
648.17	38529.90
648.32	38457.34
648.47	38106.26
648.61	38377.76
648.76	38700.76
648.90	38426.92
649.05	38609.48
649.20	38525.22
649.34	38401.17
649.49	38433.94
649.63	38333.29
649.78	38515.86
649.92	38029.02
650.07	38618.84
650.21	38096.90
650.36	37816.04
650.51	38176.48
650.65	38213.93
650.80	38483.09
650.94	38707.78
651.09	38288.82
651.23	37851.14
651.38	37998.60
651.52	37867.53
651.67	37944.76
651.81	37794.97
651.96	37287.07
652.10	37823.06
652.25	37603.05
652.39	37462.61
652.54	37394.74
652.68	38038.39
652.83	37748.16
652.97	37935.40
653.12	37638.15
653.26	37483.68
653.41	37832.42
653.55	37827.74
653.70	37333.89
653.84	37874.55
653.99	37647.52
654.13	37663.90
654.27	37315.16
654.42	37741.14
654.56	37420.48
654.71	37053.02
654.85	37425.17
655.00	37240.26
655.14	36802.58
655.29	37097.49
655.43	37408.78
655.57	37207.50
655.72	36802.58
655.86	37046.00
656.01	37111.53
656.15	36767.48
656.30	37153.66
656.44	37134.94
656.58	36460.87
656.73	36683.22
656.87	37048.34
657.01	36636.41
657.16	36898.55
657.30	36414.05
657.45	36673.85
657.59	36568.53
657.73	36287.67
657.88	36582.57
658.02	36762.79
658.16	36891.52
658.31	36762.79
658.45	36659.81
658.60	36596.62
658.74	36760.45
658.88	36767.48
659.03	36168.30
659.17	36261.92
659.31	36364.90
659.46	36320.43
659.60	36416.40
659.74	36151.91
659.89	35786.79
660.03	36306.39
660.17	36275.96
660.32	36053.61
660.46	36140.21
660.60	36411.71
660.74	36212.77
660.89	36292.35
661.03	35798.49
661.17	35564.44
661.32	35704.87
661.46	35922.54
661.60	35501.25
661.74	35440.39
661.89	35175.91
662.03	36044.25
662.17	35482.52
662.31	35309.32
662.46	35243.79
662.60	35299.96
662.74	35381.88
662.88	35576.14
663.03	35306.98
663.17	35400.60
663.31	35227.40
663.45	35065.91
663.60	35391.24
663.74	35096.33
663.88	34871.64
664.02	35140.80
664.17	35012.07
664.31	34426.94
664.45	35049.52
664.59	34623.54
664.73	34923.13
664.88	34572.05
665.02	34410.56
665.16	34288.85
665.30	34658.65
665.44	34550.99
665.59	34616.52
665.73	34120.33
665.87	34075.86
666.01	33937.77
666.15	34146.08
666.29	34085.22
666.44	34609.50
666.58	34000.96
666.72	33979.90
666.86	34120.33
667.00	34136.71
667.14	34089.90
667.28	33972.88
667.43	33607.75
667.57	33640.52
667.71	33516.47
667.85	33612.43
667.99	33919.04
668.13	33249.65
668.27	33275.40
668.41	33202.84
668.56	32940.70
668.70	33521.15
668.84	33324.55
668.98	33364.34
669.12	32987.51
669.26	33200.50
669.40	33275.40
669.54	33113.90
669.68	32905.59
669.82	33088.15
669.96	32435.14
670.10	32446.85
670.25	32687.92
670.39	32898.57
670.53	32245.56
670.67	32187.05
670.81	32381.31
670.95	32694.94
671.09	32573.24
671.23	32346.20
671.37	32472.59
671.51	32128.53
671.65	32067.68
671.79	31957.67
671.93	31850.01
672.07	32297.05
672.21	31955.33
672.35	31945.97
672.49	31782.13
672.63	31971.72
672.77	31578.51
672.91	31597.23
673.05	31461.48
673.19	31372.54
673.33	30988.69
673.47	30918.48
673.61	31241.47
673.75	31079.97
673.89	31187.64
674.03	30555.69
674.17	30541.65
674.31	30923.16
674.45	30850.60
674.59	31084.65
674.73	30813.15
674.87	31077.63
675.01	30824.86
675.15	30717.19
675.29	30827.20
675.43	30394.20
675.56	30553.35
675.70	30359.09
675.84	30307.60
675.98	29408.83
676.12	29963.54
676.26	30125.04
676.40	29837.15
676.54	29785.66
676.68	29642.88
676.82	29312.87
676.96	29551.60
677.10	29282.44
677.23	29177.12
677.37	29252.02
677.51	29385.43
677.65	29113.92
677.79	28760.50
677.93	28987.53
678.07	28496.02
678.21	28484.32
678.34	28568.58
678.48	28680.92
678.62	28390.70
678.76	28723.05
678.90	28294.74
679.04	28194.09
679.18	28166.01
679.31	27833.65
679.45	27665.13
679.59	27576.19
679.73	27665.13
679.87	27974.08
680.00	27737.69
680.14	27683.86
680.28	27414.69
680.42	27243.84
680.56	27239.15
680.70	27459.16
680.83	27115.11
680.97	26881.05
681.11	27023.83
681.25	26827.22
681.39	26745.30
681.52	26700.83
681.66	26785.09
681.80	26663.38
681.94	26518.27
682.07	26525.29
682.21	26391.88
682.35	26342.73
682.49	26139.10
682.62	26064.21
682.76	26054.84
682.90	25963.56
683.04	25752.91
683.17	26157.83
683.31	25605.46
683.45	25926.11
683.59	25635.89
683.72	25266.08
683.86	24961.81
684.00	25099.90
684.13	25207.57
684.27	25099.90
684.41	25130.33
684.55	25029.69
684.68	24919.68
684.82	24577.97
684.96	24907.98
685.09	24521.79
685.23	24528.81
685.37	24474.98
685.50	24196.46
685.64	24467.96
685.78	23967.09
685.91	24100.50
686.05	24049.00
686.19	23730.69
686.32	23665.16
686.46	23800.91
686.60	23543.45
686.73	23697.92
686.87	23548.13
687.01	23164.28
687.14	23145.56
687.28	22750.01
687.42	22911.50
687.55	22754.69
687.69	22960.66
687.82	23005.13
687.96	22787.46
688.10	22427.01
688.23	22623.62
688.37	22265.52
688.50	22148.49
688.64	22239.77
688.78	22080.61
688.91	22192.96
689.05	22235.09
689.18	21724.85
689.32	21722.51
689.46	21951.88
689.59	21736.56
689.73	22169.55
689.86	21675.70
690.00	21792.73
690.13	21825.50
690.27	21432.29
690.41	21458.03
690.54	21146.74
690.68	21324.62
690.81	21130.36
690.95	20673.95
691.08	20596.71
691.22	20636.50
691.35	20500.75
691.49	20577.99
691.62	20900.98
691.76	20570.97
691.89	20570.97
692.03	20786.30
692.16	20194.14
692.30	20208.19
692.43	20056.05
692.57	20053.71
692.70	20013.92
692.84	19707.31
692.97	19819.66
693.11	19737.74
693.24	19550.49
693.38	19630.07
693.51	19639.44
693.65	19826.68
693.78	19538.79
693.92	19424.11
694.05	19410.06
694.19	18916.21
694.32	19150.26
694.45	19166.65
694.59	19164.31
694.72	18654.07
694.86	18848.33
694.99	18504.28
695.13	18754.71
695.26	18717.26
695.39	18272.56
695.53	18281.92
695.66	18277.24
695.80	18300.65
695.93	18256.18
696.07	17877.01
696.20	18209.37
696.33	17942.55
696.47	17811.48
696.60	17848.93
696.73	17809.14
696.87	17490.82
697.00	17664.02
697.14	17582.10
697.27	17626.57
697.40	17425.29
697.54	17647.64
697.67	17296.56
697.80	17275.49
697.94	17144.42
698.07	16938.46
698.21	17001.65
698.34	17015.69
698.47	17081.23
698.61	16765.26
698.74	17088.25
698.87	16666.95
699.01	16643.55
699.14	16414.18
699.27	16175.44
699.40	16360.34
699.54	15999.90
699.67	16114.59
699.80	15934.37
699.94	16170.76
700.07	16002.24
700.20	15737.76
700.34	15445.20
700.47	16025.65
700.60	15854.79
700.73	15690.95
700.87	15693.29
701.00	15515.41
701.13	15442.85
701.26	15517.75
701.40	15534.14
701.53	15040.28
701.66	15220.50
701.79	15042.62
701.93	15250.93
702.06	14956.02
702.19	14775.80
702.32	15110.50
702.46	14848.36
702.59	14602.60
702.72	14745.38
702.85	14614.30
702.99	14406.00
703.12	14595.58
703.25	14558.13
703.38	14434.08
703.51	14225.78
703.65	14045.55
703.78	14349.82
703.91	14197.69
704.04	14174.28
704.17	14143.86
704.31	13734.26
704.44	13748.31
704.57	13689.79
704.70	13507.23
704.83	13706.18
704.96	13635.96
705.10	13666.39
705.23	13661.71
>>>>>End Processed Spectral Data<<<<<
