SpectraSuite Data File
++++++++++++++++++++++++++++++++++++
Date: Fri Oct 25 10:48:01 EDT 2013
User: price-jones
Dark Spectrum Present: No
Reference Spectrum Present: No
Number of Sampled Component Spectra: 1
Spectrometers: USB2+H05261
Integration Time (usec): 100000 (USB2+H05261)
Spectra Averaged: 1 (USB2+H05261)
Boxcar Smoothing: 0 (USB2+H05261)
Correct for Electrical Dark: No (USB2+H05261)
Strobe/Lamp Enabled: No (USB2+H05261)
Correct for Detector Non-linearity: No (USB2+H05261)
Correct for Stray Light: No (USB2+H05261)
Number of Pixels in Processed Spectrum: 2048
>>>>>Begin Processed Spectral Data<<<<<
365.73	152.13
365.92	152.13
366.12	152.13
366.32	84.26
366.52	74.90
366.72	91.28
366.91	0.00
367.11	42.13
367.31	112.35
367.51	37.45
367.70	0.00
367.90	117.03
368.10	72.56
368.30	58.51
368.49	124.05
368.69	72.56
368.89	117.03
369.09	81.92
369.28	102.98
369.48	98.30
369.68	60.85
369.87	74.90
370.07	37.45
370.27	154.48
370.47	152.13
370.66	355.76
370.86	421.30
371.06	531.30
371.25	454.06
371.45	428.32
371.65	416.62
371.84	451.72
372.04	447.04
372.24	484.49
372.44	512.58
372.63	491.51
372.83	456.40
373.03	561.73
373.22	538.32
373.42	479.81
373.62	566.41
373.81	545.34
374.01	489.17
374.21	571.09
374.40	517.26
374.60	573.43
374.79	636.63
374.99	561.73
375.19	568.75
375.38	526.62
375.58	568.75
375.78	550.03
375.97	580.45
376.17	585.13
376.37	561.73
376.56	594.50
376.76	615.56
376.95	601.52
377.15	622.58
377.35	702.16
377.54	643.65
377.74	641.31
377.93	554.71
378.13	615.56
378.33	603.86
378.52	601.52
378.72	606.20
378.91	664.71
379.11	631.94
379.31	575.77
379.50	578.11
379.70	615.56
379.89	636.63
380.09	613.22
380.28	601.52
380.48	596.84
380.68	610.88
380.87	685.78
381.07	674.07
381.26	650.67
381.46	676.41
381.65	683.44
381.85	690.46
382.04	718.54
382.24	711.52
382.43	697.48
382.63	695.14
382.83	641.31
383.02	753.65
383.22	706.84
383.41	683.44
383.61	692.80
383.80	713.86
384.00	746.63
384.19	709.18
384.39	732.59
384.58	711.52
384.78	709.18
384.97	739.61
385.17	807.48
385.36	737.27
385.56	753.65
385.75	765.36
385.95	755.99
386.14	753.65
386.34	678.76
386.53	816.85
386.72	793.44
386.92	800.46
387.11	755.99
387.31	842.59
387.50	718.54
387.70	802.80
387.89	786.42
388.09	809.83
388.28	809.83
388.48	753.65
388.67	793.44
388.86	830.89
389.06	908.13
389.25	851.96
389.45	908.13
389.64	868.34
389.84	835.57
390.03	943.24
390.22	922.17
390.42	950.26
390.61	936.21
390.81	912.81
391.00	933.87
391.19	978.34
391.39	910.47
391.58	919.83
391.78	863.66
391.97	940.90
392.16	968.98
392.36	994.73
392.55	924.51
392.75	1006.43
392.94	983.02
393.13	1011.11
393.33	987.71
393.52	1067.28
393.71	1116.44
393.91	1046.22
394.10	1062.60
394.29	1006.43
394.49	1004.09
394.68	1074.31
394.88	1062.60
395.07	1100.05
395.26	1123.46
395.46	1004.09
395.65	1224.10
395.84	1100.05
396.04	1193.67
396.23	1151.54
396.42	1083.67
396.62	1104.73
396.81	1130.48
397.00	1116.44
397.19	1123.46
397.39	1205.38
397.58	1249.85
397.77	1245.16
397.97	1144.52
398.16	1200.69
398.35	1313.04
398.55	1212.40
398.74	1240.48
398.93	1306.02
399.12	1301.34
399.32	1240.48
399.51	1238.14
399.70	1383.26
399.90	1280.27
400.09	1310.70
400.28	1432.41
400.47	1359.85
400.67	1437.09
400.86	1413.68
401.05	1476.88
401.24	1423.05
401.44	1418.36
401.63	1451.13
401.82	1547.09
402.01	1500.28
402.21	1561.14
402.40	1483.90
402.59	1495.60
402.78	1521.35
402.97	1502.62
403.17	1462.83
403.36	1600.93
403.55	1533.05
403.74	1657.10
403.93	1654.76
404.13	1624.33
404.32	1750.72
404.51	1610.29
404.70	1685.19
404.89	1607.95
405.09	1764.76
405.28	1732.00
405.47	1694.55
405.66	1724.97
405.85	1671.14
406.05	1621.99
406.24	1769.44
406.43	1764.76
406.62	1816.26
406.81	1921.58
407.00	1811.57
407.20	1806.89
407.39	1856.04
407.58	1856.04
407.77	1842.00
407.96	1973.07
408.15	1966.05
408.34	1959.03
408.54	1937.96
408.73	1977.75
408.92	1933.28
409.11	2022.22
409.30	1886.47
409.49	2078.40
409.68	1940.30
409.87	2033.93
410.07	2059.67
410.26	2139.25
410.45	2153.29
410.64	2181.38
410.83	2097.12
411.02	2139.25
411.21	2204.78
411.40	2134.57
411.59	2303.09
411.78	2321.81
411.98	2270.32
412.17	2359.26
412.36	2314.79
412.55	2314.79
412.74	2340.54
412.93	2445.86
413.12	2345.22
413.31	2443.52
413.50	2408.41
413.69	2490.33
413.88	2565.23
414.07	2586.29
414.26	2448.20
414.45	2567.57
414.64	2565.23
414.83	2616.72
415.02	2614.38
415.22	2656.51
415.41	2675.23
415.60	2775.88
415.79	2621.40
415.98	2813.32
416.17	2766.51
416.36	2750.13
416.55	2736.09
416.74	2825.03
416.93	2782.90
417.12	2869.50
417.31	2953.76
417.50	2904.60
417.69	3091.85
417.88	3002.91
418.07	2885.88
418.26	3059.08
418.45	2963.12
418.64	3126.96
418.83	3183.13
419.02	3108.23
419.21	3293.13
419.39	3204.19
419.58	3084.83
419.77	3283.77
419.96	3150.36
420.15	3229.94
420.34	3300.16
420.53	3258.03
420.72	3297.81
420.91	3293.13
421.10	3307.18
421.29	3370.37
421.48	3236.96
421.67	3454.63
421.86	3335.26
422.05	3379.73
422.24	3255.69
422.43	3412.50
422.61	3424.20
422.80	3290.79
422.99	3379.73
423.18	3445.27
423.37	3428.88
423.56	3473.36
423.75	3431.23
423.94	3456.97
424.13	3131.64
424.32	3424.20
424.50	3482.72
424.69	3590.38
424.88	3454.63
425.07	3501.44
425.26	3396.12
425.45	3407.82
425.64	3548.25
425.83	3571.66
426.01	3623.15
426.20	3513.14
426.39	3527.19
426.58	3548.25
426.77	3485.06
426.96	3515.48
427.15	3576.34
427.33	3604.42
427.52	3576.34
427.71	3557.61
427.90	3705.07
428.09	3637.19
428.28	3880.61
428.46	3684.00
428.65	3501.44
428.84	3794.01
429.03	3808.05
429.22	3728.47
429.40	3723.79
429.59	3850.18
429.78	3639.53
429.97	3405.48
430.16	3791.67
430.34	3803.37
430.53	3859.54
430.72	3866.56
430.91	3873.59
431.10	3840.82
431.28	4021.04
431.47	4128.70
431.66	4081.89
431.85	3999.98
432.03	4039.76
432.22	4182.54
432.41	4203.60
432.60	4121.68
432.79	4208.28
432.97	4372.12
433.16	4227.01
433.35	4217.65
433.54	4133.39
433.72	4292.54
433.91	4243.39
434.10	4224.67
434.28	4180.20
434.47	4395.53
434.66	4388.50
434.85	4432.97
435.03	4348.72
435.22	4339.35
435.41	4571.07
435.59	4411.91
435.78	4425.95
435.97	4440.00
436.16	4486.81
436.34	4477.44
436.53	4681.07
436.72	4561.70
436.90	4528.94
437.09	4636.60
437.28	4620.22
437.46	4587.45
437.65	4507.87
437.84	4629.58
438.02	4606.17
438.21	4587.45
438.40	4482.13
438.58	4863.63
438.77	4720.86
438.96	4737.24
439.14	4898.74
439.33	4987.68
439.52	5210.03
439.70	4975.98
439.89	5203.01
440.08	5057.90
440.26	5163.22
440.45	5041.51
440.63	5027.47
440.82	5284.93
441.01	5174.92
441.19	5224.08
441.38	5343.44
441.57	5455.79
441.75	5458.13
441.94	5526.00
442.12	5619.63
442.31	5701.54
442.50	5603.24
442.68	5472.17
442.87	5558.77
443.05	5701.54
443.24	5668.78
443.43	5645.37
443.61	5696.86
443.80	5891.13
443.98	5535.37
444.17	5444.09
444.35	5668.78
444.54	5650.05
444.73	5727.29
444.91	5841.98
445.10	5708.57
445.28	5692.18
445.47	5757.72
445.65	5682.82
445.84	5792.83
446.02	5741.33
446.21	5982.41
446.39	5909.85
446.58	5933.26
446.77	5944.96
446.95	5680.48
447.14	5671.12
447.32	6043.26
447.51	5926.24
447.69	5905.17
447.88	6078.37
448.06	5959.00
448.25	5905.17
448.43	5928.58
448.62	5902.83
448.80	5970.71
448.99	5928.58
449.17	6005.81
449.36	5984.75
449.54	5994.11
449.73	6143.91
449.91	6256.25
450.10	6221.14
450.28	6216.46
450.46	6317.11
450.65	6373.28
450.83	6237.53
451.02	6368.60
451.20	6342.85
451.39	6338.17
451.57	6382.64
451.76	6242.21
451.94	6445.84
452.13	6422.43
452.31	6572.22
452.49	6190.72
452.68	6368.60
452.86	6321.79
453.05	6597.97
453.23	6462.22
453.42	6293.70
453.60	6546.48
453.78	6654.14
453.97	6518.39
454.15	6537.12
454.34	6539.46
454.52	6562.86
454.70	6654.14
454.89	6604.99
455.07	6923.30
455.26	6696.27
455.44	6918.62
455.62	6939.69
455.81	6846.07
455.99	6832.02
456.17	6815.64
456.36	6949.05
456.54	7061.40
456.73	7012.24
456.91	6944.37
457.09	7035.65
457.28	7166.72
457.46	7215.87
457.64	7143.32
457.83	7267.36
458.01	6876.49
458.19	7258.00
458.38	7225.23
458.56	7372.69
458.74	7281.41
458.93	7197.15
459.11	7227.57
459.29	7403.11
459.48	7412.48
459.66	7548.23
459.84	7372.69
460.03	7527.16
460.21	7426.52
460.39	7508.44
460.57	7555.25
460.76	7478.01
460.94	7513.12
461.12	7421.84
461.31	7417.16
461.49	7573.97
461.67	7470.99
461.85	7805.69
462.04	7602.06
462.22	8114.64
462.40	7964.84
462.59	7962.50
462.77	7894.63
462.95	7889.95
463.13	7691.00
463.32	7857.18
463.50	7871.22
463.68	7950.80
463.86	7899.31
464.05	7889.95
464.23	7962.50
464.41	8084.21
464.59	8023.36
464.78	8049.10
464.96	8248.05
465.14	8147.40
465.32	8236.35
465.50	8131.02
465.69	8306.56
465.87	8276.13
466.05	8294.86
466.23	8367.42
466.41	8072.51
466.60	8545.30
466.78	8278.47
466.96	8306.56
467.14	8234.00
467.32	8454.02
467.51	8421.25
467.69	8226.98
467.87	8404.86
468.05	8472.74
468.23	8341.67
468.41	8182.51
468.60	8482.10
468.78	8568.70
468.96	8568.70
469.14	8638.92
469.32	8699.77
469.50	8690.41
469.69	8596.79
469.87	8865.95
470.05	8720.84
470.23	8695.09
470.41	8706.79
470.59	8959.57
470.77	8760.63
470.95	8805.10
471.14	8957.23
471.32	8858.93
471.50	9142.13
471.68	9097.66
471.86	9191.28
472.04	9191.28
472.22	9362.14
472.40	9163.20
472.58	9317.67
472.77	9247.46
472.95	9413.63
473.13	9762.37
473.31	9444.06
473.49	9486.19
473.67	9509.60
473.85	9406.61
474.03	9844.29
474.21	9804.50
474.39	9846.63
474.57	9685.14
474.75	10104.09
474.93	9820.89
475.12	10003.45
475.30	10164.95
475.48	10052.60
475.66	10235.16
475.84	10047.92
476.02	10249.21
476.20	10251.55
476.38	10361.55
476.56	10710.29
476.74	10752.42
476.92	10623.69
477.10	10567.52
477.28	10984.13
477.46	10923.28
477.64	11054.35
477.82	10939.66
478.00	11054.35
478.18	11159.67
478.36	11286.06
478.54	11342.24
478.72	11426.50
478.90	11529.48
479.08	11597.35
479.26	11772.89
479.44	11686.29
479.62	11962.48
479.80	11906.31
479.98	11758.85
480.16	12161.42
480.34	11990.56
480.52	12180.15
480.70	12149.72
480.88	12126.32
481.06	12343.99
481.24	12161.42
481.41	12889.33
481.59	12877.63
481.77	13067.21
481.95	12973.59
482.13	12753.58
482.31	13078.91
482.49	13437.02
482.67	13418.29
482.85	13586.81
483.03	13348.08
483.21	13528.30
483.39	13841.93
483.57	13813.84
483.74	13893.42
483.92	14038.53
484.10	14190.67
484.28	14272.59
484.46	14501.96
484.64	14520.68
484.82	14195.35
485.00	14576.86
485.18	14843.68
485.35	15023.90
485.53	14733.67
485.71	14846.02
485.89	15119.86
486.07	15126.88
486.25	15218.16
486.43	15243.91
486.61	15344.55
486.78	15761.17
486.96	16009.26
487.14	16140.33
487.32	16030.33
487.50	16149.70
487.68	16472.69
487.85	16472.69
488.03	16989.95
488.21	16886.97
488.39	16823.77
488.57	17069.53
488.75	17109.32
488.92	17453.37
489.10	17216.98
489.28	17378.48
489.46	17954.25
489.64	17507.21
489.81	18148.51
489.99	18345.12
490.17	18291.29
490.35	17961.27
490.53	18370.86
490.70	18937.27
490.88	18504.28
491.06	18693.86
491.24	18637.69
491.41	19002.81
491.59	19058.98
491.77	18764.07
491.95	19150.26
492.13	19419.42
492.30	19400.70
492.48	19463.90
492.66	19719.01
492.84	19880.51
493.01	19609.01
493.19	19702.63
493.37	19999.88
493.54	20152.01
493.72	20421.17
493.90	20493.73
494.08	20458.62
494.25	20950.14
494.43	21177.17
494.61	21223.98
494.79	20936.09
494.96	21181.85
495.14	21436.97
495.32	21568.04
495.49	21687.40
495.67	21301.22
495.85	21717.83
496.02	21797.41
496.20	22174.24
496.38	22157.85
496.55	22169.55
496.73	22501.91
496.91	22239.77
497.09	22565.10
497.26	22937.25
497.44	22733.62
497.62	22768.73
497.79	23119.81
497.97	23030.87
498.14	23023.85
498.32	23335.14
498.50	23250.88
498.67	23957.72
498.85	23791.55
499.03	23688.56
499.20	23667.50
499.38	23988.15
499.56	24034.96
499.73	23976.45
499.91	24526.47
500.08	24332.21
500.26	24114.54
500.44	24187.10
500.61	24416.47
500.79	24430.51
500.97	24648.18
501.14	25104.59
501.32	24856.49
501.49	25029.69
501.67	24877.55
501.84	25205.23
502.02	24936.07
502.20	25560.99
502.37	25528.22
502.55	25551.63
502.72	25436.94
502.90	25586.74
503.07	25312.89
503.25	25612.48
503.43	25647.59
503.60	25736.53
503.78	26040.80
503.95	25762.28
504.13	26099.31
504.30	26132.08
504.48	26162.51
504.65	26218.68
504.83	26820.20
505.01	26663.38
505.18	26445.71
505.36	27005.10
505.53	27178.30
505.71	26845.94
505.88	26740.62
506.06	26787.43
506.23	27225.11
506.41	26726.58
506.58	27339.80
506.76	27246.18
506.93	27475.55
507.11	27843.01
507.28	27644.07
507.46	27459.16
507.63	27761.09
507.81	28048.98
507.98	27592.58
508.16	28086.43
508.33	28098.13
508.50	28304.10
508.68	28486.66
508.85	27913.23
509.03	28575.60
509.20	28222.18
509.38	28741.78
509.55	28720.71
509.73	29013.28
509.90	28849.44
510.08	28840.08
510.25	28905.62
510.42	29469.69
510.60	29490.75
510.77	28856.46
510.95	29305.85
511.12	28891.57
511.30	29502.45
511.47	29764.59
511.64	30005.67
511.82	30103.97
511.99	29209.89
512.17	30122.69
512.34	29565.65
512.51	29933.11
512.69	30047.80
512.86	30426.96
513.04	30263.13
513.21	30438.67
513.38	30412.92
513.56	30499.52
513.73	30265.47
513.90	30478.46
514.08	30565.06
514.25	30560.37
514.43	30560.37
514.60	30848.26
514.77	30497.18
514.95	30998.06
515.12	31115.08
515.29	31791.50
515.47	31393.61
515.64	31295.30
515.81	31215.72
515.99	31592.55
516.16	31784.48
516.33	31688.51
516.51	31517.65
516.68	31173.60
516.85	31431.05
517.03	31356.16
517.20	31751.71
517.37	31482.55
517.54	32222.16
517.72	32046.62
517.89	32011.51
518.06	31882.78
518.24	32048.96
518.41	31667.45
518.58	32390.67
518.75	32393.01
518.93	32479.61
519.10	32170.66
519.27	32428.12
519.45	32484.30
519.62	32961.76
519.79	32926.66
519.96	32638.77
520.14	33099.86
520.31	32914.95
520.48	33364.34
520.65	33003.89
520.83	33628.82
521.00	33553.92
521.17	33380.72
521.34	33149.01
521.52	33369.02
521.69	33923.72
521.86	34223.31
522.03	34071.18
522.20	33668.61
522.38	34134.37
522.55	34277.15
522.72	33832.44
522.89	34019.69
523.07	34235.02
523.24	33923.72
523.41	33802.02
523.58	34272.46
523.75	34885.68
523.92	34384.81
524.10	34415.24
524.27	34658.65
524.44	34670.36
524.61	34806.11
524.78	34897.39
524.96	34965.26
525.13	35243.79
525.30	35093.99
525.47	35323.36
525.64	35082.29
525.81	35339.75
525.98	35365.49
526.16	34923.13
526.33	34951.22
526.50	34941.86
526.67	35281.24
526.84	35194.64
527.01	35414.65
527.18	35377.20
527.36	35515.29
527.53	35861.69
527.70	35370.18
527.87	35412.31
528.04	35674.45
528.21	35702.53
528.38	35992.76
528.55	36030.21
528.72	36058.29
528.89	35971.69
529.07	35913.18
529.24	36091.06
529.41	36065.31
529.58	36079.36
529.75	35917.86
529.92	36435.12
530.09	36198.73
530.26	37013.23
530.43	37090.47
530.60	36231.49
530.77	36552.15
530.94	37017.91
531.11	36858.76
531.28	36987.49
531.46	37038.98
531.63	36919.61
531.80	36741.73
531.97	37043.66
532.14	37305.80
532.31	36966.42
532.48	37205.16
532.65	37483.68
532.82	37120.90
532.99	37439.21
533.16	37024.93
533.33	37598.37
533.50	37837.10
533.67	37703.69
533.84	37322.18
534.01	37652.20
534.18	38040.73
534.35	37944.76
534.52	37509.43
534.69	37916.68
534.86	37736.46
535.03	37495.38
535.20	38085.20
535.37	38190.52
535.54	38211.59
535.71	37792.63
535.88	37951.79
536.05	38555.64
536.22	38124.99
536.38	38405.85
536.55	38012.64
536.72	37947.11
536.89	38258.40
537.06	38014.98
537.23	38050.09
537.40	38408.19
537.57	38536.92
537.74	38686.71
537.91	38778.00
538.08	38611.82
538.25	38778.00
538.42	38424.57
538.59	38848.21
538.75	38597.77
538.92	38855.23
539.09	38700.76
539.26	38660.97
539.43	38864.60
539.60	38831.83
539.77	39009.71
539.94	39145.46
540.11	39115.03
540.28	38899.70
540.44	39054.18
540.61	39239.08
540.78	39225.04
540.95	39140.78
541.12	39288.23
541.29	39381.85
541.46	39306.96
541.62	39379.51
541.79	39807.83
541.96	39459.09
542.13	39578.46
542.30	39812.51
542.47	39641.65
542.63	39569.10
542.80	39875.71
542.97	40030.18
543.14	40453.82
543.31	40329.77
543.48	40229.13
543.64	40708.94
543.81	40561.48
543.98	40374.24
544.15	40580.21
544.32	40091.04
544.48	40664.47
544.65	40217.43
544.82	40912.56
544.99	40170.61
545.16	40369.56
545.32	40252.53
545.49	40797.88
545.66	41064.70
545.83	41177.04
546.00	41322.16
546.16	40664.47
546.33	40765.11
546.50	40383.60
546.67	41254.28
546.83	40542.76
547.00	40465.52
547.17	40722.98
547.34	40392.97
547.50	41193.43
547.67	41315.14
547.84	41233.22
548.00	41130.23
548.17	41198.11
548.34	40954.69
548.51	41359.61
548.67	41319.82
548.84	41584.30
549.01	41022.57
549.18	41134.92
549.34	41265.99
549.51	41397.06
549.68	41701.32
549.84	41511.74
550.01	41738.77
550.18	41764.52
550.34	41415.78
550.51	41600.68
550.68	41429.82
550.84	41083.42
551.01	41617.07
551.18	41930.70
551.34	41853.46
551.51	41827.71
551.68	42148.37
551.84	42080.49
552.01	41975.17
552.18	41715.37
552.34	42007.94
552.51	42036.02
552.68	41890.91
552.84	42213.90
553.01	42642.22
553.18	42553.28
553.34	42330.93
553.51	42249.01
553.67	42471.36
553.84	42012.62
554.01	42302.84
554.17	42096.88
554.34	42555.62
554.51	42614.13
554.67	42822.44
554.84	42677.33
555.00	41979.85
555.17	42155.39
555.33	42866.91
555.50	42270.08
555.67	42483.06
555.83	42850.53
556.00	42574.34
556.16	43325.66
556.33	42714.78
556.50	42560.30
556.66	42609.45
556.83	42593.07
556.99	42834.14
557.16	42602.43
557.32	42611.79
557.49	42731.16
557.65	42944.15
557.82	42873.93
557.98	43318.64
558.15	42988.62
558.32	42955.85
558.48	42829.46
558.65	43299.91
558.81	43103.31
558.98	43079.90
559.14	43304.59
559.31	42738.18
559.47	43430.98
559.64	43636.95
559.80	43840.57
559.97	43442.68
560.13	42871.59
560.30	43166.50
560.46	42857.55
560.63	42852.87
560.79	43550.35
560.96	43608.86
561.12	43398.21
561.29	43313.95
561.45	43423.96
561.61	43381.83
561.78	43695.46
561.94	43297.57
562.11	43295.23
562.27	43498.86
562.44	43297.57
562.60	43700.14
562.77	43866.32
562.93	43531.62
563.10	43704.82
563.26	43213.31
563.42	43304.59
563.59	43342.04
563.75	43325.66
563.92	43941.22
564.08	43615.88
564.24	43693.12
564.41	43985.69
564.57	43910.79
564.74	43611.20
564.90	43955.26
565.07	44102.71
565.23	43676.74
565.39	43775.04
565.56	44292.30
565.72	43690.78
565.88	43791.42
566.05	44182.29
566.21	43779.72
566.38	43622.90
566.54	43515.24
566.70	44404.64
566.87	44282.94
567.03	44002.07
567.19	44013.77
567.36	43988.03
567.52	43945.90
567.68	43945.90
567.85	43526.94
568.01	44250.17
568.17	44048.88
568.34	43981.01
568.50	43964.62
568.66	43744.61
568.83	43826.53
568.99	43639.29
569.15	44100.37
569.32	43927.17
569.48	43906.11
569.64	44086.33
569.81	43962.28
569.97	43742.27
570.13	44325.07
570.30	43941.22
570.46	43725.89
570.62	43454.39
570.78	43686.10
570.95	44032.50
571.11	44432.73
571.27	43824.19
571.43	43796.10
571.60	44266.55
571.76	43636.95
571.92	44095.69
572.09	44168.25
572.25	44170.59
572.41	44215.06
572.57	44388.26
572.74	44772.11
572.90	44414.01
573.06	44165.91
573.22	44463.16
573.38	44182.29
573.55	44126.12
573.71	44114.42
573.87	44126.12
574.03	44135.48
574.20	44165.91
574.36	44011.43
574.52	44477.20
574.68	44044.20
574.84	44402.30
575.01	44636.36
575.17	44318.04
575.33	44329.75
575.49	43983.35
575.65	44336.77
575.82	44488.90
575.98	44334.43
576.14	44402.30
576.30	44509.97
576.46	44240.81
576.62	44039.52
576.79	44105.06
576.95	43852.28
577.11	44320.38
577.27	44638.70
577.43	44383.58
577.59	44247.83
577.75	44332.09
577.92	44067.61
578.08	44025.48
578.24	43896.75
578.40	43824.19
578.56	44222.08
578.72	44161.23
578.88	44547.42
579.04	44711.25
579.21	44046.54
579.37	44072.29
579.53	44390.60
579.69	44201.02
579.85	44671.46
580.01	44226.76
580.17	44449.11
580.33	44765.09
580.49	44481.88
580.65	44851.69
580.82	44179.95
580.98	44100.37
581.14	44109.74
581.30	44898.50
581.46	43814.83
581.62	44762.75
581.78	44332.09
581.94	44641.04
582.10	44519.33
582.26	44638.70
582.42	44521.67
582.58	44711.25
582.74	43962.28
582.90	44781.47
583.06	44715.93
583.22	44783.81
583.38	44737.00
583.54	44793.17
583.70	44699.55
583.86	44641.04
584.02	44444.43
584.18	44481.88
584.34	44596.57
584.50	44744.02
584.66	44844.66
584.82	44322.72
584.98	44940.63
585.14	44729.98
585.30	44332.09
585.46	44299.32
585.62	44439.75
585.78	44257.19
585.94	43959.94
586.10	44369.54
586.26	44432.73
586.42	44292.30
586.58	44514.65
586.74	44680.83
586.90	44116.76
587.06	44449.11
587.22	44500.61
587.38	44477.20
587.54	44837.64
587.70	44509.97
587.86	44315.70
588.02	44671.46
588.18	44652.74
588.34	44964.03
588.49	44446.77
588.65	43842.92
588.81	44404.64
588.97	44430.39
589.13	44121.44
589.29	44856.37
589.45	44900.84
589.61	44776.79
589.77	44882.11
589.93	44474.86
590.08	45001.48
590.24	44900.84
590.40	44844.66
590.56	45006.16
590.72	45027.23
590.88	45020.20
591.04	44729.98
591.20	45015.52
591.35	44411.67
591.51	45338.52
591.67	44676.15
591.83	44954.67
591.99	44921.90
592.15	44556.78
592.31	44488.90
592.46	44715.93
592.62	44811.90
592.78	44884.45
592.94	44811.90
593.10	44648.06
593.26	44938.29
593.41	44781.47
593.57	44612.95
593.73	44643.38
593.89	45277.66
594.05	44870.41
594.20	44664.44
594.36	44903.18
594.52	45069.36
594.68	44769.77
594.84	45251.92
594.99	45179.36
595.15	44945.31
595.31	45179.36
595.47	44769.77
595.62	44554.44
595.78	45123.19
595.94	45177.02
596.10	44828.28
596.25	45081.06
596.41	45219.15
596.57	45160.64
596.73	45408.73
596.88	44889.13
597.04	44706.57
597.20	44821.26
597.36	44715.93
597.51	44863.39
597.67	44800.19
597.83	44942.97
597.99	45059.99
598.14	45076.38
598.30	44718.28
598.46	45148.93
598.61	44542.74
598.77	44825.94
598.93	44940.63
599.09	44814.24
599.24	45380.65
599.40	45102.12
599.56	45118.51
599.71	44898.50
599.87	45471.93
600.03	45240.21
600.18	45048.29
600.34	45059.99
600.50	44807.22
600.65	45071.70
600.81	45483.63
600.97	45282.34
601.12	45282.34
601.28	44975.73
601.44	45254.26
601.59	45170.00
601.75	44615.29
601.91	44800.19
602.06	45153.62
602.22	45153.62
602.37	44687.85
602.53	45324.47
602.69	45523.42
602.84	45099.78
603.00	45045.95
603.16	44882.11
603.31	45099.78
603.47	45013.18
603.62	44655.08
603.78	45041.27
603.94	44807.22
604.09	45132.55
604.25	44809.56
604.40	45153.62
604.56	44863.39
604.71	44931.26
604.87	44940.63
605.03	45001.48
605.18	44734.66
605.34	45078.72
605.49	44542.74
605.65	45104.46
605.80	45106.80
605.96	44650.40
606.12	45219.15
606.27	45219.15
606.43	44734.66
606.58	44776.79
606.74	44697.21
606.89	44762.75
607.05	44491.24
607.20	44957.01
607.36	45113.83
607.51	45202.77
607.67	44715.93
607.82	45059.99
607.98	44800.19
608.13	44521.67
608.29	44788.49
608.44	44196.34
608.60	44231.44
608.75	44320.38
608.91	44016.11
609.06	44699.55
609.22	44692.53
609.37	44404.64
609.53	44566.14
609.68	44722.96
609.84	44720.62
609.99	44465.50
610.15	44416.35
610.30	44362.51
610.46	44411.67
610.61	44388.26
610.76	44516.99
610.92	44657.42
611.07	44416.35
611.23	44617.63
611.38	44547.42
611.54	44357.83
611.69	44179.95
611.84	44271.23
612.00	44477.20
612.15	44261.87
612.31	44336.77
612.46	44439.75
612.62	44729.98
612.77	44224.42
612.92	44596.57
613.08	44224.42
613.23	44306.34
613.39	44002.07
613.54	43920.15
613.69	44144.84
613.85	44247.83
614.00	44643.38
614.15	44098.03
614.31	44594.23
614.46	44336.77
614.62	43856.96
614.77	43739.93
614.92	43814.83
615.08	44076.97
615.23	43990.37
615.38	44137.82
615.54	43669.72
615.69	43690.78
615.84	43452.05
616.00	43950.58
616.15	43859.30
616.30	43775.04
616.46	43683.76
616.61	43807.81
616.76	43660.35
616.92	43817.17
617.07	43625.25
617.22	43159.48
617.37	43793.76
617.53	43587.80
617.68	43758.66
617.83	44034.84
617.99	43927.17
618.14	43306.93
618.29	43562.05
618.45	43313.95
618.60	43189.91
618.75	43384.17
618.90	42962.87
619.06	44020.80
619.21	43585.46
619.36	43725.89
619.51	43494.18
619.67	43487.15
619.82	43271.82
619.97	43583.12
620.12	43313.95
620.28	42794.36
620.43	42969.90
620.58	43517.58
620.73	43278.85
620.89	43103.31
621.04	43358.42
621.19	43068.20
621.34	43049.47
621.49	42836.48
621.65	43033.09
621.80	43096.28
621.95	43044.79
622.10	42705.41
622.25	42630.52
622.41	42820.10
622.56	42834.14
622.71	42731.16
622.86	42831.80
623.01	43049.47
623.16	43199.27
623.32	43063.52
623.47	42808.40
623.62	42876.27
623.77	42464.34
623.92	42770.95
624.07	42234.97
624.23	42480.72
624.38	42560.30
624.53	42522.85
624.68	42663.28
624.83	42621.16
624.98	42494.77
625.13	42485.40
625.29	42934.79
625.44	42583.71
625.59	42155.39
625.74	42223.26
625.89	42471.36
626.04	41865.16
626.19	42260.71
626.34	42239.65
626.49	42141.35
626.65	42167.09
626.80	42534.56
626.95	42426.89
627.10	41773.88
627.25	41811.33
627.40	41975.17
627.55	41502.38
627.70	41504.72
627.85	41525.78
628.00	41698.98
628.15	42131.98
628.30	41626.43
628.45	42054.75
628.60	41668.56
628.76	42178.79
628.91	42054.75
629.06	41888.57
629.21	41560.89
629.36	41593.66
629.51	41195.77
629.66	41450.89
629.81	41464.93
629.96	41666.22
630.11	41373.65
630.26	41546.85
630.41	41549.19
630.56	41406.42
630.71	41553.87
630.86	41661.54
631.01	41099.81
631.16	41525.78
631.31	41097.47
631.46	40692.55
631.61	41347.90
631.76	41134.92
631.91	41565.57
632.06	41212.15
632.21	41603.02
632.36	41284.71
632.51	40999.16
632.66	41385.35
632.81	40823.62
632.96	41191.09
633.10	40299.34
633.25	40830.65
633.40	40685.53
633.55	40774.47
633.70	40863.41
633.85	41083.42
634.00	40814.26
634.15	40666.81
634.30	41057.68
634.45	40500.63
634.60	41265.99
634.75	40851.71
634.90	41001.50
635.05	40708.94
635.19	40996.82
635.34	40996.82
635.49	40582.55
635.64	40332.11
635.79	40514.67
635.94	40371.90
636.09	40765.11
636.24	40322.75
636.39	40226.79
636.53	40191.68
636.68	40304.02
636.83	40278.28
636.98	40154.23
637.13	40325.09
637.28	40299.34
637.43	40336.79
637.57	40126.14
637.72	40275.94
637.87	40278.28
638.02	40100.40
638.17	40107.42
638.32	39969.33
638.46	40067.63
638.61	39901.45
638.76	39854.64
638.91	40121.46
639.06	39985.71
639.20	40009.12
639.35	40172.96
639.50	39861.66
639.65	40081.67
639.80	40432.75
639.94	40023.16
640.09	40247.85
640.24	39739.96
640.39	39580.80
640.54	39868.69
640.68	39742.30
640.83	39700.17
640.98	39725.91
641.13	39487.18
641.27	39559.73
641.42	39578.46
641.57	39311.64
641.72	39398.24
641.86	39098.65
642.01	39473.13
642.16	39157.16
642.31	39119.71
642.45	39372.49
642.60	38979.28
642.75	38656.29
642.90	39077.58
643.04	39393.56
643.19	39440.37
643.34	39735.27
643.48	39311.64
643.63	39201.63
643.78	38927.79
643.93	39194.61
644.07	38796.72
644.22	39133.76
644.37	38813.10
644.51	39061.20
644.66	39122.05
644.81	38946.51
644.95	39388.88
645.10	39070.56
645.25	39257.81
645.39	38937.15
645.54	39239.08
645.69	38642.24
645.83	38403.51
645.98	39129.08
646.13	39178.23
646.27	38824.81
646.42	38986.30
646.57	38508.83
646.71	38782.68
646.86	38492.45
647.00	38897.36
647.15	38597.77
647.30	38873.96
647.44	38820.13
647.59	38511.17
647.74	38614.16
647.88	38466.70
648.03	38590.75
648.17	38485.43
648.32	38162.43
648.47	38157.75
648.61	38066.47
648.76	38719.48
648.90	38178.82
649.05	38171.80
649.20	38291.16
649.34	38677.35
649.49	38675.01
649.63	38082.86
649.78	38162.43
649.92	38426.92
650.07	38160.09
650.21	38174.14
650.36	38300.53
650.51	38220.95
650.65	38536.92
650.80	38600.12
650.94	38485.43
651.09	38047.75
651.23	38117.96
651.38	37663.90
651.52	38108.60
651.67	38110.94
651.81	37961.15
651.96	37593.68
652.10	37755.18
652.25	37471.98
652.39	37579.64
652.54	38176.48
652.68	38045.41
652.83	37778.59
652.97	37993.92
653.12	37904.98
653.26	37961.15
653.41	37537.51
653.55	37649.86
653.70	37401.76
653.84	37874.55
653.99	37684.97
654.13	37493.04
654.27	37481.34
654.42	37493.04
654.56	37233.24
654.71	37500.06
654.85	37270.69
655.00	37661.56
655.14	36945.36
655.29	36355.54
655.43	37233.24
655.57	36854.08
655.72	36395.33
655.86	37118.56
656.01	37036.64
656.15	36802.58
656.30	37015.57
656.44	37261.33
656.58	36463.21
656.73	36928.97
656.87	36807.26
657.01	36364.90
657.16	36961.74
657.30	36755.77
657.45	36533.42
657.59	36790.88
657.73	36613.00
657.88	36641.09
658.02	36767.48
658.16	36481.93
658.31	36905.57
658.45	36718.32
658.60	36535.76
658.74	36928.97
658.88	36605.98
659.03	36613.00
659.17	36446.82
659.31	36301.71
659.46	36011.48
659.60	36009.14
659.74	36486.61
659.89	36313.41
660.03	36027.87
660.17	36318.09
660.32	35803.17
660.46	36184.68
660.60	36484.27
660.74	35723.60
660.89	36067.66
661.03	36004.46
661.17	35728.28
661.32	35496.56
661.46	35894.46
661.60	35400.60
661.74	35456.78
661.89	35522.31
662.03	35519.97
662.17	35761.05
662.31	35573.80
662.46	35800.83
662.60	35473.16
662.74	35136.12
662.88	35306.98
663.03	35304.64
663.17	35812.54
663.31	35164.21
663.45	35592.53
663.60	35030.80
663.74	34965.26
663.88	35131.44
664.02	34677.38
664.17	34923.13
664.31	34433.96
664.45	34941.86
664.59	34885.68
664.73	34920.79
664.88	34768.66
665.02	34693.76
665.16	34632.91
665.30	34693.76
665.44	34375.45
665.59	34209.27
665.73	34052.45
665.87	34136.71
666.01	33806.70
666.15	34354.38
666.29	34440.98
666.44	34323.96
666.58	33759.89
666.72	34157.78
666.86	34274.80
667.00	33951.81
667.14	33706.05
667.28	33546.90
667.43	33610.09
667.57	33848.83
667.71	33544.56
667.85	33713.08
667.99	33156.03
668.13	33532.86
668.27	33357.32
668.41	33479.02
668.56	33420.51
668.70	33490.73
668.84	33434.55
668.98	32659.84
669.12	33062.41
669.26	33130.28
669.40	32856.44
669.54	33113.90
669.68	33284.76
669.82	32830.69
669.96	32346.20
670.10	32219.81
670.25	32964.10
670.39	32657.49
670.53	32842.40
670.67	32250.24
670.81	32411.74
670.95	32273.65
671.09	32573.24
671.23	32945.38
671.37	32439.82
671.51	32327.48
671.65	32177.68
671.79	32009.17
671.93	32004.49
672.07	32531.11
672.21	31967.04
672.35	31662.77
672.49	31697.88
672.63	31873.42
672.77	32018.53
672.91	31702.56
673.05	31723.62
673.19	31669.79
673.33	31512.97
673.47	31321.05
673.61	30955.93
673.75	31426.37
673.89	30639.95
674.03	30836.56
674.17	30508.88
674.31	31007.42
674.45	30527.61
674.59	30810.81
674.73	30705.49
674.87	30450.37
675.01	30801.45
675.15	30923.16
675.29	30600.16
675.43	30567.40
675.56	30424.62
675.70	30457.39
675.84	30038.44
675.98	29345.64
676.12	29502.45
676.26	30127.38
676.40	29614.80
676.54	29518.84
676.68	29582.03
676.82	29497.77
676.96	29436.92
677.10	29411.17
677.23	29163.08
677.37	29373.72
677.51	29046.05
677.65	28973.49
677.79	28924.34
677.93	29088.18
678.07	28833.06
678.21	28498.36
678.34	28634.11
678.48	28432.83
678.62	28519.43
678.76	28175.37
678.90	28088.77
679.04	28325.16
679.18	28470.28
679.31	28175.37
679.45	27716.62
679.59	28039.62
679.73	27906.21
679.87	28016.21
680.00	27775.14
680.14	27466.19
680.28	27632.36
680.42	27463.85
680.56	27599.60
680.70	27222.77
680.83	27178.30
680.97	26806.16
681.11	26881.05
681.25	26752.32
681.39	26946.59
681.52	27136.17
681.66	26576.78
681.80	26764.03
681.94	26471.46
682.07	26331.03
682.21	26305.28
682.35	26202.30
682.49	26139.10
682.62	26153.15
682.76	26101.65
682.90	26005.69
683.04	25923.77
683.17	25619.50
683.31	25930.80
683.45	25729.51
683.59	25656.95
683.72	25254.38
683.86	24851.81
684.00	25120.97
684.13	25631.21
684.27	25177.14
684.41	25139.69
684.55	24959.47
684.68	24470.30
684.82	24491.37
684.96	24666.91
685.09	24739.46
685.23	24372.00
685.37	24751.17
685.50	24273.70
685.64	24261.99
685.78	24159.01
685.91	24383.70
686.05	24102.84
686.19	24261.99
686.32	23693.24
686.46	23756.44
686.60	23372.59
686.73	23690.90
686.87	23463.87
687.01	23295.35
687.14	23384.29
687.28	23271.95
687.42	22979.38
687.55	23229.82
687.69	22750.01
687.82	22944.27
687.96	22923.21
688.10	22373.18
688.23	22427.01
688.37	22368.50
688.50	22356.80
688.64	22368.50
688.78	22590.85
688.91	22146.15
689.05	22099.34
689.18	21659.32
689.32	21701.45
689.46	22136.79
689.59	22043.17
689.73	22026.78
689.86	21865.28
690.00	21790.39
690.13	21682.72
690.27	21577.40
690.41	21664.00
690.54	21135.04
690.68	21135.04
690.81	20999.29
690.95	21085.89
691.08	20833.11
691.22	20821.41
691.35	20723.10
691.49	20734.81
691.62	20627.14
691.76	20517.14
691.89	20521.82
692.03	20533.52
692.16	20475.01
692.30	20348.62
692.43	20762.89
692.57	20130.95
692.70	20404.79
692.84	19936.68
692.97	19761.14
693.11	19768.16
693.24	19489.64
693.38	19709.65
693.51	19396.02
693.65	19920.30
693.78	19719.01
693.92	19293.04
694.05	19229.84
694.19	19325.80
694.32	19358.57
694.45	19161.97
694.59	19124.52
694.72	18757.05
694.86	18824.93
694.99	18511.30
695.13	18445.76
695.26	18574.49
695.39	18293.63
695.53	18391.93
695.66	18370.86
695.80	18052.55
695.93	18150.85
696.07	18307.67
696.20	18143.83
696.33	17949.57
696.47	17881.69
696.60	18040.85
696.73	17788.07
696.87	17778.71
697.00	17832.54
697.14	17172.51
697.27	17404.22
697.40	17275.49
697.54	17387.84
697.67	17160.81
697.80	17067.19
697.94	17418.27
698.07	16936.12
698.21	17039.10
698.34	16952.50
698.47	16886.97
698.61	16542.91
698.74	16561.63
698.87	16690.36
699.01	16400.13
699.14	16407.16
699.27	16259.70
699.40	16395.45
699.54	15824.36
699.67	16130.97
699.80	16095.86
699.94	15854.79
700.07	16306.51
700.20	15873.51
700.34	15735.42
700.47	15468.60
700.60	16116.93
700.73	15819.68
700.87	15646.48
701.00	15363.28
701.13	15613.71
701.26	15363.28
701.40	15309.44
701.53	15421.79
701.66	15030.92
701.79	14899.85
701.93	15033.26
702.06	15007.52
702.19	14913.89
702.32	14698.56
702.46	14576.86
702.59	14532.39
702.72	14736.01
702.85	14703.25
702.99	14539.41
703.12	14754.74
703.25	14513.66
703.38	14300.67
703.51	14284.29
703.65	14352.16
703.78	13970.66
703.91	14211.73
704.04	13909.80
704.17	14108.75
704.31	13750.65
704.44	13617.24
704.57	13605.53
704.70	13682.77
704.83	13692.13
704.96	13703.84
705.10	13682.77
705.23	13724.90
>>>>>End Processed Spectral Data<<<<<
