SpectraSuite Data File
++++++++++++++++++++++++++++++++++++
Date: Fri Oct 25 11:34:37 EDT 2013
User: price-jones
Dark Spectrum Present: No
Reference Spectrum Present: No
Number of Sampled Component Spectra: 1
Spectrometers: USB2+H05261
Integration Time (usec): 100000 (USB2+H05261)
Spectra Averaged: 1 (USB2+H05261)
Boxcar Smoothing: 0 (USB2+H05261)
Correct for Electrical Dark: No (USB2+H05261)
Strobe/Lamp Enabled: No (USB2+H05261)
Correct for Detector Non-linearity: No (USB2+H05261)
Correct for Stray Light: No (USB2+H05261)
Number of Pixels in Processed Spectrum: 2048
>>>>>Begin Processed Spectral Data<<<<<
365.73	297.25
365.92	297.25
366.12	297.25
366.32	238.73
366.52	156.82
366.72	117.03
366.91	175.54
367.11	133.41
367.31	168.52
367.51	231.71
367.70	149.79
367.90	168.52
368.10	177.88
368.30	138.09
368.49	182.56
368.69	217.67
368.89	198.95
369.09	184.90
369.28	191.92
369.48	243.42
369.68	290.23
369.87	224.69
370.07	252.78
370.27	280.86
370.47	320.65
370.66	409.59
370.86	528.96
371.06	519.60
371.25	589.82
371.45	463.43
371.65	517.26
371.84	491.51
372.04	566.41
372.24	592.16
372.44	550.03
372.63	554.71
372.83	585.13
373.03	564.07
373.22	566.41
373.42	599.18
373.62	587.47
373.81	650.67
374.01	667.05
374.21	699.82
374.40	589.82
374.60	723.23
374.79	650.67
374.99	629.60
375.19	664.71
375.38	655.35
375.58	697.48
375.78	660.03
375.97	627.26
376.17	636.63
376.37	645.99
376.56	678.76
376.76	671.73
376.95	575.77
377.15	631.94
377.35	755.99
377.54	720.88
377.74	695.14
377.93	720.88
378.13	608.54
378.33	767.70
378.52	711.52
378.72	732.59
378.91	723.23
379.11	695.14
379.31	704.50
379.50	692.80
379.70	802.80
379.89	727.91
380.09	737.27
380.28	615.56
380.48	732.59
380.68	741.95
380.87	683.44
381.07	732.59
381.26	751.31
381.46	734.93
381.65	732.59
381.85	681.10
382.04	774.72
382.24	748.97
382.43	786.42
382.63	744.29
382.83	753.65
383.02	697.48
383.22	655.35
383.41	748.97
383.61	746.63
383.80	814.51
384.00	814.51
384.19	774.72
384.39	772.38
384.58	861.32
384.78	882.38
384.97	809.83
385.17	767.70
385.36	718.54
385.56	809.83
385.75	791.10
385.95	812.17
386.14	833.23
386.34	868.34
386.53	798.12
386.72	889.40
386.92	807.48
387.11	908.13
387.31	849.61
387.50	844.93
387.70	847.27
387.89	844.93
388.09	905.79
388.28	851.96
388.48	851.96
388.67	849.61
388.86	826.21
389.06	978.34
389.25	861.32
389.45	961.96
389.64	947.92
389.84	861.32
390.03	940.90
390.22	940.90
390.42	980.68
390.61	947.92
390.81	830.89
391.00	870.68
391.19	1022.81
391.39	1006.43
391.58	940.90
391.78	1022.81
391.97	945.58
392.16	905.79
392.36	1156.22
392.55	1088.35
392.75	992.39
392.94	976.00
393.13	1050.90
393.33	983.02
393.52	1001.75
393.71	1107.07
393.91	1048.56
394.10	1001.75
394.29	999.41
394.49	1032.18
394.68	1067.28
394.88	1121.12
395.07	1090.69
395.26	1104.73
395.46	1093.03
395.65	1109.41
395.84	1203.04
396.04	1132.82
396.23	1090.69
396.42	1139.84
396.62	1128.14
396.81	1095.37
397.00	1186.65
397.19	1142.18
397.39	1181.97
397.58	1210.06
397.77	1158.57
397.97	1139.84
398.16	1196.01
398.35	1221.76
398.55	1231.12
398.74	1146.86
398.93	1306.02
399.12	1252.19
399.32	1249.85
399.51	1249.85
399.70	1252.19
399.90	1273.25
400.09	1306.02
400.28	1385.60
400.47	1270.91
400.67	1399.64
400.86	1418.36
401.05	1294.32
401.24	1416.02
401.44	1387.94
401.63	1387.94
401.82	1362.19
402.01	1404.32
402.21	1448.79
402.40	1467.52
402.59	1399.64
402.78	1411.34
402.97	1444.11
403.17	1437.09
403.36	1528.37
403.55	1530.71
403.74	1516.67
403.93	1437.09
404.13	1563.48
404.32	1547.09
404.51	1549.43
404.70	1530.71
404.89	1544.75
405.09	1633.69
405.28	1654.76
405.47	1650.08
405.66	1668.80
405.85	1600.93
406.05	1664.12
406.24	1633.69
406.43	1734.34
406.62	1713.27
406.81	1774.13
407.00	1764.76
407.20	1687.53
407.39	1685.19
407.58	1685.19
407.77	1783.49
407.96	1788.17
408.15	1727.32
408.34	1739.02
408.54	1797.53
408.73	1783.49
408.92	1825.62
409.11	1851.36
409.30	1909.88
409.49	1900.52
409.68	2012.86
409.87	2005.84
410.07	2003.50
410.26	1975.41
410.45	1912.22
410.64	1937.96
410.83	1930.94
411.02	2076.06
411.21	2125.21
411.40	1987.11
411.59	2052.65
411.78	2008.18
411.98	1949.67
412.17	2085.42
412.36	2176.70
412.55	2263.30
412.74	2256.28
412.93	2190.74
413.12	2197.76
413.31	2258.62
413.50	2359.26
413.69	2307.77
413.88	2368.62
414.07	2406.07
414.26	2401.39
414.45	2375.64
414.64	2445.86
414.83	2438.84
415.02	2523.10
415.22	2457.56
415.41	2623.74
415.60	2558.21
415.79	2569.91
415.98	2665.87
416.17	2586.29
416.36	2544.16
416.55	2588.63
416.74	2661.19
416.93	2682.25
417.12	2658.85
417.31	2729.06
417.50	2726.72
417.69	2717.36
417.88	2832.05
418.07	2878.86
418.26	2839.07
418.45	2871.84
418.64	2888.22
418.83	3000.57
419.02	2899.92
419.21	2939.71
419.39	3045.04
419.58	2888.22
419.77	2953.76
419.96	3023.97
420.15	3122.27
420.34	3089.51
420.53	3073.12
420.72	3103.55
420.91	3091.85
421.10	3115.25
421.29	3075.46
421.48	3108.23
421.67	3117.59
421.86	3143.34
422.05	3115.25
422.24	3185.47
422.43	3227.60
422.61	3220.58
422.80	3178.45
422.99	3302.50
423.18	3246.32
423.37	3265.05
423.56	3379.73
423.75	3335.26
423.94	3141.00
424.13	3047.38
424.32	3028.65
424.50	3328.24
424.69	3288.45
424.88	3337.60
425.07	3183.13
425.26	3307.18
425.45	3255.69
425.64	3337.60
425.83	3255.69
426.01	3283.77
426.20	3297.81
426.39	3229.94
426.58	3396.12
426.77	3274.41
426.96	3304.84
427.15	3304.84
427.33	3396.12
427.52	3293.13
427.71	3541.23
427.90	3442.93
428.09	3431.23
428.28	3571.66
428.46	3529.53
428.65	3513.14
428.84	3613.79
429.03	3541.23
429.22	3536.55
429.40	3520.17
429.59	3541.23
429.78	3438.25
429.97	3463.99
430.16	3599.74
430.34	3669.96
430.53	3623.15
430.72	3789.33
430.91	3660.60
431.10	3693.37
431.28	3674.64
431.47	3698.05
431.66	3803.37
431.85	3714.43
432.03	3873.59
432.22	4021.04
432.41	3925.08
432.60	3819.75
432.79	3904.01
432.97	3960.19
433.16	3754.22
433.35	3763.58
433.54	3817.41
433.72	3892.31
433.91	3904.01
434.10	3981.25
434.28	3906.35
434.47	3950.82
434.66	3969.55
434.85	4184.88
435.03	4044.45
435.22	4058.49
435.41	4053.81
435.59	4215.30
435.78	4215.30
435.97	4304.25
436.16	4131.05
436.34	4205.94
436.53	4191.90
436.72	4262.12
436.90	4257.43
437.09	4404.89
437.28	4250.41
437.46	4362.76
437.65	4369.78
437.84	4341.69
438.02	4437.66
438.21	4404.89
438.40	4451.70
438.58	4397.87
438.77	4524.26
438.96	4482.13
439.14	4589.79
439.33	4533.62
439.52	4674.05
439.70	4695.11
439.89	4685.75
440.08	4706.82
440.26	4770.01
440.45	4781.71
440.63	4924.49
440.82	4980.66
441.01	4903.42
441.19	4915.12
441.38	4994.70
441.57	5004.07
441.75	5109.39
441.94	5036.83
442.12	5130.45
442.31	5277.91
442.50	5097.69
442.68	5303.65
442.87	5149.18
443.05	5308.34
443.24	5369.19
443.43	5261.52
443.61	5273.23
443.80	5425.36
443.98	5193.65
444.17	4966.62
444.35	5416.00
444.54	5411.32
444.73	5348.12
444.91	5336.42
445.10	5369.19
445.28	5376.21
445.47	5254.50
445.65	5219.39
445.84	5331.74
446.02	5575.16
446.21	5427.70
446.39	5486.22
446.58	5451.11
446.77	5497.92
446.95	5408.98
447.14	5434.72
447.32	5467.49
447.51	5497.92
447.69	5502.60
447.88	5586.86
448.06	5444.09
448.25	5444.09
448.43	5476.85
448.62	5544.73
448.80	5469.83
448.99	5561.11
449.17	5675.80
449.36	5652.39
449.54	5603.24
449.73	5575.16
449.91	5954.32
450.10	5823.25
450.28	5834.96
450.46	5984.75
450.65	5858.36
450.83	5781.12
451.02	5856.02
451.20	5909.85
451.39	5881.77
451.57	5771.76
451.76	5921.56
451.94	5823.25
452.13	6057.31
452.31	6092.41
452.49	5928.58
452.68	5951.98
452.86	5806.87
453.05	5984.75
453.23	6216.46
453.42	6050.28
453.60	5923.90
453.78	6092.41
453.97	6017.52
454.15	6143.91
454.34	6064.33
454.52	6094.76
454.70	6251.57
454.89	6246.89
455.07	6085.39
455.26	6305.40
455.44	6408.39
455.62	6186.04
455.81	6345.19
455.99	6452.86
456.17	6333.49
456.36	6303.06
456.54	6569.88
456.73	6729.04
456.91	6644.78
457.09	6572.22
457.28	6782.87
457.46	6705.63
457.64	6555.84
457.83	6740.74
458.01	6588.61
458.19	6747.76
458.38	6813.30
458.56	6808.62
458.74	7005.22
458.93	6832.02
459.11	6869.47
459.29	6881.18
459.48	6904.58
459.66	6862.45
459.84	7080.12
460.03	7112.89
460.21	7000.54
460.39	7089.48
460.57	6998.20
460.76	7117.57
460.94	7012.24
461.12	7056.72
461.31	6939.69
461.49	7087.14
461.67	7164.38
461.85	7318.86
462.04	7194.81
462.22	7754.19
462.40	7368.01
462.59	7220.55
462.77	7337.58
462.95	7419.50
463.13	7379.71
463.32	7562.27
463.50	7597.38
463.68	7449.93
463.86	7623.12
464.05	7501.42
464.23	7485.03
464.41	7431.20
464.59	7494.40
464.78	7683.98
464.96	7529.50
465.14	7648.87
465.32	7478.01
465.50	7676.96
465.69	7719.09
465.87	7723.77
466.05	7815.05
466.23	7632.49
466.41	7768.24
466.60	7943.78
466.78	7831.43
466.96	7665.25
467.14	7861.86
467.32	7939.10
467.51	7908.67
467.69	7660.57
467.87	7765.90
468.05	8152.09
468.23	7988.25
468.41	7992.93
468.60	7981.23
468.78	8004.63
468.96	7971.86
469.14	8194.22
469.32	8131.02
469.50	7878.24
469.69	8292.52
469.87	8234.00
470.05	8159.11
470.23	8290.18
470.41	8313.58
470.59	8416.57
470.77	8383.80
470.95	8259.75
471.14	8631.90
471.32	8351.03
471.50	8470.40
471.68	8648.28
471.86	8582.74
472.04	8683.39
472.22	8615.51
472.40	8528.91
472.58	8631.90
472.77	8786.37
472.95	8882.33
473.13	9217.03
473.31	8851.91
473.49	8950.21
473.67	9067.24
473.85	9078.94
474.03	9366.82
474.21	9298.95
474.39	9357.46
474.57	9329.38
474.75	9343.42
474.93	9327.03
475.12	9327.03
475.30	9497.89
475.48	9483.85
475.66	9537.68
475.84	9600.88
476.02	9905.15
476.20	9621.94
476.38	9956.64
476.56	9923.87
476.74	9818.55
476.92	10033.88
477.10	9970.68
477.28	10249.21
477.46	10225.80
477.64	10066.64
477.82	10286.65
478.00	10567.52
478.18	10480.92
478.36	10530.07
478.54	10932.64
478.72	10761.78
478.90	10841.36
479.08	11164.36
479.26	10956.05
479.44	11236.91
479.62	11101.16
479.80	11229.89
479.98	11295.43
480.16	11431.18
480.34	11194.78
480.52	11873.54
480.70	11580.97
480.88	11658.21
481.06	11719.06
481.24	11962.48
481.41	11850.13
481.59	12201.21
481.77	12030.35
481.95	12301.86
482.13	12102.91
482.31	12442.29
482.49	12678.68
482.67	12641.23
482.85	12709.11
483.03	12704.43
483.21	12910.40
483.39	12856.56
483.57	12943.16
483.74	13336.37
483.92	13319.99
484.10	13401.91
484.28	13507.23
484.46	13919.17
484.64	13909.80
484.82	13481.49
485.00	13750.65
485.18	14108.75
485.35	14029.17
485.53	14118.11
485.71	14457.49
485.89	14665.80
486.07	14483.24
486.25	14773.46
486.43	14820.27
486.61	14967.73
486.78	14944.32
486.96	14988.79
487.14	15309.44
487.32	15232.21
487.50	15283.70
487.68	15845.43
487.85	15719.04
488.03	15840.75
488.21	16065.44
488.39	16077.14
488.57	16432.90
488.75	16255.02
488.92	16489.07
489.10	16636.53
489.28	16580.36
489.46	16861.22
489.64	16807.39
489.81	17055.48
489.99	17401.88
490.17	17263.79
490.35	17383.16
490.53	17486.14
490.70	17759.98
490.88	17448.69
491.06	17769.35
491.24	17811.48
491.41	17907.44
491.59	18265.54
491.77	18029.15
491.95	18239.79
492.13	18560.45
492.30	18651.73
492.48	18679.82
492.66	18923.23
492.84	18937.27
493.01	18979.40
493.19	18794.50
493.37	19225.16
493.54	19491.98
493.72	19513.05
493.90	19819.66
494.08	19761.14
494.25	19875.83
494.43	19896.89
494.61	20273.72
494.79	19906.26
494.96	20210.53
495.14	20449.26
495.32	20414.15
495.49	20702.04
495.67	20877.58
495.85	21062.48
496.02	21001.63
496.20	20910.35
496.38	20975.88
496.55	21345.69
496.73	21645.27
496.91	21294.19
497.09	21584.42
497.26	21502.50
497.44	21488.46
497.62	21687.40
497.79	22033.80
497.97	21984.65
498.14	22043.17
498.32	22384.88
498.50	22443.40
498.67	22590.85
498.85	22478.50
499.03	22714.90
499.20	22740.64
499.38	22628.30
499.56	23129.17
499.73	22965.34
499.91	23110.45
500.08	23255.56
500.26	23110.45
500.44	23637.07
500.61	23494.30
500.79	23147.90
500.97	23676.86
501.14	23754.10
501.32	23845.38
501.49	23913.25
501.67	23711.97
501.84	24294.76
502.02	24322.85
502.20	24517.11
502.37	24049.00
502.55	24458.60
502.72	24849.47
502.90	24348.59
503.07	24168.37
503.25	24606.05
503.43	24465.62
503.60	24592.01
503.78	25106.93
503.95	25060.12
504.13	25380.77
504.30	25195.87
504.48	25261.40
504.65	25245.02
504.83	25383.11
505.01	25539.93
505.18	25804.41
505.36	25610.14
505.53	25713.13
505.71	25956.54
505.88	26017.40
506.06	25820.79
506.23	25947.18
506.41	25989.31
506.58	26326.35
506.76	26302.94
506.93	26340.39
507.11	26670.40
507.28	26979.36
507.46	26478.48
507.63	26883.39
507.81	27044.89
507.98	26558.06
508.16	26925.52
508.33	27098.72
508.50	27276.60
508.68	27412.35
508.85	27227.45
509.03	27445.12
509.20	27557.47
509.38	27655.77
509.55	27742.37
509.73	27929.61
509.90	27810.25
510.08	27597.26
510.25	27868.76
510.42	28353.25
510.60	28114.52
510.77	28161.33
510.95	28645.82
511.12	28168.35
511.30	28229.20
511.47	28472.62
511.64	28341.55
511.82	28601.35
511.99	28430.49
512.17	28711.35
512.34	28666.88
512.51	28905.62
512.69	28886.89
512.86	29116.26
513.04	29118.60
513.21	29397.13
513.38	29060.09
513.56	29729.48
513.73	29177.12
513.90	29645.23
514.08	29170.10
514.25	29937.79
514.43	29883.96
514.60	29923.75
514.77	30157.80
514.95	29986.94
515.12	29706.08
515.29	29923.75
515.47	30153.12
515.64	30356.75
515.81	29788.00
515.99	30349.73
516.16	30644.63
516.33	30630.59
516.51	30972.31
516.68	30705.49
516.85	30773.36
517.03	31257.85
517.20	30909.11
517.37	30923.16
517.54	30661.02
517.72	31363.18
517.89	30958.27
518.06	31454.46
518.24	31442.76
518.41	31461.48
518.58	30974.65
518.75	31447.44
518.93	31798.52
519.10	31718.94
519.27	31454.46
519.45	31208.70
519.62	31896.82
519.79	31896.82
519.96	31735.32
520.14	31920.23
520.31	32184.71
520.48	32301.73
520.65	32280.67
520.83	32313.44
521.00	32313.44
521.17	32622.39
521.34	32362.59
521.52	32826.01
521.69	32545.15
521.86	32989.85
522.03	33139.65
522.20	33443.91
522.38	33193.48
522.55	33043.68
522.72	33010.92
522.89	33202.84
523.07	33160.71
523.24	33198.16
523.41	33469.66
523.58	33624.14
523.75	33436.89
523.92	33720.10
524.10	33579.67
524.27	34031.39
524.44	33692.01
524.61	34080.54
524.78	33965.85
524.96	34061.82
525.13	34429.28
525.30	34094.58
525.47	33825.42
525.64	34384.81
525.81	34188.21
525.98	34763.98
526.16	34136.71
526.33	34199.91
526.50	34939.52
526.67	34328.64
526.84	34321.62
527.01	34813.13
527.18	34941.86
527.36	34873.98
527.53	35063.57
527.70	35557.42
527.87	35318.68
528.04	34965.26
528.21	35290.60
528.38	35173.57
528.55	35367.84
528.72	34855.26
528.89	35182.93
529.07	35023.78
529.24	35337.41
529.41	35761.05
529.58	35597.21
529.75	35428.69
529.92	35512.95
530.09	35644.02
530.26	35803.17
530.43	35625.29
530.60	35501.25
530.77	35817.22
530.94	35915.52
531.11	35646.36
531.28	35868.71
531.46	36238.51
531.63	35559.76
531.80	36137.87
531.97	36154.26
532.14	36168.30
532.31	35997.44
532.48	36268.94
532.65	36687.90
532.82	36376.61
532.99	36603.64
533.16	36545.12
533.33	36737.05
533.50	36779.18
533.67	36994.51
533.84	36596.62
534.01	37081.11
534.18	36666.83
534.35	36793.22
534.52	36825.99
534.69	37083.45
534.86	37167.71
535.03	36943.02
535.20	36999.19
535.37	37350.27
535.54	37397.08
535.71	37567.94
535.88	37801.99
536.05	37467.30
536.22	37844.12
536.38	37085.79
536.55	37783.27
536.72	37933.06
536.89	37710.71
537.06	37947.11
537.23	37972.85
537.40	37722.41
537.57	37811.35
537.74	37750.50
537.91	37963.49
538.08	37823.06
538.25	37752.84
538.42	38368.40
538.59	38068.81
538.75	38164.78
538.92	38527.56
539.09	38380.10
539.26	38380.10
539.43	38230.31
539.60	38171.80
539.77	38171.80
539.94	38740.55
540.11	38506.49
540.28	38635.22
540.44	38527.56
540.61	39044.82
540.78	38518.20
540.95	38878.64
541.12	38817.78
541.29	38293.50
541.46	39239.08
541.62	38974.60
541.79	39171.21
541.96	38363.72
542.13	38611.82
542.30	38953.54
542.47	39400.58
542.63	38951.20
542.80	39449.73
542.97	39281.21
543.14	39550.37
543.31	39285.89
543.48	39215.68
543.64	40023.16
543.81	39646.33
543.98	39515.26
544.15	39782.09
544.32	40027.84
544.48	40470.20
544.65	39438.03
544.82	40062.95
544.99	39555.05
545.16	40037.20
545.32	40383.60
545.49	40460.84
545.66	40734.68
545.83	40334.45
546.00	40467.86
546.16	39828.90
546.33	40233.81
546.50	40025.50
546.67	40203.38
546.83	39882.73
547.00	40292.32
547.17	40477.22
547.34	40383.60
547.50	40975.76
547.67	41151.30
547.84	40886.82
548.00	41219.17
548.17	40959.38
548.34	41013.21
548.51	41017.89
548.67	41038.95
548.84	41212.15
549.01	41053.00
549.18	41064.70
549.34	41036.61
549.51	41312.80
549.68	41088.10
549.84	41200.45
550.01	41345.56
550.18	41230.88
550.34	41099.81
550.51	41167.68
550.68	41631.11
550.84	41488.34
551.01	41493.02
551.18	40914.90
551.34	41645.15
551.51	41654.51
551.68	41708.35
551.84	41663.88
552.01	41153.64
552.18	41549.19
552.34	41301.09
552.51	41579.62
552.68	41855.80
552.84	41918.99
553.01	41773.88
553.18	41673.24
553.34	41834.74
553.51	41502.38
553.67	41811.33
553.84	42485.40
554.01	42260.71
554.17	41965.81
554.34	42010.28
554.51	41923.68
554.67	41977.51
554.84	41811.33
555.00	42333.27
555.17	42340.29
555.33	42651.58
555.50	42476.04
555.67	42813.08
555.83	42270.08
556.00	42209.22
556.16	43063.52
556.33	42916.06
556.50	42574.34
556.66	42644.56
556.83	42160.07
556.99	42813.08
557.16	42625.84
557.32	42948.83
557.49	42789.67
557.65	42572.00
557.82	42412.85
557.98	42637.54
558.15	42873.93
558.32	42871.59
558.48	42476.04
558.65	42782.65
558.81	43178.20
558.98	42948.83
559.14	42967.55
559.31	43182.88
559.47	42997.98
559.64	42995.64
559.80	42895.00
559.97	42976.92
560.13	43049.47
560.30	43253.10
560.46	43423.96
560.63	43306.93
560.79	43592.48
560.96	43849.94
561.12	43241.40
561.29	43473.11
561.45	43147.78
561.61	43442.68
561.78	43597.16
561.94	43096.28
562.11	43412.26
562.27	43533.96
562.44	43473.11
562.60	43784.40
562.77	43236.72
562.93	43358.42
563.10	43702.48
563.26	43496.52
563.42	44114.42
563.59	43531.62
563.75	43658.01
563.92	43559.71
564.08	43803.13
564.24	43812.49
564.41	43828.87
564.57	43676.74
564.74	43304.59
564.90	43557.37
565.07	43512.90
565.23	43489.49
565.39	43669.72
565.56	43950.58
565.72	43545.67
565.88	44093.35
566.05	43707.16
566.21	43810.15
566.38	44048.88
566.54	43831.21
566.70	44018.46
566.87	44020.80
567.03	43725.89
567.19	44194.00
567.36	44009.09
567.52	44100.37
567.68	43971.64
567.85	44500.61
568.01	44259.53
568.17	43971.64
568.34	44304.00
568.50	44313.36
568.66	43995.05
568.83	43927.17
568.99	43697.80
569.15	44259.53
569.32	43833.55
569.48	44121.44
569.64	44229.10
569.81	44037.18
569.97	44289.96
570.13	44079.31
570.30	43805.47
570.46	44163.57
570.62	44729.98
570.78	44121.44
570.95	44147.18
571.11	44449.11
571.27	44402.30
571.43	44275.91
571.60	44273.57
571.76	44238.47
571.92	44341.45
572.09	44048.88
572.25	44217.40
572.41	44233.78
572.57	44570.82
572.74	44512.31
572.90	44175.27
573.06	44573.16
573.22	44430.39
573.38	44652.74
573.55	44603.59
573.71	44994.46
573.87	44816.58
574.03	44842.32
574.20	44484.22
574.36	44825.94
574.52	44685.51
574.68	44423.37
574.84	44669.12
575.01	44367.20
575.17	44545.08
575.33	44748.70
575.49	44662.10
575.65	44666.78
575.82	44657.42
575.98	44491.24
576.14	44722.96
576.30	44626.99
576.46	44938.29
576.62	44449.11
576.79	44612.95
576.95	44196.34
577.11	44573.16
577.27	44928.92
577.43	44797.85
577.59	44652.74
577.75	44687.85
577.92	44268.89
578.08	44987.44
578.24	44463.16
578.40	44732.32
578.56	45174.68
578.72	44701.89
578.88	44945.31
579.04	44655.08
579.21	44296.98
579.37	44858.71
579.53	44947.65
579.69	44488.90
579.85	44708.91
580.01	44713.59
580.17	44931.26
580.33	44619.97
580.49	44931.26
580.65	44877.43
580.82	44790.83
580.98	44769.77
581.14	44418.69
581.30	44891.48
581.46	44526.35
581.62	44652.74
581.78	44741.68
581.94	45198.09
582.10	44935.95
582.26	44804.88
582.42	44729.98
582.58	44673.81
582.74	45254.26
582.90	45160.64
583.06	44898.50
583.22	44854.03
583.38	44811.90
583.54	45034.25
583.70	45050.63
583.86	44856.37
584.02	44545.08
584.18	45357.24
584.34	44942.97
584.50	45434.48
584.66	45415.76
584.82	45057.65
584.98	44889.13
585.14	45382.99
585.30	44725.30
585.46	45298.73
585.62	44664.44
585.78	45202.77
585.94	44521.67
586.10	44781.47
586.26	44942.97
586.42	45024.89
586.58	44748.70
586.74	45078.72
586.90	44891.48
587.06	45120.85
587.22	45172.34
587.38	45062.33
587.54	45233.19
587.70	45521.08
587.86	44879.77
588.02	45050.63
588.18	44889.13
588.34	45090.42
588.49	44975.73
588.65	44985.10
588.81	44919.56
588.97	45155.96
589.13	44863.39
589.29	44903.18
589.45	45408.73
589.61	45467.25
589.77	45705.98
589.93	44914.88
590.08	45305.75
590.24	45294.05
590.40	45621.72
590.56	45715.34
590.72	45504.70
590.88	45205.11
591.04	45432.14
591.20	45397.03
591.35	45289.37
591.51	45673.21
591.67	45439.16
591.83	45986.85
591.99	45394.69
592.15	45500.01
592.31	45123.19
592.46	45247.24
592.62	45436.82
592.78	45717.68
592.94	45792.58
593.10	45294.05
593.26	45925.99
593.41	46195.15
593.57	45336.18
593.73	45050.63
593.89	46344.95
594.05	45633.42
594.20	45956.42
594.36	45858.12
594.52	45865.14
594.68	45876.84
594.84	45490.65
594.99	46375.37
595.15	45471.93
595.31	45797.26
595.47	45998.55
595.62	45886.20
595.78	45490.65
595.94	45769.18
596.10	45617.04
596.25	46003.23
596.41	46183.45
596.57	46134.30
596.73	45858.12
596.88	46244.30
597.04	45677.90
597.20	46443.25
597.36	45661.51
597.51	45914.29
597.67	45443.84
597.83	45455.54
597.99	45624.06
598.14	45586.61
598.30	46092.17
598.46	45390.01
598.61	45944.72
598.77	45886.20
598.93	45996.21
599.09	45869.82
599.24	46508.79
599.40	45935.35
599.56	46192.81
599.71	45989.19
599.87	46244.30
600.03	46010.25
600.18	45916.63
600.34	45949.40
600.50	45876.84
600.65	46014.93
600.81	46337.93
600.97	46363.67
601.12	46202.18
601.28	45907.27
601.44	45961.10
601.59	45972.80
601.75	45820.67
601.91	46443.25
602.06	46115.58
602.22	46124.94
602.37	45916.63
602.53	46265.37
602.69	46134.30
602.84	46103.87
603.00	45755.13
603.16	45631.08
603.31	46265.37
603.47	46117.92
603.62	45808.96
603.78	46227.92
603.94	46256.01
604.09	45876.84
604.25	45677.90
604.40	45830.03
604.56	46178.77
604.71	46604.75
604.87	46330.90
605.03	45684.92
605.18	45776.20
605.34	46211.54
605.49	46026.63
605.65	45766.84
605.80	45481.29
605.96	45839.39
606.12	45368.94
606.27	45883.86
606.43	45467.25
606.58	45991.53
606.74	45713.00
606.89	45837.05
607.05	45502.35
607.20	45588.95
607.36	45626.40
607.51	45741.09
607.67	45560.87
607.82	45509.38
607.98	45785.56
608.13	45397.03
608.29	45661.51
608.44	45909.61
608.60	45762.15
608.75	45794.92
608.91	45663.85
609.06	45324.47
609.22	45757.47
609.37	45343.20
609.53	46052.38
609.68	45989.19
609.84	45401.71
609.99	45298.73
610.15	45507.04
610.30	45752.79
610.46	45478.95
610.61	45411.07
610.76	45724.71
610.92	45116.17
611.07	45263.62
611.23	44907.86
611.38	45642.79
611.54	45380.65
611.69	45228.51
611.84	45598.32
612.00	45734.07
612.15	45441.50
612.31	45593.64
612.46	45001.48
612.62	44966.37
612.77	45441.50
612.92	45544.48
613.08	45546.82
613.23	45146.59
613.39	45233.19
613.54	45048.29
613.69	45429.80
613.85	45102.12
614.00	45429.80
614.15	45003.82
614.31	45200.43
614.46	45233.19
614.62	45109.14
614.77	45134.89
614.92	45233.19
615.08	44961.69
615.23	45207.45
615.38	45111.49
615.54	45172.34
615.69	45399.37
615.84	45265.96
616.00	44973.39
616.15	44858.71
616.30	45198.09
616.46	44629.34
616.61	44875.09
616.76	44898.50
616.92	44903.18
617.07	44793.17
617.22	45008.50
617.37	44634.02
617.53	44910.20
617.68	45188.72
617.83	44446.77
617.99	44823.60
618.14	45457.88
618.29	44699.55
618.45	44732.32
618.60	44746.36
618.75	44556.78
618.90	44844.66
619.06	44334.43
619.21	44563.80
619.36	44772.11
619.51	44294.64
619.67	44172.93
619.82	44484.22
619.97	44296.98
620.12	44507.63
620.28	44924.24
620.43	44933.60
620.58	44435.07
620.73	44451.45
620.89	44617.63
621.04	45069.36
621.19	44732.32
621.34	44931.26
621.49	44318.04
621.65	44542.74
621.80	44491.24
621.95	44364.85
622.10	44481.88
622.25	43871.00
622.41	44662.10
622.56	44273.57
622.71	44217.40
622.86	44392.94
623.01	44533.37
623.16	44201.02
623.32	44322.72
623.47	44215.06
623.62	43852.28
623.77	44549.76
623.92	44189.31
624.07	44006.75
624.23	44538.05
624.38	44215.06
624.53	43882.70
624.68	44116.76
624.83	43910.79
624.98	44140.16
625.13	43353.74
625.29	43461.41
625.44	43856.96
625.59	43943.56
625.74	43718.87
625.89	43126.71
626.04	43545.67
626.19	44079.31
626.34	43566.73
626.49	43419.28
626.65	43208.63
626.80	43576.09
626.95	43606.52
627.10	43290.55
627.25	43697.80
627.40	43716.53
627.55	43433.32
627.70	43388.85
627.85	43234.38
628.00	43227.35
628.15	43473.11
628.30	42803.72
628.45	43145.44
628.60	42815.42
628.76	42780.31
628.91	43255.44
629.06	42885.64
629.21	43091.60
629.36	42962.87
629.51	42972.24
629.66	43583.12
629.81	42967.55
629.96	42904.36
630.11	42703.07
630.26	42965.21
630.41	43393.53
630.56	42911.38
630.71	43569.07
630.86	43126.71
631.01	42574.34
631.16	42429.23
631.31	42492.43
631.46	42672.65
631.61	42862.23
631.76	43136.07
631.91	42562.64
632.06	42962.87
632.21	42892.66
632.36	43035.43
632.51	42541.58
632.66	42543.92
632.81	42462.00
632.96	43007.34
633.10	42230.29
633.25	42288.80
633.40	42316.89
633.55	42674.99
633.70	42405.83
633.85	42508.81
634.00	42344.97
634.15	42368.38
634.30	42293.48
634.45	42410.51
634.60	42319.23
634.75	42267.73
634.90	42520.51
635.05	42948.83
635.19	42241.99
635.34	42127.30
635.49	41820.69
635.64	42319.23
635.79	42745.20
635.94	42176.45
636.09	42405.83
636.24	41949.42
636.39	42094.53
636.53	42609.45
636.68	41876.86
636.83	41591.32
636.98	41883.89
637.13	41911.97
637.28	42192.84
637.43	41713.03
637.57	42085.17
637.72	41771.54
637.87	41837.08
638.02	41989.21
638.17	41853.46
638.32	41558.55
638.46	41340.88
638.61	41106.83
638.76	41530.47
638.91	41738.77
639.06	41296.41
639.20	41535.15
639.35	41642.81
639.50	41834.74
639.65	41680.26
639.80	41961.12
639.94	41914.31
640.09	41514.08
640.24	41418.12
640.39	40882.14
640.54	41193.43
640.68	41422.80
640.83	41448.55
640.98	41401.74
641.13	41137.26
641.27	41457.91
641.42	41537.49
641.57	40933.63
641.72	41296.41
641.86	41380.67
642.01	41092.79
642.16	40858.73
642.31	40957.03
642.45	41244.92
642.60	40893.84
642.75	41050.66
642.90	41158.32
643.04	40854.05
643.19	40811.92
643.34	40540.42
643.48	40687.87
643.63	40971.08
643.78	40928.95
643.93	41237.90
644.07	40795.54
644.22	40898.52
644.37	41071.72
644.51	40900.86
644.66	40840.01
644.81	40734.68
644.95	40617.66
645.10	40662.13
645.25	40376.58
645.39	40383.60
645.54	40456.16
645.69	40271.26
645.83	40292.32
645.98	40275.94
646.13	40381.26
646.27	40189.34
646.42	39938.90
646.57	40509.99
646.71	40531.06
646.86	40336.79
647.00	40570.85
647.15	40559.14
647.30	40488.93
647.44	40203.38
647.59	40247.85
647.74	40215.08
647.88	40084.01
648.03	40229.13
648.17	40786.18
648.32	40245.51
648.47	40271.26
648.61	39641.65
648.76	40163.59
648.90	40018.48
649.05	39959.97
649.20	39927.20
649.34	40023.16
649.49	40088.70
649.63	40311.05
649.78	40226.79
649.92	40212.74
650.07	39922.52
650.21	39763.36
650.36	40318.07
650.51	40004.44
650.65	40191.68
650.80	39725.91
650.94	40020.82
651.09	39569.10
651.23	39648.68
651.38	39651.02
651.52	39798.47
651.67	39423.98
651.81	39608.89
651.96	39519.95
652.10	38876.30
652.25	39339.72
652.39	39325.68
652.54	39150.14
652.68	39433.35
652.83	39241.42
652.97	40032.52
653.12	39290.57
653.26	39529.31
653.41	39388.88
653.55	39562.08
653.70	39360.79
653.84	39555.05
653.99	39276.53
654.13	39426.32
654.27	39234.40
654.42	39321.00
654.56	39000.35
654.71	39309.30
654.85	39054.18
655.00	39459.09
655.14	39475.48
655.29	39274.19
655.43	39306.96
655.57	38983.96
655.72	38508.83
655.86	38838.85
656.01	38979.28
656.15	38646.93
656.30	38752.25
656.44	38911.41
656.58	38829.49
656.73	38391.81
656.87	37921.36
657.01	38576.71
657.16	38792.04
657.30	38637.56
657.45	38742.89
657.59	38703.10
657.73	38607.14
657.88	38504.15
658.02	39037.80
658.16	39005.03
658.31	38710.12
658.45	38845.87
658.60	38209.25
658.74	38721.82
658.88	38621.18
659.03	37888.59
659.17	38134.35
659.31	37804.33
659.46	37921.36
659.60	38284.14
659.74	37912.00
659.89	38036.05
660.03	37436.87
660.17	38120.31
660.32	37577.30
660.46	37764.54
660.60	37570.28
660.74	37787.95
660.89	37500.06
661.03	37752.84
661.17	37167.71
661.32	37228.56
661.46	37518.79
661.60	37523.47
661.74	37551.56
661.89	37322.18
662.03	37120.90
662.17	37251.97
662.31	37340.91
662.46	37619.43
662.60	37109.19
662.74	36844.71
662.88	36615.34
663.03	36753.43
663.17	36690.24
663.31	36706.62
663.45	36823.65
663.60	36760.45
663.74	36608.32
663.88	36868.12
664.02	36404.69
664.17	36641.09
664.31	36252.56
664.45	36004.46
664.59	36554.49
664.73	36336.82
664.88	36575.55
665.02	36245.54
665.16	36194.04
665.30	36315.75
665.44	36070.00
665.59	35737.64
665.73	36051.27
665.87	35707.21
666.01	35941.27
666.15	35899.14
666.29	35545.72
666.44	36240.86
666.58	35751.68
666.72	35494.22
666.86	35569.12
667.00	35440.39
667.14	35117.40
667.28	35077.61
667.43	35543.38
667.57	35232.08
667.71	35236.77
667.85	35440.39
667.99	35124.42
668.13	35000.37
668.27	34881.00
668.41	34986.33
668.56	34541.63
668.70	34576.73
668.84	34471.41
668.98	34529.92
669.12	34653.97
669.26	34403.53
669.40	34684.40
669.54	34424.60
669.68	34829.51
669.82	34167.14
669.96	34527.58
670.10	33654.56
670.25	33970.54
670.39	34050.11
670.53	34176.50
670.67	33993.94
670.81	33970.54
670.95	34190.55
671.09	33958.83
671.23	33626.48
671.37	33661.58
671.51	33263.69
671.65	33387.74
671.79	33053.05
671.93	33773.93
672.07	33577.33
672.21	33553.92
672.35	33277.74
672.49	33539.88
672.63	33275.40
672.77	32762.82
672.91	33340.93
673.05	32737.07
673.19	32418.76
673.33	32769.84
673.47	32645.79
673.61	32493.66
673.75	32107.47
673.89	32374.29
674.03	32273.65
674.17	32283.01
674.31	32095.77
674.45	32020.87
674.59	31903.84
674.73	32044.27
674.87	31847.67
675.01	31618.30
675.15	31543.40
675.29	31592.55
675.43	31782.13
675.56	31723.62
675.70	31740.00
675.84	31419.35
675.98	30246.74
676.12	31346.79
676.26	31578.51
676.40	30897.41
676.54	30930.18
676.68	30778.04
676.82	30115.67
676.96	30710.17
677.10	30721.87
677.23	30518.25
677.37	30773.36
677.51	30490.16
677.65	30272.49
677.79	30050.14
677.93	29827.79
678.07	30085.25
678.21	29890.98
678.34	29364.36
678.48	29645.23
678.62	29809.06
678.76	29319.89
678.90	29329.25
679.04	29457.98
679.18	29282.44
679.31	29237.97
679.45	28769.86
679.59	28954.77
679.73	29039.03
679.87	28692.63
680.00	28844.76
680.14	28467.94
680.28	28341.55
680.42	28673.90
680.56	28404.74
680.70	28149.62
680.83	27826.63
680.97	28074.73
681.11	28006.85
681.25	27859.40
681.39	27428.74
681.52	27527.04
681.66	27229.79
681.80	27164.26
681.94	27206.39
682.07	27030.85
682.21	27199.37
682.35	27080.00
682.49	27098.72
682.62	26782.75
682.76	27105.74
682.90	26616.57
683.04	26951.27
683.17	26735.94
683.31	26316.98
683.45	26307.62
683.59	26064.21
683.72	25940.16
683.86	26263.15
684.00	25783.34
684.13	26026.76
684.27	25589.08
684.41	25729.51
684.55	25678.02
684.68	25603.12
684.82	25612.48
684.96	25378.43
685.09	25460.35
685.23	25535.24
685.37	25607.80
685.50	25497.80
685.64	25207.57
685.78	25053.09
685.91	24711.38
686.05	24814.36
686.19	24376.68
686.32	24119.22
686.46	23960.06
686.60	24030.28
686.73	24304.12
686.87	24364.98
687.01	24460.94
687.14	24383.70
687.28	23566.85
687.42	23971.77
687.55	23700.26
687.69	23527.06
687.82	23393.65
687.96	23147.90
688.10	23407.70
688.23	23379.61
688.37	23548.13
688.50	23229.82
688.64	23269.61
688.78	23178.33
688.91	22703.20
689.05	22860.01
689.18	22455.10
689.32	22246.79
689.46	22450.42
689.59	22359.14
689.73	22410.63
689.86	22462.12
690.00	22104.02
690.13	22324.03
690.27	22031.46
690.41	22309.99
690.54	21635.91
690.68	21909.75
690.81	21689.74
690.95	21462.71
691.08	21600.80
691.22	21095.25
691.35	21256.75
691.49	21186.53
691.62	21575.06
691.76	20676.29
691.89	20753.53
692.03	20699.70
692.16	20418.83
692.30	20601.40
692.43	20599.05
692.57	20212.87
692.70	20493.73
692.84	20084.14
692.97	19889.87
693.11	19960.09
693.24	19974.13
693.38	19873.49
693.51	19721.35
693.65	19410.06
693.78	19253.25
693.92	19456.87
694.05	19763.48
694.19	19323.46
694.32	19239.20
694.45	19412.40
694.59	19456.87
694.72	19302.40
694.86	18860.04
694.99	19185.37
695.13	18956.00
695.26	18497.25
695.39	18511.30
695.53	18806.20
695.66	18515.98
695.80	18487.89
695.93	18258.52
696.07	18106.38
696.20	18244.48
696.33	17848.93
696.47	17783.39
696.60	17769.35
696.73	17921.48
696.87	18169.58
697.00	17729.56
697.14	17642.96
697.27	17514.23
697.40	17074.21
697.54	17607.85
697.67	17635.94
697.80	17114.00
697.94	17305.92
698.07	17291.88
698.21	16924.41
698.34	17071.87
698.47	16884.62
698.61	16554.61
698.74	16341.62
698.87	16592.06
699.01	16421.20
699.14	16042.03
699.27	16299.49
699.40	16353.32
699.54	16271.40
699.67	16093.52
699.80	16222.25
699.94	15791.59
700.07	16056.08
700.20	15861.81
700.34	15571.58
700.47	15548.18
700.60	15812.66
700.73	15662.86
700.87	15548.18
701.00	15421.79
701.13	15178.37
701.26	15253.27
701.40	15119.86
701.53	15066.03
701.66	14984.11
701.79	14850.70
701.93	14848.36
702.06	14710.27
702.19	14483.24
702.32	14668.14
702.46	14413.02
702.59	14530.05
702.72	14494.94
702.85	14459.83
702.99	14766.44
703.12	14171.94
703.25	14230.46
703.38	14017.47
703.51	14265.57
703.65	13820.86
703.78	13806.82
703.91	13659.37
704.04	14073.64
704.17	13797.46
704.31	13614.90
704.44	13474.46
704.57	13696.82
704.70	13542.34
704.83	13334.03
704.96	13249.77
705.10	13263.82
705.23	13071.89
>>>>>End Processed Spectral Data<<<<<
