SpectraSuite Data File
++++++++++++++++++++++++++++++++++++
Date: Fri Oct 25 10:43:39 EDT 2013
User: price-jones
Dark Spectrum Present: No
Reference Spectrum Present: No
Number of Sampled Component Spectra: 1
Spectrometers: USB2+H05261
Integration Time (usec): 100000 (USB2+H05261)
Spectra Averaged: 1 (USB2+H05261)
Boxcar Smoothing: 0 (USB2+H05261)
Correct for Electrical Dark: No (USB2+H05261)
Strobe/Lamp Enabled: No (USB2+H05261)
Correct for Detector Non-linearity: No (USB2+H05261)
Correct for Stray Light: No (USB2+H05261)
Number of Pixels in Processed Spectrum: 2048
>>>>>Begin Processed Spectral Data<<<<<
365.73	107.66
365.92	107.66
366.12	107.66
366.32	81.92
366.52	11.70
366.72	72.56
366.91	23.41
367.11	0.00
367.31	25.75
367.51	0.00
367.70	46.81
367.90	0.00
368.10	39.79
368.30	84.26
368.49	65.54
368.69	21.06
368.89	23.41
369.09	77.24
369.28	105.32
369.48	42.13
369.68	79.58
369.87	53.83
370.07	84.26
370.27	84.26
370.47	198.95
370.66	351.08
370.86	416.62
371.06	475.13
371.25	433.00
371.45	454.06
371.65	425.98
371.84	409.59
372.04	421.30
372.24	500.87
372.44	514.92
372.63	491.51
372.83	433.00
373.03	543.00
373.22	470.45
373.42	608.54
373.62	498.53
373.81	496.19
374.01	589.82
374.21	573.43
374.40	535.98
374.60	571.09
374.79	599.18
374.99	587.47
375.19	575.77
375.38	557.05
375.58	648.33
375.78	713.86
375.97	578.11
376.17	627.26
376.37	592.16
376.56	645.99
376.76	552.37
376.95	620.24
377.15	629.60
377.35	678.76
377.54	657.69
377.74	578.11
377.93	657.69
378.13	678.76
378.33	688.12
378.52	636.63
378.72	697.48
378.91	676.41
379.11	636.63
379.31	681.10
379.50	622.58
379.70	725.57
379.89	734.93
380.09	660.03
380.28	648.33
380.48	720.88
380.68	674.07
380.87	706.84
381.07	732.59
381.26	706.84
381.46	650.67
381.65	739.61
381.85	627.26
382.04	678.76
382.24	667.05
382.43	763.01
382.63	744.29
382.83	709.18
383.02	678.76
383.22	692.80
383.41	770.04
383.61	777.06
383.80	795.78
384.00	753.65
384.19	812.17
384.39	821.53
384.58	837.91
384.78	837.91
384.97	739.61
385.17	823.87
385.36	805.14
385.56	784.08
385.75	823.87
385.95	844.93
386.14	788.76
386.34	716.20
386.53	882.38
386.72	919.83
386.92	866.00
387.11	863.66
387.31	833.23
387.50	856.64
387.70	917.49
387.89	945.58
388.09	926.85
388.28	896.43
388.48	863.66
388.67	933.87
388.86	894.08
389.06	952.60
389.25	931.53
389.45	1043.88
389.64	884.72
389.84	1046.22
390.03	1025.15
390.22	1046.22
390.42	1027.50
390.61	1046.22
390.81	966.64
391.00	1050.90
391.19	1036.86
391.39	999.41
391.58	1069.62
391.78	1055.58
391.97	1095.37
392.16	1043.88
392.36	1036.86
392.55	1055.58
392.75	954.94
392.94	1029.84
393.13	961.96
393.33	1064.94
393.52	1041.54
393.71	1069.62
393.91	1233.46
394.10	1029.84
394.29	1177.29
394.49	1160.91
394.68	1184.31
394.88	1174.95
395.07	1207.72
395.26	1181.97
395.46	1210.06
395.65	1273.25
395.84	1284.95
396.04	1191.33
396.23	1137.50
396.42	1172.61
396.62	1109.41
396.81	1130.48
397.00	1254.53
397.19	1336.45
397.39	1376.24
397.58	1387.94
397.77	1331.76
397.97	1441.77
398.16	1413.68
398.35	1465.18
398.55	1500.28
398.74	1448.79
398.93	1598.59
399.12	1516.67
399.32	1504.96
399.51	1511.99
399.70	1507.30
399.90	1577.52
400.09	1598.59
400.28	1650.08
400.47	1516.67
400.67	1537.73
400.86	1629.01
401.05	1692.21
401.24	1727.32
401.44	1638.38
401.63	1593.90
401.82	1811.57
402.01	1678.16
402.21	1760.08
402.40	1797.53
402.59	1732.00
402.78	1778.81
402.97	1696.89
403.17	1771.79
403.36	1837.32
403.55	1902.86
403.74	1916.90
403.93	1907.54
404.13	1891.15
404.32	1818.60
404.51	2008.18
404.70	2012.86
404.89	1947.33
405.09	1991.80
405.28	2017.54
405.47	2015.20
405.66	1952.01
405.85	1970.73
406.05	2085.42
406.24	1898.17
406.43	2050.31
406.62	2083.08
406.81	2076.06
407.00	2078.40
407.20	2106.48
407.39	2106.48
407.58	2190.74
407.77	2174.36
407.96	2193.08
408.15	2223.51
408.34	2321.81
408.54	2303.09
408.73	2260.96
408.92	2260.96
409.11	2279.68
409.30	2375.64
409.49	2275.00
409.68	2359.26
409.87	2331.17
410.07	2373.30
410.26	2333.51
410.45	2415.43
410.64	2583.95
410.83	2562.89
411.02	2506.71
411.21	2612.04
411.40	2616.72
411.59	2715.02
411.78	2752.47
411.98	2630.76
412.17	2642.46
412.36	2738.43
412.55	2649.49
412.74	2759.49
412.93	2827.37
413.12	2703.32
413.31	2956.10
413.50	2918.65
413.69	2836.73
413.88	2977.16
414.07	2991.20
414.26	3108.23
414.45	3112.91
414.64	2981.84
414.83	3108.23
415.02	3169.09
415.22	3103.55
415.41	3279.09
415.60	3225.26
415.79	3166.74
415.98	3321.22
416.17	3302.50
416.36	3239.30
416.55	3155.04
416.74	3344.63
416.93	3335.26
417.12	3428.88
417.31	3421.86
417.50	3400.80
417.69	3489.74
417.88	3431.23
418.07	3482.72
418.26	3431.23
418.45	3555.27
418.64	3714.43
418.83	3433.57
419.02	3545.91
419.21	3606.77
419.39	3604.42
419.58	3559.95
419.77	3534.21
419.96	3698.05
420.15	3723.79
420.34	3770.60
420.53	3770.60
420.72	3889.97
420.91	3861.88
421.10	3911.04
421.29	3950.82
421.48	3854.86
421.67	3885.29
421.86	3887.63
422.05	3859.54
422.24	3817.41
422.43	3859.54
422.61	3904.01
422.80	3913.38
422.99	3971.89
423.18	3936.78
423.37	4175.52
423.56	3992.95
423.75	3899.33
423.94	3857.20
424.13	3623.15
424.32	3854.86
424.50	4007.00
424.69	4049.13
424.88	4079.55
425.07	4018.70
425.26	4014.02
425.45	3904.01
425.64	3871.25
425.83	4060.83
426.01	4133.39
426.20	4112.32
426.39	4112.32
426.58	3983.59
426.77	4035.08
426.96	3955.51
427.15	4023.38
427.33	4044.45
427.52	4109.98
427.71	4135.73
427.90	4184.88
428.09	4231.69
428.28	4166.15
428.46	4276.16
428.65	4194.24
428.84	4205.94
429.03	4355.74
429.22	4140.41
429.40	4182.54
429.59	4067.85
429.78	4011.68
429.97	4039.76
430.16	4095.94
430.34	4032.74
430.53	4109.98
430.72	4177.86
430.91	4109.98
431.10	4407.23
431.28	4582.77
431.47	4725.54
431.66	4704.48
431.85	4542.98
432.03	4772.35
432.22	4652.98
432.41	4699.80
432.60	4636.60
432.79	4779.37
432.97	4877.68
433.16	4873.00
433.35	4737.24
433.54	4629.58
433.72	4725.54
433.91	4676.39
434.10	4755.97
434.28	4833.21
434.47	4954.91
434.66	4833.21
434.85	5036.83
435.03	5027.47
435.22	5029.81
435.41	5226.42
435.59	5071.94
435.78	5224.08
435.97	5254.50
436.16	5149.18
436.34	5078.96
436.53	5039.17
436.72	5425.36
436.90	5001.72
437.09	5198.33
437.28	5172.58
437.46	5238.12
437.65	5261.52
437.84	5184.29
438.02	5235.78
438.21	5217.05
438.40	5172.58
438.58	5495.58
438.77	5392.59
438.96	5504.94
439.14	5724.95
439.33	5713.25
439.52	5720.27
439.70	5673.46
439.89	5650.05
440.08	5856.02
440.26	5902.83
440.45	5750.70
440.63	5841.98
440.82	6029.22
441.01	5905.17
441.19	5959.00
441.38	6113.48
441.57	6118.16
441.75	6246.89
441.94	6403.71
442.12	6256.25
442.31	6492.65
442.50	6368.60
442.68	6361.58
442.87	6363.92
443.05	6497.33
443.24	6415.41
443.43	6370.94
443.61	6483.28
443.80	6612.01
443.98	6384.98
444.17	6382.64
444.35	6579.25
444.54	6635.42
444.73	6597.97
444.91	6686.91
445.10	6516.05
445.28	6537.12
445.47	6537.12
445.65	6370.94
445.84	6436.47
446.02	6775.85
446.21	6672.87
446.39	6583.93
446.58	6715.00
446.77	6502.01
446.95	6548.82
447.14	6724.36
447.32	7002.88
447.51	6836.70
447.69	6974.80
447.88	6801.60
448.06	6808.62
448.25	6827.34
448.43	7026.29
448.62	6850.75
448.80	6827.34
448.99	6881.18
449.17	6817.98
449.36	6691.59
449.54	7066.08
449.73	7119.91
449.91	7117.57
450.10	7239.28
450.28	7265.02
450.46	7440.56
450.65	7407.80
450.83	7487.37
451.02	7323.54
451.20	7508.44
451.39	7180.76
451.57	7349.28
451.76	7382.05
451.94	7339.92
452.13	7351.62
452.31	7391.41
452.49	7208.85
452.68	7220.55
452.86	7250.98
453.05	7185.44
453.23	7545.89
453.42	7414.82
453.60	7288.43
453.78	7602.06
453.97	7550.57
454.15	7461.63
454.34	7311.83
454.52	7632.49
454.70	7545.89
454.89	7637.17
455.07	7679.30
455.26	7730.79
455.44	7808.03
455.62	7705.04
455.81	7838.45
455.99	7793.98
456.17	7899.31
456.36	8056.12
456.54	8049.10
456.73	8131.02
456.91	8215.28
457.09	8126.34
457.28	8524.23
457.46	8013.99
457.64	8273.79
457.83	8131.02
458.01	8196.56
458.19	8344.01
458.38	8241.03
458.56	8463.38
458.74	8271.45
458.93	8365.07
459.11	8252.73
459.29	8201.24
459.48	8344.01
459.66	8423.59
459.84	8510.19
460.03	8589.77
460.21	8557.00
460.39	8603.81
460.57	8535.93
460.76	8557.00
460.94	8737.22
461.12	8758.28
461.31	8676.37
461.49	8676.37
461.67	8809.78
461.85	9006.38
462.04	8835.52
462.22	9341.08
462.40	9202.99
462.59	9090.64
462.77	9114.05
462.95	9170.22
463.13	8879.99
463.32	8994.68
463.50	9130.43
463.68	9109.36
463.86	9266.18
464.05	9104.68
464.23	9018.08
464.41	9167.88
464.59	9111.71
464.78	9177.24
464.96	9121.07
465.14	9092.98
465.32	9376.19
465.50	9371.50
465.69	9200.65
465.87	9289.59
466.05	9172.56
466.23	9266.18
466.41	9210.01
466.60	9460.45
466.78	9170.22
466.96	9282.56
467.14	9343.42
467.32	9280.22
467.51	9540.02
467.69	9266.18
467.87	9554.07
468.05	9451.08
468.23	9521.30
468.41	9462.79
468.60	9762.37
468.78	9650.03
468.96	9579.81
469.14	9856.00
469.32	9912.17
469.50	9607.90
469.69	9804.50
469.87	9879.40
470.05	10026.86
470.23	9916.85
470.41	9841.95
470.59	9933.23
470.77	10043.24
470.95	9900.47
471.14	10228.14
471.32	10045.58
471.50	10483.26
471.68	10501.98
471.86	10445.81
472.04	10525.39
472.22	10721.99
472.40	10139.20
472.58	10579.22
472.77	10574.54
472.95	10729.02
473.13	10927.96
473.31	10497.30
473.49	10750.08
473.67	10689.23
473.85	10932.64
474.03	11183.08
474.21	11250.96
474.39	11400.75
474.57	11138.61
474.75	11349.26
474.93	11311.81
475.12	11499.05
475.30	11389.05
475.48	11293.08
475.66	11246.27
475.84	11466.28
476.02	11552.88
476.20	11630.12
476.38	11864.18
476.56	12016.31
476.74	11882.90
476.92	11997.59
477.10	11913.33
477.28	12233.98
477.46	12233.98
477.64	12343.99
477.82	12348.67
478.00	12524.21
478.18	12648.26
478.36	12671.66
478.54	12886.99
478.72	12622.51
478.90	12926.78
479.08	13064.87
479.26	13217.01
479.44	13310.63
479.62	13378.50
479.80	13617.24
479.98	13584.47
480.16	13982.36
480.34	13619.58
480.52	13603.19
480.70	13837.25
480.88	13806.82
481.06	14052.58
481.24	13980.02
481.41	14518.34
481.59	14368.55
481.77	14567.49
481.95	14717.29
482.13	14665.80
482.31	14714.95
482.49	15122.20
482.67	14944.32
482.85	15159.65
483.03	15110.50
483.21	15473.28
483.39	15667.55
483.57	15768.19
483.74	15529.45
483.92	16070.12
484.10	15868.83
484.28	16046.71
484.46	16018.63
484.64	16453.97
484.82	16187.14
485.00	16376.73
485.18	16477.37
485.35	16751.21
485.53	16336.94
485.71	16208.21
485.89	16491.41
486.07	16489.07
486.25	16769.94
486.43	17092.93
486.61	17195.92
486.78	17331.67
486.96	17493.16
487.14	17694.45
487.32	17830.20
487.50	18132.13
487.68	18302.99
487.85	18633.00
488.03	18251.50
488.21	18845.99
488.39	18754.71
488.57	18735.99
488.75	19066.00
488.92	19374.95
489.10	19440.49
489.28	19447.51
489.46	19524.75
489.64	19770.51
489.81	20250.32
489.99	20051.37
490.17	20336.91
490.35	20779.28
490.53	20411.81
490.70	20889.28
490.88	20641.18
491.06	21099.93
491.24	20933.75
491.41	20952.48
491.59	20849.49
491.77	20898.64
491.95	21135.04
492.13	21392.50
492.30	21649.96
492.48	21776.34
492.66	21525.91
492.84	22019.76
493.01	22480.85
493.19	22340.41
493.37	22309.99
493.54	22654.05
493.72	22874.06
493.90	22817.88
494.08	23295.35
494.25	23473.23
494.43	23283.65
494.61	23410.04
494.79	23658.14
494.96	23887.51
495.14	23271.95
495.32	24009.22
495.49	23847.72
495.67	24060.71
495.85	24191.78
496.02	24177.73
496.20	24697.33
496.38	24577.97
496.55	24793.29
496.73	25338.64
496.91	24861.17
497.09	25259.06
497.26	25397.15
497.44	25137.35
497.62	25678.02
497.79	25678.02
497.97	25200.55
498.14	25689.72
498.32	25207.57
498.50	25795.04
498.67	26508.91
498.85	26338.05
499.03	26312.30
499.20	26490.18
499.38	26508.91
499.56	26398.90
499.73	26951.27
499.91	26892.76
500.08	26738.28
500.26	26441.03
500.44	26693.81
500.61	27227.45
500.79	26979.36
500.97	27087.02
501.14	27374.91
501.32	27508.32
501.49	27585.55
501.67	27573.85
501.84	27686.20
502.02	27651.09
502.20	27611.30
502.37	27800.88
502.55	28060.68
502.72	28676.24
502.90	28362.61
503.07	28077.07
503.25	28067.70
503.43	28023.23
503.60	28386.02
503.78	28430.49
503.95	28390.70
504.13	28856.46
504.30	29120.95
504.48	28858.81
504.65	29333.93
504.83	29120.95
505.01	29312.87
505.18	29495.43
505.36	29488.41
505.53	29776.30
505.71	29832.47
505.88	30059.50
506.06	30040.78
506.23	29818.42
506.41	29757.57
506.58	30045.46
506.76	30602.50
506.93	30497.18
507.11	30167.16
507.28	30443.35
507.46	29930.77
507.63	30263.13
507.81	30637.61
507.98	30361.43
508.16	31035.50
508.33	30817.83
508.50	31084.65
508.68	31356.16
508.85	31491.91
509.03	31101.04
509.20	31363.18
509.38	31278.92
509.55	31388.92
509.73	31433.39
509.90	31519.99
510.08	31538.72
510.25	31936.61
510.42	32187.05
510.60	32318.12
510.77	32212.79
510.95	32430.46
511.12	32156.62
511.30	32280.67
511.47	32601.32
511.64	32568.55
511.82	32446.85
511.99	32407.06
512.17	32800.27
512.34	32472.59
512.51	32898.57
512.69	32933.68
512.86	33326.89
513.04	33036.66
513.21	33027.30
513.38	32940.70
513.56	33354.97
513.73	32982.83
513.90	33294.12
514.08	33469.66
514.25	33605.41
514.43	33235.61
514.60	33624.14
514.77	33228.59
514.95	33954.15
515.12	33692.01
515.29	33834.78
515.47	34527.58
515.64	34515.88
515.81	33970.54
515.99	34003.30
516.16	33979.90
516.33	33986.92
516.51	33914.36
516.68	33626.48
516.85	33876.91
517.03	33989.26
517.20	33947.13
517.37	34155.44
517.54	34883.34
517.72	34562.69
517.89	34019.69
518.06	34370.77
518.24	34113.31
518.41	34656.31
518.58	35037.82
518.75	35028.46
518.93	35002.71
519.10	34979.31
519.27	35360.81
519.45	35613.59
519.62	35732.96
519.79	35735.30
519.96	35714.23
520.14	35761.05
520.31	35548.06
520.48	35641.68
520.65	36037.23
520.83	36187.02
521.00	36282.98
521.17	35978.72
521.34	36287.67
521.52	36367.24
521.69	36774.50
521.86	36769.82
522.03	36444.48
522.20	36414.05
522.38	36959.40
522.55	36547.47
522.72	36643.43
522.89	36360.22
523.07	36657.47
523.24	37193.45
523.41	37387.72
523.58	37146.64
523.75	37727.10
523.92	37769.22
524.10	37530.49
524.27	37701.35
524.44	37359.63
524.61	37462.61
524.78	37640.50
524.96	37600.71
525.13	37809.01
525.30	37766.88
525.47	37947.11
525.64	38368.40
525.81	37834.76
525.98	37738.80
526.16	37773.91
526.33	37493.04
526.50	37745.82
526.67	37378.36
526.84	38045.41
527.01	37357.29
527.18	38253.72
527.36	38387.13
527.53	38251.38
527.70	38794.38
527.87	38583.73
528.04	38258.40
528.21	38873.96
528.38	38607.14
528.55	39075.24
528.72	39283.55
528.89	39051.84
529.07	39016.73
529.24	38707.78
529.41	39473.13
529.58	39058.86
529.75	38953.54
529.92	38899.70
530.09	39342.06
530.26	40009.12
530.43	39885.07
530.60	39318.66
530.77	39775.06
530.94	39625.27
531.11	39452.07
531.28	39985.71
531.46	39716.55
531.63	39761.02
531.80	39592.50
531.97	39494.20
532.14	39435.69
532.31	39667.40
532.48	39494.20
532.65	39847.62
532.82	40023.16
532.99	39819.53
533.16	39995.07
533.33	40144.87
533.50	40226.79
533.67	40362.54
533.84	40175.30
534.01	40306.37
534.18	40257.21
534.35	40521.69
534.52	40421.05
534.69	40868.09
534.86	40334.45
535.03	40552.12
535.20	40985.12
535.37	41207.47
535.54	41038.95
535.71	40903.20
535.88	41048.32
536.05	41078.74
536.22	40882.14
536.38	40999.16
536.55	40921.93
536.72	40814.26
536.89	40383.60
537.06	41134.92
537.23	41071.72
537.40	41572.60
537.57	41104.49
537.74	41315.14
537.91	41890.91
538.08	41855.80
538.25	41205.13
538.42	41160.66
538.59	41710.69
538.75	41158.32
538.92	41773.88
539.09	41469.61
539.26	41790.27
539.43	41560.89
539.60	41797.29
539.77	41614.72
539.94	41874.52
540.11	41478.97
540.28	41727.07
540.44	42054.75
540.61	41483.66
540.78	41441.53
540.95	41799.63
541.12	41858.14
541.29	41928.36
541.46	41792.61
541.62	42115.60
541.79	42082.83
541.96	41638.13
542.13	42419.87
542.30	41956.44
542.47	42277.10
542.63	42150.71
542.80	42480.72
542.97	42588.39
543.14	42735.84
543.31	42721.80
543.48	43009.68
543.64	43164.16
543.81	43290.55
543.98	43613.54
544.15	43079.90
544.32	43115.01
544.48	43566.73
544.65	43269.48
544.82	43199.27
544.99	42866.91
545.16	43002.66
545.32	42913.72
545.49	43798.44
545.66	43524.60
545.83	43704.82
546.00	43889.73
546.16	43484.81
546.33	43346.72
546.50	43042.45
546.67	43835.89
546.83	43110.33
547.00	43269.48
547.17	43220.33
547.34	43468.43
547.50	43423.96
547.67	43859.30
547.84	43302.25
548.00	44147.18
548.17	43798.44
548.34	44098.03
548.51	43885.04
548.67	44399.96
548.84	44009.09
549.01	44119.10
549.18	43985.69
549.34	43920.15
549.51	44165.91
549.68	44320.38
549.84	44285.28
550.01	44285.28
550.18	44233.78
550.34	44514.65
550.51	44484.22
550.68	44194.00
550.84	43899.09
551.01	44549.76
551.18	44304.00
551.34	44575.50
551.51	44313.36
551.68	44364.85
551.84	44767.43
552.01	44327.41
552.18	44294.64
552.34	44275.91
552.51	44451.45
552.68	44559.12
552.84	44767.43
553.01	44687.85
553.18	44240.81
553.34	44346.13
553.51	44739.34
553.67	44802.53
553.84	45027.23
554.01	45177.02
554.17	44872.75
554.34	44851.69
554.51	44882.11
554.67	44816.58
554.84	44797.85
555.00	44912.54
555.17	44563.80
555.33	45399.37
555.50	45139.57
555.67	45092.76
555.83	44725.30
556.00	44968.71
556.16	45549.17
556.33	44729.98
556.50	44671.46
556.66	44893.82
556.83	44746.36
556.99	45478.95
557.16	45256.60
557.32	44903.18
557.49	45769.18
557.65	45415.76
557.82	45542.14
557.98	45446.18
558.15	45137.23
558.32	45120.85
558.48	45291.71
558.65	45338.52
558.81	44903.18
558.98	45291.71
559.14	45202.77
559.31	45092.76
559.47	45345.54
559.64	45549.17
559.80	45439.16
559.97	45467.25
560.13	44921.90
560.30	45422.78
560.46	45832.37
560.63	45291.71
560.79	45588.95
560.96	46005.57
561.12	45804.28
561.29	44870.41
561.45	45827.69
561.61	45830.03
561.78	45364.26
561.94	45570.23
562.11	45050.63
562.27	45642.79
562.44	45701.30
562.60	45902.59
562.77	45785.56
562.93	45249.58
563.10	46033.66
563.26	45605.34
563.42	45947.06
563.59	45453.20
563.75	45680.24
563.92	46230.26
564.08	45909.61
564.24	46169.41
564.41	46026.63
564.57	45911.95
564.74	45399.37
564.90	45855.78
565.07	45998.55
565.23	45558.53
565.39	45918.97
565.56	46017.27
565.72	45724.71
565.88	45790.24
566.05	45469.59
566.21	46160.05
566.38	45783.22
566.54	45703.64
566.70	46333.24
566.87	46244.30
567.03	45949.40
567.19	46153.02
567.36	46087.49
567.52	45972.80
567.68	46138.98
567.85	45556.19
568.01	46263.03
568.17	45794.92
568.34	46342.61
568.50	46068.76
568.66	45748.11
568.83	46096.85
568.99	45958.76
569.15	45982.16
569.32	45790.24
569.48	46169.41
569.64	46052.38
569.81	46078.13
569.97	46153.02
570.13	46162.39
570.30	45942.38
570.46	45619.38
570.62	45560.87
570.78	45579.59
570.95	45713.00
571.11	45897.91
571.27	45734.07
571.43	46162.39
571.60	45790.24
571.76	46169.41
571.92	45815.99
572.09	46036.00
572.25	46335.59
572.41	46571.98
572.57	46103.87
572.74	46902.00
572.90	46387.08
573.06	46522.83
573.22	46581.34
573.38	46211.54
573.55	45563.21
573.71	46445.59
573.87	46300.48
574.03	45918.97
574.20	46649.22
574.36	46204.52
574.52	46209.20
574.68	46270.05
574.84	46337.93
575.01	45773.86
575.17	46171.75
575.33	45661.51
575.49	46143.66
575.65	46295.80
575.82	46281.75
575.98	45610.02
576.14	46630.49
576.30	46267.71
576.46	46183.45
576.62	46202.18
576.79	46176.43
576.95	46162.39
577.11	46476.02
577.27	46422.19
577.43	45911.95
577.59	46192.81
577.75	45904.93
577.92	45996.21
578.08	46073.45
578.24	45872.16
578.40	46408.14
578.56	46260.69
578.72	46244.30
578.88	46541.55
579.04	46298.14
579.21	46012.59
579.37	45841.73
579.53	46176.43
579.69	46330.90
579.85	46438.57
580.01	46234.94
580.17	45907.27
580.33	46581.34
580.49	46560.28
580.65	46092.17
580.82	46089.83
580.98	46513.47
581.14	46499.42
581.30	46497.08
581.46	46227.92
581.62	46206.86
581.78	46279.41
581.94	47019.02
582.10	46738.16
582.26	46389.42
582.42	46763.90
582.58	46366.01
582.74	46492.40
582.90	46506.44
583.06	46721.77
583.22	46263.03
583.38	46817.74
583.54	46962.85
583.70	46333.24
583.86	46518.15
584.02	46454.95
584.18	46323.88
584.34	46550.91
584.50	46478.36
584.66	46239.62
584.82	46450.27
584.98	46354.31
585.14	46314.52
585.30	46277.07
585.46	46274.73
585.62	46040.68
585.78	46075.79
585.94	46389.42
586.10	45986.85
586.26	46040.68
586.42	46674.96
586.58	46469.00
586.74	46220.90
586.90	46054.72
587.06	46192.81
587.22	46443.25
587.38	46436.23
587.54	46461.97
587.70	46445.59
587.86	46146.00
588.02	46096.85
588.18	46387.08
588.34	46110.89
588.49	45628.74
588.65	46021.95
588.81	45848.75
588.97	46506.44
589.13	45708.32
589.29	45909.61
589.45	45823.01
589.61	46050.04
589.77	46452.61
589.93	46316.86
590.08	46651.56
590.24	46490.06
590.40	46857.52
590.56	46616.45
590.72	46808.37
590.88	46637.51
591.04	46141.32
591.20	46937.10
591.35	46557.94
591.51	46813.05
591.67	46534.53
591.83	46047.70
591.99	46351.97
592.15	46461.97
592.31	46550.91
592.46	46391.76
592.62	46782.63
592.78	46665.60
592.94	46506.44
593.10	46366.01
593.26	46726.46
593.41	46293.46
593.57	46478.36
593.73	46010.25
593.89	46602.41
594.05	46277.07
594.20	46508.79
594.36	46316.86
594.52	46576.66
594.68	46129.62
594.84	46256.01
594.99	46656.24
595.15	46642.20
595.31	46534.53
595.47	46733.48
595.62	46550.91
595.78	46443.25
595.94	46681.98
596.10	46525.17
596.25	46677.30
596.41	46298.14
596.57	46553.26
596.73	46473.68
596.88	46068.76
597.04	46274.73
597.20	46787.31
597.36	46806.03
597.51	46731.14
597.67	46642.20
597.83	46431.55
597.99	46902.00
598.14	46344.95
598.30	46794.33
598.46	46270.05
598.61	46745.18
598.77	46756.88
598.93	46555.60
599.09	46361.33
599.24	46988.60
599.40	46972.21
599.56	46316.86
599.71	46588.36
599.87	46642.20
600.03	46822.42
600.18	46426.87
600.34	46454.95
600.50	46389.42
600.65	46534.53
600.81	46632.83
600.97	46583.68
601.12	46487.72
601.28	46679.64
601.44	46260.69
601.59	46330.90
601.75	46527.51
601.91	46024.29
602.06	46267.71
602.22	46305.16
602.37	46768.58
602.53	46483.04
602.69	46635.17
602.84	46478.36
603.00	45991.53
603.16	46422.19
603.31	46803.69
603.47	46534.53
603.62	46019.61
603.78	46293.46
603.94	46880.93
604.09	46955.83
604.25	46192.81
604.40	46595.38
604.56	46124.94
604.71	46632.83
604.87	46466.66
605.03	46714.75
605.18	46157.70
605.34	46326.22
605.49	46110.89
605.65	46810.71
605.80	46438.57
605.96	46452.61
606.12	46323.88
606.27	46883.27
606.43	46220.90
606.58	46532.19
606.74	46469.00
606.89	46408.14
607.05	46288.77
607.20	46199.83
607.36	46197.49
607.51	46291.12
607.67	46368.35
607.82	46429.21
607.98	46052.38
608.13	46183.45
608.29	46148.34
608.44	45514.06
608.60	45865.14
608.75	46213.88
608.91	46309.84
609.06	45975.14
609.22	46066.42
609.37	45916.63
609.53	45705.98
609.68	45806.62
609.84	45914.29
609.99	45846.41
610.15	45612.36
610.30	46272.39
610.46	45713.00
610.61	45542.14
610.76	45874.50
610.92	45977.48
611.07	45904.93
611.23	46394.10
611.38	45865.14
611.54	45958.76
611.69	45165.32
611.84	45741.09
612.00	46050.04
612.15	45186.38
612.31	46082.81
612.46	45958.76
612.62	46164.73
612.77	45736.41
612.92	45663.85
613.08	45055.31
613.23	45490.65
613.39	45029.57
613.54	45162.98
613.69	45432.14
613.85	45062.33
614.00	45542.14
614.15	45813.65
614.31	45528.10
614.46	45787.90
614.62	45436.82
614.77	45422.78
614.92	45528.10
615.08	45153.62
615.23	45628.74
615.38	45509.38
615.54	44758.06
615.69	45361.92
615.84	45567.89
616.00	45045.95
616.15	45249.58
616.30	45233.19
616.46	45048.29
616.61	44957.01
616.76	44877.43
616.92	44966.37
617.07	44985.10
617.22	45057.65
617.37	44737.00
617.53	44816.58
617.68	45111.49
617.83	44952.33
617.99	44907.86
618.14	44746.36
618.29	44467.84
618.45	44612.95
618.60	44598.91
618.75	44399.96
618.90	44512.31
619.06	44584.86
619.21	44467.84
619.36	44463.16
619.51	44524.01
619.67	44226.76
619.82	44584.86
619.97	44739.34
620.12	44055.90
620.28	44041.86
620.43	44694.87
620.58	44399.96
620.73	44315.70
620.89	44414.01
621.04	44360.17
621.19	44488.90
621.34	44540.39
621.49	44093.35
621.65	44154.21
621.80	44322.72
621.95	44397.62
622.10	44086.33
622.25	44158.89
622.41	44140.16
622.56	44023.14
622.71	44217.40
622.86	43496.52
623.01	44058.24
623.16	44079.31
623.32	43611.20
623.47	43629.93
623.62	44364.85
623.77	43875.68
623.92	44189.31
624.07	43278.85
624.23	43620.56
624.38	43838.23
624.53	43863.98
624.68	43786.74
624.83	43735.25
624.98	43948.24
625.13	43730.57
625.29	43529.28
625.44	43297.57
625.59	43325.66
625.74	43227.35
625.89	42904.36
626.04	43468.43
626.19	43105.65
626.34	43435.66
626.49	43524.60
626.65	43171.18
626.80	43405.23
626.95	43086.92
627.10	43129.05
627.25	42960.53
627.40	42988.62
627.55	42754.57
627.70	42614.13
627.85	43192.25
628.00	42916.06
628.15	43335.02
628.30	42843.51
628.45	43550.35
628.60	43000.32
628.76	43136.07
628.91	42731.16
629.06	42672.65
629.21	42401.14
629.36	42766.27
629.51	42604.77
629.66	42473.70
629.81	42366.04
629.96	42291.14
630.11	42630.52
630.26	43012.02
630.41	42600.09
630.56	42415.19
630.71	42639.88
630.86	42682.01
631.01	42260.71
631.16	42398.80
631.31	41647.49
631.46	41642.81
631.61	42232.63
631.76	42188.16
631.91	42052.41
632.06	42579.03
632.21	41940.06
632.36	42534.56
632.51	42211.56
632.66	42298.16
632.81	41659.20
632.96	42101.56
633.10	42169.43
633.25	41769.20
633.40	41792.61
633.55	42094.53
633.70	41830.05
633.85	42110.92
634.00	42314.55
634.15	42387.10
634.30	41219.17
634.45	41940.06
634.60	41846.44
634.75	41778.56
634.90	41574.94
635.05	41823.03
635.19	41221.52
635.34	41780.90
635.49	41977.51
635.64	41614.72
635.79	41361.95
635.94	41256.62
636.09	41448.55
636.24	41127.89
636.39	41411.10
636.53	41326.84
636.68	41022.57
636.83	40966.40
636.98	41284.71
637.13	41251.94
637.28	41748.14
637.43	41635.79
637.57	41638.13
637.72	40952.35
637.87	40954.69
638.02	41338.54
638.17	40975.76
638.32	40957.03
638.46	41371.31
638.61	40835.33
638.76	40968.74
638.91	40617.66
639.06	41043.63
639.20	40666.81
639.35	41343.22
639.50	40659.79
639.65	41174.70
639.80	40627.02
639.94	40524.04
640.09	40896.18
640.24	40711.28
640.39	40418.71
640.54	40509.99
640.68	40322.75
640.83	40495.95
640.98	39992.73
641.13	40041.88
641.27	40451.48
641.42	40236.15
641.57	40512.33
641.72	40727.66
641.86	40275.94
642.01	40542.76
642.16	40053.59
642.31	39828.90
642.45	40311.05
642.60	39903.79
642.75	40121.46
642.90	40538.08
643.04	40299.34
643.19	40355.52
643.34	40144.87
643.48	40245.51
643.63	40048.91
643.78	40039.54
643.93	40055.93
644.07	40189.34
644.22	39901.45
644.37	39803.15
644.51	39707.19
644.66	39725.91
644.81	40112.10
644.95	39981.03
645.10	39789.11
645.25	39838.26
645.39	39529.31
645.54	40032.52
645.69	39494.20
645.83	39864.00
645.98	39662.72
646.13	39557.39
646.27	39519.95
646.42	39679.10
646.57	39889.75
646.71	39400.58
646.86	39913.16
647.00	39559.73
647.15	39374.83
647.30	39222.70
647.44	39150.14
647.59	39295.25
647.74	39262.49
647.88	39192.27
648.03	39330.36
648.17	39332.70
648.32	39072.90
648.47	39285.89
648.61	39304.62
648.76	38946.51
648.90	39009.71
649.05	39019.07
649.20	39117.37
649.34	39236.74
649.49	38941.83
649.63	38377.76
649.78	39332.70
649.92	38955.88
650.07	39372.49
650.21	39072.90
650.36	38958.22
650.51	39124.40
650.65	39124.40
650.80	39559.73
650.94	38962.90
651.09	39012.05
651.23	38522.88
651.38	38541.60
651.52	38686.71
651.67	38160.09
651.81	38368.40
651.96	38649.27
652.10	38595.43
652.25	38789.70
652.39	38735.87
652.54	38583.73
652.68	38450.32
652.83	38660.97
652.97	38773.31
653.12	38759.27
653.26	38244.35
653.41	38300.53
653.55	38632.88
653.70	38249.03
653.84	38295.85
653.99	38181.16
654.13	38117.96
654.27	38220.95
654.42	38597.77
654.56	38230.31
654.71	38160.09
654.85	38216.27
655.00	37816.04
655.14	37661.56
655.29	37965.83
655.43	37785.61
655.57	37228.56
655.72	37518.79
655.86	37516.45
656.01	37291.76
656.15	37060.04
656.30	37378.36
656.44	37219.20
656.58	37546.87
656.73	37434.53
656.87	37436.87
657.01	37556.24
657.16	37165.37
657.30	37102.17
657.45	36790.88
657.59	37507.08
657.73	37198.13
657.88	37528.15
658.02	37551.56
658.16	37724.75
658.31	37324.52
658.45	37230.90
658.60	37450.91
658.74	37762.20
658.88	37427.51
659.03	37177.07
659.17	37027.28
659.31	36849.39
659.46	36975.78
659.60	37064.72
659.74	36566.19
659.89	36608.32
660.03	36601.30
660.17	36797.90
660.32	36907.91
660.46	37034.30
660.60	36577.89
660.74	36809.61
660.89	36837.69
661.03	36409.37
661.17	36928.97
661.32	36465.55
661.46	36383.63
661.60	36444.48
661.74	36362.56
661.89	36540.44
662.03	36552.15
662.17	36348.52
662.31	36224.47
662.46	36624.70
662.60	36517.04
662.74	36275.96
662.88	35770.41
663.03	36058.29
663.17	35842.96
663.31	35470.82
663.45	35824.24
663.60	35899.14
663.74	36013.82
663.88	35086.97
664.02	34991.01
664.17	35686.15
664.31	35281.24
664.45	35306.98
664.59	35421.67
664.73	35512.95
664.88	35384.22
665.02	34890.37
665.16	34881.00
665.30	35168.89
665.44	35253.15
665.59	35126.76
665.73	35211.02
665.87	34567.37
666.01	35255.49
666.15	34672.70
666.29	34911.43
666.44	34775.68
666.58	34607.16
666.72	34881.00
666.86	34668.02
667.00	34593.12
667.14	34047.77
667.28	34873.98
667.43	34267.78
667.57	34562.69
667.71	34305.23
667.85	34682.06
667.99	34150.76
668.13	34235.02
668.27	34321.62
668.41	34157.78
668.56	33893.30
668.70	34038.41
668.84	33787.97
668.98	33502.43
669.12	33565.62
669.26	33872.23
669.40	33558.60
669.54	33329.23
669.68	33663.93
669.82	33043.68
669.96	33392.42
670.10	33254.33
670.25	33731.80
670.39	33109.22
670.53	32954.74
670.67	32910.27
670.81	32762.82
670.95	32662.18
671.09	32919.63
671.23	32374.29
671.37	32931.34
671.51	32577.92
671.65	32723.03
671.79	32598.98
671.93	32362.59
672.07	32596.64
672.21	32432.80
672.35	32212.79
672.49	32460.89
672.63	32795.59
672.77	32133.21
672.91	32004.49
673.05	31995.12
673.19	31711.92
673.33	31950.65
673.47	32130.87
673.61	31276.58
673.75	31278.92
673.89	31480.21
674.03	31721.28
674.17	31435.74
674.31	31264.88
674.45	31192.32
674.59	31704.90
674.73	31424.03
674.87	31339.77
675.01	30974.65
675.15	30796.77
675.29	31098.70
675.43	31087.00
675.56	30855.28
675.70	30871.67
675.84	30644.63
675.98	29546.92
676.12	30529.95
676.26	30946.56
676.40	30731.23
676.54	30536.97
676.68	30417.60
676.82	30127.38
676.96	29607.78
677.10	29940.13
677.23	29802.04
677.37	29958.86
677.51	29881.62
677.65	29256.70
677.79	29301.17
677.93	28891.57
678.07	29024.98
678.21	28847.10
678.34	28451.55
678.48	28783.91
678.62	28442.19
678.76	28584.96
678.90	28311.12
679.04	28266.65
679.18	28547.51
679.31	28205.80
679.45	28086.43
679.59	28191.75
679.73	28283.03
679.87	28266.65
680.00	27878.12
680.14	28158.99
680.28	27601.94
680.42	27843.01
680.56	27725.99
680.70	27206.39
680.83	27772.80
680.97	27391.29
681.11	27398.31
681.25	27353.84
681.39	27405.33
681.52	27072.98
681.66	26841.26
681.80	26836.58
681.94	26483.16
682.07	26803.82
682.21	26506.57
682.35	26703.17
682.49	26707.85
682.62	26204.64
682.76	26206.98
682.90	26321.66
683.04	26342.73
683.17	25926.11
683.31	25654.61
683.45	26029.10
683.59	25553.97
683.72	25546.95
683.86	26031.44
684.00	25692.06
684.13	25476.73
684.27	25207.57
684.41	25830.15
684.55	25142.03
684.68	25181.82
684.82	24978.20
684.96	24809.68
685.09	25160.76
685.23	24690.31
685.37	24936.07
685.50	24606.05
685.64	24533.50
685.78	24627.12
685.91	24617.75
686.05	24140.29
686.19	23957.72
686.32	23917.93
686.46	23569.19
686.60	23342.16
686.73	23367.91
686.87	22970.02
687.01	23080.02
687.14	22923.21
687.28	23065.98
687.42	22890.44
687.55	23187.69
687.69	23042.57
687.82	23103.43
687.96	23112.79
688.10	22881.08
688.23	22560.42
688.37	22511.27
688.50	22661.07
688.64	22530.00
688.78	22408.29
688.91	22190.62
689.05	22293.60
689.18	22029.12
689.32	22122.74
689.46	22204.66
689.59	22473.82
689.73	22412.97
689.86	21947.20
690.00	21916.78
690.13	21713.15
690.27	21483.78
690.41	21626.55
690.54	20875.24
690.68	21242.70
690.81	21453.35
690.95	21308.24
691.08	21181.85
691.22	21315.26
691.35	21020.35
691.49	21376.11
691.62	21219.30
691.76	20933.75
691.89	20812.04
692.03	20709.06
692.16	20685.65
692.30	20641.18
692.43	20086.48
692.57	20088.82
692.70	20168.40
692.84	19929.66
692.97	20144.99
693.11	20229.25
693.24	19496.66
693.38	19658.16
693.51	19365.59
693.65	19878.17
693.78	19447.51
693.92	19447.51
694.05	19278.99
694.19	19381.98
694.32	19206.44
694.45	19393.68
694.59	19515.39
694.72	19140.90
694.86	19199.41
694.99	18534.70
695.13	18754.71
695.26	18679.82
695.39	18548.75
695.53	18712.58
695.66	18956.00
695.80	18719.60
695.93	18523.00
696.07	18579.17
696.20	18211.71
696.33	18349.80
696.47	18094.68
696.60	17748.28
696.73	17799.77
696.87	17722.54
697.00	17755.30
697.14	17666.36
697.27	17359.75
697.40	17329.33
697.54	17280.18
697.67	17371.46
697.80	17376.14
697.94	17104.64
698.07	17252.09
698.21	17177.19
698.34	17193.58
698.47	17106.98
698.61	16631.85
698.74	16791.00
698.87	16823.77
699.01	16430.56
699.14	16526.52
699.27	16615.46
699.40	16341.62
699.54	16269.06
699.67	16428.22
699.80	16313.53
699.94	16177.78
700.07	16262.04
700.20	16116.93
700.34	16180.12
700.47	16046.71
700.60	15852.45
700.73	16063.10
700.87	15662.86
701.00	15440.51
701.13	15885.22
701.26	15559.88
701.40	15370.30
701.53	15154.97
701.66	15269.66
701.79	15187.74
701.93	15098.80
702.06	14941.98
702.19	14726.65
702.32	14743.03
702.46	14806.23
702.59	14897.51
702.72	14630.69
702.85	14738.35
702.99	14939.64
703.12	14314.72
703.25	14181.31
703.38	14630.69
703.51	14525.36
703.65	14307.69
703.78	14066.62
703.91	13963.64
704.04	13921.51
704.17	13996.40
704.31	14066.62
704.44	13825.54
704.57	13813.84
704.70	13750.65
704.83	13937.89
704.96	13767.03
705.10	13706.18
705.23	13694.47
>>>>>End Processed Spectral Data<<<<<
