SpectraSuite Data File
++++++++++++++++++++++++++++++++++++
Date: Fri Oct 25 10:47:45 EDT 2013
User: price-jones
Dark Spectrum Present: No
Reference Spectrum Present: No
Number of Sampled Component Spectra: 1
Spectrometers: USB2+H05261
Integration Time (usec): 100000 (USB2+H05261)
Spectra Averaged: 1 (USB2+H05261)
Boxcar Smoothing: 0 (USB2+H05261)
Correct for Electrical Dark: No (USB2+H05261)
Strobe/Lamp Enabled: No (USB2+H05261)
Correct for Detector Non-linearity: No (USB2+H05261)
Correct for Stray Light: No (USB2+H05261)
Number of Pixels in Processed Spectrum: 2048
>>>>>Begin Processed Spectral Data<<<<<
365.73	152.13
365.92	152.13
366.12	152.13
366.32	53.83
366.52	114.69
366.72	46.81
366.91	4.68
367.11	2.34
367.31	16.38
367.51	51.49
367.70	74.90
367.90	25.75
368.10	9.36
368.30	14.04
368.49	67.88
368.69	77.24
368.89	149.79
369.09	49.15
369.28	21.06
369.48	30.43
369.68	56.17
369.87	51.49
370.07	105.32
370.27	152.13
370.47	255.12
370.66	402.57
370.86	367.46
371.06	395.55
371.25	475.13
371.45	390.87
371.65	416.62
371.84	449.38
372.04	435.34
372.24	505.56
372.44	468.11
372.63	531.30
372.83	479.81
373.03	519.60
373.22	463.43
373.42	461.09
373.62	524.28
373.81	592.16
374.01	622.58
374.21	559.39
374.40	571.09
374.60	554.71
374.79	526.62
374.99	540.66
375.19	505.56
375.38	582.79
375.58	601.52
375.78	543.00
375.97	493.85
376.17	547.69
376.37	596.84
376.56	596.84
376.76	568.75
376.95	564.07
377.15	507.90
377.35	629.60
377.54	575.77
377.74	638.97
377.93	592.16
378.13	608.54
378.33	599.18
378.52	617.90
378.72	667.05
378.91	650.67
379.11	592.16
379.31	641.31
379.50	699.82
379.70	638.97
379.89	617.90
380.09	638.97
380.28	692.80
380.48	660.03
380.68	566.41
380.87	608.54
381.07	638.97
381.26	744.29
381.46	575.77
381.65	638.97
381.85	643.65
382.04	620.24
382.24	627.26
382.43	653.01
382.63	704.50
382.83	727.91
383.02	774.72
383.22	751.31
383.41	716.20
383.61	645.99
383.80	711.52
384.00	716.20
384.19	746.63
384.39	737.27
384.58	770.04
384.78	725.57
384.97	737.27
385.17	662.37
385.36	760.67
385.56	753.65
385.75	763.01
385.95	802.80
386.14	819.19
386.34	779.40
386.53	690.46
386.72	770.04
386.92	868.34
387.11	751.31
387.31	800.46
387.50	814.51
387.70	858.98
387.89	849.61
388.09	795.78
388.28	788.76
388.48	877.70
388.67	861.32
388.86	863.66
389.06	875.36
389.25	821.53
389.45	863.66
389.64	903.45
389.84	940.90
390.03	875.36
390.22	910.47
390.42	863.66
390.61	873.02
390.81	868.34
391.00	973.66
391.19	1018.13
391.39	945.58
391.58	961.96
391.78	1034.52
391.97	1064.94
392.16	922.17
392.36	957.28
392.55	1067.28
392.75	990.05
392.94	987.71
393.13	961.96
393.33	983.02
393.52	1011.11
393.71	1071.97
393.91	990.05
394.10	959.62
394.29	1046.22
394.49	1004.09
394.68	1071.97
394.88	1130.48
395.07	1050.90
395.26	1088.35
395.46	1123.46
395.65	1205.38
395.84	1153.88
396.04	1174.95
396.23	1076.65
396.42	1114.10
396.62	1163.25
396.81	1235.80
397.00	1167.93
397.19	1128.14
397.39	1203.04
397.58	1291.98
397.77	1219.42
397.97	1371.55
398.16	1219.42
398.35	1254.53
398.55	1181.97
398.74	1338.79
398.93	1348.15
399.12	1313.04
399.32	1188.99
399.51	1224.10
399.70	1313.04
399.90	1334.11
400.09	1273.25
400.28	1425.39
400.47	1399.64
400.67	1460.49
400.86	1397.30
401.05	1490.92
401.24	1526.03
401.44	1411.34
401.63	1558.80
401.82	1521.35
402.01	1465.18
402.21	1570.50
402.40	1652.42
402.59	1493.26
402.78	1500.28
402.97	1526.03
403.17	1638.38
403.36	1575.18
403.55	1556.46
403.74	1610.29
403.93	1636.03
404.13	1605.61
404.32	1633.69
404.51	1666.46
404.70	1722.63
404.89	1659.44
405.09	1678.16
405.28	1781.15
405.47	1750.72
405.66	1792.85
405.85	1785.83
406.05	1657.10
406.24	1788.17
406.43	1764.76
406.62	1879.45
406.81	1879.45
407.00	1930.94
407.20	1778.81
407.39	1790.51
407.58	2022.22
407.77	1870.09
407.96	2045.63
408.15	1947.33
408.34	1989.46
408.54	1954.35
408.73	1996.48
408.92	1956.69
409.11	2019.88
409.30	2207.13
409.49	2094.78
409.68	2059.67
409.87	2054.99
410.07	2108.82
410.26	2024.56
410.45	2153.29
410.64	2150.95
410.83	2228.19
411.02	2256.28
411.21	2277.34
411.40	2167.34
411.59	2296.07
411.78	2258.62
411.98	2263.30
412.17	2431.82
412.36	2260.96
412.55	2415.43
412.74	2462.24
412.93	2464.58
413.12	2438.84
413.31	2544.16
413.50	2597.99
413.69	2450.54
413.88	2567.57
414.07	2635.44
414.26	2562.89
414.45	2750.13
414.64	2588.63
414.83	2630.76
415.02	2658.85
415.22	2705.66
415.41	2764.17
415.60	2745.45
415.79	2794.60
415.98	2766.51
416.17	2736.09
416.36	2937.37
416.55	2792.26
416.74	2928.01
416.93	2853.11
417.12	2881.20
417.31	2871.84
417.50	2930.35
417.69	3178.45
417.88	2986.52
418.07	2988.86
418.26	3122.27
418.45	3096.53
418.64	3239.30
418.83	3164.40
419.02	3061.42
419.21	3066.10
419.39	3171.43
419.58	3166.74
419.77	3239.30
419.96	3269.73
420.15	3232.28
420.34	3199.51
420.53	3272.07
420.72	3433.57
420.91	3358.67
421.10	3419.52
421.29	3471.01
421.48	3487.40
421.67	3508.46
421.86	3353.99
422.05	3435.91
422.24	3386.76
422.43	3309.52
422.61	3499.10
422.80	3475.70
422.99	3562.30
423.18	3590.38
423.37	3503.78
423.56	3578.68
423.75	3585.70
423.94	3604.42
424.13	3384.41
424.32	3468.67
424.50	3548.25
424.69	3651.24
424.88	3536.55
425.07	3478.04
425.26	3571.66
425.45	3574.00
425.64	3412.50
425.83	3485.06
426.01	3576.34
426.20	3527.19
426.39	3754.22
426.58	3620.81
426.77	3466.33
426.96	3513.14
427.15	3702.73
427.33	3667.62
427.52	3688.68
427.71	3716.77
427.90	3726.13
428.09	3829.12
428.28	3847.84
428.46	3805.71
428.65	3946.14
428.84	3843.16
429.03	3777.62
429.22	3777.62
429.40	3765.92
429.59	3794.01
429.78	3700.39
429.97	3651.24
430.16	3709.75
430.34	3864.22
430.53	3847.84
430.72	3911.04
430.91	3866.56
431.10	3920.40
431.28	4002.32
431.47	4152.11
431.66	4175.52
431.85	3953.16
432.03	4133.39
432.22	4273.82
432.41	4290.20
432.60	4201.26
432.79	4156.79
432.97	4203.60
433.16	4332.33
433.35	4131.05
433.54	4365.10
433.72	4292.54
433.91	4397.87
434.10	4294.88
434.28	4290.20
434.47	4435.32
434.66	4395.53
434.85	4503.19
435.03	4542.98
435.22	4454.04
435.41	4596.81
435.59	4519.57
435.78	4554.68
435.97	4587.45
436.16	4592.13
436.34	4674.05
436.53	4690.43
436.72	4620.22
436.90	4599.15
437.09	4638.94
437.28	4655.33
437.46	4578.09
437.65	4617.88
437.84	4788.74
438.02	4777.03
438.21	4788.74
438.40	4620.22
438.58	4943.21
438.77	4800.44
438.96	4865.97
439.14	4966.62
439.33	4999.38
439.52	5121.09
439.70	5139.82
439.89	4833.21
440.08	5069.60
440.26	5151.52
440.45	5177.26
440.63	5268.55
440.82	5411.32
441.01	5242.80
441.19	5324.72
441.38	5556.43
441.57	5397.28
441.75	5533.03
441.94	5650.05
442.12	5570.48
442.31	5547.07
442.50	5551.75
442.68	5612.60
442.87	5455.79
443.05	5748.36
443.24	5682.82
443.43	5579.84
443.61	5673.46
443.80	5893.47
443.98	5776.44
444.17	5551.75
444.35	5802.19
444.54	6026.88
444.73	5837.30
444.91	5853.68
445.10	5846.66
445.28	5724.95
445.47	5872.40
445.65	5624.31
445.84	5902.83
446.02	5767.08
446.21	5881.77
446.39	5923.90
446.58	5935.60
446.77	5944.96
446.95	5853.68
447.14	6001.13
447.32	5991.77
447.51	5944.96
447.69	5926.24
447.88	6059.65
448.06	6083.05
448.25	6076.03
448.43	5891.13
448.62	6029.22
448.80	5977.73
448.99	6080.71
449.17	6228.17
449.36	6139.23
449.54	6235.19
449.73	6438.81
449.91	6324.13
450.10	6375.62
450.28	6413.07
450.46	6434.13
450.65	6307.74
450.83	6434.13
451.02	6459.88
451.20	6441.15
451.39	6565.20
451.57	6335.83
451.76	6436.47
451.94	6471.58
452.13	6523.07
452.31	6511.37
452.49	6263.27
452.68	6492.65
452.86	6436.47
453.05	6487.96
453.23	6764.15
453.42	6588.61
453.60	6525.41
453.78	6546.48
453.97	6651.80
454.15	6502.01
454.34	6504.35
454.52	6590.95
454.70	6918.62
454.89	6738.40
455.07	6799.26
455.26	6707.98
455.44	6958.41
455.62	6761.81
455.81	6984.16
455.99	7005.22
456.17	6960.75
456.36	6902.24
456.54	6977.14
456.73	7262.68
456.91	7274.38
457.09	7192.47
457.28	7335.24
457.46	7070.76
457.64	7246.30
457.83	7274.38
458.01	7215.87
458.19	7368.01
458.38	7473.33
458.56	7417.16
458.74	7234.60
458.93	7286.09
459.11	7445.24
459.29	7548.23
459.48	7538.87
459.66	7426.52
459.84	7475.67
460.03	7798.66
460.21	7494.40
460.39	7604.40
460.57	7740.15
460.76	7620.78
460.94	7637.17
461.12	7667.60
461.31	7882.92
461.49	7911.01
461.67	7712.07
461.85	7878.24
462.04	7623.12
462.22	8446.99
462.40	7995.27
462.59	7763.56
462.77	7859.52
462.95	7990.59
463.13	7988.25
463.32	7955.48
463.50	8051.44
463.68	8245.71
463.86	8166.13
464.05	7974.21
464.23	8056.12
464.41	8142.72
464.59	8013.99
464.78	8416.57
464.96	8109.96
465.14	7920.37
465.32	8336.99
465.50	8468.06
465.69	8325.29
465.87	8449.33
466.05	8329.97
466.23	8201.24
466.41	8397.84
466.60	8514.87
466.78	8428.27
466.96	8273.79
467.14	8341.67
467.32	8496.14
467.51	8458.70
467.69	8196.56
467.87	8315.92
468.05	8531.25
468.23	8367.42
468.41	8697.43
468.60	8664.66
468.78	8807.44
468.96	8737.22
469.14	8847.22
469.32	8879.99
469.50	8390.82
469.69	8823.82
469.87	8971.27
470.05	9165.54
470.23	9013.40
470.41	8947.87
470.59	9097.66
470.77	9053.19
470.95	9355.12
471.14	9247.46
471.32	8926.80
471.50	9371.50
471.68	9284.91
471.86	9252.14
472.04	9282.56
472.22	9727.27
472.40	9312.99
472.58	9338.74
472.77	9556.41
472.95	9682.80
473.13	9860.68
473.31	9579.81
473.49	9565.77
473.67	9460.45
473.85	9584.49
474.03	9923.87
474.21	9755.35
474.39	10059.62
474.57	9877.06
474.75	10195.37
474.93	10209.42
475.12	10178.99
475.30	10197.71
475.48	10335.81
475.66	10476.24
475.84	10155.58
476.02	10296.02
476.20	10480.92
476.38	10553.48
476.56	10693.91
476.74	10532.41
476.92	10597.95
477.10	10633.05
477.28	10970.09
477.46	11040.31
477.64	11080.10
477.82	11213.51
478.00	11307.13
478.18	11213.51
478.36	11386.71
478.54	11475.65
478.72	11456.92
478.90	11831.41
479.08	11880.56
479.26	12102.91
479.44	11978.86
479.62	11836.09
479.80	12208.23
479.98	12482.08
480.16	12294.83
480.34	12430.59
480.52	12585.06
480.70	12353.35
480.88	12315.90
481.06	12556.97
481.24	12762.94
481.41	12807.41
481.59	13181.90
481.77	13088.28
481.95	13011.04
482.13	13238.07
482.31	13191.26
482.49	13254.45
482.67	13387.86
482.85	13755.33
483.03	13345.73
483.21	13991.72
483.39	13855.97
483.57	13860.65
483.74	14085.34
483.92	14047.90
484.10	14221.10
484.28	14413.02
484.46	14700.90
484.64	14979.43
484.82	14733.67
485.00	14813.25
485.18	15133.90
485.35	15389.02
485.53	15061.35
485.71	15037.94
485.89	15389.02
486.07	15185.40
486.25	15309.44
486.43	15522.43
486.61	15489.67
486.78	16060.76
486.96	16011.60
487.14	15955.43
487.32	16273.74
487.50	16226.93
487.68	16442.26
487.85	16978.25
488.03	16788.66
488.21	17172.51
488.39	17018.04
488.57	17128.04
488.75	17317.62
488.92	17486.14
489.10	17748.28
489.28	17825.52
489.46	17916.80
489.64	17635.94
489.81	18494.91
489.99	18480.87
490.17	18258.52
490.35	18803.86
490.53	18473.85
490.70	18913.87
490.88	18780.46
491.06	19164.31
491.24	19000.47
491.41	19058.98
491.59	19042.60
491.77	19157.28
491.95	19426.45
492.13	19620.71
492.30	19906.26
492.48	19889.87
492.66	19910.94
492.84	20240.95
493.01	20240.95
493.19	20425.86
493.37	20655.23
493.54	20517.14
493.72	20636.50
493.90	20587.35
494.08	21008.65
494.25	21432.29
494.43	21125.68
494.61	21315.26
494.79	21638.25
494.96	21322.28
495.14	21607.83
495.32	21565.70
495.49	21582.08
495.67	21949.54
495.85	22122.74
496.02	22258.49
496.20	21926.14
496.38	22324.03
496.55	22766.39
496.73	22918.53
496.91	22293.60
497.09	22876.40
497.26	22848.31
497.44	23051.94
497.62	23131.51
497.79	23199.39
497.97	23110.45
498.14	23480.25
498.32	23255.56
498.50	23751.76
498.67	23730.69
498.85	23831.33
499.03	24372.00
499.20	24372.00
499.38	24339.23
499.56	24655.20
499.73	24460.94
499.91	24304.12
500.08	24472.64
500.26	24194.12
500.44	24500.73
500.61	24648.18
500.79	24800.32
500.97	24917.34
501.14	25315.23
501.32	24842.45
501.49	25214.59
501.67	25053.09
501.84	25486.09
502.02	25247.36
502.20	25654.61
502.37	25720.15
502.55	25715.47
502.72	25841.85
502.90	25790.36
503.07	25708.44
503.25	26043.14
503.43	25345.66
503.60	26235.06
503.78	26338.05
503.95	26246.77
504.13	26480.82
504.30	26785.09
504.48	26356.77
504.65	26647.00
504.83	26944.25
505.01	27080.00
505.18	26841.26
505.36	27112.77
505.53	27047.23
505.71	27466.19
505.88	27182.98
506.06	27337.46
506.23	27496.61
506.41	27250.86
506.58	27700.24
506.76	27927.27
506.93	27941.32
507.11	27634.71
507.28	28119.20
507.46	27997.49
507.63	27889.82
507.81	28297.08
507.98	27946.00
508.16	28009.19
508.33	28617.73
508.50	28364.95
508.68	28369.63
508.85	28807.31
509.03	28636.45
509.20	28863.49
509.38	29432.24
509.55	29046.05
509.73	28922.00
509.90	29596.07
510.08	29032.00
510.25	28957.11
510.42	29546.92
510.60	29610.12
510.77	29500.11
510.95	29933.11
511.12	29427.56
511.30	29898.00
511.47	30375.47
511.64	30263.13
511.82	30204.61
511.99	29977.58
512.17	29937.79
512.34	29933.11
512.51	30532.29
512.69	30789.75
512.86	30246.74
513.04	30724.21
513.21	30792.09
513.38	30513.56
513.56	30703.15
513.73	30590.80
513.90	31185.30
514.08	30771.02
514.25	30895.07
514.43	31016.78
514.60	30810.81
514.77	30965.29
514.95	31524.68
515.12	31440.42
515.29	31321.05
515.47	31440.42
515.64	31566.81
515.81	31070.61
515.99	31253.17
516.16	31704.90
516.33	31571.49
516.51	32283.01
516.68	31222.75
516.85	31484.89
517.03	31892.14
517.20	31751.71
517.37	32128.53
517.54	32009.17
517.72	32135.56
517.89	32189.39
518.06	31791.50
518.24	32381.31
518.41	32680.90
518.58	32421.10
518.75	32285.35
518.93	32561.53
519.10	32479.61
519.27	32823.67
519.45	32706.65
519.62	33177.09
519.79	32975.81
519.96	33170.07
520.14	33422.85
520.31	33010.92
520.48	33546.90
520.65	33322.21
520.83	33450.94
521.00	33406.47
521.17	33914.36
521.34	33600.73
521.52	33600.73
521.69	33708.40
521.86	34054.79
522.03	33816.06
522.20	34183.52
522.38	33951.81
522.55	34089.90
522.72	33940.11
522.89	34644.61
523.07	34431.62
523.24	34391.83
523.41	34712.49
523.58	34232.68
523.75	34857.60
523.92	34976.97
524.10	35105.70
524.27	34958.24
524.44	35112.72
524.61	34998.03
524.78	35194.64
524.96	35459.12
525.13	35344.43
525.30	35449.75
525.47	35742.32
525.64	35620.61
525.81	35433.37
525.98	35267.19
526.16	35555.08
526.33	35290.60
526.50	35571.46
526.67	35211.02
526.84	35768.07
527.01	35447.41
527.18	35732.96
527.36	35606.57
527.53	35835.94
527.70	36907.91
527.87	36058.29
528.04	36119.15
528.21	36058.29
528.38	36126.17
528.55	36383.63
528.72	36224.47
528.89	36809.61
529.07	36678.54
529.24	36100.42
529.41	36566.19
529.58	36165.96
529.75	36470.23
529.92	36411.71
530.09	36596.62
530.26	36622.36
530.43	37280.05
530.60	36950.04
530.77	36648.11
530.94	36891.52
531.11	37024.93
531.28	37223.88
531.46	37106.85
531.63	37141.96
531.80	37148.98
531.97	37116.22
532.14	37092.81
532.31	37001.53
532.48	37579.64
532.65	37546.87
532.82	37490.70
532.99	37354.95
533.16	37116.22
533.33	37816.04
533.50	38143.71
533.67	37907.32
533.84	37745.82
534.01	37654.54
534.18	38003.28
534.35	38017.32
534.52	37759.86
534.69	38029.02
534.86	38277.12
535.03	38003.28
535.20	38595.43
535.37	38787.36
535.54	38897.36
535.71	38464.36
535.88	38660.97
536.05	38213.93
536.22	38356.70
536.38	38518.20
536.55	38635.22
536.72	38656.29
536.89	38583.73
537.06	38394.15
537.23	38604.80
537.40	38515.86
537.57	38199.88
537.74	38639.90
537.91	38972.26
538.08	38864.60
538.25	38658.63
538.42	39161.84
538.59	39096.31
538.75	38536.92
538.92	38944.17
539.09	39328.02
539.26	39232.06
539.43	39021.41
539.60	39250.78
539.77	39517.60
539.94	39463.77
540.11	39318.66
540.28	39707.19
540.44	39309.30
540.61	39697.83
540.78	39456.75
540.95	39510.58
541.12	39084.61
541.29	39234.40
541.46	39807.83
541.62	40201.04
541.79	39838.26
541.96	39395.90
542.13	40147.21
542.30	40222.11
542.47	40105.08
542.63	39901.45
542.80	39800.81
542.97	40357.86
543.14	40526.38
543.31	40301.68
543.48	40954.69
543.64	40926.61
543.81	40643.40
543.98	40624.68
544.15	40098.06
544.32	40694.89
544.48	41181.73
544.65	40739.36
544.82	41280.03
544.99	40580.21
545.16	40989.80
545.32	40704.26
545.49	41141.94
545.66	41385.35
545.83	41125.55
546.00	41244.92
546.16	41155.98
546.33	41057.68
546.50	40996.82
546.67	40872.78
546.83	40699.58
547.00	40856.39
547.17	41090.44
547.34	41120.87
547.50	41289.39
547.67	41275.35
547.84	41031.93
548.00	41958.78
548.17	41893.25
548.34	41865.16
548.51	41680.26
548.67	41567.91
548.84	41820.69
549.01	41598.34
549.18	41446.21
549.34	41635.79
549.51	41673.24
549.68	41610.04
549.84	41628.77
550.01	42337.95
550.18	41511.74
550.34	41748.14
550.51	41785.58
550.68	41691.96
550.84	41872.18
551.01	41755.16
551.18	41989.21
551.34	41893.25
551.51	42174.11
551.68	42389.44
551.84	42389.44
552.01	41956.44
552.18	42197.52
552.34	41801.97
552.51	41911.97
552.68	41933.04
552.84	42857.55
553.01	42539.24
553.18	42410.51
553.34	42359.02
553.51	42178.79
553.67	41963.46
553.84	42628.18
554.01	42838.83
554.17	43040.11
554.34	43316.29
554.51	42759.25
554.67	42609.45
554.84	42937.13
555.00	42747.54
555.17	42719.46
555.33	43302.25
555.50	42799.04
555.67	43058.84
555.83	42644.56
556.00	43054.15
556.16	43302.25
556.33	42759.25
556.50	42878.61
556.66	43454.39
556.83	42871.59
556.99	43241.40
557.16	43454.39
557.32	43110.33
557.49	43047.13
557.65	42983.94
557.82	42993.30
557.98	42745.20
558.15	43229.69
558.32	43564.39
558.48	43262.46
558.65	43435.66
558.81	43316.29
558.98	43430.98
559.14	43236.72
559.31	43421.62
559.47	43533.96
559.64	43622.90
559.80	43672.06
559.97	43531.62
560.13	43311.61
560.30	43082.24
560.46	43302.25
560.63	43356.08
560.79	43723.55
560.96	43674.40
561.12	43882.70
561.29	43669.72
561.45	43538.65
561.61	43882.70
561.78	43718.87
561.94	43395.87
562.11	43524.60
562.27	43260.12
562.44	43978.67
562.60	43686.10
562.77	43943.56
562.93	43875.68
563.10	44308.68
563.26	43648.65
563.42	43831.21
563.59	43971.64
563.75	43330.34
563.92	43959.94
564.08	44224.42
564.24	43896.75
564.41	44083.99
564.57	43714.19
564.74	43873.34
564.90	44074.63
565.07	44250.17
565.23	44154.21
565.39	43807.81
565.56	44156.55
565.72	43873.34
565.88	44205.70
566.05	44175.27
566.21	44088.67
566.38	43690.78
566.54	43831.21
566.70	44119.10
566.87	44428.05
567.03	43922.49
567.19	44329.75
567.36	44210.38
567.52	43959.94
567.68	44163.57
567.85	43847.60
568.01	43964.62
568.17	43927.17
568.34	44051.22
568.50	44088.67
568.66	44020.80
568.83	44568.48
568.99	44231.44
569.15	43945.90
569.32	44449.11
569.48	43988.03
569.64	44282.94
569.81	44072.29
569.97	44418.69
570.13	44339.11
570.30	44198.68
570.46	44069.95
570.62	44418.69
570.78	44252.51
570.95	43896.75
571.11	44404.64
571.27	44149.53
571.43	43955.26
571.60	44318.04
571.76	44463.16
571.92	44322.72
572.09	44329.75
572.25	44336.77
572.41	44381.24
572.57	44282.94
572.74	45186.38
572.90	44526.35
573.06	44093.35
573.22	44301.66
573.38	43863.98
573.55	44362.51
573.71	44708.91
573.87	44315.70
574.03	44194.00
574.20	44767.43
574.36	43964.62
574.52	44596.57
574.68	45146.59
574.84	44821.26
575.01	44514.65
575.17	44636.36
575.33	44414.01
575.49	44392.94
575.65	44790.83
575.82	44701.89
575.98	44350.81
576.14	44893.82
576.30	44528.69
576.46	44395.28
576.62	44285.28
576.79	44336.77
576.95	44369.54
577.11	44652.74
577.27	44697.21
577.43	44994.46
577.59	44479.54
577.75	44327.41
577.92	44545.08
578.08	44126.12
578.24	44222.08
578.40	44315.70
578.56	44790.83
578.72	44114.42
578.88	44729.98
579.04	44259.53
579.21	44734.66
579.37	44776.79
579.53	44301.66
579.69	44198.68
579.85	44463.16
580.01	44739.34
580.17	44643.38
580.33	44994.46
580.49	44879.77
580.65	44680.83
580.82	44727.64
580.98	44772.11
581.14	44385.92
581.30	44566.14
581.46	44512.31
581.62	44868.07
581.78	44638.70
581.94	45216.81
582.10	44722.96
582.26	44928.92
582.42	44304.00
582.58	44762.75
582.74	44624.65
582.90	44713.59
583.06	45263.62
583.22	44378.90
583.38	44823.60
583.54	44755.72
583.70	44664.44
583.86	44767.43
584.02	44210.38
584.18	44758.06
584.34	44594.23
584.50	45022.54
584.66	44313.36
584.82	44402.30
584.98	44985.10
585.14	44931.26
585.30	44732.32
585.46	44547.42
585.62	44498.26
585.78	44507.63
585.94	44414.01
586.10	45027.23
586.26	44619.97
586.42	44659.76
586.58	44889.13
586.74	44432.73
586.90	44790.83
587.06	43992.71
587.22	44531.03
587.38	44360.17
587.54	45090.42
587.70	44912.54
587.86	44945.31
588.02	44676.15
588.18	45455.54
588.34	44996.80
588.49	44275.91
588.65	44409.32
588.81	44299.32
588.97	44348.47
589.13	44568.48
589.29	45027.23
589.45	44987.44
589.61	44793.17
589.77	45099.78
589.93	45193.40
590.08	45015.52
590.24	44905.52
590.40	45502.35
590.56	45598.32
590.72	45483.63
590.88	44505.29
591.04	44720.62
591.20	45160.64
591.35	45216.81
591.51	45467.25
591.67	44912.54
591.83	44872.75
591.99	44975.73
592.15	44804.88
592.31	44985.10
592.46	44980.42
592.62	45104.46
592.78	45034.25
592.94	45102.12
593.10	44926.58
593.26	45198.09
593.41	45233.19
593.57	44959.35
593.73	44917.22
593.89	45380.65
594.05	44921.90
594.20	45296.39
594.36	45338.52
594.52	45155.96
594.68	45146.59
594.84	44631.68
594.99	45553.85
595.15	44905.52
595.31	45177.02
595.47	45113.83
595.62	45755.13
595.78	45050.63
595.94	45567.89
596.10	45319.79
596.25	45394.69
596.41	45710.66
596.57	44779.13
596.73	44879.77
596.88	44559.12
597.04	44664.44
597.20	45017.86
597.36	45125.53
597.51	45544.48
597.67	45736.41
597.83	45675.55
597.99	45446.18
598.14	45076.38
598.30	45216.81
598.46	44926.58
598.61	45123.19
598.77	44753.38
598.93	45303.41
599.09	44903.18
599.24	45457.88
599.40	45188.72
599.56	44828.28
599.71	44912.54
599.87	45504.70
600.03	45436.82
600.18	45275.32
600.34	45324.47
600.50	45177.02
600.65	44994.46
600.81	45052.97
600.97	45375.97
601.12	45242.56
601.28	45364.26
601.44	45415.76
601.59	45610.02
601.75	45036.59
601.91	45603.00
602.06	44896.16
602.22	45340.86
602.37	45069.36
602.53	44945.31
602.69	45677.90
602.84	45263.62
603.00	45467.25
603.16	45104.46
603.31	45263.62
603.47	45013.18
603.62	44926.58
603.78	44917.22
603.94	45366.60
604.09	45539.80
604.25	45350.22
604.40	45390.01
604.56	45198.09
604.71	45553.85
604.87	45090.42
605.03	45111.49
605.18	44568.48
605.34	45338.52
605.49	44858.71
605.65	45294.05
605.80	45155.96
605.96	45125.53
606.12	45450.86
606.27	45099.78
606.43	45282.34
606.58	45027.23
606.74	44884.45
606.89	45315.11
607.05	44973.39
607.20	45127.87
607.36	45160.64
607.51	45116.17
607.67	45090.42
607.82	45078.72
607.98	45057.65
608.13	44949.99
608.29	45308.09
608.44	44638.70
608.60	44414.01
608.75	44938.29
608.91	44453.79
609.06	44652.74
609.22	44966.37
609.37	44364.85
609.53	45017.86
609.68	44594.23
609.84	44278.25
609.99	44498.26
610.15	44491.24
610.30	44692.53
610.46	44666.78
610.61	44435.07
610.76	45088.08
610.92	44933.60
611.07	44435.07
611.23	44521.67
611.38	45027.23
611.54	44547.42
611.69	44442.09
611.84	44650.40
612.00	44399.96
612.15	44465.50
612.31	44669.12
612.46	44376.56
612.62	44774.45
612.77	44367.20
612.92	44711.25
613.08	44790.83
613.23	44500.61
613.39	44488.90
613.54	43983.35
613.69	44296.98
613.85	44203.36
614.00	44818.92
614.15	44662.10
614.31	44603.59
614.46	44720.62
614.62	43665.03
614.77	44332.09
614.92	43863.98
615.08	44194.00
615.23	44100.37
615.38	43742.27
615.54	44116.76
615.69	44430.39
615.84	43929.51
616.00	43901.43
616.15	43665.03
616.30	43885.04
616.46	43735.25
616.61	43988.03
616.76	43639.29
616.92	43915.47
617.07	43463.75
617.22	43929.51
617.37	43438.00
617.53	43718.87
617.68	43924.83
617.83	44002.07
617.99	44114.42
618.14	43906.11
618.29	43449.70
618.45	43405.23
618.60	43489.49
618.75	43735.25
618.90	43690.78
619.06	43800.79
619.21	43459.07
619.36	43732.91
619.51	43536.30
619.67	43744.61
619.82	43168.84
619.97	44149.53
620.12	43325.66
620.28	42492.43
620.43	43438.00
620.58	43229.69
620.73	43009.68
620.89	43086.92
621.04	43257.78
621.19	43201.61
621.34	43349.06
621.49	42955.85
621.65	42916.06
621.80	43283.53
621.95	43232.04
622.10	43239.06
622.25	42857.55
622.41	42705.41
622.56	43079.90
622.71	42899.68
622.86	42930.11
623.01	43122.03
623.16	43152.46
623.32	43246.08
623.47	43173.52
623.62	42841.17
623.77	42625.84
623.92	42878.61
624.07	42361.36
624.23	42658.60
624.38	42927.77
624.53	42574.34
624.68	43119.69
624.83	42543.92
624.98	42452.64
625.13	42487.74
625.29	42873.93
625.44	42464.34
625.59	42237.31
625.74	42330.93
625.89	41895.59
626.04	42171.77
626.19	42373.06
626.34	42188.16
626.49	42122.62
626.65	42579.03
626.80	41918.99
626.95	42679.67
627.10	42146.03
627.25	42567.32
627.40	41998.57
627.55	41371.31
627.70	41635.79
627.85	41827.71
628.00	42270.08
628.15	42230.29
628.30	42206.88
628.45	42150.71
628.60	41883.89
628.76	42309.86
628.91	42279.44
629.06	42122.62
629.21	41944.74
629.36	41867.50
629.51	41762.18
629.66	41839.42
629.81	41591.32
629.96	42298.16
630.11	41989.21
630.26	42202.20
630.41	41874.52
630.56	41560.89
630.71	41944.74
630.86	41542.17
631.01	41710.69
631.16	41797.29
631.31	40975.76
631.46	41329.18
631.61	41525.78
631.76	41551.53
631.91	41343.22
632.06	41603.02
632.21	42012.62
632.36	41584.30
632.51	41205.13
632.66	41303.43
632.81	40502.97
632.96	41265.99
633.10	40512.33
633.25	40713.62
633.40	41151.30
633.55	40931.29
633.70	41095.13
633.85	41521.10
634.00	41202.79
634.15	41006.19
634.30	41085.76
634.45	40870.43
634.60	40950.01
634.75	41226.20
634.90	40914.90
635.05	41221.52
635.19	40966.40
635.34	41298.75
635.49	41345.56
635.64	40381.26
635.79	40610.64
635.94	40914.90
636.09	40371.90
636.24	40418.71
636.39	40238.49
636.53	40311.05
636.68	40168.27
636.83	40421.05
636.98	40381.26
637.13	40343.81
637.28	40505.31
637.43	40542.76
637.57	40730.00
637.72	40367.22
637.87	40245.51
638.02	40306.37
638.17	40163.59
638.32	40245.51
638.46	39936.56
638.61	40137.85
638.76	40240.83
638.91	39913.16
639.06	40048.91
639.20	40311.05
639.35	40376.58
639.50	40168.27
639.65	40563.82
639.80	40095.72
639.94	39910.82
640.09	40297.00
640.24	39629.95
640.39	39849.96
640.54	39498.88
640.68	39955.29
640.83	40177.64
640.98	39796.13
641.13	39915.50
641.27	39761.02
641.42	39725.91
641.57	39976.35
641.72	39782.09
641.86	39402.92
642.01	39456.75
642.16	39016.73
642.31	38986.30
642.45	39749.32
642.60	39115.03
642.75	39168.87
642.90	39494.20
643.04	39005.03
643.19	39222.70
643.34	38897.36
643.48	39398.24
643.63	39351.43
643.78	39449.73
643.93	39283.55
644.07	39337.38
644.22	39220.36
644.37	38995.67
644.51	39337.38
644.66	39040.14
644.81	39276.53
644.95	39388.88
645.10	39344.41
645.25	39524.63
645.39	39297.59
645.54	39117.37
645.69	39033.11
645.83	39061.20
645.98	39002.69
646.13	38834.17
646.27	38759.27
646.42	39370.15
646.57	39154.82
646.71	38937.15
646.86	39019.07
647.00	38969.92
647.15	39136.10
647.30	39267.17
647.44	38590.75
647.59	38759.27
647.74	38918.43
647.88	38714.80
648.03	38918.43
648.17	38728.84
648.32	38483.09
648.47	38335.63
648.61	38291.16
648.76	38768.63
648.90	38513.52
649.05	38827.15
649.20	38913.75
649.34	38522.88
649.49	38391.81
649.63	38359.04
649.78	38113.28
649.92	38567.35
650.07	38768.63
650.21	38466.70
650.36	38181.16
650.51	38181.16
650.65	38752.25
650.80	39023.75
650.94	38527.56
651.09	38354.36
651.23	38412.87
651.38	38197.54
651.52	38415.21
651.67	37993.92
651.81	37923.70
651.96	37933.06
652.10	38419.89
652.25	37521.13
652.39	38024.34
652.54	37975.19
652.68	38136.69
652.83	37853.48
652.97	38082.86
653.12	37743.48
653.26	37869.87
653.41	38319.25
653.55	37860.51
653.70	38174.14
653.84	37598.37
653.99	37748.16
654.13	37736.46
654.27	37778.59
654.42	37432.19
654.56	37544.53
654.71	37497.72
654.85	37450.91
655.00	37607.73
655.14	37530.49
655.29	37111.53
655.43	37287.07
655.57	37010.89
655.72	37163.03
655.86	37219.20
656.01	37371.33
656.15	36959.40
656.30	37008.55
656.44	37322.18
656.58	36524.06
656.73	36823.65
656.87	37282.39
657.01	36734.71
657.16	37055.36
657.30	36687.90
657.45	36491.29
657.59	36575.55
657.73	36809.61
657.88	36996.85
658.02	37034.30
658.16	37219.20
658.31	36926.63
658.45	36744.07
658.60	36561.51
658.74	36842.37
658.88	36500.65
659.03	36339.16
659.17	36605.98
659.31	36294.69
659.46	36610.66
659.60	36449.16
659.74	36402.35
659.89	36236.17
660.03	36325.11
660.17	36388.31
660.32	36147.23
660.46	36683.22
660.60	36062.97
660.74	36130.85
660.89	36137.87
661.03	35903.82
661.17	35751.68
661.32	35386.56
661.46	35873.39
661.60	35690.83
661.74	35899.14
661.89	35917.86
662.03	35707.21
662.17	35718.92
662.31	35515.29
662.46	35814.88
662.60	35782.11
662.74	35637.00
662.88	35622.95
663.03	35730.62
663.17	35363.15
663.31	35358.47
663.45	35873.39
663.60	35241.45
663.74	34974.63
663.88	34991.01
664.02	35108.04
664.17	34965.26
664.31	34834.19
664.45	34464.39
664.59	35222.72
664.73	34782.70
664.88	34885.68
665.02	34305.23
665.16	34754.61
665.30	34349.70
665.44	34260.76
665.59	34607.16
665.73	34492.47
665.87	34539.29
666.01	34548.65
666.15	33806.70
666.29	34309.91
666.44	34401.19
666.58	34368.43
666.72	34206.93
666.86	34499.50
667.00	34038.41
667.14	33886.28
667.28	33586.69
667.43	33535.20
667.57	33977.56
667.71	33474.34
667.85	34073.52
667.99	33488.38
668.13	33574.98
668.27	33289.44
668.41	33544.56
668.56	33340.93
668.70	33663.93
668.84	32844.74
668.98	33247.31
669.12	33207.52
669.26	33413.49
669.40	32921.98
669.54	33251.99
669.68	33495.41
669.82	32950.06
669.96	32781.54
670.10	32437.48
670.25	32514.72
670.39	32882.19
670.53	32598.98
670.67	32496.00
670.81	32704.31
670.95	32512.38
671.09	32575.58
671.23	33064.75
671.37	32320.46
671.51	32383.65
671.65	32149.60
671.79	31826.60
671.93	32128.53
672.07	32308.76
672.21	32261.94
672.35	31800.86
672.49	31447.44
672.63	32018.53
672.77	32273.65
672.91	31749.37
673.05	31573.83
673.19	31725.96
673.33	31346.79
673.47	31248.49
673.61	31501.27
673.75	31601.91
673.89	31063.59
674.03	30543.99
674.17	31065.93
674.31	30892.73
674.45	30677.40
674.59	30946.56
674.73	31082.31
674.87	31187.64
675.01	30483.14
675.15	31023.80
675.29	30913.80
675.43	30476.12
675.56	30485.48
675.70	30012.69
675.84	30185.89
675.98	29439.26
676.12	30394.20
676.26	29862.90
676.40	29713.10
676.54	29797.36
676.68	29439.26
676.82	29270.74
676.96	29750.55
677.10	29617.14
677.23	29579.69
677.37	29563.31
677.51	29455.64
677.65	29324.57
677.79	28533.47
677.93	29219.25
678.07	28936.04
678.21	29020.30
678.34	28769.86
678.48	28713.69
678.62	28568.58
678.76	28163.67
678.90	28357.93
679.04	28397.72
679.18	28306.44
679.31	28142.60
679.45	27896.85
679.59	28067.70
679.73	27999.83
679.87	27950.68
680.00	27522.36
680.14	27555.13
680.28	27690.88
680.42	27520.02
680.56	27543.42
680.70	27204.05
680.83	27335.12
680.97	27105.74
681.11	27115.11
681.25	26644.66
681.39	27033.19
681.52	26852.97
681.66	26806.16
681.80	26642.32
681.94	26600.19
682.07	26426.99
682.21	26270.17
682.35	26326.35
682.49	26490.18
682.62	26398.90
682.76	26129.74
682.90	25891.01
683.04	26061.87
683.17	26043.14
683.31	25631.21
683.45	25785.68
683.59	25738.87
683.72	25397.15
683.86	25373.75
684.00	25228.63
684.13	25560.99
684.27	25315.23
684.41	25249.70
684.55	25029.69
684.68	24964.15
684.82	24723.08
684.96	24678.61
685.09	24790.95
685.23	24592.01
685.37	25032.03
685.50	24306.46
685.64	24458.60
685.78	24528.81
685.91	24208.16
686.05	24056.03
686.19	23962.40
686.32	23716.65
686.46	23597.28
686.60	23470.89
686.73	23566.85
686.87	23494.30
687.01	23494.30
687.14	23061.30
687.28	22764.05
687.42	23253.22
687.55	22958.31
687.69	22726.60
687.82	22965.34
687.96	22782.77
688.10	22714.90
688.23	22728.94
688.37	22520.63
688.50	22497.23
688.64	22279.56
688.78	22192.96
688.91	22272.54
689.05	22277.22
689.18	22073.59
689.32	21851.24
689.46	21965.93
689.59	22223.39
689.73	21984.65
689.86	21886.35
690.00	21460.37
690.13	21956.57
690.27	21392.50
690.41	21642.93
690.54	21303.56
690.68	21144.40
690.81	21383.13
690.95	21034.39
691.08	21387.82
691.22	21071.84
691.35	21181.85
691.49	20854.17
691.62	21062.48
691.76	21057.80
691.89	20783.96
692.03	20833.11
692.16	20561.61
692.30	20720.76
692.43	20233.93
692.57	20285.42
692.70	19887.53
692.84	19864.13
692.97	19800.93
693.11	19779.87
693.24	19826.68
693.38	19730.72
693.51	19386.66
693.65	19506.02
693.78	19360.91
693.92	19400.70
694.05	19569.22
694.19	19183.03
694.32	18838.97
694.45	19274.31
694.59	19208.78
694.72	18930.25
694.86	18808.54
694.99	18705.56
695.13	18427.04
695.26	18450.44
695.39	18387.25
695.53	18263.20
695.66	18452.78
695.80	18310.01
695.93	18291.29
696.07	17860.63
696.20	18307.67
696.33	18104.04
696.47	17956.59
696.60	17858.29
696.73	17799.77
696.87	17900.42
697.00	17862.97
697.14	17666.36
697.27	17661.68
697.40	17589.13
697.54	17109.32
697.67	17212.30
697.80	17336.35
697.94	17280.18
698.07	17043.78
698.21	16659.93
698.34	17022.72
698.47	16924.41
698.61	16695.04
698.74	16641.21
698.87	16685.68
699.01	16388.43
699.14	16475.03
699.27	16341.62
699.40	16465.67
699.54	16379.07
699.67	16388.43
699.80	16231.62
699.94	16208.21
700.07	16011.60
700.20	15981.18
700.34	15737.76
700.47	15756.49
700.60	15751.81
700.73	15875.85
700.87	15726.06
701.00	15662.86
701.13	15599.67
701.26	15503.71
701.40	15606.69
701.53	15325.83
701.66	15164.33
701.79	15222.84
701.93	15199.44
702.06	15021.56
702.19	14904.53
702.32	14995.81
702.46	14885.81
702.59	14972.41
702.72	14892.83
702.85	14555.79
702.99	14537.07
703.12	14731.33
703.25	14635.37
703.38	14583.88
703.51	14094.71
703.65	14480.89
703.78	14335.78
703.91	14225.78
704.04	14183.65
704.17	14141.52
704.31	14200.03
704.44	13682.77
704.57	13429.99
704.70	13682.77
704.83	13577.45
704.96	13757.67
705.10	13745.97
705.23	13696.82
>>>>>End Processed Spectral Data<<<<<
