SpectraSuite Data File
++++++++++++++++++++++++++++++++++++
Date: Fri Oct 25 11:34:34 EDT 2013
User: price-jones
Dark Spectrum Present: No
Reference Spectrum Present: No
Number of Sampled Component Spectra: 1
Spectrometers: USB2+H05261
Integration Time (usec): 100000 (USB2+H05261)
Spectra Averaged: 1 (USB2+H05261)
Boxcar Smoothing: 0 (USB2+H05261)
Correct for Electrical Dark: No (USB2+H05261)
Strobe/Lamp Enabled: No (USB2+H05261)
Correct for Detector Non-linearity: No (USB2+H05261)
Correct for Stray Light: No (USB2+H05261)
Number of Pixels in Processed Spectrum: 2048
>>>>>Begin Processed Spectral Data<<<<<
365.73	285.55
365.92	285.55
366.12	285.55
366.32	215.33
366.52	215.33
366.72	203.63
366.91	177.88
367.11	135.75
367.31	184.90
367.51	205.97
367.70	203.63
367.90	180.22
368.10	222.35
368.30	152.13
368.49	196.60
368.69	201.29
368.89	147.45
369.09	177.88
369.28	133.41
369.48	325.33
369.68	250.44
369.87	250.44
370.07	276.18
370.27	320.65
370.47	297.25
370.66	493.85
370.86	482.15
371.06	587.47
371.25	472.79
371.45	550.03
371.65	573.43
371.84	554.71
372.04	610.88
372.24	486.83
372.44	594.50
372.63	510.24
372.83	545.34
373.03	599.18
373.22	559.39
373.42	557.05
373.62	676.41
373.81	638.97
374.01	564.07
374.21	566.41
374.40	601.52
374.60	662.37
374.79	683.44
374.99	617.90
375.19	683.44
375.38	636.63
375.58	657.69
375.78	671.73
375.97	713.86
376.17	709.18
376.37	737.27
376.56	767.70
376.76	634.29
376.95	610.88
377.15	547.69
377.35	634.29
377.54	636.63
377.74	608.54
377.93	634.29
378.13	643.65
378.33	709.18
378.52	669.39
378.72	767.70
378.91	629.60
379.11	669.39
379.31	685.78
379.50	580.45
379.70	685.78
379.89	685.78
380.09	692.80
380.28	690.46
380.48	725.57
380.68	655.35
380.87	711.52
381.07	795.78
381.26	760.67
381.46	851.96
381.65	716.20
381.85	711.52
382.04	791.10
382.24	734.93
382.43	755.99
382.63	781.74
382.83	767.70
383.02	758.33
383.22	798.12
383.41	718.54
383.61	805.14
383.80	807.48
384.00	826.21
384.19	863.66
384.39	772.38
384.58	770.04
384.78	805.14
384.97	819.19
385.17	873.02
385.36	793.44
385.56	800.46
385.75	777.06
385.95	734.93
386.14	873.02
386.34	880.04
386.53	809.83
386.72	795.78
386.92	894.08
387.11	873.02
387.31	873.02
387.50	922.17
387.70	781.74
387.89	887.06
388.09	933.87
388.28	915.15
388.48	917.49
388.67	940.90
388.86	976.00
389.06	866.00
389.25	889.40
389.45	887.06
389.64	940.90
389.84	915.15
390.03	968.98
390.22	910.47
390.42	954.94
390.61	929.19
390.81	915.15
391.00	997.07
391.19	992.39
391.39	1018.13
391.58	985.37
391.78	936.21
391.97	983.02
392.16	1001.75
392.36	976.00
392.55	999.41
392.75	1011.11
392.94	968.98
393.13	1095.37
393.33	1095.37
393.52	1034.52
393.71	1083.67
393.91	1041.54
394.10	1050.90
394.29	1015.79
394.49	1057.92
394.68	1078.99
394.88	1027.50
395.07	1090.69
395.26	1142.18
395.46	1102.39
395.65	1196.01
395.84	1076.65
396.04	1247.51
396.23	1144.52
396.42	1116.44
396.62	1181.97
396.81	1144.52
397.00	1163.25
397.19	1132.82
397.39	1172.61
397.58	1158.57
397.77	1245.16
397.97	1277.93
398.16	1289.64
398.35	1289.64
398.55	1240.48
398.74	1294.32
398.93	1296.66
399.12	1226.44
399.32	1217.08
399.51	1266.23
399.70	1247.51
399.90	1296.66
400.09	1282.61
400.28	1345.81
400.47	1338.79
400.67	1472.20
400.86	1287.29
401.05	1282.61
401.24	1352.83
401.44	1350.49
401.63	1401.98
401.82	1392.62
402.01	1343.47
402.21	1474.54
402.40	1446.45
402.59	1413.68
402.78	1376.24
402.97	1453.47
403.17	1434.75
403.36	1413.68
403.55	1448.79
403.74	1610.29
403.93	1493.26
404.13	1554.12
404.32	1467.52
404.51	1409.00
404.70	1614.97
404.89	1549.43
405.09	1626.67
405.28	1638.38
405.47	1596.25
405.66	1692.21
405.85	1647.74
406.05	1551.78
406.24	1703.91
406.43	1734.34
406.62	1741.36
406.81	1743.70
407.00	1729.66
407.20	1717.95
407.39	1682.85
407.58	1741.36
407.77	1739.02
407.96	1816.26
408.15	1795.19
408.34	1720.29
408.54	1902.86
408.73	1849.02
408.92	1795.19
409.11	1849.02
409.30	1956.69
409.49	1853.70
409.68	1898.17
409.87	1970.73
410.07	2043.29
410.26	1968.39
410.45	1919.24
410.64	1991.80
410.83	1975.41
411.02	2099.46
411.21	1940.30
411.40	2038.61
411.59	2108.82
411.78	2047.97
411.98	2090.10
412.17	2094.78
412.36	2183.72
412.55	2207.13
412.74	2303.09
412.93	2244.57
413.12	2204.78
413.31	2345.22
413.50	2244.57
413.69	2298.41
413.88	2321.81
414.07	2286.70
414.26	2307.77
414.45	2431.82
414.64	2436.50
414.83	2499.69
415.02	2504.37
415.22	2410.75
415.41	2530.12
415.60	2544.16
415.79	2544.16
415.98	2651.83
416.17	2546.50
416.36	2530.12
416.55	2672.89
416.74	2544.16
416.93	2668.21
417.12	2738.43
417.31	2569.91
417.50	2656.51
417.69	2792.26
417.88	2780.56
418.07	2670.55
418.26	2740.77
418.45	2825.03
418.64	3038.02
418.83	2909.29
419.02	2937.37
419.21	3094.19
419.39	3119.93
419.58	2885.88
419.77	2967.80
419.96	2972.48
420.15	3124.62
420.34	2998.23
420.53	3087.17
420.72	3007.59
420.91	3171.43
421.10	2991.20
421.29	3169.09
421.48	3084.83
421.67	3073.12
421.86	3141.00
422.05	3218.24
422.24	3309.52
422.43	3143.34
422.61	3187.81
422.80	3215.90
422.99	3215.90
423.18	3274.41
423.37	3325.90
423.56	3391.44
423.75	3258.03
423.94	3185.47
424.13	3002.91
424.32	3119.93
424.50	3335.26
424.69	3368.03
424.88	3325.90
425.07	3353.99
425.26	3220.58
425.45	3164.40
425.64	3316.54
425.83	3361.01
426.01	3384.41
426.20	3361.01
426.39	3382.07
426.58	3241.64
426.77	3358.67
426.96	3318.88
427.15	3361.01
427.33	3468.67
427.52	3419.52
427.71	3349.31
427.90	3337.60
428.09	3398.46
428.28	3496.76
428.46	3655.92
428.65	3407.82
428.84	3599.74
429.03	3548.25
429.22	3513.14
429.40	3534.21
429.59	3651.24
429.78	3524.85
429.97	3473.36
430.16	3471.01
430.34	3707.41
430.53	3765.92
430.72	3707.41
430.91	3660.60
431.10	3681.66
431.28	3754.22
431.47	3775.28
431.66	3831.46
431.85	3782.31
432.03	3880.61
432.22	3894.65
432.41	3969.55
432.60	3885.29
432.79	3894.65
432.97	3824.44
433.16	3866.56
433.35	3850.18
433.54	3957.85
433.72	3946.14
433.91	4168.49
434.10	4070.19
434.28	3896.99
434.47	3992.95
434.66	4053.81
434.85	4032.74
435.03	4028.06
435.22	4196.58
435.41	4156.79
435.59	4250.41
435.78	4180.20
435.97	4248.07
436.16	4264.46
436.34	4276.16
436.53	4269.14
436.72	4397.87
436.90	4248.07
437.09	4287.86
437.28	4285.52
437.46	4301.90
437.65	4280.84
437.84	4472.76
438.02	4346.37
438.21	4533.62
438.40	4353.40
438.58	4550.00
438.77	4489.15
438.96	4622.56
439.14	4564.04
439.33	4620.22
439.52	4720.86
439.70	4781.71
439.89	4730.22
440.08	4718.52
440.26	4702.14
440.45	4732.56
440.63	4877.68
440.82	4980.66
441.01	4795.76
441.19	4835.55
441.38	5069.60
441.57	4896.40
441.75	4980.66
441.94	5095.35
442.12	5076.62
442.31	5104.71
442.50	5125.77
442.68	5259.18
442.87	5233.44
443.05	5268.55
443.24	5303.65
443.43	5338.76
443.61	5210.03
443.80	5533.03
443.98	5191.31
444.17	5064.92
444.35	5331.74
444.54	5205.35
444.73	5268.55
444.91	5298.97
445.10	5310.68
445.28	5284.93
445.47	5359.83
445.65	5266.21
445.84	5380.89
446.02	5441.75
446.21	5558.77
446.39	5504.94
446.58	5446.43
446.77	5493.24
446.95	5320.04
447.14	5614.95
447.32	5584.52
447.51	5509.62
447.69	5416.00
447.88	5451.11
448.06	5455.79
448.25	5591.54
448.43	5549.41
448.62	5460.47
448.80	5523.66
448.99	5640.69
449.17	5504.94
449.36	5497.92
449.54	5706.23
449.73	5860.70
449.91	5785.80
450.10	5722.61
450.28	5757.72
450.46	5916.87
450.65	5865.38
450.83	5912.19
451.02	6003.47
451.20	6033.90
451.39	5996.45
451.57	5895.81
451.76	5809.21
451.94	5996.45
452.13	6054.97
452.31	5947.30
452.49	5849.00
452.68	6038.58
452.86	5832.62
453.05	6052.63
453.23	6141.57
453.42	6078.37
453.60	6026.88
453.78	6174.33
453.97	6293.70
454.15	5998.79
454.34	5987.09
454.52	6132.20
454.70	6181.35
454.89	6232.85
455.07	6303.06
455.26	6263.27
455.44	6380.30
455.62	6258.59
455.81	6394.34
455.99	6448.18
456.17	6349.87
456.36	6200.08
456.54	6445.84
456.73	6506.69
456.91	6700.95
457.09	6705.63
457.28	6693.93
457.46	6532.44
457.64	6927.99
457.83	6778.19
458.01	6595.63
458.19	6766.49
458.38	6722.02
458.56	6731.38
458.74	6757.13
458.93	6909.26
459.11	6825.00
459.29	6789.89
459.48	6949.05
459.66	6836.70
459.84	6913.94
460.03	7070.76
460.21	7063.74
460.39	6984.16
460.57	6951.39
460.76	7152.68
460.94	7073.10
461.12	7133.95
461.31	7213.53
461.49	6965.43
461.67	6942.03
461.85	7311.83
462.04	7185.44
462.22	7726.11
462.40	7297.79
462.59	7323.54
462.77	7372.69
462.95	7400.77
463.13	7250.98
463.32	7447.58
463.50	7503.76
463.68	7414.82
463.86	7545.89
464.05	7613.76
464.23	7419.50
464.41	7566.95
464.59	7344.60
464.78	7723.77
464.96	7529.50
465.14	7517.80
465.32	7747.17
465.50	7761.22
465.69	7728.45
465.87	7658.23
466.05	7672.28
466.23	7915.69
466.41	7777.60
466.60	7894.63
466.78	7920.37
466.96	7765.90
467.14	7667.60
467.32	7896.97
467.51	7892.29
467.69	7712.07
467.87	7782.28
468.05	7892.29
468.23	7999.95
468.41	7885.26
468.60	7850.16
468.78	8283.16
468.96	8035.06
469.14	8046.76
469.32	8463.38
469.50	7957.82
469.69	8273.79
469.87	8276.13
470.05	8395.50
470.23	8432.95
470.41	8219.96
470.59	8367.42
470.77	8285.50
470.95	8381.46
471.14	8454.02
471.32	8255.07
471.50	8580.40
471.68	8638.92
471.86	8685.73
472.04	8769.99
472.22	8840.20
472.40	8751.26
472.58	8557.00
472.77	8812.12
472.95	8938.51
473.13	9181.92
473.31	9034.47
473.49	8922.12
473.67	8891.70
473.85	9202.99
474.03	9231.07
474.21	9055.53
474.39	9331.72
474.57	9469.81
474.75	9666.41
474.93	9373.85
475.12	9320.01
475.30	9415.98
475.48	9525.98
475.66	9535.34
475.84	9689.82
476.02	9729.61
476.20	9643.01
476.38	9886.42
476.56	10169.63
476.74	9987.07
476.92	9984.73
477.10	9973.02
477.28	10333.47
477.46	10076.01
477.64	10244.52
477.82	10270.27
478.00	10801.57
478.18	10626.03
478.36	10813.28
478.54	10799.23
478.72	10637.73
478.90	10953.71
479.08	11091.80
479.26	10953.71
479.44	11073.07
479.62	11222.87
479.80	11176.06
479.98	11372.66
480.16	11754.17
480.34	11260.32
480.52	11456.92
480.70	11482.67
480.88	11613.74
481.06	11899.28
481.24	11744.81
481.41	11831.41
481.59	12233.98
481.77	12301.86
481.95	11964.82
482.13	12233.98
482.31	12339.30
482.49	12636.55
482.67	12896.35
482.85	12683.36
483.03	13008.70
483.21	13041.46
483.39	12903.37
483.57	13345.73
483.74	13109.34
483.92	13310.63
484.10	13121.04
484.28	13483.83
484.46	13750.65
484.64	13757.67
484.82	13495.53
485.00	14127.47
485.18	14345.14
485.35	14310.04
485.53	13996.40
485.71	14581.54
485.89	14473.87
486.07	14675.16
486.25	14394.29
486.43	14520.68
486.61	14815.59
486.78	15185.40
486.96	15021.56
487.14	15428.81
487.32	15204.12
487.50	15452.22
487.68	15555.20
487.85	15557.54
488.03	15791.59
488.21	15815.00
488.39	16304.17
488.57	16194.17
488.75	16507.80
488.92	16470.35
489.10	16592.06
489.28	16666.95
489.46	16720.79
489.64	16905.69
489.81	16940.80
489.99	17106.98
490.17	17128.04
490.35	17427.63
490.53	17645.30
490.70	17799.77
490.88	17551.68
491.06	18143.83
491.24	17799.77
491.41	18008.08
491.59	18331.08
491.77	18265.54
491.95	18368.52
492.13	18728.97
492.30	18579.17
492.48	18476.19
492.66	18691.52
492.84	18855.36
493.01	19147.92
493.19	19178.35
493.37	19173.67
493.54	19197.07
493.72	19449.85
493.90	19517.73
494.08	19534.11
494.25	19470.92
494.43	19676.88
494.61	20130.95
494.79	20189.46
494.96	20285.42
495.14	20374.36
495.32	20205.84
495.49	20744.17
495.67	20381.38
495.85	20821.41
496.02	21172.49
496.20	21238.02
496.38	21436.97
496.55	21137.38
496.73	21713.15
496.91	21326.96
497.09	21888.69
497.26	21769.32
497.44	21848.90
497.62	21958.91
497.79	22129.77
497.97	22045.51
498.14	22232.75
498.32	22415.31
498.50	22431.69
498.67	23129.17
498.85	22445.74
499.03	22944.27
499.20	22918.53
499.38	22930.23
499.56	23260.24
499.73	23180.67
499.91	23335.14
500.08	23522.38
500.26	23332.80
500.44	23578.56
500.61	23506.00
500.79	23473.23
500.97	23302.37
501.14	24177.73
501.32	24112.20
501.49	23782.18
501.67	24081.77
501.84	24175.39
502.02	24184.76
502.20	24439.87
502.37	24315.83
502.55	24264.33
502.72	24393.06
502.90	24830.74
503.07	24123.90
503.25	24678.61
503.43	24610.73
503.60	24489.03
503.78	24830.74
503.95	25219.27
504.13	25104.59
504.30	25191.19
504.48	25099.90
504.65	25759.94
504.83	25490.77
505.01	25610.14
505.18	25481.41
505.36	25930.80
505.53	25855.90
505.71	25663.97
505.88	26017.40
506.06	25757.60
506.23	26237.41
506.41	26230.38
506.58	26129.74
506.76	26153.15
506.93	26810.84
507.11	26576.78
507.28	26787.43
507.46	26927.86
507.63	26913.82
507.81	27229.79
507.98	26726.58
508.16	26541.68
508.33	27042.55
508.50	26895.10
508.68	26857.65
508.85	27693.22
509.03	27367.88
509.20	27267.24
509.38	27613.64
509.55	27768.12
509.73	27786.84
509.90	27728.33
510.08	27864.08
510.25	27962.38
510.42	28128.56
510.60	28371.97
510.77	28512.41
510.95	28650.50
511.12	28456.23
511.30	28496.02
511.47	28177.71
511.64	28524.11
511.82	28952.43
511.99	28687.95
512.17	28842.42
512.34	29170.10
512.51	29373.72
512.69	29333.93
512.86	29362.02
513.04	29345.64
513.21	29111.58
513.38	29186.48
513.56	29619.48
513.73	29457.98
513.90	29947.15
514.08	29319.89
514.25	29921.41
514.43	30466.75
514.60	29654.59
514.77	30106.31
514.95	30443.35
515.12	29645.23
515.29	30221.00
515.47	30436.33
515.64	30293.55
515.81	30286.53
515.99	30635.27
516.16	31157.21
516.33	30799.11
516.51	30684.42
516.68	30600.16
516.85	30611.87
517.03	30801.45
517.20	31143.17
517.37	30686.76
517.54	31157.21
517.72	30843.58
517.89	31061.25
518.06	31037.84
518.24	31173.60
518.41	31009.76
518.58	31325.73
518.75	31089.34
518.93	31527.02
519.10	31613.62
519.27	31934.27
519.45	31725.96
519.62	31952.99
519.79	32147.26
519.96	31983.42
520.14	31899.16
520.31	31674.47
520.48	31988.10
520.65	32381.31
520.83	32844.74
521.00	32371.95
521.17	32481.95
521.34	32350.88
521.52	32397.70
521.69	32641.11
521.86	33095.18
522.03	32809.63
522.20	33029.64
522.38	33137.30
522.55	33387.74
522.72	33024.96
522.89	33364.34
523.07	33422.85
523.24	33434.55
523.41	33460.30
523.58	33280.08
523.75	33684.99
523.92	33476.68
524.10	33830.10
524.27	33834.78
524.44	33577.33
524.61	34043.09
524.78	33851.17
524.96	34143.74
525.13	34242.04
525.30	34176.50
525.47	34174.16
525.64	34380.13
525.81	34384.81
525.98	34345.02
526.16	34377.79
526.33	34466.73
526.50	34873.98
526.67	34122.67
526.84	34801.43
527.01	34590.78
527.18	34483.11
527.36	34831.85
527.53	34946.54
527.70	35218.04
527.87	35393.58
528.04	34733.55
528.21	34998.03
528.38	35271.87
528.55	35683.81
528.72	35459.12
528.89	35442.73
529.07	35262.51
529.24	34792.06
529.41	35754.02
529.58	35601.89
529.75	35606.57
529.92	35604.23
530.09	35838.28
530.26	35426.35
530.43	36404.69
530.60	35498.91
530.77	35674.45
530.94	35892.12
531.11	35674.45
531.28	35899.14
531.46	36240.86
531.63	35702.53
531.80	35934.24
531.97	36121.49
532.14	36519.38
532.31	35999.78
532.48	36739.39
532.65	36182.34
532.82	36847.05
532.99	36484.27
533.16	36847.05
533.33	36837.69
533.50	36975.78
533.67	36568.53
533.84	36662.15
534.01	36884.50
534.18	36753.43
534.35	37118.56
534.52	37043.66
534.69	37240.26
534.86	37092.81
535.03	37156.00
535.20	37088.13
535.37	37617.09
535.54	37385.38
535.71	37193.45
535.88	37500.06
536.05	38197.54
536.22	37656.88
536.38	37680.28
536.55	37163.03
536.72	37439.21
536.89	37591.34
537.06	37958.81
537.23	37909.66
537.40	37586.66
537.57	37783.27
537.74	37921.36
537.91	37989.24
538.08	37867.53
538.25	38258.40
538.42	37769.22
538.59	38195.20
538.75	37895.61
538.92	38361.38
539.09	38464.36
539.26	38022.00
539.43	38143.71
539.60	38766.29
539.77	38841.19
539.94	39218.02
540.11	38253.72
540.28	38941.83
540.44	38834.17
540.61	38244.35
540.78	38682.03
540.95	38852.89
541.12	38391.81
541.29	38813.10
541.46	38508.83
541.62	39037.80
541.79	39098.65
541.96	38635.22
542.13	39058.86
542.30	39157.16
542.47	39278.87
542.63	39328.02
542.80	39416.96
542.97	39461.43
543.14	39592.50
543.31	39585.48
543.48	39505.90
543.64	39990.39
543.81	40081.67
543.98	39885.07
544.15	39927.20
544.32	40313.39
544.48	39950.60
544.65	40156.57
544.82	40549.78
544.99	40147.21
545.16	40182.32
545.32	40179.98
545.49	40671.49
545.66	40163.59
545.83	40114.44
546.00	40123.80
546.16	40147.21
546.33	40140.19
546.50	40121.46
546.67	40540.42
546.83	39981.03
547.00	39885.07
547.17	40521.69
547.34	40631.70
547.50	40641.06
547.67	41397.06
547.84	40610.64
548.00	41109.17
548.17	41301.09
548.34	40690.21
548.51	41125.55
548.67	40783.83
548.84	41212.15
549.01	40509.99
549.18	40940.65
549.34	41490.68
549.51	40975.76
549.68	41228.54
549.84	41345.56
550.01	41270.67
550.18	40760.43
550.34	41471.95
550.51	41799.63
550.68	41422.80
550.84	41340.88
551.01	41977.51
551.18	41195.77
551.34	41495.36
551.51	41453.23
551.68	41357.27
551.84	41612.38
552.01	40982.78
552.18	41996.23
552.34	41626.43
552.51	42134.32
552.68	41979.85
552.84	41682.60
553.01	41940.06
553.18	42012.62
553.34	42284.12
553.51	41457.91
553.67	42024.32
553.84	41869.84
554.01	41956.44
554.17	41897.93
554.34	42845.85
554.51	42260.71
554.67	42560.30
554.84	42424.55
555.00	42649.24
555.17	42347.31
555.33	42366.04
555.50	42117.94
555.67	42384.76
555.83	42536.90
556.00	42719.46
556.16	42775.63
556.33	42698.39
556.50	43033.09
556.66	42920.74
556.83	42672.65
556.99	42967.55
557.16	42974.58
557.32	42920.74
557.49	43482.47
557.65	42712.44
557.82	42913.72
557.98	42890.32
558.15	43000.32
558.32	43180.54
558.48	42616.47
558.65	43232.04
558.81	42824.78
558.98	43005.00
559.14	43084.58
559.31	42756.91
559.47	42951.17
559.64	42911.38
559.80	42887.98
559.97	43145.44
560.13	43302.25
560.30	43217.99
560.46	43306.93
560.63	43585.46
560.79	43723.55
560.96	43552.69
561.12	43065.86
561.29	43643.97
561.45	43356.08
561.61	43082.24
561.78	43360.76
561.94	43456.73
562.11	43203.95
562.27	43508.22
562.44	43655.67
562.60	43660.35
562.77	43452.05
562.93	42775.63
563.10	43943.56
563.26	43311.61
563.42	43962.28
563.59	43693.12
563.75	43863.98
563.92	43634.61
564.08	43416.94
564.24	43938.88
564.41	43957.60
564.57	43430.98
564.74	43903.77
564.90	43519.92
565.07	44135.48
565.23	43833.55
565.39	43606.52
565.56	44196.34
565.72	43798.44
565.88	43803.13
566.05	44126.12
566.21	44538.05
566.38	43761.00
566.54	43943.56
566.70	43562.05
566.87	43999.73
567.03	43618.22
567.19	44189.31
567.36	44137.82
567.52	43981.01
567.68	44301.66
567.85	44280.60
568.01	44088.67
568.17	44062.93
568.34	44474.86
568.50	44212.72
568.66	43718.87
568.83	44212.72
568.99	44151.87
569.15	44107.40
569.32	44254.85
569.48	44060.58
569.64	44257.19
569.81	44402.30
569.97	44135.48
570.13	44432.73
570.30	44027.82
570.46	44755.72
570.62	44535.71
570.78	44055.90
570.95	44362.51
571.11	44390.60
571.27	44009.09
571.43	44566.14
571.60	44582.52
571.76	44203.36
571.92	43899.09
572.09	44552.10
572.25	44573.16
572.41	44516.99
572.57	44505.29
572.74	44947.65
572.90	44481.88
573.06	44690.19
573.22	44545.08
573.38	44973.39
573.55	44589.55
573.71	44872.75
573.87	44648.06
574.03	44399.96
574.20	44524.01
574.36	44545.08
574.52	44657.42
574.68	44928.92
574.84	44893.82
575.01	44729.98
575.17	44751.04
575.33	44816.58
575.49	44821.26
575.65	45041.27
575.82	44802.53
575.98	44406.98
576.14	44966.37
576.30	44821.26
576.46	44561.46
576.62	44467.84
576.79	44790.83
576.95	44526.35
577.11	44350.81
577.27	44708.91
577.43	44903.18
577.59	44114.42
577.75	44765.09
577.92	44374.22
578.08	44760.40
578.24	44839.98
578.40	45216.81
578.56	45181.70
578.72	45357.24
578.88	45408.73
579.04	44858.71
579.21	44821.26
579.37	44453.79
579.53	44835.30
579.69	44828.28
579.85	44751.04
580.01	44767.43
580.17	44877.43
580.33	44823.60
580.49	45188.72
580.65	44942.97
580.82	44919.56
580.98	44814.24
581.14	44645.72
581.30	44865.73
581.46	44645.72
581.62	44765.09
581.78	44765.09
581.94	45111.49
582.10	44856.37
582.26	45111.49
582.42	44624.65
582.58	44928.92
582.74	45462.57
582.90	45010.84
583.06	44919.56
583.22	44875.09
583.38	44854.03
583.54	44804.88
583.70	44751.04
583.86	44924.24
584.02	45177.02
584.18	45612.36
584.34	45310.43
584.50	45298.73
584.66	45413.41
584.82	45113.83
584.98	45244.90
585.14	45277.66
585.30	45106.80
585.46	44996.80
585.62	45076.38
585.78	44828.28
585.94	44526.35
586.10	45048.29
586.26	44502.95
586.42	45085.74
586.58	45010.84
586.74	44924.24
586.90	44715.93
587.06	44526.35
587.22	44994.46
587.38	45013.18
587.54	45483.63
587.70	45551.51
587.86	45851.09
588.02	45268.30
588.18	45581.93
588.34	45024.89
588.49	44891.48
588.65	45191.06
588.81	45113.83
588.97	45427.46
589.13	45345.54
589.29	44825.94
589.45	45420.44
589.61	44907.86
589.77	45579.59
589.93	45270.64
590.08	45326.81
590.24	45635.77
590.40	45858.12
590.56	45607.68
590.72	45600.66
590.88	45514.06
591.04	45436.82
591.20	45511.72
591.35	45600.66
591.51	45759.81
591.67	45715.34
591.83	45624.06
591.99	45820.67
592.15	45528.10
592.31	45860.46
592.46	45558.53
592.62	45530.44
592.78	45586.61
592.94	45710.66
593.10	46033.66
593.26	45736.41
593.41	45572.57
593.57	45851.09
593.73	45925.99
593.89	46066.42
594.05	45839.39
594.20	45654.49
594.36	46265.37
594.52	46253.67
594.68	45720.02
594.84	45773.86
594.99	46316.86
595.15	45846.41
595.31	46302.82
595.47	46019.61
595.62	45806.62
595.78	45827.69
595.94	46007.91
596.10	45659.17
596.25	45586.61
596.41	45544.48
596.57	46241.96
596.73	46134.30
596.88	45790.24
597.04	46017.27
597.20	45998.55
597.36	46012.59
597.51	45773.86
597.67	45301.07
597.83	45624.06
597.99	46005.57
598.14	45858.12
598.30	45902.59
598.46	45940.04
598.61	46366.01
598.77	45979.82
598.93	45764.49
599.09	46169.41
599.24	46082.81
599.40	45778.54
599.56	46054.72
599.71	46071.10
599.87	46665.60
600.03	46356.65
600.18	45970.46
600.34	45982.16
600.50	46094.51
600.65	46120.26
600.81	46230.26
600.97	46330.90
601.12	46274.73
601.28	45848.75
601.44	45865.14
601.59	46223.24
601.75	45792.58
601.91	46319.20
602.06	46389.42
602.22	46071.10
602.37	46251.33
602.53	46473.68
602.69	46080.47
602.84	45900.25
603.00	45944.72
603.16	45628.74
603.31	45635.77
603.47	46169.41
603.62	45727.05
603.78	46075.79
603.94	46129.62
604.09	46246.65
604.25	45727.05
604.40	45778.54
604.56	45727.05
604.71	46370.69
604.87	45874.50
605.03	45647.47
605.18	46052.38
605.34	45886.20
605.49	45642.79
605.65	46274.73
605.80	45492.99
605.96	45968.12
606.12	45598.32
606.27	45734.07
606.43	45661.51
606.58	46064.08
606.74	45806.62
606.89	45876.84
607.05	45925.99
607.20	45909.61
607.36	45968.12
607.51	45577.25
607.67	45691.94
607.82	45109.14
607.98	45813.65
608.13	45827.69
608.29	46038.34
608.44	46358.99
608.60	45324.47
608.75	46000.89
608.91	45785.56
609.06	45439.16
609.22	46068.76
609.37	45565.55
609.53	45780.88
609.68	45619.38
609.84	45429.80
609.99	45603.00
610.15	45586.61
610.30	45581.93
610.46	45848.75
610.61	45888.54
610.76	45507.04
610.92	45298.73
611.07	45336.18
611.23	45329.16
611.38	45102.12
611.54	45963.44
611.69	45698.96
611.84	45867.48
612.00	45378.31
612.15	45600.66
612.31	45595.98
612.46	45427.46
612.62	45399.37
612.77	45581.93
612.92	45968.12
613.08	45551.51
613.23	45741.09
613.39	45710.66
613.54	45277.66
613.69	45387.67
613.85	45291.71
614.00	45521.08
614.15	45509.38
614.31	45003.82
614.46	44982.76
614.62	45195.74
614.77	45488.31
614.92	45471.93
615.08	45322.13
615.23	45270.64
615.38	45221.49
615.54	45083.40
615.69	45148.93
615.84	45387.67
616.00	45317.45
616.15	45069.36
616.30	45280.00
616.46	45254.26
616.61	45254.26
616.76	44847.00
616.92	44524.01
617.07	44856.37
617.22	44896.16
617.37	44945.31
617.53	45324.47
617.68	44772.11
617.83	45088.08
617.99	45441.50
618.14	45357.24
618.29	45017.86
618.45	44444.43
618.60	44615.29
618.75	44622.31
618.90	44847.00
619.06	44168.25
619.21	44821.26
619.36	45207.45
619.51	44399.96
619.67	44299.32
619.82	44694.87
619.97	44671.46
620.12	44933.60
620.28	44699.55
620.43	44975.73
620.58	44858.71
620.73	44402.30
620.89	44626.99
621.04	44865.73
621.19	44481.88
621.34	44245.49
621.49	44229.10
621.65	44783.81
621.80	44978.07
621.95	44662.10
622.10	44807.22
622.25	44264.21
622.41	44285.28
622.56	44409.32
622.71	44481.88
622.86	44746.36
623.01	44596.57
623.16	43964.62
623.32	44215.06
623.47	44257.19
623.62	43892.07
623.77	44334.43
623.92	44341.45
624.07	43896.75
624.23	44388.26
624.38	44603.59
624.53	44350.81
624.68	43445.02
624.83	43969.30
624.98	43653.33
625.13	43447.36
625.29	43655.67
625.44	44079.31
625.59	43948.24
625.74	43793.76
625.89	43707.16
626.04	43704.82
626.19	43618.22
626.34	43704.82
626.49	43690.78
626.65	42923.08
626.80	44182.29
626.95	43012.02
627.10	43225.01
627.25	43753.97
627.40	43693.12
627.55	43772.70
627.70	43629.93
627.85	43847.60
628.00	43622.90
628.15	43674.40
628.30	43070.54
628.45	43021.39
628.60	43337.36
628.76	42904.36
628.91	43002.66
629.06	42965.21
629.21	43419.28
629.36	43023.73
629.51	42993.30
629.66	43545.67
629.81	43342.04
629.96	43150.12
630.11	43213.31
630.26	43470.77
630.41	43320.98
630.56	42955.85
630.71	42981.60
630.86	42780.31
631.01	42904.36
631.16	42590.73
631.31	42990.96
631.46	43065.86
631.61	43147.78
631.76	43217.99
631.91	42979.26
632.06	43496.52
632.21	43229.69
632.36	43063.52
632.51	42445.62
632.66	42852.87
632.81	42609.45
632.96	42635.20
633.10	42361.36
633.25	42794.36
633.40	42759.25
633.55	43082.24
633.70	42934.79
633.85	42349.65
634.00	42188.16
634.15	42239.65
634.30	42443.27
634.45	42234.97
634.60	42625.84
634.75	42974.58
634.90	42094.53
635.05	42429.23
635.19	42401.14
635.34	42197.52
635.49	41841.76
635.64	42029.00
635.79	42321.57
635.94	42527.53
636.09	42349.65
636.24	42274.76
636.39	42234.97
636.53	42375.40
636.68	41865.16
636.83	41895.59
636.98	41776.22
637.13	41626.43
637.28	42216.24
637.43	41909.63
637.57	41750.48
637.72	41631.11
637.87	42178.79
638.02	41755.16
638.17	41511.74
638.32	41539.83
638.46	41289.39
638.61	41605.36
638.76	41500.04
638.91	41841.76
639.06	41324.50
639.20	41378.33
639.35	41546.85
639.50	41312.80
639.65	41542.17
639.80	41687.28
639.94	41659.20
640.09	41549.19
640.24	41783.24
640.39	41448.55
640.54	41109.17
640.68	41439.18
640.83	41823.03
640.98	41539.83
641.13	41205.13
641.27	41184.07
641.42	41336.20
641.57	40912.56
641.72	41291.73
641.86	41263.64
642.01	40964.06
642.16	41160.66
642.31	41041.29
642.45	41221.52
642.60	40854.05
642.75	41024.91
642.90	41069.38
643.04	41338.54
643.19	40711.28
643.34	41130.23
643.48	40641.06
643.63	40858.73
643.78	40556.80
643.93	41308.11
644.07	40767.45
644.22	40935.97
644.37	40474.88
644.51	40673.83
644.66	40985.12
644.81	40987.46
644.95	40683.19
645.10	40748.73
645.25	40058.27
645.39	40285.30
645.54	40563.82
645.69	40568.51
645.83	40545.10
645.98	40257.21
646.13	40552.12
646.27	40343.81
646.42	40517.01
646.57	40367.22
646.71	40268.92
646.86	40624.68
647.00	40680.85
647.15	40552.12
647.30	40708.94
647.44	40187.00
647.59	40425.73
647.74	40250.19
647.88	40423.39
648.03	40659.79
648.17	40788.52
648.32	40034.86
648.47	40245.51
648.61	40451.48
648.76	40114.44
648.90	39585.48
649.05	40128.48
649.20	39995.07
649.34	40208.06
649.49	39786.77
649.63	40271.26
649.78	40137.85
649.92	40161.25
650.07	41020.23
650.21	40203.38
650.36	40114.44
650.51	39793.79
650.65	40154.23
650.80	39653.36
650.94	39922.52
651.09	39454.41
651.23	39353.77
651.38	39590.16
651.52	39814.85
651.67	39463.77
651.81	39871.03
651.96	39966.99
652.10	39765.70
652.25	39115.03
652.39	39058.86
652.54	39749.32
652.68	39328.02
652.83	39880.39
652.97	39995.07
653.12	39555.05
653.26	39590.16
653.41	39332.70
653.55	39143.12
653.70	39758.68
653.84	39578.46
653.99	39402.92
654.13	39587.82
654.27	39405.26
654.42	39386.54
654.56	39122.05
654.71	39393.56
654.85	39119.71
655.00	39384.19
655.14	39342.06
655.29	39697.83
655.43	39299.94
655.57	39014.39
655.72	39131.42
655.86	38937.15
656.01	39030.77
656.15	38553.30
656.30	38993.32
656.44	39058.86
656.58	38948.85
656.73	38712.46
656.87	38518.20
657.01	38480.75
657.16	38848.21
657.30	38455.00
657.45	38658.63
657.59	39065.88
657.73	38195.20
657.88	38298.19
658.02	38932.47
658.16	38932.47
658.31	38625.86
658.45	38476.07
658.60	38492.45
658.74	38756.93
658.88	38462.02
659.03	38494.79
659.17	38377.76
659.31	38455.00
659.46	38197.54
659.60	38543.94
659.74	38265.42
659.89	37467.30
660.03	37476.66
660.17	38330.95
660.32	37944.76
660.46	38124.99
660.60	37647.52
660.74	37954.13
660.89	38164.78
661.03	37893.27
661.17	37177.07
661.32	37413.46
661.46	37455.59
661.60	37078.77
661.74	37427.51
661.89	37296.44
662.03	37539.85
662.17	37184.09
662.31	37130.26
662.46	37251.97
662.60	37106.85
662.74	36591.94
662.88	36746.41
663.03	36423.42
663.17	37123.24
663.31	36378.95
663.45	37071.75
663.60	36924.29
663.74	36755.77
663.88	36786.20
664.02	36608.32
664.17	36924.29
664.31	36306.39
664.45	36170.64
664.59	36400.01
664.73	36383.63
664.88	36458.52
665.02	36182.34
665.16	36390.65
665.30	36002.12
665.44	36100.42
665.59	35878.07
665.73	35887.43
665.87	35529.33
666.01	36327.45
666.15	35826.58
666.29	36020.84
666.44	36268.94
666.58	35613.59
666.72	35725.94
666.86	35662.74
667.00	35629.98
667.14	35679.13
667.28	35379.54
667.43	35508.27
667.57	35735.30
667.71	35374.86
667.85	35503.59
667.99	35257.83
668.13	35101.01
668.27	34934.84
668.41	35264.85
668.56	34979.31
668.70	34827.17
668.84	34604.82
668.98	34567.37
669.12	34363.75
669.26	34277.15
669.40	35012.07
669.54	34885.68
669.68	34646.95
669.82	34471.41
669.96	34047.77
670.10	33923.72
670.25	34242.04
670.39	34426.94
670.53	34024.37
670.67	34132.03
670.81	34029.05
670.95	34113.31
671.09	33570.30
671.23	33511.79
671.37	33542.22
671.51	34061.82
671.65	33472.00
671.79	33736.48
671.93	33970.54
672.07	33963.51
672.21	33563.28
672.35	32940.70
672.49	33064.75
672.63	33118.58
672.77	33151.35
672.91	32847.08
673.05	32755.80
673.19	33158.37
673.33	32975.81
673.47	32708.99
673.61	32769.84
673.75	32196.41
673.89	32627.07
674.03	32322.80
674.17	32428.12
674.31	32514.72
674.45	32222.16
674.59	32173.00
674.73	32055.98
674.87	31517.65
675.01	31428.71
675.15	31749.37
675.29	31318.71
675.43	31480.21
675.56	31686.17
675.70	31515.31
675.84	31519.99
675.98	30190.57
676.12	31063.59
676.26	31344.45
676.40	31014.44
676.54	30808.47
676.68	30930.18
676.82	30436.33
676.96	31051.89
677.10	30796.77
677.23	30698.47
677.37	30471.43
677.51	30721.87
677.65	30225.68
677.79	30331.00
677.93	29942.47
678.07	30391.86
678.21	30015.03
678.34	29860.55
678.48	29663.95
678.62	30103.97
678.76	29102.22
678.90	29502.45
679.04	29584.37
679.18	29404.15
679.31	29415.85
679.45	28898.59
679.59	29032.00
679.73	29219.25
679.87	28716.03
680.00	28961.79
680.14	28706.67
680.28	28407.08
680.42	28334.53
680.56	28465.60
680.70	28102.81
680.83	28114.52
680.97	28208.14
681.11	28135.58
681.25	28102.81
681.39	27541.08
681.52	27651.09
681.66	27983.44
681.80	26859.99
681.94	26852.97
682.07	27108.08
682.21	27407.67
682.35	27082.34
682.49	27054.25
682.62	26941.91
682.76	26944.25
682.90	26829.56
683.04	27091.70
683.17	26780.41
683.31	26661.04
683.45	26726.58
683.59	26167.19
683.72	26052.50
683.86	26274.85
684.00	26155.49
684.13	26309.96
684.27	26057.18
684.41	25617.16
684.55	25638.23
684.68	25586.74
684.82	25352.68
684.96	25336.30
685.09	25682.70
685.23	25153.74
685.37	25277.79
685.50	25462.69
685.64	25076.50
685.78	24741.80
685.91	24898.62
686.05	24931.39
686.19	24100.50
686.32	24238.59
686.46	24002.19
686.60	23887.51
686.73	24009.22
686.87	23765.80
687.01	24271.36
687.14	24414.13
687.28	23939.00
687.42	23854.74
687.55	23953.04
687.69	23716.65
687.82	23594.94
687.96	23424.08
688.10	23307.05
688.23	23482.59
688.37	23606.64
688.50	23447.49
688.64	23396.00
688.78	22834.27
688.91	22916.19
689.05	23220.45
689.18	22368.50
689.32	22443.40
689.46	22199.98
689.59	22476.16
689.73	22572.13
689.86	22291.26
690.00	22281.90
690.13	22384.88
690.27	22078.27
690.41	22075.93
690.54	21982.31
690.68	21514.20
690.81	21659.32
690.95	21528.25
691.08	21514.20
691.22	21385.47
691.35	20989.92
691.49	21656.98
691.62	21214.62
691.76	21074.18
691.89	20779.28
692.03	20655.23
692.16	20542.88
692.30	20767.57
692.43	20596.71
692.57	20339.26
692.70	20262.02
692.84	20262.02
692.97	20395.43
693.11	20196.48
693.24	20049.03
693.38	20016.26
693.51	19751.78
693.65	19630.07
693.78	19784.55
693.92	19379.64
694.05	19501.34
694.19	19206.44
694.32	19499.00
694.45	19686.25
694.59	19466.24
694.72	19477.94
694.86	19108.13
694.99	19000.47
695.13	18611.94
695.26	18677.48
695.39	18483.21
695.53	18618.96
695.66	18679.82
695.80	18719.60
695.93	18501.93
696.07	18349.80
696.20	18207.03
696.33	17804.46
696.47	17788.07
696.60	17902.76
696.73	17886.37
696.87	17853.61
697.00	17968.29
697.14	17266.13
697.27	17561.04
697.40	17647.64
697.54	17287.20
697.67	17521.25
697.80	17390.18
697.94	17184.21
698.07	16966.54
698.21	16980.59
698.34	16744.19
698.47	16783.98
698.61	16411.84
698.74	16666.95
698.87	16549.93
699.01	16423.54
699.14	16575.67
699.27	16589.72
699.40	16498.44
699.54	16149.70
699.67	16163.74
699.80	16149.70
699.94	15976.50
700.07	16004.58
700.20	15887.56
700.34	16042.03
700.47	15634.78
700.60	15674.57
700.73	15704.99
700.87	15400.72
701.00	15194.76
701.13	15253.27
701.26	15236.89
701.40	15211.14
701.53	15080.07
701.66	15232.21
701.79	15239.23
701.93	14829.63
702.06	14558.13
702.19	14923.26
702.32	14686.86
702.46	14677.50
702.59	14778.14
702.72	14595.58
702.85	14750.06
702.99	14492.60
703.12	14258.54
703.25	14300.67
703.38	14211.73
703.51	13987.04
703.65	13820.86
703.78	13846.61
703.91	13741.29
704.04	13769.37
704.17	13692.13
704.31	13764.69
704.44	13645.32
704.57	13556.38
704.70	13687.45
704.83	13418.29
704.96	13074.23
705.10	13195.94
705.23	13167.85
>>>>>End Processed Spectral Data<<<<<
