SpectraSuite Data File
++++++++++++++++++++++++++++++++++++
Date: Fri Oct 25 10:44:30 EDT 2013
User: price-jones
Dark Spectrum Present: No
Reference Spectrum Present: No
Number of Sampled Component Spectra: 1
Spectrometers: USB2+H05261
Integration Time (usec): 100000 (USB2+H05261)
Spectra Averaged: 1 (USB2+H05261)
Boxcar Smoothing: 0 (USB2+H05261)
Correct for Electrical Dark: No (USB2+H05261)
Strobe/Lamp Enabled: No (USB2+H05261)
Correct for Detector Non-linearity: No (USB2+H05261)
Correct for Stray Light: No (USB2+H05261)
Number of Pixels in Processed Spectrum: 2048
>>>>>Begin Processed Spectral Data<<<<<
365.73	88.94
365.92	88.94
366.12	88.94
366.32	79.58
366.52	0.00
366.72	16.38
366.91	7.02
367.11	32.77
367.31	42.13
367.51	0.00
367.70	28.09
367.90	58.51
368.10	0.00
368.30	49.15
368.49	93.62
368.69	9.36
368.89	74.90
369.09	49.15
369.28	56.17
369.48	70.22
369.68	81.92
369.87	77.24
370.07	32.77
370.27	114.69
370.47	210.65
370.66	435.34
370.86	440.02
371.06	507.90
371.25	482.15
371.45	402.57
371.65	465.77
371.84	400.23
372.04	407.25
372.24	465.77
372.44	498.53
372.63	451.72
372.83	433.00
373.03	461.09
373.22	526.62
373.42	482.15
373.62	528.96
373.81	512.58
374.01	465.77
374.21	505.56
374.40	505.56
374.60	540.66
374.79	479.81
374.99	540.66
375.19	676.41
375.38	568.75
375.58	669.39
375.78	526.62
375.97	566.41
376.17	657.69
376.37	550.03
376.56	592.16
376.76	564.07
376.95	589.82
377.15	603.86
377.35	608.54
377.54	634.29
377.74	631.94
377.93	566.41
378.13	648.33
378.33	641.31
378.52	596.84
378.72	660.03
378.91	667.05
379.11	678.76
379.31	636.63
379.50	606.20
379.70	688.12
379.89	706.84
380.09	613.22
380.28	608.54
380.48	676.41
380.68	674.07
380.87	650.67
381.07	716.20
381.26	741.95
381.46	702.16
381.65	753.65
381.85	690.46
382.04	685.78
382.24	760.67
382.43	777.06
382.63	655.35
382.83	655.35
383.02	772.38
383.22	676.41
383.41	755.99
383.61	690.46
383.80	791.10
384.00	781.74
384.19	753.65
384.39	779.40
384.58	732.59
384.78	732.59
384.97	711.52
385.17	753.65
385.36	800.46
385.56	723.23
385.75	873.02
385.95	748.97
386.14	812.17
386.34	781.74
386.53	828.55
386.72	788.76
386.92	748.97
387.11	767.70
387.31	802.80
387.50	844.93
387.70	784.08
387.89	802.80
388.09	795.78
388.28	856.64
388.48	861.32
388.67	912.81
388.86	896.43
389.06	926.85
389.25	1025.15
389.45	884.72
389.64	894.08
389.84	896.43
390.03	889.40
390.22	968.98
390.42	912.81
390.61	884.72
390.81	1008.77
391.00	1043.88
391.19	1118.78
391.39	1008.77
391.58	990.05
391.78	1057.92
391.97	1041.54
392.16	1015.79
392.36	964.30
392.55	994.73
392.75	1039.20
392.94	987.71
393.13	1036.86
393.33	978.34
393.52	985.37
393.71	1032.18
393.91	1029.84
394.10	1004.09
394.29	1203.04
394.49	1203.04
394.68	1207.72
394.88	1093.03
395.07	1235.80
395.26	1128.14
395.46	1121.12
395.65	1217.08
395.84	1111.75
396.04	1231.12
396.23	1158.57
396.42	1100.05
396.62	1132.82
396.81	1156.22
397.00	1160.91
397.19	1212.40
397.39	1310.70
397.58	1266.23
397.77	1219.42
397.97	1334.11
398.16	1313.04
398.35	1385.60
398.55	1299.00
398.74	1411.34
398.93	1460.49
399.12	1362.19
399.32	1444.11
399.51	1394.96
399.70	1507.30
399.90	1451.13
400.09	1519.01
400.28	1547.09
400.47	1490.92
400.67	1596.25
400.86	1563.48
401.05	1528.37
401.24	1462.83
401.44	1535.39
401.63	1579.86
401.82	1610.29
402.01	1661.78
402.21	1783.49
402.40	1619.65
402.59	1645.40
402.78	1680.50
402.97	1610.29
403.17	1689.87
403.36	1696.89
403.55	1717.95
403.74	1724.97
403.93	1706.25
404.13	1689.87
404.32	1849.02
404.51	1813.92
404.70	1863.07
404.89	1930.94
405.09	1856.04
405.28	1837.32
405.47	1884.13
405.66	1907.54
405.85	1877.11
406.05	1877.11
406.24	1867.75
406.43	1956.69
406.62	1900.52
406.81	1975.41
407.00	1846.68
407.20	1877.11
407.39	2008.18
407.58	2111.16
407.77	2010.52
407.96	2064.35
408.15	2054.99
408.34	2099.46
408.54	2214.15
408.73	2143.93
408.92	2370.96
409.11	2099.46
409.30	2101.80
409.49	2190.74
409.68	2101.80
409.87	2204.78
410.07	2204.78
410.26	2349.90
410.45	2300.75
410.64	2293.72
410.83	2321.81
411.02	2380.32
411.21	2394.37
411.40	2492.67
411.59	2555.86
411.78	2431.82
411.98	2574.59
412.17	2579.27
412.36	2466.92
412.55	2471.61
412.74	2572.25
412.93	2614.38
413.12	2555.86
413.31	2740.77
413.50	2757.15
413.69	2808.64
413.88	2757.15
414.07	2787.58
414.26	2878.86
414.45	2808.64
414.64	2740.77
414.83	2789.92
415.02	2785.24
415.22	3019.29
415.41	2925.67
415.60	2839.07
415.79	3119.93
415.98	2993.55
416.17	3014.61
416.36	3145.68
416.55	3047.38
416.74	3094.19
416.93	3138.66
417.12	3255.69
417.31	3101.21
417.50	3131.64
417.69	3232.28
417.88	3180.79
418.07	3358.67
418.26	3339.94
418.45	3274.41
418.64	3440.59
418.83	3379.73
419.02	3435.91
419.21	3396.12
419.39	3442.93
419.58	3363.35
419.77	3410.16
419.96	3585.70
420.15	3365.69
420.34	3454.63
420.53	3723.79
420.72	3662.94
420.91	3669.96
421.10	3559.95
421.29	3618.47
421.48	3595.06
421.67	3644.21
421.86	3665.28
422.05	3644.21
422.24	3524.85
422.43	3627.83
422.61	3562.30
422.80	3662.94
422.99	3700.39
423.18	3735.50
423.37	3831.46
423.56	3728.47
423.75	3843.16
423.94	3676.98
424.13	3492.08
424.32	3513.14
424.50	3786.99
424.69	3794.01
424.88	3857.20
425.07	3716.77
425.26	3768.26
425.45	3651.24
425.64	3866.56
425.83	3861.88
426.01	3864.22
426.20	3904.01
426.39	3932.10
426.58	3791.67
426.77	3772.94
426.96	3889.97
427.15	3850.18
427.33	3810.39
427.52	3927.42
427.71	4004.66
427.90	3801.03
428.09	4014.02
428.28	3882.95
428.46	3946.14
428.65	4009.34
428.84	4098.28
429.03	4175.52
429.22	4067.85
429.40	3899.33
429.59	3932.10
429.78	3737.84
429.97	3831.46
430.16	4016.36
430.34	3918.06
430.53	4088.92
430.72	4046.79
430.91	3995.29
431.10	4114.66
431.28	4409.57
431.47	4280.84
431.66	4540.64
431.85	4306.59
432.03	4313.61
432.22	4554.68
432.41	4369.78
432.60	4568.73
432.79	4435.32
432.97	4538.30
433.16	4437.66
433.35	4538.30
433.54	4435.32
433.72	4493.83
433.91	4589.79
434.10	4608.51
434.28	4568.73
434.47	4554.68
434.66	4678.73
434.85	4674.05
435.03	4720.86
435.22	4706.82
435.41	4795.76
435.59	5020.45
435.78	4957.25
435.97	5022.79
436.16	4894.06
436.34	4940.87
436.53	4849.59
436.72	5064.92
436.90	4814.48
437.09	4858.95
437.28	4940.87
437.46	4882.36
437.65	4840.23
437.84	4968.96
438.02	4973.64
438.21	4990.02
438.40	4868.31
438.58	5055.56
438.77	5179.61
438.96	5226.42
439.14	5289.61
439.33	5369.19
439.52	5380.89
439.70	5305.99
439.89	5514.30
440.08	5401.96
440.26	5420.68
440.45	5577.50
440.63	5549.41
440.82	5638.35
441.01	5668.78
441.19	5692.18
441.38	5841.98
441.57	5731.97
441.75	5839.64
441.94	6045.60
442.12	5935.60
442.31	6115.82
442.50	5951.98
442.68	6005.81
442.87	6176.67
443.05	5982.41
443.24	5961.34
443.43	6296.04
443.61	6195.40
443.80	6291.36
443.98	6326.47
444.17	5959.00
444.35	6169.65
444.54	6132.20
444.73	6270.30
444.91	6218.80
445.10	5956.66
445.28	6139.23
445.47	6136.88
445.65	6033.90
445.84	6174.33
446.02	6279.66
446.21	6319.45
446.39	6345.19
446.58	6413.07
446.77	6314.77
446.95	6155.61
447.14	6328.81
447.32	6424.77
447.51	6279.66
447.69	6263.27
447.88	6349.87
448.06	6307.74
448.25	6413.07
448.43	6429.45
448.62	6310.08
448.80	6319.45
448.99	6565.20
449.17	6506.69
449.36	6480.94
449.54	6569.88
449.73	6654.14
449.91	6794.58
450.10	6614.35
450.28	6937.35
450.46	6853.09
450.65	6991.18
450.83	6820.32
451.02	6909.26
451.20	6956.07
451.39	7007.56
451.57	6813.30
451.76	6935.01
451.94	6850.75
452.13	7063.74
452.31	6899.90
452.49	6841.39
452.68	6689.25
452.86	6895.22
453.05	7059.06
453.23	7124.59
453.42	6885.86
453.60	6913.94
453.78	7087.14
453.97	6935.01
454.15	6871.81
454.34	7145.66
454.52	7255.66
454.70	7068.42
454.89	6956.07
455.07	7178.42
455.26	7482.69
455.44	7239.28
455.62	7360.98
455.81	7304.81
455.99	7321.20
456.17	7405.46
456.36	7583.34
456.54	7564.61
456.73	7562.27
456.91	7772.92
457.09	7691.00
457.28	7693.34
457.46	7557.59
457.64	7660.57
457.83	7524.82
458.01	7768.24
458.19	7925.05
458.38	7719.09
458.56	7894.63
458.74	7925.05
458.93	7974.21
459.11	7999.95
459.29	7964.84
459.48	7885.26
459.66	7971.86
459.84	7918.03
460.03	8098.25
460.21	8105.28
460.39	8163.79
460.57	8198.90
460.76	7985.91
460.94	8294.86
461.12	8383.80
461.31	8327.63
461.49	8201.24
461.67	8238.69
461.85	8549.98
462.04	8344.01
462.22	8578.06
462.40	8526.57
462.59	8365.07
462.77	8463.38
462.95	8407.20
463.13	8568.70
463.32	8699.77
463.50	8624.87
463.68	8737.22
463.86	8624.87
464.05	8575.72
464.23	8472.74
464.41	8582.74
464.59	8608.49
464.78	8868.29
464.96	8711.47
465.14	8765.31
465.32	8697.43
465.50	8716.16
465.69	8788.71
465.87	8905.74
466.05	8959.57
466.23	8805.10
466.41	8788.71
466.60	9172.56
466.78	8905.74
466.96	8854.25
467.14	8971.27
467.32	8973.61
467.51	9198.31
467.69	8788.71
467.87	8961.91
468.05	9256.82
468.23	9214.69
468.41	9146.81
468.60	9294.27
468.78	9057.87
468.96	9048.51
469.14	9352.78
469.32	9298.95
469.50	8987.66
469.69	9441.72
469.87	9352.78
470.05	9472.15
470.23	9544.70
470.41	9387.89
470.59	9446.40
470.77	9462.79
470.95	9598.54
471.14	9652.37
471.32	9488.53
471.50	9764.72
471.68	10026.86
471.86	9858.34
472.04	9804.50
472.22	10143.88
472.40	9863.02
472.58	10108.77
472.77	10068.98
472.95	10083.03
473.13	10476.24
473.31	10174.31
473.49	9982.38
473.67	9954.30
473.85	10200.05
474.03	10658.80
474.21	10455.17
474.39	10471.56
474.57	10499.64
474.75	10658.80
474.93	10686.89
475.12	10806.25
475.30	10616.67
475.48	10752.42
475.66	10832.00
475.84	10843.70
476.02	10977.11
476.20	10949.03
476.38	11159.67
476.56	11386.71
476.74	11159.67
476.92	11272.02
477.10	11143.29
477.28	11517.78
477.46	11466.28
477.64	11499.05
477.82	11875.88
478.00	11852.47
478.18	11941.41
478.36	11976.52
478.54	11997.59
478.72	12056.10
478.90	12362.71
479.08	12489.10
479.26	12564.00
479.44	12711.45
479.62	12816.77
479.80	12886.99
479.98	12858.90
480.16	12980.61
480.34	13123.38
480.52	13294.24
480.70	13153.81
480.88	13130.41
481.06	13467.44
481.24	13521.27
481.41	13635.96
481.59	13692.13
481.77	13987.04
481.95	13942.57
482.13	13841.93
482.31	14249.18
482.49	14415.36
482.67	14132.15
482.85	14312.38
483.03	14480.89
483.21	14658.78
483.39	14703.25
483.57	14518.34
483.74	14881.13
483.92	15143.27
484.10	14888.15
484.28	15276.68
484.46	15506.05
484.64	15707.34
484.82	15473.28
485.00	15683.93
485.18	15955.43
485.35	15913.30
485.53	15580.95
485.71	15609.03
485.89	15983.52
486.07	15833.72
486.25	16006.92
486.43	16058.42
486.61	16374.39
486.78	16477.37
486.96	16695.04
487.14	17011.01
487.32	17188.89
487.50	17406.56
487.68	17666.36
487.85	17528.27
488.03	17729.56
488.21	17963.61
488.39	17764.67
488.57	17844.24
488.75	18141.49
488.92	18319.37
489.10	18609.60
489.28	18595.56
489.46	18927.91
489.64	18895.14
489.81	19318.78
489.99	19440.49
490.17	19419.42
490.35	19747.10
490.53	19625.39
490.70	19510.71
490.88	19529.43
491.06	20226.91
491.24	20215.21
491.41	19697.95
491.59	20088.82
491.77	20236.27
491.95	20381.38
492.13	20566.29
492.30	20676.29
492.48	20552.24
492.66	21055.46
492.84	21165.46
493.01	21352.71
493.19	21076.52
493.37	21345.69
493.54	21778.68
493.72	21832.52
493.90	22047.85
494.08	22033.80
494.25	22305.31
494.43	22302.96
494.61	22471.48
494.79	22705.54
494.96	22689.15
495.14	22391.91
495.32	22710.22
495.49	22794.48
495.67	22953.63
495.85	23218.11
496.02	23522.38
496.20	23442.81
496.38	23229.82
496.55	23756.44
496.73	23847.72
496.91	24070.07
497.09	24091.13
497.26	24065.39
497.44	24151.99
497.62	24194.12
497.79	24472.64
497.97	24582.65
498.14	24594.35
498.32	24645.84
498.50	24575.62
498.67	24797.98
498.85	24898.62
499.03	25188.85
499.20	25254.38
499.38	25546.95
499.56	25446.30
499.73	25514.18
499.91	25528.22
500.08	25891.01
500.26	25277.79
500.44	25584.40
500.61	25542.27
500.79	25989.31
500.97	25888.67
501.14	26309.96
501.32	25872.28
501.49	26129.74
501.67	26324.01
501.84	26380.18
502.02	26403.58
502.20	27042.55
502.37	26803.82
502.55	26899.78
502.72	26988.72
502.90	27164.26
503.07	27197.02
503.25	27077.66
503.43	27037.87
503.60	27021.48
503.78	26967.65
503.95	27264.90
504.13	27723.65
504.30	27527.04
504.48	27782.16
504.65	28037.28
504.83	28140.26
505.01	28308.78
505.18	27924.93
505.36	28514.75
505.53	28140.26
505.71	28723.05
505.88	28386.02
506.06	28268.99
506.23	28788.59
506.41	28556.88
506.58	28842.42
506.76	29322.23
506.93	28713.69
507.11	29008.60
507.28	28877.53
507.46	28961.79
507.63	28837.74
507.81	29310.53
507.98	28898.59
508.16	29956.52
508.33	29778.64
508.50	29589.05
508.68	30078.22
508.85	30221.00
509.03	30199.93
509.20	30139.08
509.38	30443.35
509.55	30621.23
509.73	30029.07
509.90	30476.12
510.08	30408.24
510.25	30059.50
510.42	30768.68
510.60	30906.77
510.77	31021.46
510.95	30976.99
511.12	30775.70
511.30	30857.62
511.47	30988.69
511.64	31419.35
511.82	31442.76
511.99	31070.61
512.17	31461.48
512.34	31260.20
512.51	31599.57
512.69	31784.48
512.86	32004.49
513.04	31756.39
513.21	31828.95
513.38	32088.74
513.56	31819.58
513.73	31800.86
513.90	32198.75
514.08	32048.96
514.25	32311.10
514.43	32147.26
514.60	32261.94
514.77	32353.23
514.95	32959.42
515.12	32634.09
515.29	32325.14
515.47	33270.72
515.64	33078.79
515.81	32744.09
515.99	32657.49
516.16	32968.79
516.33	32500.68
516.51	32952.40
516.68	32669.20
516.85	32566.21
517.03	32968.79
517.20	33235.61
517.37	33008.58
517.54	33523.49
517.72	33174.75
517.89	33120.92
518.06	33174.75
518.24	32907.93
518.41	33385.40
518.58	33385.40
518.75	33706.05
518.93	34377.79
519.10	33567.96
519.27	34026.71
519.45	34258.42
519.62	34361.40
519.79	34246.72
519.96	34328.64
520.14	34728.87
520.31	34270.12
520.48	34698.44
520.65	34448.00
520.83	34974.63
521.00	35264.85
521.17	35019.10
521.34	34981.65
521.52	35103.35
521.69	34918.45
521.86	35239.11
522.03	35211.02
522.20	35433.37
522.38	35405.28
522.55	35218.04
522.72	35854.67
522.89	35651.04
523.07	35262.51
523.24	35342.09
523.41	36016.16
523.58	35833.60
523.75	36428.10
523.92	35908.50
524.10	36013.82
524.27	36355.54
524.44	35959.99
524.61	36353.20
524.78	36847.05
524.96	37191.11
525.13	36730.03
525.30	36411.71
525.47	36744.07
525.64	37099.83
525.81	36552.15
525.98	36830.67
526.16	36608.32
526.33	36570.87
526.50	36603.64
526.67	36584.91
526.84	36463.21
527.01	36975.78
527.18	36875.14
527.36	37251.97
527.53	37617.09
527.70	37500.06
527.87	37525.81
528.04	37017.91
528.21	37198.13
528.38	37118.56
528.55	37947.11
528.72	37860.51
528.89	37975.19
529.07	37640.50
529.24	37418.14
529.41	37762.20
529.58	38148.39
529.75	38010.30
529.92	37572.62
530.09	38003.28
530.26	38211.59
530.43	38094.56
530.60	37794.97
530.77	37977.53
530.94	38223.29
531.11	38108.60
531.28	38473.73
531.46	38665.65
531.63	38682.03
531.80	38630.54
531.97	38314.57
532.14	38258.40
532.31	38347.34
532.48	38539.26
532.65	38876.30
532.82	38380.10
532.99	39285.89
533.16	38698.42
533.33	38855.23
533.50	39250.78
533.67	39131.42
533.84	38785.02
534.01	38759.27
534.18	39295.25
534.35	39056.52
534.52	39304.62
534.69	39709.53
534.86	39648.68
535.03	39452.07
535.20	39512.92
535.37	39952.94
535.54	39779.74
535.71	39622.93
535.88	39526.97
536.05	39281.21
536.22	39941.24
536.38	39978.69
536.55	39372.49
536.72	39889.75
536.89	39419.30
537.06	39793.79
537.23	39772.72
537.40	39985.71
537.57	39526.97
537.74	40292.32
537.91	40421.05
538.08	40179.98
538.25	40128.48
538.42	40285.30
538.59	40282.96
538.75	40142.53
538.92	40184.66
539.09	40264.24
539.26	40671.49
539.43	40224.45
539.60	40397.65
539.77	40540.42
539.94	40603.61
540.11	40215.08
540.28	40402.33
540.44	40481.91
540.61	40605.95
540.78	40130.83
540.95	40491.27
541.12	40840.01
541.29	40849.37
541.46	40989.80
541.62	40697.24
541.79	41097.47
541.96	40715.96
542.13	40781.49
542.30	40713.62
542.47	41378.33
542.63	40928.95
542.80	41010.87
542.97	41951.76
543.14	41652.17
543.31	41301.09
543.48	41322.16
543.64	42113.26
543.81	42117.94
543.98	41862.82
544.15	41766.86
544.32	42328.59
544.48	42270.08
544.65	41820.69
544.82	41764.52
544.99	41818.35
545.16	42148.37
545.32	41727.07
545.49	42380.08
545.66	42190.50
545.83	42450.30
546.00	42480.72
546.16	42286.46
546.33	42094.53
546.50	42024.32
546.67	42169.43
546.83	42314.55
547.00	42337.95
547.17	42017.30
547.34	42106.24
547.50	42609.45
547.67	42731.16
547.84	42724.14
548.00	43012.02
548.17	42593.07
548.34	42766.27
548.51	43360.76
548.67	42602.43
548.84	43061.18
549.01	42628.18
549.18	42768.61
549.34	42499.45
549.51	42719.46
549.68	42766.27
549.84	42848.19
550.01	42979.26
550.18	42990.96
550.34	43267.14
550.51	42925.42
550.68	43089.26
550.84	42873.93
551.01	43784.40
551.18	42850.53
551.34	43344.38
551.51	42948.83
551.68	43426.30
551.84	43056.50
552.01	43590.14
552.18	43325.66
552.34	43295.23
552.51	43522.26
552.68	43278.85
552.84	43737.59
553.01	43447.36
553.18	43594.82
553.34	43620.56
553.51	43295.23
553.67	43363.11
553.84	44037.18
554.01	43693.12
554.17	43320.98
554.34	44074.63
554.51	43683.76
554.67	43639.29
554.84	43931.86
555.00	44142.50
555.17	43866.32
555.33	44098.03
555.50	43655.67
555.67	43966.96
555.83	44041.86
556.00	43931.86
556.16	44652.74
556.33	43999.73
556.50	44041.86
556.66	44275.91
556.83	44072.29
556.99	44074.63
557.16	44194.00
557.32	43917.81
557.49	44547.42
557.65	44215.06
557.82	44161.23
557.98	44233.78
558.15	44154.21
558.32	44196.34
558.48	44322.72
558.65	44140.16
558.81	43969.30
558.98	44201.02
559.14	44381.24
559.31	44046.54
559.47	44680.83
559.64	44809.56
559.80	44844.66
559.97	44261.87
560.13	44196.34
560.30	44191.65
560.46	44680.83
560.63	44720.62
560.79	44524.01
560.96	44596.57
561.12	44835.30
561.29	44463.16
561.45	44540.39
561.61	44739.34
561.78	44500.61
561.94	44612.95
562.11	44582.52
562.27	44191.65
562.44	44907.86
562.60	44891.48
562.77	44636.36
562.93	44811.90
563.10	45113.83
563.26	44175.27
563.42	44657.42
563.59	44734.66
563.75	44528.69
563.92	45001.48
564.08	45001.48
564.24	44849.35
564.41	44751.04
564.57	44563.80
564.74	44919.56
564.90	44933.60
565.07	44783.81
565.23	44428.05
565.39	44919.56
565.56	45322.13
565.72	44718.28
565.88	45027.23
566.05	44615.29
566.21	44524.01
566.38	44612.95
566.54	44872.75
566.70	45090.42
566.87	45457.88
567.03	44924.24
567.19	45518.74
567.36	45137.23
567.52	44802.53
567.68	45256.60
567.85	45188.72
568.01	45031.91
568.17	45216.81
568.34	45223.83
568.50	45872.16
568.66	44678.49
568.83	45057.65
568.99	45315.11
569.15	45162.98
569.32	45146.59
569.48	45270.64
569.64	45280.00
569.81	44975.73
569.97	45244.90
570.13	45261.28
570.30	45155.96
570.46	44842.32
570.62	44912.54
570.78	44889.13
570.95	45364.26
571.11	45390.01
571.27	44687.85
571.43	44952.33
571.60	44818.92
571.76	44896.16
571.92	45457.88
572.09	45057.65
572.25	45275.32
572.41	44804.88
572.57	45076.38
572.74	45455.54
572.90	45577.25
573.06	45439.16
573.22	45230.85
573.38	45158.30
573.55	44737.00
573.71	45256.60
573.87	45205.11
574.03	45043.61
574.20	45811.31
574.36	45102.12
574.52	45338.52
574.68	45504.70
574.84	45415.76
575.01	45045.95
575.17	45233.19
575.33	45095.10
575.49	45017.86
575.65	45099.78
575.82	45542.14
575.98	45460.23
576.14	45411.07
576.30	45560.87
576.46	45109.14
576.62	45308.09
576.79	45275.32
576.95	44737.00
577.11	45488.31
577.27	45406.39
577.43	45680.24
577.59	44996.80
577.75	45310.43
577.92	45109.14
578.08	45088.08
578.24	44861.05
578.40	45357.24
578.56	45509.38
578.72	45591.30
578.88	45661.51
579.04	45846.41
579.21	45287.03
579.37	45984.51
579.53	45560.87
579.69	45523.42
579.85	45612.36
580.01	45467.25
580.17	45455.54
580.33	45640.45
580.49	45448.52
580.65	45687.26
580.82	45464.91
580.98	45008.50
581.14	45642.79
581.30	45766.84
581.46	45558.53
581.62	45586.61
581.78	45626.40
581.94	45872.16
582.10	45296.39
582.26	45563.21
582.42	45436.82
582.58	45406.39
582.74	45514.06
582.90	45600.66
583.06	45380.65
583.22	45443.84
583.38	45986.85
583.54	46110.89
583.70	45762.15
583.86	45296.39
584.02	45284.68
584.18	45619.38
584.34	45544.48
584.50	45701.30
584.66	45177.02
584.82	45521.08
584.98	45771.52
585.14	45460.23
585.30	45390.01
585.46	45549.17
585.62	45184.04
585.78	45392.35
585.94	45397.03
586.10	45701.30
586.26	45375.97
586.42	45956.42
586.58	45558.53
586.74	45106.80
586.90	45371.28
587.06	45144.25
587.22	45317.45
587.38	45509.38
587.54	45378.31
587.70	45689.60
587.86	45652.15
588.02	45394.69
588.18	45713.00
588.34	45275.32
588.49	44870.41
588.65	45193.40
588.81	44823.60
588.97	45404.05
589.13	45371.28
589.29	45525.76
589.45	45123.19
589.61	45268.30
589.77	45659.17
589.93	45640.45
590.08	45588.95
590.24	45511.72
590.40	45792.58
590.56	45705.98
590.72	45600.66
590.88	45642.79
591.04	45928.33
591.20	46398.78
591.35	45996.21
591.51	46230.26
591.67	45500.01
591.83	45549.17
591.99	45624.06
592.15	45925.99
592.31	45654.49
592.46	45855.78
592.62	45619.38
592.78	45963.44
592.94	45806.62
593.10	45556.19
593.26	45937.69
593.41	45944.72
593.57	45418.10
593.73	45708.32
593.89	46153.02
594.05	46113.23
594.20	45933.01
594.36	45921.31
594.52	45722.37
594.68	46050.04
594.84	45750.45
594.99	45993.87
595.15	45787.90
595.31	45827.69
595.47	45778.54
595.62	45640.45
595.78	45940.04
595.94	45738.75
596.10	46344.95
596.25	46143.66
596.41	46218.56
596.57	46195.15
596.73	46005.57
596.88	45642.79
597.04	45682.58
597.20	45977.48
597.36	45879.18
597.51	45984.51
597.67	46361.33
597.83	46040.68
597.99	46057.06
598.14	46131.96
598.30	45886.20
598.46	45600.66
598.61	45638.11
598.77	45642.79
598.93	45518.74
599.09	46057.06
599.24	46485.38
599.40	46483.04
599.56	46012.59
599.71	46017.27
599.87	46174.09
600.03	45401.71
600.18	45668.53
600.34	46129.62
600.50	45780.88
600.65	45607.68
600.81	45867.48
600.97	45823.01
601.12	46199.83
601.28	45511.72
601.44	46010.25
601.59	45441.50
601.75	45359.58
601.91	46153.02
602.06	45354.90
602.22	45532.78
602.37	45617.04
602.53	45881.52
602.69	46043.02
602.84	45500.01
603.00	45956.42
603.16	45757.47
603.31	45846.41
603.47	45532.78
603.62	45855.78
603.78	45902.59
603.94	45675.55
604.09	46019.61
604.25	45509.38
604.40	45806.62
604.56	45298.73
604.71	45656.83
604.87	45418.10
605.03	45476.61
605.18	45528.10
605.34	45476.61
605.49	45179.36
605.65	45488.31
605.80	45478.95
605.96	45668.53
606.12	45439.16
606.27	45890.88
606.43	45638.11
606.58	45701.30
606.74	45368.94
606.89	45888.54
607.05	45783.22
607.20	45741.09
607.36	45525.76
607.51	45457.88
607.67	45654.49
607.82	45762.15
607.98	45514.06
608.13	45284.68
608.29	45500.01
608.44	45097.44
608.60	45298.73
608.75	44856.37
608.91	45378.31
609.06	44957.01
609.22	45485.97
609.37	45329.16
609.53	45521.08
609.68	45127.87
609.84	44947.65
609.99	45464.91
610.15	44823.60
610.30	45385.33
610.46	44804.88
610.61	45471.93
610.76	45230.85
610.92	45303.41
611.07	45310.43
611.23	45216.81
611.38	45043.61
611.54	45034.25
611.69	44975.73
611.84	44905.52
612.00	44786.15
612.15	44669.12
612.31	45118.51
612.46	45069.36
612.62	45106.80
612.77	45153.62
612.92	45017.86
613.08	44701.89
613.23	44900.84
613.39	45085.74
613.54	44802.53
613.69	44690.19
613.85	44521.67
614.00	44603.59
614.15	45104.46
614.31	44999.14
614.46	44493.58
614.62	44879.77
614.77	44772.11
614.92	44921.90
615.08	44842.32
615.23	44842.32
615.38	44795.51
615.54	43971.64
615.69	44411.67
615.84	44348.47
616.00	44673.81
616.15	44570.82
616.30	44320.38
616.46	44662.10
616.61	44198.68
616.76	44100.37
616.92	43690.78
617.07	44076.97
617.22	43849.94
617.37	44268.89
617.53	44247.83
617.68	44196.34
617.83	44233.78
617.99	44514.65
618.14	44170.59
618.29	44437.41
618.45	44079.31
618.60	43426.30
618.75	43899.09
618.90	44559.12
619.06	44451.45
619.21	44116.76
619.36	44222.08
619.51	44208.04
619.67	44072.29
619.82	44392.94
619.97	44147.18
620.12	44175.27
620.28	43737.59
620.43	43845.26
620.58	43665.03
620.73	43526.94
620.89	43639.29
621.04	43796.10
621.19	43744.61
621.34	43587.80
621.49	43880.36
621.65	43468.43
621.80	43618.22
621.95	43360.76
622.10	43721.21
622.25	43290.55
622.41	42777.97
622.56	42621.16
622.71	43360.76
622.86	43313.95
623.01	43346.72
623.16	43302.25
623.32	43402.89
623.47	43580.78
623.62	42946.49
623.77	43028.41
623.92	43051.81
624.07	43180.54
624.23	42689.03
624.38	42759.25
624.53	42583.71
624.68	43028.41
624.83	43033.09
624.98	43030.75
625.13	42639.88
625.29	43122.03
625.44	42983.94
625.59	42780.31
625.74	42239.65
625.89	42403.49
626.04	42466.68
626.19	42644.56
626.34	42836.48
626.49	42953.51
626.65	42941.81
626.80	42799.04
626.95	42794.36
627.10	42412.85
627.25	42829.46
627.40	42085.17
627.55	42366.04
627.70	41769.20
627.85	41734.09
628.00	42089.85
628.15	42183.48
628.30	42199.86
628.45	42838.83
628.60	42384.76
628.76	42651.58
628.91	42457.32
629.06	42515.83
629.21	42277.10
629.36	41734.09
629.51	41839.42
629.66	42087.51
629.81	42068.79
629.96	41979.85
630.11	42307.52
630.26	42333.27
630.41	42279.44
630.56	42293.48
630.71	41858.14
630.86	41752.82
631.01	41469.61
631.16	41593.66
631.31	42066.45
631.46	41436.84
631.61	41326.84
631.76	41661.54
631.91	42122.62
632.06	42014.96
632.21	42003.25
632.36	41663.88
632.51	41537.49
632.66	41380.67
632.81	41132.57
632.96	41493.02
633.10	41308.11
633.25	41289.39
633.40	41125.55
633.55	41486.00
633.70	41179.39
633.85	41221.52
634.00	41375.99
634.15	41965.81
634.30	40825.96
634.45	41593.66
634.60	41420.46
634.75	41130.23
634.90	41062.36
635.05	40980.44
635.19	41221.52
635.34	41277.69
635.49	41158.32
635.64	41287.05
635.79	40898.52
635.94	41008.53
636.09	40945.33
636.24	40514.67
636.39	40699.58
636.53	41155.98
636.68	40809.58
636.83	40680.85
636.98	40741.71
637.13	40566.16
637.28	40786.18
637.43	40980.44
637.57	41055.34
637.72	40732.34
637.87	40484.25
638.02	40566.16
638.17	40999.16
638.32	40662.13
638.46	40465.52
638.61	40919.59
638.76	40446.80
638.91	40561.48
639.06	40416.37
639.20	40547.44
639.35	40563.82
639.50	40217.43
639.65	40832.99
639.80	40758.09
639.94	40425.73
640.09	40189.34
640.24	39959.97
640.39	40058.27
640.54	40453.82
640.68	39908.47
640.83	39974.01
640.98	40123.80
641.13	39604.20
641.27	40215.08
641.42	39746.98
641.57	39688.46
641.72	40353.18
641.86	39796.13
642.01	39922.52
642.16	39770.38
642.31	39754.00
642.45	39901.45
642.60	39868.69
642.75	39765.70
642.90	39674.42
643.04	39669.74
643.19	39178.23
643.34	39793.79
643.48	39503.56
643.63	39810.17
643.78	38995.67
643.93	39723.57
644.07	39732.93
644.22	39758.68
644.37	39555.05
644.51	39297.59
644.66	39459.09
644.81	39988.05
644.95	39845.28
645.10	39688.46
645.25	39639.31
645.39	39250.78
645.54	39306.96
645.69	39431.01
645.83	39405.26
645.98	39281.21
646.13	39096.31
646.27	39208.65
646.42	39180.57
646.57	39358.45
646.71	39218.02
646.86	39318.66
647.00	39100.99
647.15	39438.03
647.30	39587.82
647.44	38838.85
647.59	38857.57
647.74	38738.21
647.88	38710.12
648.03	39229.72
648.17	39253.12
648.32	38876.30
648.47	38766.29
648.61	38309.89
648.76	38799.06
648.90	38649.27
649.05	38728.84
649.20	38738.21
649.34	38595.43
649.49	38770.97
649.63	38227.97
649.78	38611.82
649.92	38347.34
650.07	39143.12
650.21	38546.28
650.36	38256.06
650.51	38192.86
650.65	38586.07
650.80	38721.82
650.94	38565.01
651.09	38675.01
651.23	38515.86
651.38	38349.68
651.52	38693.74
651.67	37666.24
651.81	38061.79
651.96	38068.81
652.10	38036.05
652.25	37773.91
652.39	38408.19
652.54	38555.64
652.68	38007.96
652.83	38225.63
652.97	38190.52
653.12	38272.44
653.26	38171.80
653.41	38396.49
653.55	37993.92
653.70	37280.05
653.84	37727.10
653.99	38134.35
654.13	37745.82
654.27	37790.29
654.42	37668.58
654.56	37425.17
654.71	37912.00
654.85	37638.15
655.00	38017.32
655.14	37619.43
655.29	37675.60
655.43	37642.84
655.57	37261.33
655.72	37455.59
655.86	36844.71
656.01	36980.46
656.15	37247.29
656.30	37048.34
656.44	37158.34
656.58	36959.40
656.73	37132.60
656.87	37258.99
657.01	36907.91
657.16	37368.99
657.30	37387.72
657.45	37053.02
657.59	37069.40
657.73	36762.79
657.88	37319.84
658.02	37139.62
658.16	37301.12
658.31	36914.93
658.45	37118.56
658.60	36933.65
658.74	36938.33
658.88	36933.65
659.03	37130.26
659.17	36570.87
659.31	36655.13
659.46	36643.43
659.60	36971.10
659.74	36400.01
659.89	36568.53
660.03	36322.77
660.17	36446.82
660.32	36105.10
660.46	36229.15
660.60	36477.25
660.74	36753.43
660.89	36610.66
661.03	36240.86
661.17	36020.84
661.32	35721.26
661.46	35798.49
661.60	35798.49
661.74	36027.87
661.89	35974.03
662.03	35770.41
662.17	35768.07
662.31	35260.17
662.46	35784.45
662.60	36072.34
662.74	35604.23
662.88	35508.27
663.03	35133.78
663.17	35569.12
663.31	35232.08
663.45	35199.32
663.60	35534.01
663.74	34876.32
663.88	35433.37
664.02	35295.28
664.17	35356.13
664.31	34794.40
664.45	35342.09
664.59	35136.12
664.73	34628.23
664.88	35344.43
665.02	34906.75
665.16	34902.07
665.30	34794.40
665.44	34855.26
665.59	34710.14
665.73	34405.88
665.87	34616.52
666.01	34939.52
666.15	34726.53
666.29	34349.70
666.44	34579.07
666.58	34256.08
666.72	34192.89
666.86	34485.45
667.00	34426.94
667.14	34066.50
667.28	33764.57
667.43	33631.16
667.57	34122.67
667.71	33963.51
667.85	33949.47
667.99	33823.08
668.13	34302.89
668.27	33614.77
668.41	33851.17
668.56	33738.82
668.70	34052.45
668.84	33713.08
668.98	33460.30
669.12	33317.53
669.26	33249.65
669.40	33298.80
669.54	33067.09
669.68	33055.39
669.82	33184.12
669.96	32723.03
670.10	33001.55
670.25	33193.48
670.39	32919.63
670.53	32701.96
670.67	32439.82
670.81	32629.41
670.95	32481.95
671.09	32591.96
671.23	32840.06
671.37	32437.48
671.51	32587.28
671.65	32430.46
671.79	32130.87
671.93	32180.03
672.07	32254.92
672.21	32313.44
672.35	32077.04
672.49	32175.34
672.63	31892.14
672.77	31800.86
672.91	32051.30
673.05	32030.23
673.19	31662.77
673.33	31665.11
673.47	31491.91
673.61	31658.09
673.75	31295.30
673.89	31337.43
674.03	31126.78
674.17	31299.98
674.31	31211.04
674.45	31377.22
674.59	31065.93
674.73	31309.35
674.87	31056.57
675.01	30672.72
675.15	30906.77
675.29	30801.45
675.43	30756.98
675.56	30185.89
675.70	30469.09
675.84	30581.44
675.98	29333.93
676.12	30064.18
676.26	30309.94
676.40	30209.29
676.54	30246.74
676.68	29762.25
676.82	29640.54
676.96	29748.21
677.10	29731.83
677.23	29603.10
677.37	29240.31
677.51	29259.04
677.65	29067.11
677.79	28891.57
677.93	29333.93
678.07	29170.10
678.21	28622.41
678.34	28554.54
678.48	28264.31
678.62	28755.82
678.76	27981.10
678.90	28430.49
679.04	28240.90
679.18	28531.13
679.31	28191.75
679.45	27765.78
679.59	27931.95
679.73	27388.95
679.87	27550.45
680.00	27798.54
680.14	27435.76
680.28	27674.49
680.42	27391.29
680.56	27735.35
680.70	27494.27
680.83	27365.54
680.97	27318.73
681.11	27346.82
681.25	26941.91
681.39	26979.36
681.52	27360.86
681.66	27157.24
681.80	26991.06
681.94	26792.11
682.07	26654.02
682.21	26623.59
682.35	26391.88
682.49	26480.82
682.62	26817.86
682.76	26342.73
682.90	25956.54
683.04	25853.56
683.17	25570.35
683.31	25951.86
683.45	25755.26
683.59	25727.17
683.72	25439.28
683.86	25474.39
684.00	25277.79
684.13	25568.01
684.27	25179.48
684.41	24943.09
684.55	25123.31
684.68	24694.99
684.82	24961.81
684.96	24854.15
685.09	24907.98
685.23	24849.47
685.37	24435.19
685.50	24421.15
685.64	24449.24
685.78	24191.78
685.91	24177.73
686.05	24388.38
686.19	23976.45
686.32	24027.94
686.46	23405.36
686.60	23304.71
686.73	23410.04
686.87	23597.28
687.01	23087.04
687.14	23229.82
687.28	23136.20
687.42	23328.12
687.55	23124.49
687.69	23140.88
687.82	22885.76
687.96	22703.20
688.10	22991.08
688.23	22494.89
688.37	22658.73
688.50	22253.81
688.64	22719.58
688.78	22230.41
688.91	22537.02
689.05	22431.69
689.18	22349.78
689.32	21914.44
689.46	21827.84
689.59	22127.42
689.73	22221.05
689.86	21797.41
690.00	21661.66
690.13	21724.85
690.27	21656.98
690.41	21610.17
690.54	21160.78
690.68	21163.12
690.81	21006.31
690.95	21231.00
691.08	20861.19
691.22	21170.15
691.35	20929.07
691.49	21106.95
691.62	20961.84
691.76	20716.08
691.89	20683.31
692.03	20210.53
692.16	20507.77
692.30	19807.95
692.43	20046.69
692.57	19969.45
692.70	19791.57
692.84	20074.77
692.97	19639.44
693.11	19721.35
693.24	19934.34
693.38	19573.90
693.51	19407.72
693.65	19861.79
693.78	19873.49
693.92	19393.68
694.05	19321.12
694.19	19379.64
694.32	19243.88
694.45	19094.09
694.59	18787.48
694.72	18946.64
694.86	18897.49
694.99	18803.86
695.13	18836.63
695.26	18705.56
695.39	18501.93
695.53	18635.35
695.66	18710.24
695.80	18539.38
695.93	18288.95
696.07	18066.60
696.20	18361.50
696.33	17982.34
696.47	18082.98
696.60	18045.53
696.73	17752.96
696.87	17748.28
697.00	17874.67
697.14	18015.10
697.27	17680.41
697.40	17582.10
697.54	17591.47
697.67	17144.42
697.80	17364.43
697.94	17268.47
698.07	17305.92
698.21	16992.29
698.34	17165.49
698.47	16893.99
698.61	16390.77
698.74	16776.96
698.87	16449.28
699.01	16262.04
699.14	16233.96
699.27	16266.72
699.40	16238.64
699.54	16280.77
699.67	15957.77
699.80	16191.83
699.94	15917.98
700.07	15985.86
700.20	15763.51
700.34	15793.94
700.47	15653.50
700.60	15777.55
700.73	15896.92
700.87	15852.45
701.00	15690.95
701.13	15529.45
701.26	15295.40
701.40	15393.70
701.53	15290.72
701.66	15463.92
701.79	15030.92
701.93	15239.23
702.06	15068.37
702.19	14867.08
702.32	14822.61
702.46	14707.93
702.59	14623.67
702.72	15030.92
702.85	14712.61
702.99	14600.26
703.12	14544.09
703.25	14314.72
703.38	14281.95
703.51	14317.06
703.65	14312.38
703.78	14223.44
703.91	13944.91
704.04	14190.67
704.17	14342.80
704.31	13891.08
704.44	14003.43
704.57	13841.93
704.70	13722.56
704.83	13844.27
704.96	13465.10
705.10	13748.31
705.23	13626.60
>>>>>End Processed Spectral Data<<<<<
