SpectraSuite Data File
++++++++++++++++++++++++++++++++++++
Date: Fri Oct 25 10:48:35 EDT 2013
User: price-jones
Dark Spectrum Present: No
Reference Spectrum Present: No
Number of Sampled Component Spectra: 1
Spectrometers: USB2+H05261
Integration Time (usec): 100000 (USB2+H05261)
Spectra Averaged: 1 (USB2+H05261)
Boxcar Smoothing: 0 (USB2+H05261)
Correct for Electrical Dark: No (USB2+H05261)
Strobe/Lamp Enabled: No (USB2+H05261)
Correct for Detector Non-linearity: No (USB2+H05261)
Correct for Stray Light: No (USB2+H05261)
Number of Pixels in Processed Spectrum: 2048
>>>>>Begin Processed Spectral Data<<<<<
365.73	102.98
365.92	102.98
366.12	102.98
366.32	79.58
366.52	32.77
366.72	79.58
366.91	58.51
367.11	0.00
367.31	81.92
367.51	32.77
367.70	32.77
367.90	163.84
368.10	65.54
368.30	30.43
368.49	0.00
368.69	72.56
368.89	72.56
369.09	28.09
369.28	79.58
369.48	70.22
369.68	79.58
369.87	163.84
370.07	65.54
370.27	88.94
370.47	128.73
370.66	461.09
370.86	472.79
371.06	486.83
371.25	580.45
371.45	407.25
371.65	470.45
371.84	510.24
372.04	517.26
372.24	468.11
372.44	526.62
372.63	521.94
372.83	496.19
373.03	510.24
373.22	582.79
373.42	580.45
373.62	538.32
373.81	568.75
374.01	650.67
374.21	636.63
374.40	582.79
374.60	594.50
374.79	578.11
374.99	543.00
375.19	594.50
375.38	638.97
375.58	592.16
375.78	667.05
375.97	606.20
376.17	631.94
376.37	599.18
376.56	739.61
376.76	674.07
376.95	678.76
377.15	751.31
377.35	702.16
377.54	610.88
377.74	730.25
377.93	643.65
378.13	624.92
378.33	727.91
378.52	676.41
378.72	734.93
378.91	795.78
379.11	748.97
379.31	690.46
379.50	716.20
379.70	671.73
379.89	805.14
380.09	664.71
380.28	706.84
380.48	774.72
380.68	758.33
380.87	758.33
381.07	718.54
381.26	746.63
381.46	699.82
381.65	786.42
381.85	795.78
382.04	737.27
382.24	685.78
382.43	763.01
382.63	763.01
382.83	812.17
383.02	821.53
383.22	814.51
383.41	713.86
383.61	814.51
383.80	851.96
384.00	795.78
384.19	856.64
384.39	917.49
384.58	835.57
384.78	858.98
384.97	868.34
385.17	844.93
385.36	889.40
385.56	873.02
385.75	971.32
385.95	812.17
386.14	826.21
386.34	863.66
386.53	922.17
386.72	891.74
386.92	922.17
387.11	861.32
387.31	940.90
387.50	908.13
387.70	938.55
387.89	992.39
388.09	973.66
388.28	915.15
388.48	868.34
388.67	966.64
388.86	1032.18
389.06	1015.79
389.25	1018.13
389.45	1006.43
389.64	1008.77
389.84	1074.31
390.03	1057.92
390.22	1074.31
390.42	1086.01
390.61	1100.05
390.81	1032.18
391.00	1123.46
391.19	1114.10
391.39	1102.39
391.58	1172.61
391.78	1090.69
391.97	1121.12
392.16	1100.05
392.36	1177.29
392.55	1015.79
392.75	1095.37
392.94	990.05
393.13	1086.01
393.33	1001.75
393.52	1111.75
393.71	1116.44
393.91	1256.87
394.10	1123.46
394.29	1261.55
394.49	1334.11
394.68	1322.40
394.88	1313.04
395.07	1301.34
395.26	1235.80
395.46	1270.91
395.65	1324.74
395.84	1315.38
396.04	1394.96
396.23	1249.85
396.42	1158.57
396.62	1228.78
396.81	1256.87
397.00	1334.11
397.19	1369.21
397.39	1338.79
397.58	1444.11
397.77	1504.96
397.97	1514.33
398.16	1430.07
398.35	1490.92
398.55	1493.26
398.74	1596.25
398.93	1579.86
399.12	1572.84
399.32	1572.84
399.51	1617.31
399.70	1633.69
399.90	1617.31
400.09	1713.27
400.28	1692.21
400.47	1760.08
400.67	1671.14
400.86	1614.97
401.05	1727.32
401.24	1783.49
401.44	1816.26
401.63	1710.93
401.82	1842.00
402.01	1734.34
402.21	1870.09
402.40	1858.39
402.59	1804.55
402.78	1923.92
402.97	1820.94
403.17	1849.02
403.36	1940.30
403.55	1982.43
403.74	2050.31
403.93	1966.05
404.13	1933.28
404.32	1846.68
404.51	1893.49
404.70	1996.48
404.89	2101.80
405.09	2101.80
405.28	2111.16
405.47	2045.63
405.66	2132.23
405.85	1984.77
406.05	2104.14
406.24	2031.58
406.43	2054.99
406.62	2190.74
406.81	2211.81
407.00	2129.89
407.20	2214.15
407.39	2174.36
407.58	2195.42
407.77	2253.94
407.96	2380.32
408.15	2282.02
408.34	2333.51
408.54	2314.79
408.73	2317.13
408.92	2387.35
409.11	2445.86
409.30	2434.16
409.49	2399.05
409.68	2408.41
409.87	2499.69
410.07	2438.84
410.26	2464.58
410.45	2480.97
410.64	2476.29
410.83	2525.44
411.02	2661.19
411.21	2738.43
411.40	2731.41
411.59	2644.81
411.78	2579.27
411.98	2726.72
412.17	2796.94
412.36	2810.98
412.55	2834.39
412.74	2829.71
412.93	2860.13
413.12	2785.24
413.31	3009.93
413.50	3014.61
413.69	2995.89
413.88	3131.64
414.07	2972.48
414.26	3026.31
414.45	3117.59
414.64	3066.10
414.83	3035.67
415.02	3136.32
415.22	3234.62
415.41	3353.99
415.60	3232.28
415.79	3356.33
415.98	3344.63
416.17	3335.26
416.36	3337.60
416.55	3407.82
416.74	3456.97
416.93	3447.61
417.12	3485.06
417.31	3466.33
417.50	3557.61
417.69	3660.60
417.88	3660.60
418.07	3625.49
418.26	3548.25
418.45	3648.90
418.64	3702.73
418.83	3520.17
419.02	3602.08
419.21	3873.59
419.39	3728.47
419.58	3672.30
419.77	3777.62
419.96	3922.74
420.15	3850.18
420.34	3707.41
420.53	3948.48
420.72	3955.51
420.91	3985.93
421.10	3988.27
421.29	4149.77
421.48	3894.65
421.67	4060.83
421.86	3950.82
422.05	4037.42
422.24	4011.68
422.43	3868.91
422.61	4072.53
422.80	4011.68
422.99	4105.30
423.18	4109.98
423.37	4117.00
423.56	4060.83
423.75	3932.10
423.94	4128.70
424.13	3981.25
424.32	3950.82
424.50	4074.87
424.69	4304.25
424.88	4212.96
425.07	4042.11
425.26	4102.96
425.45	4091.26
425.64	3983.59
425.83	4081.89
426.01	4222.33
426.20	4269.14
426.39	4175.52
426.58	4098.28
426.77	4032.74
426.96	4142.75
427.15	4292.54
427.33	4088.92
427.52	4407.23
427.71	4428.29
427.90	4339.35
428.09	4219.99
428.28	4493.83
428.46	4428.29
428.65	4271.48
428.84	4428.29
429.03	4456.38
429.22	4133.39
429.40	4299.56
429.59	4304.25
429.78	4037.42
429.97	4035.08
430.16	4182.54
430.34	4269.14
430.53	4294.88
430.72	4231.69
430.91	4292.54
431.10	4606.17
431.28	4730.22
431.47	4786.40
431.66	4865.97
431.85	4695.11
432.03	4781.71
432.22	4924.49
432.41	4716.18
432.60	4931.51
432.79	4891.72
432.97	5046.20
433.16	4922.15
433.35	4690.43
433.54	4889.38
433.72	4821.50
433.91	4788.74
434.10	4889.38
434.28	4978.32
434.47	5015.77
434.66	5055.56
434.85	5261.52
435.03	5212.37
435.22	5053.22
435.41	5163.22
435.59	5249.82
435.78	5320.04
435.97	5460.47
436.16	5394.93
436.34	5256.84
436.53	5317.70
436.72	5355.15
436.90	5392.59
437.09	5507.28
437.28	5303.65
437.46	5320.04
437.65	5336.42
437.84	5434.72
438.02	5467.49
438.21	5401.96
438.40	5378.55
438.58	5535.37
438.77	5624.31
438.96	5638.35
439.14	5881.77
439.33	5797.51
439.52	5874.74
439.70	5851.34
439.89	5762.40
440.08	5853.68
440.26	6090.07
440.45	6115.82
440.63	6043.26
440.82	6150.93
441.01	6244.55
441.19	6204.76
441.38	6333.49
441.57	6267.95
441.75	6539.46
441.94	6424.77
442.12	6523.07
442.31	6745.42
442.50	6492.65
442.68	6565.20
442.87	6621.38
443.05	6710.32
443.24	6623.72
443.43	6677.55
443.61	6663.51
443.80	6775.85
443.98	6523.07
444.17	6497.33
444.35	6775.85
444.54	7110.55
444.73	6768.83
444.91	6675.21
445.10	6696.27
445.28	6871.81
445.47	6710.32
445.65	6623.72
445.84	6712.66
446.02	6846.07
446.21	6705.63
446.39	6665.85
446.58	7033.31
446.77	6843.73
446.95	6799.26
447.14	6853.09
447.32	7059.06
447.51	6965.43
447.69	6918.62
447.88	7045.01
448.06	7033.31
448.25	6932.67
448.43	7021.61
448.62	7007.56
448.80	7091.82
448.99	7243.96
449.17	7410.14
449.36	7063.74
449.54	7346.94
449.73	7288.43
449.91	7508.44
450.10	7604.40
450.28	7597.38
450.46	7405.46
450.65	7379.71
450.83	7431.20
451.02	7618.44
451.20	7468.65
451.39	7473.33
451.57	7398.43
451.76	7365.67
451.94	7566.95
452.13	7466.31
452.31	7412.48
452.49	7396.09
452.68	7625.47
452.86	7478.01
453.05	7513.12
453.23	7751.85
453.42	7648.87
453.60	7658.23
453.78	7644.19
453.97	7667.60
454.15	7829.09
454.34	7761.22
454.52	7903.99
454.70	7875.90
454.89	7669.94
455.07	7943.78
455.26	7969.52
455.44	7978.89
455.62	8074.85
455.81	8102.93
455.99	8119.32
456.17	8166.13
456.36	7983.57
456.54	8149.75
456.73	8374.44
456.91	8538.27
457.09	8538.27
457.28	8681.05
457.46	8407.20
457.64	8496.14
457.83	8322.94
458.01	8177.83
458.19	8561.68
458.38	8360.39
458.56	8435.29
458.74	8557.00
458.93	8454.02
459.11	8695.09
459.29	8608.49
459.48	8592.11
459.66	8561.68
459.84	8762.97
460.03	8847.22
460.21	8573.38
460.39	8980.64
460.57	8994.68
460.76	8933.82
460.94	9172.56
461.12	8957.23
461.31	9015.74
461.49	9224.05
461.67	9088.30
461.85	9238.09
462.04	9032.13
462.22	9640.67
462.40	9254.48
462.59	9233.41
462.77	9380.87
462.95	9474.49
463.13	9462.79
463.32	9137.45
463.50	9280.22
463.68	9376.19
463.86	9362.14
464.05	9411.29
464.23	9343.42
464.41	9446.40
464.59	9308.31
464.78	9661.73
464.96	9572.79
465.14	9373.85
465.32	9413.63
465.50	9678.12
465.69	9778.76
465.87	9437.04
466.05	9518.96
466.23	9558.75
466.41	9610.24
466.60	9865.36
466.78	9596.20
466.96	9607.90
467.14	9743.65
467.32	9666.41
467.51	9874.72
467.69	9600.88
467.87	9781.10
468.05	9827.91
468.23	9750.67
468.41	9877.06
468.60	9837.27
468.78	9982.38
468.96	9872.38
469.14	10017.49
469.32	10115.80
469.50	9834.93
469.69	9851.31
469.87	10368.57
470.05	9961.32
470.23	10153.24
470.41	10417.72
470.59	10251.55
470.77	10438.79
470.95	10265.59
471.14	10647.10
471.32	10204.74
471.50	10532.41
471.68	10619.01
471.86	10567.52
472.04	10934.98
472.22	10867.11
472.40	10628.37
472.58	10846.04
472.77	10857.75
472.95	10890.51
473.13	11054.35
473.31	11098.82
473.49	10829.66
473.67	10934.98
473.85	11124.57
474.03	11370.32
474.21	11267.34
474.39	11576.29
474.57	11492.03
474.75	11515.44
474.93	11583.31
475.12	11559.91
475.30	11796.30
475.48	11438.20
475.66	11772.89
475.84	11796.30
476.02	11712.04
476.20	11840.77
476.38	12222.28
476.56	12067.80
476.74	12301.86
476.92	12404.84
477.10	12439.95
477.28	12793.37
477.46	12421.22
477.64	12615.49
477.82	12830.82
478.00	12709.11
478.18	12973.59
478.36	12987.63
478.54	13184.24
478.72	12975.93
478.90	13205.30
479.08	13633.62
479.26	13486.17
479.44	13544.68
479.62	13729.58
479.80	13881.72
479.98	13994.06
480.16	14242.16
480.34	14108.75
480.52	14314.72
480.70	14490.26
480.88	13937.89
481.06	14551.11
481.24	14333.44
481.41	14572.18
481.59	14885.81
481.77	15000.49
481.95	14930.28
482.13	14815.59
482.31	15211.14
482.49	15506.05
482.67	15428.81
482.85	15716.70
483.03	15807.98
483.21	16135.65
483.39	16074.80
483.57	15920.32
483.74	15999.90
483.92	16095.86
484.10	16224.59
484.28	16365.03
484.46	17048.46
484.64	16711.42
484.82	16435.24
485.00	16678.66
485.18	17263.79
485.35	17060.16
485.53	16418.86
485.71	16783.98
485.89	17102.29
486.07	17135.06
486.25	17245.07
486.43	17436.99
486.61	17469.76
486.78	17919.14
486.96	17933.18
487.14	18211.71
487.32	18075.96
487.50	18813.23
487.68	18691.52
487.85	19068.34
488.03	19332.82
488.21	19176.01
488.39	19421.77
488.57	19276.65
488.75	19503.68
488.92	19892.21
489.10	19957.75
489.28	20503.09
489.46	20479.69
489.64	20297.13
489.81	21010.99
489.99	20964.18
490.17	21060.14
490.35	21027.37
490.53	21057.80
490.70	21046.10
490.88	21099.93
491.06	21638.25
491.24	21802.09
491.41	21523.57
491.59	21638.25
491.77	21860.60
491.95	22134.45
492.13	22019.76
492.30	22689.15
492.48	22356.80
492.66	22703.20
492.84	22796.82
493.01	22904.48
493.19	22838.95
493.37	22892.78
493.54	22906.82
493.72	23410.04
493.90	23777.50
494.08	23311.74
494.25	24121.56
494.43	24070.07
494.61	24556.90
494.79	24203.48
494.96	24379.02
495.14	24332.21
495.32	24592.01
495.49	24563.92
495.67	24723.08
495.85	25083.52
496.02	24842.45
496.20	24844.79
496.38	25146.72
496.55	25348.00
496.73	26024.42
496.91	25532.90
497.09	25762.28
497.26	25909.73
497.44	25654.61
497.62	25874.62
497.79	26190.59
497.97	26073.57
498.14	26380.18
498.32	26536.99
498.50	26684.45
498.67	26764.03
498.85	26759.34
499.03	27337.46
499.20	27180.64
499.38	27323.41
499.56	27321.07
499.73	27520.02
499.91	27536.40
500.08	27683.86
500.26	27091.70
500.44	27646.41
500.61	27747.05
500.79	27360.86
500.97	27714.28
501.14	28414.10
501.32	28486.66
501.49	28081.75
501.67	28126.22
501.84	28355.59
502.02	28526.45
502.20	28505.38
502.37	28863.49
502.55	28964.13
502.72	28769.86
502.90	28968.81
503.07	28786.25
503.25	29343.30
503.43	29282.44
503.60	29032.00
503.78	29137.33
503.95	28889.23
504.13	29886.30
504.30	29244.99
504.48	29860.55
504.65	30052.48
504.83	30176.53
505.01	30132.06
505.18	30323.98
505.36	30359.09
505.53	30302.92
505.71	30574.42
505.88	30703.15
506.06	30335.68
506.23	30911.46
506.41	30909.11
506.58	30742.94
506.76	31007.42
506.93	31356.16
507.11	31138.49
507.28	30951.24
507.46	30794.43
507.63	31227.43
507.81	31126.78
507.98	31337.43
508.16	31292.96
508.33	31915.54
508.50	31789.16
508.68	31920.23
508.85	32385.99
509.03	32388.33
509.20	32044.27
509.38	32336.84
509.55	32465.57
509.73	32598.98
509.90	32706.65
510.08	32566.21
510.25	32540.47
510.42	32788.56
510.60	33008.58
510.77	33301.14
510.95	33326.89
511.12	33221.56
511.30	33347.95
511.47	33230.93
511.64	33434.55
511.82	33301.14
511.99	33195.82
512.17	33443.91
512.34	33418.17
512.51	33743.50
512.69	34213.95
512.86	33247.31
513.04	33799.68
513.21	34073.52
513.38	33909.68
513.56	33991.60
513.73	33745.84
513.90	33961.17
514.08	34082.88
514.25	34216.29
514.43	34422.26
514.60	34824.83
514.77	34513.54
514.95	34782.70
515.12	34881.00
515.29	34763.98
515.47	34937.18
515.64	35255.49
515.81	34675.04
515.99	35257.83
516.16	35014.41
516.33	34450.35
516.51	34546.31
516.68	34508.86
516.85	33986.92
517.03	34611.84
517.20	34960.58
517.37	35590.19
517.54	35690.83
517.72	35388.90
517.89	35325.71
518.06	35365.49
518.24	35257.83
518.41	35257.83
518.58	35522.31
518.75	35807.86
518.93	36135.53
519.10	36154.26
519.27	36119.15
519.45	36154.26
519.62	36170.64
519.79	36479.59
519.96	36968.76
520.14	36734.71
520.31	36151.91
520.48	36662.15
520.65	36886.84
520.83	37277.71
521.00	37514.11
521.17	36786.20
521.34	37268.35
521.52	37603.05
521.69	37865.19
521.86	37841.78
522.03	37722.41
522.20	37581.98
522.38	37619.43
522.55	37759.86
522.72	37287.07
522.89	37759.86
523.07	38160.09
523.24	37748.16
523.41	37928.38
523.58	38211.59
523.75	38576.71
523.92	38450.32
524.10	38459.68
524.27	38852.89
524.44	38567.35
524.61	38375.42
524.78	39021.41
524.96	38637.56
525.13	38857.57
525.30	39210.99
525.47	38946.51
525.64	38841.19
525.81	38803.74
525.98	38616.50
526.16	38635.22
526.33	38359.04
526.50	38899.70
526.67	38403.51
526.84	38527.56
527.01	38834.17
527.18	39030.77
527.36	39442.71
527.53	39580.80
527.70	39716.55
527.87	39899.11
528.04	39166.52
528.21	39744.64
528.38	39405.26
528.55	39770.38
528.72	39908.47
528.89	40334.45
529.07	40322.75
529.24	39819.53
529.41	40226.79
529.58	39817.19
529.75	39917.84
529.92	40638.72
530.09	40505.31
530.26	40502.97
530.43	40446.80
530.60	40348.50
530.77	40367.22
530.94	40645.74
531.11	40727.66
531.28	40840.01
531.46	41036.61
531.63	41085.76
531.80	40526.38
531.97	40690.21
532.14	40353.18
532.31	40243.17
532.48	40322.75
532.65	40952.35
532.82	40935.97
532.99	40975.76
533.16	40973.42
533.33	41029.59
533.50	41584.30
533.67	41832.39
533.84	41340.88
534.01	41083.42
534.18	41514.08
534.35	42019.64
534.52	41139.60
534.69	41787.92
534.86	41647.49
535.03	42012.62
535.20	41940.06
535.37	42443.27
535.54	42321.57
535.71	42286.46
535.88	41801.97
536.05	42036.02
536.22	42230.29
536.38	42249.01
536.55	42064.11
536.72	42073.47
536.89	41867.50
537.06	42321.57
537.23	42244.33
537.40	42256.03
537.57	42639.88
537.74	42230.29
537.91	42897.34
538.08	42717.12
538.25	42429.23
538.42	42424.55
538.59	42981.60
538.75	42424.55
538.92	42745.20
539.09	42845.85
539.26	42904.36
539.43	43143.09
539.60	43220.33
539.77	42396.46
539.94	42820.10
540.11	42623.50
540.28	42660.94
540.44	42546.26
540.61	42808.40
540.78	42632.86
540.95	42550.94
541.12	42944.15
541.29	42799.04
541.46	43217.99
541.62	43189.91
541.79	43540.99
541.96	42759.25
542.13	43033.09
542.30	43559.71
542.47	43477.79
542.63	43419.28
542.80	43423.96
542.97	43543.33
543.14	43871.00
543.31	44163.57
543.48	44119.10
543.64	44215.06
543.81	44205.70
543.98	44081.65
544.15	43957.60
544.32	44137.82
544.48	44519.33
544.65	44091.01
544.82	44535.71
544.99	43985.69
545.16	43871.00
545.32	44437.41
545.49	44392.94
545.66	44629.34
545.83	44626.99
546.00	44701.89
546.16	44610.61
546.33	44339.11
546.50	44339.11
546.67	44629.34
546.83	44362.51
547.00	44554.44
547.17	44708.91
547.34	44638.70
547.50	44711.25
547.67	44734.66
547.84	44645.72
548.00	44839.98
548.17	45158.30
548.34	44451.45
548.51	45193.40
548.67	44931.26
548.84	45549.17
549.01	45092.76
549.18	44875.09
549.34	45083.40
549.51	45240.21
549.68	45682.58
549.84	45446.18
550.01	45010.84
550.18	45558.53
550.34	45017.86
550.51	45088.08
550.68	45315.11
550.84	45045.95
551.01	45329.16
551.18	45366.60
551.34	45031.91
551.51	45415.76
551.68	45869.82
551.84	45778.54
552.01	45682.58
552.18	45411.07
552.34	45003.82
552.51	45830.03
552.68	45406.39
552.84	45827.69
553.01	46043.02
553.18	45972.80
553.34	45963.44
553.51	45972.80
553.67	46253.67
553.84	46169.41
554.01	45736.41
554.17	46050.04
554.34	45930.67
554.51	46270.05
554.67	46555.60
554.84	45930.67
555.00	46064.08
555.17	46361.33
555.33	46337.93
555.50	46218.56
555.67	46241.96
555.83	46087.49
556.00	46206.86
556.16	46337.93
556.33	46108.55
556.50	46181.11
556.66	46651.56
556.83	45977.48
556.99	46248.99
557.16	46546.23
557.32	46410.48
557.49	46426.87
557.65	46038.34
557.82	46473.68
557.98	46349.63
558.15	46375.37
558.32	46621.13
558.48	46021.95
558.65	46424.53
558.81	45970.46
558.98	46291.12
559.14	46106.21
559.31	46387.08
559.47	46394.10
559.64	46698.37
559.80	46529.85
559.97	46600.07
560.13	46174.09
560.30	46567.30
560.46	46541.55
560.63	46691.35
560.79	46738.16
560.96	46609.43
561.12	46824.76
561.29	46632.83
561.45	46864.55
561.61	46639.86
561.78	46862.21
561.94	46567.30
562.11	46869.23
562.27	46763.90
562.44	46857.52
562.60	47026.04
562.77	46827.10
562.93	46646.88
563.10	47557.35
563.26	47079.88
563.42	47519.90
563.59	46698.37
563.75	47178.18
563.92	47136.05
564.08	46796.67
564.24	46845.82
564.41	47147.75
564.57	46684.33
564.74	46843.48
564.90	47377.12
565.07	46946.47
565.23	47082.22
565.39	46689.01
565.56	47138.39
565.72	46560.28
565.88	46607.09
566.05	46581.34
566.21	47065.83
566.38	46883.27
566.54	47334.99
566.70	47119.66
566.87	47313.93
567.03	47236.69
567.19	47714.16
567.36	46841.14
567.52	47112.64
567.68	47119.66
567.85	46768.58
568.01	47016.68
568.17	46703.05
568.34	47210.95
568.50	47012.00
568.66	46768.58
568.83	46848.16
568.99	46997.96
569.15	47241.37
569.32	47161.79
569.48	47122.01
569.64	47480.11
569.81	47522.24
569.97	47192.22
570.13	47187.54
570.30	46850.50
570.46	46777.95
570.62	47016.68
570.78	46761.56
570.95	46780.29
571.11	47129.03
571.27	46974.55
571.43	47316.27
571.60	47117.32
571.76	47391.17
571.92	47360.74
572.09	47166.48
572.25	47016.68
572.41	47054.13
572.57	47615.86
572.74	47735.23
572.90	47344.36
573.06	47482.45
573.22	47639.26
573.38	47688.42
573.55	47082.22
573.71	47269.46
573.87	47208.61
574.03	47379.46
574.20	47136.05
574.36	47269.46
574.52	47452.02
574.68	47533.94
574.84	47672.03
575.01	47470.75
575.17	47325.63
575.33	47503.51
575.49	47042.43
575.65	47924.81
575.82	47763.31
575.98	47199.24
576.14	47840.55
576.30	47400.53
576.46	47164.14
576.62	47044.77
576.79	47360.74
576.95	46504.10
577.11	47407.55
577.27	47318.61
577.43	47365.42
577.59	47201.58
577.75	47508.19
577.92	46920.72
578.08	47070.51
578.24	46990.94
578.40	47470.75
578.56	47140.73
578.72	47098.60
578.88	47435.64
579.04	47980.98
579.21	47049.45
579.37	47306.91
579.53	47208.61
579.69	47388.83
579.85	47122.01
580.01	47533.94
580.17	47772.67
580.33	47775.02
580.49	47538.62
580.65	47428.62
580.82	47147.75
580.98	47772.67
581.14	47157.11
581.30	47239.03
581.46	47679.05
581.62	47604.16
581.78	47288.18
581.94	47901.40
582.10	47672.03
582.26	47742.25
582.42	47414.57
582.58	47292.86
582.74	47437.98
582.90	47409.89
583.06	47934.17
583.22	47374.78
583.38	47447.34
583.54	48016.09
583.70	47559.69
583.86	47585.43
584.02	47213.29
584.18	47400.53
584.34	47796.08
584.50	47461.38
584.66	47456.70
584.82	47318.61
584.98	47484.79
585.14	47157.11
585.30	47110.30
585.46	47564.37
585.62	47330.31
585.78	47456.70
585.94	47019.02
586.10	47196.90
586.26	47000.30
586.42	47676.71
586.58	47775.02
586.74	47847.57
586.90	47627.56
587.06	47288.18
587.22	47622.88
587.38	47515.22
587.54	47901.40
587.70	47562.03
587.86	47583.09
588.02	47540.96
588.18	47496.49
588.34	47161.79
588.49	46747.52
588.65	46787.31
588.81	46738.16
588.97	46742.84
589.13	46602.41
589.29	46937.10
589.45	47033.07
589.61	47545.64
589.77	47716.50
589.93	47475.43
590.08	47749.27
590.24	47826.51
590.40	47667.35
590.56	48200.99
590.72	47613.52
590.88	47407.55
591.04	47365.42
591.20	48105.03
591.35	47805.44
591.51	48002.05
591.67	47660.33
591.83	47538.62
591.99	47349.04
592.15	47641.60
592.31	47767.99
592.46	47489.47
592.62	47229.67
592.78	47672.03
592.94	47388.83
593.10	47852.25
593.26	47838.21
593.41	47793.74
593.57	47620.54
593.73	47533.94
593.89	47676.71
594.05	47466.06
594.20	47334.99
594.36	47569.05
594.52	47468.40
594.68	47615.86
594.84	47643.94
594.99	47988.00
595.15	47938.85
595.31	47587.77
595.47	47555.00
595.62	47224.99
595.78	48011.41
595.94	48074.60
596.10	47805.44
596.25	48172.91
596.41	47775.02
596.57	47915.45
596.73	47730.54
596.88	47868.64
597.04	47831.19
597.20	47585.43
597.36	47538.62
597.51	47721.18
597.67	47789.06
597.83	47744.59
597.99	47845.23
598.14	48065.24
598.30	47798.42
598.46	47723.52
598.61	47849.91
598.77	47690.76
598.93	47000.30
599.09	47697.78
599.24	48303.98
599.40	47971.62
599.56	48074.60
599.71	48088.65
599.87	47922.47
600.03	47751.61
600.18	47812.46
600.34	47599.47
600.50	47875.66
600.65	47608.84
600.81	48224.40
600.97	48065.24
601.12	47646.29
601.28	47639.26
601.44	47325.63
601.59	47618.20
601.75	47065.83
601.91	47365.42
602.06	47606.50
602.22	47662.67
602.37	47728.20
602.53	47646.29
602.69	47990.34
602.84	47854.59
603.00	47222.65
603.16	47358.40
603.31	47693.10
603.47	47454.36
603.62	47468.40
603.78	47629.90
603.94	47735.23
604.09	47760.97
604.25	47391.17
604.40	47543.30
604.56	47590.11
604.71	47669.69
604.87	47580.75
605.03	47386.49
605.18	47550.32
605.34	47510.53
605.49	47650.97
605.65	47306.91
605.80	47669.69
605.96	47861.61
606.12	47482.45
606.27	47311.59
606.43	47409.89
606.58	47377.12
606.74	47433.30
606.89	47407.55
607.05	47402.87
607.20	47557.35
607.36	47758.63
607.51	47461.38
607.67	47760.97
607.82	47276.48
607.98	47887.36
608.13	47283.50
608.29	47311.59
608.44	47229.67
608.60	46927.74
608.75	47512.88
608.91	47143.07
609.06	47049.45
609.22	47334.99
609.37	46906.68
609.53	47327.97
609.68	47318.61
609.84	46962.85
609.99	47030.72
610.15	46625.81
610.30	46927.74
610.46	46927.74
610.61	47220.31
610.76	47386.49
610.92	47271.80
611.07	46951.15
611.23	46960.51
611.38	47086.90
611.54	46597.73
611.69	46967.53
611.84	46770.93
612.00	47234.35
612.15	47077.54
612.31	46777.95
612.46	46951.15
612.62	46937.10
612.77	46637.51
612.92	46990.94
613.08	46735.82
613.23	46717.09
613.39	46277.07
613.54	45904.93
613.69	46953.49
613.85	46490.06
614.00	46733.48
614.15	46700.71
614.31	46824.76
614.46	46564.96
614.62	46501.76
614.77	46841.14
614.92	46237.28
615.08	46293.46
615.23	46380.06
615.38	46333.24
615.54	46263.03
615.69	46157.70
615.84	45680.24
616.00	46162.39
616.15	46450.27
616.30	46270.05
616.46	46028.98
616.61	45708.32
616.76	46033.66
616.92	45914.29
617.07	45881.52
617.22	45436.82
617.37	46129.62
617.53	46284.09
617.68	46164.73
617.83	46066.42
617.99	46185.79
618.14	45879.18
618.29	45944.72
618.45	46096.85
618.60	45710.66
618.75	45715.34
618.90	45614.70
619.06	45581.93
619.21	46167.07
619.36	45794.92
619.51	45586.61
619.67	45600.66
619.82	45841.73
619.97	45895.56
620.12	45879.18
620.28	45497.67
620.43	45633.42
620.58	45549.17
620.73	45687.26
620.89	45390.01
621.04	45448.52
621.19	45727.05
621.34	45617.04
621.49	45191.06
621.65	45071.70
621.80	45294.05
621.95	45170.00
622.10	45237.87
622.25	45378.31
622.41	45003.82
622.56	45193.40
622.71	45280.00
622.86	44994.46
623.01	44903.18
623.16	45324.47
623.32	45336.18
623.47	45399.37
623.62	45333.84
623.77	44957.01
623.92	45212.13
624.07	44994.46
624.23	44926.58
624.38	44844.66
624.53	44622.31
624.68	45020.20
624.83	44882.11
624.98	44608.27
625.13	44435.07
625.29	44762.75
625.44	44605.93
625.59	44217.40
625.74	44442.09
625.89	44634.02
626.04	44154.21
626.19	44170.59
626.34	44484.22
626.49	44584.86
626.65	44659.76
626.80	44779.13
626.95	44053.56
627.10	44839.98
627.25	44163.57
627.40	44112.08
627.55	43473.11
627.70	43409.92
627.85	43973.98
628.00	43934.20
628.15	44245.49
628.30	44432.73
628.45	44381.24
628.60	43983.35
628.76	44140.16
628.91	43789.08
629.06	43922.49
629.21	43660.35
629.36	44013.77
629.51	43831.21
629.66	43468.43
629.81	43782.06
629.96	43643.97
630.11	43538.65
630.26	43335.02
630.41	43812.49
630.56	43491.83
630.71	43889.73
630.86	43737.59
631.01	43505.88
631.16	43908.45
631.31	42997.98
631.46	43285.87
631.61	43456.73
631.76	43416.94
631.91	43669.72
632.06	43400.55
632.21	43512.90
632.36	43634.61
632.51	43323.32
632.66	43299.91
632.81	43012.02
632.96	42822.44
633.10	43091.60
633.25	43182.88
633.40	43306.93
633.55	43477.79
633.70	43063.52
633.85	42920.74
634.00	43028.41
634.15	42794.36
634.30	43192.25
634.45	43093.94
634.60	42955.85
634.75	43096.28
634.90	43201.61
635.05	42923.08
635.19	43021.39
635.34	42782.65
635.49	42667.97
635.64	42773.29
635.79	42707.76
635.94	42384.76
636.09	42639.88
636.24	42546.26
636.39	42553.28
636.53	43016.71
636.68	42113.26
636.83	42272.42
636.98	42447.96
637.13	42249.01
637.28	42478.38
637.43	42752.23
637.57	42398.80
637.72	41853.46
637.87	42174.11
638.02	42422.21
638.17	42469.02
638.32	42101.56
638.46	42021.98
638.61	42246.67
638.76	42293.48
638.91	42696.05
639.06	42141.35
639.20	41727.07
639.35	42684.35
639.50	42134.32
639.65	42127.30
639.80	42197.52
639.94	42150.71
640.09	41570.25
640.24	41874.52
640.39	41500.04
640.54	41483.66
640.68	41553.87
640.83	41109.17
640.98	41397.06
641.13	41511.74
641.27	41804.31
641.42	41530.47
641.57	41099.81
641.72	41497.70
641.86	41429.82
642.01	41347.90
642.16	41441.53
642.31	41331.52
642.45	41888.57
642.60	40971.08
642.75	41347.90
642.90	41516.42
643.04	41153.64
643.19	41230.88
643.34	41256.62
643.48	41406.42
643.63	41553.87
643.78	40678.51
643.93	41249.60
644.07	40985.12
644.22	41537.49
644.37	41045.97
644.51	40783.83
644.66	41029.59
644.81	41172.36
644.95	40961.72
645.10	40968.74
645.25	41109.17
645.39	41109.17
645.54	41352.58
645.69	41158.32
645.83	40795.54
645.98	41050.66
646.13	40533.40
646.27	41385.35
646.42	40896.18
646.57	40470.20
646.71	40886.82
646.86	41010.87
647.00	40542.76
647.15	40952.35
647.30	40669.15
647.44	40367.22
647.59	40594.25
647.74	40198.70
647.88	40275.94
648.03	40556.80
648.17	40392.97
648.32	39892.09
648.47	40149.55
648.61	40271.26
648.76	40289.98
648.90	40339.13
649.05	40423.39
649.20	40130.83
649.34	40634.04
649.49	40484.25
649.63	40247.85
649.78	39831.24
649.92	39943.58
650.07	40381.26
650.21	40224.45
650.36	40088.70
650.51	39929.54
650.65	40172.96
650.80	40580.21
650.94	40535.74
651.09	39812.51
651.23	39878.05
651.38	39800.81
651.52	39531.65
651.67	40006.78
651.81	39543.35
651.96	39695.49
652.10	40158.91
652.25	39679.10
652.39	39580.80
652.54	39873.37
652.68	39611.23
652.83	40046.57
652.97	39526.97
653.12	39929.54
653.26	39342.06
653.41	39840.60
653.55	39421.64
653.70	39524.63
653.84	39697.83
653.99	39517.60
654.13	39304.62
654.27	39253.12
654.42	39276.53
654.56	39234.40
654.71	39356.11
654.85	39515.26
655.00	39297.59
655.14	38768.63
655.29	38490.11
655.43	38869.28
655.57	39049.50
655.72	38696.08
655.86	38377.76
656.01	38307.55
656.15	38347.34
656.30	38405.85
656.44	38511.17
656.58	38251.38
656.73	38515.86
656.87	38251.38
657.01	38586.07
657.16	38373.08
657.30	38124.99
657.45	38010.30
657.59	38305.21
657.73	37809.01
657.88	38684.37
658.02	38768.63
658.16	38139.03
658.31	38237.33
658.45	38342.66
658.60	38213.93
658.74	38637.56
658.88	38717.14
659.03	38094.56
659.17	38284.14
659.31	38206.90
659.46	38038.39
659.60	37586.66
659.74	37752.84
659.89	37670.92
660.03	37422.83
660.17	37879.23
660.32	37614.75
660.46	37741.14
660.60	37635.81
660.74	38012.64
660.89	37949.45
661.03	37301.12
661.17	37371.33
661.32	37200.47
661.46	37610.07
661.60	37743.48
661.74	37846.46
661.89	37308.14
662.03	37074.09
662.17	36971.10
662.31	37249.63
662.46	37567.94
662.60	37251.97
662.74	37429.85
662.88	37160.69
663.03	36870.46
663.17	37179.41
663.31	36828.33
663.45	37633.47
663.60	37301.12
663.74	36514.70
663.88	36767.48
664.02	36325.11
664.17	36744.07
664.31	36271.28
664.45	36463.21
664.59	36446.82
664.73	36084.04
664.88	35807.86
665.02	36238.51
665.16	36809.61
665.30	36116.81
665.44	36013.82
665.59	35826.58
665.73	36013.82
665.87	35646.36
666.01	36119.15
666.15	35512.95
666.29	35864.03
666.44	35854.67
666.58	35711.89
666.72	35751.68
666.86	35454.44
667.00	35281.24
667.14	35868.71
667.28	35784.45
667.43	35288.26
667.57	35538.69
667.71	35049.52
667.85	35400.60
667.99	35363.15
668.13	34965.26
668.27	34983.99
668.41	34766.32
668.56	34518.22
668.70	35360.81
668.84	34937.18
668.98	34923.13
669.12	34897.39
669.26	34876.32
669.40	34443.32
669.54	34085.22
669.68	34829.51
669.82	34660.99
669.96	34239.70
670.10	33715.42
670.25	34295.87
670.39	34658.65
670.53	34192.89
670.67	34302.89
670.81	33565.62
670.95	34099.26
671.09	34410.56
671.23	33680.31
671.37	34003.30
671.51	33977.56
671.65	33614.77
671.79	33322.21
671.93	33717.76
672.07	33567.96
672.21	33170.07
672.35	33301.14
672.49	32996.87
672.63	33312.84
672.77	32975.81
672.91	32926.66
673.05	33043.68
673.19	33132.62
673.33	32985.17
673.47	33289.44
673.61	32547.49
673.75	32584.94
673.89	32449.19
674.03	32149.60
674.17	32449.19
674.31	32240.88
674.45	32512.38
674.59	32512.38
674.73	31988.10
674.87	32210.45
675.01	31754.05
675.15	31730.64
675.29	32133.21
675.43	32037.25
675.56	31981.08
675.70	31625.32
675.84	31463.82
675.98	30167.16
676.12	31379.56
676.26	31297.64
676.40	31098.70
676.54	31229.77
676.68	31161.89
676.82	30749.96
676.96	30843.58
677.10	30672.72
677.23	30998.06
677.37	30668.04
677.51	30279.51
677.65	30590.80
677.79	29907.37
677.93	30272.49
678.07	29804.38
678.21	29773.95
678.34	30061.84
678.48	29476.71
678.62	29443.94
678.76	29757.57
678.90	29750.55
679.04	29703.74
679.18	29237.97
679.31	29521.18
679.45	29455.64
679.59	28814.34
679.73	28968.81
679.87	28999.24
680.00	29418.19
680.14	28690.29
680.28	28566.24
680.42	28718.37
680.56	28519.43
680.70	28442.19
680.83	28608.37
680.97	28191.75
681.11	28322.82
681.25	28245.58
681.39	28051.32
681.52	27466.19
681.66	27899.19
681.80	28142.60
681.94	28250.27
682.07	27555.13
682.21	27800.88
682.35	27395.97
682.49	27590.24
682.62	27468.53
682.76	27190.00
682.90	27332.78
683.04	27300.01
683.17	27000.42
683.31	26663.38
683.45	27229.79
683.59	26661.04
683.72	26607.21
683.86	26649.34
684.00	26141.44
684.13	26434.01
684.27	26745.30
684.41	26092.29
684.55	25879.30
684.68	25879.30
684.82	25703.76
684.96	26057.18
685.09	25731.85
685.23	25518.86
685.37	25387.79
685.50	25486.09
685.64	25858.24
685.78	25242.68
685.91	25102.25
686.05	25345.66
686.19	24896.28
686.32	25017.99
686.46	24720.74
686.60	24594.35
686.73	24245.61
686.87	23976.45
687.01	23931.98
687.14	23747.08
687.28	23840.70
687.42	23653.45
687.55	23484.94
687.69	23529.41
687.82	23557.49
687.96	23779.84
688.10	23700.26
688.23	23491.96
688.37	23332.80
688.50	22974.70
688.64	23098.75
688.78	23222.80
688.91	22948.95
689.05	22836.61
689.18	22742.99
689.32	22684.47
689.46	22649.36
689.59	22829.59
689.73	23197.05
689.86	22689.15
690.00	22803.84
690.13	22717.24
690.27	22291.26
690.41	22436.38
690.54	22232.75
690.68	21963.59
690.81	21778.68
690.95	21729.53
691.08	21572.72
691.22	21713.15
691.35	21680.38
691.49	21839.54
691.62	21766.98
691.76	21900.39
691.89	21659.32
692.03	21305.90
692.16	21092.91
692.30	21195.89
692.43	20786.30
692.57	20947.79
692.70	20877.58
692.84	20954.82
692.97	20650.55
693.11	20388.41
693.24	20203.50
693.38	20109.88
693.51	20280.74
693.65	20350.96
693.78	20390.75
693.92	20081.80
694.05	19978.81
694.19	19908.60
694.32	19861.79
694.45	19686.25
694.59	19442.83
694.72	19571.56
694.86	19133.88
694.99	19367.93
695.13	19241.54
695.26	18988.77
695.39	18682.16
695.53	19194.73
695.66	19098.77
695.80	19077.71
695.93	18958.34
696.07	18937.27
696.20	18824.93
696.33	18761.73
696.47	18871.74
696.60	18857.70
696.73	18293.63
696.87	18284.26
697.00	18319.37
697.14	18380.23
697.27	18202.35
697.40	18366.18
697.54	18061.91
697.67	17568.06
697.80	17614.87
697.94	17642.96
698.07	17418.27
698.21	17640.62
698.34	17706.15
698.47	17240.39
698.61	17453.37
698.74	17331.67
698.87	17399.54
699.01	17074.21
699.14	17069.53
699.27	17081.23
699.40	16952.50
699.54	16760.58
699.67	16669.30
699.80	16685.68
699.94	16671.64
700.07	16695.04
700.20	16446.94
700.34	16390.77
700.47	16381.41
700.60	16496.10
700.73	16313.53
700.87	16168.42
701.00	15943.73
701.13	16027.99
701.26	16063.10
701.40	16058.42
701.53	15742.44
701.66	16046.71
701.79	15611.37
701.93	15665.21
702.06	15384.34
702.19	15496.69
702.32	15716.70
702.46	15555.20
702.59	15351.57
702.72	15346.89
702.85	15492.01
702.99	15484.98
703.12	15253.27
703.25	14960.70
703.38	15033.26
703.51	14949.00
703.65	15023.90
703.78	14672.82
703.91	14848.36
704.04	14799.21
704.17	14588.56
704.31	14614.30
704.44	14195.35
704.57	14260.88
704.70	14029.17
704.83	13961.30
704.96	14455.15
705.10	13975.34
705.23	14312.38
>>>>>End Processed Spectral Data<<<<<
