SpectraSuite Data File
++++++++++++++++++++++++++++++++++++
Date: Fri Oct 25 10:43:16 EDT 2013
User: price-jones
Dark Spectrum Present: No
Reference Spectrum Present: No
Number of Sampled Component Spectra: 1
Spectrometers: USB2+H05261
Integration Time (usec): 100000 (USB2+H05261)
Spectra Averaged: 1 (USB2+H05261)
Boxcar Smoothing: 0 (USB2+H05261)
Correct for Electrical Dark: No (USB2+H05261)
Strobe/Lamp Enabled: No (USB2+H05261)
Correct for Detector Non-linearity: No (USB2+H05261)
Correct for Stray Light: No (USB2+H05261)
Number of Pixels in Processed Spectrum: 2048
>>>>>Begin Processed Spectral Data<<<<<
365.73	156.82
365.92	156.82
366.12	156.82
366.32	23.41
366.52	86.60
366.72	0.00
366.91	0.00
367.11	39.79
367.31	0.00
367.51	42.13
367.70	28.09
367.90	16.38
368.10	70.22
368.30	4.68
368.49	63.19
368.69	86.60
368.89	44.47
369.09	107.66
369.28	58.51
369.48	0.00
369.68	0.00
369.87	117.03
370.07	77.24
370.27	119.37
370.47	182.56
370.66	362.78
370.86	440.02
371.06	390.87
371.25	470.45
371.45	409.59
371.65	486.83
371.84	430.66
372.04	421.30
372.24	437.68
372.44	489.17
372.63	510.24
372.83	463.43
373.03	425.98
373.22	554.71
373.42	484.49
373.62	489.17
373.81	540.66
374.01	582.79
374.21	617.90
374.40	559.39
374.60	554.71
374.79	578.11
374.99	550.03
375.19	606.20
375.38	589.82
375.58	592.16
375.78	629.60
375.97	571.09
376.17	702.16
376.37	615.56
376.56	580.45
376.76	531.30
376.95	589.82
377.15	629.60
377.35	634.29
377.54	718.54
377.74	603.86
377.93	667.05
378.13	655.35
378.33	699.82
378.52	547.69
378.72	641.31
378.91	636.63
379.11	662.37
379.31	645.99
379.50	655.35
379.70	711.52
379.89	681.10
380.09	627.26
380.28	657.69
380.48	725.57
380.68	669.39
380.87	641.31
381.07	755.99
381.26	805.14
381.46	723.23
381.65	744.29
381.85	737.27
382.04	755.99
382.24	704.50
382.43	695.14
382.63	671.73
382.83	624.92
383.02	748.97
383.22	699.82
383.41	741.95
383.61	645.99
383.80	873.02
384.00	688.12
384.19	795.78
384.39	800.46
384.58	851.96
384.78	751.31
384.97	744.29
385.17	809.83
385.36	805.14
385.56	837.91
385.75	781.74
385.95	772.38
386.14	851.96
386.34	786.42
386.53	835.57
386.72	800.46
386.92	844.93
387.11	877.70
387.31	873.02
387.50	840.25
387.70	894.08
387.89	889.40
388.09	926.85
388.28	884.72
388.48	844.93
388.67	931.53
388.86	917.49
389.06	1018.13
389.25	898.77
389.45	997.07
389.64	961.96
389.84	971.32
390.03	1060.26
390.22	987.71
390.42	1093.03
390.61	1001.75
390.81	1064.94
391.00	987.71
391.19	1088.35
391.39	1011.11
391.58	1093.03
391.78	1020.47
391.97	1036.86
392.16	999.41
392.36	1057.92
392.55	1076.65
392.75	990.05
392.94	940.90
393.13	957.28
393.33	896.43
393.52	1050.90
393.71	1104.73
393.91	1064.94
394.10	1062.60
394.29	1167.93
394.49	1090.69
394.68	1163.25
394.88	1226.44
395.07	1177.29
395.26	1210.06
395.46	1256.87
395.65	1291.98
395.84	1219.42
396.04	1193.67
396.23	1125.80
396.42	1228.78
396.62	1160.91
396.81	1163.25
397.00	1277.93
397.19	1256.87
397.39	1336.45
397.58	1338.79
397.77	1362.19
397.97	1401.98
398.16	1369.21
398.35	1434.75
398.55	1404.32
398.74	1418.36
398.93	1516.67
399.12	1441.77
399.32	1448.79
399.51	1516.67
399.70	1561.14
399.90	1563.48
400.09	1645.40
400.28	1584.54
400.47	1542.41
400.67	1694.55
400.86	1570.50
401.05	1743.70
401.24	1680.50
401.44	1600.93
401.63	1666.46
401.82	1652.42
402.01	1563.48
402.21	1678.16
402.40	1806.89
402.59	1753.06
402.78	1732.00
402.97	1724.97
403.17	1788.17
403.36	1867.75
403.55	1900.52
403.74	1816.26
403.93	1907.54
404.13	1966.05
404.32	1849.02
404.51	1884.13
404.70	1891.15
404.89	1858.39
405.09	1893.49
405.28	2057.33
405.47	1919.24
405.66	1991.80
405.85	1956.69
406.05	1949.67
406.24	1940.30
406.43	1973.07
406.62	2230.53
406.81	2087.76
407.00	2052.65
407.20	1984.77
407.39	2092.44
407.58	2165.00
407.77	2155.63
407.96	2136.91
408.15	2214.15
408.34	2172.02
408.54	2246.91
408.73	2242.23
408.92	2270.32
409.11	2284.36
409.30	2345.22
409.49	2298.41
409.68	2310.11
409.87	2228.19
410.07	2363.94
410.26	2319.47
410.45	2471.61
410.64	2406.07
410.83	2551.18
411.02	2546.50
411.21	2614.38
411.40	2487.99
411.59	2590.97
411.78	2588.63
411.98	2583.95
412.17	2722.04
412.36	2778.22
412.55	2633.10
412.74	2700.98
412.93	2682.25
413.12	2693.96
413.31	2867.16
413.50	2729.06
413.69	2757.15
413.88	2951.42
414.07	2857.79
414.26	3047.38
414.45	2862.48
414.64	2963.12
414.83	2937.37
415.02	2963.12
415.22	3087.17
415.41	3225.26
415.60	3241.64
415.79	3070.78
415.98	3096.53
416.17	3300.16
416.36	3351.65
416.55	3152.70
416.74	3269.73
416.93	3342.28
417.12	3258.03
417.31	3372.71
417.50	3370.37
417.69	3548.25
417.88	3414.84
418.07	3442.93
418.26	3335.26
418.45	3581.02
418.64	3581.02
418.83	3517.83
419.02	3499.10
419.21	3571.66
419.39	3485.06
419.58	3674.64
419.77	3538.89
419.96	3585.70
420.15	3742.52
420.34	3712.09
420.53	3798.69
420.72	3817.41
420.91	3864.22
421.10	3770.60
421.29	3976.57
421.48	3744.86
421.67	3824.44
421.86	3775.28
422.05	3822.09
422.24	3655.92
422.43	3824.44
422.61	3728.47
422.80	3894.65
422.99	3882.95
423.18	3875.93
423.37	3981.25
423.56	4042.11
423.75	3964.87
423.94	3843.16
424.13	3599.74
424.32	3826.78
424.50	3992.95
424.69	4035.08
424.88	4051.47
425.07	3936.78
425.26	3829.12
425.45	3922.74
425.64	3896.99
425.83	4044.45
426.01	4124.02
426.20	4037.42
426.39	3981.25
426.58	3946.14
426.77	3836.14
426.96	3894.65
427.15	3904.01
427.33	4119.34
427.52	4119.34
427.71	4177.86
427.90	4007.00
428.09	4124.02
428.28	4180.20
428.46	4217.65
428.65	4205.94
428.84	4367.44
429.03	4245.73
429.22	4042.11
429.40	4187.22
429.59	4016.36
429.78	3941.46
429.97	3913.38
430.16	3969.55
430.34	4126.36
430.53	4191.90
430.72	4152.11
430.91	4182.54
431.10	4292.54
431.28	4451.70
431.47	4678.73
431.66	4667.03
431.85	4468.08
432.03	4678.73
432.22	4631.92
432.41	4617.88
432.60	4643.62
432.79	4620.22
432.97	4802.78
433.16	4681.07
433.35	4645.96
433.54	4758.31
433.72	4610.86
433.91	4550.00
434.10	4814.48
434.28	4699.80
434.47	4751.29
434.66	4873.00
434.85	4875.34
435.03	4936.19
435.22	4964.28
435.41	5114.07
435.59	5018.11
435.78	5172.58
435.97	5135.14
436.16	5018.11
436.34	5081.30
436.53	5064.92
436.72	5320.04
436.90	5008.75
437.09	5198.33
437.28	5116.41
437.46	5114.07
437.65	5111.73
437.84	5226.42
438.02	5203.01
438.21	4990.02
438.40	5240.46
438.58	5273.23
438.77	5331.74
438.96	5392.59
439.14	5554.09
439.33	5570.48
439.52	5497.92
439.70	5563.45
439.89	5713.25
440.08	5659.42
440.26	5720.27
440.45	5666.44
440.63	5841.98
440.82	6012.84
441.01	5863.04
441.19	6054.97
441.38	6214.12
441.57	5951.98
441.75	6090.07
441.94	6122.84
442.12	6169.65
442.31	6321.79
442.50	6373.28
442.68	6286.68
442.87	6176.67
443.05	6274.98
443.24	6422.43
443.43	6490.31
443.61	6366.26
443.80	6654.14
443.98	6406.05
444.17	6122.84
444.35	6354.55
444.54	6581.59
444.73	6532.44
444.91	6586.27
445.10	6539.46
445.28	6455.20
445.47	6469.24
445.65	6417.75
445.84	6457.54
446.02	6466.90
446.21	6509.03
446.39	6438.81
446.58	6553.50
446.77	6619.04
446.95	6572.22
447.14	6600.31
447.32	6799.26
447.51	6581.59
447.69	6780.53
447.88	6740.74
448.06	6647.12
448.25	6857.77
448.43	6764.15
448.62	6722.02
448.80	6590.95
448.99	6707.98
449.17	6799.26
449.36	7019.27
449.54	7059.06
449.73	6883.52
449.91	7087.14
450.10	6853.09
450.28	7335.24
450.46	7133.95
450.65	7246.30
450.83	7213.53
451.02	7124.59
451.20	7056.72
451.39	7239.28
451.57	7220.55
451.76	7035.65
451.94	7311.83
452.13	7272.04
452.31	7335.24
452.49	7045.01
452.68	7117.57
452.86	7424.18
453.05	7204.17
453.23	7342.26
453.42	7309.49
453.60	7288.43
453.78	7365.67
453.97	7351.62
454.15	7489.71
454.34	7499.08
454.52	7459.29
454.70	7562.27
454.89	7466.31
455.07	7494.40
455.26	7730.79
455.44	7777.60
455.62	7672.28
455.81	7550.57
455.99	7911.01
456.17	7831.43
456.36	7822.07
456.54	7880.58
456.73	7943.78
456.91	7967.18
457.09	8114.64
457.28	8210.60
457.46	8086.55
457.64	8184.85
457.83	8147.40
458.01	8004.63
458.19	8170.81
458.38	8056.12
458.56	8063.15
458.74	8236.35
458.93	8248.05
459.11	8294.86
459.29	8215.28
459.48	8238.69
459.66	8374.44
459.84	8367.42
460.03	8531.25
460.21	8486.78
460.39	8547.64
460.57	8493.80
460.76	8379.12
460.94	8528.91
461.12	8542.96
461.31	8737.22
461.49	8674.03
461.67	8596.79
461.85	8910.42
462.04	8793.39
462.22	9057.87
462.40	8884.67
462.59	8980.64
462.77	8777.01
462.95	8943.19
463.13	8809.78
463.32	8912.76
463.50	9064.89
463.68	8985.32
463.86	9142.13
464.05	8917.44
464.23	8861.27
464.41	9032.13
464.59	8908.08
464.78	9102.34
464.96	9210.01
465.14	9254.48
465.32	8931.48
465.50	9263.84
465.69	9160.86
465.87	9041.49
466.05	9102.34
466.23	9076.60
466.41	9048.51
466.60	9390.23
466.78	9170.22
466.96	9284.91
467.14	9373.85
467.32	9310.65
467.51	9495.55
467.69	9041.49
467.87	9345.76
468.05	9537.68
468.23	9572.79
468.41	9369.16
468.60	9439.38
468.78	9619.60
468.96	9650.03
469.14	9647.69
469.32	9504.92
469.50	9385.55
469.69	9692.16
469.87	9694.50
470.05	9673.43
470.23	9741.31
470.41	9851.31
470.59	9973.02
470.77	9701.52
470.95	10003.45
471.14	10120.48
471.32	9977.70
471.50	10155.58
471.68	10338.15
471.86	10207.08
472.04	10150.90
472.22	10567.52
472.40	10200.05
472.58	10487.94
472.77	10452.83
472.95	10480.92
473.13	10658.80
473.31	10820.30
473.49	10724.33
473.67	10494.96
473.85	10719.65
474.03	10972.43
474.21	11005.20
474.39	11117.54
474.57	10951.37
474.75	11037.97
474.93	11183.08
475.12	11028.60
475.30	11449.90
475.48	11204.14
475.66	11431.18
475.84	11344.58
476.02	11424.15
476.20	11150.31
476.38	11592.67
476.56	12051.42
476.74	11747.15
476.92	11683.95
477.10	11747.15
477.28	11978.86
477.46	12116.95
477.64	12091.21
477.82	12320.58
478.00	12486.76
478.18	12601.44
478.36	12566.34
478.54	12594.42
478.72	12713.79
478.90	12807.41
479.08	13184.24
479.26	12994.65
479.44	13181.90
479.62	13078.91
479.80	13404.25
479.98	13406.59
480.16	13645.32
480.34	13724.90
480.52	13589.15
480.70	13647.66
480.88	13757.67
481.06	13734.26
481.24	14043.21
481.41	14310.04
481.59	14188.33
481.77	14396.64
481.95	14342.80
482.13	14380.25
482.31	14628.35
482.49	14984.11
482.67	14930.28
482.85	14876.44
483.03	15103.48
483.21	15269.66
483.39	15176.03
483.57	15286.04
483.74	15330.51
483.92	15515.41
484.10	15522.43
484.28	15960.11
484.46	15871.17
484.64	16166.08
484.82	16278.43
485.00	15971.82
485.18	16702.06
485.35	16428.22
485.53	16121.61
485.71	16065.44
485.89	16329.92
486.07	16386.09
486.25	16659.93
486.43	16573.33
486.61	16849.52
486.78	16992.29
486.96	17355.07
487.14	17729.56
487.32	17816.16
487.50	17806.80
487.68	18202.35
487.85	18422.36
488.03	18555.77
488.21	18340.44
488.39	18338.10
488.57	18415.34
488.75	18913.87
488.92	18970.04
489.10	19154.94
489.28	19295.38
489.46	19899.23
489.64	19515.39
489.81	20137.97
489.99	19969.45
490.17	19990.52
490.35	20325.21
490.53	20414.15
490.70	20456.28
490.88	20594.37
491.06	20620.12
491.24	20788.64
491.41	20603.74
491.59	20746.51
491.77	20552.24
491.95	20964.18
492.13	20985.24
492.30	21678.04
492.48	21399.52
492.66	21982.31
492.84	21514.20
493.01	21926.14
493.19	21792.73
493.37	21989.33
493.54	22111.04
493.72	22506.59
493.90	22504.25
494.08	22850.65
494.25	22972.36
494.43	23278.97
494.61	23419.40
494.79	23559.83
494.96	23358.55
495.14	23262.58
495.32	23836.02
495.49	23644.09
495.67	23868.78
495.85	23819.63
496.02	24133.26
496.20	24184.76
496.38	24243.27
496.55	24229.23
496.73	25008.62
496.91	24830.74
497.09	25212.25
497.26	25008.62
497.44	24917.34
497.62	24971.18
497.79	25055.43
497.97	24865.85
498.14	25500.14
498.32	25647.59
498.50	25605.46
498.67	25631.21
498.85	26057.18
499.03	26096.97
499.20	26300.60
499.38	26080.59
499.56	26424.65
499.73	26700.83
499.91	26148.46
500.08	26733.60
500.26	26228.04
500.44	26307.62
500.61	26700.83
500.79	26340.39
500.97	26473.80
501.14	27009.78
501.32	26876.37
501.49	27007.44
501.67	27391.29
501.84	27054.25
502.02	27531.72
502.20	27592.58
502.37	27257.88
502.55	27623.00
502.72	27534.06
502.90	28074.73
503.07	27531.72
503.25	28203.46
503.43	27953.02
503.60	28074.73
503.78	28250.27
503.95	27915.57
504.13	28407.08
504.30	28526.45
504.48	28318.14
504.65	28610.71
504.83	28992.22
505.01	29259.04
505.18	28826.04
505.36	29242.65
505.53	29193.50
505.71	29420.53
505.88	29479.05
506.06	29450.96
506.23	29682.67
506.41	29364.36
506.58	29961.20
506.76	29855.87
506.93	30019.71
507.11	29710.76
507.28	29661.61
507.46	30129.72
507.63	30040.78
507.81	29961.20
507.98	30169.51
508.16	30377.81
508.33	30483.14
508.50	30185.89
508.68	30593.14
508.85	30984.01
509.03	31122.10
509.20	31042.53
509.38	31234.45
509.55	31150.19
509.73	31222.75
509.90	31524.68
510.08	31044.87
510.25	31164.23
510.42	31129.12
510.60	31721.28
510.77	31288.28
510.95	31819.58
511.12	31786.82
511.30	31819.58
511.47	31950.65
511.64	32226.84
511.82	32421.10
511.99	32095.77
512.17	32170.66
512.34	32432.80
512.51	32465.57
512.69	32826.01
512.86	32446.85
513.04	32760.48
513.21	32795.59
513.38	32793.25
513.56	32748.78
513.73	32758.14
513.90	32692.60
514.08	32503.02
514.25	32884.53
514.43	33230.93
514.60	33249.65
514.77	33256.67
514.95	33582.01
515.12	33228.59
515.29	33415.83
515.47	33738.82
515.64	33802.02
515.81	33902.66
515.99	33750.52
516.16	33603.07
516.33	33394.76
516.51	33406.47
516.68	32833.04
516.85	33064.75
517.03	33448.60
517.20	33567.96
517.37	33844.15
517.54	34644.61
517.72	34122.67
517.89	33879.25
518.06	33558.60
518.24	33921.38
518.41	33839.47
518.58	34342.68
518.75	34581.42
518.93	34761.64
519.10	34572.05
519.27	34693.76
519.45	34789.72
519.62	35016.75
519.79	35508.27
519.96	34998.03
520.14	35159.53
520.31	34759.30
520.48	34986.33
520.65	35023.78
520.83	35744.66
521.00	35494.22
521.17	35896.80
521.34	35681.47
521.52	36243.20
521.69	35817.22
521.86	36102.76
522.03	36084.04
522.20	35852.33
522.38	36290.01
522.55	36491.29
522.72	36034.89
522.89	36123.83
523.07	36528.74
523.24	36432.78
523.41	36767.48
523.58	36891.52
523.75	36889.18
523.92	36671.51
524.10	36875.14
524.27	37083.45
524.44	37333.89
524.61	37448.57
524.78	37275.37
524.96	37432.19
525.13	37361.97
525.30	37422.83
525.47	37551.56
525.64	37703.69
525.81	37305.80
525.98	37223.88
526.16	37008.55
526.33	37209.84
526.50	37556.24
526.67	37057.70
526.84	36664.49
527.01	37357.29
527.18	37518.79
527.36	38227.97
527.53	37883.91
527.70	38490.11
527.87	38192.86
528.04	38415.21
528.21	38394.15
528.38	38363.72
528.55	38670.33
528.72	38476.07
528.89	38939.49
529.07	38660.97
529.24	38043.07
529.41	38506.49
529.58	38944.17
529.75	38660.97
529.92	39171.21
530.09	39182.91
530.26	38623.52
530.43	39154.82
530.60	38850.55
530.77	39225.04
530.94	39119.71
531.11	39131.42
531.28	39168.87
531.46	39236.74
531.63	39318.66
531.80	39040.14
531.97	39079.92
532.14	38869.28
532.31	39145.46
532.48	39206.31
532.65	39648.68
532.82	39213.34
532.99	39807.83
533.16	39831.24
533.33	39714.21
533.50	39686.12
533.67	39639.31
533.84	39531.65
534.01	40142.53
534.18	39796.13
534.35	40224.45
534.52	40098.06
534.69	40161.25
534.86	40343.81
535.03	39688.46
535.20	40687.87
535.37	40795.54
535.54	40517.01
535.71	40350.84
535.88	40573.19
536.05	40594.25
536.22	40107.42
536.38	40517.01
536.55	40418.71
536.72	40336.79
536.89	40282.96
537.06	40460.84
537.23	40821.28
537.40	40788.52
537.57	40662.13
537.74	41010.87
537.91	41703.67
538.08	40919.59
538.25	41008.53
538.42	41053.00
538.59	41158.32
538.75	41081.08
538.92	41127.89
539.09	41167.68
539.26	41242.58
539.43	40727.66
539.60	41294.07
539.77	41104.49
539.94	41235.56
540.11	41174.70
540.28	41137.26
540.44	41443.87
540.61	41088.10
540.78	41340.88
540.95	41233.22
541.12	41186.41
541.29	41429.82
541.46	41631.11
541.62	41530.47
541.79	41689.62
541.96	41422.80
542.13	41808.99
542.30	41556.21
542.47	41825.37
542.63	41715.37
542.80	42181.13
542.97	42356.67
543.14	42590.73
543.31	42307.52
543.48	41909.63
543.64	42742.86
543.81	42347.31
543.98	42281.78
544.15	42410.51
544.32	42775.63
544.48	43566.73
544.65	42827.12
544.82	42579.03
544.99	42129.64
545.16	42469.02
545.32	42305.18
545.49	42782.65
545.66	43239.06
545.83	43168.84
546.00	42637.54
546.16	42871.59
546.33	42642.22
546.50	42948.83
546.67	43136.07
546.83	43009.68
547.00	43379.49
547.17	42756.91
547.34	42600.09
547.50	42834.14
547.67	43580.78
547.84	43342.04
548.00	43400.55
548.17	43742.27
548.34	43400.55
548.51	43728.23
548.67	43548.01
548.84	43400.55
549.01	43475.45
549.18	43278.85
549.34	43859.30
549.51	43494.18
549.68	43512.90
549.84	44158.89
550.01	43693.12
550.18	43234.38
550.34	43763.34
550.51	43330.34
550.68	43831.21
550.84	43227.35
551.01	43847.60
551.18	44041.86
551.34	43601.84
551.51	44060.58
551.68	43761.00
551.84	43920.15
552.01	43765.68
552.18	44135.48
552.34	43744.61
552.51	44350.81
552.68	44170.59
552.84	44388.26
553.01	44130.80
553.18	44348.47
553.34	44186.97
553.51	44121.44
553.67	44212.72
553.84	44259.53
554.01	44673.81
554.17	44786.15
554.34	44961.69
554.51	44945.31
554.67	44790.83
554.84	44725.30
555.00	44172.93
555.17	44421.03
555.33	44755.72
555.50	44795.51
555.67	44371.88
555.83	44486.56
556.00	44666.78
556.16	44814.24
556.33	44741.68
556.50	44704.23
556.66	44746.36
556.83	44304.00
556.99	44781.47
557.16	45078.72
557.32	44442.09
557.49	45205.11
557.65	44800.19
557.82	44868.07
557.98	44797.85
558.15	45214.47
558.32	44942.97
558.48	45034.25
558.65	44767.43
558.81	44947.65
558.98	44671.46
559.14	45294.05
559.31	45202.77
559.47	44683.17
559.64	44875.09
559.80	45090.42
559.97	44760.40
560.13	45029.57
560.30	44910.20
560.46	44884.45
560.63	45001.48
560.79	45148.93
560.96	45528.10
561.12	44907.86
561.29	45263.62
561.45	45069.36
561.61	45270.64
561.78	45315.11
561.94	45006.16
562.11	45265.96
562.27	45228.51
562.44	44975.73
562.60	45631.08
562.77	45186.38
562.93	45654.49
563.10	45591.30
563.26	44809.56
563.42	45331.50
563.59	45368.94
563.75	45610.02
563.92	45539.80
564.08	45071.70
564.24	45633.42
564.41	45240.21
564.57	45340.86
564.74	45347.88
564.90	45497.67
565.07	45177.02
565.23	45380.65
565.39	44900.84
565.56	45633.42
565.72	45064.67
565.88	45109.14
566.05	44940.63
566.21	45460.23
566.38	45298.73
566.54	45359.58
566.70	45696.62
566.87	46099.19
567.03	45652.15
567.19	46010.25
567.36	45965.78
567.52	45109.14
567.68	45734.07
567.85	45783.22
568.01	45404.05
568.17	45574.91
568.34	45588.95
568.50	45446.18
568.66	45343.20
568.83	45673.21
568.99	45401.71
569.15	45813.65
569.32	45820.67
569.48	45593.64
569.64	46295.80
569.81	45544.48
569.97	45888.54
570.13	45642.79
570.30	45551.51
570.46	44900.84
570.62	45216.81
570.78	45216.81
570.95	45261.28
571.11	45539.80
571.27	45691.94
571.43	45633.42
571.60	45617.04
571.76	45315.11
571.92	45378.31
572.09	45708.32
572.25	45731.73
572.41	45537.46
572.57	46068.76
572.74	46234.94
572.90	45581.93
573.06	45698.96
573.22	45944.72
573.38	45787.90
573.55	45523.42
573.71	46007.91
573.87	46143.66
574.03	45729.39
574.20	45703.64
574.36	45806.62
574.52	45839.39
574.68	45621.72
574.84	45872.16
575.01	45841.73
575.17	45303.41
575.33	45549.17
575.49	45226.17
575.65	46096.85
575.82	45886.20
575.98	45687.26
576.14	46017.27
576.30	45581.93
576.46	45923.65
576.62	45560.87
576.79	45708.32
576.95	45689.60
577.11	45188.72
577.27	45670.87
577.43	45907.27
577.59	45542.14
577.75	45247.24
577.92	45427.46
578.08	45294.05
578.24	45294.05
578.40	45801.94
578.56	45584.27
578.72	45741.09
578.88	45745.77
579.04	45626.40
579.21	45265.96
579.37	45537.46
579.53	45698.96
579.69	45006.16
579.85	45724.71
580.01	45778.54
580.17	45698.96
580.33	45881.52
580.49	45872.16
580.65	45654.49
580.82	45860.46
580.98	45757.47
581.14	45635.77
581.30	46096.85
581.46	45883.86
581.62	45907.27
581.78	45956.42
581.94	46459.63
582.10	46014.93
582.26	45876.84
582.42	45766.84
582.58	45743.43
582.74	45804.28
582.90	46054.72
583.06	46267.71
583.22	45963.44
583.38	45834.71
583.54	45937.69
583.70	46117.92
583.86	45925.99
584.02	45771.52
584.18	46131.96
584.34	45933.01
584.50	46319.20
584.66	46328.56
584.82	45996.21
584.98	46087.49
585.14	46073.45
585.30	46021.95
585.46	45586.61
585.62	45680.24
585.78	45762.15
585.94	45748.11
586.10	45509.38
586.26	45490.65
586.42	45776.20
586.58	45624.06
586.74	45598.32
586.90	46026.63
587.06	45523.42
587.22	46227.92
587.38	45902.59
587.54	46021.95
587.70	46298.14
587.86	46087.49
588.02	46134.30
588.18	45708.32
588.34	45783.22
588.49	45811.31
588.65	45120.85
588.81	45607.68
588.97	45553.85
589.13	45373.63
589.29	45464.91
589.45	45670.87
589.61	45759.81
589.77	46321.54
589.93	46473.68
590.08	46026.63
590.24	46085.15
590.40	45907.27
590.56	46466.66
590.72	46012.59
590.88	45577.25
591.04	46075.79
591.20	46527.51
591.35	46321.54
591.51	46202.18
591.67	45844.07
591.83	45820.67
591.99	45755.13
592.15	45963.44
592.31	46326.22
592.46	45862.80
592.62	46169.41
592.78	46232.60
592.94	45989.19
593.10	45972.80
593.26	46309.84
593.41	45984.51
593.57	45659.17
593.73	45762.15
593.89	45923.65
594.05	46518.15
594.20	46288.77
594.36	46246.65
594.52	45951.74
594.68	45975.14
594.84	45743.43
594.99	46349.63
595.15	45958.76
595.31	46150.68
595.47	46075.79
595.62	46122.60
595.78	46218.56
595.94	46405.80
596.10	46068.76
596.25	46021.95
596.41	46164.73
596.57	45567.89
596.73	45804.28
596.88	45624.06
597.04	46071.10
597.20	45584.27
597.36	46103.87
597.51	46543.89
597.67	45752.79
597.83	46120.26
597.99	45930.67
598.14	46071.10
598.30	46047.70
598.46	46195.15
598.61	46344.95
598.77	46087.49
598.93	45869.82
599.09	46160.05
599.24	46717.09
599.40	46380.06
599.56	46033.66
599.71	45963.44
599.87	46033.66
600.03	46293.46
600.18	45998.55
600.34	46293.46
600.50	46351.97
600.65	46267.71
600.81	46515.81
600.97	46464.32
601.12	46038.34
601.28	46162.39
601.44	45612.36
601.59	45853.44
601.75	45474.27
601.91	45509.38
602.06	45830.03
602.22	45982.16
602.37	46148.34
602.53	46356.65
602.69	46312.18
602.84	46312.18
603.00	45727.05
603.16	45837.05
603.31	46019.61
603.47	45872.16
603.62	45993.87
603.78	46122.60
603.94	46227.92
604.09	46314.52
604.25	46590.70
604.40	45801.94
604.56	46089.83
604.71	46071.10
604.87	45649.81
605.03	45617.04
605.18	45867.48
605.34	46129.62
605.49	45865.14
605.65	45872.16
605.80	45904.93
605.96	45839.39
606.12	45933.01
606.27	46169.41
606.43	45724.71
606.58	46094.51
606.74	45897.91
606.89	46195.15
607.05	45954.08
607.20	46153.02
607.36	45764.49
607.51	45984.51
607.67	45783.22
607.82	45776.20
607.98	45551.51
608.13	45457.88
608.29	45511.72
608.44	45497.67
608.60	45420.44
608.75	45488.31
608.91	45525.76
609.06	45408.73
609.22	45404.05
609.37	45432.14
609.53	45837.05
609.68	45914.29
609.84	45675.55
609.99	45158.30
610.15	45401.71
610.30	45296.39
610.46	45357.24
610.61	45652.15
610.76	45600.66
610.92	45457.88
611.07	45244.90
611.23	45406.39
611.38	45469.59
611.54	45392.35
611.69	45081.06
611.84	45322.13
612.00	45146.59
612.15	45254.26
612.31	45258.94
612.46	44917.22
612.62	45102.12
612.77	45104.46
612.92	45354.90
613.08	45090.42
613.23	44748.70
613.39	44715.93
613.54	45137.23
613.69	44797.85
613.85	44521.67
614.00	45008.50
614.15	44940.63
614.31	44945.31
614.46	45052.97
614.62	44933.60
614.77	44973.39
614.92	44924.24
615.08	44870.41
615.23	44416.35
615.38	44369.54
615.54	44596.57
615.69	44327.41
615.84	44392.94
616.00	44540.39
616.15	44568.48
616.30	44821.26
616.46	44364.85
616.61	44573.16
616.76	44451.45
616.92	43835.89
617.07	44348.47
617.22	44488.90
617.37	44498.26
617.53	44641.04
617.68	44222.08
617.83	44402.30
617.99	44133.14
618.14	44271.23
618.29	44196.34
618.45	44006.75
618.60	44184.63
618.75	43852.28
618.90	44128.46
619.06	43540.99
619.21	44168.25
619.36	43892.07
619.51	44395.28
619.67	43941.22
619.82	43693.12
619.97	43971.64
620.12	43454.39
620.28	43718.87
620.43	43936.54
620.58	43791.42
620.73	43800.79
620.89	43756.32
621.04	43810.15
621.19	44081.65
621.34	43583.12
621.49	43395.87
621.65	43400.55
621.80	44018.46
621.95	43653.33
622.10	43803.13
622.25	43185.22
622.41	43452.05
622.56	43606.52
622.71	43817.17
622.86	43253.10
623.01	43702.48
623.16	43650.99
623.32	43161.82
623.47	43590.14
623.62	43217.99
623.77	43229.69
623.92	43126.71
624.07	43285.87
624.23	43070.54
624.38	43573.75
624.53	43079.90
624.68	43119.69
624.83	43360.76
624.98	43487.15
625.13	42873.93
625.29	42550.94
625.44	43306.93
625.59	42602.43
625.74	42595.41
625.89	42543.92
626.04	42651.58
626.19	42969.90
626.34	43166.50
626.49	42763.93
626.65	42693.71
626.80	42684.35
626.95	42836.48
627.10	42293.48
627.25	42410.51
627.40	42763.93
627.55	42249.01
627.70	42169.43
627.85	42768.61
628.00	42794.36
628.15	42344.97
628.30	42131.98
628.45	42447.96
628.60	42705.41
628.76	42356.67
628.91	42532.22
629.06	42305.18
629.21	42087.51
629.36	42101.56
629.51	42225.60
629.66	42216.24
629.81	41865.16
629.96	42246.67
630.11	42045.38
630.26	42075.81
630.41	42356.67
630.56	41656.85
630.71	42080.49
630.86	41897.93
631.01	41876.86
631.16	41904.95
631.31	41600.68
631.46	41610.04
631.61	41607.70
631.76	41916.65
631.91	42192.84
632.06	41961.12
632.21	42019.64
632.36	41801.97
632.51	41216.83
632.66	41888.57
632.81	41542.17
632.96	41626.43
633.10	41462.59
633.25	41251.94
633.40	41617.07
633.55	41434.50
633.70	42071.13
633.85	41783.24
634.00	41528.13
634.15	41364.29
634.30	40877.46
634.45	41383.01
634.60	41247.26
634.75	41153.64
634.90	40931.29
635.05	41301.09
635.19	41535.15
635.34	41523.44
635.49	41357.27
635.64	41209.81
635.79	41081.08
635.94	41123.21
636.09	41326.84
636.24	41067.04
636.39	40514.67
636.53	41034.27
636.68	40453.82
636.83	40699.58
636.98	40587.23
637.13	40980.44
637.28	41240.24
637.43	40950.01
637.57	41191.09
637.72	41141.94
637.87	40980.44
638.02	40739.36
638.17	41153.64
638.32	40692.55
638.46	40481.91
638.61	40793.20
638.76	40353.18
638.91	40353.18
639.06	40610.64
639.20	40643.40
639.35	40772.13
639.50	40678.51
639.65	40062.95
639.80	40058.27
639.94	40697.24
640.09	40495.95
640.24	40294.66
640.39	40355.52
640.54	40196.36
640.68	40109.76
640.83	39819.53
640.98	39861.66
641.13	40182.32
641.27	40502.97
641.42	40226.79
641.57	40308.71
641.72	40533.40
641.86	39491.86
642.01	39608.89
642.16	39742.30
642.31	39735.27
642.45	40044.23
642.60	39878.05
642.75	39885.07
642.90	39938.90
643.04	39920.18
643.19	40278.28
643.34	39683.78
643.48	39643.99
643.63	39754.00
643.78	39264.83
643.93	39929.54
644.07	39505.90
644.22	39423.98
644.37	39243.76
644.51	39138.44
644.66	39555.05
644.81	39494.20
644.95	39428.66
645.10	39583.14
645.25	39524.63
645.39	39398.24
645.54	39054.18
645.69	39178.23
645.83	38850.55
645.98	38927.79
646.13	39325.68
646.27	38822.47
646.42	38869.28
646.57	39311.64
646.71	38787.36
646.86	39555.05
647.00	38822.47
647.15	38719.48
647.30	39271.85
647.44	39054.18
647.59	39241.42
647.74	38742.89
647.88	38705.44
648.03	38829.49
648.17	38808.42
648.32	38909.07
648.47	39077.58
648.61	39012.05
648.76	38988.64
648.90	38710.12
649.05	38948.85
649.20	38768.63
649.34	38841.19
649.49	38508.83
649.63	38576.71
649.78	38677.35
649.92	37984.55
650.07	38911.41
650.21	38817.78
650.36	38209.25
650.51	38497.13
650.65	39119.71
650.80	38899.70
650.94	38356.70
651.09	38110.94
651.23	38328.61
651.38	37998.60
651.52	38099.24
651.67	37909.66
651.81	38099.24
651.96	38380.10
652.10	38230.31
652.25	38286.48
652.39	38525.22
652.54	38368.40
652.68	38529.90
652.83	38181.16
652.97	38747.57
653.12	38120.31
653.26	37855.82
653.41	38139.03
653.55	38157.75
653.70	38117.96
653.84	37996.26
653.99	38075.84
654.13	37766.88
654.27	37921.36
654.42	38022.00
654.56	37654.54
654.71	37301.12
654.85	38038.39
655.00	37553.90
655.14	37677.94
655.29	37158.34
655.43	37291.76
655.57	36818.97
655.72	36690.24
655.86	36760.45
656.01	36568.53
656.15	36357.88
656.30	36884.50
656.44	37202.82
656.58	37312.82
656.73	36884.50
656.87	37233.24
657.01	36931.31
657.16	36816.63
657.30	36587.25
657.45	36959.40
657.59	36835.35
657.73	37195.79
657.88	37151.32
658.02	37205.16
658.16	37242.60
658.31	37198.13
658.45	37053.02
658.60	36584.91
658.74	36594.28
658.88	36987.49
659.03	36495.97
659.17	36416.40
659.31	36795.56
659.46	36535.76
659.60	36130.85
659.74	36669.17
659.89	36201.07
660.03	36137.87
660.17	36744.07
660.32	36135.53
660.46	36638.75
660.60	36273.62
660.74	36378.95
660.89	35721.26
661.03	36266.60
661.17	36156.60
661.32	36137.87
661.46	36194.04
661.60	35819.56
661.74	35821.90
661.89	35779.77
662.03	35627.63
662.17	35702.53
662.31	36229.15
662.46	35941.27
662.60	35707.21
662.74	35653.38
662.88	35917.86
663.03	35189.95
663.17	35447.41
663.31	35061.22
663.45	35505.93
663.60	35496.56
663.74	35365.49
663.88	35150.17
664.02	35440.39
664.17	35239.11
664.31	35030.80
664.45	34899.73
664.59	35068.25
664.73	34820.15
664.88	35056.54
665.02	34202.25
665.16	34436.30
665.30	34768.66
665.44	34209.27
665.59	34298.21
665.73	34735.89
665.87	34361.40
666.01	34513.54
666.15	33977.56
666.29	34227.99
666.44	34478.43
666.58	34235.02
666.72	33888.62
666.86	34148.42
667.00	34143.74
667.14	34122.67
667.28	33830.10
667.43	33879.25
667.57	34064.16
667.71	33848.83
667.85	33696.69
667.99	33855.85
668.13	33991.60
668.27	33961.17
668.41	34003.30
668.56	33294.12
668.70	33256.67
668.84	33378.38
668.98	33364.34
669.12	33483.70
669.26	33263.69
669.40	33003.89
669.54	33048.36
669.68	33092.83
669.82	32938.36
669.96	32779.20
670.10	33083.47
670.25	33085.81
670.39	32872.82
670.53	32699.62
670.67	32388.33
670.81	32521.74
670.95	32720.69
671.09	32367.27
671.23	32287.69
671.37	32479.61
671.51	32283.01
671.65	32154.28
671.79	32203.43
671.93	32144.92
672.07	31817.24
672.21	31761.07
672.35	31798.52
672.49	31756.39
672.63	31955.33
672.77	31828.95
672.91	31850.01
673.05	31477.86
673.19	31854.69
673.33	31321.05
673.47	31171.25
673.61	31494.25
673.75	31477.86
673.89	31117.42
674.03	31501.27
674.17	31454.46
674.31	30778.04
674.45	31101.04
674.59	30995.71
674.73	31278.92
674.87	30845.92
675.01	30595.48
675.15	30389.52
675.29	30527.61
675.43	30745.28
675.56	30492.50
675.70	30448.03
675.84	30565.06
675.98	29570.33
676.12	30029.07
676.26	30235.04
676.40	30206.95
676.54	30221.00
676.68	30143.76
676.82	29132.65
676.96	29610.12
677.10	29890.98
677.23	29696.72
677.37	29640.54
677.51	29682.67
677.65	28989.88
677.79	28755.82
677.93	28795.61
678.07	28877.53
678.21	28781.57
678.34	28505.38
678.48	28203.46
678.62	28439.85
678.76	28348.57
678.90	28093.45
679.04	28617.73
679.18	28325.16
679.31	27725.99
679.45	27894.50
679.59	27812.59
679.73	27934.29
679.87	27674.49
680.00	27421.72
680.14	27651.09
680.28	27473.21
680.42	27075.32
680.56	27363.20
680.70	26993.40
680.83	27559.81
680.97	26871.69
681.11	27110.43
681.25	27276.60
681.39	27044.89
681.52	26815.52
681.66	26714.87
681.80	26710.19
681.94	26642.32
682.07	26506.57
682.21	26581.46
682.35	26080.59
682.49	26181.23
682.62	26017.40
682.76	25762.28
682.90	25841.85
683.04	25867.60
683.17	25675.68
683.31	25549.29
683.45	25364.39
683.59	25530.56
683.72	25336.30
683.86	25535.24
684.00	25156.08
684.13	25034.37
684.27	24835.42
684.41	24840.11
684.55	24828.40
684.68	25123.31
684.82	24554.56
684.96	24915.00
685.09	24556.90
685.23	24496.05
685.37	24423.49
685.50	24552.22
685.64	24528.81
685.78	24191.78
685.91	24063.05
686.05	23836.02
686.19	23681.54
686.32	23751.76
686.46	23372.59
686.60	23096.41
686.73	22941.93
686.87	23178.33
687.01	23297.69
687.14	22888.10
687.28	22780.43
687.42	22986.40
687.55	22845.97
687.69	22972.36
687.82	22686.81
687.96	23094.07
688.10	22417.65
688.23	22700.86
688.37	22796.82
688.50	22387.22
688.64	22417.65
688.78	21774.00
688.91	21937.84
689.05	22106.36
689.18	21750.60
689.32	21872.31
689.46	22015.08
689.59	22089.98
689.73	21607.83
689.86	21312.92
690.00	21549.31
690.13	21706.13
690.27	20982.90
690.41	21259.09
690.54	21238.02
690.68	21226.32
690.81	21142.06
690.95	20725.44
691.08	21135.04
691.22	20786.30
691.35	21081.21
691.49	20837.79
691.62	20437.56
691.76	20711.40
691.89	20521.82
692.03	20329.89
692.16	20638.84
692.30	20320.53
692.43	20203.50
692.57	19700.29
692.70	19822.00
692.84	19798.59
692.97	19672.20
693.11	19506.02
693.24	19445.17
693.38	19719.01
693.51	19459.21
693.65	19716.67
693.78	19398.36
693.92	19412.40
694.05	19187.71
694.19	19199.41
694.32	19381.98
694.45	19021.53
694.59	18967.70
694.72	18698.54
694.86	18923.23
694.99	18813.23
695.13	18609.60
695.26	18562.79
695.39	18448.10
695.53	18567.47
695.66	18803.86
695.80	18190.64
695.93	18298.31
696.07	18022.12
696.20	17937.87
696.33	18270.22
696.47	17778.71
696.60	17727.22
696.73	17921.48
696.87	17406.56
697.00	17275.49
697.14	17303.58
697.27	17135.06
697.40	17341.03
697.54	17111.66
697.67	17188.89
697.80	17114.00
697.94	16924.41
698.07	17397.20
698.21	17015.69
698.34	17027.40
698.47	17221.66
698.61	16589.72
698.74	16549.93
698.87	16809.73
699.01	16442.26
699.14	16182.46
699.27	16152.04
699.40	16250.34
699.54	16365.03
699.67	16240.98
699.80	15850.11
699.94	16051.39
700.07	16203.53
700.20	15927.35
700.34	15693.29
700.47	15812.66
700.60	15915.64
700.73	15782.23
700.87	15274.34
701.00	15424.13
701.13	15435.83
701.26	15129.22
701.40	15295.40
701.53	14897.51
701.66	15243.91
701.79	14993.47
701.93	14803.89
702.06	15028.58
702.19	14731.33
702.32	14640.05
702.46	14806.23
702.59	14768.78
702.72	14745.38
702.85	14869.42
702.99	14384.93
703.12	14527.71
703.25	14277.27
703.38	14214.07
703.51	14485.58
703.65	14225.78
703.78	13989.38
703.91	13642.98
704.04	14223.44
704.17	13729.58
704.31	13785.76
704.44	13722.56
704.57	13547.02
704.70	13675.75
704.83	13481.49
704.96	13633.62
705.10	13568.09
705.23	13369.14
>>>>>End Processed Spectral Data<<<<<
