SpectraSuite Data File
++++++++++++++++++++++++++++++++++++
Date: Fri Oct 25 11:34:27 EDT 2013
User: price-jones
Dark Spectrum Present: No
Reference Spectrum Present: No
Number of Sampled Component Spectra: 1
Spectrometers: USB2+H05261
Integration Time (usec): 100000 (USB2+H05261)
Spectra Averaged: 1 (USB2+H05261)
Boxcar Smoothing: 0 (USB2+H05261)
Correct for Electrical Dark: No (USB2+H05261)
Strobe/Lamp Enabled: No (USB2+H05261)
Correct for Detector Non-linearity: No (USB2+H05261)
Correct for Stray Light: No (USB2+H05261)
Number of Pixels in Processed Spectrum: 2048
>>>>>Begin Processed Spectral Data<<<<<
365.73	294.91
365.92	294.91
366.12	294.91
366.32	227.03
366.52	273.84
366.72	236.39
366.91	243.42
367.11	142.77
367.31	131.07
367.51	189.58
367.70	184.90
367.90	259.80
368.10	163.84
368.30	180.22
368.49	154.48
368.69	227.03
368.89	140.43
369.09	208.31
369.28	236.39
369.48	210.65
369.68	236.39
369.87	231.71
370.07	220.01
370.27	212.99
370.47	337.04
370.66	472.79
370.86	550.03
371.06	528.96
371.25	484.49
371.45	559.39
371.65	594.50
371.84	552.37
372.04	521.94
372.24	620.24
372.44	557.05
372.63	624.92
372.83	601.52
373.03	662.37
373.22	685.78
373.42	641.31
373.62	631.94
373.81	592.16
374.01	634.29
374.21	676.41
374.40	552.37
374.60	617.90
374.79	662.37
374.99	622.58
375.19	695.14
375.38	634.29
375.58	667.05
375.78	650.67
375.97	711.52
376.17	683.44
376.37	655.35
376.56	664.71
376.76	596.84
376.95	697.48
377.15	692.80
377.35	662.37
377.54	671.73
377.74	685.78
377.93	671.73
378.13	653.01
378.33	695.14
378.52	678.76
378.72	702.16
378.91	718.54
379.11	671.73
379.31	688.12
379.50	657.69
379.70	713.86
379.89	781.74
380.09	688.12
380.28	697.48
380.48	706.84
380.68	650.67
380.87	751.31
381.07	662.37
381.26	791.10
381.46	791.10
381.65	657.69
381.85	791.10
382.04	755.99
382.24	751.31
382.43	741.95
382.63	734.93
382.83	833.23
383.02	809.83
383.22	772.38
383.41	779.40
383.61	770.04
383.80	732.59
384.00	814.51
384.19	809.83
384.39	835.57
384.58	732.59
384.78	770.04
384.97	840.25
385.17	711.52
385.36	837.91
385.56	840.25
385.75	863.66
385.95	854.30
386.14	849.61
386.34	819.19
386.53	814.51
386.72	812.17
386.92	882.38
387.11	812.17
387.31	823.87
387.50	870.68
387.70	866.00
387.89	835.57
388.09	854.30
388.28	908.13
388.48	844.93
388.67	966.64
388.86	938.55
389.06	863.66
389.25	905.79
389.45	938.55
389.64	901.11
389.84	999.41
390.03	898.77
390.22	957.28
390.42	940.90
390.61	924.51
390.81	945.58
391.00	992.39
391.19	1015.79
391.39	978.34
391.58	959.62
391.78	1018.13
391.97	968.98
392.16	1018.13
392.36	1100.05
392.55	971.32
392.75	1067.28
392.94	1095.37
393.13	1039.20
393.33	1102.39
393.52	1006.43
393.71	1076.65
393.91	1111.75
394.10	1083.67
394.29	1032.18
394.49	1011.11
394.68	1100.05
394.88	1130.48
395.07	1100.05
395.26	1029.84
395.46	1121.12
395.65	1163.25
395.84	1095.37
396.04	1123.46
396.23	1158.57
396.42	1156.22
396.62	1240.48
396.81	1184.31
397.00	1184.31
397.19	1104.73
397.39	1268.57
397.58	1217.08
397.77	1153.88
397.97	1205.38
398.16	1181.97
398.35	1287.29
398.55	1233.46
398.74	1193.67
398.93	1303.68
399.12	1193.67
399.32	1214.74
399.51	1193.67
399.70	1329.42
399.90	1268.57
400.09	1387.94
400.28	1376.24
400.47	1277.93
400.67	1327.08
400.86	1357.51
401.05	1380.92
401.24	1329.42
401.44	1427.73
401.63	1458.15
401.82	1397.30
402.01	1364.53
402.21	1453.47
402.40	1502.62
402.59	1483.90
402.78	1427.73
402.97	1460.49
403.17	1467.52
403.36	1472.20
403.55	1568.16
403.74	1521.35
403.93	1537.73
404.13	1556.46
404.32	1568.16
404.51	1549.43
404.70	1614.97
404.89	1619.65
405.09	1577.52
405.28	1631.35
405.47	1610.29
405.66	1732.00
405.85	1652.42
406.05	1636.03
406.24	1626.67
406.43	1673.48
406.62	1621.99
406.81	1717.95
407.00	1675.82
407.20	1760.08
407.39	1816.26
407.58	1816.26
407.77	1767.10
407.96	1893.49
408.15	1804.55
408.34	1809.23
408.54	1830.30
408.73	1844.34
408.92	1884.13
409.11	1909.88
409.30	1795.19
409.49	1886.47
409.68	1968.39
409.87	1940.30
410.07	1886.47
410.26	2059.67
410.45	1987.11
410.64	2008.18
410.83	1996.48
411.02	2003.50
411.21	2162.66
411.40	2146.27
411.59	2153.29
411.78	2080.74
411.98	2230.53
412.17	2099.46
412.36	2218.83
412.55	2214.15
412.74	2251.60
412.93	2321.81
413.12	2223.51
413.31	2349.90
413.50	2305.43
413.69	2284.36
413.88	2410.75
414.07	2354.58
414.26	2443.52
414.45	2286.70
414.64	2539.48
414.83	2539.48
415.02	2497.35
415.22	2448.20
415.41	2572.25
415.60	2490.33
415.79	2621.40
415.98	2670.55
416.17	2665.87
416.36	2668.21
416.55	2668.21
416.74	2764.17
416.93	2785.24
417.12	2780.56
417.31	2722.04
417.50	2668.21
417.69	2806.30
417.88	2862.48
418.07	2918.65
418.26	2911.63
418.45	2860.13
418.64	2897.58
418.83	2909.29
419.02	2897.58
419.21	2944.39
419.39	2988.86
419.58	2988.86
419.77	2972.48
419.96	2988.86
420.15	2946.73
420.34	3068.44
420.53	2942.05
420.72	3162.06
420.91	3192.49
421.10	3112.91
421.29	3129.30
421.48	2953.76
421.67	3192.49
421.86	3227.60
422.05	3171.43
422.24	3201.85
422.43	3133.98
422.61	3215.90
422.80	3206.53
422.99	3176.11
423.18	3332.92
423.37	3302.50
423.56	3353.99
423.75	3234.62
423.94	3197.17
424.13	3150.36
424.32	3148.02
424.50	3332.92
424.69	3492.08
424.88	3318.88
425.07	3297.81
425.26	3309.52
425.45	3335.26
425.64	3208.87
425.83	3400.80
426.01	3190.15
426.20	3386.76
426.39	3424.20
426.58	3358.67
426.77	3410.16
426.96	3318.88
427.15	3346.97
427.33	3375.05
427.52	3297.81
427.71	3529.53
427.90	3419.52
428.09	3543.57
428.28	3562.30
428.46	3669.96
428.65	3492.08
428.84	3630.17
429.03	3606.77
429.22	3566.98
429.40	3599.74
429.59	3471.01
429.78	3421.86
429.97	3625.49
430.16	3599.74
430.34	3698.05
430.53	3641.87
430.72	3758.90
430.91	3609.11
431.10	3590.38
431.28	3826.78
431.47	3772.94
431.66	3721.45
431.85	3871.25
432.03	3768.26
432.22	3943.80
432.41	3899.33
432.60	3929.76
432.79	3815.07
432.97	3920.40
433.16	3957.85
433.35	3976.57
433.54	3955.51
433.72	4009.34
433.91	4016.36
434.10	4112.32
434.28	4077.21
434.47	3978.91
434.66	4189.56
434.85	4252.75
435.03	4161.47
435.22	4114.66
435.41	4334.67
435.59	4133.39
435.78	4360.42
435.97	4156.79
436.16	4217.65
436.34	4273.82
436.53	4280.84
436.72	4365.10
436.90	4182.54
437.09	4365.10
437.28	4425.95
437.46	4404.89
437.65	4451.70
437.84	4423.61
438.02	4491.49
438.21	4514.89
438.40	4416.59
438.58	4592.13
438.77	4652.98
438.96	4535.96
439.14	4615.54
439.33	4702.14
439.52	4828.53
439.70	4601.49
439.89	4940.87
440.08	4821.50
440.26	4854.27
440.45	4978.32
440.63	4865.97
440.82	4961.94
441.01	5004.07
441.19	5025.13
441.38	4933.85
441.57	5062.58
441.75	5116.41
441.94	5160.88
442.12	5313.02
442.31	5135.14
442.50	5242.80
442.68	5188.97
442.87	5303.65
443.05	5310.68
443.24	5275.57
443.43	5376.21
443.61	5380.89
443.80	5474.51
443.98	5193.65
444.17	5093.01
444.35	5249.82
444.54	5352.81
444.73	5233.44
444.91	5336.42
445.10	5341.10
445.28	5373.87
445.47	5408.98
445.65	5392.59
445.84	5481.53
446.02	5577.50
446.21	5502.60
446.39	5427.70
446.58	5394.93
446.77	5596.22
446.95	5446.43
447.14	5469.83
447.32	5486.22
447.51	5490.90
447.69	5495.58
447.88	5502.60
448.06	5565.79
448.25	5570.48
448.43	5549.41
448.62	5664.10
448.80	5619.63
448.99	5533.03
449.17	5790.49
449.36	5621.97
449.54	5795.17
449.73	5802.19
449.91	5860.70
450.10	5827.93
450.28	5841.98
450.46	5856.02
450.65	5900.49
450.83	5970.71
451.02	5818.57
451.20	5865.38
451.39	6008.16
451.57	5912.19
451.76	5879.43
451.94	5837.30
452.13	6019.86
452.31	6026.88
452.49	5984.75
452.68	6143.91
452.86	6106.46
453.05	6071.35
453.23	6179.01
453.42	6022.20
453.60	6008.16
453.78	6300.72
453.97	6230.51
454.15	6083.05
454.34	6085.39
454.52	6307.74
454.70	6153.27
454.89	6239.87
455.07	6174.33
455.26	6361.58
455.44	6164.97
455.62	6361.58
455.81	6511.37
455.99	6401.37
456.17	6487.96
456.36	6593.29
456.54	6752.45
456.73	6686.91
456.91	6649.46
457.09	6682.23
457.28	6647.12
457.46	6698.61
457.64	6771.17
457.83	6813.30
458.01	6850.75
458.19	6925.65
458.38	6815.64
458.56	7009.90
458.74	6885.86
458.93	6911.60
459.11	6813.30
459.29	6963.09
459.48	7070.76
459.66	6930.33
459.84	7033.31
460.03	7265.02
460.21	7112.89
460.39	7030.97
460.57	7171.40
460.76	7164.38
460.94	7353.96
461.12	7185.44
461.31	7253.32
461.49	7110.55
461.67	7225.23
461.85	7379.71
462.04	7166.72
462.22	7646.53
462.40	7468.65
462.59	7454.61
462.77	7248.64
462.95	7485.03
463.13	7494.40
463.32	7372.69
463.50	7412.48
463.68	7576.31
463.86	7772.92
464.05	7463.97
464.23	7452.27
464.41	7730.79
464.59	7449.93
464.78	7833.77
464.96	7719.09
465.14	7569.29
465.32	7545.89
465.50	7908.67
465.69	7826.75
465.87	7751.85
466.05	7948.46
466.23	7822.07
466.41	7843.14
466.60	7934.42
466.78	7658.23
466.96	7896.97
467.14	7751.85
467.32	7864.20
467.51	8102.93
467.69	7903.99
467.87	7747.17
468.05	7911.01
468.23	7985.91
468.41	8053.78
468.60	7929.74
468.78	8013.99
468.96	8138.04
469.14	8336.99
469.32	8418.91
469.50	8091.23
469.69	8386.14
469.87	8231.66
470.05	8273.79
470.23	8262.09
470.41	8484.44
470.59	8386.14
470.77	8285.50
470.95	8493.80
471.14	8631.90
471.32	8610.83
471.50	8659.98
471.68	8599.13
471.86	8791.05
472.04	8884.67
472.22	8947.87
472.40	8685.73
472.58	8748.92
472.77	8858.93
472.95	8861.27
473.13	9158.52
473.31	8912.76
473.49	8912.76
473.67	9001.70
473.85	9102.34
474.03	9448.74
474.21	9291.93
474.39	9493.21
474.57	9334.06
474.75	9329.38
474.93	9474.49
475.12	9453.42
475.30	9481.51
475.48	9717.90
475.66	9516.62
475.84	9823.23
476.02	9837.27
476.20	9715.56
476.38	10033.88
476.56	10373.25
476.74	10078.35
476.92	10033.88
477.10	9951.96
477.28	10207.08
477.46	10384.96
477.64	10267.93
477.82	10567.52
478.00	10696.25
478.18	10642.42
478.36	10803.91
478.54	10846.04
478.72	10682.20
478.90	10775.83
479.08	11183.08
479.26	11201.80
479.44	10979.45
479.62	11164.36
479.80	11325.85
479.98	11613.74
480.16	11824.39
480.34	11492.03
480.52	11824.39
480.70	11740.13
480.88	11812.68
481.06	11597.35
481.24	11751.83
481.41	12049.08
481.59	12271.43
481.77	12374.41
481.95	12189.51
482.13	12512.50
482.31	12493.78
482.49	12706.77
482.67	12737.20
482.85	12985.29
483.03	12865.92
483.21	13043.81
483.39	13139.77
483.57	13111.68
483.74	13336.37
483.92	13366.80
484.10	13394.89
484.28	13619.58
484.46	13879.38
484.64	14075.98
484.82	13631.28
485.00	14104.07
485.18	14164.92
485.35	14789.85
485.53	14422.38
485.71	14525.36
485.89	14839.00
486.07	14691.54
486.25	14661.12
486.43	15178.37
486.61	14974.75
486.78	14984.11
486.96	15342.21
487.14	15344.55
487.32	15510.73
487.50	15543.50
487.68	15602.01
487.85	15878.19
488.03	16023.31
488.21	16044.37
488.39	16376.73
488.57	16496.10
488.75	16498.44
488.92	16549.93
489.10	16690.36
489.28	16821.43
489.46	17013.35
489.64	17006.33
489.81	17378.48
489.99	17331.67
490.17	17240.39
490.35	17633.60
490.53	17338.69
490.70	17949.57
490.88	17528.27
491.06	18031.49
491.24	18017.44
491.41	18078.30
491.59	18260.86
491.77	18092.34
491.95	18590.88
492.13	18445.76
492.30	19110.47
492.48	18640.03
492.66	19051.96
492.84	18621.30
493.01	19267.29
493.19	19257.93
493.37	19253.25
493.54	19487.30
493.72	19321.12
493.90	19789.23
494.08	19681.56
494.25	20081.80
494.43	19908.60
494.61	20308.83
494.79	20212.87
494.96	20269.04
495.14	20514.80
495.32	20875.24
495.49	20826.09
495.67	20779.28
495.85	21198.23
496.02	21259.09
496.20	21364.41
496.38	21490.80
496.55	21317.60
496.73	21717.83
496.91	21245.04
497.09	21738.90
497.26	21778.68
497.44	21876.99
497.62	22176.58
497.79	22347.44
497.97	22054.87
498.14	22427.01
498.32	22335.73
498.50	22625.96
498.67	22717.24
498.85	22731.28
499.03	22731.28
499.20	23204.07
499.38	23002.78
499.56	23459.19
499.73	23433.44
499.91	23190.03
500.08	23782.18
500.26	23152.58
500.44	23403.02
500.61	23768.14
500.79	23639.41
500.97	23999.85
501.14	24240.93
501.32	24449.24
501.49	24407.11
501.67	24294.76
501.84	24355.61
502.02	24629.46
502.20	24491.37
502.37	24683.29
502.55	24528.81
502.72	24868.19
502.90	24814.36
503.07	24645.84
503.25	24643.50
503.43	25085.86
503.60	25207.57
503.78	25013.31
503.95	25214.59
504.13	25359.70
504.30	25680.36
504.48	25560.99
504.65	25366.73
504.83	25806.75
505.01	26052.50
505.18	25577.37
505.36	26057.18
505.53	26047.82
505.71	26167.19
505.88	26267.83
506.06	26150.81
506.23	26457.42
506.41	26375.50
506.58	26316.98
506.76	26682.11
506.93	26682.11
507.11	26808.50
507.28	27335.12
507.46	27115.11
507.63	26852.97
507.81	27248.52
507.98	27021.48
508.16	27140.85
508.33	27232.13
508.50	27484.91
508.68	27580.87
508.85	27779.82
509.03	27660.45
509.20	27587.89
509.38	27922.59
509.55	27730.67
509.73	28273.67
509.90	27590.24
510.08	28119.20
510.25	28259.63
510.42	28336.87
510.60	28294.74
510.77	28767.52
510.95	28875.19
511.12	28734.76
511.30	28512.41
511.47	28776.89
511.64	28631.77
511.82	28910.30
511.99	28837.74
512.17	29472.03
512.34	29205.20
512.51	29046.05
512.69	29448.62
512.86	29359.68
513.04	29455.64
513.21	29586.71
513.38	29755.23
513.56	29556.28
513.73	29673.31
513.90	29942.47
514.08	29860.55
514.25	30192.91
514.43	30232.70
514.60	30017.37
514.77	30600.16
514.95	30253.76
515.12	30235.04
515.29	30569.74
515.47	30831.88
515.64	30471.43
515.81	30759.32
515.99	30553.35
516.16	31372.54
516.33	31178.28
516.51	30827.20
516.68	30764.00
516.85	31094.02
517.03	31412.33
517.20	31573.83
517.37	31164.23
517.54	31337.43
517.72	31564.46
517.89	31332.75
518.06	31477.86
518.24	31447.44
518.41	31613.62
518.58	31421.69
518.75	31515.31
518.93	31847.67
519.10	31992.78
519.27	31697.88
519.45	31807.88
519.62	31997.46
519.79	32016.19
519.96	32086.40
520.14	32268.97
520.31	32109.81
520.48	32395.35
520.65	32219.81
520.83	33069.43
521.00	32685.58
521.17	32484.30
521.34	33060.07
521.52	32699.62
521.69	33270.72
521.86	33441.57
522.03	33132.62
522.20	33251.99
522.38	33441.57
522.55	33420.51
522.72	33373.70
522.89	33383.06
523.07	34211.61
523.24	33497.75
523.41	33825.42
523.58	33680.31
523.75	34061.82
523.92	33830.10
524.10	34092.24
524.27	34022.03
524.44	34059.48
524.61	34235.02
524.78	34010.32
524.96	34452.69
525.13	34403.53
525.30	34752.27
525.47	34710.14
525.64	34031.39
525.81	34429.28
525.98	34279.49
526.16	35152.51
526.33	34504.18
526.50	34972.28
526.67	34794.40
526.84	34855.26
527.01	35253.15
527.18	35161.87
527.36	35126.76
527.53	35236.77
527.70	35262.51
527.87	35592.53
528.04	35725.94
528.21	35178.25
528.38	35505.93
528.55	35683.81
528.72	35257.83
528.89	35330.39
529.07	35639.34
529.24	35463.80
529.41	36027.87
529.58	35749.34
529.75	36126.17
529.92	36074.68
530.09	36016.16
530.26	36102.76
530.43	36168.30
530.60	36109.78
530.77	35615.93
530.94	36257.24
531.11	36027.87
531.28	36327.45
531.46	36512.36
531.63	36437.46
531.80	36109.78
531.97	36718.32
532.14	36769.82
532.31	36463.21
532.48	36439.80
532.65	36797.90
532.82	36673.85
532.99	36912.59
533.16	36603.64
533.33	37160.69
533.50	36711.30
533.67	37099.83
533.84	36673.85
534.01	37219.20
534.18	37216.86
534.35	37727.10
534.52	37174.73
534.69	37923.70
534.86	37406.44
535.03	37186.43
535.20	37448.57
535.37	37790.29
535.54	37883.91
535.71	37921.36
535.88	38162.43
536.05	37748.16
536.22	38333.29
536.38	37731.78
536.55	37904.98
536.72	37954.13
536.89	38153.07
537.06	38220.95
537.23	38342.66
537.40	38209.25
537.57	38370.74
537.74	37844.12
537.91	38080.52
538.08	38955.88
538.25	37883.91
538.42	38326.27
538.59	38361.38
538.75	38583.73
538.92	38864.60
539.09	38670.33
539.26	38597.77
539.43	38768.63
539.60	38843.53
539.77	38799.06
539.94	38939.49
540.11	39091.63
540.28	38780.34
540.44	38824.81
540.61	38960.56
540.78	38810.76
540.95	39281.21
541.12	38962.90
541.29	39386.54
541.46	39173.55
541.62	39100.99
541.79	39276.53
541.96	39321.00
542.13	39365.47
542.30	39082.27
542.47	39690.80
542.63	39845.28
542.80	40048.91
542.97	39770.38
543.14	40252.53
543.31	39882.73
543.48	40147.21
543.64	40701.92
543.81	40514.67
543.98	40196.36
544.15	39805.49
544.32	40201.04
544.48	40718.30
544.65	40369.56
544.82	40641.06
544.99	40203.38
545.16	40240.83
545.32	40175.30
545.49	40701.92
545.66	40662.13
545.83	40460.84
546.00	40893.84
546.16	40961.72
546.33	40261.90
546.50	40355.52
546.67	41015.55
546.83	40224.45
547.00	40598.93
547.17	40816.60
547.34	40699.58
547.50	41186.41
547.67	40942.99
547.84	41006.19
548.00	41200.45
548.17	41415.78
548.34	41628.77
548.51	41476.63
548.67	41551.53
548.84	41076.40
549.01	41247.26
549.18	41174.70
549.34	41474.29
549.51	41507.06
549.68	41488.34
549.84	41509.40
550.01	41544.51
550.18	41647.49
550.34	41727.07
550.51	41570.25
550.68	41832.39
550.84	41228.54
551.01	42328.59
551.18	41652.17
551.34	41738.77
551.51	41904.95
551.68	42000.91
551.84	41837.08
552.01	41998.57
552.18	41741.11
552.34	41642.81
552.51	42253.69
552.68	41951.76
552.84	41848.78
553.01	42312.20
553.18	42174.11
553.34	42272.42
553.51	42408.17
553.67	42892.66
553.84	42712.44
554.01	42249.01
554.17	42209.22
554.34	42703.07
554.51	42560.30
554.67	42777.97
554.84	42728.82
555.00	42546.26
555.17	42340.29
555.33	42815.42
555.50	42660.94
555.67	43016.71
555.83	42941.81
556.00	42794.36
556.16	42864.57
556.33	43075.22
556.50	43255.44
556.66	42887.98
556.83	43239.06
556.99	42864.57
557.16	43143.09
557.32	43194.59
557.49	43297.57
557.65	42555.62
557.82	43304.59
557.98	43533.96
558.15	43430.98
558.32	43702.48
558.48	42560.30
558.65	43477.79
558.81	43215.65
558.98	43213.31
559.14	43201.61
559.31	42862.23
559.47	43311.61
559.64	43423.96
559.80	43150.12
559.97	43746.95
560.13	43248.42
560.30	43470.77
560.46	43849.94
560.63	43426.30
560.79	43901.43
560.96	43887.39
561.12	44135.48
561.29	43746.95
561.45	43599.50
561.61	43896.75
561.78	43679.08
561.94	43704.82
562.11	43847.60
562.27	43599.50
562.44	43784.40
562.60	44058.24
562.77	43625.25
562.93	43988.03
563.10	43784.40
563.26	43716.53
563.42	44121.44
563.59	43878.02
563.75	44114.42
563.92	43732.91
564.08	44091.01
564.24	44208.04
564.41	43863.98
564.57	43988.03
564.74	43866.32
564.90	44481.88
565.07	44158.89
565.23	43896.75
565.39	44505.29
565.56	44304.00
565.72	44039.52
565.88	44390.60
566.05	44067.61
566.21	44123.78
566.38	44282.94
566.54	44516.99
566.70	44198.68
566.87	44203.36
567.03	44519.33
567.19	44554.44
567.36	44542.74
567.52	44460.82
567.68	44311.02
567.85	44811.90
568.01	44648.06
568.17	44634.02
568.34	44254.85
568.50	44587.21
568.66	44470.18
568.83	44516.99
568.99	44758.06
569.15	44254.85
569.32	44516.99
569.48	44802.53
569.64	44893.82
569.81	44346.13
569.97	44697.21
570.13	44844.66
570.30	44542.74
570.46	44753.38
570.62	44776.79
570.78	44556.78
570.95	44795.51
571.11	44629.34
571.27	44456.14
571.43	44451.45
571.60	44561.46
571.76	44751.04
571.92	44783.81
572.09	44601.25
572.25	44610.61
572.41	44612.95
572.57	44989.78
572.74	45090.42
572.90	44671.46
573.06	44797.85
573.22	44875.09
573.38	45144.25
573.55	44978.07
573.71	45153.62
573.87	45333.84
574.03	44978.07
574.20	44933.60
574.36	45006.16
574.52	45331.50
574.68	44765.09
574.84	45111.49
575.01	45532.78
575.17	45436.82
575.33	45429.80
575.49	45076.38
575.65	45001.48
575.82	45251.92
575.98	44692.53
576.14	45170.00
576.30	45294.05
576.46	45146.59
576.62	44804.88
576.79	44994.46
576.95	44959.35
577.11	45120.85
577.27	45265.96
577.43	45151.27
577.59	45247.24
577.75	44863.39
577.92	45081.06
578.08	45064.67
578.24	45013.18
578.40	44975.73
578.56	45282.34
578.72	45062.33
578.88	45275.32
579.04	45228.51
579.21	44739.34
579.37	45483.63
579.53	45277.66
579.69	45188.72
579.85	44978.07
580.01	45031.91
580.17	45240.21
580.33	45476.61
580.49	45422.78
580.65	45727.05
580.82	45359.58
580.98	45118.51
581.14	44741.68
581.30	45563.21
581.46	45006.16
581.62	45457.88
581.78	45001.48
581.94	45439.16
582.10	44893.82
582.26	45563.21
582.42	45352.56
582.58	44898.50
582.74	45310.43
582.90	44975.73
583.06	45806.62
583.22	45130.21
583.38	45244.90
583.54	45235.53
583.70	45036.59
583.86	45925.99
584.02	45233.19
584.18	45591.30
584.34	45633.42
584.50	45654.49
584.66	45642.79
584.82	45432.14
584.98	45581.93
585.14	45357.24
585.30	45242.56
585.46	45303.41
585.62	45603.00
585.78	45359.58
585.94	44921.90
586.10	45420.44
586.26	44905.52
586.42	44685.51
586.58	45509.38
586.74	45350.22
586.90	45001.48
587.06	45312.77
587.22	45432.14
587.38	45296.39
587.54	45439.16
587.70	46057.06
587.86	45443.84
588.02	45317.45
588.18	45694.28
588.34	45476.61
588.49	45720.02
588.65	45577.25
588.81	45626.40
588.97	45720.02
589.13	45326.81
589.29	45504.70
589.45	45647.47
589.61	45382.99
589.77	45766.84
589.93	45392.35
590.08	45865.14
590.24	45708.32
590.40	46216.22
590.56	45762.15
590.72	45907.27
590.88	45624.06
591.04	45738.75
591.20	46382.40
591.35	45832.37
591.51	46274.73
591.67	46085.15
591.83	45869.82
591.99	45731.73
592.15	45537.46
592.31	45553.85
592.46	45748.11
592.62	46019.61
592.78	45855.78
592.94	45998.55
593.10	46094.51
593.26	46057.06
593.41	46382.40
593.57	46036.00
593.73	46089.83
593.89	46513.47
594.05	46457.29
594.20	46251.33
594.36	46555.60
594.52	46043.02
594.68	46274.73
594.84	46113.23
594.99	46476.02
595.15	45925.99
595.31	45867.48
595.47	46204.52
595.62	46178.77
595.78	45652.15
595.94	46005.57
596.10	45670.87
596.25	45867.48
596.41	46454.95
596.57	46143.66
596.73	46256.01
596.88	46155.36
597.04	46546.23
597.20	45724.71
597.36	46230.26
597.51	46361.33
597.67	46031.32
597.83	46106.21
597.99	46466.66
598.14	46330.90
598.30	45965.78
598.46	46230.26
598.61	46487.72
598.77	46333.24
598.93	46742.84
599.09	46340.27
599.24	46747.52
599.40	46604.75
599.56	45968.12
599.71	46686.67
599.87	46394.10
600.03	46520.49
600.18	46108.55
600.34	46124.94
600.50	46384.74
600.65	46403.46
600.81	46845.82
600.97	46686.67
601.12	46433.89
601.28	46529.85
601.44	46419.84
601.59	46284.09
601.75	46639.86
601.91	46635.17
602.06	46099.19
602.22	46747.52
602.37	46515.81
602.53	46298.14
602.69	46445.59
602.84	46080.47
603.00	45996.21
603.16	46466.66
603.31	46513.47
603.47	46265.37
603.62	46171.75
603.78	46667.94
603.94	46078.13
604.09	46092.17
604.25	46522.83
604.40	46017.27
604.56	46216.22
604.71	46265.37
604.87	46061.74
605.03	46382.40
605.18	46075.79
605.34	46527.51
605.49	45865.14
605.65	46167.07
605.80	46038.34
605.96	45614.70
606.12	46260.69
606.27	46438.57
606.43	45909.61
606.58	46508.79
606.74	46220.90
606.89	46174.09
607.05	46305.16
607.20	46377.72
607.36	46164.73
607.51	46307.50
607.67	46153.02
607.82	45780.88
607.98	46183.45
608.13	46064.08
608.29	45921.31
608.44	45937.69
608.60	46197.49
608.75	46174.09
608.91	46394.10
609.06	45958.76
609.22	46202.18
609.37	45771.52
609.53	46188.13
609.68	45879.18
609.84	46185.79
609.99	45961.10
610.15	46106.21
610.30	46576.66
610.46	45930.67
610.61	45703.64
610.76	45867.48
610.92	45975.14
611.07	45968.12
611.23	46068.76
611.38	45748.11
611.54	46333.24
611.69	46232.60
611.84	46050.04
612.00	45720.02
612.15	45834.71
612.31	46368.35
612.46	45331.50
612.62	45455.54
612.77	45815.99
612.92	45893.22
613.08	45544.48
613.23	45745.77
613.39	45703.64
613.54	45691.94
613.69	45954.08
613.85	45530.44
614.00	45528.10
614.15	45923.65
614.31	45336.18
614.46	45607.68
614.62	45502.35
614.77	45771.52
614.92	45366.60
615.08	45553.85
615.23	45860.46
615.38	45879.18
615.54	45539.80
615.69	45815.99
615.84	45375.97
616.00	45851.09
616.15	45565.55
616.30	45581.93
616.46	45408.73
616.61	45338.52
616.76	45469.59
616.92	45071.70
617.07	45476.61
617.22	45605.34
617.37	45200.43
617.53	45160.64
617.68	45544.48
617.83	45612.36
617.99	45799.60
618.14	45603.00
618.29	45240.21
618.45	45186.38
618.60	44985.10
618.75	44992.12
618.90	45226.17
619.06	45010.84
619.21	45202.77
619.36	45151.27
619.51	45221.49
619.67	44657.42
619.82	45099.78
619.97	45127.87
620.12	44540.39
620.28	44720.62
620.43	45205.11
620.58	44776.79
620.73	44921.90
620.89	45104.46
621.04	45254.26
621.19	45017.86
621.34	44584.86
621.49	44832.96
621.65	44844.66
621.80	45104.46
621.95	44891.48
622.10	45399.37
622.25	44811.90
622.41	44933.60
622.56	44315.70
622.71	44690.19
622.86	44952.33
623.01	44973.39
623.16	44760.40
623.32	44531.03
623.47	44547.42
623.62	44313.36
623.77	44161.23
623.92	44378.90
624.07	44617.63
624.23	44617.63
624.38	44477.20
624.53	44296.98
624.68	44313.36
624.83	44811.90
624.98	44423.37
625.13	43927.17
625.29	44505.29
625.44	43833.55
625.59	44339.11
625.74	44060.58
625.89	43735.25
626.04	44425.71
626.19	44210.38
626.34	44044.20
626.49	43845.26
626.65	43868.66
626.80	43966.96
626.95	43435.66
627.10	43611.20
627.25	43887.39
627.40	44051.22
627.55	43672.06
627.70	43814.83
627.85	44105.06
628.00	43889.73
628.15	44065.27
628.30	42958.19
628.45	43328.00
628.60	43379.49
628.76	43428.64
628.91	43688.44
629.06	43456.73
629.21	43077.56
629.36	43461.41
629.51	43583.12
629.66	43957.60
629.81	43426.30
629.96	43573.75
630.11	43084.58
630.26	43138.41
630.41	43484.81
630.56	43234.38
630.71	43690.78
630.86	42918.40
631.01	43042.45
631.16	43335.02
631.31	42974.58
631.46	43538.65
631.61	43543.33
631.76	43562.05
631.91	43440.34
632.06	43419.28
632.21	43388.85
632.36	43510.56
632.51	43145.44
632.66	43304.59
632.81	43131.39
632.96	43295.23
633.10	42946.49
633.25	42639.88
633.40	43168.84
633.55	43569.07
633.70	42773.29
633.85	43023.73
634.00	42817.76
634.15	42604.77
634.30	43225.01
634.45	42817.76
634.60	42993.30
634.75	42579.03
634.90	42813.08
635.05	42864.57
635.19	42646.90
635.34	42880.95
635.49	42459.66
635.64	42808.40
635.79	42806.06
635.94	42417.53
636.09	42789.67
636.24	42679.67
636.39	42780.31
636.53	42321.57
636.68	42333.27
636.83	42375.40
636.98	42284.12
637.13	42157.73
637.28	42267.73
637.43	42408.17
637.57	42216.24
637.72	42284.12
637.87	41759.84
638.02	42326.25
638.17	42036.02
638.32	42209.22
638.46	41940.06
638.61	41911.97
638.76	41738.77
638.91	42101.56
639.06	42115.60
639.20	41591.32
639.35	41691.96
639.50	41544.51
639.65	41773.88
639.80	41879.21
639.94	41596.00
640.09	41998.57
640.24	42225.60
640.39	41525.78
640.54	41502.38
640.68	41715.37
640.83	41958.78
640.98	41792.61
641.13	41347.90
641.27	41874.52
641.42	41846.44
641.57	40950.01
641.72	41813.67
641.86	41654.51
642.01	41153.64
642.16	41275.35
642.31	41134.92
642.45	41588.98
642.60	41095.13
642.75	41242.58
642.90	41640.47
643.04	41401.74
643.19	41357.27
643.34	40964.06
643.48	40797.88
643.63	41139.60
643.78	41420.46
643.93	41125.55
644.07	41359.61
644.22	41195.77
644.37	40961.72
644.51	41200.45
644.66	41378.33
644.81	41085.76
644.95	41404.08
645.10	41177.04
645.25	40580.21
645.39	40402.33
645.54	40645.74
645.69	40847.03
645.83	40601.27
645.98	40484.25
646.13	40659.79
646.27	40648.08
646.42	40533.40
646.57	40945.33
646.71	41289.39
646.86	40950.01
647.00	40891.50
647.15	41102.15
647.30	41050.66
647.44	40418.71
647.59	40821.28
647.74	40556.80
647.88	40900.86
648.03	40715.96
648.17	41165.34
648.32	40758.09
648.47	40982.78
648.61	40648.08
648.76	40233.81
648.90	40233.81
649.05	40112.10
649.20	40278.28
649.34	40306.37
649.49	40353.18
649.63	40423.39
649.78	40189.34
649.92	40297.00
650.07	40467.86
650.21	40175.30
650.36	40495.95
650.51	40650.42
650.65	40935.97
650.80	40751.07
650.94	40257.21
651.09	40123.80
651.23	40025.50
651.38	39917.84
651.52	39924.86
651.67	39864.00
651.81	40257.21
651.96	40156.57
652.10	39903.79
652.25	39894.43
652.39	39739.96
652.54	39632.29
652.68	39669.74
652.83	39651.02
652.97	39859.32
653.12	39915.50
653.26	39325.68
653.41	39688.46
653.55	39576.12
653.70	39576.12
653.84	40091.04
653.99	39864.00
654.13	39763.36
654.27	39428.66
654.42	39714.21
654.56	39054.18
654.71	39803.15
654.85	39651.02
655.00	39353.77
655.14	39611.23
655.29	39889.75
655.43	39838.26
655.57	39538.67
655.72	39049.50
655.86	38862.26
656.01	39215.68
656.15	39239.08
656.30	38792.04
656.44	39639.31
656.58	39449.73
656.73	38995.67
656.87	38848.21
657.01	39203.97
657.16	38983.96
657.30	38885.66
657.45	39058.86
657.59	38948.85
657.73	38742.89
657.88	38700.76
658.02	38988.64
658.16	39306.96
658.31	38763.95
658.45	38979.28
658.60	39365.47
658.74	38726.50
658.88	38878.64
659.03	38724.16
659.17	38787.36
659.31	38337.98
659.46	38473.73
659.60	38703.10
659.74	38150.73
659.89	38155.41
660.03	38036.05
660.17	38270.10
660.32	38103.92
660.46	38485.43
660.60	37696.67
660.74	37982.21
660.89	38525.22
661.03	38136.69
661.17	37549.21
661.32	37738.80
661.46	38291.16
661.60	37979.87
661.74	38071.15
661.89	37769.22
662.03	37745.82
662.17	37626.45
662.31	37680.28
662.46	37593.68
662.60	37249.63
662.74	37118.56
662.88	37366.65
663.03	36999.19
663.17	37270.69
663.31	36896.20
663.45	37277.71
663.60	37062.38
663.74	37471.98
663.88	37057.70
664.02	36870.46
664.17	37392.40
664.31	36701.94
664.45	36627.04
664.59	36865.78
664.73	36786.20
664.88	36615.34
665.02	36444.48
665.16	36336.82
665.30	36168.30
665.44	36460.87
665.59	36423.42
665.73	36332.14
665.87	36013.82
666.01	36591.94
666.15	36091.06
666.29	36060.63
666.44	36121.49
666.58	35931.90
666.72	35833.60
666.86	35590.19
667.00	35709.55
667.14	35379.54
667.28	35604.23
667.43	36264.26
667.57	35943.61
667.71	35583.16
667.85	35723.60
667.99	35627.63
668.13	35215.70
668.27	35201.66
668.41	35370.18
668.56	35255.49
668.70	35168.89
668.84	34675.04
668.98	34932.50
669.12	35236.77
669.26	34897.39
669.40	35147.82
669.54	34459.71
669.68	34937.18
669.82	34862.28
669.96	34101.61
670.10	34298.21
670.25	34277.15
670.39	34462.05
670.53	34412.90
670.67	34593.12
670.81	34635.25
670.95	34359.06
671.09	33860.53
671.23	34031.39
671.37	34462.05
671.51	33935.43
671.65	33783.29
671.79	33935.43
671.93	34064.16
672.07	34153.10
672.21	33537.54
672.35	33549.24
672.49	33577.33
672.63	34115.65
672.77	33296.46
672.91	33455.62
673.05	33439.23
673.19	33017.94
673.33	32978.15
673.47	32870.48
673.61	32837.72
673.75	32751.12
673.89	32430.46
674.03	33003.89
674.17	32627.07
674.31	32378.97
674.45	32320.46
674.59	31945.97
674.73	32088.74
674.87	32055.98
675.01	31751.71
675.15	31999.80
675.29	32020.87
675.43	31648.72
675.56	32034.91
675.70	31613.62
675.84	31962.36
675.98	30651.66
676.12	31646.38
676.26	31555.10
676.40	31292.96
676.54	31461.48
676.68	31028.48
676.82	30558.03
676.96	30974.65
677.10	30850.60
677.23	31091.68
677.37	30691.44
677.51	30661.02
677.65	30288.87
677.79	30661.02
677.93	30511.22
678.07	30389.52
678.21	29937.79
678.34	30010.35
678.48	30316.96
678.62	29811.40
678.76	29558.63
678.90	29780.98
679.04	29766.93
679.18	29773.95
679.31	29268.40
679.45	29397.13
679.59	29195.84
679.73	29266.06
679.87	29331.59
680.00	28865.83
680.14	28940.72
680.28	28898.59
680.42	28645.82
680.56	28680.92
680.70	28819.02
680.83	28065.36
680.97	28355.59
681.11	28229.20
681.25	27943.66
681.39	28194.09
681.52	27873.44
681.66	27742.37
681.80	27318.73
681.94	27222.77
682.07	27344.48
682.21	27505.98
682.35	27351.50
682.49	27075.32
682.62	26899.78
682.76	27599.60
682.90	26890.41
683.04	27129.15
683.17	26649.34
683.31	26333.37
683.45	26548.70
683.59	26272.51
683.72	26160.17
683.86	26469.12
684.00	25937.82
684.13	26412.95
684.27	25825.47
684.41	26094.63
684.55	25727.17
684.68	25893.35
684.82	25766.96
684.96	25736.53
685.09	25724.83
685.23	25469.71
685.37	25743.55
685.50	25582.06
685.64	25528.22
685.78	25029.69
685.91	24915.00
686.05	24683.29
686.19	24137.94
686.32	24465.62
686.46	24514.77
686.60	24498.39
686.73	24229.23
686.87	24379.02
687.01	24606.05
687.14	24301.78
687.28	24067.73
687.42	24210.50
687.55	24009.22
687.69	24067.73
687.82	23601.96
687.96	23744.73
688.10	23695.58
688.23	23864.10
688.37	23658.14
688.50	23520.04
688.64	23695.58
688.78	23250.88
688.91	23040.23
689.05	23129.17
689.18	22867.03
689.32	22408.29
689.46	22530.00
689.59	22630.64
689.73	22944.27
689.86	22850.65
690.00	22534.68
690.13	22497.23
690.27	22190.62
690.41	22380.20
690.54	21804.43
690.68	22054.87
690.81	21811.45
690.95	21785.71
691.08	21626.55
691.22	21525.91
691.35	21401.86
691.49	21397.18
691.62	21284.83
691.76	21205.25
691.89	20994.61
692.03	20849.49
692.16	20788.64
692.30	20931.41
692.43	20709.06
692.57	20489.05
692.70	20634.16
692.84	20383.73
692.97	20212.87
693.11	20037.33
693.24	20173.08
693.38	20224.57
693.51	20034.99
693.65	19686.25
693.78	19625.39
693.92	19843.06
694.05	19726.04
694.19	19403.04
694.32	19166.65
694.45	19955.41
694.59	19672.20
694.72	19433.47
694.86	19236.86
694.99	19173.67
695.13	18956.00
695.26	18693.86
695.39	18712.58
695.53	18801.52
695.66	18817.91
695.80	18625.98
695.93	18808.54
696.07	18408.31
696.20	18197.67
696.33	18300.65
696.47	17750.62
696.60	18082.98
696.73	18082.98
696.87	18120.43
697.00	18164.90
697.14	17862.97
697.27	17682.75
697.40	17528.27
697.54	17614.87
697.67	17582.10
697.80	17610.19
697.94	17200.60
698.07	17308.26
698.21	17291.88
698.34	17116.34
698.47	16987.61
698.61	16709.08
698.74	16444.60
698.87	16702.06
699.01	16470.35
699.14	16744.19
699.27	16727.81
699.40	16636.53
699.54	16414.18
699.67	16393.11
699.80	16233.96
699.94	16037.35
700.07	16196.51
700.20	15751.81
700.34	15983.52
700.47	16006.92
700.60	15777.55
700.73	15925.00
700.87	15676.91
701.00	15548.18
701.13	15353.91
701.26	15356.25
701.40	15236.89
701.53	15374.98
701.66	15295.40
701.79	15342.21
701.93	14808.57
702.06	14991.13
702.19	14703.25
702.32	14892.83
702.46	14810.91
702.59	14698.56
702.72	14846.02
702.85	14696.22
702.99	14808.57
703.12	14333.44
703.25	14335.78
703.38	14333.44
703.51	14445.79
703.65	14024.49
703.78	13886.40
703.91	13727.24
704.04	14066.62
704.17	13654.69
704.31	13741.29
704.44	13544.68
704.57	13509.57
704.70	13661.71
704.83	13554.04
704.96	13245.09
705.10	13486.17
705.23	13355.10
>>>>>End Processed Spectral Data<<<<<
