SpectraSuite Data File
++++++++++++++++++++++++++++++++++++
Date: Fri Oct 25 10:47:11 EDT 2013
User: price-jones
Dark Spectrum Present: No
Reference Spectrum Present: No
Number of Sampled Component Spectra: 1
Spectrometers: USB2+H05261
Integration Time (usec): 100000 (USB2+H05261)
Spectra Averaged: 1 (USB2+H05261)
Boxcar Smoothing: 0 (USB2+H05261)
Correct for Electrical Dark: No (USB2+H05261)
Strobe/Lamp Enabled: No (USB2+H05261)
Correct for Detector Non-linearity: No (USB2+H05261)
Correct for Stray Light: No (USB2+H05261)
Number of Pixels in Processed Spectrum: 2048
>>>>>Begin Processed Spectral Data<<<<<
365.73	107.66
365.92	107.66
366.12	107.66
366.32	65.54
366.52	72.56
366.72	28.09
366.91	0.00
367.11	91.28
367.31	42.13
367.51	51.49
367.70	93.62
367.90	117.03
368.10	32.77
368.30	35.11
368.49	53.83
368.69	79.58
368.89	81.92
369.09	32.77
369.28	49.15
369.48	32.77
369.68	51.49
369.87	79.58
370.07	105.32
370.27	227.03
370.47	224.69
370.66	320.65
370.86	374.49
371.06	332.36
371.25	470.45
371.45	428.32
371.65	425.98
371.84	447.04
372.04	444.70
372.24	521.94
372.44	505.56
372.63	512.58
372.83	503.22
373.03	507.90
373.22	461.09
373.42	421.30
373.62	491.51
373.81	578.11
374.01	610.88
374.21	535.98
374.40	423.64
374.60	550.03
374.79	496.19
374.99	496.19
375.19	545.34
375.38	517.26
375.58	566.41
375.78	521.94
375.97	592.16
376.17	617.90
376.37	456.40
376.56	580.45
376.76	540.66
376.95	517.26
377.15	608.54
377.35	512.58
377.54	587.47
377.74	580.45
377.93	568.75
378.13	540.66
378.33	641.31
378.52	641.31
378.72	709.18
378.91	681.10
379.11	648.33
379.31	587.47
379.50	573.43
379.70	634.29
379.89	678.76
380.09	655.35
380.28	678.76
380.48	641.31
380.68	610.88
380.87	552.37
381.07	655.35
381.26	692.80
381.46	662.37
381.65	676.41
381.85	688.12
382.04	676.41
382.24	655.35
382.43	643.65
382.63	685.78
382.83	648.33
383.02	662.37
383.22	706.84
383.41	683.44
383.61	690.46
383.80	767.70
384.00	767.70
384.19	711.52
384.39	730.25
384.58	716.20
384.78	699.82
384.97	760.67
385.17	741.95
385.36	809.83
385.56	718.54
385.75	758.33
385.95	821.53
386.14	847.27
386.34	751.31
386.53	744.29
386.72	779.40
386.92	826.21
387.11	889.40
387.31	847.27
387.50	849.61
387.70	744.29
387.89	851.96
388.09	774.72
388.28	842.59
388.48	781.74
388.67	809.83
388.86	877.70
389.06	851.96
389.25	931.53
389.45	971.32
389.64	795.78
389.84	961.96
390.03	910.47
390.22	891.74
390.42	1001.75
390.61	866.00
390.81	959.62
391.00	910.47
391.19	1004.09
391.39	809.83
391.58	985.37
391.78	938.55
391.97	940.90
392.16	964.30
392.36	954.94
392.55	966.64
392.75	983.02
392.94	987.71
393.13	891.74
393.33	847.27
393.52	959.62
393.71	1025.15
393.91	1048.56
394.10	994.73
394.29	1018.13
394.49	1053.24
394.68	1081.33
394.88	1086.01
395.07	1053.24
395.26	1004.09
395.46	1095.37
395.65	1144.52
395.84	1006.43
396.04	1109.41
396.23	1046.22
396.42	1081.33
396.62	1149.20
396.81	1191.33
397.00	1114.10
397.19	1165.59
397.39	1160.91
397.58	1263.89
397.77	1130.48
397.97	1210.06
398.16	1289.64
398.35	1282.61
398.55	1310.70
398.74	1240.48
398.93	1334.11
399.12	1359.85
399.32	1242.82
399.51	1301.34
399.70	1364.53
399.90	1369.21
400.09	1352.83
400.28	1399.64
400.47	1373.89
400.67	1434.75
400.86	1308.36
401.05	1420.71
401.24	1430.07
401.44	1507.30
401.63	1476.88
401.82	1495.60
402.01	1493.26
402.21	1575.18
402.40	1502.62
402.59	1430.07
402.78	1488.58
402.97	1519.01
403.17	1610.29
403.36	1568.16
403.55	1540.07
403.74	1614.97
403.93	1528.37
404.13	1687.53
404.32	1563.48
404.51	1579.86
404.70	1614.97
404.89	1621.99
405.09	1813.92
405.28	1666.46
405.47	1748.38
405.66	1614.97
405.85	1717.95
406.05	1678.16
406.24	1823.28
406.43	1811.57
406.62	1827.96
406.81	1825.62
407.00	1792.85
407.20	1729.66
407.39	1834.98
407.58	1900.52
407.77	1820.94
407.96	1830.30
408.15	1909.88
408.34	1865.41
408.54	1872.43
408.73	1956.69
408.92	1963.71
409.11	2022.22
409.30	2017.54
409.49	1963.71
409.68	1947.33
409.87	2024.56
410.07	2059.67
410.26	2080.74
410.45	2094.78
410.64	2094.78
410.83	2111.16
411.02	2113.50
411.21	2253.94
411.40	2157.97
411.59	2207.13
411.78	2237.55
411.98	2188.40
412.17	2183.72
412.36	2232.87
412.55	2328.83
412.74	2321.81
412.93	2321.81
413.12	2413.09
413.31	2509.05
413.50	2541.82
413.69	2497.35
413.88	2518.42
414.07	2469.27
414.26	2574.59
414.45	2534.80
414.64	2551.18
414.83	2553.52
415.02	2633.10
415.22	2698.64
415.41	2724.38
415.60	2693.96
415.79	2626.08
415.98	2803.96
416.17	2745.45
416.36	2803.96
416.55	2883.54
416.74	2715.02
416.93	2766.51
417.12	2902.26
417.31	2937.37
417.50	3035.67
417.69	3084.83
417.88	3002.91
418.07	2923.33
418.26	2988.86
418.45	3131.64
418.64	3119.93
418.83	3101.21
419.02	3070.78
419.21	3122.27
419.39	3126.96
419.58	3208.87
419.77	3133.98
419.96	3159.72
420.15	3222.92
420.34	3215.90
420.53	3176.11
420.72	3325.90
420.91	3377.39
421.10	3283.77
421.29	3386.76
421.48	3356.33
421.67	3335.26
421.86	3265.05
422.05	3456.97
422.24	3410.16
422.43	3412.50
422.61	3501.44
422.80	3375.05
422.99	3510.80
423.18	3522.51
423.37	3452.29
423.56	3398.46
423.75	3447.61
423.94	3361.01
424.13	3302.50
424.32	3407.82
424.50	3480.38
424.69	3431.23
424.88	3461.65
425.07	3508.46
425.26	3442.93
425.45	3414.84
425.64	3564.64
425.83	3426.54
426.01	3543.57
426.20	3557.61
426.39	3433.57
426.58	3515.48
426.77	3403.14
426.96	3531.87
427.15	3466.33
427.33	3541.23
427.52	3391.44
427.71	3618.47
427.90	3665.28
428.09	3768.26
428.28	3595.06
428.46	3609.11
428.65	3700.39
428.84	3768.26
429.03	3819.75
429.22	3620.81
429.40	3660.60
429.59	3871.25
429.78	3487.40
429.97	3515.48
430.16	3721.45
430.34	3707.41
430.53	3836.14
430.72	3829.12
430.91	3857.20
431.10	3911.04
431.28	3974.23
431.47	4004.66
431.66	4060.83
431.85	3997.64
432.03	4074.87
432.22	4159.13
432.41	4273.82
432.60	4046.79
432.79	4035.08
432.97	4100.62
433.16	4105.30
433.35	4114.66
433.54	4056.15
433.72	4203.60
433.91	4145.09
434.10	4245.73
434.28	4217.65
434.47	4189.56
434.66	4367.44
434.85	4245.73
435.03	4351.06
435.22	4273.82
435.41	4545.32
435.59	4437.66
435.78	4557.02
435.97	4512.55
436.16	4550.00
436.34	4470.42
436.53	4496.17
436.72	4617.88
436.90	4512.55
437.09	4685.75
437.28	4620.22
437.46	4528.94
437.65	4575.75
437.84	4634.26
438.02	4624.90
438.21	4589.79
438.40	4671.71
438.58	4664.69
438.77	4905.76
438.96	4727.88
439.14	4791.08
439.33	4823.84
439.52	4990.02
439.70	4985.34
439.89	5011.09
440.08	5090.67
440.26	5172.58
440.45	5104.71
440.63	5296.63
440.82	5462.81
441.01	5207.69
441.19	5308.34
441.38	5268.55
441.57	5289.61
441.75	5453.45
441.94	5493.24
442.12	5387.91
442.31	5760.06
442.50	5750.70
442.68	5596.22
442.87	5561.11
443.05	5530.69
443.24	5654.73
443.43	5715.59
443.61	5771.76
443.80	5851.34
443.98	5467.49
444.17	5565.79
444.35	5680.48
444.54	5916.87
444.73	5696.86
444.91	5849.00
445.10	5753.04
445.28	5785.80
445.47	5621.97
445.65	5633.67
445.84	5790.49
446.02	5692.18
446.21	5621.97
446.39	5806.87
446.58	5820.91
446.77	5851.34
446.95	5701.54
447.14	5994.11
447.32	5825.59
447.51	5703.89
447.69	5734.31
447.88	5823.25
448.06	5827.93
448.25	6106.46
448.43	5984.75
448.62	5844.32
448.80	5877.09
448.99	6031.56
449.17	5933.26
449.36	6080.71
449.54	6221.14
449.73	6195.40
449.91	6190.72
450.10	6167.31
450.28	6347.53
450.46	6354.55
450.65	6396.68
450.83	6282.00
451.02	6328.81
451.20	6443.49
451.39	6399.02
451.57	6387.32
451.76	6274.98
451.94	6380.30
452.13	6354.55
452.31	6321.79
452.49	6359.24
452.68	6466.90
452.86	6202.42
453.05	6415.41
453.23	6406.05
453.42	6494.99
453.60	6373.28
453.78	6799.26
453.97	6363.92
454.15	6607.33
454.34	6464.56
454.52	6600.31
454.70	6581.59
454.89	6513.71
455.07	6642.44
455.26	6792.23
455.44	6850.75
455.62	6775.85
455.81	6998.20
455.99	6750.10
456.17	7098.84
456.36	6911.60
456.54	6850.75
456.73	7091.82
456.91	7279.07
457.09	6986.50
457.28	7204.17
457.46	6930.33
457.64	7007.56
457.83	7129.27
458.01	7070.76
458.19	7201.83
458.38	7246.30
458.56	7456.95
458.74	7449.93
458.93	7183.10
459.11	7258.00
459.29	7311.83
459.48	7360.98
459.66	7435.88
459.84	7386.73
460.03	7566.95
460.21	7506.10
460.39	7496.74
460.57	7676.96
460.76	7573.97
460.94	7688.66
461.12	7606.74
461.31	7655.89
461.49	7651.21
461.67	7625.47
461.85	7709.72
462.04	7644.19
462.22	8053.78
462.40	8095.91
462.59	7712.07
462.77	7714.41
462.95	7831.43
463.13	7705.04
463.32	7847.82
463.50	7957.82
463.68	8159.11
463.86	7887.61
464.05	7864.20
464.23	7983.57
464.41	7997.61
464.59	7908.67
464.78	8187.19
464.96	8175.49
465.14	8086.55
465.32	8142.72
465.50	8128.68
465.69	8285.50
465.87	8168.47
466.05	8205.92
466.23	8086.55
466.41	8252.73
466.60	8252.73
466.78	8095.91
466.96	8353.37
467.14	8402.52
467.32	8166.13
467.51	8505.51
467.69	8194.22
467.87	8379.12
468.05	8617.85
468.23	8198.90
468.41	8234.00
468.60	8629.56
468.78	8585.08
468.96	8451.67
469.14	8444.65
469.32	8552.32
469.50	8528.91
469.69	8566.36
469.87	8887.01
470.05	8798.07
470.23	8842.54
470.41	8762.97
470.59	8870.63
470.77	8791.05
470.95	8954.89
471.14	8828.50
471.32	8931.48
471.50	9177.24
471.68	9231.07
471.86	9184.26
472.04	9163.20
472.22	9362.14
472.40	9102.34
472.58	9247.46
472.77	9310.65
472.95	9474.49
473.13	9617.26
473.31	9406.61
473.49	9226.39
473.67	9465.13
473.85	9483.85
474.03	9664.07
474.21	9802.16
474.39	9804.50
474.57	9841.95
474.75	9832.59
474.93	9956.64
475.12	9797.48
475.30	9975.36
475.48	10101.75
475.66	10043.24
475.84	10008.13
476.02	10113.45
476.20	10120.48
476.38	10399.00
476.56	10705.61
476.74	10693.91
476.92	10424.75
477.10	10424.75
477.28	10855.40
477.46	10775.83
477.64	10789.87
477.82	11033.29
478.00	11208.83
478.18	10958.39
478.36	10960.73
478.54	11232.23
478.72	11328.19
478.90	11754.17
479.08	11676.93
479.26	11569.27
479.44	11822.05
479.62	11927.37
479.80	11936.73
479.98	12163.76
480.16	12367.39
480.34	12189.51
480.52	12208.23
480.70	12285.47
480.88	12208.23
481.06	12273.77
481.24	12552.29
481.41	12657.62
481.59	12727.83
481.77	13011.04
481.95	13043.81
482.13	13099.98
482.31	13060.19
482.49	13380.84
482.67	13078.91
482.85	13558.72
483.03	13708.52
483.21	13799.80
483.39	13673.41
483.57	13745.97
483.74	13774.05
483.92	13982.36
484.10	14211.73
484.28	14345.14
484.46	14438.76
484.64	14555.79
484.82	14649.41
485.00	14473.87
485.18	14843.68
485.35	14803.89
485.53	15007.52
485.71	14878.79
485.89	15066.03
486.07	14949.00
486.25	15234.55
486.43	15405.41
486.61	15651.16
486.78	16032.67
486.96	15864.15
487.14	15983.52
487.32	15765.85
487.50	16020.97
487.68	15957.77
487.85	16575.67
488.03	16568.65
488.21	16856.54
488.39	16592.06
488.57	17018.04
488.75	16936.12
488.92	17235.70
489.10	17448.69
489.28	17905.10
489.46	17357.41
489.64	17621.89
489.81	17806.80
489.99	18328.74
490.17	18359.16
490.35	18487.89
490.53	18087.66
490.70	18665.77
490.88	18373.21
491.06	18799.18
491.24	18647.05
491.41	18712.58
491.59	18967.70
491.77	18932.59
491.95	19363.25
492.13	19489.64
492.30	19314.10
492.48	19564.54
492.66	19604.33
492.84	19894.55
493.01	20243.29
493.19	19740.08
493.37	19960.09
493.54	20318.19
493.72	20458.62
493.90	20383.73
494.08	20744.17
494.25	21329.30
494.43	21048.44
494.61	21018.01
494.79	21123.33
494.96	20945.45
495.14	21212.28
495.32	21502.50
495.49	21589.10
495.67	21841.88
495.85	21736.56
496.02	21797.41
496.20	22097.00
496.38	22253.81
496.55	22232.75
496.73	22181.26
496.91	21958.91
497.09	22867.03
497.26	22677.45
497.44	22558.08
497.62	22813.20
497.79	23021.51
497.97	22862.35
498.14	23201.73
498.32	23166.62
498.50	23498.98
498.67	23426.42
498.85	23391.31
499.03	23566.85
499.20	23513.02
499.38	23789.20
499.56	23899.21
499.73	23936.66
499.91	24191.78
500.08	24390.72
500.26	24294.76
500.44	24191.78
500.61	24652.86
500.79	23826.65
500.97	24594.35
501.14	24943.09
501.32	24821.38
501.49	24723.08
501.67	24797.98
501.84	25020.33
502.02	25013.31
502.20	25371.41
502.37	25483.75
502.55	25322.26
502.72	25680.36
502.90	25638.23
503.07	25399.49
503.25	25771.64
503.43	26026.76
503.60	25858.24
503.78	25930.80
503.95	25886.32
504.13	26253.79
504.30	26284.22
504.48	26352.09
504.65	26483.16
504.83	26546.36
505.01	26497.20
505.18	26527.63
505.36	27007.44
505.53	26810.84
505.71	26913.82
505.88	26801.47
506.06	26981.70
506.23	26801.47
506.41	26714.87
506.58	27220.43
506.76	27578.53
506.93	27428.74
507.11	27159.58
507.28	27339.80
507.46	27707.26
507.63	27704.92
507.81	27903.87
507.98	27838.33
508.16	27775.14
508.33	27924.93
508.50	28409.42
508.68	27999.83
508.85	28884.55
509.03	28362.61
509.20	28655.18
509.38	28765.18
509.55	28947.75
509.73	28336.87
509.90	28606.03
510.08	28727.74
510.25	29092.86
510.42	29350.32
510.60	29352.66
510.77	29329.25
510.95	29717.78
511.12	29366.70
511.30	29584.37
511.47	29865.24
511.64	29589.05
511.82	29998.65
511.99	29661.61
512.17	30015.03
512.34	30050.14
512.51	29682.67
512.69	30309.94
512.86	30043.12
513.04	30221.00
513.21	29895.66
513.38	30375.47
513.56	30593.14
513.73	30125.04
513.90	30485.48
514.08	30309.94
514.25	31178.28
514.43	30761.66
514.60	31019.12
514.77	30731.23
514.95	31103.38
515.12	30958.27
515.29	30754.64
515.47	30986.35
515.64	31122.10
515.81	31412.33
515.99	31590.21
516.16	31381.90
516.33	31468.50
516.51	31702.56
516.68	31042.53
516.85	31236.79
517.03	31063.59
517.20	31779.79
517.37	31917.89
517.54	32301.73
517.72	31894.48
517.89	31721.28
518.06	32016.19
518.24	31847.67
518.41	32051.30
518.58	32292.37
518.75	31845.33
518.93	32252.58
519.10	32273.65
519.27	32563.87
519.45	32561.53
519.62	32723.03
519.79	32739.41
519.96	33055.39
520.14	33364.34
520.31	32863.46
520.48	33029.64
520.65	32811.97
520.83	33214.54
521.00	33237.95
521.17	33158.37
521.34	33324.55
521.52	33890.96
521.69	33408.81
521.86	33469.66
522.03	33659.24
522.20	33661.58
522.38	33914.36
522.55	33579.67
522.72	34281.83
522.89	34408.22
523.07	34206.93
523.24	33855.85
523.41	33986.92
523.58	34096.92
523.75	34838.87
523.92	34398.85
524.10	34623.54
524.27	34836.53
524.44	34660.99
524.61	34586.10
524.78	34719.51
524.96	34656.31
525.13	34953.56
525.30	35283.58
525.47	35187.61
525.64	34824.83
525.81	35318.68
525.98	35042.50
526.16	35000.37
526.33	34911.43
526.50	34998.03
526.67	35171.23
526.84	35175.91
527.01	35248.47
527.18	35182.93
527.36	35447.41
527.53	35875.73
527.70	35910.84
527.87	36018.50
528.04	35644.02
528.21	35936.59
528.38	35866.37
528.55	35967.01
528.72	36018.50
528.89	36280.64
529.07	36259.58
529.24	35868.71
529.41	36002.12
529.58	35758.70
529.75	36414.05
529.92	36762.79
530.09	36414.05
530.26	36245.54
530.43	37001.53
530.60	36613.00
530.77	36779.18
530.94	36821.31
531.11	36769.82
531.28	36617.68
531.46	37067.06
531.63	36889.18
531.80	36765.14
531.97	36666.83
532.14	36950.04
532.31	36891.52
532.48	37074.09
532.65	37057.70
532.82	36863.44
532.99	37212.18
533.16	37085.79
533.33	37048.34
533.50	37537.51
533.67	37408.78
533.84	37301.12
534.01	37715.39
534.18	37436.87
534.35	37298.78
534.52	37338.57
534.69	37605.39
534.86	37717.73
535.03	37464.96
535.20	38291.16
535.37	38150.73
535.54	38429.26
535.71	37799.65
535.88	38178.82
536.05	38136.69
536.22	38305.21
536.38	38452.66
536.55	38462.02
536.72	38183.50
536.89	38450.32
537.06	38234.99
537.23	38506.49
537.40	38457.34
537.57	38202.22
537.74	38609.48
537.91	38831.83
538.08	38838.85
538.25	38675.01
538.42	38801.40
538.59	38899.70
538.75	38487.77
538.92	38808.42
539.09	39061.20
539.26	38597.77
539.43	38953.54
539.60	39086.95
539.77	38817.78
539.94	39676.76
540.11	39641.65
540.28	39119.71
540.44	39344.41
540.61	38906.73
540.78	38951.20
540.95	39557.39
541.12	39349.09
541.29	39498.88
541.46	39313.98
541.62	39379.51
541.79	39636.97
541.96	39426.32
542.13	39339.72
542.30	39372.49
542.47	39653.36
542.63	39627.61
542.80	40027.84
542.97	40215.08
543.14	40044.23
543.31	40238.49
543.48	40182.32
543.64	40992.14
543.81	40109.76
543.98	40788.52
544.15	40266.58
544.32	40360.20
544.48	40486.59
544.65	40334.45
544.82	40542.76
544.99	40259.55
545.16	40992.14
545.32	40807.24
545.49	40589.57
545.66	41125.55
545.83	40622.34
546.00	40884.48
546.16	40507.65
546.33	41137.26
546.50	40350.84
546.67	40931.29
546.83	40620.00
547.00	40428.07
547.17	41240.24
547.34	40594.25
547.50	41155.98
547.67	41249.60
547.84	41062.36
548.00	41347.90
548.17	41371.31
548.34	41177.04
548.51	41509.40
548.67	40966.40
548.84	41497.70
549.01	41165.34
549.18	41310.46
549.34	41275.35
549.51	41371.31
549.68	41626.43
549.84	41745.80
550.01	41408.76
550.18	40872.78
550.34	41525.78
550.51	41778.56
550.68	41755.16
550.84	41240.24
551.01	41968.15
551.18	41584.30
551.34	41794.95
551.51	41776.22
551.68	41918.99
551.84	42160.07
552.01	41696.64
552.18	41876.86
552.34	41743.45
552.51	42026.66
552.68	41787.92
552.84	42092.19
553.01	42485.40
553.18	42005.59
553.34	42274.76
553.51	41867.50
553.67	41986.87
553.84	42686.69
554.01	42368.38
554.17	42487.74
554.34	42520.51
554.51	42564.98
554.67	42670.31
554.84	42370.72
555.00	42471.36
555.17	41998.57
555.33	42497.11
555.50	42344.97
555.67	42925.42
555.83	42274.76
556.00	42820.10
556.16	42871.59
556.33	42700.73
556.50	42344.97
556.66	42670.31
556.83	42841.17
556.99	42941.81
557.16	43157.14
557.32	42932.45
557.49	43152.46
557.65	42700.73
557.82	42653.92
557.98	42639.88
558.15	42869.25
558.32	42960.53
558.48	42775.63
558.65	43009.68
558.81	42864.57
558.98	42866.91
559.14	43082.24
559.31	42754.57
559.47	43072.88
559.64	42965.21
559.80	43384.17
559.97	43267.14
560.13	43037.77
560.30	43196.93
560.46	43159.48
560.63	43119.69
560.79	43842.92
560.96	43388.85
561.12	43320.98
561.29	43494.18
561.45	43325.66
561.61	43143.09
561.78	43655.67
561.94	43021.39
562.11	43555.03
562.27	43360.76
562.44	43370.13
562.60	43498.86
562.77	43990.37
562.93	43196.93
563.10	43707.16
563.26	43524.60
563.42	43819.51
563.59	43718.87
563.75	43569.07
563.92	43859.30
564.08	43332.68
564.24	43751.63
564.41	43873.34
564.57	43229.69
564.74	43840.57
564.90	43688.44
565.07	43756.32
565.23	44158.89
565.39	43468.43
565.56	43997.39
565.72	43775.04
565.88	43531.62
566.05	43941.22
566.21	43700.14
566.38	43442.68
566.54	43693.12
566.70	44236.12
566.87	43817.17
567.03	43892.07
567.19	44060.58
567.36	43817.17
567.52	43826.53
567.68	43943.56
567.85	44006.75
568.01	44524.01
568.17	43887.39
568.34	44238.47
568.50	44224.42
568.66	43943.56
568.83	43805.47
568.99	43896.75
569.15	43814.83
569.32	43878.02
569.48	44076.97
569.64	44184.63
569.81	43847.60
569.97	44198.68
570.13	44222.08
570.30	44011.43
570.46	43709.50
570.62	44231.44
570.78	43550.35
570.95	43871.00
571.11	44182.29
571.27	43835.89
571.43	43973.98
571.60	44011.43
571.76	43934.20
571.92	44079.31
572.09	44046.54
572.25	44175.27
572.41	43995.05
572.57	43803.13
572.74	44622.31
572.90	43861.64
573.06	44142.50
573.22	44299.32
573.38	44044.20
573.55	43845.26
573.71	44795.51
573.87	44296.98
574.03	43859.30
574.20	43997.39
574.36	43976.33
574.52	44385.92
574.68	44610.61
574.84	44172.93
575.01	44292.30
575.17	44098.03
575.33	44041.86
575.49	44189.31
575.65	44531.03
575.82	44697.21
575.98	44299.32
576.14	44311.02
576.30	44683.17
576.46	44229.10
576.62	44058.24
576.79	44271.23
576.95	43569.07
577.11	44121.44
577.27	44353.15
577.43	44332.09
577.59	44271.23
577.75	44381.24
577.92	44137.82
578.08	44041.86
578.24	44229.10
578.40	44172.93
578.56	44575.50
578.72	44041.86
578.88	44591.89
579.04	44811.90
579.21	44360.17
579.37	44706.57
579.53	44591.89
579.69	44301.66
579.85	44648.06
580.01	44215.06
580.17	44399.96
580.33	44755.72
580.49	44685.51
580.65	44729.98
580.82	44395.28
580.98	44013.77
581.14	44222.08
581.30	44414.01
581.46	44301.66
581.62	44725.30
581.78	44650.40
581.94	44776.79
582.10	44561.46
582.26	44385.92
582.42	44626.99
582.58	44755.72
582.74	44055.90
582.90	44615.29
583.06	44776.79
583.22	44528.69
583.38	44720.62
583.54	44516.99
583.70	44463.16
583.86	44715.93
584.02	43948.24
584.18	44809.56
584.34	44430.39
584.50	44472.52
584.66	44619.97
584.82	44566.14
584.98	44577.84
585.14	44762.75
585.30	44694.87
585.46	44285.28
585.62	44570.82
585.78	44240.81
585.94	44182.29
586.10	44521.67
586.26	44505.29
586.42	44119.10
586.58	44582.52
586.74	44594.23
586.90	44626.99
587.06	44226.76
587.22	44446.77
587.38	44739.34
587.54	44545.08
587.70	44715.93
587.86	44699.55
588.02	44662.10
588.18	44830.62
588.34	44746.36
588.49	44502.95
588.65	44109.74
588.81	44226.76
588.97	44481.88
589.13	44456.14
589.29	44690.19
589.45	44479.54
589.61	44886.79
589.77	45106.80
589.93	45022.54
590.08	44601.25
590.24	44935.95
590.40	44870.41
590.56	45008.50
590.72	45170.00
590.88	44198.68
591.04	44645.72
591.20	44996.80
591.35	44847.00
591.51	45083.40
591.67	44868.07
591.83	44531.03
591.99	44823.60
592.15	44765.09
592.31	44746.36
592.46	44809.56
592.62	44701.89
592.78	44753.38
592.94	44847.00
593.10	44825.94
593.26	45144.25
593.41	44814.24
593.57	44598.91
593.73	44942.97
593.89	44851.69
594.05	44500.61
594.20	44505.29
594.36	45216.81
594.52	45174.68
594.68	44889.13
594.84	44751.04
594.99	45254.26
595.15	44706.57
595.31	44935.95
595.47	44720.62
595.62	45109.14
595.78	45191.06
595.94	44985.10
596.10	45195.74
596.25	45099.78
596.41	45256.60
596.57	44392.94
596.73	45434.48
596.88	44973.39
597.04	45130.21
597.20	44884.45
597.36	44910.20
597.51	45209.79
597.67	44814.24
597.83	45521.08
597.99	45223.83
598.14	45291.71
598.30	44987.44
598.46	44821.26
598.61	45109.14
598.77	44289.96
598.93	44795.51
599.09	44884.45
599.24	45258.94
599.40	45256.60
599.56	45626.40
599.71	45184.04
599.87	45085.74
600.03	45045.95
600.18	45085.74
600.34	45104.46
600.50	45043.61
600.65	44769.77
600.81	45340.86
600.97	44987.44
601.12	45209.79
601.28	45256.60
601.44	45017.86
601.59	44823.60
601.75	45008.50
601.91	44823.60
602.06	44737.00
602.22	44933.60
602.37	44994.46
602.53	44959.35
602.69	45015.52
602.84	45165.32
603.00	44975.73
603.16	44809.56
603.31	45139.57
603.47	44655.08
603.62	44662.10
603.78	45027.23
603.94	44706.57
604.09	45361.92
604.25	45036.59
604.40	45387.67
604.56	45113.83
604.71	44811.90
604.87	44741.68
605.03	44952.33
605.18	44498.26
605.34	44825.94
605.49	44589.55
605.65	45177.02
605.80	44526.35
605.96	44996.80
606.12	44842.32
606.27	45144.25
606.43	44884.45
606.58	45378.31
606.74	44580.18
606.89	44865.73
607.05	44741.68
607.20	44949.99
607.36	44720.62
607.51	45577.25
607.67	44706.57
607.82	45017.86
607.98	44863.39
608.13	44605.93
608.29	44732.32
608.44	44280.60
608.60	44334.43
608.75	44514.65
608.91	44304.00
609.06	44425.71
609.22	44605.93
609.37	44456.14
609.53	44648.06
609.68	44701.89
609.84	44526.35
609.99	44643.38
610.15	44797.85
610.30	44439.75
610.46	44278.25
610.61	44416.35
610.76	44514.65
610.92	44531.03
611.07	44804.88
611.23	44385.92
611.38	44488.90
611.54	44149.53
611.69	44376.56
611.84	44346.13
612.00	43835.89
612.15	43777.38
612.31	44275.91
612.46	44399.96
612.62	44500.61
612.77	44444.43
612.92	44203.36
613.08	43992.71
613.23	44179.95
613.39	44023.14
613.54	44149.53
613.69	43803.13
613.85	44109.74
614.00	44451.45
614.15	44800.19
614.31	43988.03
614.46	44418.69
614.62	43941.22
614.77	44095.69
614.92	43959.94
615.08	43868.66
615.23	44006.75
615.38	43896.75
615.54	43583.12
615.69	43791.42
615.84	43658.01
616.00	43962.28
616.15	43620.56
616.30	43730.57
616.46	43302.25
616.61	43302.25
616.76	43255.44
616.92	43264.80
617.07	43735.25
617.22	43374.81
617.37	43681.42
617.53	43835.89
617.68	43655.67
617.83	43550.35
617.99	43927.17
618.14	43629.93
618.29	43487.15
618.45	43283.53
618.60	43672.06
618.75	43421.62
618.90	43393.53
619.06	43620.56
619.21	43833.55
619.36	43058.84
619.51	43674.40
619.67	43433.32
619.82	43213.31
619.97	43667.37
620.12	42937.13
620.28	42852.87
620.43	43402.89
620.58	43309.27
620.73	42920.74
620.89	43192.25
621.04	43592.48
621.19	43548.01
621.34	43297.57
621.49	42941.81
621.65	42845.85
621.80	42682.01
621.95	42618.81
622.10	42871.59
622.25	42628.18
622.41	42508.81
622.56	42717.12
622.71	42951.17
622.86	42686.69
623.01	42944.15
623.16	42859.89
623.32	42555.62
623.47	42864.57
623.62	42838.83
623.77	42567.32
623.92	42717.12
624.07	42457.32
624.23	42646.90
624.38	42604.77
624.53	42642.22
624.68	42693.71
624.83	42518.17
624.98	42426.89
625.13	42574.34
625.29	42555.62
625.44	42370.72
625.59	41872.18
625.74	42029.00
625.89	42038.36
626.04	42033.68
626.19	42328.59
626.34	42536.90
626.49	42609.45
626.65	42146.03
626.80	42546.26
626.95	42026.66
627.10	42167.09
627.25	42029.00
627.40	41902.61
627.55	41727.07
627.70	41502.38
627.85	41771.54
628.00	41776.22
628.15	42445.62
628.30	42021.98
628.45	42012.62
628.60	41930.70
628.76	42089.85
628.91	42122.62
629.06	41581.96
629.21	41670.90
629.36	41443.87
629.51	41469.61
629.66	41497.70
629.81	41268.33
629.96	41661.54
630.11	41731.75
630.26	41862.82
630.41	41645.15
630.56	41441.53
630.71	41619.41
630.86	41652.17
631.01	41212.15
631.16	41483.66
631.31	41287.05
631.46	41003.85
631.61	41153.64
631.76	41544.51
631.91	41301.09
632.06	41076.40
632.21	41460.25
632.36	41242.58
632.51	41017.89
632.66	41125.55
632.81	40751.07
632.96	40907.88
633.10	40542.76
633.25	40935.97
633.40	41125.55
633.55	41118.53
633.70	40884.48
633.85	40844.69
634.00	41102.15
634.15	40938.31
634.30	40692.55
634.45	40664.47
634.60	40631.70
634.75	40463.18
634.90	40542.76
635.05	40783.83
635.19	40655.11
635.34	41172.36
635.49	40519.35
635.64	40587.23
635.79	40884.48
635.94	40741.71
636.09	40500.63
636.24	40371.90
636.39	40673.83
636.53	40156.57
636.68	40226.79
636.83	40116.78
636.98	40872.78
637.13	40278.28
637.28	40318.07
637.43	40718.30
637.57	40734.68
637.72	40208.06
637.87	40594.25
638.02	39683.78
638.17	40332.11
638.32	40184.66
638.46	39548.03
638.61	40299.34
638.76	39643.99
638.91	39873.37
639.06	40009.12
639.20	39959.97
639.35	40254.87
639.50	40069.97
639.65	39660.38
639.80	39929.54
639.94	40069.97
640.09	39475.48
640.24	39852.30
640.39	39381.85
640.54	39917.84
640.68	39922.52
640.83	39440.37
640.98	39599.52
641.13	39894.43
641.27	40184.66
641.42	39365.47
641.57	39491.86
641.72	39866.34
641.86	39405.26
642.01	39070.56
642.16	39330.36
642.31	39028.43
642.45	39529.31
642.60	39302.28
642.75	39206.31
642.90	39157.16
643.04	39250.78
643.19	39290.57
643.34	39353.77
643.48	39622.93
643.63	39597.18
643.78	38979.28
643.93	38906.73
644.07	38803.74
644.22	39026.09
644.37	38869.28
644.51	38859.91
644.66	39037.80
644.81	38965.24
644.95	39049.50
645.10	38995.67
645.25	39213.34
645.39	39431.01
645.54	39110.35
645.69	38738.21
645.83	38880.98
645.98	38689.06
646.13	39356.11
646.27	39056.52
646.42	39292.91
646.57	39089.29
646.71	38953.54
646.86	38822.47
647.00	39171.21
647.15	38726.50
647.30	38761.61
647.44	38838.85
647.59	38717.14
647.74	38195.20
647.88	38345.00
648.03	38562.67
648.17	38284.14
648.32	38768.63
648.47	38185.84
648.61	38298.19
648.76	38689.06
648.90	38440.96
649.05	38557.99
649.20	38260.74
649.34	38616.50
649.49	38569.69
649.63	38473.73
649.78	37923.70
649.92	38183.50
650.07	38939.49
650.21	38162.43
650.36	38029.02
650.51	38087.54
650.65	38677.35
650.80	38359.04
650.94	38188.18
651.09	38171.80
651.23	37797.31
651.38	37860.51
651.52	37720.07
651.67	38050.09
651.81	37862.85
651.96	38031.36
652.10	38141.37
652.25	37684.97
652.39	37406.44
652.54	37773.91
652.68	38354.36
652.83	37984.55
652.97	37769.22
653.12	37469.64
653.26	37610.07
653.41	37764.54
653.55	37645.18
653.70	37411.12
653.84	37748.16
653.99	37944.76
654.13	37914.34
654.27	37893.27
654.42	37680.28
654.56	37530.49
654.71	37481.34
654.85	37352.61
655.00	37347.93
655.14	37277.71
655.29	36767.48
655.43	37242.60
655.57	36748.75
655.72	36840.03
655.86	37139.62
656.01	37205.16
656.15	36741.73
656.30	37195.79
656.44	36800.24
656.58	36849.39
656.73	36875.14
656.87	36762.79
657.01	36477.25
657.16	36542.78
657.30	36535.76
657.45	36510.02
657.59	36910.25
657.73	36900.89
657.88	36573.21
658.02	36243.20
658.16	36542.78
658.31	36734.71
658.45	36978.12
658.60	36638.75
658.74	36753.43
658.88	36818.97
659.03	36477.25
659.17	36484.27
659.31	36598.96
659.46	35784.45
659.60	36343.84
659.74	35730.62
659.89	35866.37
660.03	36114.47
660.17	36144.89
660.32	36313.41
660.46	36360.22
660.60	36278.30
660.74	36231.49
660.89	35992.76
661.03	35510.61
661.17	35463.80
661.32	35534.01
661.46	35255.49
661.60	35555.08
661.74	36065.31
661.89	35566.78
662.03	35653.38
662.17	35477.84
662.31	35524.65
662.46	35662.74
662.60	35707.21
662.74	35260.17
662.88	35512.95
663.03	35358.47
663.17	34911.43
663.31	34876.32
663.45	35255.49
663.60	34878.66
663.74	34913.77
663.88	35124.42
664.02	34859.94
664.17	35260.17
664.31	34525.24
664.45	34429.28
664.59	35007.39
664.73	34948.88
664.88	34848.24
665.02	34347.36
665.16	34820.15
665.30	34621.20
665.44	34480.77
665.59	34366.09
665.73	34213.95
665.87	34206.93
666.01	34129.69
666.15	34300.55
666.29	34089.90
666.44	34408.22
666.58	34298.21
666.72	33797.34
666.86	34223.31
667.00	34515.88
667.14	34087.56
667.28	33806.70
667.43	33677.97
667.57	33853.51
667.71	33780.95
667.85	33776.27
667.99	33724.78
668.13	33434.55
668.27	33237.95
668.41	33394.76
668.56	33376.04
668.70	33207.52
668.84	33331.57
668.98	33001.55
669.12	33603.07
669.26	32954.74
669.40	33017.94
669.54	32814.31
669.68	33113.90
669.82	32919.63
669.96	32779.20
670.10	32643.45
670.25	32945.38
670.39	32896.23
670.53	32744.09
670.67	32627.07
670.81	32552.17
670.95	33076.45
671.09	32620.05
671.23	32416.42
671.37	32477.27
671.51	32442.17
671.65	32048.96
671.79	32053.64
671.93	31810.22
672.07	32196.41
672.21	32662.18
672.35	31824.26
672.49	31971.72
672.63	31763.41
672.77	31484.89
672.91	31833.63
673.05	31519.99
673.19	31737.66
673.33	31267.22
673.47	30913.80
673.61	31274.24
673.75	31143.17
673.89	31189.98
674.03	31161.89
674.17	30906.77
674.31	31122.10
674.45	30616.55
674.59	31201.68
674.73	31037.84
674.87	30824.86
675.01	30827.20
675.15	31096.36
675.29	30827.20
675.43	30892.73
675.56	30504.20
675.70	30228.02
675.84	30501.86
675.98	29472.03
676.12	29675.65
676.26	29612.46
676.40	29968.22
676.54	29977.58
676.68	29645.23
676.82	29303.51
676.96	29575.01
677.10	29142.01
677.23	29411.17
677.37	29455.64
677.51	29312.87
677.65	29083.50
677.79	28774.55
677.93	28994.56
678.07	28849.44
678.21	28662.20
678.34	28879.87
678.48	28414.10
678.62	28596.67
678.76	28290.06
678.90	28339.21
679.04	28074.73
679.18	28009.19
679.31	27838.33
679.45	27693.22
679.59	27833.65
679.73	27627.68
679.87	27847.69
680.00	27737.69
680.14	27522.36
680.28	27545.76
680.42	27300.01
680.56	27718.96
680.70	27267.24
680.83	27239.15
680.97	26965.31
681.11	27253.20
681.25	26857.65
681.39	26855.31
681.52	26892.76
681.66	27040.21
681.80	26785.09
681.94	26710.19
682.07	26637.64
682.21	26312.30
682.35	26419.97
682.49	26155.49
682.62	26206.98
682.76	25933.14
682.90	25610.14
683.04	25961.22
683.17	26085.27
683.31	25914.41
683.45	25975.27
683.59	25603.12
683.72	25385.45
683.86	25205.23
684.00	25139.69
684.13	25371.41
684.27	25568.01
684.41	25095.22
684.55	25156.08
684.68	24645.84
684.82	24915.00
684.96	25191.19
685.09	24727.76
685.23	24622.44
685.37	24627.12
685.50	24388.38
685.64	24299.44
685.78	23800.91
685.91	23864.10
686.05	23810.27
686.19	23644.09
686.32	23711.97
686.46	23440.47
686.60	23419.40
686.73	23726.01
686.87	23428.76
687.01	23023.85
687.14	23058.96
687.28	23075.34
687.42	23044.91
687.55	22995.76
687.69	22995.76
687.82	23133.86
687.96	22923.21
688.10	22869.37
688.23	22637.66
688.37	22448.08
688.50	22321.69
688.64	22174.24
688.78	22197.64
688.91	21961.25
689.05	22359.14
689.18	22111.04
689.32	21755.28
689.46	22075.93
689.59	22218.71
689.73	21905.07
689.86	21797.41
690.00	21757.62
690.13	22075.93
690.27	21624.21
690.41	21432.29
690.54	21231.00
690.68	20975.88
690.81	21139.72
690.95	21064.82
691.08	20748.85
691.22	20959.50
691.35	20861.19
691.49	20798.00
691.62	20929.07
691.76	20723.10
691.89	20470.33
692.03	20276.06
692.16	20435.22
692.30	20212.87
692.43	20411.81
692.57	20004.56
692.70	19693.27
692.84	19733.06
692.97	19838.38
693.11	19524.75
693.24	19716.67
693.38	19669.86
693.51	19531.77
693.65	19445.17
693.78	19552.84
693.92	19389.00
694.05	19321.12
694.19	19421.77
694.32	18904.51
694.45	19290.70
694.59	18897.49
694.72	18586.19
694.86	18745.35
694.99	18956.00
695.13	18876.42
695.26	18445.76
695.39	18387.25
695.53	18560.45
695.66	18405.97
695.80	18317.03
695.93	18284.26
696.07	17818.50
696.20	18005.74
696.33	18059.57
696.47	17762.33
696.60	17891.06
696.73	17647.64
696.87	17600.83
697.00	17621.89
697.14	17724.88
697.27	17401.88
697.40	17771.69
697.54	17628.92
697.67	17245.07
697.80	17315.28
697.94	17078.89
698.07	17418.27
698.21	16966.54
698.34	16772.28
698.47	17083.57
698.61	16760.58
698.74	16580.36
698.87	16732.49
699.01	16648.23
699.14	16507.80
699.27	16475.03
699.40	16269.06
699.54	15784.57
699.67	15967.13
699.80	16238.64
699.94	16100.55
700.07	15831.38
700.20	15620.74
700.34	15667.55
700.47	15520.09
700.60	15798.62
700.73	15854.79
700.87	15681.59
701.00	15775.21
701.13	15398.38
701.26	15583.29
701.40	15257.95
701.53	15241.57
701.66	14974.75
701.79	15063.69
701.93	14967.73
702.06	15051.99
702.19	14956.02
702.32	14717.29
702.46	14649.41
702.59	14651.75
702.72	14766.44
702.85	14490.26
702.99	14801.55
703.12	14569.83
703.25	14593.24
703.38	14310.04
703.51	14190.67
703.65	14106.41
703.78	14335.78
703.91	14148.54
704.04	14176.62
704.17	13949.59
704.31	14286.63
704.44	13841.93
704.57	13771.71
704.70	13600.85
704.83	13635.96
704.96	13664.05
705.10	13965.98
705.23	13687.45
>>>>>End Processed Spectral Data<<<<<
