SpectraSuite Data File
++++++++++++++++++++++++++++++++++++
Date: Fri Oct 25 10:44:11 EDT 2013
User: price-jones
Dark Spectrum Present: No
Reference Spectrum Present: No
Number of Sampled Component Spectra: 1
Spectrometers: USB2+H05261
Integration Time (usec): 100000 (USB2+H05261)
Spectra Averaged: 1 (USB2+H05261)
Boxcar Smoothing: 0 (USB2+H05261)
Correct for Electrical Dark: No (USB2+H05261)
Strobe/Lamp Enabled: No (USB2+H05261)
Correct for Detector Non-linearity: No (USB2+H05261)
Correct for Stray Light: No (USB2+H05261)
Number of Pixels in Processed Spectrum: 2048
>>>>>Begin Processed Spectral Data<<<<<
365.73	156.82
365.92	156.82
366.12	156.82
366.32	37.45
366.52	9.36
366.72	0.00
366.91	0.00
367.11	2.34
367.31	37.45
367.51	14.04
367.70	18.72
367.90	16.38
368.10	0.00
368.30	74.90
368.49	0.00
368.69	79.58
368.89	30.43
369.09	28.09
369.28	107.66
369.48	42.13
369.68	114.69
369.87	100.64
370.07	110.01
370.27	215.33
370.47	245.76
370.66	421.30
370.86	395.55
371.06	514.92
371.25	468.11
371.45	461.09
371.65	437.68
371.84	482.15
372.04	444.70
372.24	538.32
372.44	521.94
372.63	472.79
372.83	444.70
373.03	454.06
373.22	526.62
373.42	465.77
373.62	461.09
373.81	526.62
374.01	557.05
374.21	521.94
374.40	500.87
374.60	601.52
374.79	561.73
374.99	526.62
375.19	655.35
375.38	580.45
375.58	538.32
375.78	531.30
375.97	543.00
376.17	578.11
376.37	547.69
376.56	676.41
376.76	610.88
376.95	587.47
377.15	599.18
377.35	585.13
377.54	638.97
377.74	571.09
377.93	697.48
378.13	606.20
378.33	744.29
378.52	695.14
378.72	653.01
378.91	638.97
379.11	732.59
379.31	627.26
379.50	671.73
379.70	683.44
379.89	699.82
380.09	657.69
380.28	636.63
380.48	734.93
380.68	685.78
380.87	716.20
381.07	662.37
381.26	746.63
381.46	739.61
381.65	716.20
381.85	697.48
382.04	587.47
382.24	674.07
382.43	660.03
382.63	671.73
382.83	758.33
383.02	727.91
383.22	786.42
383.41	732.59
383.61	706.84
383.80	767.70
384.00	779.40
384.19	734.93
384.39	802.80
384.58	809.83
384.78	826.21
384.97	741.95
385.17	826.21
385.36	795.78
385.56	802.80
385.75	779.40
385.95	774.72
386.14	837.91
386.34	802.80
386.53	884.72
386.72	788.76
386.92	887.06
387.11	896.43
387.31	873.02
387.50	802.80
387.70	809.83
387.89	861.32
388.09	908.13
388.28	894.08
388.48	868.34
388.67	882.38
388.86	943.24
389.06	884.72
389.25	940.90
389.45	961.96
389.64	861.32
389.84	1039.20
390.03	1001.75
390.22	1015.79
390.42	954.94
390.61	973.66
390.81	997.07
391.00	1013.45
391.19	976.00
391.39	1107.07
391.58	1086.01
391.78	1062.60
391.97	1046.22
392.16	1074.31
392.36	1064.94
392.55	1081.33
392.75	957.28
392.94	1025.15
393.13	1064.94
393.33	1048.56
393.52	1036.86
393.71	1055.58
393.91	1142.18
394.10	1118.78
394.29	1163.25
394.49	1125.80
394.68	1156.22
394.88	1254.53
395.07	1324.74
395.26	1212.40
395.46	1266.23
395.65	1259.21
395.84	1219.42
396.04	1184.31
396.23	1170.27
396.42	1135.16
396.62	1235.80
396.81	1177.29
397.00	1186.65
397.19	1308.36
397.39	1296.66
397.58	1371.55
397.77	1308.36
397.97	1420.71
398.16	1373.89
398.35	1507.30
398.55	1385.60
398.74	1446.45
398.93	1544.75
399.12	1394.96
399.32	1549.43
399.51	1540.07
399.70	1577.52
399.90	1535.39
400.09	1619.65
400.28	1612.63
400.47	1509.65
400.67	1703.91
400.86	1617.31
401.05	1600.93
401.24	1682.85
401.44	1659.44
401.63	1746.04
401.82	1678.16
402.01	1701.57
402.21	1764.76
402.40	1788.17
402.59	1722.63
402.78	1823.28
402.97	1736.68
403.17	1746.04
403.36	1750.72
403.55	1734.34
403.74	1916.90
403.93	1804.55
404.13	1809.23
404.32	1907.54
404.51	1839.66
404.70	1863.07
404.89	1921.58
405.09	1902.86
405.28	1881.79
405.47	1919.24
405.66	1912.22
405.85	2015.20
406.05	1966.05
406.24	2017.54
406.43	2097.12
406.62	2062.01
406.81	2076.06
407.00	2036.27
407.20	1984.77
407.39	2101.80
407.58	2069.03
407.77	2195.42
407.96	2239.89
408.15	2134.57
408.34	2174.36
408.54	2289.04
408.73	2256.28
408.92	2272.66
409.11	2270.32
409.30	2165.00
409.49	2193.08
409.68	2277.34
409.87	2279.68
410.07	2272.66
410.26	2326.49
410.45	2389.69
410.64	2415.43
410.83	2424.80
411.02	2513.74
411.21	2518.42
411.40	2581.61
411.59	2506.71
411.78	2495.01
411.98	2551.18
412.17	2642.46
412.36	2609.70
412.55	2640.12
412.74	2740.77
412.93	2619.06
413.12	2733.75
413.31	2780.56
413.50	2832.05
413.69	2712.68
413.88	2846.09
414.07	2857.79
414.26	3033.33
414.45	2984.18
414.64	3007.59
414.83	3033.33
415.02	2986.52
415.22	3042.70
415.41	3087.17
415.60	3063.76
415.79	3225.26
415.98	3253.34
416.17	3206.53
416.36	3187.81
416.55	3234.62
416.74	3222.92
416.93	3335.26
417.12	3281.43
417.31	3346.97
417.50	3276.75
417.69	3391.44
417.88	3412.50
418.07	3503.78
418.26	3375.05
418.45	3515.48
418.64	3588.04
418.83	3637.19
419.02	3583.36
419.21	3475.70
419.39	3627.83
419.58	3569.32
419.77	3634.85
419.96	3648.90
420.15	3742.52
420.34	3620.81
420.53	3763.58
420.72	3796.35
420.91	3822.09
421.10	3885.29
421.29	3817.41
421.48	3794.01
421.67	3857.20
421.86	3815.07
422.05	3716.77
422.24	3772.94
422.43	3808.05
422.61	3847.84
422.80	3817.41
422.99	3936.78
423.18	3875.93
423.37	3997.64
423.56	3964.87
423.75	3789.33
423.94	3948.48
424.13	3634.85
424.32	3707.41
424.50	3803.37
424.69	4102.96
424.88	3999.98
425.07	3885.29
425.26	3810.39
425.45	3796.35
425.64	3833.80
425.83	3983.59
426.01	3920.40
426.20	3960.19
426.39	3904.01
426.58	4021.04
426.77	3896.99
426.96	3978.91
427.15	3922.74
427.33	4018.70
427.52	3988.27
427.71	4042.11
427.90	4079.55
428.09	4109.98
428.28	4168.49
428.46	4079.55
428.65	4175.52
428.84	4234.03
429.03	4133.39
429.22	4154.45
429.40	4046.79
429.59	4051.47
429.78	3988.27
429.97	3950.82
430.16	4189.56
430.34	4091.26
430.53	4259.78
430.72	4046.79
430.91	4166.15
431.10	4337.01
431.28	4477.44
431.47	4559.36
431.66	4610.86
431.85	4503.19
432.03	4479.79
432.22	4652.98
432.41	4606.17
432.60	4655.33
432.79	4613.20
432.97	4634.26
433.16	4737.24
433.35	4566.39
433.54	4505.53
433.72	4711.50
433.91	4676.39
434.10	4812.14
434.28	4791.08
434.47	4938.53
434.66	4985.34
434.85	4819.16
435.03	4931.51
435.22	4952.57
435.41	5067.26
435.59	5085.98
435.78	5245.14
435.97	5069.60
436.16	5116.41
436.34	5060.24
436.53	5149.18
436.72	5181.95
436.90	4903.42
437.09	5060.24
437.28	5071.94
437.46	5181.95
437.65	5135.14
437.84	5221.74
438.02	5088.32
438.21	5184.29
438.40	5198.33
438.58	5420.68
438.77	5416.00
438.96	5383.23
439.14	5528.35
439.33	5591.54
439.52	5701.54
439.70	5643.03
439.89	5661.76
440.08	5610.26
440.26	5806.87
440.45	5731.97
440.63	5830.27
440.82	5916.87
441.01	5902.83
441.19	5771.76
441.38	5982.41
441.57	6029.22
441.75	6157.95
441.94	6207.10
442.12	6267.95
442.31	6441.15
442.50	6274.98
442.68	6324.13
442.87	6272.64
443.05	6218.80
443.24	6427.11
443.43	6466.90
443.61	6459.88
443.80	6504.35
443.98	6244.55
444.17	6286.68
444.35	6438.81
444.54	6579.25
444.73	6494.99
444.91	6333.49
445.10	6342.85
445.28	6417.75
445.47	6225.82
445.65	6459.88
445.84	6569.88
446.02	6593.29
446.21	6612.01
446.39	6410.73
446.58	6661.16
446.77	6612.01
446.95	6462.22
447.14	6612.01
447.32	6707.98
447.51	6583.93
447.69	6619.04
447.88	6576.91
448.06	6506.69
448.25	6759.47
448.43	6614.35
448.62	6672.87
448.80	6656.48
448.99	6766.49
449.17	6740.74
449.36	6750.10
449.54	6960.75
449.73	7105.87
449.91	7112.89
450.10	7110.55
450.28	7164.38
450.46	7190.13
450.65	7185.44
450.83	7281.41
451.02	7115.23
451.20	7124.59
451.39	7236.94
451.57	7269.70
451.76	7049.69
451.94	7227.57
452.13	7208.85
452.31	7164.38
452.49	7087.14
452.68	7131.61
452.86	7037.99
453.05	7281.41
453.23	7363.33
453.42	7368.01
453.60	7297.79
453.78	7468.65
453.97	7435.88
454.15	7337.58
454.34	7265.02
454.52	7461.63
454.70	7335.24
454.89	7576.31
455.07	7412.48
455.26	7672.28
455.44	7815.05
455.62	7742.49
455.81	7691.00
455.99	7770.58
456.17	7784.62
456.36	7850.16
456.54	8126.34
456.73	8173.15
456.91	8051.44
457.09	7936.76
457.28	8311.24
457.46	8070.17
457.64	8119.32
457.83	7948.46
458.01	8032.72
458.19	8067.83
458.38	8187.19
458.56	8198.90
458.74	8250.39
458.93	8236.35
459.11	8376.78
459.29	8194.22
459.48	8304.22
459.66	8236.35
459.84	8472.74
460.03	8379.12
460.21	8594.45
460.39	8468.06
460.57	8411.89
460.76	8421.25
460.94	8816.80
461.12	8557.00
461.31	8671.68
461.49	8718.50
461.67	8573.38
461.85	8896.38
462.04	8760.63
462.22	8931.48
462.40	8685.73
462.59	8655.30
462.77	8861.27
462.95	8940.85
463.13	8959.57
463.32	8917.44
463.50	8964.25
463.68	8912.76
463.86	8861.27
464.05	8819.14
464.23	8720.84
464.41	9025.11
464.59	8943.19
464.78	9132.77
464.96	9116.39
465.14	9036.81
465.32	9060.21
465.50	9123.41
465.69	9270.86
465.87	9231.07
466.05	9081.28
466.23	9261.50
466.41	9160.86
466.60	9334.06
466.78	9261.50
466.96	9214.69
467.14	9322.35
467.32	9315.33
467.51	9308.31
467.69	9207.67
467.87	9193.62
468.05	9263.84
468.23	9406.61
468.41	9406.61
468.60	9488.53
468.78	9720.24
468.96	9547.05
469.14	9635.99
469.32	9804.50
469.50	9530.66
469.69	9614.92
469.87	9858.34
470.05	9703.86
470.23	9584.49
470.41	9755.35
470.59	9701.52
470.77	9820.89
470.95	10118.14
471.14	10071.33
471.32	9785.78
471.50	10115.80
471.68	10186.01
471.86	10188.35
472.04	10406.02
472.22	10441.13
472.40	10094.73
472.58	10284.31
472.77	10499.64
472.95	10445.81
473.13	10705.61
473.31	10394.32
473.49	10621.35
473.67	10689.23
473.85	10670.50
474.03	10799.23
474.21	10726.68
474.39	10949.03
474.57	11117.54
474.75	11162.01
474.93	11016.90
475.12	11201.80
475.30	11164.36
475.48	11339.90
475.66	11290.74
475.84	11276.70
476.02	11398.41
476.20	11283.72
476.38	11400.75
476.56	11805.66
476.74	11709.70
476.92	11679.27
477.10	11763.53
477.28	11915.67
477.46	12058.44
477.64	12367.39
477.82	12257.39
478.00	12500.80
478.18	12475.06
478.36	12580.38
478.54	12264.41
478.72	12638.89
478.90	13001.68
479.08	12961.89
479.26	13053.17
479.44	13153.81
479.62	13104.66
479.80	13179.56
479.98	13500.21
480.16	13467.44
480.34	13586.81
480.52	13916.83
480.70	13797.46
480.88	13804.48
481.06	13731.92
481.24	13874.70
481.41	14207.05
481.59	14368.55
481.77	14396.64
481.95	14216.41
482.13	14588.56
482.31	14569.83
482.49	14813.25
482.67	14979.43
482.85	15056.67
483.03	15051.99
483.21	15208.80
483.39	15122.20
483.57	15089.43
483.74	15569.24
483.92	15639.46
484.10	15506.05
484.28	15775.21
484.46	16011.60
484.64	16119.27
484.82	16074.80
485.00	16180.12
485.18	16091.18
485.35	16350.98
485.53	16135.65
485.71	16269.06
485.89	16411.84
486.07	16170.76
486.25	16402.47
486.43	16844.84
486.61	17160.81
486.78	17123.36
486.96	17132.72
487.14	17490.82
487.32	17895.74
487.50	17757.64
487.68	18038.51
487.85	18331.08
488.03	18485.55
488.21	18324.05
488.39	18572.15
488.57	18698.54
488.75	18506.62
488.92	19190.05
489.10	19164.31
489.28	19353.89
489.46	19754.12
489.64	19836.04
489.81	20247.97
489.99	20067.75
490.17	20304.15
490.35	20250.32
490.53	20362.66
490.70	20491.39
490.88	20505.43
491.06	20908.01
491.24	20573.31
491.41	20872.90
491.59	20828.43
491.77	21036.74
491.95	21125.68
492.13	21081.21
492.30	21776.34
492.48	21642.93
492.66	21682.72
492.84	21666.34
493.01	22176.58
493.19	21694.43
493.37	22195.30
493.54	22097.00
493.72	22590.85
493.90	22452.76
494.08	22855.33
494.25	22972.36
494.43	23105.77
494.61	23218.11
494.79	23351.52
494.96	23239.18
495.14	23772.82
495.32	23885.17
495.49	23583.24
495.67	23667.50
495.85	23791.55
496.02	24142.63
496.20	24254.97
496.38	24151.99
496.55	24519.45
496.73	25170.12
496.91	24900.96
497.09	24812.02
497.26	25289.49
497.44	24945.43
497.62	24781.59
497.79	25090.54
497.97	25280.13
498.14	25553.97
498.32	25621.84
498.50	25696.74
498.67	25888.67
498.85	25654.61
499.03	25792.70
499.20	25898.03
499.38	26405.92
499.56	26141.44
499.73	26569.76
499.91	26719.56
500.08	26616.57
500.26	26244.43
500.44	26689.13
500.61	26834.24
500.79	26419.97
500.97	27023.83
501.14	27082.34
501.32	27206.39
501.49	27124.47
501.67	27246.18
501.84	27447.46
502.02	27255.54
502.20	27229.79
502.37	27704.92
502.55	27922.59
502.72	27943.66
502.90	27873.44
503.07	27889.82
503.25	28105.15
503.43	27960.04
503.60	27981.10
503.78	28004.51
503.95	27950.68
504.13	28367.29
504.30	28549.85
504.48	28283.03
504.65	28512.41
504.83	28826.04
505.01	28844.76
505.18	29130.31
505.36	29282.44
505.53	29436.92
505.71	29649.91
505.88	29757.57
506.06	29497.77
506.23	29802.04
506.41	29605.44
506.58	30003.33
506.76	30164.82
506.93	29783.32
507.11	30047.80
507.28	29741.19
507.46	29839.49
507.63	29921.41
507.81	30656.34
507.98	30551.01
508.16	30525.27
508.33	30387.18
508.50	30565.06
508.68	30864.64
508.85	31166.57
509.03	30904.43
509.20	30962.95
509.38	31002.74
509.55	30923.16
509.73	30969.97
509.90	31417.01
510.08	31234.45
510.25	31566.81
510.42	31445.10
510.60	31716.60
510.77	32034.91
510.95	32098.11
511.12	31669.79
511.30	32051.30
511.47	32250.24
511.64	32240.88
511.82	32765.16
511.99	32098.11
512.17	32318.12
512.34	32367.27
512.51	32114.49
512.69	32793.25
512.86	32936.02
513.04	32919.63
513.21	33062.41
513.38	32608.34
513.56	32858.78
513.73	32662.18
513.90	33158.37
514.08	33333.91
514.25	32744.09
514.43	32924.32
514.60	33394.76
514.77	33048.36
514.95	33591.37
515.12	33879.25
515.29	33469.66
515.47	34258.42
515.64	34274.80
515.81	33619.46
515.99	33715.42
516.16	33886.28
516.33	33785.63
516.51	33507.11
516.68	33263.69
516.85	33308.16
517.03	33680.31
517.20	33795.00
517.37	33666.27
517.54	34284.17
517.72	33972.88
517.89	34059.48
518.06	33930.75
518.24	34249.06
518.41	33982.24
518.58	34389.49
518.75	34249.06
518.93	35246.13
519.10	34799.08
519.27	34944.20
519.45	34995.69
519.62	34974.63
519.79	35108.04
519.96	35056.54
520.14	35505.93
520.31	35206.34
520.48	35187.61
520.65	35152.51
520.83	35693.17
521.00	35931.90
521.17	35861.69
521.34	35716.58
521.52	36065.31
521.69	36065.31
521.86	36465.55
522.03	36280.64
522.20	36730.03
522.38	36065.31
522.55	36147.23
522.72	36329.80
522.89	36392.99
523.07	36905.57
523.24	36631.72
523.41	36446.82
523.58	36521.72
523.75	37483.68
523.92	37399.42
524.10	37048.34
524.27	37223.88
524.44	37338.57
524.61	36861.10
524.78	37558.58
524.96	37832.42
525.13	37397.08
525.30	37380.70
525.47	37848.80
525.64	37493.04
525.81	37350.27
525.98	37581.98
526.16	37284.73
526.33	37249.63
526.50	37371.33
526.67	37146.64
526.84	37460.27
527.01	36940.68
527.18	37457.93
527.36	37996.26
527.53	38361.38
527.70	38380.10
527.87	38057.11
528.04	37979.87
528.21	38501.81
528.38	38459.68
528.55	38799.06
528.72	38721.82
528.89	39154.82
529.07	38693.74
529.24	38532.24
529.41	38780.34
529.58	38873.96
529.75	38822.47
529.92	38866.94
530.09	39037.80
530.26	39007.37
530.43	38885.66
530.60	38857.57
530.77	39311.64
530.94	39683.78
531.11	39210.99
531.28	39454.41
531.46	39665.06
531.63	39690.80
531.80	39679.10
531.97	39412.28
532.14	39370.15
532.31	39468.45
532.48	39459.09
532.65	39667.40
532.82	39449.73
532.99	39826.56
533.16	40023.16
533.33	40100.40
533.50	39983.37
533.67	39805.49
533.84	39805.49
534.01	40187.00
534.18	40058.27
534.35	40629.36
534.52	40456.16
534.69	40343.81
534.86	40533.40
535.03	40402.33
535.20	41450.89
535.37	41160.66
535.54	40814.26
535.71	40687.87
535.88	41074.06
536.05	40715.96
536.22	40971.08
536.38	40872.78
536.55	40692.55
536.72	40744.05
536.89	40624.68
537.06	40760.43
537.23	41085.76
537.40	40823.62
537.57	41186.41
537.74	40840.01
537.91	41053.00
538.08	41509.40
538.25	40818.94
538.42	41230.88
538.59	42010.28
538.75	40659.79
538.92	41144.28
539.09	40938.31
539.26	41170.02
539.43	41144.28
539.60	41308.11
539.77	41455.57
539.94	41242.58
540.11	41322.16
540.28	41200.45
540.44	41640.47
540.61	41481.31
540.78	41043.63
540.95	41354.93
541.12	41525.78
541.29	41598.34
541.46	41603.02
541.62	41670.90
541.79	42398.80
541.96	41743.45
542.13	41691.96
542.30	41422.80
542.47	41933.04
542.63	42071.13
542.80	42195.18
542.97	42579.03
543.14	42576.69
543.31	42483.06
543.48	42670.31
543.64	43288.21
543.81	43105.65
543.98	42602.43
544.15	42735.84
544.32	42553.28
544.48	42824.78
544.65	43187.56
544.82	42918.40
544.99	42878.61
545.16	43136.07
545.32	43129.05
545.49	43342.04
545.66	42930.11
545.83	43438.00
546.00	43391.19
546.16	42703.07
546.33	42871.59
546.50	43374.81
546.67	43100.97
546.83	43112.67
547.00	43281.19
547.17	42930.11
547.34	43091.60
547.50	43494.18
547.67	43604.18
547.84	43311.61
548.00	43419.28
548.17	43920.15
548.34	43945.90
548.51	44388.26
548.67	43873.34
548.84	43674.40
549.01	43704.82
549.18	43833.55
549.34	43749.29
549.51	43842.92
549.68	43817.17
549.84	43938.88
550.01	43796.10
550.18	43793.76
550.34	43751.63
550.51	44296.98
550.68	43903.77
550.84	43323.32
551.01	44217.40
551.18	44481.88
551.34	44390.60
551.51	44210.38
551.68	44402.30
551.84	44662.10
552.01	44694.87
552.18	44402.30
552.34	44088.67
552.51	43676.74
552.68	44149.53
552.84	44224.42
553.01	44898.50
553.18	44594.23
553.34	44678.49
553.51	44123.78
553.67	44818.92
553.84	44622.31
554.01	44481.88
554.17	44989.78
554.34	44659.76
554.51	45020.20
554.67	45120.85
554.84	44484.22
555.00	44788.49
555.17	44580.18
555.33	44809.56
555.50	44706.57
555.67	44575.50
555.83	44570.82
556.00	44933.60
556.16	44732.32
556.33	44788.49
556.50	44781.47
556.66	44893.82
556.83	44788.49
556.99	45242.56
557.16	45177.02
557.32	44910.20
557.49	45413.41
557.65	44804.88
557.82	44832.96
557.98	45305.75
558.15	45392.35
558.32	44711.25
558.48	45612.36
558.65	44973.39
558.81	44652.74
558.98	45043.61
559.14	45106.80
559.31	44605.93
559.47	45109.14
559.64	45537.46
559.80	45343.20
559.97	45205.11
560.13	45024.89
560.30	44877.43
560.46	45635.77
560.63	45464.91
560.79	45425.12
560.96	45560.87
561.12	45588.95
561.29	45207.45
561.45	45500.01
561.61	45572.57
561.78	45455.54
561.94	45720.02
562.11	45289.37
562.27	45617.04
562.44	45635.77
562.60	45748.11
562.77	45755.13
562.93	45425.12
563.10	45799.60
563.26	45174.68
563.42	45628.74
563.59	45546.82
563.75	45574.91
563.92	45497.67
564.08	45883.86
564.24	45724.71
564.41	45418.10
564.57	46043.02
564.74	45752.79
564.90	46054.72
565.07	45591.30
565.23	45593.64
565.39	45574.91
565.56	45820.67
565.72	45448.52
565.88	45521.08
566.05	45610.02
566.21	45787.90
566.38	45539.80
566.54	46078.13
566.70	46064.08
566.87	45874.50
567.03	45659.17
567.19	46241.96
567.36	46373.03
567.52	45511.72
567.68	45900.25
567.85	45457.88
568.01	46012.59
568.17	45514.06
568.34	46131.96
568.50	46024.29
568.66	45544.48
568.83	45572.57
568.99	45659.17
569.15	45743.43
569.32	45588.95
569.48	45928.33
569.64	45815.99
569.81	46134.30
569.97	45642.79
570.13	45895.56
570.30	45656.83
570.46	45825.35
570.62	45935.35
570.78	46120.26
570.95	45254.26
571.11	45720.02
571.27	45862.80
571.43	45874.50
571.60	45933.01
571.76	45925.99
571.92	45811.31
572.09	45382.99
572.25	45570.23
572.41	45982.16
572.57	45865.14
572.74	46492.40
572.90	45670.87
573.06	46190.47
573.22	46291.12
573.38	45942.38
573.55	45581.93
573.71	46312.18
573.87	46000.89
574.03	46078.13
574.20	46211.54
574.36	46099.19
574.52	46443.25
574.68	46040.68
574.84	46241.96
575.01	46096.85
575.17	46197.49
575.33	45738.75
575.49	45881.52
575.65	46277.07
575.82	46415.16
575.98	45940.04
576.14	46010.25
576.30	46127.28
576.46	45979.82
576.62	46515.81
576.79	46061.74
576.95	45717.68
577.11	46454.95
577.27	46110.89
577.43	45916.63
577.59	46319.20
577.75	45933.01
577.92	45656.83
578.08	45993.87
578.24	45694.28
578.40	46068.76
578.56	45933.01
578.72	46124.94
578.88	46220.90
579.04	46731.14
579.21	45876.84
579.37	46089.83
579.53	46747.52
579.69	45647.47
579.85	46080.47
580.01	46204.52
580.17	46150.68
580.33	46440.91
580.49	46232.60
580.65	46230.26
580.82	46321.54
580.98	45984.51
581.14	45909.61
581.30	46906.68
581.46	45982.16
581.62	46382.40
581.78	46714.75
581.94	46464.32
582.10	45837.05
582.26	46366.01
582.42	46436.23
582.58	46361.33
582.74	46391.76
582.90	46363.67
583.06	46433.89
583.22	46038.34
583.38	46431.55
583.54	46190.47
583.70	46293.46
583.86	46639.86
584.02	45855.78
584.18	46185.79
584.34	46543.89
584.50	46380.06
584.66	46298.14
584.82	45799.60
584.98	46263.03
585.14	46752.20
585.30	46213.88
585.46	46363.67
585.62	46078.13
585.78	45991.53
585.94	45755.13
586.10	46033.66
586.26	45652.15
586.42	45984.51
586.58	46480.70
586.74	46550.91
586.90	46223.24
587.06	45911.95
587.22	46513.47
587.38	45895.56
587.54	46370.69
587.70	46344.95
587.86	46401.12
588.02	46370.69
588.18	46452.61
588.34	46241.96
588.49	45879.18
588.65	45684.92
588.81	45745.77
588.97	45925.99
589.13	45708.32
589.29	45909.61
589.45	45977.48
589.61	45954.08
589.77	46204.52
589.93	46267.71
590.08	46536.87
590.24	46396.44
590.40	46937.10
590.56	46876.25
590.72	46288.77
590.88	46110.89
591.04	46429.21
591.20	46663.26
591.35	46796.67
591.51	46738.16
591.67	46562.62
591.83	46394.10
591.99	46452.61
592.15	46307.50
592.31	46639.86
592.46	46384.74
592.62	46267.71
592.78	46508.79
592.94	46131.96
593.10	46302.82
593.26	46232.60
593.41	45968.12
593.57	46476.02
593.73	46314.52
593.89	46321.54
594.05	46649.22
594.20	46241.96
594.36	46894.97
594.52	46075.79
594.68	46127.28
594.84	46248.99
594.99	46557.94
595.15	46871.57
595.31	46447.93
595.47	46309.84
595.62	46497.08
595.78	46314.52
595.94	46532.19
596.10	46639.86
596.25	46791.99
596.41	46660.92
596.57	46698.37
596.73	46279.41
596.88	46454.95
597.04	46326.22
597.20	46494.74
597.36	46232.60
597.51	46607.09
597.67	46340.27
597.83	46373.03
597.99	46499.42
598.14	46586.02
598.30	46358.99
598.46	46138.98
598.61	46263.03
598.77	46504.10
598.93	46321.54
599.09	46763.90
599.24	46843.48
599.40	46438.57
599.56	46543.89
599.71	46515.81
599.87	46518.15
600.03	46642.20
600.18	46600.07
600.34	46564.96
600.50	46630.49
600.65	46223.24
600.81	46665.60
600.97	46738.16
601.12	46480.70
601.28	46295.80
601.44	46408.14
601.59	46253.67
601.75	46466.66
601.91	46150.68
602.06	46003.23
602.22	46293.46
602.37	46005.57
602.53	46270.05
602.69	46628.15
602.84	46387.08
603.00	46408.14
603.16	46197.49
603.31	46827.10
603.47	46806.03
603.62	46593.04
603.78	46541.55
603.94	46375.37
604.09	46611.77
604.25	46869.23
604.40	46220.90
604.56	46527.51
604.71	46443.25
604.87	46064.08
605.03	46555.60
605.18	45972.80
605.34	46536.87
605.49	45925.99
605.65	46539.21
605.80	46096.85
605.96	46398.78
606.12	46777.95
606.27	46501.76
606.43	45390.01
606.58	46579.00
606.74	46143.66
606.89	46127.28
607.05	46146.00
607.20	46656.24
607.36	46476.02
607.51	46426.87
607.67	46141.32
607.82	45972.80
607.98	46246.65
608.13	45469.59
608.29	45883.86
608.44	45766.84
608.60	45635.77
608.75	45949.40
608.91	45645.13
609.06	46106.21
609.22	46195.15
609.37	45923.65
609.53	46036.00
609.68	45722.37
609.84	45759.81
609.99	46028.98
610.15	45792.58
610.30	45956.42
610.46	45478.95
610.61	45612.36
610.76	45551.51
610.92	45640.45
611.07	46113.23
611.23	45670.87
611.38	45614.70
611.54	45549.17
611.69	45804.28
611.84	45902.59
612.00	45401.71
612.15	45305.75
612.31	45851.09
612.46	45551.51
612.62	45738.75
612.77	45331.50
612.92	45799.60
613.08	45326.81
613.23	45638.11
613.39	45612.36
613.54	45422.78
613.69	45378.31
613.85	45446.18
614.00	45485.97
614.15	45640.45
614.31	45312.77
614.46	45574.91
614.62	45528.10
614.77	45738.75
614.92	45425.12
615.08	45436.82
615.23	45198.09
615.38	45284.68
615.54	45008.50
615.69	45338.52
615.84	44870.41
616.00	44928.92
616.15	44821.26
616.30	44722.96
616.46	44809.56
616.61	44783.81
616.76	44898.50
616.92	44175.27
617.07	44935.95
617.22	45003.82
617.37	44694.87
617.53	45200.43
617.68	44832.96
617.83	45106.80
617.99	44830.62
618.14	44722.96
618.29	44973.39
618.45	44718.28
618.60	44577.84
618.75	44619.97
618.90	44594.23
619.06	44587.21
619.21	44959.35
619.36	44783.81
619.51	44814.24
619.67	44531.03
619.82	44729.98
619.97	44865.73
620.12	44205.70
620.28	44076.97
620.43	44332.09
620.58	44350.81
620.73	44575.50
620.89	44355.49
621.04	44603.59
621.19	44442.09
621.34	44416.35
621.49	44273.57
621.65	44273.57
621.80	43969.30
621.95	43985.69
622.10	44194.00
622.25	43924.83
622.41	43840.57
622.56	43950.58
622.71	44362.51
622.86	44027.82
623.01	43683.76
623.16	43749.29
623.32	43728.23
623.47	43578.43
623.62	43508.22
623.77	43845.26
623.92	44271.23
624.07	43779.72
624.23	43367.79
624.38	43531.62
624.53	43498.86
624.68	43468.43
624.83	43856.96
624.98	43517.58
625.13	43182.88
625.29	43475.45
625.44	43159.48
625.59	42895.00
625.74	43194.59
625.89	42808.40
626.04	42642.22
626.19	43337.36
626.34	43316.29
626.49	43442.68
626.65	43620.56
626.80	43377.15
626.95	43182.88
627.10	42827.12
627.25	43351.40
627.40	42829.46
627.55	42759.25
627.70	42337.95
627.85	42616.47
628.00	42583.71
628.15	42981.60
628.30	42813.08
628.45	43012.02
628.60	42946.49
628.76	43103.31
628.91	42941.81
629.06	42506.47
629.21	42447.96
629.36	42174.11
629.51	42796.70
629.66	42368.38
629.81	42522.85
629.96	42911.38
630.11	42438.59
630.26	42356.67
630.41	42618.81
630.56	42356.67
630.71	42815.42
630.86	42249.01
631.01	42066.45
631.16	42485.40
631.31	42375.40
631.46	42073.47
631.61	42092.19
631.76	42422.21
631.91	42094.53
632.06	42347.31
632.21	42621.16
632.36	42408.17
632.51	42134.32
632.66	41528.13
632.81	41888.57
632.96	42220.92
633.10	42038.36
633.25	41883.89
633.40	42562.64
633.55	42181.13
633.70	41930.70
633.85	42000.91
634.00	42113.26
634.15	42021.98
634.30	41865.16
634.45	41698.98
634.60	41532.81
634.75	41972.83
634.90	41895.59
635.05	41708.35
635.19	41710.69
635.34	42021.98
635.49	41584.30
635.64	41221.52
635.79	40968.74
635.94	41406.42
636.09	41731.75
636.24	41350.24
636.39	41439.18
636.53	41504.72
636.68	41081.08
636.83	41265.99
636.98	41106.83
637.13	40917.25
637.28	41361.95
637.43	41652.17
637.57	41404.08
637.72	41401.74
637.87	41060.02
638.02	41298.75
638.17	41172.36
638.32	41081.08
638.46	40856.39
638.61	41188.75
638.76	40842.35
638.91	41205.13
639.06	40849.37
639.20	41167.68
639.35	40861.07
639.50	41067.04
639.65	41074.06
639.80	41020.23
639.94	40858.73
640.09	40683.19
640.24	40102.74
640.39	40297.00
640.54	40758.09
640.68	40683.19
640.83	40620.00
640.98	40582.55
641.13	40385.94
641.27	40624.68
641.42	40369.56
641.57	40554.46
641.72	40837.67
641.86	40168.27
642.01	40067.63
642.16	40409.35
642.31	39901.45
642.45	40519.35
642.60	40287.64
642.75	40254.87
642.90	40395.31
643.04	40334.45
643.19	40091.04
643.34	40130.83
643.48	39791.45
643.63	39931.88
643.78	39887.41
643.93	39861.66
644.07	40355.52
644.22	39927.20
644.37	39791.45
644.51	39814.85
644.66	40549.78
644.81	40212.74
644.95	40231.47
645.10	40135.51
645.25	39803.15
645.39	40123.80
645.54	39803.15
645.69	40119.12
645.83	39622.93
645.98	39957.63
646.13	39498.88
646.27	40114.44
646.42	39803.15
646.57	39316.32
646.71	39243.76
646.86	39608.89
647.00	39768.04
647.15	39892.09
647.30	39655.70
647.44	39412.28
647.59	39498.88
647.74	39363.13
647.88	39742.30
648.03	38866.94
648.17	39854.64
648.32	39353.77
648.47	39051.84
648.61	39290.57
648.76	39353.77
648.90	39077.58
649.05	39409.94
649.20	39009.71
649.34	38656.29
649.49	39112.69
649.63	39215.68
649.78	39115.03
649.92	39222.70
650.07	39077.58
650.21	39117.37
650.36	38995.67
650.51	39035.45
650.65	39236.74
650.80	39646.33
650.94	38969.92
651.09	39063.54
651.23	39112.69
651.38	38719.48
651.52	38408.19
651.67	38976.94
651.81	38557.99
651.96	38340.32
652.10	38775.66
652.25	38600.12
652.39	38651.61
652.54	38522.88
652.68	38506.49
652.83	38721.82
652.97	38543.94
653.12	38515.86
653.26	38408.19
653.41	38464.36
653.55	38382.45
653.70	38117.96
653.84	38433.94
653.99	38464.36
654.13	38174.14
654.27	38356.70
654.42	37832.42
654.56	38064.13
654.71	38003.28
654.85	38132.01
655.00	38092.22
655.14	37813.70
655.29	37851.14
655.43	37530.49
655.57	37619.43
655.72	37528.15
655.86	37546.87
656.01	37350.27
656.15	37589.00
656.30	37593.68
656.44	37841.78
656.58	37095.15
656.73	37663.90
656.87	37156.00
657.01	37968.17
657.16	37455.59
657.30	37528.15
657.45	37148.98
657.59	37177.07
657.73	37399.42
657.88	37542.19
658.02	37708.37
658.16	37755.18
658.31	37656.88
658.45	37352.61
658.60	37233.24
658.74	37422.83
658.88	37195.79
659.03	37275.37
659.17	37235.58
659.31	37179.41
659.46	36795.56
659.60	37539.85
659.74	37240.26
659.89	36779.18
660.03	36790.88
660.17	36779.18
660.32	36884.50
660.46	37258.99
660.60	37046.00
660.74	36804.92
660.89	36744.07
661.03	36334.48
661.17	36540.44
661.32	36711.30
661.46	36175.32
661.60	36346.18
661.74	36423.42
661.89	36659.81
662.03	36037.23
662.17	36187.02
662.31	36002.12
662.46	36430.44
662.60	36559.17
662.74	35861.69
662.88	35775.09
663.03	35803.17
663.17	35777.43
663.31	35505.93
663.45	35667.42
663.60	35747.00
663.74	35618.27
663.88	36044.25
664.02	35899.14
664.17	35707.21
664.31	35519.97
664.45	35157.19
664.59	35608.91
664.73	35091.65
664.88	35344.43
665.02	35599.55
665.16	35328.05
665.30	34675.04
665.44	35145.48
665.59	34562.69
665.73	35063.57
665.87	34728.87
666.01	34796.74
666.15	35124.42
666.29	34831.85
666.44	34986.33
666.58	34719.51
666.72	35014.41
666.86	34974.63
667.00	34565.03
667.14	34277.15
667.28	33839.47
667.43	34539.29
667.57	34309.91
667.71	34253.74
667.85	34321.62
667.99	34359.06
668.13	34040.75
668.27	34242.04
668.41	34139.05
668.56	34286.51
668.70	33881.60
668.84	34110.97
668.98	33514.13
669.12	33418.17
669.26	33570.30
669.40	33722.44
669.54	33544.56
669.68	33326.89
669.82	33303.48
669.96	32985.17
670.10	32886.87
670.25	33443.91
670.39	33104.54
670.53	32699.62
670.67	32940.70
670.81	33165.39
670.95	33282.42
671.09	33085.81
671.23	33242.63
671.37	33015.60
671.51	32924.32
671.65	32643.45
671.79	32814.31
671.93	32348.54
672.07	32683.24
672.21	32769.84
672.35	32409.40
672.49	32371.95
672.63	32385.99
672.77	32280.67
672.91	32439.82
673.05	32311.10
673.19	32088.74
673.33	31995.12
673.47	31754.05
673.61	31749.37
673.75	31672.13
673.89	31138.49
674.03	31557.44
674.17	31386.58
674.31	31740.00
674.45	31274.24
674.59	31424.03
674.73	31625.32
674.87	30923.16
675.01	31051.89
675.15	31292.96
675.29	30859.96
675.43	30918.48
675.56	30878.69
675.70	30808.47
675.84	31068.27
675.98	29769.27
676.12	30499.52
676.26	30705.49
676.40	30412.92
676.54	30754.64
676.68	30352.07
676.82	29958.86
676.96	30494.84
677.10	29759.91
677.23	29759.91
677.37	29567.99
677.51	29745.87
677.65	29752.89
677.79	29118.60
677.93	29186.48
678.07	29282.44
678.21	28891.57
678.34	29097.54
678.48	28599.01
678.62	28655.18
678.76	28594.32
678.90	28603.69
679.04	28821.36
679.18	28128.56
679.31	28205.80
679.45	28739.44
679.59	28189.41
679.73	28519.43
679.87	28004.51
680.00	27985.79
680.14	28126.22
680.28	27810.25
680.42	27946.00
680.56	27826.63
680.70	27646.41
680.83	28034.94
680.97	27592.58
681.11	27620.66
681.25	27428.74
681.39	27384.27
681.52	27704.92
681.66	26920.84
681.80	27061.27
681.94	26962.97
682.07	26785.09
682.21	27173.62
682.35	26684.45
682.49	27051.91
682.62	26796.79
682.76	26345.07
682.90	26197.62
683.04	26366.13
683.17	26031.44
683.31	26026.76
683.45	26256.13
683.59	25785.68
683.72	25652.27
683.86	25771.64
684.00	25366.73
684.13	25909.73
684.27	25242.68
684.41	25823.13
684.55	25109.27
684.68	25163.10
684.82	25378.43
684.96	25671.00
685.09	25099.90
685.23	24910.32
685.37	24423.49
685.50	24692.65
685.64	24929.05
685.78	24510.09
685.91	24608.39
686.05	24250.29
686.19	23866.44
686.32	23988.15
686.46	23761.12
686.60	23623.03
686.73	23651.11
686.87	23239.18
687.01	23208.75
687.14	23234.50
687.28	23271.95
687.42	23019.17
687.55	23321.10
687.69	23051.94
687.82	22941.93
687.96	23278.97
688.10	22902.14
688.23	22857.67
688.37	22693.83
688.50	22537.02
688.64	22742.99
688.78	22651.70
688.91	22335.73
689.05	22286.58
689.18	22026.78
689.32	22115.72
689.46	22059.55
689.59	22136.79
689.73	22342.75
689.86	22108.70
690.00	22003.38
690.13	21568.04
690.27	21905.07
690.41	21603.14
690.54	21387.82
690.68	21261.43
690.81	21401.86
690.95	21350.37
691.08	21591.44
691.22	20980.56
691.35	21219.30
691.49	21502.50
691.62	21092.91
691.76	21090.57
691.89	20978.22
692.03	20716.08
692.16	20727.78
692.30	20655.23
692.43	20095.84
692.57	20348.62
692.70	20315.85
692.84	20379.04
692.97	20240.95
693.11	20018.60
693.24	19978.81
693.38	19988.18
693.51	20046.69
693.65	19695.61
693.78	19960.09
693.92	19583.26
694.05	19438.15
694.19	19557.52
694.32	19358.57
694.45	19058.98
694.59	19260.27
694.72	19028.56
694.86	19159.63
694.99	18970.04
695.13	18712.58
695.26	19103.45
695.39	18733.65
695.53	18745.35
695.66	18728.97
695.80	18843.65
695.93	18721.95
696.07	18312.35
696.20	18389.59
696.33	18162.56
696.47	17980.00
696.60	17907.44
696.73	17778.71
696.87	17848.93
697.00	17916.80
697.14	17809.14
697.27	17795.09
697.40	17722.54
697.54	17441.67
697.67	17331.67
697.80	17413.59
697.94	17216.98
698.07	17317.62
698.21	17062.51
698.34	17125.70
698.47	17216.98
698.61	16966.54
698.74	16673.98
698.87	16924.41
699.01	16582.70
699.14	16458.65
699.27	16418.86
699.40	16517.16
699.54	16395.45
699.67	16121.61
699.80	16395.45
699.94	16257.36
700.07	16042.03
700.20	16130.97
700.34	16063.10
700.47	15887.56
700.60	16119.27
700.73	15873.51
700.87	15950.75
701.00	15529.45
701.13	15566.90
701.26	15346.89
701.40	15506.05
701.53	15288.38
701.66	15520.09
701.79	15077.73
701.93	15007.52
702.06	14757.08
702.19	14932.62
702.32	15220.50
702.46	15040.28
702.59	14927.94
702.72	14951.34
702.85	14726.65
702.99	14647.07
703.12	14614.30
703.25	14644.73
703.38	14307.69
703.51	14338.12
703.65	14480.89
703.78	14384.93
703.91	14305.35
704.04	14221.10
704.17	14010.45
704.31	14059.60
704.44	13958.96
704.57	13900.44
704.70	14019.81
704.83	13680.43
704.96	14012.79
705.10	13720.22
705.23	13710.86
>>>>>End Processed Spectral Data<<<<<
