SpectraSuite Data File
++++++++++++++++++++++++++++++++++++
Date: Fri Oct 25 11:33:41 EDT 2013
User: price-jones
Dark Spectrum Present: No
Reference Spectrum Present: No
Number of Sampled Component Spectra: 1
Spectrometers: USB2+H05261
Integration Time (usec): 100000 (USB2+H05261)
Spectra Averaged: 1 (USB2+H05261)
Boxcar Smoothing: 0 (USB2+H05261)
Correct for Electrical Dark: No (USB2+H05261)
Strobe/Lamp Enabled: No (USB2+H05261)
Correct for Detector Non-linearity: No (USB2+H05261)
Correct for Stray Light: No (USB2+H05261)
Number of Pixels in Processed Spectrum: 2048
>>>>>Begin Processed Spectral Data<<<<<
365.73	299.59
365.92	299.59
366.12	299.59
366.32	161.50
366.52	187.24
366.72	208.31
366.91	210.65
367.11	210.65
367.31	128.73
367.51	159.16
367.70	168.52
367.90	168.52
368.10	203.63
368.30	187.24
368.49	114.69
368.69	180.22
368.89	196.60
369.09	138.09
369.28	205.97
369.48	173.20
369.68	205.97
369.87	208.31
370.07	287.89
370.27	339.38
370.47	360.44
370.66	479.81
370.86	458.74
371.06	552.37
371.25	629.60
371.45	559.39
371.65	454.06
371.84	528.96
372.04	582.79
372.24	594.50
372.44	617.90
372.63	608.54
372.83	601.52
373.03	538.32
373.22	599.18
373.42	606.20
373.62	697.48
373.81	676.41
374.01	681.10
374.21	641.31
374.40	641.31
374.60	603.86
374.79	622.58
374.99	627.26
375.19	622.58
375.38	674.07
375.58	643.65
375.78	702.16
375.97	601.52
376.17	711.52
376.37	669.39
376.56	671.73
376.76	664.71
376.95	617.90
377.15	695.14
377.35	660.03
377.54	681.10
377.74	676.41
377.93	734.93
378.13	716.20
378.33	664.71
378.52	716.20
378.72	699.82
378.91	772.38
379.11	753.65
379.31	730.25
379.50	751.31
379.70	779.40
379.89	751.31
380.09	695.14
380.28	704.50
380.48	791.10
380.68	760.67
380.87	746.63
381.07	739.61
381.26	795.78
381.46	746.63
381.65	774.72
381.85	802.80
382.04	765.36
382.24	718.54
382.43	840.25
382.63	760.67
382.83	718.54
383.02	863.66
383.22	812.17
383.41	716.20
383.61	826.21
383.80	844.93
384.00	837.91
384.19	744.29
384.39	791.10
384.58	856.64
384.78	854.30
384.97	819.19
385.17	805.14
385.36	826.21
385.56	791.10
385.75	788.76
385.95	873.02
386.14	926.85
386.34	812.17
386.53	917.49
386.72	950.26
386.92	847.27
387.11	901.11
387.31	896.43
387.50	912.81
387.70	940.90
387.89	898.77
388.09	947.92
388.28	908.13
388.48	992.39
388.67	905.79
388.86	910.47
389.06	1006.43
389.25	924.51
389.45	976.00
389.64	1060.26
389.84	940.90
390.03	985.37
390.22	889.40
390.42	997.07
390.61	976.00
390.81	1055.58
391.00	971.32
391.19	985.37
391.39	954.94
391.58	1018.13
391.78	1036.86
391.97	1050.90
392.16	959.62
392.36	1093.03
392.55	994.73
392.75	1046.22
392.94	1067.28
393.13	1039.20
393.33	1041.54
393.52	1109.41
393.71	1116.44
393.91	1111.75
394.10	1151.54
394.29	1212.40
394.49	1064.94
394.68	1224.10
394.88	1125.80
395.07	1137.50
395.26	1174.95
395.46	1153.88
395.65	1153.88
395.84	1240.48
396.04	1282.61
396.23	1238.14
396.42	1224.10
396.62	1158.57
396.81	1156.22
397.00	1259.21
397.19	1284.95
397.39	1308.36
397.58	1324.74
397.77	1341.13
397.97	1287.29
398.16	1193.67
398.35	1268.57
398.55	1301.34
398.74	1280.27
398.93	1270.91
399.12	1256.87
399.32	1338.79
399.51	1306.02
399.70	1416.02
399.90	1268.57
400.09	1338.79
400.28	1369.21
400.47	1364.53
400.67	1432.41
400.86	1383.26
401.05	1369.21
401.24	1472.20
401.44	1455.81
401.63	1540.07
401.82	1479.22
402.01	1455.81
402.21	1448.79
402.40	1537.73
402.59	1444.11
402.78	1528.37
402.97	1533.05
403.17	1432.41
403.36	1504.96
403.55	1547.09
403.74	1521.35
403.93	1739.02
404.13	1647.74
404.32	1675.82
404.51	1603.27
404.70	1614.97
404.89	1586.88
405.09	1607.95
405.28	1675.82
405.47	1696.89
405.66	1647.74
405.85	1713.27
406.05	1607.95
406.24	1795.19
406.43	1813.92
406.62	1713.27
406.81	1832.64
407.00	1689.87
407.20	1661.78
407.39	1689.87
407.58	1881.79
407.77	1987.11
407.96	1858.39
408.15	1980.09
408.34	1898.17
408.54	1905.20
408.73	1947.33
408.92	1877.11
409.11	1987.11
409.30	1914.56
409.49	1975.41
409.68	2022.22
409.87	1984.77
410.07	2054.99
410.26	2054.99
410.45	2083.08
410.64	2029.24
410.83	2183.72
411.02	2129.89
411.21	2153.29
411.40	2183.72
411.59	2207.13
411.78	2230.53
411.98	2059.67
412.17	2223.51
412.36	2225.85
412.55	2380.32
412.74	2359.26
412.93	2424.80
413.12	2356.92
413.31	2408.41
413.50	2424.80
413.69	2459.90
413.88	2408.41
414.07	2476.29
414.26	2492.67
414.45	2644.81
414.64	2483.31
414.83	2448.20
415.02	2544.16
415.22	2654.17
415.41	2644.81
415.60	2684.59
415.79	2726.72
415.98	2679.91
416.17	2733.75
416.36	2628.42
416.55	2651.83
416.74	2827.37
416.93	2867.16
417.12	2881.20
417.31	2841.41
417.50	2799.28
417.69	3119.93
417.88	3002.91
418.07	2916.31
418.26	2855.45
418.45	2911.63
418.64	3145.68
418.83	3007.59
419.02	3108.23
419.21	3077.80
419.39	3054.40
419.58	3110.57
419.77	3091.85
419.96	3190.15
420.15	3119.93
420.34	3262.71
420.53	3155.04
420.72	3204.19
420.91	3281.43
421.10	3148.02
421.29	3269.73
421.48	3255.69
421.67	3330.58
421.86	3220.58
422.05	3241.64
422.24	3459.31
422.43	3400.80
422.61	3346.97
422.80	3337.60
422.99	3300.16
423.18	3414.84
423.37	3620.81
423.56	3335.26
423.75	3555.27
423.94	3515.48
424.13	3136.32
424.32	3332.92
424.50	3473.36
424.69	3520.17
424.88	3466.33
425.07	3398.46
425.26	3335.26
425.45	3485.06
425.64	3499.10
425.83	3447.61
426.01	3440.59
426.20	3520.17
426.39	3520.17
426.58	3391.44
426.77	3478.04
426.96	3524.85
427.15	3566.98
427.33	3581.02
427.52	3520.17
427.71	3592.72
427.90	3557.61
428.09	3630.17
428.28	3627.83
428.46	3599.74
428.65	3669.96
428.84	3730.81
429.03	3822.09
429.22	3733.15
429.40	3658.26
429.59	3688.68
429.78	3803.37
429.97	3721.45
430.16	3824.44
430.34	3892.31
430.53	3971.89
430.72	3920.40
430.91	3798.69
431.10	3911.04
431.28	4077.21
431.47	4049.13
431.66	3955.51
431.85	3857.20
432.03	3925.08
432.22	4086.58
432.41	4058.49
432.60	4086.58
432.79	4126.36
432.97	4163.81
433.16	4126.36
433.35	4194.24
433.54	4292.54
433.72	4217.65
433.91	4140.41
434.10	4208.28
434.28	3974.23
434.47	4271.48
434.66	4329.99
434.85	4191.90
435.03	4428.29
435.22	4344.03
435.41	4423.61
435.59	4400.21
435.78	4428.29
435.97	4475.10
436.16	4325.31
436.34	4442.34
436.53	4404.89
436.72	4557.02
436.90	4327.65
437.09	4601.49
437.28	4500.85
437.46	4540.64
437.65	4430.63
437.84	4517.23
438.02	4643.62
438.21	4601.49
438.40	4674.05
438.58	4704.48
438.77	4877.68
438.96	4842.57
439.14	4821.50
439.33	4828.53
439.52	4919.81
439.70	4915.12
439.89	5130.45
440.08	5011.09
440.26	4964.28
440.45	4971.30
440.63	4980.66
440.82	5245.14
441.01	5137.48
441.19	5235.78
441.38	5296.63
441.57	5090.67
441.75	5298.97
441.94	5408.98
442.12	5432.38
442.31	5401.96
442.50	5343.44
442.68	5476.85
442.87	5366.85
443.05	5645.37
443.24	5593.88
443.43	5554.09
443.61	5640.69
443.80	5640.69
443.98	5500.26
444.17	5460.47
444.35	5462.81
444.54	5565.79
444.73	5565.79
444.91	5731.97
445.10	5708.57
445.28	5692.18
445.47	5701.54
445.65	5607.92
445.84	5921.56
446.02	5813.89
446.21	5736.65
446.39	5717.93
446.58	6022.20
446.77	5783.46
446.95	5528.35
447.14	5685.16
447.32	5762.40
447.51	5860.70
447.69	5757.72
447.88	5750.70
448.06	5811.55
448.25	5895.81
448.43	5881.77
448.62	5762.40
448.80	5863.04
448.99	5902.83
449.17	5905.17
449.36	5813.89
449.54	6036.24
449.73	5921.56
449.91	5912.19
450.10	5989.43
450.28	6118.16
450.46	6237.53
450.65	6155.61
450.83	6115.82
451.02	6366.26
451.20	6305.40
451.39	6171.99
451.57	6146.25
451.76	6307.74
451.94	6167.31
452.13	6333.49
452.31	6263.27
452.49	6253.91
452.68	6321.79
452.86	6473.92
453.05	6289.02
453.23	6321.79
453.42	6459.88
453.60	6375.62
453.78	6614.35
453.97	6380.30
454.15	6401.37
454.34	6328.81
454.52	6729.04
454.70	6696.27
454.89	6626.06
455.07	6502.01
455.26	6595.63
455.44	6740.74
455.62	6642.44
455.81	6778.19
455.99	6782.87
456.17	6731.38
456.36	6815.64
456.54	6885.86
456.73	6764.15
456.91	7098.84
457.09	6970.12
457.28	6993.52
457.46	6920.96
457.64	7145.66
457.83	7089.48
458.01	6974.80
458.19	7201.83
458.38	7192.47
458.56	7129.27
458.74	7166.72
458.93	7234.60
459.11	7227.57
459.29	7356.30
459.48	7309.49
459.66	7185.44
459.84	7454.61
460.03	7538.87
460.21	7435.88
460.39	7330.56
460.57	7332.90
460.76	7396.09
460.94	7674.62
461.12	7494.40
461.31	7447.58
461.49	7492.05
461.67	7433.54
461.85	7665.25
462.04	7648.87
462.22	8189.53
462.40	7754.19
462.59	7627.81
462.77	7770.58
462.95	7892.29
463.13	7915.69
463.32	7852.50
463.50	8002.29
463.68	8124.00
463.86	7889.95
464.05	7812.71
464.23	7911.01
464.41	8142.72
464.59	7733.13
464.78	8231.66
464.96	8217.62
465.14	8021.02
465.32	8154.43
465.50	8243.37
465.69	8100.59
465.87	8135.70
466.05	7950.80
466.23	8248.05
466.41	8280.82
466.60	8402.52
466.78	8163.79
466.96	8138.04
467.14	8411.89
467.32	8304.22
467.51	8226.98
467.69	8325.29
467.87	8510.19
468.05	8304.22
468.23	8280.82
468.41	8259.75
468.60	8390.82
468.78	8512.53
468.96	8376.78
469.14	8449.33
469.32	8725.52
469.50	8351.03
469.69	8842.54
469.87	8662.32
470.05	8751.26
470.23	8889.35
470.41	8760.63
470.59	8975.95
470.77	8922.12
470.95	8943.19
471.14	9174.90
471.32	8805.10
471.50	9095.32
471.68	8973.61
471.86	9165.54
472.04	9235.75
472.22	9406.61
472.40	9085.96
472.58	9149.15
472.77	9193.62
472.95	9434.70
473.13	9678.12
473.31	9509.60
473.49	9303.63
473.67	9514.28
473.85	9540.02
474.03	9900.47
474.21	9666.41
474.39	9727.27
474.57	9701.52
474.75	10003.45
474.93	9923.87
475.12	9902.81
475.30	10097.07
475.48	10078.35
475.66	10132.18
475.84	10031.54
476.02	10139.20
476.20	10216.44
476.38	10473.90
476.56	10808.59
476.74	10452.83
476.92	10527.73
477.10	10464.54
477.28	10850.72
477.46	10640.08
477.64	10993.50
477.82	10958.39
478.00	11311.81
478.18	11208.83
478.36	11227.55
478.54	11431.18
478.72	11325.85
478.90	11447.56
479.08	11819.71
479.26	11770.55
479.44	11611.40
479.62	11712.04
479.80	11826.73
479.98	11936.73
480.16	12418.88
480.34	12313.56
480.52	12461.01
480.70	12486.76
480.88	12278.45
481.06	12428.24
481.24	12301.86
481.41	12585.06
481.59	12725.49
481.77	12992.31
481.95	12716.13
482.13	13013.38
482.31	13025.08
482.49	13490.85
482.67	13362.12
482.85	13385.52
483.03	13544.68
483.21	13851.29
483.39	13685.11
483.57	13675.75
483.74	13760.01
483.92	14342.80
484.10	13951.93
484.28	14230.46
484.46	14443.45
484.64	14916.23
484.82	14553.45
485.00	14700.90
485.18	14817.93
485.35	15201.78
485.53	15150.29
485.71	15169.01
485.89	15449.88
486.07	15367.96
486.25	15358.60
486.43	15613.71
486.61	15740.10
486.78	15723.72
486.96	16135.65
487.14	16063.10
487.32	16198.85
487.50	16126.29
487.68	16318.22
487.85	16877.60
488.03	16872.92
488.21	16950.16
488.39	16662.27
488.57	16945.48
488.75	17385.50
488.92	17235.70
489.10	17610.19
489.28	17802.11
489.46	17937.87
489.64	17521.25
489.81	18155.54
489.99	18249.16
490.17	18567.47
490.35	18284.26
490.53	18740.67
490.70	18686.84
490.88	18534.70
491.06	18853.02
491.24	18920.89
491.41	19138.56
491.59	19463.90
491.77	19241.54
491.95	19555.18
492.13	19644.12
492.30	19569.22
492.48	19971.79
492.66	19831.36
492.84	19702.63
493.01	20016.26
493.19	20313.51
493.37	20491.39
493.54	20255.00
493.72	20397.77
493.90	20627.14
494.08	21057.80
494.25	21200.57
494.43	20926.73
494.61	21525.91
494.79	21671.02
494.96	21097.59
495.14	21656.98
495.32	21727.19
495.49	21727.19
495.67	21921.46
495.85	21998.70
496.02	22319.35
496.20	22455.10
496.38	22427.01
496.55	22548.72
496.73	22813.20
496.91	22857.67
497.09	23068.32
497.26	22981.72
497.44	22867.03
497.62	22981.72
497.79	23424.08
497.97	23440.47
498.14	24091.13
498.32	23665.16
498.50	24002.19
498.67	24023.26
498.85	24238.59
499.03	23929.64
499.20	24222.20
499.38	24140.29
499.56	24428.17
499.73	24074.75
499.91	24538.18
500.08	24924.36
500.26	24320.51
500.44	24877.55
500.61	24959.47
500.79	24692.65
500.97	25013.31
501.14	25532.90
501.32	25542.27
501.49	25612.48
501.67	25242.68
501.84	25642.91
502.02	25500.14
502.20	25348.00
502.37	25460.35
502.55	26223.36
502.72	26036.12
502.90	26118.04
503.07	26085.27
503.25	26115.70
503.43	26302.94
503.60	26679.77
503.78	26614.23
503.95	26443.37
504.13	26623.59
504.30	26717.22
504.48	27091.70
504.65	26764.03
504.83	26792.11
505.01	27356.18
505.18	27080.00
505.36	27321.07
505.53	27108.08
505.71	27569.17
505.88	27770.46
506.06	27779.82
506.23	28011.53
506.41	27828.97
506.58	27817.27
506.76	27681.52
506.93	28304.10
507.11	28063.02
507.28	28411.76
507.46	28154.30
507.63	28175.37
507.81	28514.75
507.98	28350.91
508.16	28662.20
508.33	28599.01
508.50	28606.03
508.68	28716.03
508.85	29249.67
509.03	28767.52
509.20	29345.64
509.38	29390.11
509.55	29191.16
509.73	29457.98
509.90	29530.54
510.08	29551.60
510.25	29537.56
510.42	29909.71
510.60	29895.66
510.77	29759.91
510.95	30143.76
511.12	30000.99
511.30	30075.88
511.47	30473.78
511.64	30211.64
511.82	30501.86
511.99	30504.20
512.17	30562.72
512.34	30419.94
512.51	31129.12
512.69	31002.74
512.86	30869.33
513.04	30939.54
513.21	31159.55
513.38	31175.94
513.56	31419.35
513.73	31098.70
513.90	31393.61
514.08	31220.41
514.25	31580.85
514.43	31639.36
514.60	31498.93
514.77	31974.06
514.95	31613.62
515.12	31571.49
515.29	31880.44
515.47	32044.27
515.64	31978.74
515.81	31452.12
515.99	32407.06
516.16	32655.15
516.33	32390.67
516.51	32067.68
516.68	32542.81
516.85	32554.51
517.03	32903.25
517.20	32790.91
517.37	32634.09
517.54	33081.13
517.72	33064.75
517.89	33483.70
518.06	33132.62
518.24	33055.39
518.41	32648.13
518.58	33511.79
518.75	33104.54
518.93	33413.49
519.10	33362.00
519.27	33443.91
519.45	33537.54
519.62	33766.91
519.79	33654.56
519.96	33757.55
520.14	33872.23
520.31	34050.11
520.48	34110.97
520.65	33996.28
520.83	34366.09
521.00	34487.79
521.17	34258.42
521.34	34579.07
521.52	34735.89
521.69	34794.40
521.86	34511.20
522.03	34705.46
522.20	35065.91
522.38	35248.47
522.55	34684.40
522.72	34981.65
522.89	34862.28
523.07	35536.35
523.24	35192.30
523.41	35264.85
523.58	35494.22
523.75	35445.07
523.92	35227.40
524.10	35833.60
524.27	35651.04
524.44	35447.41
524.61	36418.74
524.78	36336.82
524.96	35936.59
525.13	36467.89
525.30	36156.60
525.47	36608.32
525.64	36257.24
525.81	36245.54
525.98	36472.57
526.16	35992.76
526.33	36591.94
526.50	36165.96
526.67	36886.84
526.84	36762.79
527.01	36910.25
527.18	36505.34
527.36	36886.84
527.53	37518.79
527.70	37303.46
527.87	37404.10
528.04	36893.86
528.21	37099.83
528.38	36987.49
528.55	37081.11
528.72	37064.72
528.89	37294.10
529.07	37174.73
529.24	37598.37
529.41	37539.85
529.58	37633.47
529.75	37462.61
529.92	37680.28
530.09	37439.21
530.26	37851.14
530.43	37797.31
530.60	37909.66
530.77	37736.46
530.94	37846.46
531.11	38150.73
531.28	38103.92
531.46	38356.70
531.63	38403.51
531.80	38183.50
531.97	37965.83
532.14	38518.20
532.31	38279.46
532.48	38403.51
532.65	38726.50
532.82	38679.69
532.99	38611.82
533.16	38675.01
533.33	38822.47
533.50	38883.32
533.67	38567.35
533.84	38464.36
534.01	38712.46
534.18	38850.55
534.35	39613.57
534.52	38923.11
534.69	39632.29
534.86	39744.64
535.03	39438.03
535.20	39445.05
535.37	39463.77
535.54	39491.86
535.71	39461.43
535.88	39950.60
536.05	39629.95
536.22	39756.34
536.38	39983.37
536.55	39665.06
536.72	39892.09
536.89	39910.82
537.06	39711.87
537.23	40313.39
537.40	40055.93
537.57	39880.39
537.74	39824.22
537.91	40540.42
538.08	40126.14
538.25	40198.70
538.42	40428.07
538.59	40687.87
538.75	40140.19
538.92	40142.53
539.09	40208.06
539.26	40521.69
539.43	40486.59
539.60	40893.84
539.77	40313.39
539.94	41130.23
540.11	40636.38
540.28	40694.89
540.44	40818.94
540.61	41041.29
540.78	40458.50
540.95	41193.43
541.12	40935.97
541.29	40720.64
541.46	41305.77
541.62	41205.13
541.79	41570.25
541.96	41212.15
542.13	41074.06
542.30	41251.94
542.47	41209.81
542.63	41198.11
542.80	41668.56
542.97	41951.76
543.14	42029.00
543.31	41776.22
543.48	42099.22
543.64	42476.04
543.81	42080.49
543.98	41846.44
544.15	41876.86
544.32	42581.37
544.48	43089.26
544.65	42197.52
544.82	42656.26
544.99	42110.92
545.16	42223.26
545.32	42141.35
545.49	42550.94
545.66	42735.84
545.83	42672.65
546.00	42635.20
546.16	42637.54
546.33	42632.86
546.50	42663.28
546.67	42883.30
546.83	42131.98
547.00	42445.62
547.17	42731.16
547.34	42770.95
547.50	42836.48
547.67	43278.85
547.84	42653.92
548.00	43264.80
548.17	43360.76
548.34	43192.25
548.51	43557.37
548.67	43482.47
548.84	43770.36
549.01	42953.51
549.18	43096.28
549.34	43157.14
549.51	43917.81
549.68	43405.23
549.84	43480.13
550.01	43274.16
550.18	43573.75
550.34	43700.14
550.51	43594.82
550.68	43892.07
550.84	43498.86
551.01	44034.84
551.18	43892.07
551.34	43667.37
551.51	43992.71
551.68	44161.23
551.84	44093.35
552.01	43632.27
552.18	44119.10
552.34	43861.64
552.51	44210.38
552.68	43971.64
552.84	43681.42
553.01	44236.12
553.18	43936.54
553.34	44348.47
553.51	44264.21
553.67	44500.61
553.84	44449.11
554.01	44779.13
554.17	44395.28
554.34	44472.52
554.51	44484.22
554.67	44465.50
554.84	44580.18
555.00	44699.55
555.17	44376.56
555.33	45083.40
555.50	44680.83
555.67	44973.39
555.83	44928.92
556.00	44847.00
556.16	45588.95
556.33	44961.69
556.50	44795.51
556.66	44514.65
556.83	44687.85
556.99	45191.06
557.16	45228.51
557.32	45048.29
557.49	45317.45
557.65	44961.69
557.82	45223.83
557.98	45205.11
558.15	45041.27
558.32	45272.98
558.48	45462.57
558.65	45387.67
558.81	45656.83
558.98	45221.49
559.14	45165.32
559.31	45368.94
559.47	45422.78
559.64	45076.38
559.80	45162.98
559.97	45769.18
560.13	45006.16
560.30	45404.05
560.46	45619.38
560.63	45900.25
560.79	45521.08
560.96	45900.25
561.12	45488.31
561.29	45937.69
561.45	45696.62
561.61	45839.39
561.78	45631.08
561.94	45691.94
562.11	45818.33
562.27	45553.85
562.44	45867.48
562.60	45567.89
562.77	45546.82
562.93	45684.92
563.10	45923.65
563.26	45879.18
563.42	46192.81
563.59	45925.99
563.75	45930.67
563.92	46192.81
564.08	46007.91
564.24	46138.98
564.41	45825.35
564.57	45757.47
564.74	46014.93
564.90	45956.42
565.07	46178.77
565.23	46040.68
565.39	45996.21
565.56	45991.53
565.72	46241.96
565.88	46195.15
566.05	46047.70
566.21	46768.58
566.38	46054.72
566.54	46108.55
566.70	47114.98
566.87	46220.90
567.03	46113.23
567.19	46564.96
567.36	46429.21
567.52	46394.10
567.68	46373.03
567.85	46436.23
568.01	46827.10
568.17	46211.54
568.34	46670.28
568.50	46761.56
568.66	46571.98
568.83	46300.48
568.99	46756.88
569.15	46480.70
569.32	46642.20
569.48	46302.82
569.64	46939.44
569.81	46738.16
569.97	46663.26
570.13	47047.11
570.30	46674.96
570.46	46674.96
570.62	47033.07
570.78	46703.05
570.95	46834.12
571.11	46628.15
571.27	46445.59
571.43	46534.53
571.60	46864.55
571.76	46429.21
571.92	46787.31
572.09	46784.97
572.25	46808.37
572.41	46583.68
572.57	46958.17
572.74	47035.41
572.90	46916.04
573.06	47044.77
573.22	47505.85
573.38	46930.08
573.55	47033.07
573.71	46967.53
573.87	47136.05
574.03	47140.73
574.20	47433.30
574.36	46969.87
574.52	47407.55
574.68	46965.19
574.84	47019.02
575.01	46873.91
575.17	47363.08
575.33	47281.16
575.49	47140.73
575.65	47035.41
575.82	47079.88
575.98	47255.42
576.14	47384.15
576.30	47587.77
576.46	47234.35
576.62	47138.39
576.79	47117.32
576.95	46670.28
577.11	46749.86
577.27	47374.78
577.43	47367.76
577.59	47405.21
577.75	46660.92
577.92	46897.31
578.08	47217.97
578.24	47063.49
578.40	47318.61
578.56	47168.82
578.72	46625.81
578.88	47428.62
579.04	47089.24
579.21	47257.76
579.37	47175.84
579.53	47550.32
579.69	46972.21
579.85	47274.14
580.01	47000.30
580.17	46955.83
580.33	47250.74
580.49	47435.64
580.65	47379.46
580.82	47082.22
580.98	47147.75
581.14	47093.92
581.30	47178.18
581.46	46932.42
581.62	47515.22
581.78	47316.27
581.94	47351.38
582.10	47643.94
582.26	47594.79
582.42	47267.12
582.58	47428.62
582.74	47440.32
582.90	47110.30
583.06	47688.42
583.22	47143.07
583.38	47414.57
583.54	47824.17
583.70	47402.87
583.86	47639.26
584.02	47384.15
584.18	47227.33
584.34	47407.55
584.50	47613.52
584.66	47948.21
584.82	47608.84
584.98	47552.66
585.14	47512.88
585.30	47447.34
585.46	47545.64
585.62	47112.64
585.78	47129.03
585.94	47353.72
586.10	47313.93
586.26	47487.13
586.42	47714.16
586.58	47213.29
586.74	47555.00
586.90	47592.45
587.06	47110.30
587.22	47571.39
587.38	47232.01
587.54	47505.85
587.70	47756.29
587.86	47564.37
588.02	47660.33
588.18	47686.07
588.34	47772.67
588.49	47421.59
588.65	47065.83
588.81	47625.22
588.97	48076.94
589.13	47695.44
589.29	47456.70
589.45	48224.40
589.61	47920.13
589.77	48088.65
589.93	47873.32
590.08	47852.25
590.24	48046.52
590.40	48259.51
590.56	47922.47
590.72	48013.75
590.88	47983.32
591.04	47770.33
591.20	48287.59
591.35	47920.13
591.51	48226.74
591.67	48212.70
591.83	48079.28
591.99	48088.65
592.15	48083.97
592.31	47807.78
592.46	48081.63
592.62	48079.28
592.78	48119.07
592.94	48580.16
593.10	48107.37
593.26	48301.64
593.41	48200.99
593.57	48069.92
593.73	48009.07
593.89	48474.84
594.05	48582.50
594.20	48311.00
594.36	48341.42
594.52	47943.53
594.68	48072.26
594.84	47915.45
594.99	48334.40
595.15	48114.39
595.31	48451.43
595.47	48240.78
595.62	48189.29
595.78	48296.95
595.94	48058.22
596.10	48250.14
596.25	48266.53
596.41	48215.04
596.57	47983.32
596.73	48371.85
596.88	48390.58
597.04	48540.37
597.20	48311.00
597.36	47955.24
597.51	48170.57
597.67	48051.20
597.83	47992.68
597.99	48051.20
598.14	47903.74
598.30	48051.20
598.46	48163.54
598.61	48313.34
598.77	48882.09
598.93	48584.84
599.09	48072.26
599.24	48545.05
599.40	48428.02
599.56	48629.31
599.71	48577.82
599.87	48907.83
600.03	48112.05
600.18	48231.42
600.34	48205.67
600.50	47969.28
600.65	48140.14
600.81	49029.54
600.97	48821.23
601.12	48605.91
601.28	48055.88
601.44	48126.10
601.59	47992.68
601.75	48280.57
601.91	48655.06
602.06	48170.57
602.22	48175.25
602.37	48336.74
602.53	48320.36
602.69	48090.99
602.84	48186.95
603.00	48154.18
603.16	48362.49
603.31	48442.07
603.47	48404.62
603.62	48364.83
603.78	48416.32
603.94	48360.15
604.09	48545.05
604.25	48390.58
604.40	48151.84
604.56	48336.74
604.71	48678.46
604.87	48470.15
605.03	48261.85
605.18	48086.31
605.34	48582.50
605.49	48140.14
605.65	48252.48
605.80	48278.23
605.96	48285.25
606.12	48130.78
606.27	48435.05
606.43	47908.43
606.58	48428.02
606.74	48491.22
606.89	48428.02
607.05	48336.74
607.20	48381.21
607.36	48271.21
607.51	47955.24
607.67	48137.80
607.82	48140.14
607.98	48458.45
608.13	48348.45
608.29	48383.55
608.44	48093.33
608.60	47945.87
608.75	48446.75
608.91	47899.06
609.06	47828.85
609.22	48327.38
609.37	47833.53
609.53	48311.00
609.68	48587.18
609.84	47887.36
609.99	47978.64
610.15	48285.25
610.30	48119.07
610.46	48090.99
610.61	47927.15
610.76	48215.04
610.92	47880.34
611.07	47976.30
611.23	47714.16
611.38	47592.45
611.54	47924.81
611.69	47983.32
611.84	48175.25
612.00	48329.72
612.15	47971.62
612.31	48348.45
612.46	47550.32
612.62	47917.79
612.77	47791.40
612.92	48268.87
613.08	47845.23
613.23	47775.02
613.39	47622.88
613.54	47512.88
613.69	47798.42
613.85	47676.71
614.00	47786.72
614.15	47849.91
614.31	47416.91
614.46	47592.45
614.62	47611.18
614.77	47606.50
614.92	47707.14
615.08	47604.16
615.23	47901.40
615.38	47938.85
615.54	47718.84
615.69	47585.43
615.84	47550.32
616.00	47817.14
616.15	47580.75
616.30	47615.86
616.46	47777.36
616.61	47646.29
616.76	47547.98
616.92	47702.46
617.07	47445.00
617.22	47281.16
617.37	47030.72
617.53	47402.87
617.68	47040.09
617.83	46930.08
617.99	48013.75
618.14	47498.83
618.29	47398.19
618.45	46721.77
618.60	46906.68
618.75	46782.63
618.90	47012.00
619.06	47061.15
619.21	47150.09
619.36	47105.62
619.51	46600.07
619.67	46850.50
619.82	46974.55
619.97	46902.00
620.12	47215.63
620.28	47173.50
620.43	47124.35
620.58	47203.92
620.73	46925.40
620.89	47367.76
621.04	47152.43
621.19	46714.75
621.34	46983.91
621.49	46862.21
621.65	46880.93
621.80	47246.05
621.95	47346.70
622.10	47250.74
622.25	46511.13
622.41	46447.93
622.56	46761.56
622.71	47047.11
622.86	46939.44
623.01	46969.87
623.16	46408.14
623.32	46728.80
623.47	46948.81
623.62	46822.42
623.77	46478.36
623.92	46443.25
624.07	46714.75
624.23	46644.54
624.38	46595.38
624.53	46546.23
624.68	46728.80
624.83	46429.21
624.98	46738.16
625.13	46120.26
625.29	46225.58
625.44	46368.35
625.59	46361.33
625.74	45897.91
625.89	45713.00
626.04	46398.78
626.19	46033.66
626.34	46003.23
626.49	45883.86
626.65	45528.10
626.80	46120.26
626.95	45925.99
627.10	45879.18
627.25	46382.40
627.40	46167.07
627.55	46188.13
627.70	45780.88
627.85	46099.19
628.00	46188.13
628.15	46471.34
628.30	45446.18
628.45	45354.90
628.60	45729.39
628.76	45888.54
628.91	45649.81
629.06	45631.08
629.21	45563.21
629.36	45661.51
629.51	45823.01
629.66	45832.37
629.81	45745.77
629.96	46010.25
630.11	45558.53
630.26	45888.54
630.41	45734.07
630.56	45500.01
630.71	45390.01
630.86	45574.91
631.01	44856.37
631.16	45268.30
631.31	45212.13
631.46	45331.50
631.61	45942.38
631.76	45638.11
631.91	45411.07
632.06	45425.12
632.21	45371.28
632.36	45991.53
632.51	45521.08
632.66	45500.01
632.81	45172.34
632.96	45081.06
633.10	44919.56
633.25	44697.21
633.40	44865.73
633.55	45352.56
633.70	45329.16
633.85	44758.06
634.00	44811.90
634.15	44397.62
634.30	44842.32
634.45	44856.37
634.60	44905.52
634.75	44903.18
634.90	44811.90
635.05	45024.89
635.19	44830.62
635.34	44928.92
635.49	44992.12
635.64	44664.44
635.79	44711.25
635.94	44795.51
636.09	44395.28
636.24	44758.06
636.39	44285.28
636.53	44706.57
636.68	44767.43
636.83	44250.17
636.98	44327.41
637.13	44203.36
637.28	43847.60
637.43	44250.17
637.57	44435.07
637.72	43978.67
637.87	44428.05
638.02	44013.77
638.17	44196.34
638.32	44383.58
638.46	43688.44
638.61	44025.48
638.76	44034.84
638.91	44217.40
639.06	43976.33
639.20	43950.58
639.35	44046.54
639.50	43613.54
639.65	44196.34
639.80	44568.48
639.94	44217.40
640.09	44020.80
640.24	44023.14
640.39	43704.82
640.54	43540.99
640.68	44126.12
640.83	43971.64
640.98	43646.31
641.13	43833.55
641.27	43807.81
641.42	43938.88
641.57	43650.99
641.72	44144.84
641.86	43416.94
642.01	43683.76
642.16	43487.15
642.31	43105.65
642.45	43753.97
642.60	43000.32
642.75	43171.18
642.90	43433.32
643.04	44194.00
643.19	43353.74
643.34	43445.02
643.48	42988.62
643.63	43344.38
643.78	43058.84
643.93	43840.57
644.07	43463.75
644.22	43171.18
644.37	43269.48
644.51	43063.52
644.66	43068.20
644.81	43278.85
644.95	43138.41
645.10	42852.87
645.25	42752.23
645.39	42806.06
645.54	42801.38
645.69	42810.74
645.83	42492.43
645.98	42955.85
646.13	42735.84
646.27	43297.57
646.42	42721.80
646.57	43035.43
646.71	43021.39
646.86	43002.66
647.00	43171.18
647.15	42972.24
647.30	42485.40
647.44	42792.01
647.59	42487.74
647.74	42988.62
647.88	42773.29
648.03	42890.32
648.17	43220.33
648.32	42731.16
648.47	42920.74
648.61	42670.31
648.76	42518.17
648.90	42356.67
649.05	42396.46
649.20	42564.98
649.34	42597.75
649.49	42775.63
649.63	42768.61
649.78	42628.18
649.92	42511.15
650.07	42696.05
650.21	42586.05
650.36	42784.99
650.51	42504.13
650.65	42890.32
650.80	42609.45
650.94	42539.24
651.09	42337.95
651.23	41741.11
651.38	41991.55
651.52	41895.59
651.67	42691.37
651.81	41757.50
651.96	41813.67
652.10	42232.63
652.25	42263.05
652.39	42094.53
652.54	41937.72
652.68	41724.73
652.83	41804.31
652.97	42143.69
653.12	41738.77
653.26	41612.38
653.41	42000.91
653.55	41694.30
653.70	42075.81
653.84	41830.05
653.99	41986.87
654.13	41811.33
654.27	41930.70
654.42	41911.97
654.56	41170.02
654.71	41860.48
654.85	41724.73
655.00	41750.48
655.14	41895.59
655.29	41722.39
655.43	42061.77
655.57	41226.20
655.72	41378.33
655.86	41380.67
656.01	41216.83
656.15	40687.87
656.30	41118.53
656.44	41282.37
656.58	41490.68
656.73	41415.78
656.87	41038.95
657.01	41170.02
657.16	41191.09
657.30	41319.82
657.45	41242.58
657.59	41055.34
657.73	40519.35
657.88	40907.88
658.02	41289.39
658.16	41422.80
658.31	41392.37
658.45	40898.52
658.60	40411.69
658.74	41130.23
658.88	40924.27
659.03	40376.58
659.17	40437.44
659.31	40481.91
659.46	40502.97
659.60	40343.81
659.74	40172.96
659.89	40535.74
660.03	40051.25
660.17	40226.79
660.32	40439.78
660.46	40514.67
660.60	39622.93
660.74	40191.68
660.89	40399.99
661.03	39849.96
661.17	39583.14
661.32	39957.63
661.46	39885.07
661.60	39768.04
661.74	39618.25
661.89	39922.52
662.03	39721.23
662.17	39379.51
662.31	39545.69
662.46	39690.80
662.60	39468.45
662.74	39363.13
662.88	39054.18
663.03	38951.20
663.17	38682.03
663.31	38951.20
663.45	39014.39
663.60	39257.81
663.74	38955.88
663.88	38888.00
664.02	38504.15
664.17	39016.73
664.31	38810.76
664.45	38904.38
664.59	39058.86
664.73	38705.44
664.88	38789.70
665.02	38291.16
665.16	38253.72
665.30	38593.09
665.44	38263.08
665.59	38064.13
665.73	38181.16
665.87	38045.41
666.01	38300.53
666.15	38227.97
666.29	37799.65
666.44	38471.39
666.58	38012.64
666.72	37961.15
666.86	37294.10
667.00	37855.82
667.14	37624.11
667.28	37581.98
667.43	37464.96
667.57	38082.86
667.71	37558.58
667.85	37268.35
667.99	37352.61
668.13	37329.20
668.27	37043.66
668.41	36779.18
668.56	36825.99
668.70	37160.69
668.84	36723.01
668.98	36477.25
669.12	36622.36
669.26	36573.21
669.40	36809.61
669.54	36577.89
669.68	36800.24
669.82	36264.26
669.96	36444.48
670.10	36175.32
670.25	36292.35
670.39	36400.01
670.53	36400.01
670.67	36250.22
670.81	36453.84
670.95	35945.95
671.09	36123.83
671.23	35725.94
671.37	36465.55
671.51	35707.21
671.65	35885.09
671.79	35732.96
671.93	35791.47
672.07	35702.53
672.21	35208.68
672.35	35000.37
672.49	35253.15
672.63	35236.77
672.77	34885.68
672.91	35330.39
673.05	34724.19
673.19	35215.70
673.33	34424.60
673.47	34817.81
673.61	34469.07
673.75	34590.78
673.89	34415.24
674.03	34225.65
674.17	34003.30
674.31	34614.18
674.45	33841.81
674.59	34117.99
674.73	33888.62
674.87	33837.12
675.01	34052.45
675.15	33923.72
675.29	33574.98
675.43	33769.25
675.56	33748.18
675.70	33570.30
675.84	33380.72
675.98	32334.50
676.12	33228.59
676.26	33263.69
676.40	33055.39
676.54	32835.38
676.68	32882.19
676.82	32889.21
676.96	32587.28
677.10	32711.33
677.23	33298.80
677.37	32559.19
677.51	32086.40
677.65	32378.97
677.79	32177.68
677.93	31917.89
678.07	31669.79
678.21	31470.84
678.34	31730.64
678.48	31587.87
678.62	31552.76
678.76	31311.69
678.90	31180.62
679.04	31297.64
679.18	31166.57
679.31	30820.17
679.45	31138.49
679.59	30986.35
679.73	31129.12
679.87	30646.97
680.00	30829.54
680.14	30775.70
680.28	30483.14
680.42	30567.40
680.56	30256.11
680.70	30120.35
680.83	30464.41
680.97	30059.50
681.11	29905.02
681.25	29797.36
681.39	29701.40
681.52	29312.87
681.66	29214.57
681.80	29179.46
681.94	28830.72
682.07	29024.98
682.21	28460.91
682.35	28517.09
682.49	28701.99
682.62	28730.08
682.76	28732.42
682.90	28591.98
683.04	28512.41
683.17	28510.07
683.31	28032.60
683.45	27843.01
683.59	27742.37
683.72	28053.66
683.86	27824.29
684.00	27646.41
684.13	27878.12
684.27	27388.95
684.41	27049.57
684.55	27332.78
684.68	27510.66
684.82	27049.57
684.96	27391.29
685.09	26920.84
685.23	27332.78
685.37	27391.29
685.50	27014.46
685.64	26834.24
685.78	26235.06
685.91	26403.58
686.05	25937.82
686.19	25720.15
686.32	25727.17
686.46	25874.62
686.60	25474.39
686.73	25795.04
686.87	25834.83
687.01	25806.75
687.14	25727.17
687.28	25333.96
687.42	25280.13
687.55	25146.72
687.69	25067.14
687.82	25191.19
687.96	24760.53
688.10	25268.42
688.23	24898.62
688.37	25212.25
688.50	25078.84
688.64	24779.25
688.78	24489.03
688.91	24357.96
689.05	24381.36
689.18	24135.60
689.32	23768.14
689.46	23957.72
689.59	23833.68
689.73	24205.82
689.86	24212.84
690.00	23742.39
690.13	23953.04
690.27	23466.21
690.41	23697.92
690.54	23037.89
690.68	22948.95
690.81	23166.62
690.95	23016.83
691.08	22862.35
691.22	22579.15
691.35	22675.11
691.49	22806.18
691.62	22799.16
691.76	22185.94
691.89	22164.87
692.03	21834.86
692.16	22249.13
692.30	22328.71
692.43	21722.51
692.57	21577.40
692.70	21872.31
692.84	21582.08
692.97	21254.40
693.11	21008.65
693.24	21418.24
693.38	21451.01
693.51	21074.18
693.65	21027.37
693.78	20950.14
693.92	20957.16
694.05	20657.57
694.19	20779.28
694.32	20662.25
694.45	20805.02
694.59	20744.17
694.72	20769.91
694.86	20418.83
694.99	20084.14
695.13	19924.98
695.26	19737.74
695.39	19800.93
695.53	20079.46
695.66	20119.24
695.80	19681.56
695.93	19536.45
696.07	19709.65
696.20	19274.31
696.33	18948.98
696.47	18995.79
696.60	19056.64
696.73	19131.54
696.87	19311.76
697.00	18827.27
697.14	18661.09
697.27	18541.72
697.40	18834.29
697.54	18525.34
697.67	18434.06
697.80	18534.70
697.94	18349.80
698.07	18345.12
698.21	18146.17
698.34	18230.43
698.47	17958.93
698.61	17612.53
698.74	17570.40
698.87	17298.90
699.01	17429.97
699.14	17376.14
699.27	17441.67
699.40	17315.28
699.54	17308.26
699.67	17312.94
699.80	17013.35
699.94	17032.08
700.07	17060.16
700.20	16889.31
700.34	16603.76
700.47	16985.27
700.60	16807.39
700.73	16592.06
700.87	16432.90
701.00	16402.47
701.13	16269.06
701.26	16563.97
701.40	16212.89
701.53	15882.88
701.66	16149.70
701.79	16240.98
701.93	15894.58
702.06	15672.23
702.19	15651.16
702.32	15758.83
702.46	15562.22
702.59	15779.89
702.72	15829.04
702.85	15704.99
702.99	15318.81
703.12	15176.03
703.25	15044.96
703.38	15026.24
703.51	14864.74
703.65	14956.02
703.78	14750.06
703.91	14471.53
704.04	14544.09
704.17	14595.58
704.31	14635.37
704.44	14354.51
704.57	14375.57
704.70	14501.96
704.83	14232.80
704.96	14024.49
705.10	14164.92
705.23	13926.19
>>>>>End Processed Spectral Data<<<<<
