SpectraSuite Data File
++++++++++++++++++++++++++++++++++++
Date: Fri Oct 25 10:43:30 EDT 2013
User: price-jones
Dark Spectrum Present: No
Reference Spectrum Present: No
Number of Sampled Component Spectra: 1
Spectrometers: USB2+H05261
Integration Time (usec): 100000 (USB2+H05261)
Spectra Averaged: 1 (USB2+H05261)
Boxcar Smoothing: 0 (USB2+H05261)
Correct for Electrical Dark: No (USB2+H05261)
Strobe/Lamp Enabled: No (USB2+H05261)
Correct for Detector Non-linearity: No (USB2+H05261)
Correct for Stray Light: No (USB2+H05261)
Number of Pixels in Processed Spectrum: 2048
>>>>>Begin Processed Spectral Data<<<<<
365.73	175.54
365.92	175.54
366.12	175.54
366.32	56.17
366.52	44.47
366.72	32.77
366.91	11.70
367.11	0.00
367.31	0.00
367.51	0.00
367.70	0.00
367.90	0.00
368.10	51.49
368.30	7.02
368.49	18.72
368.69	16.38
368.89	84.26
369.09	0.00
369.28	63.19
369.48	39.79
369.68	110.01
369.87	133.41
370.07	81.92
370.27	152.13
370.47	224.69
370.66	407.25
370.86	461.09
371.06	503.22
371.25	484.49
371.45	435.34
371.65	451.72
371.84	444.70
372.04	442.36
372.24	454.06
372.44	451.72
372.63	554.71
372.83	550.03
373.03	510.24
373.22	500.87
373.42	472.79
373.62	503.22
373.81	535.98
374.01	500.87
374.21	627.26
374.40	496.19
374.60	585.13
374.79	585.13
374.99	578.11
375.19	615.56
375.38	566.41
375.58	447.04
375.78	683.44
375.97	594.50
376.17	613.22
376.37	587.47
376.56	624.92
376.76	638.97
376.95	648.33
377.15	655.35
377.35	664.71
377.54	681.10
377.74	552.37
377.93	617.90
378.13	676.41
378.33	704.50
378.52	587.47
378.72	596.84
378.91	641.31
379.11	681.10
379.31	613.22
379.50	709.18
379.70	725.57
379.89	727.91
380.09	678.76
380.28	622.58
380.48	664.71
380.68	692.80
380.87	650.67
381.07	697.48
381.26	753.65
381.46	720.88
381.65	777.06
381.85	730.25
382.04	692.80
382.24	688.12
382.43	704.50
382.63	692.80
382.83	664.71
383.02	734.93
383.22	753.65
383.41	716.20
383.61	732.59
383.80	784.08
384.00	746.63
384.19	784.08
384.39	739.61
384.58	748.97
384.78	779.40
384.97	795.78
385.17	763.01
385.36	816.85
385.56	744.29
385.75	734.93
385.95	854.30
386.14	777.06
386.34	823.87
386.53	905.79
386.72	856.64
386.92	901.11
387.11	830.89
387.31	905.79
387.50	826.21
387.70	901.11
387.89	931.53
388.09	889.40
388.28	910.47
388.48	854.30
388.67	901.11
388.86	873.02
389.06	938.55
389.25	943.24
389.45	992.39
389.64	971.32
389.84	1071.97
390.03	987.71
390.22	1039.20
390.42	976.00
390.61	983.02
390.81	994.73
391.00	1067.28
391.19	1078.99
391.39	1027.50
391.58	1043.88
391.78	968.98
391.97	1020.47
392.16	943.24
392.36	1055.58
392.55	980.68
392.75	983.02
392.94	903.45
393.13	1029.84
393.33	971.32
393.52	1018.13
393.71	1100.05
393.91	1146.86
394.10	1071.97
394.29	1125.80
394.49	1191.33
394.68	1174.95
394.88	1165.59
395.07	1313.04
395.26	1198.35
395.46	1139.84
395.65	1210.06
395.84	1268.57
396.04	1116.44
396.23	1207.72
396.42	1151.54
396.62	1100.05
396.81	1207.72
397.00	1228.78
397.19	1364.53
397.39	1364.53
397.58	1387.94
397.77	1416.02
397.97	1444.11
398.16	1376.24
398.35	1383.26
398.55	1437.09
398.74	1493.26
398.93	1551.78
399.12	1528.37
399.32	1598.59
399.51	1584.54
399.70	1603.27
399.90	1547.09
400.09	1640.72
400.28	1586.88
400.47	1631.35
400.67	1647.74
400.86	1607.95
401.05	1598.59
401.24	1708.59
401.44	1650.08
401.63	1717.95
401.82	1724.97
402.01	1654.76
402.21	1619.65
402.40	1746.04
402.59	1678.16
402.78	1741.36
402.97	1687.53
403.17	1804.55
403.36	1778.81
403.55	1916.90
403.74	1933.28
403.93	1881.79
404.13	1799.87
404.32	1912.22
404.51	1722.63
404.70	1956.69
404.89	1987.11
405.09	1902.86
405.28	2024.56
405.47	1942.64
405.66	1895.83
405.85	1980.09
406.05	1970.73
406.24	1994.14
406.43	2099.46
406.62	2073.71
406.81	2134.57
407.00	2001.16
407.20	1930.94
407.39	2005.84
407.58	2134.57
407.77	2190.74
407.96	2176.70
408.15	2272.66
408.34	2279.68
408.54	2298.41
408.73	2211.81
408.92	2282.02
409.11	2244.57
409.30	2279.68
409.49	2256.28
409.68	2232.87
409.87	2260.96
410.07	2370.96
410.26	2321.81
410.45	2354.58
410.64	2279.68
410.83	2565.23
411.02	2476.29
411.21	2609.70
411.40	2520.76
411.59	2593.31
411.78	2583.95
411.98	2593.31
412.17	2693.96
412.36	2597.99
412.55	2668.21
412.74	2775.88
412.93	2647.15
413.12	2764.17
413.31	2871.84
413.50	2834.39
413.69	2911.63
413.88	2991.20
414.07	2839.07
414.26	2841.41
414.45	2977.16
414.64	2972.48
414.83	3073.12
415.02	3019.29
415.22	3030.99
415.41	3080.14
415.60	3030.99
415.79	3293.13
415.98	3138.66
416.17	3192.49
416.36	3084.83
416.55	3215.90
416.74	3279.09
416.93	3234.62
417.12	3215.90
417.31	3253.34
417.50	3375.05
417.69	3478.04
417.88	3440.59
418.07	3307.18
418.26	3456.97
418.45	3562.30
418.64	3487.40
418.83	3595.06
419.02	3712.09
419.21	3559.95
419.39	3602.08
419.58	3478.04
419.77	3566.98
419.96	3676.98
420.15	3672.30
420.34	3712.09
420.53	3735.50
420.72	3768.26
420.91	3744.86
421.10	3730.81
421.29	4067.85
421.48	3892.31
421.67	3838.48
421.86	3772.94
422.05	3810.39
422.24	3798.69
422.43	3768.26
422.61	3955.51
422.80	3927.42
422.99	3875.93
423.18	3971.89
423.37	3875.93
423.56	3927.42
423.75	3962.53
423.94	3932.10
424.13	3721.45
424.32	3854.86
424.50	4046.79
424.69	4065.51
424.88	4016.36
425.07	3946.14
425.26	3822.09
425.45	3974.23
425.64	3960.19
425.83	3927.42
426.01	3974.23
426.20	3997.64
426.39	3997.64
426.58	4002.32
426.77	3981.25
426.96	3840.82
427.15	4002.32
427.33	4058.49
427.52	4014.02
427.71	4023.38
427.90	4320.63
428.09	4107.64
428.28	4119.34
428.46	4259.78
428.65	4133.39
428.84	4322.97
429.03	4175.52
429.22	4002.32
429.40	4198.92
429.59	4046.79
429.78	3990.61
429.97	3889.97
430.16	4149.77
430.34	4063.17
430.53	4337.01
430.72	4056.15
430.91	4173.18
431.10	4264.46
431.28	4603.83
431.47	4540.64
431.66	4744.27
431.85	4500.85
432.03	4660.01
432.22	4734.90
432.41	4629.58
432.60	4643.62
432.79	4711.50
432.97	4655.33
433.16	4690.43
433.35	4641.28
433.54	4641.28
433.72	4744.27
433.91	4674.05
434.10	4753.63
434.28	4755.97
434.47	4858.95
434.66	4905.76
434.85	4922.15
435.03	4915.12
435.22	5022.79
435.41	5046.20
435.59	5200.67
435.78	4910.44
435.97	5071.94
436.16	5210.03
436.34	5135.14
436.53	5128.11
436.72	5170.24
436.90	5097.69
437.09	5107.05
437.28	5036.83
437.46	5095.35
437.65	4954.91
437.84	5130.45
438.02	5083.64
438.21	4968.96
438.40	5050.88
438.58	5259.18
438.77	5373.87
438.96	5357.49
439.14	5371.53
439.33	5516.64
439.52	5668.78
439.70	5502.60
439.89	5647.71
440.08	5626.65
440.26	5689.84
440.45	5701.54
440.63	5963.68
440.82	6054.97
441.01	5942.62
441.19	6059.65
441.38	6108.80
441.57	5996.45
441.75	6106.46
441.94	6258.59
442.12	6319.45
442.31	6338.17
442.50	6476.26
442.68	6363.92
442.87	6200.08
443.05	6244.55
443.24	6324.13
443.43	6438.81
443.61	6422.43
443.80	6630.74
443.98	6352.21
444.17	6263.27
444.35	6527.75
444.54	6654.14
444.73	6558.18
444.91	6375.62
445.10	6525.41
445.28	6434.13
445.47	6204.76
445.65	6424.77
445.84	6544.14
446.02	6637.76
446.21	6544.14
446.39	6525.41
446.58	6642.44
446.77	6600.31
446.95	6590.95
447.14	6612.01
447.32	6696.27
447.51	6565.20
447.69	6490.31
447.88	6637.76
448.06	6834.36
448.25	6771.17
448.43	6820.32
448.62	6689.25
448.80	6595.63
448.99	6677.55
449.17	6965.43
449.36	6841.39
449.54	6995.86
449.73	7166.72
449.91	7129.27
450.10	7133.95
450.28	7162.04
450.46	7199.49
450.65	7227.57
450.83	7101.19
451.02	7133.95
451.20	7225.23
451.39	7300.13
451.57	6944.37
451.76	7094.16
451.94	6972.46
452.13	7204.17
452.31	7293.11
452.49	7000.54
452.68	7279.07
452.86	7328.22
453.05	7098.84
453.23	7162.04
453.42	7368.01
453.60	7356.30
453.78	7372.69
453.97	7293.11
454.15	7456.95
454.34	7232.26
454.52	7543.55
454.70	7653.55
454.89	7482.69
455.07	7470.99
455.26	7702.70
455.44	7798.66
455.62	7882.92
455.81	7606.74
455.99	7737.81
456.17	7765.90
456.36	7826.75
456.54	7873.56
456.73	7988.25
456.91	8124.00
457.09	8297.20
457.28	8271.45
457.46	7974.21
457.64	8072.51
457.83	8077.19
458.01	8081.87
458.19	8339.33
458.38	8138.04
458.56	8198.90
458.74	8049.10
458.93	8315.92
459.11	8234.00
459.29	8236.35
459.48	8250.39
459.66	8152.09
459.84	8491.46
460.03	8610.83
460.21	8500.83
460.39	8393.16
460.57	8411.89
460.76	8674.03
460.94	8444.65
461.12	8652.96
461.31	8664.66
461.49	8575.72
461.67	8493.80
461.85	8950.21
462.04	8695.09
462.22	9256.82
462.40	8961.91
462.59	8903.40
462.77	8870.63
462.95	9025.11
463.13	8933.82
463.32	8917.44
463.50	9142.13
463.68	9020.42
463.86	8858.93
464.05	8891.70
464.23	8908.08
464.41	9153.84
464.59	8748.92
464.78	9046.17
464.96	9071.92
465.14	9046.17
465.32	9057.87
465.50	9242.78
465.69	9322.35
465.87	9231.07
466.05	9104.68
466.23	9123.41
466.41	8987.66
466.60	9217.03
466.78	9025.11
466.96	9226.39
467.14	9268.52
467.32	9383.21
467.51	9462.79
467.69	9291.93
467.87	9324.69
468.05	9427.68
468.23	9495.55
468.41	9341.08
468.60	9605.56
468.78	9586.83
468.96	9600.88
469.14	9827.91
469.32	9647.69
469.50	9329.38
469.69	9699.18
469.87	9804.50
470.05	9533.00
470.23	9671.09
470.41	9767.06
470.59	9874.72
470.77	9811.53
470.95	9912.17
471.14	9902.81
471.32	9823.23
471.50	10134.52
471.68	10314.74
471.86	10092.39
472.04	10457.51
472.22	10420.06
472.40	10260.91
472.58	10347.51
472.77	10349.85
472.95	10501.98
473.13	10705.61
473.31	10485.60
473.49	10626.03
473.67	10478.58
473.85	10780.51
474.03	10932.64
474.21	10953.71
474.39	10998.18
474.57	10822.64
474.75	10867.11
474.93	11213.51
475.12	11265.00
475.30	11229.89
475.48	11122.23
475.66	11367.98
475.84	11335.21
476.02	11506.07
476.20	11087.12
476.38	11403.09
476.56	12173.13
476.74	11805.66
476.92	11808.00
477.10	11765.87
477.28	12030.35
477.46	12063.12
477.64	12006.95
477.82	12327.60
478.00	12505.48
478.18	12416.54
478.36	12451.65
478.54	12353.35
478.72	12772.30
478.90	12877.63
479.08	12833.16
479.26	12755.92
479.44	13165.51
479.62	13352.76
479.80	13221.69
479.98	13465.10
480.16	13811.50
480.34	13418.29
480.52	13954.27
480.70	13511.91
480.88	13460.42
481.06	13799.80
481.24	13905.12
481.41	14143.86
481.59	14609.62
481.77	14118.11
481.95	14211.73
482.13	14546.43
482.31	14310.04
482.49	14719.63
482.67	14792.19
482.85	14916.23
483.03	15281.36
483.21	15578.61
483.39	15272.00
483.57	15164.33
483.74	15447.54
483.92	15393.70
484.10	15384.34
484.28	15728.40
484.46	16027.99
484.64	16088.84
484.82	16027.99
485.00	16067.78
485.18	16297.15
485.35	16255.02
485.53	16166.08
485.71	16105.23
485.89	16624.83
486.07	16304.17
486.25	16737.17
486.43	16767.60
486.61	16570.99
486.78	17137.40
486.96	17256.77
487.14	17308.26
487.32	17528.27
487.50	17886.37
487.68	17799.77
487.85	18637.69
488.03	18209.37
488.21	18429.38
488.39	18380.23
488.57	18506.62
488.75	18801.52
488.92	19087.07
489.10	19183.03
489.28	19370.27
489.46	19953.07
489.64	19840.72
489.81	20009.24
489.99	20285.42
490.17	20107.54
490.35	20299.47
490.53	19939.02
490.70	20409.47
490.88	20528.84
491.06	20823.75
491.24	21029.71
491.41	20678.63
491.59	20638.84
491.77	20786.30
491.95	20627.14
492.13	21132.70
492.30	21647.61
492.48	21479.10
492.66	21874.65
492.84	21769.32
493.01	21949.54
493.19	21923.80
493.37	22153.17
493.54	22106.36
493.72	22438.72
493.90	22443.40
494.08	22845.97
494.25	22953.63
494.43	22813.20
494.61	23112.79
494.79	23520.04
494.96	23442.81
495.14	23398.34
495.32	23737.71
495.49	23510.68
495.67	23683.88
495.85	24016.24
496.02	24147.31
496.20	24299.44
496.38	24561.58
496.55	24575.62
496.73	24964.15
496.91	24620.10
497.09	24631.80
497.26	25092.88
497.44	25055.43
497.62	25350.34
497.79	25291.83
497.97	24865.85
498.14	24989.90
498.32	25568.01
498.50	25764.62
498.67	25972.92
498.85	25947.18
499.03	26326.35
499.20	25937.82
499.38	26075.91
499.56	26181.23
499.73	26389.54
499.91	26607.21
500.08	26508.91
500.26	26082.93
500.44	26689.13
500.61	26499.55
500.79	26309.96
500.97	26553.38
501.14	26925.52
501.32	26609.55
501.49	26988.72
501.67	27014.46
501.84	27147.87
502.02	27063.61
502.20	27328.10
502.37	27335.12
502.55	27718.96
502.72	27835.99
502.90	28023.23
503.07	27828.97
503.25	27913.23
503.43	28348.57
503.60	28102.81
503.78	27791.52
503.95	27843.01
504.13	28526.45
504.30	28383.68
504.48	28496.02
504.65	29043.71
504.83	28568.58
505.01	29160.73
505.18	29237.97
505.36	29371.38
505.53	29312.87
505.71	29692.04
505.88	29331.59
506.06	29022.64
506.23	29273.08
506.41	29738.85
506.58	29539.90
506.76	29839.49
506.93	29916.73
507.11	29956.52
507.28	30190.57
507.46	29888.64
507.63	29654.59
507.81	30101.63
507.98	29729.48
508.16	29837.15
508.33	30054.82
508.50	30494.84
508.68	30546.33
508.85	31161.89
509.03	30817.83
509.20	31192.32
509.38	31246.15
509.55	31101.04
509.73	31105.72
509.90	31381.90
510.08	31101.04
510.25	31337.43
510.42	31365.52
510.60	31901.50
510.77	31941.29
510.95	31751.71
511.12	31318.71
511.30	31807.88
511.47	32154.28
511.64	31866.39
511.82	32245.56
511.99	32273.65
512.17	32025.55
512.34	32163.64
512.51	32758.14
512.69	32484.30
512.86	32528.77
513.04	32748.78
513.21	32535.79
513.38	32875.16
513.56	32776.86
513.73	32744.09
513.90	32889.21
514.08	32959.42
514.25	33158.37
514.43	33153.69
514.60	33006.23
514.77	33053.05
514.95	33673.29
515.12	33270.72
515.29	33230.93
515.47	33708.40
515.64	33982.24
515.81	33425.19
515.99	33649.88
516.16	33617.11
516.33	33113.90
516.51	33399.44
516.68	33333.91
516.85	33174.75
517.03	33532.86
517.20	33514.13
517.37	34235.02
517.54	34330.98
517.72	33832.44
517.89	33890.96
518.06	33795.00
518.24	34005.64
518.41	33881.60
518.58	34368.43
518.75	34270.12
518.93	34581.42
519.10	34445.66
519.27	34726.53
519.45	34705.46
519.62	35035.48
519.79	35248.47
519.96	35178.25
520.14	35587.85
520.31	34565.03
520.48	35063.57
520.65	34843.56
520.83	35840.62
521.00	35725.94
521.17	35737.64
521.34	35648.70
521.52	35784.45
521.69	35709.55
521.86	35936.59
522.03	36149.57
522.20	36355.54
522.38	36081.70
522.55	36261.92
522.72	36121.49
522.89	36011.48
523.07	36304.05
523.24	36486.61
523.41	37153.66
523.58	36783.86
523.75	37226.22
523.92	36605.98
524.10	37006.21
524.27	36741.73
524.44	37006.21
524.61	36917.27
524.78	37528.15
524.96	37085.79
525.13	37443.89
525.30	37626.45
525.47	37539.85
525.64	37542.19
525.81	37422.83
525.98	37392.40
526.16	37064.72
526.33	37184.09
526.50	37340.91
526.67	37191.11
526.84	37242.60
527.01	36938.33
527.18	37397.08
527.36	38162.43
527.53	37682.62
527.70	38394.15
527.87	38452.66
528.04	37886.25
528.21	38284.14
528.38	38586.07
528.55	38490.11
528.72	38497.13
528.89	38747.57
529.07	38553.30
529.24	38340.32
529.41	38476.07
529.58	38693.74
529.75	38494.79
529.92	39054.18
530.09	38829.49
530.26	38899.70
530.43	39103.33
530.60	38742.89
530.77	38852.89
530.94	39676.76
531.11	38969.92
531.28	39154.82
531.46	39470.79
531.63	39246.10
531.80	39377.17
531.97	38979.28
532.14	39241.42
532.31	38850.55
532.48	39175.89
532.65	39449.73
532.82	38728.84
532.99	40187.00
533.16	39761.02
533.33	39739.96
533.50	39718.89
533.67	39793.79
533.84	39852.30
534.01	39849.96
534.18	39922.52
534.35	40364.88
534.52	39683.78
534.69	40327.43
534.86	40498.29
535.03	40552.12
535.20	40282.96
535.37	41003.85
535.54	40835.33
535.71	40271.26
535.88	40968.74
536.05	40041.88
536.22	40671.49
536.38	40793.20
536.55	40378.92
536.72	40524.04
536.89	40292.32
537.06	40631.70
537.23	41151.30
537.40	40905.54
537.57	40961.72
537.74	40722.98
537.91	41235.56
538.08	40964.06
538.25	40708.94
538.42	41233.22
538.59	41151.30
538.75	40629.36
538.92	41441.53
539.09	41553.87
539.26	41106.83
539.43	41371.31
539.60	41158.32
539.77	41172.36
539.94	41071.72
540.11	41476.63
540.28	41673.24
540.44	41581.96
540.61	41439.18
540.78	41593.66
540.95	41336.20
541.12	41214.49
541.29	42043.04
541.46	41460.25
541.62	41439.18
541.79	41654.51
541.96	41127.89
542.13	41390.03
542.30	41921.34
542.47	41876.86
542.63	41900.27
542.80	42057.09
542.97	42504.13
543.14	42061.77
543.31	41799.63
543.48	42562.64
543.64	43019.05
543.81	42777.97
543.98	42363.70
544.15	42607.11
544.32	42646.90
544.48	43033.09
544.65	42691.37
544.82	42939.47
544.99	42576.69
545.16	42583.71
545.32	42670.31
545.49	42958.19
545.66	43236.72
545.83	42972.24
546.00	42815.42
546.16	43250.76
546.33	42754.57
546.50	42469.02
546.67	43292.89
546.83	42646.90
547.00	43463.75
547.17	42656.26
547.34	42684.35
547.50	42962.87
547.67	43662.69
547.84	43349.06
548.00	43236.72
548.17	43489.49
548.34	43302.25
548.51	43515.24
548.67	43545.67
548.84	43332.68
549.01	43384.17
549.18	43461.41
549.34	43573.75
549.51	43917.81
549.68	43679.08
549.84	43505.88
550.01	43681.42
550.18	43564.39
550.34	43667.37
550.51	43718.87
550.68	43995.05
550.84	43463.75
551.01	43686.10
551.18	43810.15
551.34	43632.27
551.51	43943.56
551.68	43983.35
551.84	44219.74
552.01	44254.85
552.18	44353.15
552.34	43753.97
552.51	43793.76
552.68	44058.24
552.84	43943.56
553.01	44388.26
553.18	44346.13
553.34	44463.16
553.51	44250.17
553.67	44091.01
553.84	44725.30
554.01	44577.84
554.17	44744.02
554.34	44755.72
554.51	44704.23
554.67	44875.09
554.84	44112.08
555.00	44376.56
555.17	44435.07
555.33	44935.95
555.50	44580.18
555.67	44481.88
555.83	44634.02
556.00	44453.79
556.16	44641.04
556.33	44992.12
556.50	44907.86
556.66	44811.90
556.83	44507.63
556.99	44788.49
557.16	44945.31
557.32	44835.30
557.49	45155.96
557.65	44715.93
557.82	44797.85
557.98	44687.85
558.15	44842.32
558.32	44797.85
558.48	44189.31
558.65	45132.55
558.81	44847.00
558.98	44961.69
559.14	44701.89
559.31	44889.13
559.47	44617.63
559.64	45038.93
559.80	45296.39
559.97	45425.12
560.13	44285.28
560.30	45420.44
560.46	44989.78
560.63	45256.60
560.79	45694.28
560.96	45825.35
561.12	44973.39
561.29	44931.26
561.45	44636.36
561.61	45132.55
561.78	44704.23
561.94	45081.06
562.11	45296.39
562.27	44933.60
562.44	45207.45
562.60	45373.63
562.77	45076.38
562.93	45179.36
563.10	45593.64
563.26	45057.65
563.42	45406.39
563.59	45219.15
563.75	45411.07
563.92	45385.33
564.08	45359.58
564.24	45319.79
564.41	45670.87
564.57	44975.73
564.74	45462.57
564.90	45682.58
565.07	45572.57
565.23	45628.74
565.39	45427.46
565.56	45687.26
565.72	45167.66
565.88	45090.42
566.05	45237.87
566.21	45595.98
566.38	45556.19
566.54	45628.74
566.70	45670.87
566.87	45390.01
567.03	45507.04
567.19	46050.04
567.36	45708.32
567.52	45921.31
567.68	46223.24
567.85	45586.61
568.01	45593.64
568.17	45514.06
568.34	46038.34
568.50	45212.13
568.66	45151.27
568.83	46153.02
568.99	45179.36
569.15	45710.66
569.32	45301.07
569.48	45577.25
569.64	46274.73
569.81	45947.06
569.97	45741.09
570.13	45759.81
570.30	45331.50
570.46	45144.25
570.62	45530.44
570.78	45272.98
570.95	45326.81
571.11	45729.39
571.27	45111.49
571.43	45680.24
571.60	45333.84
571.76	45804.28
571.92	45968.12
572.09	45581.93
572.25	45804.28
572.41	45755.13
572.57	46061.74
572.74	46272.39
572.90	45610.02
573.06	45741.09
573.22	45343.20
573.38	45518.74
573.55	45675.55
573.71	45984.51
573.87	45876.84
574.03	45595.98
574.20	45916.63
574.36	45614.70
574.52	45783.22
574.68	45837.05
574.84	45556.19
575.01	45879.18
575.17	45610.02
575.33	45558.53
575.49	45507.04
575.65	46052.38
575.82	45804.28
575.98	46038.34
576.14	45858.12
576.30	45820.67
576.46	45766.84
576.62	45851.09
576.79	45408.73
576.95	45516.40
577.11	45860.46
577.27	45907.27
577.43	45965.78
577.59	45722.37
577.75	45605.34
577.92	45734.07
578.08	44816.58
578.24	45366.60
578.40	45390.01
578.56	45762.15
578.72	45790.24
578.88	46061.74
579.04	46520.49
579.21	45806.62
579.37	46309.84
579.53	46071.10
579.69	45350.22
579.85	45717.68
580.01	45670.87
580.17	45876.84
580.33	45815.99
580.49	45876.84
580.65	45603.00
580.82	46050.04
580.98	46073.45
581.14	45455.54
581.30	46094.51
581.46	45397.03
581.62	46124.94
581.78	45942.38
581.94	46153.02
582.10	45680.24
582.26	45860.46
582.42	45956.42
582.58	45790.24
582.74	45900.25
582.90	45778.54
583.06	46513.47
583.22	45652.15
583.38	45862.80
583.54	45727.05
583.70	46089.83
583.86	45869.82
584.02	45815.99
584.18	46167.07
584.34	46440.91
584.50	46169.41
584.66	45904.93
584.82	45656.83
584.98	46272.39
585.14	45696.62
585.30	45972.80
585.46	45867.48
585.62	45713.00
585.78	45893.22
585.94	45523.42
586.10	45780.88
586.26	45523.42
586.42	46277.07
586.58	46071.10
586.74	45970.46
586.90	45984.51
587.06	45778.54
587.22	46241.96
587.38	45876.84
587.54	45532.78
587.70	46258.35
587.86	45544.48
588.02	45921.31
588.18	46007.91
588.34	45394.69
588.49	45734.07
588.65	45322.13
588.81	45448.52
588.97	44928.92
589.13	45382.99
589.29	45296.39
589.45	45668.53
589.61	45975.14
589.77	46223.24
589.93	46143.66
590.08	46153.02
590.24	46157.70
590.40	46117.92
590.56	46527.51
590.72	45904.93
590.88	45911.95
591.04	46277.07
591.20	46204.52
591.35	46384.74
591.51	46155.36
591.67	46148.34
591.83	46253.67
591.99	46263.03
592.15	46094.51
592.31	46162.39
592.46	46110.89
592.62	46223.24
592.78	46330.90
592.94	46492.40
593.10	45925.99
593.26	46782.63
593.41	46087.49
593.57	45790.24
593.73	46354.31
593.89	46326.22
594.05	46356.65
594.20	46433.89
594.36	46113.23
594.52	46122.60
594.68	45963.44
594.84	45867.48
594.99	46377.72
595.15	45956.42
595.31	46375.37
595.47	46199.83
595.62	46171.75
595.78	46143.66
595.94	46363.67
596.10	46209.20
596.25	45986.85
596.41	45858.12
596.57	45984.51
596.73	46335.59
596.88	46234.94
597.04	46267.71
597.20	45998.55
597.36	46183.45
597.51	46251.33
597.67	46267.71
597.83	46288.77
597.99	46461.97
598.14	46115.58
598.30	46045.36
598.46	46337.93
598.61	46211.54
598.77	45865.14
598.93	46094.51
599.09	46234.94
599.24	46637.51
599.40	46218.56
599.56	46581.34
599.71	45921.31
599.87	46450.27
600.03	46052.38
600.18	45846.41
600.34	45724.71
600.50	46127.28
600.65	45872.16
600.81	45935.35
600.97	46426.87
601.12	46213.88
601.28	45886.20
601.44	46033.66
601.59	46061.74
601.75	45986.85
601.91	45794.92
602.06	45958.76
602.22	46677.30
602.37	46415.16
602.53	46253.67
602.69	46270.05
602.84	45823.01
603.00	46064.08
603.16	46028.98
603.31	46047.70
603.47	45965.78
603.62	45904.93
603.78	45975.14
603.94	45865.14
604.09	46223.24
604.25	45909.61
604.40	46293.46
604.56	46064.08
604.71	46342.61
604.87	46323.88
605.03	46141.32
605.18	45752.79
605.34	45986.85
605.49	45703.64
605.65	45989.19
605.80	45909.61
605.96	46099.19
606.12	45823.01
606.27	46253.67
606.43	45539.80
606.58	46005.57
606.74	45750.45
606.89	45507.04
607.05	45827.69
607.20	46075.79
607.36	45944.72
607.51	45998.55
607.67	45635.77
607.82	45947.06
607.98	45635.77
608.13	46038.34
608.29	45542.14
608.44	45170.00
608.60	45188.72
608.75	45605.34
608.91	45607.68
609.06	45443.84
609.22	45970.46
609.37	45577.25
609.53	45565.55
609.68	45563.21
609.84	45542.14
609.99	45287.03
610.15	45130.21
610.30	45483.63
610.46	45303.41
610.61	45326.81
610.76	45177.02
610.92	45509.38
611.07	45724.71
611.23	45902.59
611.38	45656.83
611.54	45439.16
611.69	45443.84
611.84	45387.67
612.00	45071.70
612.15	44732.32
612.31	45347.88
612.46	45265.96
612.62	45275.32
612.77	45130.21
612.92	45137.23
613.08	45228.51
613.23	45265.96
613.39	44898.50
613.54	44748.70
613.69	44912.54
613.85	44823.60
614.00	44573.16
614.15	44961.69
614.31	45167.66
614.46	45329.16
614.62	44765.09
614.77	44903.18
614.92	44957.01
615.08	44521.67
615.23	44556.78
615.38	44811.90
615.54	44587.21
615.69	44622.31
615.84	44692.53
616.00	44858.71
616.15	45036.59
616.30	44945.31
616.46	44416.35
616.61	44329.75
616.76	45123.19
616.92	44346.13
617.07	44769.77
617.22	43889.73
617.37	44053.56
617.53	44989.78
617.68	44383.58
617.83	44280.60
617.99	44507.63
618.14	44561.46
618.29	44353.15
618.45	44184.63
618.60	43969.30
618.75	43826.53
618.90	44062.93
619.06	44020.80
619.21	44294.64
619.36	44481.88
619.51	44172.93
619.67	44072.29
619.82	43978.67
619.97	44158.89
620.12	43988.03
620.28	43758.66
620.43	43725.89
620.58	44306.34
620.73	44072.29
620.89	44025.48
621.04	43959.94
621.19	44105.06
621.34	44528.69
621.49	43688.44
621.65	43604.18
621.80	44076.97
621.95	43763.34
622.10	43924.83
622.25	43892.07
622.41	43777.38
622.56	43384.17
622.71	43728.23
622.86	43849.94
623.01	43718.87
623.16	43842.92
623.32	43187.56
623.47	43622.90
623.62	43660.35
623.77	43122.03
623.92	43704.82
624.07	43414.60
624.23	42965.21
624.38	42962.87
624.53	42983.94
624.68	42993.30
624.83	43445.02
624.98	43157.14
625.13	42447.96
625.29	42902.02
625.44	43030.75
625.59	43000.32
625.74	42679.67
625.89	43033.09
626.04	42604.77
626.19	42883.30
626.34	42880.95
626.49	43658.01
626.65	43100.97
626.80	42777.97
626.95	42452.64
627.10	42244.33
627.25	42604.77
627.40	42298.16
627.55	42171.77
627.70	42843.51
627.85	42277.10
628.00	42864.57
628.15	42850.53
628.30	42384.76
628.45	42768.61
628.60	42550.94
628.76	42492.43
628.91	42433.91
629.06	42312.20
629.21	42340.29
629.36	41734.09
629.51	42272.42
629.66	42506.47
629.81	41755.16
629.96	42127.30
630.11	42176.45
630.26	42113.26
630.41	42543.92
630.56	42333.27
630.71	42237.31
630.86	42401.14
631.01	42068.79
631.16	41696.64
631.31	41780.90
631.46	41301.09
631.61	42029.00
631.76	42047.72
631.91	41628.77
632.06	42169.43
632.21	41801.97
632.36	41799.63
632.51	41567.91
632.66	41888.57
632.81	41394.71
632.96	41701.32
633.10	41446.21
633.25	41544.51
633.40	41598.34
633.55	41560.89
633.70	41689.62
633.85	41343.22
634.00	41710.69
634.15	41659.20
634.30	41432.16
634.45	41350.24
634.60	41207.47
634.75	41411.10
634.90	41439.18
635.05	41116.19
635.19	41268.33
635.34	41537.49
635.49	41366.63
635.64	41237.90
635.79	41174.70
635.94	41397.06
636.09	41413.44
636.24	40996.82
636.39	40734.68
636.53	40704.26
636.68	40615.32
636.83	40816.60
636.98	41237.90
637.13	40828.30
637.28	40992.14
637.43	41181.73
637.57	40898.52
637.72	40559.14
637.87	40811.92
638.02	40900.86
638.17	40926.61
638.32	40591.91
638.46	40804.90
638.61	40615.32
638.76	40505.31
638.91	40840.01
639.06	40371.90
639.20	40737.02
639.35	40912.56
639.50	40779.15
639.65	40811.92
639.80	40383.60
639.94	40540.42
640.09	40620.00
640.24	40299.34
640.39	39978.69
640.54	40238.49
640.68	40341.47
640.83	40364.88
640.98	39999.76
641.13	39803.15
641.27	40521.69
641.42	39796.13
641.57	39908.47
641.72	40123.80
641.86	39842.94
642.01	39814.85
642.16	39627.61
642.31	39679.10
642.45	40191.68
642.60	39693.15
642.75	39405.26
642.90	39585.48
643.04	39793.79
643.19	39775.06
643.34	39821.87
643.48	39309.30
643.63	39548.03
643.78	39400.58
643.93	39562.08
644.07	39784.43
644.22	39576.12
644.37	39480.16
644.51	39569.10
644.66	39887.41
644.81	39669.74
644.95	40027.84
645.10	39775.06
645.25	39585.48
645.39	39597.18
645.54	39438.03
645.69	39274.19
645.83	39344.41
645.98	39243.76
646.13	39278.87
646.27	39065.88
646.42	38878.64
646.57	38983.96
646.71	38845.87
646.86	39201.63
647.00	38993.32
647.15	38899.70
647.30	39000.35
647.44	38948.85
647.59	39147.80
647.74	38424.57
647.88	39019.07
648.03	38829.49
648.17	38965.24
648.32	39210.99
648.47	38885.66
648.61	38539.26
648.76	38848.21
648.90	38857.57
649.05	38543.94
649.20	39117.37
649.34	38525.22
649.49	38466.70
649.63	39005.03
649.78	38555.64
649.92	38682.03
650.07	38742.89
650.21	38782.68
650.36	38607.14
650.51	38731.18
650.65	38733.53
650.80	39227.38
650.94	38778.00
651.09	38431.60
651.23	38455.00
651.38	38307.55
651.52	38258.40
651.67	38160.09
651.81	38312.23
651.96	38033.71
652.10	38513.52
652.25	38253.72
652.39	38162.43
652.54	38232.65
652.68	37970.51
652.83	38040.73
652.97	38485.43
653.12	38129.67
653.26	37956.47
653.41	38101.58
653.55	38277.12
653.70	37773.91
653.84	38370.74
653.99	37390.06
654.13	38110.94
654.27	37876.89
654.42	37890.93
654.56	37610.07
654.71	37867.53
654.85	38103.92
655.00	37603.05
655.14	37493.04
655.29	37361.97
655.43	37345.59
655.57	37247.29
655.72	36797.90
655.86	37071.75
656.01	36982.80
656.15	36786.20
656.30	36996.85
656.44	36762.79
656.58	37127.92
656.73	37518.79
656.87	37055.36
657.01	36926.63
657.16	36987.49
657.30	36788.54
657.45	36538.10
657.59	36828.33
657.73	37043.66
657.88	37043.66
658.02	37099.83
658.16	37017.91
658.31	36926.63
658.45	37399.42
658.60	36870.46
658.74	36816.63
658.88	36996.85
659.03	36973.44
659.17	36617.68
659.31	36540.44
659.46	36219.79
659.60	36793.22
659.74	36641.09
659.89	36568.53
660.03	36273.62
660.17	36992.17
660.32	36465.55
660.46	36521.72
660.60	35894.46
660.74	36297.03
660.89	36275.96
661.03	36184.68
661.17	36737.05
661.32	35988.08
661.46	36278.30
661.60	35931.90
661.74	36044.25
661.89	35899.14
662.03	35945.95
662.17	35739.98
662.31	35906.16
662.46	36570.87
662.60	35957.65
662.74	35789.13
662.88	35901.48
663.03	35857.01
663.17	35424.01
663.31	35243.79
663.45	35138.46
663.60	35700.19
663.74	35498.91
663.88	35363.15
664.02	34988.67
664.17	35440.39
664.31	34876.32
664.45	34913.77
664.59	34855.26
664.73	35143.14
664.88	35044.84
665.02	34330.98
665.16	34586.10
665.30	34686.74
665.44	34424.60
665.59	34789.72
665.73	34466.73
665.87	34101.61
666.01	34623.54
666.15	34342.68
666.29	34389.49
666.44	34829.51
666.58	34487.79
666.72	34656.31
666.86	34225.65
667.00	34536.94
667.14	34087.56
667.28	33626.48
667.43	34316.93
667.57	34270.12
667.71	33837.12
667.85	33865.21
667.99	33802.02
668.13	33893.30
668.27	33867.55
668.41	34223.31
668.56	33525.83
668.70	33848.83
668.84	33387.74
668.98	33172.41
669.12	33373.70
669.26	33441.57
669.40	33006.23
669.54	32877.51
669.68	33301.14
669.82	33083.47
669.96	32863.46
670.10	32723.03
670.25	33186.46
670.39	32938.36
670.53	33139.65
670.67	32437.48
670.81	32830.69
670.95	32989.85
671.09	32872.82
671.23	32367.27
671.37	32613.02
671.51	32465.57
671.65	32072.36
671.79	31908.52
671.93	31796.18
672.07	32009.17
672.21	32147.26
672.35	31840.65
672.49	31585.53
672.63	32098.11
672.77	31714.26
672.91	31735.32
673.05	31674.47
673.19	31508.29
673.33	31243.81
673.47	31625.32
673.61	31323.39
673.75	31461.48
673.89	31314.03
674.03	31269.56
674.17	31063.59
674.31	31019.12
674.45	31208.70
674.59	31206.36
674.73	31136.15
674.87	31199.34
675.01	30981.67
675.15	30642.29
675.29	30939.54
675.43	30609.53
675.56	30703.15
675.70	30307.60
675.84	30478.46
675.98	29048.39
676.12	30213.98
676.26	30635.27
676.40	30071.20
676.54	30110.99
676.68	30478.46
676.82	29589.05
676.96	29404.15
677.10	29455.64
677.23	29930.77
677.37	29764.59
677.51	29542.24
677.65	29507.13
677.79	28982.85
677.93	28882.21
678.07	29071.79
678.21	28360.27
678.34	28748.80
678.48	28446.87
678.62	28500.70
678.76	28360.27
678.90	28168.35
679.04	28400.06
679.18	28196.43
679.31	27817.27
679.45	28044.30
679.59	27943.66
679.73	27854.72
679.87	27835.99
680.00	27857.06
680.14	27824.29
680.28	27828.97
680.42	27550.45
680.56	27786.84
680.70	27087.02
680.83	26649.34
680.97	27426.40
681.11	27094.04
681.25	27054.25
681.39	27360.86
681.52	27070.64
681.66	26780.41
681.80	26569.76
681.94	26794.45
682.07	26714.87
682.21	26434.01
682.35	26038.46
682.49	26370.82
682.62	26089.95
682.76	25982.29
682.90	25888.67
683.04	25944.84
683.17	25823.13
683.31	25713.13
683.45	25879.30
683.59	25614.82
683.72	25481.41
683.86	25553.97
684.00	25371.41
684.13	25193.53
684.27	25165.44
684.41	25376.09
684.55	24835.42
684.68	24709.04
684.82	24858.83
684.96	24767.55
685.09	24711.38
685.23	24493.71
685.37	24673.93
685.50	24652.86
685.64	24283.06
685.78	24107.52
685.91	24011.56
686.05	23817.29
686.19	23749.42
686.32	23988.15
686.46	23147.90
686.60	23073.00
686.73	23040.23
686.87	23005.13
687.01	23089.38
687.14	23124.49
687.28	22850.65
687.42	22796.82
687.55	22733.62
687.69	22787.46
687.82	22693.83
687.96	23101.09
688.10	22492.55
688.23	22417.65
688.37	22623.62
688.50	22265.52
688.64	22195.30
688.78	22443.40
688.91	22260.84
689.05	21905.07
689.18	21844.22
689.32	21612.51
689.46	21949.54
689.59	21949.54
689.73	22295.94
689.86	21818.47
690.00	21572.72
690.13	21551.65
690.27	20950.14
690.41	20968.86
690.54	21018.01
690.68	21231.00
690.81	21226.32
690.95	21322.28
691.08	20746.51
691.22	21212.28
691.35	20975.88
691.49	20699.70
691.62	20627.14
691.76	20842.47
691.89	20699.70
692.03	20575.65
692.16	20276.06
692.30	20236.27
692.43	20198.82
692.57	19892.21
692.70	19824.34
692.84	19901.58
692.97	19513.05
693.11	19747.10
693.24	19688.59
693.38	19578.58
693.51	19594.96
693.65	19346.87
693.78	19377.30
693.92	19349.21
694.05	19365.59
694.19	19321.12
694.32	19094.09
694.45	18977.06
694.59	19297.72
694.72	18991.11
694.86	18668.11
694.99	18565.13
695.13	18888.12
695.26	18427.04
695.39	18642.37
695.53	18810.89
695.66	18583.85
695.80	18412.99
695.93	18230.43
696.07	18108.72
696.20	18230.43
696.33	18244.48
696.47	17912.12
696.60	18017.44
696.73	17940.21
696.87	17902.76
697.00	17575.08
697.14	17518.91
697.27	17600.83
697.40	17343.37
697.54	17132.72
697.67	17359.75
697.80	17273.15
697.94	16692.70
698.07	16905.69
698.21	17039.10
698.34	17020.38
698.47	16912.71
698.61	16774.62
698.74	16690.36
698.87	16297.15
699.01	16664.61
699.14	16409.50
699.27	16442.26
699.40	16336.94
699.54	16116.93
699.67	15915.64
699.80	16042.03
699.94	15604.35
700.07	15953.09
700.20	16065.44
700.34	15932.03
700.47	15934.37
700.60	15634.78
700.73	15742.44
700.87	15520.09
701.00	15510.73
701.13	15344.55
701.26	15386.68
701.40	15400.72
701.53	15396.04
701.66	15330.51
701.79	15028.58
701.93	14764.10
702.06	14967.73
702.19	14855.38
702.32	14874.10
702.46	14939.64
702.59	14445.79
702.72	14736.01
702.85	14794.53
702.99	14703.25
703.12	14544.09
703.25	14424.72
703.38	14424.72
703.51	14157.90
703.65	14141.52
703.78	14108.75
703.91	13675.75
704.04	13844.27
704.17	13790.44
704.31	13813.84
704.44	13715.54
704.57	13783.41
704.70	13570.43
704.83	13703.84
704.96	13685.11
705.10	13317.65
705.23	13465.10
>>>>>End Processed Spectral Data<<<<<
