SpectraSuite Data File
++++++++++++++++++++++++++++++++++++
Date: Fri Oct 25 11:34:08 EDT 2013
User: price-jones
Dark Spectrum Present: No
Reference Spectrum Present: No
Number of Sampled Component Spectra: 1
Spectrometers: USB2+H05261
Integration Time (usec): 100000 (USB2+H05261)
Spectra Averaged: 1 (USB2+H05261)
Boxcar Smoothing: 0 (USB2+H05261)
Correct for Electrical Dark: No (USB2+H05261)
Strobe/Lamp Enabled: No (USB2+H05261)
Correct for Detector Non-linearity: No (USB2+H05261)
Correct for Stray Light: No (USB2+H05261)
Number of Pixels in Processed Spectrum: 2048
>>>>>Begin Processed Spectral Data<<<<<
365.73	243.42
365.92	243.42
366.12	243.42
366.32	182.56
366.52	173.20
366.72	264.48
366.91	182.56
367.11	194.26
367.31	131.07
367.51	147.45
367.70	184.90
367.90	224.69
368.10	208.31
368.30	236.39
368.49	135.75
368.69	208.31
368.89	166.18
369.09	168.52
369.28	325.33
369.48	208.31
369.68	252.78
369.87	220.01
370.07	252.78
370.27	245.76
370.47	325.33
370.66	360.44
370.86	575.77
371.06	540.66
371.25	510.24
371.45	526.62
371.65	514.92
371.84	547.69
372.04	540.66
372.24	561.73
372.44	606.20
372.63	580.45
372.83	613.22
373.03	545.34
373.22	599.18
373.42	643.65
373.62	608.54
373.81	535.98
374.01	610.88
374.21	648.33
374.40	685.78
374.60	688.12
374.79	580.45
374.99	692.80
375.19	688.12
375.38	676.41
375.58	667.05
375.78	667.05
375.97	709.18
376.17	669.39
376.37	636.63
376.56	643.65
376.76	669.39
376.95	643.65
377.15	734.93
377.35	643.65
377.54	706.84
377.74	681.10
377.93	676.41
378.13	737.27
378.33	681.10
378.52	704.50
378.72	678.76
378.91	744.29
379.11	667.05
379.31	676.41
379.50	704.50
379.70	667.05
379.89	706.84
380.09	718.54
380.28	727.91
380.48	744.29
380.68	690.46
380.87	758.33
381.07	727.91
381.26	753.65
381.46	723.23
381.65	746.63
381.85	786.42
382.04	772.38
382.24	786.42
382.43	706.84
382.63	763.01
382.83	798.12
383.02	866.00
383.22	755.99
383.41	814.51
383.61	828.55
383.80	791.10
384.00	784.08
384.19	819.19
384.39	917.49
384.58	828.55
384.78	763.01
384.97	854.30
385.17	894.08
385.36	823.87
385.56	844.93
385.75	812.17
385.95	821.53
386.14	894.08
386.34	828.55
386.53	844.93
386.72	854.30
386.92	894.08
387.11	861.32
387.31	866.00
387.50	940.90
387.70	891.74
387.89	898.77
388.09	870.68
388.28	849.61
388.48	882.38
388.67	957.28
388.86	912.81
389.06	861.32
389.25	924.51
389.45	926.85
389.64	915.15
389.84	997.07
390.03	968.98
390.22	947.92
390.42	997.07
390.61	983.02
390.81	945.58
391.00	968.98
391.19	992.39
391.39	1006.43
391.58	1090.69
391.78	1036.86
391.97	1027.50
392.16	1004.09
392.36	1020.47
392.55	1041.54
392.75	1011.11
392.94	1050.90
393.13	959.62
393.33	971.32
393.52	1076.65
393.71	1139.84
393.91	1111.75
394.10	1088.35
394.29	1116.44
394.49	1111.75
394.68	1109.41
394.88	1128.14
395.07	1090.69
395.26	1083.67
395.46	1139.84
395.65	1132.82
395.84	1153.88
396.04	1329.42
396.23	1123.46
396.42	1207.72
396.62	1219.42
396.81	1224.10
397.00	1177.29
397.19	1135.16
397.39	1210.06
397.58	1226.44
397.77	1210.06
397.97	1156.22
398.16	1259.21
398.35	1263.89
398.55	1245.16
398.74	1289.64
398.93	1296.66
399.12	1296.66
399.32	1275.59
399.51	1299.00
399.70	1364.53
399.90	1348.15
400.09	1378.58
400.28	1371.55
400.47	1378.58
400.67	1460.49
400.86	1387.94
401.05	1371.55
401.24	1411.34
401.44	1453.47
401.63	1472.20
401.82	1437.09
402.01	1366.87
402.21	1425.39
402.40	1441.77
402.59	1526.03
402.78	1495.60
402.97	1537.73
403.17	1582.20
403.36	1472.20
403.55	1516.67
403.74	1544.75
403.93	1624.33
404.13	1596.25
404.32	1612.63
404.51	1551.78
404.70	1575.18
404.89	1654.76
405.09	1626.67
405.28	1607.95
405.47	1633.69
405.66	1544.75
405.85	1699.23
406.05	1741.36
406.24	1692.21
406.43	1654.76
406.62	1783.49
406.81	1732.00
407.00	1722.63
407.20	1699.23
407.39	1673.48
407.58	1743.70
407.77	1762.42
407.96	1804.55
408.15	1853.70
408.34	1806.89
408.54	1944.99
408.73	1834.98
408.92	1858.39
409.11	2033.93
409.30	1989.46
409.49	1942.64
409.68	1893.49
409.87	1905.20
410.07	1898.17
410.26	2045.63
410.45	1998.82
410.64	2069.03
410.83	2047.97
411.02	2125.21
411.21	2146.27
411.40	2141.59
411.59	2073.71
411.78	2069.03
411.98	2129.89
412.17	2188.40
412.36	2300.75
412.55	2190.74
412.74	2377.98
412.93	2279.68
413.12	2200.10
413.31	2356.92
413.50	2286.70
413.69	2239.89
413.88	2366.28
414.07	2314.79
414.26	2490.33
414.45	2377.98
414.64	2452.88
414.83	2520.76
415.02	2504.37
415.22	2586.29
415.41	2560.55
415.60	2607.36
415.79	2548.84
415.98	2832.05
416.17	2803.96
416.36	2672.89
416.55	2712.68
416.74	2686.94
416.93	2759.49
417.12	2747.79
417.31	2839.07
417.50	2796.94
417.69	2897.58
417.88	2841.41
418.07	2785.24
418.26	2897.58
418.45	2911.63
418.64	2979.50
418.83	3035.67
419.02	2869.50
419.21	2963.12
419.39	3089.51
419.58	3126.96
419.77	3084.83
419.96	3124.62
420.15	3040.36
420.34	3138.66
420.53	3061.42
420.72	3108.23
420.91	3073.12
421.10	3192.49
421.29	3227.60
421.48	3246.32
421.67	3229.94
421.86	3152.70
422.05	3091.85
422.24	3265.05
422.43	3108.23
422.61	3281.43
422.80	3375.05
422.99	3349.31
423.18	3361.01
423.37	3391.44
423.56	3279.09
423.75	3274.41
423.94	3321.22
424.13	3173.77
424.32	3246.32
424.50	3482.72
424.69	3386.76
424.88	3419.52
425.07	3353.99
425.26	3332.92
425.45	3288.45
425.64	3398.46
425.83	3269.73
426.01	3389.10
426.20	3417.18
426.39	3382.07
426.58	3276.75
426.77	3307.18
426.96	3375.05
427.15	3466.33
427.33	3517.83
427.52	3417.18
427.71	3625.49
427.90	3576.34
428.09	3513.14
428.28	3618.47
428.46	3712.09
428.65	3611.45
428.84	3662.94
429.03	3623.15
429.22	3646.55
429.40	3700.39
429.59	3655.92
429.78	3592.72
429.97	3527.19
430.16	3653.58
430.34	3829.12
430.53	3784.65
430.72	3892.31
430.91	3749.54
431.10	3714.43
431.28	3990.61
431.47	3908.69
431.66	3971.89
431.85	3995.29
432.03	3791.67
432.22	3915.72
432.41	3875.93
432.60	3990.61
432.79	3955.51
432.97	3939.12
433.16	4182.54
433.35	3960.19
433.54	3962.53
433.72	4133.39
433.91	4131.05
434.10	4182.54
434.28	4156.79
434.47	4252.75
434.66	4140.41
434.85	4156.79
435.03	4109.98
435.22	4227.01
435.41	4358.08
435.59	4372.12
435.78	4280.84
435.97	4409.57
436.16	4301.90
436.34	4147.43
436.53	4325.31
436.72	4461.06
436.90	4358.08
437.09	4521.92
437.28	4341.69
437.46	4386.16
437.65	4423.61
437.84	4400.21
438.02	4428.29
438.21	4648.30
438.40	4505.53
438.58	4662.35
438.77	4601.49
438.96	4608.51
439.14	4786.40
439.33	4699.80
439.52	4912.78
439.70	4898.74
439.89	4788.74
440.08	4856.61
440.26	4851.93
440.45	4891.72
440.63	4882.36
440.82	5020.45
441.01	5067.26
441.19	5186.63
441.38	5135.14
441.57	5132.79
441.75	5259.18
441.94	5263.86
442.12	5137.48
442.31	5327.06
442.50	5401.96
442.68	5362.17
442.87	5362.17
443.05	5348.12
443.24	5549.41
443.43	5301.31
443.61	5362.17
443.80	5577.50
443.98	5446.43
444.17	5343.44
444.35	5397.28
444.54	5530.69
444.73	5544.73
444.91	5600.90
445.10	5521.32
445.28	5462.81
445.47	5493.24
445.65	5397.28
445.84	5710.91
446.02	5547.07
446.21	5554.09
446.39	5626.65
446.58	5507.28
446.77	5603.24
446.95	5420.68
447.14	5586.86
447.32	5741.33
447.51	5650.05
447.69	5598.56
447.88	5476.85
448.06	5657.07
448.25	5614.95
448.43	5673.46
448.62	5603.24
448.80	5841.98
448.99	5696.86
449.17	5832.62
449.36	5760.06
449.54	5832.62
449.73	5907.51
449.91	5813.89
450.10	5888.79
450.28	5909.85
450.46	6003.47
450.65	5935.60
450.83	5926.24
451.02	5844.32
451.20	6024.54
451.39	5968.37
451.57	6050.28
451.76	5954.32
451.94	6069.01
452.13	6251.57
452.31	6125.18
452.49	6066.67
452.68	6319.45
452.86	6202.42
453.05	6253.91
453.23	6401.37
453.42	6277.32
453.60	6237.53
453.78	6312.42
453.97	6139.23
454.15	6286.68
454.34	6272.64
454.52	6478.60
454.70	6345.19
454.89	6431.79
455.07	6537.12
455.26	6583.93
455.44	6672.87
455.62	6548.82
455.81	6593.29
455.99	6644.78
456.17	6370.94
456.36	6612.01
456.54	6768.83
456.73	6691.59
456.91	6869.47
457.09	6867.13
457.28	6925.65
457.46	6827.34
457.64	6981.82
457.83	6906.92
458.01	6752.45
458.19	7066.08
458.38	6822.66
458.56	7021.61
458.74	7054.37
458.93	6939.69
459.11	6890.54
459.29	6923.30
459.48	7045.01
459.66	7105.87
459.84	7091.82
460.03	7297.79
460.21	7234.60
460.39	7119.91
460.57	7272.04
460.76	7379.71
460.94	7166.72
461.12	7375.03
461.31	7353.96
461.49	7424.18
461.67	7449.93
461.85	7456.95
462.04	7456.95
462.22	7845.48
462.40	7695.68
462.59	7667.60
462.77	7662.91
462.95	7786.96
463.13	7658.23
463.32	7538.87
463.50	7709.72
463.68	7520.14
463.86	7866.54
464.05	7681.64
464.23	7714.41
464.41	7681.64
464.59	7599.72
464.78	7805.69
464.96	7709.72
465.14	7751.85
465.32	8018.68
465.50	7798.66
465.69	7871.22
465.87	8072.51
466.05	7793.98
466.23	8098.25
466.41	7922.71
466.60	8212.94
466.78	7922.71
466.96	8039.74
467.14	8032.72
467.32	8042.08
467.51	8098.25
467.69	8140.38
467.87	8116.98
468.05	8215.28
468.23	8205.92
468.41	8390.82
468.60	8315.92
468.78	8418.91
468.96	8259.75
469.14	8297.20
469.32	8538.27
469.50	8226.98
469.69	8421.25
469.87	8439.97
470.05	8652.96
470.23	8510.19
470.41	8690.41
470.59	8636.58
470.77	8589.77
470.95	8690.41
471.14	8699.77
471.32	8688.07
471.50	9029.79
471.68	8814.46
471.86	8833.18
472.04	8840.20
472.22	9231.07
472.40	8674.03
472.58	9088.30
472.77	9015.74
472.95	9132.77
473.13	9554.07
473.31	8990.00
473.49	9076.60
473.67	9186.60
473.85	9284.91
474.03	9268.52
474.21	9486.19
474.39	9591.52
474.57	9547.05
474.75	9699.18
474.93	9579.81
475.12	9645.35
475.30	9830.25
475.48	9858.34
475.66	9919.19
475.84	9872.38
476.02	10214.10
476.20	10036.22
476.38	10017.49
476.56	10141.54
476.74	10483.26
476.92	10148.56
477.10	10345.17
477.28	10326.44
477.46	10221.12
477.64	10677.52
477.82	10785.19
478.00	10902.22
478.18	10607.31
478.36	11293.08
478.54	11103.50
478.72	10864.77
478.90	11206.48
479.08	11477.99
479.26	11424.15
479.44	11337.56
479.62	11623.10
479.80	11775.24
479.98	11655.87
480.16	11683.95
480.34	12002.27
480.52	11995.25
480.70	12131.00
480.88	11978.86
481.06	11953.12
481.24	12119.29
481.41	12622.51
481.59	12418.88
481.77	12461.01
481.95	12446.97
482.13	12734.85
482.31	12645.91
482.49	13083.59
482.67	12943.16
482.85	13474.46
483.03	13261.48
483.21	13107.00
483.39	13376.16
483.57	13331.69
483.74	13584.47
483.92	13727.24
484.10	13565.74
484.28	13980.02
484.46	14118.11
484.64	14567.49
484.82	14174.28
485.00	14143.86
485.18	14530.05
485.35	14827.29
485.53	14661.12
485.71	14534.73
485.89	15185.40
486.07	14906.87
486.25	15131.56
486.43	15021.56
486.61	15445.20
486.78	15510.73
486.96	15257.95
487.14	15852.45
487.32	15838.41
487.50	16032.67
487.68	15847.77
487.85	15955.43
488.03	16219.91
488.21	16620.14
488.39	16479.71
488.57	16819.09
488.75	16746.53
488.92	17043.78
489.10	17146.76
489.28	16999.31
489.46	17043.78
489.64	17170.17
489.81	17680.41
489.99	17481.46
490.17	17806.80
490.35	17860.63
490.53	18090.00
490.70	18384.91
490.88	18029.15
491.06	18668.11
491.24	18565.13
491.41	18412.99
491.59	18628.32
491.77	18958.34
491.95	19033.24
492.13	18974.72
492.30	19108.13
492.48	19131.54
492.66	19213.46
492.84	19412.40
493.01	19641.78
493.19	19704.97
493.37	19669.86
493.54	19817.32
493.72	19941.36
493.90	20098.18
494.08	20259.68
494.25	20409.47
494.43	20493.73
494.61	20727.78
494.79	20765.23
494.96	20638.84
495.14	20863.54
495.32	21231.00
495.49	21179.51
495.67	21338.66
495.85	21270.79
496.02	21860.60
496.20	21605.49
496.38	22022.10
496.55	21886.35
496.73	22424.67
496.91	22183.60
497.09	22604.89
497.26	22253.81
497.44	22377.86
497.62	22429.35
497.79	23098.75
497.97	22806.18
498.14	23157.26
498.32	23304.71
498.50	23157.26
498.67	23143.22
498.85	23080.02
499.03	23428.76
499.20	23683.88
499.38	23564.51
499.56	23381.95
499.73	23618.35
499.91	24032.62
500.08	24091.13
500.26	23817.29
500.44	24444.56
500.61	23995.17
500.79	24147.31
500.97	24271.36
501.14	24673.93
501.32	24741.80
501.49	24430.51
501.67	24821.38
501.84	24694.99
502.02	24879.89
502.20	24769.89
502.37	25142.03
502.55	24673.93
502.72	25223.95
502.90	25322.26
503.07	25296.51
503.25	25518.86
503.43	25355.02
503.60	25408.86
503.78	25596.10
503.95	25401.83
504.13	25837.17
504.30	26036.12
504.48	25745.89
504.65	26295.92
504.83	26490.18
505.01	26356.77
505.18	26352.09
505.36	26604.87
505.53	26485.50
505.71	26572.10
505.88	26946.59
506.06	26796.79
506.23	26913.82
506.41	26719.56
506.58	26855.31
506.76	27082.34
506.93	27218.09
507.11	27180.64
507.28	27377.25
507.46	27545.76
507.63	27522.36
507.81	27475.55
507.98	27562.15
508.16	27978.76
508.33	27964.72
508.50	27988.13
508.68	27721.30
508.85	28252.61
509.03	28004.51
509.20	28496.02
509.38	28414.10
509.55	28582.62
509.73	28561.56
509.90	28638.80
510.08	28496.02
510.25	29062.43
510.42	28737.10
510.60	28767.52
510.77	29092.86
510.95	29331.59
511.12	29406.49
511.30	29064.77
511.47	29343.30
511.64	29563.31
511.82	29741.19
511.99	29549.26
512.17	29731.83
512.34	29537.56
512.51	30043.12
512.69	30480.80
512.86	30066.52
513.04	30047.80
513.21	30246.74
513.38	30183.55
513.56	30316.96
513.73	30419.94
513.90	30108.65
514.08	30368.45
514.25	30801.45
514.43	30745.28
514.60	30738.26
514.77	30918.48
514.95	30944.22
515.12	30953.58
515.29	30881.03
515.47	30871.67
515.64	31281.26
515.81	30766.34
515.99	32023.21
516.16	31740.00
516.33	31337.43
516.51	31810.22
516.68	31751.71
516.85	31328.07
517.03	31974.06
517.20	32079.38
517.37	31482.55
517.54	31749.37
517.72	31630.00
517.89	32084.06
518.06	32107.47
518.24	32025.55
518.41	31859.37
518.58	32432.80
518.75	32362.59
518.93	32884.53
519.10	32531.11
519.27	32893.89
519.45	32741.75
519.62	32758.14
519.79	33130.28
519.96	33301.14
520.14	32886.87
520.31	32683.24
520.48	32985.17
520.65	33043.68
520.83	33359.66
521.00	33280.08
521.17	33287.10
521.34	33900.32
521.52	33703.71
521.69	33900.32
521.86	34019.69
522.03	33787.97
522.20	34225.65
522.38	34204.59
522.55	34064.16
522.72	34043.09
522.89	34043.09
523.07	34541.63
523.24	34204.59
523.41	34202.25
523.58	34363.75
523.75	34932.50
523.92	34328.64
524.10	34623.54
524.27	34881.00
524.44	34623.54
524.61	34801.43
524.78	34838.87
524.96	35063.57
525.13	34843.56
525.30	35239.11
525.47	35388.90
525.64	34888.03
525.81	35154.85
525.98	35503.59
526.16	35688.49
526.33	35297.62
526.50	35758.70
526.67	35105.70
526.84	35461.46
527.01	35641.68
527.18	35943.61
527.36	35838.28
527.53	36048.93
527.70	36266.60
527.87	36409.37
528.04	36282.98
528.21	36144.89
528.38	36006.80
528.55	36116.81
528.72	36100.42
528.89	36390.65
529.07	36252.56
529.24	36058.29
529.41	36442.14
529.58	36421.08
529.75	36678.54
529.92	36627.04
530.09	36596.62
530.26	36376.61
530.43	37144.30
530.60	36613.00
530.77	36643.43
530.94	37003.87
531.11	36765.14
531.28	36369.58
531.46	36931.31
531.63	37221.54
531.80	37270.69
531.97	37350.27
532.14	37464.96
532.31	37214.52
532.48	37727.10
532.65	37682.62
532.82	37699.01
532.99	37361.97
533.16	37921.36
533.33	37621.77
533.50	37511.77
533.67	37357.29
533.84	37200.47
534.01	37544.53
534.18	38047.75
534.35	38359.04
534.52	38134.35
534.69	38464.36
534.86	38792.04
535.03	38202.22
535.20	38129.67
535.37	38440.96
535.54	38478.41
535.71	38705.44
535.88	38499.47
536.05	38988.64
536.22	38630.54
536.38	38572.03
536.55	38761.61
536.72	38773.31
536.89	38560.33
537.06	38738.21
537.23	39248.44
537.40	38541.60
537.57	38873.96
537.74	39091.63
537.91	38700.76
538.08	39028.43
538.25	39154.82
538.42	39161.84
538.59	39606.55
538.75	38960.56
538.92	39372.49
539.09	39934.22
539.26	39438.03
539.43	39250.78
539.60	39985.71
539.77	39295.25
539.94	39831.24
540.11	39665.06
540.28	39679.10
540.44	39873.37
540.61	39543.35
540.78	39370.15
540.95	40002.10
541.12	40100.40
541.29	40046.57
541.46	40013.80
541.62	39971.67
541.79	40741.71
541.96	39959.97
542.13	39702.51
542.30	40215.08
542.47	40776.81
542.63	40091.04
542.80	40275.94
542.97	40973.42
543.14	40708.94
543.31	40250.19
543.48	41118.53
543.64	41130.23
543.81	41029.59
543.98	41125.55
544.15	40802.56
544.32	41476.63
544.48	41378.33
544.65	41528.13
544.82	41462.59
544.99	41305.77
545.16	41303.43
545.32	41418.12
545.49	41698.98
545.66	41715.37
545.83	41549.19
546.00	41617.07
546.16	41923.68
546.33	41481.31
546.50	41724.73
546.67	41858.14
546.83	41284.71
547.00	41773.88
547.17	41429.82
547.34	41399.40
547.50	41778.56
547.67	41951.76
547.84	41862.82
548.00	41638.13
548.17	42576.69
548.34	41916.65
548.51	42522.85
548.67	42220.92
548.84	42073.47
549.01	42176.45
549.18	42066.45
549.34	42216.24
549.51	42698.39
549.68	42464.34
549.84	42546.26
550.01	42216.24
550.18	42396.46
550.34	42171.77
550.51	42665.63
550.68	42550.94
550.84	42410.51
551.01	43084.58
551.18	42082.83
551.34	42630.52
551.51	43154.80
551.68	42731.16
551.84	42777.97
552.01	42799.04
552.18	42794.36
552.34	42637.54
552.51	42909.04
552.68	42628.18
552.84	43079.90
553.01	43253.10
553.18	43075.22
553.34	43409.92
553.51	42955.85
553.67	43112.67
553.84	43157.14
554.01	43639.29
554.17	43281.19
554.34	43735.25
554.51	43564.39
554.67	43285.87
554.84	43210.97
555.00	43489.49
555.17	43611.20
555.33	43730.57
555.50	43187.56
555.67	43913.13
555.83	44048.88
556.00	43992.71
556.16	44013.77
556.33	43728.23
556.50	43761.00
556.66	43995.05
556.83	43952.92
556.99	44238.47
557.16	44217.40
557.32	44114.42
557.49	43903.77
557.65	43999.73
557.82	44004.41
557.98	43690.78
558.15	44154.21
558.32	44421.03
558.48	43751.63
558.65	44196.34
558.81	44079.31
558.98	43969.30
559.14	44360.17
559.31	44083.99
559.47	43966.96
559.64	44406.98
559.80	44079.31
559.97	44718.28
560.13	44318.04
560.30	44336.77
560.46	44900.84
560.63	44847.00
560.79	44790.83
560.96	45088.08
561.12	44671.46
561.29	44964.03
561.45	44748.70
561.61	44486.56
561.78	44451.45
561.94	44238.47
562.11	44399.96
562.27	44114.42
562.44	44360.17
562.60	44715.93
562.77	45125.53
562.93	44935.95
563.10	44973.39
563.26	44596.57
563.42	45200.43
563.59	45188.72
563.75	44451.45
563.92	44720.62
564.08	44634.02
564.24	45127.87
564.41	45008.50
564.57	45223.83
564.74	45387.67
564.90	44989.78
565.07	44835.30
565.23	44931.26
565.39	45158.30
565.56	45610.02
565.72	45031.91
565.88	44830.62
566.05	44992.12
566.21	45158.30
566.38	45109.14
566.54	45165.32
566.70	44807.22
566.87	45481.29
567.03	44875.09
567.19	45343.20
567.36	44687.85
567.52	45085.74
567.68	45188.72
567.85	45654.49
568.01	45846.41
568.17	45251.92
568.34	45780.88
568.50	45401.71
568.66	44947.65
568.83	45528.10
568.99	45408.73
569.15	45436.82
569.32	45272.98
569.48	45556.19
569.64	45373.63
569.81	46014.93
569.97	45837.05
570.13	45731.73
570.30	45500.01
570.46	45872.16
570.62	45801.94
570.78	45207.45
570.95	45656.83
571.11	45661.51
571.27	44973.39
571.43	45017.86
571.60	45867.48
571.76	45710.66
571.92	45280.00
572.09	45324.47
572.25	45703.64
572.41	45425.12
572.57	45783.22
572.74	45705.98
572.90	45727.05
573.06	45830.03
573.22	45558.53
573.38	46019.61
573.55	45666.19
573.71	46396.44
573.87	45874.50
574.03	45778.54
574.20	46328.56
574.36	45603.00
574.52	46005.57
574.68	45605.34
574.84	45823.01
575.01	45907.27
575.17	46277.07
575.33	46038.34
575.49	45544.48
575.65	46103.87
575.82	45858.12
575.98	45895.56
576.14	46005.57
576.30	45670.87
576.46	45818.33
576.62	45815.99
576.79	46155.36
576.95	45771.52
577.11	45935.35
577.27	45937.69
577.43	46354.31
577.59	45869.82
577.75	46174.09
577.92	45151.27
578.08	46003.23
578.24	46014.93
578.40	46066.42
578.56	45942.38
578.72	45844.07
578.88	46117.92
579.04	46199.83
579.21	46426.87
579.37	46017.27
579.53	45867.48
579.69	45748.11
579.85	45757.47
580.01	46178.77
580.17	45914.29
580.33	46333.24
580.49	45986.85
580.65	46190.47
580.82	46270.05
580.98	45956.42
581.14	45930.67
581.30	46321.54
581.46	45607.68
581.62	46429.21
581.78	46024.29
581.94	45921.31
582.10	45972.80
582.26	46143.66
582.42	45942.38
582.58	46419.84
582.74	46333.24
582.90	46225.58
583.06	46220.90
583.22	46007.91
583.38	46099.19
583.54	46094.51
583.70	46085.15
583.86	46522.83
584.02	45853.44
584.18	46447.93
584.34	46464.32
584.50	46483.04
584.66	46431.55
584.82	46387.08
584.98	47007.32
585.14	46380.06
585.30	46237.28
585.46	46204.52
585.62	46625.81
585.78	46155.36
585.94	45741.09
586.10	46553.26
586.26	45605.34
586.42	45993.87
586.58	46593.04
586.74	46403.46
586.90	46195.15
587.06	46300.48
587.22	46234.94
587.38	46061.74
587.54	46295.80
587.70	46623.47
587.86	46431.55
588.02	46209.20
588.18	46316.86
588.34	46007.91
588.49	46859.87
588.65	46253.67
588.81	46155.36
588.97	45975.14
589.13	46817.74
589.29	46607.09
589.45	46866.89
589.61	46501.76
589.77	46550.91
589.93	46181.11
590.08	46614.11
590.24	46663.26
590.40	46934.76
590.56	46696.03
590.72	47054.13
590.88	46600.07
591.04	46171.75
591.20	47180.52
591.35	47012.00
591.51	47278.82
591.67	46677.30
591.83	47026.04
591.99	46543.89
592.15	46843.48
592.31	46745.18
592.46	46684.33
592.62	46838.80
592.78	46813.05
592.94	47349.04
593.10	47290.52
593.26	47260.10
593.41	46976.89
593.57	47114.98
593.73	47065.83
593.89	47178.18
594.05	47068.17
594.20	47210.95
594.36	47388.83
594.52	47131.37
594.68	47147.75
594.84	46902.00
594.99	47503.51
595.15	47033.07
595.31	47360.74
595.47	47217.97
595.62	46962.85
595.78	46873.91
595.94	47276.48
596.10	46752.20
596.25	47063.49
596.41	47290.52
596.57	46607.09
596.73	46923.06
596.88	47337.33
597.04	47019.02
597.20	47353.72
597.36	47061.15
597.51	47131.37
597.67	46866.89
597.83	47220.31
597.99	47079.88
598.14	46972.21
598.30	46993.28
598.46	46941.78
598.61	47505.85
598.77	46866.89
598.93	47370.10
599.09	46827.10
599.24	47569.05
599.40	47075.19
599.56	47276.48
599.71	47583.09
599.87	47487.13
600.03	47590.11
600.18	47222.65
600.34	47077.54
600.50	47260.10
600.65	47124.35
600.81	47201.58
600.97	47515.22
601.12	47196.90
601.28	47012.00
601.44	47374.78
601.59	47466.06
601.75	47262.44
601.91	47873.32
602.06	46962.85
602.22	47405.21
602.37	47035.41
602.53	47445.00
602.69	47356.06
602.84	47299.89
603.00	47103.28
603.16	47077.54
603.31	47093.92
603.47	47220.31
603.62	47461.38
603.78	47215.63
603.94	47377.12
604.09	47358.40
604.25	46974.55
604.40	47173.50
604.56	47393.51
604.71	47524.58
604.87	47206.26
605.03	47337.33
605.18	47021.36
605.34	47285.84
605.49	47035.41
605.65	47344.36
605.80	46756.88
605.96	46756.88
606.12	47262.44
606.27	47356.06
606.43	46866.89
606.58	47618.20
606.74	47239.03
606.89	47143.07
607.05	46930.08
607.20	46948.81
607.36	47103.28
607.51	47171.16
607.67	46927.74
607.82	46712.41
607.98	47049.45
608.13	47313.93
608.29	47140.73
608.44	47257.76
608.60	47021.36
608.75	47260.10
608.91	47093.92
609.06	46801.35
609.22	47182.86
609.37	46845.82
609.53	47246.05
609.68	47044.77
609.84	46871.57
609.99	46845.82
610.15	47255.42
610.30	46780.29
610.46	47026.04
610.61	46997.96
610.76	46974.55
610.92	46651.56
611.07	46902.00
611.23	46220.90
611.38	46600.07
611.54	46960.51
611.69	46913.70
611.84	47016.68
612.00	46829.44
612.15	46398.78
612.31	46733.48
612.46	46616.45
612.62	46747.52
612.77	46808.37
612.92	46813.05
613.08	46600.07
613.23	47004.98
613.39	46543.89
613.54	46752.20
613.69	46686.67
613.85	46583.68
614.00	46391.76
614.15	47215.63
614.31	46370.69
614.46	46284.09
614.62	46099.19
614.77	46415.16
614.92	46536.87
615.08	46576.66
615.23	46508.79
615.38	46679.64
615.54	46248.99
615.69	46375.37
615.84	46628.15
616.00	46560.28
616.15	46747.52
616.30	46747.52
616.46	46363.67
616.61	46218.56
616.76	46567.30
616.92	46389.42
617.07	46429.21
617.22	46078.13
617.37	46101.53
617.53	46459.63
617.68	46167.07
617.83	46373.03
617.99	46600.07
618.14	46417.50
618.29	45911.95
618.45	46078.13
618.60	45808.96
618.75	46099.19
618.90	46092.17
619.06	46092.17
619.21	45935.35
619.36	46417.50
619.51	46059.40
619.67	45308.09
619.82	46162.39
619.97	46347.29
620.12	45865.14
620.28	45698.96
620.43	45977.48
620.58	45713.00
620.73	45696.62
620.89	46256.01
621.04	45911.95
621.19	45495.33
621.34	45830.03
621.49	45638.11
621.65	45708.32
621.80	46136.64
621.95	45352.56
622.10	45928.33
622.25	46082.81
622.41	45663.85
622.56	45462.57
622.71	45275.32
622.86	45757.47
623.01	45617.04
623.16	45645.13
623.32	45404.05
623.47	45556.19
623.62	45390.01
623.77	45633.42
623.92	45443.84
624.07	45584.27
624.23	45595.98
624.38	45837.05
624.53	45504.70
624.68	45165.32
624.83	45102.12
624.98	45272.98
625.13	45052.97
625.29	44854.03
625.44	45244.90
625.59	44954.67
625.74	45340.86
625.89	45022.54
626.04	44912.54
626.19	45521.08
626.34	44769.77
626.49	44907.86
626.65	44414.01
626.80	45067.02
626.95	44758.06
627.10	44151.87
627.25	44893.82
627.40	44851.69
627.55	45036.59
627.70	44762.75
627.85	44629.34
628.00	44879.77
628.15	44648.06
628.30	44294.64
628.45	44421.03
628.60	44383.58
628.76	44542.74
628.91	44243.15
629.06	43805.47
629.21	44196.34
629.36	43695.46
629.51	43880.36
629.66	44704.23
629.81	44451.45
629.96	44706.57
630.11	44357.83
630.26	44217.40
630.41	44603.59
630.56	44025.48
630.71	44102.71
630.86	44116.76
631.01	44093.35
631.16	44282.94
631.31	44081.65
631.46	44025.48
631.61	44376.56
631.76	44313.36
631.91	44502.95
632.06	44531.03
632.21	44430.39
632.36	44755.72
632.51	43775.04
632.66	44374.22
632.81	43842.92
632.96	44460.82
633.10	43807.81
633.25	44020.80
633.40	43817.17
633.55	43882.70
633.70	43999.73
633.85	43730.57
634.00	44002.07
634.15	43260.12
634.30	43608.86
634.45	43590.14
634.60	44044.20
634.75	43938.88
634.90	43519.92
635.05	44004.41
635.19	43353.74
635.34	43840.57
635.49	43035.43
635.64	43690.78
635.79	43707.16
635.94	43604.18
636.09	43838.23
636.24	43199.27
636.39	43597.16
636.53	43325.66
636.68	43164.16
636.83	42780.31
636.98	43042.45
637.13	42941.81
637.28	42962.87
637.43	43395.87
637.57	43152.46
637.72	42995.64
637.87	42836.48
638.02	43391.19
638.17	43236.72
638.32	43072.88
638.46	42469.02
638.61	42892.66
638.76	42618.81
638.91	42663.28
639.06	42714.78
639.20	42457.32
639.35	42635.20
639.50	42232.63
639.65	42586.05
639.80	43007.34
639.94	42927.77
640.09	43269.48
640.24	43201.61
640.39	42625.84
640.54	42375.40
640.68	42564.98
640.83	43089.26
640.98	42494.77
641.13	42274.76
641.27	42974.58
641.42	42429.23
641.57	42564.98
641.72	42794.36
641.86	42543.92
642.01	42197.52
642.16	42267.73
642.31	41935.38
642.45	42569.66
642.60	42106.24
642.75	42349.65
642.90	42129.64
643.04	42295.82
643.19	42227.95
643.34	41687.28
643.48	41844.10
643.63	42120.28
643.78	42094.53
643.93	42520.51
644.07	41951.76
644.22	42405.83
644.37	41820.69
644.51	42139.00
644.66	42518.17
644.81	42232.63
644.95	42073.47
645.10	41757.50
645.25	41668.56
645.39	41670.90
645.54	41902.61
645.69	42031.34
645.83	41280.03
645.98	41542.17
646.13	41415.78
646.27	41380.67
646.42	41923.68
646.57	41954.10
646.71	41956.44
646.86	41900.27
647.00	41771.54
647.15	41713.03
647.30	41670.90
647.44	41242.58
647.59	41324.50
647.74	41392.37
647.88	42000.91
648.03	41390.03
648.17	41940.06
648.32	41687.28
648.47	42014.96
648.61	41436.84
648.76	41706.01
648.90	41174.70
649.05	41134.92
649.20	41387.69
649.34	41415.78
649.49	41298.75
649.63	41244.92
649.78	41137.26
649.92	41301.09
650.07	42068.79
650.21	41523.44
650.36	41434.50
650.51	41109.17
650.65	41383.01
650.80	41340.88
650.94	41436.84
651.09	41261.30
651.23	40823.62
651.38	40786.18
651.52	40402.33
651.67	40961.72
651.81	40938.31
651.96	40872.78
652.10	40905.54
652.25	40825.96
652.39	40769.79
652.54	40793.20
652.68	40926.61
652.83	40753.41
652.97	40903.20
653.12	40627.02
653.26	40549.78
653.41	40418.71
653.55	40830.65
653.70	40954.69
653.84	40423.39
653.99	40704.26
654.13	40722.98
654.27	40458.50
654.42	40210.40
654.56	40605.95
654.71	40289.98
654.85	40605.95
655.00	40467.86
655.14	40357.86
655.29	41057.68
655.43	40598.93
655.57	40327.43
655.72	39681.44
655.86	40165.93
656.01	40350.84
656.15	40264.24
656.30	39791.45
656.44	40177.64
656.58	40243.17
656.73	39927.20
656.87	39651.02
657.01	39665.06
657.16	39959.97
657.30	39821.87
657.45	40105.08
657.59	40205.72
657.73	39442.71
657.88	39903.79
658.02	39622.93
658.16	40116.78
658.31	39400.58
658.45	39608.89
658.60	39653.36
658.74	40048.91
658.88	39873.37
659.03	39470.79
659.17	39203.97
659.31	39105.67
659.46	39702.51
659.60	39672.08
659.74	38993.32
659.89	39199.29
660.03	38630.54
660.17	39232.06
660.32	38864.60
660.46	38749.91
660.60	38773.31
660.74	38925.45
660.89	39124.40
661.03	38476.07
661.17	38260.74
661.32	38735.87
661.46	38937.15
661.60	38487.77
661.74	38405.85
661.89	38087.54
662.03	38639.90
662.17	38263.08
662.31	38595.43
662.46	38291.16
662.60	38354.36
662.74	37989.24
662.88	38183.50
663.03	37755.18
663.17	37724.75
663.31	38017.32
663.45	38082.86
663.60	38520.54
663.74	37717.73
663.88	37919.02
664.02	38045.41
664.17	38288.82
664.31	37919.02
664.45	37331.54
664.59	37612.41
664.73	37504.74
664.88	37717.73
665.02	37216.86
665.16	37029.62
665.30	37841.78
665.44	37453.25
665.59	37017.91
665.73	37008.55
665.87	36655.13
666.01	36964.08
666.15	36833.01
666.29	37020.25
666.44	37024.93
666.58	36964.08
666.72	36900.89
666.86	36833.01
667.00	37020.25
667.14	36723.01
667.28	36400.01
667.43	36264.26
667.57	36692.58
667.71	36467.89
667.85	36638.75
667.99	36620.02
668.13	36095.74
668.27	36212.77
668.41	36070.00
668.56	35283.58
668.70	36030.21
668.84	35168.89
668.98	35800.83
669.12	35690.83
669.26	35702.53
669.40	36016.16
669.54	36149.57
669.68	35697.85
669.82	35615.93
669.96	35211.02
670.10	35295.28
670.25	35257.83
670.39	35276.55
670.53	35030.80
670.67	34665.67
670.81	35459.12
670.95	35302.30
671.09	35196.98
671.23	34937.18
671.37	35124.42
671.51	34817.81
671.65	34792.06
671.79	34675.04
671.93	34789.72
672.07	34902.07
672.21	34899.73
672.35	34295.87
672.49	34209.27
672.63	34728.87
672.77	33970.54
672.91	33893.30
673.05	34195.23
673.19	33792.65
673.33	33961.17
673.47	34015.01
673.61	33809.04
673.75	33350.29
673.89	33692.01
674.03	33322.21
674.17	33216.88
674.31	33336.25
674.45	32987.51
674.59	32931.34
674.73	33031.98
674.87	32844.74
675.01	32538.13
675.15	32528.77
675.29	32432.80
675.43	32706.65
675.56	32849.42
675.70	32414.08
675.84	32615.37
675.98	31262.54
676.12	32315.78
676.26	32428.12
676.40	32039.59
676.54	31833.63
676.68	31552.76
676.82	31370.20
676.96	31793.84
677.10	32184.71
677.23	31393.61
677.37	31625.32
677.51	31360.84
677.65	31550.42
677.79	31194.66
677.93	31253.17
678.07	30778.04
678.21	30504.20
678.34	30520.59
678.48	30604.84
678.62	30448.03
678.76	30558.03
678.90	30574.42
679.04	30206.95
679.18	30398.88
679.31	30267.81
679.45	30504.20
679.59	30015.03
679.73	30005.67
679.87	29546.92
680.00	29649.91
680.14	29380.74
680.28	29649.91
680.42	29483.73
680.56	29425.22
680.70	28938.38
680.83	28849.44
680.97	28893.91
681.11	29055.41
681.25	28666.88
681.39	28680.92
681.52	28854.12
681.66	28587.30
681.80	28371.97
681.94	27927.27
682.07	28123.88
682.21	28149.62
682.35	27744.71
682.49	27835.99
682.62	28013.87
682.76	27866.42
682.90	27590.24
683.04	27604.28
683.17	27620.66
683.31	27463.85
683.45	27171.28
683.59	27283.62
683.72	26738.28
683.86	26864.67
684.00	27133.83
684.13	26969.99
684.27	26593.17
684.41	26565.08
684.55	26579.12
684.68	26045.48
684.82	26541.68
684.96	26239.75
685.09	26237.41
685.23	26106.34
685.37	26129.74
685.50	26277.19
685.64	26108.68
685.78	25638.23
685.91	25516.52
686.05	25219.27
686.19	25071.82
686.32	25146.72
686.46	24898.62
686.60	24751.17
686.73	24856.49
686.87	24709.04
687.01	24893.94
687.14	25132.67
687.28	24643.50
687.42	24692.65
687.55	24205.82
687.69	24542.86
687.82	24074.75
687.96	24304.12
688.10	24479.66
688.23	24004.53
688.37	24245.61
688.50	24041.98
688.64	24233.91
688.78	24027.94
688.91	23662.82
689.05	23623.03
689.18	23295.35
689.32	22984.06
689.46	23215.77
689.59	23190.03
689.73	23232.16
689.86	23117.47
690.00	23002.78
690.13	23089.38
690.27	22632.98
690.41	22808.52
690.54	22464.46
690.68	22497.23
690.81	22092.32
690.95	22335.73
691.08	22260.84
691.22	21781.03
691.35	22160.19
691.49	22204.66
691.62	21986.99
691.76	21671.02
691.89	21546.97
692.03	21645.27
692.16	21209.93
692.30	21270.79
692.43	21441.65
692.57	21191.21
692.70	20943.11
692.84	20917.37
692.97	20776.94
693.11	20589.69
693.24	20613.10
693.38	20395.43
693.51	20336.91
693.65	20528.84
693.78	20144.99
693.92	20130.95
694.05	20203.50
694.19	20149.67
694.32	19887.53
694.45	20467.98
694.59	20044.35
694.72	20184.78
694.86	19761.14
694.99	19267.29
695.13	19318.78
695.26	19374.95
695.39	19129.20
695.53	19349.21
695.66	19419.42
695.80	19075.37
695.93	19178.35
696.07	18717.26
696.20	18754.71
696.33	18338.10
696.47	18139.15
696.60	18410.65
696.73	18801.52
696.87	18382.57
697.00	18518.32
697.14	18396.61
697.27	18033.83
697.40	18146.17
697.54	17991.70
697.67	17956.59
697.80	17968.29
697.94	17743.60
698.07	17605.51
698.21	17575.08
698.34	17455.72
698.47	17348.05
698.61	16891.65
698.74	17207.62
698.87	17130.38
699.01	16856.54
699.14	16847.18
699.27	17025.06
699.40	16898.67
699.54	16819.09
699.67	16798.02
699.80	16498.44
699.94	16430.56
700.07	16730.15
700.20	16388.43
700.34	16456.31
700.47	16400.13
700.60	16510.14
700.73	16023.31
700.87	16023.31
701.00	15688.61
701.13	15971.82
701.26	15201.78
701.40	15611.37
701.53	15618.39
701.66	15606.69
701.79	15625.42
701.93	15393.70
702.06	15154.97
702.19	15028.58
702.32	15208.80
702.46	15382.00
702.59	15147.95
702.72	15192.42
702.85	14923.26
702.99	15208.80
703.12	14633.03
703.25	14689.20
703.38	14635.37
703.51	14721.97
703.65	14193.01
703.78	14157.90
703.91	14342.80
704.04	14118.11
704.17	14019.81
704.31	13928.53
704.44	14122.79
704.57	14057.26
704.70	13717.88
704.83	13930.87
704.96	13373.82
705.10	13774.05
705.23	13359.78
>>>>>End Processed Spectral Data<<<<<
