SpectraSuite Data File
++++++++++++++++++++++++++++++++++++
Date: Fri Oct 25 10:47:04 EDT 2013
User: price-jones
Dark Spectrum Present: No
Reference Spectrum Present: No
Number of Sampled Component Spectra: 1
Spectrometers: USB2+H05261
Integration Time (usec): 100000 (USB2+H05261)
Spectra Averaged: 1 (USB2+H05261)
Boxcar Smoothing: 0 (USB2+H05261)
Correct for Electrical Dark: No (USB2+H05261)
Strobe/Lamp Enabled: No (USB2+H05261)
Correct for Detector Non-linearity: No (USB2+H05261)
Correct for Stray Light: No (USB2+H05261)
Number of Pixels in Processed Spectrum: 2048
>>>>>Begin Processed Spectral Data<<<<<
365.73	114.69
365.92	114.69
366.12	114.69
366.32	100.64
366.52	0.00
366.72	91.28
366.91	0.00
367.11	79.58
367.31	21.06
367.51	0.00
367.70	46.81
367.90	35.11
368.10	46.81
368.30	42.13
368.49	0.00
368.69	84.26
368.89	49.15
369.09	18.72
369.28	18.72
369.48	65.54
369.68	32.77
369.87	110.01
370.07	65.54
370.27	114.69
370.47	194.26
370.66	358.10
370.86	414.27
371.06	435.34
371.25	447.04
371.45	374.49
371.65	437.68
371.84	442.36
372.04	435.34
372.24	425.98
372.44	449.38
372.63	561.73
372.83	552.37
373.03	582.79
373.22	451.72
373.42	559.39
373.62	514.92
373.81	538.32
374.01	596.84
374.21	538.32
374.40	596.84
374.60	505.56
374.79	533.64
374.99	533.64
375.19	620.24
375.38	622.58
375.58	594.50
375.78	575.77
375.97	528.96
376.17	613.22
376.37	543.00
376.56	543.00
376.76	599.18
376.95	594.50
377.15	648.33
377.35	587.47
377.54	631.94
377.74	629.60
377.93	580.45
378.13	660.03
378.33	631.94
378.52	620.24
378.72	660.03
378.91	620.24
379.11	582.79
379.31	627.26
379.50	610.88
379.70	617.90
379.89	599.18
380.09	662.37
380.28	643.65
380.48	690.46
380.68	674.07
380.87	685.78
381.07	718.54
381.26	669.39
381.46	664.71
381.65	683.44
381.85	678.76
382.04	592.16
382.24	674.07
382.43	681.10
382.63	716.20
382.83	765.36
383.02	709.18
383.22	730.25
383.41	631.94
383.61	732.59
383.80	772.38
384.00	695.14
384.19	772.38
384.39	826.21
384.58	657.69
384.78	699.82
384.97	791.10
385.17	755.99
385.36	748.97
385.56	727.91
385.75	786.42
385.95	748.97
386.14	744.29
386.34	723.23
386.53	821.53
386.72	784.08
386.92	905.79
387.11	816.85
387.31	851.96
387.50	767.70
387.70	809.83
387.89	774.72
388.09	840.25
388.28	868.34
388.48	791.10
388.67	868.34
388.86	875.36
389.06	1008.77
389.25	997.07
389.45	856.64
389.64	917.49
389.84	961.96
390.03	976.00
390.22	896.43
390.42	896.43
390.61	929.19
390.81	828.55
391.00	884.72
391.19	889.40
391.39	983.02
391.58	1102.39
391.78	940.90
391.97	952.60
392.16	915.15
392.36	954.94
392.55	950.26
392.75	1041.54
392.94	880.04
393.13	1008.77
393.33	936.21
393.52	1008.77
393.71	1020.47
393.91	1027.50
394.10	1067.28
394.29	1083.67
394.49	1111.75
394.68	1076.65
394.88	1060.26
395.07	1167.93
395.26	1116.44
395.46	1057.92
395.65	1191.33
395.84	1081.33
396.04	1221.76
396.23	1086.01
396.42	1097.71
396.62	1114.10
396.81	1118.78
397.00	1188.99
397.19	1198.35
397.39	1165.59
397.58	1205.38
397.77	1233.46
397.97	1343.47
398.16	1284.95
398.35	1343.47
398.55	1331.76
398.74	1338.79
398.93	1411.34
399.12	1416.02
399.32	1401.98
399.51	1306.02
399.70	1451.13
399.90	1509.65
400.09	1411.34
400.28	1376.24
400.47	1509.65
400.67	1446.45
400.86	1495.60
401.05	1486.24
401.24	1500.28
401.44	1561.14
401.63	1661.78
401.82	1455.81
402.01	1528.37
402.21	1542.41
402.40	1612.63
402.59	1551.78
402.78	1556.46
402.97	1614.97
403.17	1568.16
403.36	1561.14
403.55	1689.87
403.74	1643.06
403.93	1666.46
404.13	1701.57
404.32	1732.00
404.51	1636.03
404.70	1685.19
404.89	1692.21
405.09	1701.57
405.28	1771.79
405.47	1743.70
405.66	1739.02
405.85	1682.85
406.05	1776.47
406.24	1888.81
406.43	1940.30
406.62	1811.57
406.81	1909.88
407.00	1856.04
407.20	1771.79
407.39	1879.45
407.58	1970.73
407.77	1926.26
407.96	2073.71
408.15	1984.77
408.34	1975.41
408.54	1968.39
408.73	2029.24
408.92	2062.01
409.11	2050.31
409.30	2038.61
409.49	2008.18
409.68	2193.08
409.87	2115.84
410.07	2113.50
410.26	2104.14
410.45	2087.76
410.64	2186.06
410.83	2282.02
411.02	2209.47
411.21	2352.24
411.40	2333.51
411.59	2392.03
411.78	2338.20
411.98	2324.15
412.17	2354.58
412.36	2424.80
412.55	2420.11
412.74	2495.01
412.93	2523.10
413.12	2422.45
413.31	2616.72
413.50	2471.61
413.69	2480.97
413.88	2654.17
414.07	2621.40
414.26	2679.91
414.45	2708.00
414.64	2590.97
414.83	2750.13
415.02	2752.47
415.22	2801.62
415.41	2860.13
415.60	2895.24
415.79	2918.65
415.98	2920.99
416.17	2897.58
416.36	3007.59
416.55	2977.16
416.74	2937.37
416.93	3026.31
417.12	3007.59
417.31	3042.70
417.50	3122.27
417.69	3243.98
417.88	3208.87
418.07	3234.62
418.26	3061.42
418.45	3178.45
418.64	3328.24
418.83	3218.24
419.02	3265.05
419.21	3187.81
419.39	3171.43
419.58	3103.55
419.77	3243.98
419.96	3309.52
420.15	3358.67
420.34	3314.20
420.53	3316.54
420.72	3471.01
420.91	3398.46
421.10	3478.04
421.29	3574.00
421.48	3503.78
421.67	3606.77
421.86	3471.01
422.05	3543.57
422.24	3309.52
422.43	3421.86
422.61	3566.98
422.80	3672.30
422.99	3555.27
423.18	3449.95
423.37	3590.38
423.56	3735.50
423.75	3653.58
423.94	3543.57
424.13	3262.71
424.32	3461.65
424.50	3630.17
424.69	3817.41
424.88	3761.24
425.07	3449.95
425.26	3478.04
425.45	3613.79
425.64	3466.33
425.83	3574.00
426.01	3784.65
426.20	3679.32
426.39	3728.47
426.58	3655.92
426.77	3536.55
426.96	3707.41
427.15	3648.90
427.33	3737.84
427.52	3744.86
427.71	3777.62
427.90	3693.37
428.09	3761.24
428.28	3936.78
428.46	3822.09
428.65	3740.18
428.84	3943.80
429.03	3927.42
429.22	3803.37
429.40	3873.59
429.59	3747.20
429.78	3679.32
429.97	3679.32
430.16	3817.41
430.34	3859.54
430.53	3999.98
430.72	3971.89
430.91	3894.65
431.10	4030.40
431.28	4182.54
431.47	4205.94
431.66	4304.25
431.85	4241.05
432.03	4297.22
432.22	4409.57
432.41	4133.39
432.60	4208.28
432.79	4294.88
432.97	4454.04
433.16	4454.04
433.35	4173.18
433.54	4325.31
433.72	4297.22
433.91	4341.69
434.10	4449.36
434.28	4402.55
434.47	4423.61
434.66	4454.04
434.85	4674.05
435.03	4484.47
435.22	4603.83
435.41	4585.11
435.59	4589.79
435.78	4461.06
435.97	4739.58
436.16	4601.49
436.34	4652.98
436.53	4788.74
436.72	4779.37
436.90	4542.98
437.09	4777.03
437.28	4702.14
437.46	4746.61
437.65	4765.33
437.84	4915.12
438.02	4664.69
438.21	4791.08
438.40	4786.40
438.58	4947.89
438.77	4952.57
438.96	5109.39
439.14	5050.88
439.33	5149.18
439.52	5207.69
439.70	5214.71
439.89	5301.31
440.08	5130.45
440.26	5235.78
440.45	5128.11
440.63	5380.89
440.82	5401.96
441.01	5575.16
441.19	5509.62
441.38	5654.73
441.57	5533.03
441.75	5701.54
441.94	5788.14
442.12	5790.49
442.31	5802.19
442.50	5811.55
442.68	5724.95
442.87	5659.42
443.05	5902.83
443.24	5916.87
443.43	5799.85
443.61	5998.79
443.80	5877.09
443.98	5841.98
444.17	5518.98
444.35	6085.39
444.54	5949.64
444.73	5930.92
444.91	5959.00
445.10	5966.03
445.28	5907.51
445.47	5984.75
445.65	5921.56
445.84	5785.80
446.02	6076.03
446.21	5949.64
446.39	6059.65
446.58	6202.42
446.77	6179.01
446.95	6073.69
447.14	6097.10
447.32	6298.38
447.51	6157.95
447.69	6061.99
447.88	6186.04
448.06	6094.76
448.25	6078.37
448.43	6256.25
448.62	6179.01
448.80	6167.31
448.99	6249.23
449.17	6216.46
449.36	6289.02
449.54	6380.30
449.73	6328.81
449.91	6417.75
450.10	6396.68
450.28	6518.39
450.46	6518.39
450.65	6712.66
450.83	6581.59
451.02	6499.67
451.20	6595.63
451.39	6597.97
451.57	6506.69
451.76	6656.48
451.94	6576.91
452.13	6492.65
452.31	6670.53
452.49	6401.37
452.68	6668.19
452.86	6637.76
453.05	6602.65
453.23	6806.28
453.42	6644.78
453.60	6792.23
453.78	6904.58
453.97	6635.42
454.15	6801.60
454.34	6736.06
454.52	6857.77
454.70	6813.30
454.89	6864.79
455.07	6925.65
455.26	7028.63
455.44	7105.87
455.62	6972.46
455.81	7166.72
455.99	6988.84
456.17	7131.61
456.36	7382.05
456.54	7176.08
456.73	7283.75
456.91	7389.07
457.09	7379.71
457.28	7681.64
457.46	7297.79
457.64	7293.11
457.83	7459.29
458.01	7522.48
458.19	7520.14
458.38	7478.01
458.56	7463.97
458.74	7456.95
458.93	7700.36
459.11	7536.52
459.29	7550.57
459.48	7674.62
459.66	7616.10
459.84	7571.63
460.03	7798.66
460.21	7653.55
460.39	7850.16
460.57	7740.15
460.76	7950.80
460.94	8124.00
461.12	8013.99
461.31	8042.08
461.49	7934.42
461.67	7838.45
461.85	8056.12
462.04	7985.91
462.22	8564.02
462.40	8091.23
462.59	8093.57
462.77	8133.36
462.95	8252.73
463.13	8189.53
463.32	8266.77
463.50	8156.77
463.68	8212.94
463.86	8332.31
464.05	8290.18
464.23	8346.35
464.41	8603.81
464.59	8182.51
464.78	8674.03
464.96	8234.00
465.14	8292.52
465.32	8423.59
465.50	8580.40
465.69	8678.71
465.87	8587.43
466.05	8421.25
466.23	8533.59
466.41	8461.04
466.60	8636.58
466.78	8521.89
466.96	8571.04
467.14	8435.29
467.32	8549.98
467.51	8678.71
467.69	8358.05
467.87	8805.10
468.05	8786.37
468.23	8861.27
468.41	8617.85
468.60	8603.81
468.78	8865.95
468.96	8954.89
469.14	8748.92
469.32	8915.10
469.50	8683.39
469.69	8978.30
469.87	9011.06
470.05	9266.18
470.23	8844.88
470.41	8973.61
470.59	9179.58
470.77	8971.27
470.95	9226.39
471.14	9518.96
471.32	9369.16
471.50	9359.80
471.68	9404.27
471.86	9554.07
472.04	9659.39
472.22	9626.62
472.40	9556.41
472.58	9530.66
472.77	9863.02
472.95	9881.74
473.13	9933.23
473.31	9694.50
473.49	9640.67
473.67	9680.46
473.85	9900.47
474.03	9940.26
474.21	10115.80
474.39	10136.86
474.57	10197.71
474.75	10242.18
474.93	10420.06
475.12	10415.38
475.30	10232.82
475.48	10284.31
475.66	10609.65
475.84	10562.84
476.02	10525.39
476.20	10745.40
476.38	10637.73
476.56	10937.32
476.74	10930.30
476.92	10895.19
477.10	11000.52
477.28	10974.77
477.46	11021.58
477.64	11297.77
477.82	11524.80
478.00	11515.44
478.18	11456.92
478.36	11559.91
478.54	11772.89
478.72	11587.99
478.90	11922.69
479.08	11962.48
479.26	12306.54
479.44	12201.21
479.62	12369.73
479.80	12222.28
479.98	12381.43
480.16	12664.64
480.34	12472.71
480.52	12816.77
480.70	12739.54
480.88	12512.50
481.06	12816.77
481.24	12924.44
481.41	13102.32
481.59	13348.08
481.77	13317.65
481.95	13474.46
482.13	13205.30
482.31	13570.43
482.49	13722.56
482.67	13703.84
482.85	13973.00
483.03	14061.94
483.21	14174.28
483.39	14267.91
483.57	14265.57
483.74	14574.52
483.92	14574.52
484.10	14581.54
484.28	14761.76
484.46	15087.09
484.64	15122.20
484.82	14771.12
485.00	15054.33
485.18	15276.68
485.35	15194.76
485.53	15279.02
485.71	15309.44
485.89	15515.41
486.07	15594.99
486.25	15810.32
486.43	15964.79
486.61	15822.02
486.78	16114.59
486.96	16510.14
487.14	16451.63
487.32	16372.05
487.50	16837.81
487.68	17018.04
487.85	17003.99
488.03	17254.43
488.21	17205.28
488.39	17418.27
488.57	17621.89
488.75	17558.70
488.92	18022.12
489.10	18064.25
489.28	18171.92
489.46	18326.39
489.64	18525.34
489.81	18782.80
489.99	18831.95
490.17	18796.84
490.35	19168.99
490.53	19255.59
490.70	19220.48
490.88	19318.78
491.06	19262.61
491.24	19559.86
491.41	19253.25
491.59	19592.62
491.77	19690.93
491.95	19822.00
492.13	20212.87
492.30	20189.46
492.48	20088.82
492.66	20252.66
492.84	20262.02
493.01	20589.69
493.19	20430.54
493.37	20858.85
493.54	20966.52
493.72	21186.53
493.90	21172.49
494.08	21528.25
494.25	21855.92
494.43	21546.97
494.61	21989.33
494.79	21818.47
494.96	21982.31
495.14	21743.58
495.32	21963.59
495.49	22005.72
495.67	22204.66
495.85	22574.47
496.02	22511.27
496.20	22412.97
496.38	22778.09
496.55	22696.17
496.73	23302.37
496.91	23098.75
497.09	23346.84
497.26	23503.66
497.44	23599.62
497.62	23321.10
497.79	23936.66
497.97	23398.34
498.14	23908.57
498.32	23943.68
498.50	24011.56
498.67	24308.80
498.85	24283.06
499.03	24451.58
499.20	24437.53
499.38	24631.80
499.56	24664.57
499.73	25233.32
499.91	24727.76
500.08	24823.72
500.26	24931.39
500.44	24975.86
500.61	25102.25
500.79	25109.27
500.97	25493.12
501.14	25668.66
501.32	25659.29
501.49	25715.47
501.67	25439.28
501.84	26176.55
502.02	26024.42
502.20	26174.21
502.37	26183.57
502.55	26429.33
502.72	26527.63
502.90	26394.22
503.07	26094.63
503.25	26434.01
503.43	26511.25
503.60	26773.39
503.78	26845.94
503.95	26703.17
504.13	26726.58
504.30	27395.97
504.48	26787.43
504.65	27377.25
504.83	27538.74
505.01	27255.54
505.18	27300.01
505.36	27665.13
505.53	27873.44
505.71	28056.00
505.88	27892.16
506.06	27878.12
506.23	27674.49
506.41	28130.90
506.58	27917.91
506.76	28236.22
506.93	28528.79
507.11	28467.94
507.28	28180.05
507.46	28395.38
507.63	28477.30
507.81	28355.59
507.98	28407.08
508.16	28786.25
508.33	28521.77
508.50	29010.94
508.68	29465.00
508.85	29144.35
509.03	29308.19
509.20	29244.99
509.38	29507.13
509.55	29659.27
509.73	29942.47
509.90	29806.72
510.08	29806.72
510.25	29654.59
510.42	30192.91
510.60	30108.65
510.77	30319.30
510.95	30246.74
511.12	30326.32
511.30	30387.18
511.47	30487.82
511.64	30668.04
511.82	30855.28
511.99	30567.40
512.17	30586.12
512.34	30625.91
512.51	30679.74
512.69	31019.12
512.86	31267.22
513.04	31194.66
513.21	31023.80
513.38	31115.08
513.56	31260.20
513.73	31208.70
513.90	31091.68
514.08	31152.53
514.25	31459.14
514.43	31630.00
514.60	31569.15
514.77	31278.92
514.95	31548.08
515.12	32053.64
515.29	31812.56
515.47	32226.84
515.64	32369.61
515.81	31922.57
515.99	31903.84
516.16	32240.88
516.33	31955.33
516.51	32397.70
516.68	31807.88
516.85	32105.13
517.03	32285.35
517.20	32549.83
517.37	32353.23
517.54	32591.96
517.72	32381.31
517.89	32734.73
518.06	32975.81
518.24	32690.26
518.41	32685.58
518.58	33039.00
518.75	32601.32
518.93	33338.59
519.10	33230.93
519.27	33247.31
519.45	33177.09
519.62	33626.48
519.79	33577.33
519.96	33827.76
520.14	33949.47
520.31	33542.22
520.48	33776.27
520.65	33881.60
520.83	33708.40
521.00	33837.12
521.17	34333.32
521.34	34340.34
521.52	34515.88
521.69	34185.86
521.86	34256.08
522.03	34281.83
522.20	34951.22
522.38	34595.46
522.55	35269.53
522.72	34663.33
522.89	34799.08
523.07	35030.80
523.24	34834.19
523.41	34850.58
523.58	34792.06
523.75	35775.09
523.92	35225.06
524.10	35409.96
524.27	35821.90
524.44	35526.99
524.61	35548.06
524.78	35424.01
524.96	36095.74
525.13	36016.16
525.30	36252.56
525.47	36364.90
525.64	35732.96
525.81	35484.86
525.98	35936.59
526.16	35936.59
526.33	35887.43
526.50	36046.59
526.67	36308.73
526.84	35566.78
527.01	35587.85
527.18	36418.74
527.36	36292.35
527.53	36203.41
527.70	36882.16
527.87	36708.96
528.04	36421.08
528.21	37067.06
528.38	36498.31
528.55	36964.08
528.72	36964.08
528.89	37060.04
529.07	37106.85
529.24	36872.80
529.41	36886.84
529.58	36870.46
529.75	37230.90
529.92	37170.05
530.09	37940.08
530.26	37626.45
530.43	38033.71
530.60	37464.96
530.77	37113.87
530.94	37661.56
531.11	37261.33
531.28	37560.92
531.46	37493.04
531.63	37773.91
531.80	37766.88
531.97	37436.87
532.14	37954.13
532.31	37675.60
532.48	37830.08
532.65	37876.89
532.82	37916.68
532.99	38007.96
533.16	37787.95
533.33	38099.24
533.50	38548.62
533.67	38625.86
533.84	37979.87
534.01	38574.37
534.18	38515.86
534.35	38675.01
534.52	38424.57
534.69	38677.35
534.86	38738.21
535.03	38635.22
535.20	38731.18
535.37	39112.69
535.54	39339.72
535.71	38962.90
535.88	39056.52
536.05	38913.75
536.22	39323.34
536.38	39269.51
536.55	39454.41
536.72	39241.42
536.89	39037.80
537.06	39196.95
537.23	39297.59
537.40	39096.31
537.57	39414.62
537.74	39473.13
537.91	39777.40
538.08	39470.79
538.25	39367.81
538.42	39351.43
538.59	39562.08
538.75	39421.64
538.92	39438.03
539.09	39739.96
539.26	39559.73
539.43	39676.76
539.60	39473.13
539.77	39622.93
539.94	40294.66
540.11	39555.05
540.28	39700.17
540.44	40023.16
540.61	39761.02
540.78	39908.47
540.95	40325.09
541.12	40091.04
541.29	40114.44
541.46	39995.07
541.62	40280.62
541.79	40753.41
541.96	40002.10
542.13	40484.25
542.30	40287.64
542.47	39995.07
542.63	40297.00
542.80	40645.74
542.97	40854.05
543.14	40449.14
543.31	40931.29
543.48	40800.22
543.64	41528.13
543.81	41633.45
543.98	41247.26
544.15	41006.19
544.32	41331.52
544.48	41324.50
544.65	41287.05
544.82	41163.00
544.99	41174.70
545.16	41375.99
545.32	41036.61
545.49	41448.55
545.66	41701.32
545.83	41649.83
546.00	41823.03
546.16	41757.50
546.33	41654.51
546.50	41586.64
546.67	41542.17
546.83	41167.68
547.00	41153.64
547.17	41488.34
547.34	41495.36
547.50	41696.64
547.67	42223.26
547.84	41869.84
548.00	42040.70
548.17	42284.12
548.34	42162.41
548.51	42260.71
548.67	41993.89
548.84	42064.11
549.01	42003.25
549.18	41858.14
549.34	42244.33
549.51	42462.00
549.68	42459.66
549.84	42384.76
550.01	42471.36
550.18	42148.37
550.34	42586.05
550.51	42581.37
550.68	42513.49
550.84	42377.74
551.01	42586.05
551.18	42471.36
551.34	42630.52
551.51	42670.31
551.68	43122.03
551.84	43047.13
552.01	42644.56
552.18	42883.30
552.34	42464.34
552.51	43000.32
552.68	42986.28
552.84	43033.09
553.01	43313.95
553.18	42817.76
553.34	43065.86
553.51	42515.83
553.67	43012.02
553.84	43222.67
554.01	43461.41
554.17	43136.07
554.34	43440.34
554.51	43136.07
554.67	43477.79
554.84	43335.02
555.00	42646.90
555.17	43185.22
555.33	43344.38
555.50	43363.11
555.67	43173.52
555.83	43470.77
556.00	43124.37
556.16	43653.33
556.33	43234.38
556.50	43873.34
556.66	43885.04
556.83	43559.71
556.99	44055.90
557.16	43758.66
557.32	43852.28
557.49	43590.14
557.65	43398.21
557.82	43452.05
557.98	43770.36
558.15	43487.15
558.32	43849.94
558.48	43456.73
558.65	43838.23
558.81	43718.87
558.98	43861.64
559.14	43842.92
559.31	43761.00
559.47	43971.64
559.64	44091.01
559.80	44147.18
559.97	43798.44
560.13	43966.96
560.30	44069.95
560.46	43739.93
560.63	44245.49
560.79	44039.52
560.96	43772.70
561.12	44126.12
561.29	44182.29
561.45	43957.60
561.61	43931.86
561.78	43784.40
561.94	44140.16
562.11	44320.38
562.27	44299.32
562.44	43992.71
562.60	44528.69
562.77	44261.87
562.93	44142.50
563.10	44596.57
563.26	44074.63
563.42	44339.11
563.59	43976.33
563.75	44673.81
563.92	44423.37
564.08	44451.45
564.24	44617.63
564.41	44540.39
564.57	44582.52
564.74	43966.96
564.90	44439.75
565.07	44526.35
565.23	44507.63
565.39	44205.70
565.56	45024.89
565.72	44182.29
565.88	44215.06
566.05	44102.71
566.21	44563.80
566.38	44212.72
566.54	44369.54
566.70	44701.89
566.87	44648.06
567.03	44739.34
567.19	45088.08
567.36	44786.15
567.52	44240.81
567.68	44706.57
567.85	44126.12
568.01	44685.51
568.17	44605.93
568.34	44587.21
568.50	45139.57
568.66	44760.40
568.83	44629.34
568.99	44563.80
569.15	44196.34
569.32	45038.93
569.48	44561.46
569.64	44727.64
569.81	44626.99
569.97	44325.07
570.13	44566.14
570.30	44217.40
570.46	44545.08
570.62	44662.10
570.78	44896.16
570.95	44697.21
571.11	44645.72
571.27	44664.44
571.43	44701.89
571.60	44839.98
571.76	44376.56
571.92	44659.76
572.09	44966.37
572.25	44629.34
572.41	44605.93
572.57	45057.65
572.74	45244.90
572.90	45249.58
573.06	44816.58
573.22	44762.75
573.38	44638.70
573.55	44596.57
573.71	44748.70
573.87	45017.86
574.03	44839.98
574.20	44690.19
574.36	45057.65
574.52	45052.97
574.68	44692.53
574.84	44987.44
575.01	45041.27
575.17	44868.07
575.33	44903.18
575.49	45326.81
575.65	45261.28
575.82	45226.17
575.98	45048.29
576.14	45261.28
576.30	44933.60
576.46	45160.64
576.62	45179.36
576.79	44816.58
576.95	44336.77
577.11	45172.34
577.27	44924.24
577.43	45530.44
577.59	45027.23
577.75	45076.38
577.92	44804.88
578.08	44594.23
578.24	44676.15
578.40	45188.72
578.56	45155.96
578.72	44722.96
578.88	45382.99
579.04	45490.65
579.21	44905.52
579.37	45155.96
579.53	44886.79
579.69	44825.94
579.85	44669.12
580.01	45109.14
580.17	44954.67
580.33	45134.89
580.49	45085.74
580.65	45069.36
580.82	45322.13
580.98	44975.73
581.14	44816.58
581.30	45113.83
581.46	44875.09
581.62	44837.64
581.78	44905.52
581.94	45378.31
582.10	44982.76
582.26	45116.17
582.42	45343.20
582.58	45432.14
582.74	45125.53
582.90	45205.11
583.06	44982.76
583.22	45118.51
583.38	45567.89
583.54	45310.43
583.70	44807.22
583.86	45052.97
584.02	44844.66
584.18	45153.62
584.34	45429.80
584.50	44968.71
584.66	45123.19
584.82	44701.89
584.98	45436.82
585.14	45132.55
585.30	44940.63
585.46	45170.00
585.62	44844.66
585.78	44924.24
585.94	44879.77
586.10	45382.99
586.26	44601.25
586.42	45118.51
586.58	45116.17
586.74	45092.76
586.90	45390.01
587.06	45593.64
587.22	45354.90
587.38	44959.35
587.54	45380.65
587.70	45277.66
587.86	45167.66
588.02	45387.67
588.18	45471.93
588.34	45261.28
588.49	44788.49
588.65	44626.99
588.81	44666.78
588.97	44921.90
589.13	44823.60
589.29	45055.31
589.45	45542.14
589.61	45371.28
589.77	45841.73
589.93	45642.79
590.08	45598.32
590.24	45392.35
590.40	45186.38
590.56	45502.35
590.72	44671.46
590.88	45160.64
591.04	45652.15
591.20	45659.17
591.35	45446.18
591.51	45617.04
591.67	45268.30
591.83	45162.98
591.99	44687.85
592.15	45247.24
592.31	45104.46
592.46	45373.63
592.62	45092.76
592.78	45738.75
592.94	45652.15
593.10	45656.83
593.26	45670.87
593.41	45296.39
593.57	45584.27
593.73	45560.87
593.89	45584.27
594.05	45319.79
594.20	45378.31
594.36	45404.05
594.52	45202.77
594.68	45265.96
594.84	45436.82
594.99	45771.52
595.15	45382.99
595.31	45560.87
595.47	45684.92
595.62	45488.31
595.78	45411.07
595.94	45490.65
596.10	45502.35
596.25	45436.82
596.41	45464.91
596.57	45181.70
596.73	45893.22
596.88	45315.11
597.04	45511.72
597.20	45141.91
597.36	45174.68
597.51	45626.40
597.67	45961.10
597.83	45820.67
597.99	45619.38
598.14	45806.62
598.30	45537.46
598.46	45532.78
598.61	45214.47
598.77	45155.96
598.93	45153.62
599.09	45450.86
599.24	45827.69
599.40	45642.79
599.56	45673.21
599.71	45478.95
599.87	45621.72
600.03	45539.80
600.18	45881.52
600.34	45390.01
600.50	45565.55
600.65	45324.47
600.81	45736.41
600.97	45762.15
601.12	46354.31
601.28	45748.11
601.44	45359.58
601.59	45453.20
601.75	45677.90
601.91	45492.99
602.06	45289.37
602.22	45698.96
602.37	45373.63
602.53	45553.85
602.69	45682.58
602.84	45560.87
603.00	45418.10
603.16	45448.52
603.31	45158.30
603.47	45500.01
603.62	45294.05
603.78	45411.07
603.94	45556.19
604.09	45591.30
604.25	45624.06
604.40	45668.53
604.56	45420.44
604.71	45502.35
604.87	45886.20
605.03	45034.25
605.18	45713.00
605.34	45373.63
605.49	45287.03
605.65	45420.44
605.80	45464.91
605.96	45656.83
606.12	45139.57
606.27	45783.22
606.43	45031.91
606.58	45797.26
606.74	44584.86
606.89	45422.78
607.05	45682.58
607.20	45340.86
607.36	45645.13
607.51	45516.40
607.67	45287.03
607.82	45450.86
607.98	45048.29
608.13	44945.31
608.29	45064.67
608.44	45193.40
608.60	45022.54
608.75	44994.46
608.91	44971.05
609.06	45031.91
609.22	45677.90
609.37	45069.36
609.53	45357.24
609.68	45233.19
609.84	45193.40
609.99	45036.59
610.15	45476.61
610.30	44760.40
610.46	44928.92
610.61	45109.14
610.76	45102.12
610.92	45043.61
611.07	44940.63
611.23	44945.31
611.38	45551.51
611.54	44828.28
611.69	44676.15
611.84	44898.50
612.00	44837.64
612.15	44641.04
612.31	44891.48
612.46	44617.63
612.62	44959.35
612.77	44634.02
612.92	44877.43
613.08	44622.31
613.23	44519.33
613.39	44832.96
613.54	44112.08
613.69	44713.59
613.85	44598.91
614.00	44315.70
614.15	44598.91
614.31	44734.66
614.46	44676.15
614.62	44847.00
614.77	44542.74
614.92	44346.13
615.08	44465.50
615.23	44472.52
615.38	44505.29
615.54	43831.21
615.69	44175.27
615.84	44039.52
616.00	44495.92
616.15	44168.25
616.30	44474.86
616.46	44163.57
616.61	43920.15
616.76	44250.17
616.92	44339.11
617.07	43859.30
617.22	43622.90
617.37	43770.36
617.53	44208.04
617.68	44060.58
617.83	43711.84
617.99	44399.96
618.14	44383.58
618.29	44233.78
618.45	43629.93
618.60	43995.05
618.75	43966.96
618.90	43871.00
619.06	44224.42
619.21	44030.16
619.36	43807.81
619.51	43913.13
619.67	43849.94
619.82	43599.50
619.97	43725.89
620.12	43608.86
620.28	43318.64
620.43	43540.99
620.58	43658.01
620.73	43639.29
620.89	43510.56
621.04	44098.03
621.19	44013.77
621.34	43571.41
621.49	43489.49
621.65	43105.65
621.80	43945.90
621.95	43035.43
622.10	43365.45
622.25	43484.81
622.41	43402.89
622.56	43110.33
622.71	43398.21
622.86	43697.80
623.01	43445.02
623.16	43283.53
623.32	43028.41
623.47	43470.77
623.62	43229.69
623.77	43129.05
623.92	43194.59
624.07	42789.67
624.23	43070.54
624.38	43021.39
624.53	42696.05
624.68	42679.67
624.83	42988.62
624.98	42787.33
625.13	42815.42
625.29	43117.35
625.44	42759.25
625.59	42712.44
625.74	42773.29
625.89	42323.91
626.04	42529.87
626.19	42653.92
626.34	42789.67
626.49	42773.29
626.65	42595.41
626.80	43030.75
626.95	42536.90
627.10	42426.89
627.25	42576.69
627.40	42403.49
627.55	42223.26
627.70	41804.31
627.85	42141.35
628.00	42415.19
628.15	42895.00
628.30	42607.11
628.45	42548.60
628.60	42302.84
628.76	42312.20
628.91	42256.03
629.06	42628.18
629.21	42328.59
629.36	41998.57
629.51	41911.97
629.66	41900.27
629.81	41432.16
629.96	42052.41
630.11	42131.98
630.26	42417.53
630.41	42073.47
630.56	41682.60
630.71	42017.30
630.86	41879.21
631.01	41755.16
631.16	41937.72
631.31	41586.64
631.46	41111.51
631.61	41560.89
631.76	41600.68
631.91	41778.56
632.06	41361.95
632.21	42043.04
632.36	41937.72
632.51	41078.74
632.66	41794.95
632.81	41034.27
632.96	41900.27
633.10	41486.00
633.25	41060.02
633.40	41237.90
633.55	41319.82
633.70	41085.76
633.85	41298.75
634.00	41139.60
634.15	41387.69
634.30	40863.41
634.45	41270.67
634.60	41247.26
634.75	41069.38
634.90	41254.28
635.05	41205.13
635.19	41137.26
635.34	41560.89
635.49	41429.82
635.64	40926.61
635.79	40634.04
635.94	40992.14
636.09	41170.02
636.24	40582.55
636.39	40683.19
636.53	40718.30
636.68	40699.58
636.83	40694.89
636.98	40935.97
637.13	40772.13
637.28	40589.57
637.43	41050.66
637.57	41195.77
637.72	40734.68
637.87	40580.21
638.02	40203.38
638.17	40509.99
638.32	40563.82
638.46	40072.31
638.61	40371.90
638.76	40811.92
638.91	40137.85
639.06	40598.93
639.20	40245.51
639.35	40086.36
639.50	40357.86
639.65	40502.97
639.80	40554.46
639.94	40348.50
640.09	40027.84
640.24	40477.22
640.39	39606.55
640.54	39817.19
640.68	40072.31
640.83	39789.11
640.98	39903.79
641.13	40020.82
641.27	40416.37
641.42	39798.47
641.57	40009.12
641.72	40381.26
641.86	39784.43
642.01	39667.40
642.16	39964.65
642.31	39615.91
642.45	39379.51
642.60	39683.78
642.75	39442.71
642.90	39845.28
643.04	39725.91
643.19	39501.22
643.34	39913.16
643.48	40006.78
643.63	39754.00
643.78	39316.32
643.93	39370.15
644.07	39061.20
644.22	39449.73
644.37	39056.52
644.51	39143.12
644.66	39641.65
644.81	39679.10
644.95	39842.94
645.10	39388.88
645.25	39594.84
645.39	39536.33
645.54	39344.41
645.69	39154.82
645.83	39178.23
645.98	39250.78
646.13	39056.52
646.27	39438.03
646.42	39056.52
646.57	39349.09
646.71	39126.74
646.86	39208.65
647.00	38962.90
647.15	38787.36
647.30	39154.82
647.44	39330.36
647.59	38782.68
647.74	38864.60
647.88	38480.75
648.03	39035.45
648.17	38869.28
648.32	38920.77
648.47	38412.87
648.61	38218.61
648.76	38604.80
648.90	38808.42
649.05	38979.28
649.20	38717.14
649.34	38824.81
649.49	38911.41
649.63	38169.46
649.78	38944.17
649.92	38382.45
650.07	38754.59
650.21	38529.90
650.36	38572.03
650.51	38298.19
650.65	38763.95
650.80	38710.12
650.94	38621.18
651.09	38761.61
651.23	38333.29
651.38	38377.76
651.52	38305.21
651.67	38405.85
651.81	38124.99
651.96	37947.11
652.10	38082.86
652.25	37879.23
652.39	37876.89
652.54	38291.16
652.68	37947.11
652.83	38174.14
652.97	38171.80
653.12	38286.48
653.26	37951.79
653.41	37837.10
653.55	37479.00
653.70	37748.16
653.84	37949.45
653.99	38293.50
654.13	37928.38
654.27	37825.40
654.42	37862.85
654.56	37764.54
654.71	38026.68
654.85	37605.39
655.00	37624.11
655.14	37598.37
655.29	37361.97
655.43	37486.02
655.57	37340.91
655.72	37109.19
655.86	37273.03
656.01	36943.02
656.15	37041.32
656.30	37581.98
656.44	37345.59
656.58	37357.29
656.73	37163.03
656.87	37092.81
657.01	37106.85
657.16	36973.44
657.30	37120.90
657.45	37268.35
657.59	36959.40
657.73	37233.24
657.88	37167.71
658.02	36982.80
658.16	36919.61
658.31	37343.25
658.45	37228.56
658.60	36631.72
658.74	36847.05
658.88	36907.91
659.03	36910.25
659.17	36844.71
659.31	36598.96
659.46	36570.87
659.60	36594.28
659.74	36189.36
659.89	36252.56
660.03	36013.82
660.17	36673.85
660.32	36814.29
660.46	36734.71
660.60	36395.33
660.74	36177.66
660.89	36409.37
661.03	36137.87
661.17	35742.32
661.32	36039.57
661.46	35971.69
661.60	35967.01
661.74	36168.30
661.89	36009.14
662.03	35990.42
662.17	35999.78
662.31	36093.40
662.46	35894.46
662.60	35702.53
662.74	35868.71
662.88	35995.10
663.03	35517.63
663.17	35314.00
663.31	35508.27
663.45	35644.02
663.60	35051.86
663.74	35648.70
663.88	35079.95
664.02	35159.53
664.17	35536.35
664.31	34773.34
664.45	35171.23
664.59	34843.56
664.73	34948.88
664.88	35019.10
665.02	34335.66
665.16	34969.94
665.30	34885.68
665.44	34719.51
665.59	34387.15
665.73	34801.43
665.87	34129.69
666.01	34110.97
666.15	34543.97
666.29	34256.08
666.44	34300.55
666.58	34134.37
666.72	34302.89
666.86	34501.84
667.00	34256.08
667.14	34176.50
667.28	34092.24
667.43	33818.40
667.57	34000.96
667.71	33649.88
667.85	33858.19
667.99	34263.10
668.13	33371.36
668.27	33464.98
668.41	33954.15
668.56	33549.24
668.70	33720.10
668.84	33441.57
668.98	33607.75
669.12	33638.18
669.26	33333.91
669.40	33460.30
669.54	33198.16
669.68	33139.65
669.82	33514.13
669.96	32657.49
670.10	33146.67
670.25	33113.90
670.39	33191.14
670.53	32601.32
670.67	32833.04
670.81	33020.28
670.95	32821.33
671.09	32720.69
671.23	32594.30
671.37	32952.40
671.51	32549.83
671.65	32886.87
671.79	32594.30
671.93	32095.77
672.07	32400.04
672.21	32353.23
672.35	31969.38
672.49	32130.87
672.63	32418.76
672.77	32219.81
672.91	31793.84
673.05	31749.37
673.19	31557.44
673.33	31864.05
673.47	31433.39
673.61	31269.56
673.75	31620.64
673.89	31438.08
674.03	31271.90
674.17	31012.10
674.31	31115.08
674.45	31096.36
674.59	31475.52
674.73	31402.97
674.87	31068.27
675.01	31367.86
675.15	30831.88
675.29	31379.56
675.43	30932.52
675.56	30738.26
675.70	30600.16
675.84	30654.00
675.98	29397.13
676.12	30436.33
676.26	30185.89
676.40	29809.06
676.54	29841.83
676.68	29898.00
676.82	29525.86
676.96	29837.15
677.10	29682.67
677.23	29408.83
677.37	29647.57
677.51	29163.08
677.65	29525.86
677.79	29212.23
677.93	29118.60
678.07	29032.00
678.21	28872.85
678.34	28968.81
678.48	29036.69
678.62	28821.36
678.76	28584.96
678.90	28463.25
679.04	28650.50
679.18	28521.77
679.31	27880.46
679.45	28346.23
679.59	27843.01
679.73	28053.66
679.87	27978.76
680.00	27971.74
680.14	27538.74
680.28	27768.12
680.42	27620.66
680.56	28137.92
680.70	27601.94
680.83	27117.45
680.97	27494.27
681.11	27023.83
681.25	26841.26
681.39	27049.57
681.52	27159.58
681.66	27168.94
681.80	26995.74
681.94	26909.14
682.07	26944.25
682.21	26850.63
682.35	26380.18
682.49	26487.84
682.62	26656.36
682.76	26211.66
682.90	25986.97
683.04	26375.50
683.17	26160.17
683.31	25923.77
683.45	25827.81
683.59	26192.94
683.72	25294.17
683.86	25373.75
684.00	25062.46
684.13	25301.19
684.27	25212.25
684.41	25380.77
684.55	25205.23
684.68	25303.53
684.82	25060.12
684.96	24893.94
685.09	24812.02
685.23	24655.20
685.37	24694.99
685.50	24664.57
685.64	24290.08
685.78	24360.30
685.91	24383.70
686.05	24325.19
686.19	24049.00
686.32	24203.48
686.46	23644.09
686.60	23562.17
686.73	23527.06
686.87	23728.35
687.01	23620.69
687.14	23412.38
687.28	23084.70
687.42	23250.88
687.55	23150.24
687.69	22960.66
687.82	22714.90
687.96	23185.35
688.10	23147.90
688.23	22630.64
688.37	22492.55
688.50	22281.90
688.64	22441.06
688.78	22387.22
688.91	22111.04
689.05	22506.59
689.18	21914.44
689.32	22052.53
689.46	21914.44
689.59	22436.38
689.73	22518.29
689.86	21743.58
690.00	21820.81
690.13	21923.80
690.27	21781.03
690.41	21619.53
690.54	21259.09
690.68	21242.70
690.81	21261.43
690.95	21095.25
691.08	20912.69
691.22	20971.20
691.35	20856.51
691.49	20793.32
691.62	21202.91
691.76	20978.22
691.89	20922.05
692.03	20486.71
692.16	20367.34
692.30	20250.32
692.43	20470.33
692.57	20210.53
692.70	20402.45
692.84	20163.72
692.97	19435.81
693.11	20011.58
693.24	19749.44
693.38	19452.19
693.51	19564.54
693.65	19873.49
693.78	19857.10
693.92	19623.05
694.05	19426.45
694.19	19524.75
694.32	19096.43
694.45	19522.41
694.59	18972.38
694.72	19133.88
694.86	18979.40
694.99	18888.12
695.13	18773.44
695.26	18705.56
695.39	18436.40
695.53	18808.54
695.66	18190.64
695.80	18391.93
695.93	18216.39
696.07	18106.38
696.20	18251.50
696.33	18094.68
696.47	17977.65
696.60	17912.12
696.73	17928.50
696.87	17767.01
697.00	17937.87
697.14	17841.90
697.27	17867.65
697.40	17769.35
697.54	17877.01
697.67	17259.11
697.80	17453.37
697.94	17418.27
698.07	17202.94
698.21	17205.28
698.34	17116.34
698.47	17003.99
698.61	16910.37
698.74	16828.45
698.87	16596.74
699.01	16449.28
699.14	16526.52
699.27	16386.09
699.40	16456.31
699.54	16053.73
699.67	16009.26
699.80	16030.33
699.94	15906.28
700.07	16163.74
700.20	16077.14
700.34	15880.53
700.47	16032.67
700.60	16095.86
700.73	15920.32
700.87	15566.90
701.00	15594.99
701.13	15494.35
701.26	15566.90
701.40	15510.73
701.53	15211.14
701.66	15494.35
701.79	15225.18
701.93	15070.71
702.06	15080.07
702.19	14897.51
702.32	15051.99
702.46	15103.48
702.59	14761.76
702.72	14728.99
702.85	14710.27
702.99	14848.36
703.12	14892.83
703.25	14750.06
703.38	14326.42
703.51	14263.22
703.65	14410.68
703.78	14160.24
703.91	14104.07
704.04	14216.41
704.17	14066.62
704.31	14125.13
704.44	14101.73
704.57	13682.77
704.70	13390.20
704.83	13589.15
704.96	13895.76
705.10	13792.78
705.23	13687.45
>>>>>End Processed Spectral Data<<<<<
