SpectraSuite Data File
++++++++++++++++++++++++++++++++++++
Date: Fri Oct 25 10:48:11 EDT 2013
User: price-jones
Dark Spectrum Present: No
Reference Spectrum Present: No
Number of Sampled Component Spectra: 1
Spectrometers: USB2+H05261
Integration Time (usec): 100000 (USB2+H05261)
Spectra Averaged: 1 (USB2+H05261)
Boxcar Smoothing: 0 (USB2+H05261)
Correct for Electrical Dark: No (USB2+H05261)
Strobe/Lamp Enabled: No (USB2+H05261)
Correct for Detector Non-linearity: No (USB2+H05261)
Correct for Stray Light: No (USB2+H05261)
Number of Pixels in Processed Spectrum: 2048
>>>>>Begin Processed Spectral Data<<<<<
365.73	149.79
365.92	149.79
366.12	149.79
366.32	88.94
366.52	49.15
366.72	7.02
366.91	39.79
367.11	147.45
367.31	60.85
367.51	98.30
367.70	65.54
367.90	9.36
368.10	81.92
368.30	37.45
368.49	49.15
368.69	105.32
368.89	0.00
369.09	70.22
369.28	35.11
369.48	128.73
369.68	112.35
369.87	131.07
370.07	110.01
370.27	196.60
370.47	227.03
370.66	395.55
370.86	472.79
371.06	395.55
371.25	416.62
371.45	428.32
371.65	435.34
371.84	409.59
372.04	416.62
372.24	486.83
372.44	456.40
372.63	507.90
372.83	519.60
373.03	550.03
373.22	559.39
373.42	535.98
373.62	493.85
373.81	486.83
374.01	554.71
374.21	533.64
374.40	540.66
374.60	620.24
374.79	554.71
374.99	580.45
375.19	559.39
375.38	585.13
375.58	603.86
375.78	580.45
375.97	573.43
376.17	645.99
376.37	540.66
376.56	552.37
376.76	610.88
376.95	566.41
377.15	636.63
377.35	585.13
377.54	599.18
377.74	664.71
377.93	622.58
378.13	606.20
378.33	648.33
378.52	664.71
378.72	582.79
378.91	667.05
379.11	697.48
379.31	645.99
379.50	585.13
379.70	594.50
379.89	664.71
380.09	610.88
380.28	620.24
380.48	667.05
380.68	615.56
380.87	617.90
381.07	723.23
381.26	690.46
381.46	683.44
381.65	645.99
381.85	608.54
382.04	718.54
382.24	667.05
382.43	699.82
382.63	786.42
382.83	657.69
383.02	709.18
383.22	702.16
383.41	692.80
383.61	653.01
383.80	781.74
384.00	681.10
384.19	692.80
384.39	777.06
384.58	744.29
384.78	751.31
384.97	788.76
385.17	809.83
385.36	758.33
385.56	723.23
385.75	746.63
385.95	760.67
386.14	863.66
386.34	791.10
386.53	802.80
386.72	751.31
386.92	791.10
387.11	837.91
387.31	863.66
387.50	812.17
387.70	894.08
387.89	767.70
388.09	828.55
388.28	770.04
388.48	812.17
388.67	884.72
388.86	837.91
389.06	880.04
389.25	945.58
389.45	898.77
389.64	912.81
389.84	837.91
390.03	938.55
390.22	933.87
390.42	938.55
390.61	933.87
390.81	994.73
391.00	905.79
391.19	978.34
391.39	990.05
391.58	1022.81
391.78	945.58
391.97	945.58
392.16	1036.86
392.36	1015.79
392.55	964.30
392.75	952.60
392.94	947.92
393.13	912.81
393.33	858.98
393.52	1043.88
393.71	1064.94
393.91	1097.71
394.10	1055.58
394.29	1041.54
394.49	1125.80
394.68	1118.78
394.88	1158.57
395.07	1114.10
395.26	1109.41
395.46	1196.01
395.65	1139.84
395.84	1207.72
396.04	1224.10
396.23	1128.14
396.42	1132.82
396.62	1153.88
396.81	1142.18
397.00	1128.14
397.19	1212.40
397.39	1256.87
397.58	1289.64
397.77	1331.76
397.97	1160.91
398.16	1282.61
398.35	1233.46
398.55	1352.83
398.74	1357.51
398.93	1196.01
399.12	1315.38
399.32	1308.36
399.51	1315.38
399.70	1348.15
399.90	1401.98
400.09	1380.92
400.28	1329.42
400.47	1383.26
400.67	1327.08
400.86	1451.13
401.05	1519.01
401.24	1523.69
401.44	1526.03
401.63	1486.24
401.82	1460.49
402.01	1507.30
402.21	1554.12
402.40	1563.48
402.59	1596.25
402.78	1596.25
402.97	1607.95
403.17	1696.89
403.36	1584.54
403.55	1633.69
403.74	1577.52
403.93	1610.29
404.13	1659.44
404.32	1626.67
404.51	1668.80
404.70	1732.00
404.89	1652.42
405.09	1736.68
405.28	1664.12
405.47	1746.04
405.66	1809.23
405.85	1727.32
406.05	1734.34
406.24	1762.42
406.43	1797.53
406.62	1804.55
406.81	1783.49
407.00	1872.43
407.20	1806.89
407.39	1851.36
407.58	1832.64
407.77	1881.79
407.96	1905.20
408.15	1895.83
408.34	1966.05
408.54	2012.86
408.73	2005.84
408.92	1996.48
409.11	1994.14
409.30	1989.46
409.49	2085.42
409.68	2033.93
409.87	2085.42
410.07	2172.02
410.26	2150.95
410.45	2127.55
410.64	2125.21
410.83	2073.71
411.02	2265.64
411.21	2162.66
411.40	2340.54
411.59	2282.02
411.78	2324.15
411.98	2403.73
412.17	2282.02
412.36	2352.24
412.55	2399.05
412.74	2480.97
412.93	2462.24
413.12	2424.80
413.31	2555.86
413.50	2623.74
413.69	2546.50
413.88	2572.25
414.07	2520.76
414.26	2590.97
414.45	2583.95
414.64	2649.49
414.83	2693.96
415.02	2684.59
415.22	2846.09
415.41	2827.37
415.60	2750.13
415.79	2832.05
415.98	2951.42
416.17	2820.35
416.36	2942.05
416.55	2850.77
416.74	2942.05
416.93	2935.03
417.12	2951.42
417.31	3096.53
417.50	2930.35
417.69	3115.25
417.88	2995.89
418.07	3052.06
418.26	2958.44
418.45	3070.78
418.64	3197.17
418.83	3173.77
419.02	3201.85
419.21	3180.79
419.39	3112.91
419.58	3197.17
419.77	3185.47
419.96	3241.64
420.15	3318.88
420.34	3276.75
420.53	3349.31
420.72	3447.61
420.91	3342.28
421.10	3400.80
421.29	3494.42
421.48	3370.37
421.67	3377.39
421.86	3304.84
422.05	3386.76
422.24	3426.54
422.43	3330.58
422.61	3473.36
422.80	3456.97
422.99	3590.38
423.18	3543.57
423.37	3501.44
423.56	3478.04
423.75	3372.71
423.94	3555.27
424.13	3382.07
424.32	3468.67
424.50	3433.57
424.69	3674.64
424.88	3681.66
425.07	3499.10
425.26	3613.79
425.45	3503.78
425.64	3522.51
425.83	3747.20
426.01	3499.10
426.20	3576.34
426.39	3501.44
426.58	3538.89
426.77	3543.57
426.96	3499.10
427.15	3639.53
427.33	3721.45
427.52	3648.90
427.71	3693.37
427.90	3889.97
428.09	3742.52
428.28	3775.28
428.46	3779.97
428.65	3817.41
428.84	4037.42
429.03	3815.07
429.22	3913.38
429.40	3831.46
429.59	3864.22
429.78	3733.15
429.97	3740.18
430.16	3644.21
430.34	3836.14
430.53	3843.16
430.72	3833.80
430.91	3936.78
431.10	3906.35
431.28	4025.72
431.47	4189.56
431.66	4114.66
431.85	4067.85
432.03	4072.53
432.22	4255.09
432.41	4168.49
432.60	4278.50
432.79	4156.79
432.97	4241.05
433.16	4283.18
433.35	4329.99
433.54	4273.82
433.72	4264.46
433.91	4091.26
434.10	4290.20
434.28	4196.58
434.47	4259.78
434.66	4432.97
434.85	4451.70
435.03	4470.42
435.22	4325.31
435.41	4542.98
435.59	4564.04
435.78	4681.07
435.97	4601.49
436.16	4622.56
436.34	4547.66
436.53	4528.94
436.72	4793.42
436.90	4655.33
437.09	4580.43
437.28	4498.51
437.46	4741.93
437.65	4629.58
437.84	4781.71
438.02	4795.76
438.21	4753.63
438.40	4727.88
438.58	4870.65
438.77	5027.47
438.96	4849.59
439.14	5085.98
439.33	5102.37
439.52	4983.00
439.70	5081.30
439.89	5020.45
440.08	5088.32
440.26	5130.45
440.45	5214.71
440.63	5322.38
440.82	5376.21
441.01	5516.64
441.19	5343.44
441.38	5476.85
441.57	5528.35
441.75	5521.32
441.94	5692.18
442.12	5603.24
442.31	5682.82
442.50	5628.99
442.68	5596.22
442.87	5621.97
443.05	5830.27
443.24	5720.27
443.43	5717.93
443.61	5905.17
443.80	5893.47
443.98	5476.85
444.17	5617.29
444.35	5570.48
444.54	5839.64
444.73	5788.14
444.91	5844.32
445.10	5853.68
445.28	5738.99
445.47	5774.10
445.65	5870.06
445.84	5717.93
446.02	5788.14
446.21	5984.75
446.39	6038.58
446.58	6024.54
446.77	5968.37
446.95	5865.38
447.14	5746.02
447.32	6106.46
447.51	5856.02
447.69	6108.80
447.88	6052.63
448.06	6031.56
448.25	5977.73
448.43	6073.69
448.62	6111.14
448.80	5877.09
448.99	6104.12
449.17	5963.68
449.36	6069.01
449.54	6181.35
449.73	6169.65
449.91	6258.59
450.10	6335.83
450.28	6434.13
450.46	6523.07
450.65	6258.59
450.83	6410.73
451.02	6235.19
451.20	6628.40
451.39	6415.41
451.57	6408.39
451.76	6450.52
451.94	6511.37
452.13	6574.56
452.31	6363.92
452.49	6492.65
452.68	6539.46
452.86	6558.18
453.05	6604.99
453.23	6630.74
453.42	6466.90
453.60	6492.65
453.78	6658.82
453.97	6516.05
454.15	6499.67
454.34	6455.20
454.52	6874.15
454.70	6658.82
454.89	6600.31
455.07	6726.70
455.26	6745.42
455.44	6960.75
455.62	6780.53
455.81	7023.95
455.99	7126.93
456.17	6932.67
456.36	7129.27
456.54	7063.74
456.73	7148.00
456.91	7286.09
457.09	7276.73
457.28	7459.29
457.46	7255.66
457.64	7318.86
457.83	7283.75
458.01	7311.83
458.19	7363.33
458.38	7201.83
458.56	7393.75
458.74	7463.97
458.93	7513.12
459.11	7550.57
459.29	7494.40
459.48	7482.69
459.66	7485.03
459.84	7524.82
460.03	7606.74
460.21	7452.27
460.39	7555.25
460.57	7660.57
460.76	7667.60
460.94	7735.47
461.12	7737.81
461.31	7822.07
461.49	7906.33
461.67	7920.37
461.85	7817.39
462.04	7801.01
462.22	8376.78
462.40	8049.10
462.59	7939.10
462.77	7999.95
462.95	7831.43
463.13	8224.64
463.32	8133.36
463.50	8250.39
463.68	8248.05
463.86	8306.56
464.05	7960.16
464.23	8065.49
464.41	8105.28
464.59	8131.02
464.78	8491.46
464.96	8234.00
465.14	8107.62
465.32	8189.53
465.50	8304.22
465.69	8292.52
465.87	8425.93
466.05	8348.69
466.23	8416.57
466.41	8327.63
466.60	8564.02
466.78	8446.99
466.96	8402.52
467.14	8290.18
467.32	8547.64
467.51	8631.90
467.69	8329.97
467.87	8624.87
468.05	8809.78
468.23	8430.61
468.41	8599.13
468.60	8674.03
468.78	8491.46
468.96	8580.40
469.14	8685.73
469.32	8884.67
469.50	8629.56
469.69	8767.65
469.87	9039.15
470.05	9034.47
470.23	8952.55
470.41	8875.31
470.59	8894.04
470.77	8915.10
470.95	8945.53
471.14	9327.03
471.32	9006.38
471.50	9317.67
471.68	9280.22
471.86	9371.50
472.04	9322.35
472.22	9645.35
472.40	9343.42
472.58	9441.72
472.77	9397.25
472.95	9624.28
473.13	9769.40
473.31	9743.65
473.49	9488.53
473.67	9568.11
473.85	9664.07
474.03	10064.30
474.21	9916.85
474.39	10171.97
474.57	10094.73
474.75	10068.98
474.93	10188.35
475.12	10047.92
475.30	10115.80
475.48	10106.43
475.66	10253.89
475.84	10223.46
476.02	10520.71
476.20	10265.59
476.38	10530.07
476.56	10759.44
476.74	10647.10
476.92	10721.99
477.10	10729.02
477.28	11117.54
477.46	10820.30
477.64	10932.64
477.82	11250.96
478.00	11442.88
478.18	11283.72
478.36	11325.85
478.54	11492.03
478.72	11494.37
478.90	11714.38
479.08	11784.60
479.26	12095.89
479.44	11658.21
479.62	12102.91
479.80	12070.14
479.98	12315.90
480.16	12734.85
480.34	12327.60
480.52	12545.27
480.70	12688.04
480.88	12217.60
481.06	12690.38
481.24	12617.83
481.41	12786.35
481.59	13053.17
481.77	13259.13
481.95	13020.40
482.13	13371.48
482.31	13076.57
482.49	13476.80
482.67	13413.61
482.85	13549.36
483.03	13879.38
483.21	14092.37
483.39	14171.94
483.57	14118.11
483.74	14068.96
483.92	14324.08
484.10	14340.46
484.28	14415.36
484.46	14546.43
484.64	14951.34
484.82	14661.12
485.00	15061.35
485.18	15002.83
485.35	15281.36
485.53	14906.87
485.71	14855.38
485.89	15433.49
486.07	15241.57
486.25	15279.02
486.43	15421.79
486.61	15889.90
486.78	15740.10
486.96	15992.88
487.14	16201.19
487.32	16393.11
487.50	16400.13
487.68	16767.60
487.85	16676.32
488.03	17085.91
488.21	17018.04
488.39	17076.55
488.57	17308.26
488.75	17490.82
488.92	17275.49
489.10	17827.86
489.28	17710.83
489.46	17874.67
489.64	18125.11
489.81	18403.63
489.99	18457.46
490.17	18429.38
490.35	18782.80
490.53	18520.66
490.70	19084.73
490.88	18586.19
491.06	19028.56
491.24	18904.51
491.41	19096.43
491.59	18958.34
491.77	19229.84
491.95	19587.94
492.13	19599.65
492.30	19899.23
492.48	19894.55
492.66	19765.82
492.84	20168.40
493.01	20381.38
493.19	20130.95
493.37	20121.59
493.54	20397.77
493.72	21135.04
493.90	21036.74
494.08	20971.20
494.25	21387.82
494.43	20987.58
494.61	21757.62
494.79	21460.37
494.96	21708.47
495.14	21261.43
495.32	22150.83
495.49	21813.79
495.67	21788.05
495.85	22146.15
496.02	22422.33
496.20	22417.65
496.38	22448.08
496.55	22799.16
496.73	22813.20
496.91	22618.94
497.09	23115.13
497.26	23140.88
497.44	23190.03
497.62	23150.24
497.79	23384.29
497.97	23248.54
498.14	23517.70
498.32	23838.36
498.50	23810.27
498.67	23896.87
498.85	23924.96
499.03	24245.61
499.20	24191.78
499.38	24402.43
499.56	24343.91
499.73	24629.46
499.91	24318.17
500.08	24702.01
500.26	24402.43
500.44	24725.42
500.61	24458.60
500.79	24573.28
500.97	25092.88
501.14	25462.69
501.32	25214.59
501.49	25139.69
501.67	25549.29
501.84	25493.12
502.02	25376.09
502.20	25516.52
502.37	25905.05
502.55	25785.68
502.72	25937.82
502.90	26206.98
503.07	26106.34
503.25	26246.77
503.43	26263.15
503.60	26185.91
503.78	26316.98
503.95	26038.46
504.13	26492.52
504.30	26892.76
504.48	26429.33
504.65	26829.56
504.83	26834.24
505.01	26810.84
505.18	27098.72
505.36	27384.27
505.53	27213.41
505.71	27590.24
505.88	27473.21
506.06	27384.27
506.23	27283.62
506.41	27232.13
506.58	27314.05
506.76	27665.13
506.93	27861.74
507.11	28027.92
507.28	28133.24
507.46	28121.54
507.63	27819.61
507.81	28332.18
507.98	28067.70
508.16	28409.42
508.33	28158.99
508.50	28648.16
508.68	28765.18
508.85	28931.36
509.03	28868.17
509.20	29333.93
509.38	28933.70
509.55	28910.30
509.73	29149.03
509.90	29680.33
510.08	29486.07
510.25	29188.82
510.42	29530.54
510.60	29495.43
510.77	29493.09
510.95	29902.68
511.12	29476.71
511.30	29694.38
511.47	30033.75
511.64	30260.79
511.82	30015.03
511.99	29930.77
512.17	30251.42
512.34	29869.92
512.51	30284.19
512.69	30422.28
512.86	30632.93
513.04	30656.34
513.21	30541.65
513.38	30838.90
513.56	30548.67
513.73	30871.67
513.90	30988.69
514.08	30820.17
514.25	31178.28
514.43	30923.16
514.60	30892.73
514.77	31063.59
514.95	31360.84
515.12	31309.35
515.29	31562.12
515.47	31697.88
515.64	31913.20
515.81	31578.51
515.99	31915.54
516.16	31622.98
516.33	31761.07
516.51	31775.11
516.68	31590.21
516.85	31875.76
517.03	31800.86
517.20	32109.81
517.37	32259.60
517.54	32112.15
517.72	32346.20
517.89	32240.88
518.06	32163.64
518.24	31974.06
518.41	32278.33
518.58	32432.80
518.75	32184.71
518.93	33287.10
519.10	32699.62
519.27	32929.00
519.45	33123.26
519.62	33111.56
519.79	33001.55
519.96	33457.96
520.14	33544.56
520.31	33247.31
520.48	33600.73
520.65	33450.94
520.83	33757.55
521.00	33490.73
521.17	33546.90
521.34	33567.96
521.52	33694.35
521.69	33956.49
521.86	34068.84
522.03	34157.78
522.20	34129.69
522.38	34024.37
522.55	34663.33
522.72	34478.43
522.89	34466.73
523.07	34890.37
523.24	33923.72
523.41	34600.14
523.58	34326.30
523.75	34960.58
523.92	34707.80
524.10	34958.24
524.27	34782.70
524.44	34871.64
524.61	35386.56
524.78	35548.06
524.96	35414.65
525.13	35285.92
525.30	35669.76
525.47	35592.53
525.64	35550.40
525.81	35634.66
525.98	35353.79
526.16	35278.89
526.33	35278.89
526.50	35885.09
526.67	35641.68
526.84	35732.96
527.01	35339.75
527.18	35604.23
527.36	36048.93
527.53	35985.74
527.70	36374.27
527.87	36428.10
528.04	36259.58
528.21	36563.85
528.38	36224.47
528.55	36210.43
528.72	36613.00
528.89	36477.25
529.07	36252.56
529.24	36446.82
529.41	36882.16
529.58	36336.82
529.75	36343.84
529.92	37179.41
530.09	36795.56
530.26	37027.28
530.43	36921.95
530.60	36992.17
530.77	36488.95
530.94	36837.69
531.11	37397.08
531.28	37200.47
531.46	37179.41
531.63	37106.85
531.80	37617.09
531.97	37663.90
532.14	37457.93
532.31	37113.87
532.48	37759.86
532.65	37574.96
532.82	37862.85
532.99	37869.87
533.16	37689.65
533.33	37392.40
533.50	38108.60
533.67	38003.28
533.84	37935.40
534.01	37954.13
534.18	37937.74
534.35	38644.59
534.52	38522.88
534.69	38417.55
534.86	38216.27
535.03	37907.32
535.20	38745.23
535.37	38735.87
535.54	38918.43
535.71	38192.86
535.88	38462.02
536.05	38052.43
536.22	38555.64
536.38	38569.69
536.55	38646.93
536.72	38660.97
536.89	37919.02
537.06	38923.11
537.23	38937.15
537.40	38682.03
537.57	38682.03
537.74	39007.37
537.91	39098.65
538.08	39159.50
538.25	38630.54
538.42	38946.51
538.59	39171.21
538.75	38845.87
538.92	39690.80
539.09	39372.49
539.26	39428.66
539.43	39543.35
539.60	39419.30
539.77	39503.56
539.94	39646.33
540.11	39332.70
540.28	39632.29
540.44	39695.49
540.61	39377.17
540.78	39569.10
540.95	39484.84
541.12	39634.63
541.29	39803.15
541.46	39639.31
541.62	40116.78
541.79	40367.22
541.96	39627.61
542.13	39847.62
542.30	39990.39
542.47	40198.70
542.63	40114.44
542.80	40123.80
542.97	40458.50
543.14	40685.53
543.31	40577.87
543.48	40889.16
543.64	41427.48
543.81	40715.96
543.98	40849.37
544.15	40540.42
544.32	40788.52
544.48	40765.11
544.65	40767.45
544.82	40854.05
544.99	40587.23
545.16	40720.64
545.32	41134.92
545.49	41378.33
545.66	41413.44
545.83	41254.28
546.00	41507.06
546.16	41305.77
546.33	41413.44
546.50	40978.10
546.67	40999.16
546.83	40854.05
547.00	41109.17
547.17	40821.28
547.34	40924.27
547.50	41448.55
547.67	41710.69
547.84	41361.95
548.00	41926.02
548.17	41563.23
548.34	41708.35
548.51	42050.06
548.67	41865.16
548.84	41539.83
549.01	41612.38
549.18	41710.69
549.34	41968.15
549.51	42115.60
549.68	41876.86
549.84	42150.71
550.01	42335.61
550.18	42045.38
550.34	41947.08
550.51	42026.66
550.68	42043.04
550.84	41853.46
551.01	42415.19
551.18	42396.46
551.34	42087.51
551.51	42223.26
551.68	42349.65
551.84	42696.05
552.01	41902.61
552.18	42469.02
552.34	41818.35
552.51	42382.42
552.68	42417.53
552.84	42295.82
553.01	42997.98
553.18	42373.06
553.34	42579.03
553.51	42588.39
553.67	42698.39
553.84	42742.86
554.01	42897.34
554.17	42649.24
554.34	43157.14
554.51	42693.71
554.67	43019.05
554.84	42897.34
555.00	42703.07
555.17	42366.04
555.33	42993.30
555.50	42803.72
555.67	43201.61
555.83	42586.05
556.00	43225.01
556.16	43423.96
556.33	43246.08
556.50	43112.67
556.66	43374.81
556.83	42904.36
556.99	43496.52
557.16	43126.71
557.32	43655.67
557.49	43690.78
557.65	42902.02
557.82	43243.74
557.98	43213.31
558.15	43178.20
558.32	43440.34
558.48	43311.61
558.65	43248.42
558.81	43143.09
558.98	43091.60
559.14	43667.37
559.31	43459.07
559.47	43447.36
559.64	44156.55
559.80	43655.67
559.97	43716.53
560.13	43646.31
560.30	43583.12
560.46	43608.86
560.63	43487.15
560.79	44051.22
560.96	43920.15
561.12	43526.94
561.29	43709.50
561.45	43704.82
561.61	43716.53
561.78	43533.96
561.94	43269.48
562.11	43592.48
562.27	43292.89
562.44	43739.93
562.60	44079.31
562.77	44098.03
562.93	43922.49
563.10	44079.31
563.26	43805.47
563.42	44374.22
563.59	43828.87
563.75	43810.15
563.92	44079.31
564.08	44013.77
564.24	44348.47
564.41	43854.62
564.57	44020.80
564.74	44364.85
564.90	44130.80
565.07	43842.92
565.23	43931.86
565.39	44273.57
565.56	44105.06
565.72	43983.35
565.88	44233.78
566.05	44360.17
566.21	44168.25
566.38	44194.00
566.54	44027.82
566.70	44229.10
566.87	44594.23
567.03	44144.84
567.19	44514.65
567.36	44273.57
567.52	43737.59
567.68	44346.13
567.85	44275.91
568.01	45010.84
568.17	44051.22
568.34	44587.21
568.50	43849.94
568.66	44308.68
568.83	44226.76
568.99	44163.57
569.15	44460.82
569.32	44411.67
569.48	44109.74
569.64	44383.58
569.81	44516.99
569.97	44388.26
570.13	44767.43
570.30	44631.68
570.46	44240.81
570.62	44259.53
570.78	44034.84
570.95	44453.79
571.11	44580.18
571.27	44252.51
571.43	44512.31
571.60	44531.03
571.76	43943.56
571.92	44238.47
572.09	44432.73
572.25	44638.70
572.41	44226.76
572.57	44687.85
572.74	44739.34
572.90	44306.34
573.06	44516.99
573.22	44715.93
573.38	44186.97
573.55	44383.58
573.71	44868.07
573.87	44282.94
574.03	44102.71
574.20	44182.29
574.36	44226.76
574.52	44437.41
574.68	44612.95
574.84	44619.97
575.01	44280.60
575.17	44500.61
575.33	44500.61
575.49	44137.82
575.65	44985.10
575.82	44811.90
575.98	44500.61
576.14	44573.16
576.30	44938.29
576.46	44304.00
576.62	44470.18
576.79	44739.34
576.95	44463.16
577.11	44285.28
577.27	44788.49
577.43	44882.11
577.59	44626.99
577.75	44605.93
577.92	44325.07
578.08	44542.74
578.24	44280.60
578.40	44652.74
578.56	44671.46
578.72	44699.55
578.88	44182.29
579.04	44718.28
579.21	44453.79
579.37	44631.68
579.53	44390.60
579.69	44573.16
579.85	44769.77
580.01	44652.74
580.17	44851.69
580.33	45090.42
580.49	44893.82
580.65	44865.73
580.82	44758.06
580.98	44678.49
581.14	44479.54
581.30	44711.25
581.46	44596.57
581.62	44821.26
581.78	44603.59
581.94	45174.68
582.10	44680.83
582.26	44849.35
582.42	44800.19
582.58	44797.85
582.74	45120.85
582.90	44994.46
583.06	44931.26
583.22	45240.21
583.38	44596.57
583.54	44875.09
583.70	44753.38
583.86	44664.44
584.02	44346.13
584.18	44814.24
584.34	45118.51
584.50	44772.11
584.66	44395.28
584.82	44624.65
584.98	45184.04
585.14	45067.02
585.30	44577.84
585.46	44980.42
585.62	44552.10
585.78	45113.83
585.94	44243.15
586.10	44917.22
586.26	44449.11
586.42	45095.10
586.58	44921.90
586.74	44842.32
586.90	44596.57
587.06	44683.17
587.22	44701.89
587.38	44467.84
587.54	45055.31
587.70	45177.02
587.86	45013.18
588.02	45123.19
588.18	44985.10
588.34	44605.93
588.49	44617.63
588.65	44512.31
588.81	44769.77
588.97	44629.34
589.13	44580.18
589.29	44629.34
589.45	44978.07
589.61	44847.00
589.77	45333.84
589.93	44678.49
590.08	45373.63
590.24	45160.64
590.40	45076.38
590.56	45167.66
590.72	45312.77
590.88	44957.01
591.04	44807.22
591.20	45684.92
591.35	45532.78
591.51	45380.65
591.67	44617.63
591.83	45027.23
591.99	44912.54
592.15	44734.66
592.31	44957.01
592.46	45200.43
592.62	45172.34
592.78	45277.66
592.94	45455.54
593.10	45088.08
593.26	45280.00
593.41	45221.49
593.57	45106.80
593.73	45083.40
593.89	45521.08
594.05	45102.12
594.20	45134.89
594.36	45219.15
594.52	45001.48
594.68	45146.59
594.84	45074.04
594.99	45366.60
595.15	45109.14
595.31	45523.42
595.47	44669.12
595.62	45343.20
595.78	45741.09
595.94	45446.18
596.10	44903.18
596.25	45352.56
596.41	45048.29
596.57	45181.70
596.73	45329.16
596.88	45177.02
597.04	45553.85
597.20	45731.73
597.36	45268.30
597.51	45404.05
597.67	45315.11
597.83	45588.95
597.99	45677.90
598.14	44940.63
598.30	44933.60
598.46	45097.44
598.61	45125.53
598.77	45078.72
598.93	44992.12
599.09	45085.74
599.24	45701.30
599.40	45455.54
599.56	45385.33
599.71	45518.74
599.87	45352.56
600.03	45373.63
600.18	45450.86
600.34	45160.64
600.50	45277.66
600.65	45181.70
600.81	45425.12
600.97	45551.51
601.12	45696.62
601.28	44989.78
601.44	45469.59
601.59	45186.38
601.75	45301.07
601.91	45074.04
602.06	45062.33
602.22	45209.79
602.37	45205.11
602.53	45467.25
602.69	45404.05
602.84	45502.35
603.00	45247.24
603.16	45170.00
603.31	44968.71
603.47	45277.66
603.62	45359.58
603.78	45202.77
603.94	45198.09
604.09	45544.48
604.25	44797.85
604.40	45607.68
604.56	45069.36
604.71	45476.61
604.87	44999.14
605.03	45385.33
605.18	45272.98
605.34	44713.59
605.49	44734.66
605.65	45099.78
605.80	45078.72
605.96	45390.01
606.12	45317.45
606.27	45544.48
606.43	44877.43
606.58	45127.87
606.74	45055.31
606.89	44631.68
607.05	45134.89
607.20	45209.79
607.36	44952.33
607.51	45095.10
607.67	45397.03
607.82	44847.00
607.98	45102.12
608.13	45308.09
608.29	44945.31
608.44	45162.98
608.60	44325.07
608.75	44547.42
608.91	44671.46
609.06	44685.51
609.22	44556.78
609.37	44315.70
609.53	45146.59
609.68	44964.03
609.84	44533.37
609.99	44811.90
610.15	44699.55
610.30	44804.88
610.46	44612.95
610.61	44643.38
610.76	44980.42
610.92	44933.60
611.07	44362.51
611.23	44975.73
611.38	44762.75
611.54	44594.23
611.69	44254.85
611.84	44346.13
612.00	44453.79
612.15	44563.80
612.31	44781.47
612.46	44151.87
612.62	44301.66
612.77	44612.95
612.92	44306.34
613.08	44514.65
613.23	44650.40
613.39	44252.51
613.54	44463.16
613.69	44201.02
613.85	44224.42
614.00	44458.48
614.15	44573.16
614.31	44666.78
614.46	44189.31
614.62	44423.37
614.77	44076.97
614.92	44093.35
615.08	44194.00
615.23	43948.24
615.38	44355.49
615.54	43681.42
615.69	44116.76
615.84	43597.16
616.00	44224.42
616.15	43793.76
616.30	44186.97
616.46	43587.80
616.61	43356.08
616.76	44100.37
616.92	44128.46
617.07	43721.21
617.22	43672.06
617.37	43945.90
617.53	44313.36
617.68	44353.15
617.83	43959.94
617.99	44186.97
618.14	43599.50
618.29	43665.03
618.45	43983.35
618.60	43892.07
618.75	43761.00
618.90	43742.27
619.06	43873.34
619.21	43566.73
619.36	43728.23
619.51	43655.67
619.67	43711.84
619.82	43468.43
619.97	43849.94
620.12	43639.29
620.28	43395.87
620.43	43412.26
620.58	43412.26
620.73	43641.63
620.89	43854.62
621.04	43480.13
621.19	43264.80
621.34	43489.49
621.49	43367.79
621.65	43487.15
621.80	43484.81
621.95	43161.82
622.10	42974.58
622.25	43407.58
622.41	42958.19
622.56	43058.84
622.71	43386.51
622.86	43210.97
623.01	43122.03
623.16	43559.71
623.32	43098.62
623.47	43271.82
623.62	43033.09
623.77	42824.78
623.92	42880.95
624.07	42581.37
624.23	42426.89
624.38	42417.53
624.53	42810.74
624.68	43063.52
624.83	42794.36
624.98	42948.83
625.13	42422.21
625.29	43133.73
625.44	42878.61
625.59	42696.05
625.74	42663.28
625.89	42588.39
626.04	42284.12
626.19	42401.14
626.34	42375.40
626.49	42047.72
626.65	42553.28
626.80	42710.10
626.95	42663.28
627.10	42073.47
627.25	42220.92
627.40	41879.21
627.55	42045.38
627.70	41855.80
627.85	41755.16
628.00	42176.45
628.15	42106.24
628.30	42021.98
628.45	42080.49
628.60	41853.46
628.76	42443.27
628.91	42284.12
629.06	41940.06
629.21	41792.61
629.36	41570.25
629.51	41792.61
629.66	41827.71
629.81	41617.07
629.96	41450.89
630.11	41642.81
630.26	41621.75
630.41	41720.05
630.56	41453.23
630.71	41638.13
630.86	41696.64
631.01	41289.39
631.16	41647.49
631.31	41141.94
631.46	41008.53
631.61	41240.24
631.76	41359.61
631.91	42003.25
632.06	41734.09
632.21	41289.39
632.36	41935.38
632.51	41415.78
632.66	41518.76
632.81	41120.87
632.96	41565.57
633.10	40877.46
633.25	41174.70
633.40	41186.41
633.55	41338.54
633.70	41364.29
633.85	41212.15
634.00	40776.81
634.15	41111.51
634.30	40982.78
634.45	41280.03
634.60	41258.96
634.75	40910.22
634.90	40952.35
635.05	41256.62
635.19	41579.62
635.34	41289.39
635.49	41364.29
635.64	40430.41
635.79	40638.72
635.94	40645.74
636.09	41013.21
636.24	40612.98
636.39	40114.44
636.53	40484.25
636.68	40601.27
636.83	40285.30
636.98	40498.29
637.13	40285.30
637.28	40669.15
637.43	40479.57
637.57	40676.17
637.72	40605.95
637.87	40580.21
638.02	40294.66
638.17	40275.94
638.32	40142.53
638.46	40062.95
638.61	40226.79
638.76	40133.17
638.91	40348.50
639.06	40378.92
639.20	40175.30
639.35	40739.36
639.50	40191.68
639.65	40177.64
639.80	39997.41
639.94	40428.07
640.09	40135.51
640.24	40016.14
640.39	40032.52
640.54	39878.05
640.68	39798.47
640.83	40093.38
640.98	40116.78
641.13	39761.02
641.27	40051.25
641.42	39821.87
641.57	40072.31
641.72	39812.51
641.86	39498.88
642.01	39924.86
642.16	39945.92
642.31	39140.78
642.45	39363.13
642.60	39517.60
642.75	39150.14
642.90	39374.83
643.04	39421.64
643.19	39962.31
643.34	39316.32
643.48	39459.09
643.63	39241.42
643.78	39480.16
643.93	39398.24
644.07	39299.94
644.22	39321.00
644.37	39178.23
644.51	39213.34
644.66	39545.69
644.81	39234.40
644.95	39372.49
645.10	39353.77
645.25	39262.49
645.39	38857.57
645.54	39311.64
645.69	39208.65
645.83	38831.83
645.98	39210.99
646.13	39332.70
646.27	39077.58
646.42	38782.68
646.57	39309.30
646.71	39021.41
646.86	38878.64
647.00	38749.91
647.15	38796.72
647.30	38504.15
647.44	38593.09
647.59	38689.06
647.74	38923.11
647.88	38265.42
648.03	38630.54
648.17	38546.28
648.32	38391.81
648.47	38726.50
648.61	38590.75
648.76	38923.11
648.90	38717.14
649.05	38588.41
649.20	38557.99
649.34	38756.93
649.49	38529.90
649.63	38511.17
649.78	38801.40
649.92	38099.24
650.07	38799.06
650.21	37855.82
650.36	38735.87
650.51	38361.38
650.65	38347.34
650.80	38424.57
650.94	38003.28
651.09	38185.84
651.23	38162.43
651.38	38260.74
651.52	37977.53
651.67	38003.28
651.81	38199.88
651.96	38087.54
652.10	38281.80
652.25	37794.97
652.39	38387.13
652.54	37701.35
652.68	38150.73
652.83	38047.75
652.97	37729.44
653.12	38155.41
653.26	37996.26
653.41	37823.06
653.55	37745.82
653.70	37476.66
653.84	38010.30
653.99	38204.56
654.13	37792.63
654.27	37633.47
654.42	37764.54
654.56	37734.12
654.71	37783.27
654.85	37251.97
655.00	38134.35
655.14	37460.27
655.29	37366.65
655.43	37511.77
655.57	36870.46
655.72	37411.12
655.86	37331.54
656.01	37860.51
656.15	36615.34
656.30	37460.27
656.44	36861.10
656.58	37043.66
656.73	36460.87
656.87	37151.32
657.01	36737.05
657.16	36746.41
657.30	36790.88
657.45	36634.06
657.59	36631.72
657.73	36217.45
657.88	37020.25
658.02	36519.38
658.16	37127.92
658.31	37174.73
658.45	37240.26
658.60	36694.92
658.74	36996.85
658.88	36837.69
659.03	36156.60
659.17	35817.22
659.31	36065.31
659.46	36404.69
659.60	36561.51
659.74	36498.31
659.89	35931.90
660.03	36343.84
660.17	36528.74
660.32	36858.76
660.46	36451.50
660.60	36381.29
660.74	36187.02
660.89	36610.66
661.03	35971.69
661.17	35695.51
661.32	35578.48
661.46	35950.63
661.60	35447.41
661.74	35662.74
661.89	35473.16
662.03	35744.66
662.17	35871.05
662.31	35807.86
662.46	35859.35
662.60	35639.34
662.74	35784.45
662.88	35463.80
663.03	35330.39
663.17	35686.15
663.31	35255.49
663.45	34869.30
663.60	35529.33
663.74	35089.31
663.88	34946.54
664.02	35091.65
664.17	35110.38
664.31	34934.84
664.45	34831.85
664.59	35019.10
664.73	34794.40
664.88	34611.84
665.02	34508.86
665.16	35063.57
665.30	34721.85
665.44	34469.07
665.59	34328.64
665.73	34684.40
665.87	34209.27
666.01	34298.21
666.15	34330.98
666.29	34576.73
666.44	34550.99
666.58	34087.56
666.72	34649.29
666.86	34583.76
667.00	34328.64
667.14	34075.86
667.28	33741.16
667.43	33848.83
667.57	33916.70
667.71	34024.37
667.85	33890.96
667.99	33663.93
668.13	33659.24
668.27	33530.51
668.41	33722.44
668.56	33446.26
668.70	33359.66
668.84	33518.81
668.98	33022.62
669.12	33436.89
669.26	33563.28
669.40	33298.80
669.54	33125.60
669.68	33003.89
669.82	33092.83
669.96	32573.24
670.10	32542.81
670.25	32921.98
670.39	33003.89
670.53	32769.84
670.67	32641.11
670.81	32678.56
670.95	32767.50
671.09	32882.19
671.23	32980.49
671.37	32657.49
671.51	32376.63
671.65	32254.92
671.79	31990.44
671.93	32484.30
672.07	32542.81
672.21	31995.12
672.35	31938.95
672.49	32142.58
672.63	31807.88
672.77	32044.27
672.91	31756.39
673.05	31955.33
673.19	31744.69
673.33	31412.33
673.47	31648.72
673.61	31798.52
673.75	31019.12
673.89	30836.56
674.03	30728.89
674.17	31058.91
674.31	30534.63
674.45	30890.39
674.59	31309.35
674.73	30543.99
674.87	30820.17
675.01	30883.37
675.15	30895.07
675.29	31037.84
675.43	30586.12
675.56	30705.49
675.70	31044.87
675.84	30335.68
675.98	29305.85
676.12	29916.73
676.26	30012.69
676.40	30155.46
676.54	29556.28
676.68	30405.90
676.82	29317.55
676.96	29460.32
677.10	29750.55
677.23	29710.76
677.37	29355.00
677.51	29287.12
677.65	29476.71
677.79	29015.62
677.93	29167.76
678.07	28973.49
678.21	28790.93
678.34	28751.14
678.48	28783.91
678.62	28496.02
678.76	28498.36
678.90	28287.71
679.04	28599.01
679.18	28701.99
679.31	28308.78
679.45	27763.43
679.59	28006.85
679.73	27590.24
679.87	27960.04
680.00	27943.66
680.14	27880.46
680.28	27765.78
680.42	27749.39
680.56	27178.30
680.70	27152.55
680.83	27564.49
680.97	27021.48
681.11	26855.31
681.25	27007.44
681.39	26909.14
681.52	27026.17
681.66	27204.05
681.80	26890.41
681.94	26656.36
682.07	26691.47
682.21	26497.20
682.35	26338.05
682.49	26263.15
682.62	26487.84
682.76	26120.38
682.90	26089.95
683.04	26183.57
683.17	26073.57
683.31	25898.03
683.45	25937.82
683.59	25439.28
683.72	25219.27
683.86	25387.79
684.00	25656.95
684.13	25514.18
684.27	25324.60
684.41	25158.42
684.55	24891.60
684.68	25102.25
684.82	24580.31
684.96	24737.12
685.09	24842.45
685.23	24554.56
685.37	24428.17
685.50	24348.59
685.64	24512.43
685.78	24657.54
685.91	24442.21
686.05	24531.15
686.19	23611.32
686.32	23878.15
686.46	23817.29
686.60	23550.47
686.73	23566.85
686.87	23608.98
687.01	23461.53
687.14	23007.47
687.28	23307.05
687.42	23278.97
687.55	23000.44
687.69	22993.42
687.82	22656.39
687.96	22881.08
688.10	22686.81
688.23	22850.65
688.37	22927.89
688.50	22424.67
688.64	22450.42
688.78	22260.84
688.91	22394.25
689.05	22403.61
689.18	22176.58
689.32	21483.78
689.46	21956.57
689.59	22258.49
689.73	21963.59
689.86	21834.86
690.00	21872.31
690.13	21837.20
690.27	21867.63
690.41	21572.72
690.54	21296.53
690.68	21174.83
690.81	21558.67
690.95	21287.17
691.08	20886.94
691.22	21231.00
691.35	21069.50
691.49	20945.45
691.62	20823.75
691.76	21085.89
691.89	20833.11
692.03	20842.47
692.16	20414.15
692.30	20343.94
692.43	20386.07
692.57	20369.68
692.70	20222.23
692.84	19997.54
692.97	19924.98
693.11	20070.09
693.24	19922.64
693.38	19707.31
693.51	19662.84
693.65	19648.80
693.78	19779.87
693.92	19323.46
694.05	19548.15
694.19	19033.24
694.32	19005.15
694.45	19318.78
694.59	19311.76
694.72	19101.11
694.86	18668.11
694.99	18843.65
695.13	18506.62
695.26	18412.99
695.39	18415.34
695.53	18513.64
695.66	18644.71
695.80	18506.62
695.93	18265.54
696.07	17715.51
696.20	18136.81
696.33	18253.84
696.47	17930.84
696.60	18068.94
696.73	18036.17
696.87	17640.62
697.00	17881.69
697.14	17586.79
697.27	17483.80
697.40	17490.82
697.54	17572.74
697.67	17373.80
697.80	17277.83
697.94	17121.02
698.07	17081.23
698.21	17069.53
698.34	17036.76
698.47	17095.27
698.61	16423.54
698.74	16716.11
698.87	16423.54
699.01	16659.93
699.14	16460.99
699.27	16465.67
699.40	16271.40
699.54	16201.19
699.67	16290.13
699.80	16458.65
699.94	16049.05
700.07	16020.97
700.20	15665.21
700.34	15985.86
700.47	15894.58
700.60	15899.26
700.73	16170.76
700.87	15936.71
701.00	15527.11
701.13	15609.03
701.26	15463.92
701.40	15393.70
701.53	15332.85
701.66	15374.98
701.79	15321.15
701.93	15033.26
702.06	14988.79
702.19	14698.56
702.32	14808.57
702.46	14602.60
702.59	14633.03
702.72	14815.59
702.85	14817.93
702.99	14740.69
703.12	14576.86
703.25	14422.38
703.38	14413.02
703.51	14347.48
703.65	14331.10
703.78	14174.28
703.91	14139.18
704.04	14083.00
704.17	14263.22
704.31	14064.28
704.44	14036.19
704.57	13341.05
704.70	13371.48
704.83	13675.75
704.96	13813.84
705.10	13743.63
705.23	13685.11
>>>>>End Processed Spectral Data<<<<<
