SpectraSuite Data File
++++++++++++++++++++++++++++++++++++
Date: Fri Oct 25 10:48:31 EDT 2013
User: price-jones
Dark Spectrum Present: No
Reference Spectrum Present: No
Number of Sampled Component Spectra: 1
Spectrometers: USB2+H05261
Integration Time (usec): 100000 (USB2+H05261)
Spectra Averaged: 1 (USB2+H05261)
Boxcar Smoothing: 0 (USB2+H05261)
Correct for Electrical Dark: No (USB2+H05261)
Strobe/Lamp Enabled: No (USB2+H05261)
Correct for Detector Non-linearity: No (USB2+H05261)
Correct for Stray Light: No (USB2+H05261)
Number of Pixels in Processed Spectrum: 2048
>>>>>Begin Processed Spectral Data<<<<<
365.73	154.48
365.92	154.48
366.12	154.48
366.32	84.26
366.52	98.30
366.72	32.77
366.91	42.13
367.11	67.88
367.31	91.28
367.51	11.70
367.70	65.54
367.90	42.13
368.10	156.82
368.30	67.88
368.49	65.54
368.69	28.09
368.89	56.17
369.09	72.56
369.28	114.69
369.48	28.09
369.68	156.82
369.87	154.48
370.07	110.01
370.27	126.39
370.47	168.52
370.66	421.30
370.86	423.64
371.06	355.76
371.25	524.28
371.45	482.15
371.65	526.62
371.84	468.11
372.04	498.53
372.24	528.96
372.44	566.41
372.63	559.39
372.83	561.73
373.03	461.09
373.22	468.11
373.42	608.54
373.62	601.52
373.81	592.16
374.01	571.09
374.21	603.86
374.40	585.13
374.60	514.92
374.79	538.32
374.99	629.60
375.19	617.90
375.38	624.92
375.58	543.00
375.78	629.60
375.97	660.03
376.17	624.92
376.37	734.93
376.56	596.84
376.76	636.63
376.95	699.82
377.15	681.10
377.35	688.12
377.54	676.41
377.74	716.20
377.93	650.67
378.13	631.94
378.33	676.41
378.52	695.14
378.72	667.05
378.91	641.31
379.11	660.03
379.31	695.14
379.50	634.29
379.70	697.48
379.89	755.99
380.09	697.48
380.28	704.50
380.48	732.59
380.68	751.31
380.87	685.78
381.07	713.86
381.26	732.59
381.46	732.59
381.65	802.80
381.85	704.50
382.04	723.23
382.24	655.35
382.43	805.14
382.63	702.16
382.83	720.88
383.02	702.16
383.22	793.44
383.41	770.04
383.61	781.74
383.80	798.12
384.00	835.57
384.19	924.51
384.39	863.66
384.58	882.38
384.78	791.10
384.97	903.45
385.17	809.83
385.36	840.25
385.56	795.78
385.75	823.87
385.95	858.98
386.14	922.17
386.34	954.94
386.53	826.21
386.72	873.02
386.92	912.81
387.11	926.85
387.31	830.89
387.50	922.17
387.70	898.77
387.89	887.06
388.09	985.37
388.28	931.53
388.48	983.02
388.67	985.37
388.86	954.94
389.06	1011.11
389.25	1015.79
389.45	1050.90
389.64	1043.88
389.84	1020.47
390.03	947.92
390.22	1050.90
390.42	999.41
390.61	1041.54
390.81	1116.44
391.00	1027.50
391.19	1142.18
391.39	1064.94
391.58	1111.75
391.78	1048.56
391.97	1156.22
392.16	1071.97
392.36	1064.94
392.55	1116.44
392.75	990.05
392.94	912.81
393.13	1043.88
393.33	961.96
393.52	1039.20
393.71	1076.65
393.91	1221.76
394.10	1097.71
394.29	1280.27
394.49	1254.53
394.68	1280.27
394.88	1287.29
395.07	1355.17
395.26	1270.91
395.46	1362.19
395.65	1301.34
395.84	1249.85
396.04	1282.61
396.23	1186.65
396.42	1123.46
396.62	1280.27
396.81	1275.59
397.00	1277.93
397.19	1315.38
397.39	1341.13
397.58	1458.15
397.77	1226.44
397.97	1418.36
398.16	1439.43
398.35	1423.05
398.55	1430.07
398.74	1535.39
398.93	1633.69
399.12	1521.35
399.32	1462.83
399.51	1556.46
399.70	1666.46
399.90	1640.72
400.09	1619.65
400.28	1607.95
400.47	1729.66
400.67	1720.29
400.86	1664.12
401.05	1664.12
401.24	1778.81
401.44	1699.23
401.63	1727.32
401.82	1806.89
402.01	1703.91
402.21	1689.87
402.40	1743.70
402.59	1682.85
402.78	1792.85
402.97	1767.10
403.17	1774.13
403.36	1846.68
403.55	1872.43
403.74	1900.52
403.93	1909.88
404.13	1874.77
404.32	1813.92
404.51	1937.96
404.70	1930.94
404.89	1961.37
405.09	2008.18
405.28	1905.20
405.47	1933.28
405.66	1970.73
405.85	1982.43
406.05	1984.77
406.24	2036.27
406.43	1994.14
406.62	2073.71
406.81	2111.16
407.00	2038.61
407.20	2162.66
407.39	2038.61
407.58	2230.53
407.77	2134.57
407.96	2286.70
408.15	2258.62
408.34	2193.08
408.54	2335.85
408.73	2289.04
408.92	2483.31
409.11	2333.51
409.30	2235.21
409.49	2347.56
409.68	2214.15
409.87	2286.70
410.07	2373.30
410.26	2434.16
410.45	2417.77
410.64	2502.03
410.83	2511.39
411.02	2490.33
411.21	2520.76
411.40	2574.59
411.59	2743.11
411.78	2710.34
411.98	2635.44
412.17	2834.39
412.36	2771.19
412.55	2792.26
412.74	2857.79
412.93	2874.18
413.12	2759.49
413.31	2827.37
413.50	2810.98
413.69	2839.07
413.88	3136.32
414.07	2897.58
414.26	2951.42
414.45	2937.37
414.64	2939.71
414.83	3033.33
415.02	3087.17
415.22	3199.51
415.41	3229.94
415.60	3265.05
415.79	3269.73
415.98	3236.96
416.17	3318.88
416.36	3173.77
416.55	3293.13
416.74	3328.24
416.93	3293.13
417.12	3421.86
417.31	3318.88
417.50	3297.81
417.69	3517.83
417.88	3447.61
418.07	3471.01
418.26	3478.04
418.45	3473.36
418.64	3714.43
418.83	3508.46
419.02	3513.14
419.21	3672.30
419.39	3588.04
419.58	3576.34
419.77	3506.12
419.96	3686.34
420.15	3758.90
420.34	3716.77
420.53	3747.20
420.72	3808.05
420.91	3824.44
421.10	3887.63
421.29	3871.25
421.48	3751.88
421.67	3908.69
421.86	3859.54
422.05	3833.80
422.24	3833.80
422.43	3847.84
422.61	3796.35
422.80	3985.93
422.99	3997.64
423.18	3932.10
423.37	4044.45
423.56	4098.28
423.75	4098.28
423.94	4004.66
424.13	3815.07
424.32	3957.85
424.50	4072.53
424.69	4044.45
424.88	4007.00
425.07	3957.85
425.26	3925.08
425.45	3955.51
425.64	3920.40
425.83	3925.08
426.01	4149.77
426.20	4023.38
426.39	4084.23
426.58	4025.72
426.77	4114.66
426.96	4053.81
427.15	4114.66
427.33	4049.13
427.52	4112.32
427.71	4234.03
427.90	4203.60
428.09	4212.96
428.28	4222.33
428.46	4180.20
428.65	4203.60
428.84	4423.61
429.03	4287.86
429.22	4072.53
429.40	4280.84
429.59	4351.06
429.78	3882.95
429.97	3934.44
430.16	4007.00
430.34	4131.05
430.53	4292.54
430.72	4304.25
430.91	4353.40
431.10	4423.61
431.28	4641.28
431.47	4692.77
431.66	4758.31
431.85	4437.66
432.03	4641.28
432.22	4753.63
432.41	4596.81
432.60	4641.28
432.79	4702.14
432.97	4858.95
433.16	4777.03
433.35	4816.82
433.54	4798.10
433.72	4706.82
433.91	4793.42
434.10	4706.82
434.28	4830.87
434.47	5067.26
434.66	5057.90
434.85	4983.00
435.03	5015.77
435.22	4931.51
435.41	5273.23
435.59	5149.18
435.78	5165.56
435.97	5146.84
436.16	5121.09
436.34	5144.50
436.53	5088.32
436.72	5301.31
436.90	5125.77
437.09	5317.70
437.28	5165.56
437.46	5364.51
437.65	5252.16
437.84	5104.71
438.02	5191.31
438.21	5376.21
438.40	5165.56
438.58	5474.51
438.77	5418.34
438.96	5612.60
439.14	5516.64
439.33	5565.79
439.52	5589.20
439.70	5755.38
439.89	5790.49
440.08	5853.68
440.26	5605.58
440.45	5762.40
440.63	5902.83
440.82	6066.67
441.01	5968.37
441.19	6066.67
441.38	6115.82
441.57	6122.84
441.75	6157.95
441.94	6359.24
442.12	6384.98
442.31	6499.67
442.50	6370.94
442.68	6214.12
442.87	6490.31
443.05	6396.68
443.24	6537.12
443.43	6466.90
443.61	6750.10
443.80	6516.05
443.98	6361.58
444.17	6190.72
444.35	6551.16
444.54	6590.95
444.73	6750.10
444.91	6644.78
445.10	6647.12
445.28	6452.86
445.47	6541.80
445.65	6579.25
445.84	6658.82
446.02	6633.08
446.21	6572.22
446.39	6637.76
446.58	7091.82
446.77	6745.42
446.95	6640.10
447.14	6820.32
447.32	6902.24
447.51	6801.60
447.69	6712.66
447.88	6555.84
448.06	6761.81
448.25	6750.10
448.43	6700.95
448.62	6637.76
448.80	6815.64
448.99	6974.80
449.17	6895.22
449.36	6780.53
449.54	6930.33
449.73	7229.91
449.91	7239.28
450.10	7314.17
450.28	7384.39
450.46	7204.17
450.65	7236.94
450.83	7199.49
451.02	7101.19
451.20	7269.70
451.39	7323.54
451.57	7204.17
451.76	7180.76
451.94	7417.16
452.13	7335.24
452.31	7358.64
452.49	7222.89
452.68	7344.60
452.86	7335.24
453.05	7454.61
453.23	7536.52
453.42	7379.71
453.60	7489.71
453.78	7679.30
453.97	7403.11
454.15	7487.37
454.34	7414.82
454.52	7487.37
454.70	7585.68
454.89	7588.02
455.07	7588.02
455.26	7712.07
455.44	7887.61
455.62	7779.94
455.81	7875.90
455.99	7770.58
456.17	7894.63
456.36	8074.85
456.54	8028.04
456.73	8030.38
456.91	8322.94
457.09	8152.09
457.28	8210.60
457.46	8217.62
457.64	8397.84
457.83	8191.88
458.01	8065.49
458.19	8479.76
458.38	7992.93
458.56	8238.69
458.74	8407.20
458.93	8402.52
459.11	8205.92
459.29	8500.83
459.48	8341.67
459.66	8400.18
459.84	8622.53
460.03	8540.61
460.21	8802.75
460.39	8505.51
460.57	8587.43
460.76	8812.12
460.94	8716.16
461.12	8723.18
461.31	8877.65
461.49	8734.88
461.67	8793.39
461.85	8980.64
462.04	8863.61
462.22	9100.00
462.40	9071.92
462.59	9048.51
462.77	8938.51
462.95	9060.21
463.13	8879.99
463.32	8968.93
463.50	9158.52
463.68	9128.09
463.86	9158.52
464.05	8896.38
464.23	9076.60
464.41	9186.60
464.59	9130.43
464.78	9408.95
464.96	9153.84
465.14	9287.25
465.32	9238.09
465.50	9355.12
465.69	9287.25
465.87	9294.27
466.05	9399.59
466.23	9266.18
466.41	9338.74
466.60	9334.06
466.78	9348.10
466.96	9460.45
467.14	9245.12
467.32	9516.62
467.51	9645.35
467.69	9352.78
467.87	9547.05
468.05	10031.54
468.23	9668.75
468.41	9685.14
468.60	9563.43
468.78	9619.60
468.96	9584.49
469.14	9781.10
469.32	10008.13
469.50	9596.20
469.69	9745.99
469.87	9635.99
470.05	9914.51
470.23	9809.19
470.41	9806.84
470.59	10066.64
470.77	9928.55
470.95	10333.47
471.14	10232.82
471.32	10216.44
471.50	10272.61
471.68	10403.68
471.86	10408.36
472.04	10537.09
472.22	10729.02
472.40	10511.35
472.58	10534.75
472.77	10448.15
472.95	10696.25
473.13	11009.88
473.31	10494.96
473.49	10595.61
473.67	10682.20
473.85	10738.38
474.03	11407.77
474.21	10925.62
474.39	11194.78
474.57	11073.07
474.75	11215.85
474.93	11447.56
475.12	11066.05
475.30	11569.27
475.48	11314.15
475.66	11332.87
475.84	11473.31
476.02	11655.87
476.20	11676.93
476.38	11740.13
476.56	12049.08
476.74	12002.27
476.92	12044.40
477.10	12114.61
477.28	12025.67
477.46	12395.48
477.64	12451.65
477.82	12449.31
478.00	12697.41
478.18	12437.61
478.36	12711.45
478.54	12748.90
478.72	12987.63
478.90	12940.82
479.08	13186.58
479.26	13483.83
479.44	13308.29
479.62	13319.99
479.80	13385.52
479.98	13554.04
480.16	14139.18
480.34	13774.05
480.52	13846.61
480.70	13797.46
480.88	13827.88
481.06	13930.87
481.24	14328.76
481.41	14190.67
481.59	14537.07
481.77	14476.21
481.95	14560.47
482.13	14665.80
482.31	14558.13
482.49	15096.46
482.67	15183.06
482.85	15246.25
483.03	15290.72
483.21	15454.56
483.39	15655.84
483.57	15440.51
483.74	15613.71
483.92	15756.49
484.10	15520.09
484.28	16081.82
484.46	16016.29
484.64	16308.85
484.82	16020.97
485.00	16313.53
485.18	16292.47
485.35	16638.87
485.53	16301.83
485.71	16493.76
485.89	16893.99
486.07	16823.77
486.25	17055.48
486.43	17132.72
486.61	17357.41
486.78	17462.74
486.96	17781.05
487.14	17830.20
487.32	17867.65
487.50	18141.49
487.68	18164.90
487.85	18408.31
488.03	18677.48
488.21	18984.09
488.39	18787.48
488.57	18726.63
488.75	18941.96
488.92	19571.56
489.10	19513.05
489.28	19695.61
489.46	20189.46
489.64	19924.98
489.81	20411.81
489.99	20575.65
490.17	20362.66
490.35	20669.27
490.53	20570.97
490.70	20568.63
490.88	20657.57
491.06	21106.95
491.24	21284.83
491.41	21067.16
491.59	21074.18
491.77	21380.79
491.95	21146.74
492.13	21404.20
492.30	21797.41
492.48	21970.61
492.66	21881.67
492.84	22192.96
493.01	22141.47
493.19	22239.77
493.37	22354.46
493.54	22750.01
493.72	22874.06
493.90	22864.69
494.08	23164.28
494.25	23173.64
494.43	23543.45
494.61	23484.94
494.79	23349.18
494.96	23534.09
495.14	23742.39
495.32	23496.64
495.49	23852.40
495.67	24123.90
495.85	24201.14
496.02	24421.15
496.20	24624.78
496.38	24725.42
496.55	24870.53
496.73	25804.41
496.91	25132.67
497.09	25380.77
497.26	25387.79
497.44	25380.77
497.62	25458.01
497.79	25434.60
497.97	24968.84
498.14	25785.68
498.32	26092.29
498.50	26263.15
498.67	26228.04
498.85	26384.86
499.03	26539.33
499.20	26483.16
499.38	26742.96
499.56	26609.55
499.73	26775.73
499.91	26703.17
500.08	27049.57
500.26	26621.25
500.44	27307.03
500.61	27126.81
500.79	26621.25
500.97	27400.65
501.14	27550.45
501.32	27707.26
501.49	27592.58
501.67	27285.97
501.84	28205.80
502.02	28151.96
502.20	27955.36
502.37	28301.76
502.55	28407.08
502.72	28194.09
502.90	28357.93
503.07	28355.59
503.25	28552.20
503.43	28540.49
503.60	28666.88
503.78	28748.80
503.95	28648.16
504.13	29008.60
504.30	28870.51
504.48	28830.72
504.65	29230.95
504.83	29326.91
505.01	29474.37
505.18	29137.33
505.36	30089.93
505.53	29930.77
505.71	30279.51
505.88	30300.58
506.06	30066.52
506.23	30129.72
506.41	29790.34
506.58	30040.78
506.76	30148.44
506.93	30471.43
507.11	30756.98
507.28	30607.19
507.46	30621.23
507.63	30630.59
507.81	30408.24
507.98	30600.16
508.16	30801.45
508.33	31290.62
508.50	31072.95
508.68	31030.82
508.85	31358.50
509.03	31344.45
509.20	31709.58
509.38	31754.05
509.55	31901.50
509.73	31969.38
509.90	31632.34
510.08	31381.90
510.25	32114.49
510.42	31735.32
510.60	32184.71
510.77	32154.28
510.95	32603.66
511.12	32308.76
511.30	32404.72
511.47	32673.88
511.64	32545.15
511.82	32566.21
511.99	32514.72
512.17	32708.99
512.34	32905.59
512.51	32826.01
512.69	33029.64
512.86	33329.23
513.04	33413.49
513.21	33511.79
513.38	33083.47
513.56	33064.75
513.73	33205.18
513.90	33439.23
514.08	33397.10
514.25	33982.24
514.43	33364.34
514.60	33078.79
514.77	33455.62
514.95	33937.77
515.12	33729.46
515.29	33942.45
515.47	34595.46
515.64	34529.92
515.81	34494.82
515.99	34930.16
516.16	34501.84
516.33	34019.69
516.51	34522.90
516.68	33537.54
516.85	33865.21
517.03	33823.08
517.20	34513.54
517.37	34279.49
517.54	34920.79
517.72	34660.99
517.89	34675.04
518.06	34424.60
518.24	34242.04
518.41	34539.29
518.58	34881.00
518.75	34955.90
518.93	35508.27
519.10	35166.55
519.27	35831.26
519.45	35655.72
519.62	36116.81
519.79	35864.03
519.96	36449.16
520.14	36130.85
520.31	35871.05
520.48	35824.24
520.65	36154.26
520.83	36315.75
521.00	36149.57
521.17	36250.22
521.34	36222.13
521.52	37010.89
521.69	36952.38
521.86	36842.37
522.03	36657.47
522.20	36280.64
522.38	36931.31
522.55	36797.90
522.72	37085.79
522.89	36996.85
523.07	37242.60
523.24	36762.79
523.41	37350.27
523.58	37125.58
523.75	37521.13
523.92	37965.83
524.10	37750.50
524.27	37935.40
524.44	37626.45
524.61	37736.46
524.78	38071.15
524.96	37626.45
525.13	38405.85
525.30	38295.85
525.47	38026.68
525.64	38300.53
525.81	38539.26
525.98	37638.15
526.16	37872.21
526.33	38014.98
526.50	38223.29
526.67	37776.25
526.84	38281.80
527.01	38218.61
527.18	38424.57
527.36	38553.30
527.53	38653.95
527.70	39065.88
527.87	39049.50
528.04	39098.65
528.21	39288.23
528.38	38843.53
528.55	39239.08
528.72	39398.24
528.89	39473.13
529.07	39126.74
529.24	39246.10
529.41	38904.38
529.58	38955.88
529.75	39365.47
529.92	39910.82
530.09	39718.89
530.26	39786.77
530.43	39924.86
530.60	39667.40
530.77	39899.11
530.94	40259.55
531.11	39718.89
531.28	40247.85
531.46	40240.83
531.63	40610.64
531.80	40065.29
531.97	39613.57
532.14	39711.87
532.31	39786.77
532.48	39842.94
532.65	40055.93
532.82	40301.68
532.99	40341.47
533.16	40247.85
533.33	40507.65
533.50	40573.19
533.67	40774.47
533.84	40179.98
534.01	40432.75
534.18	40304.02
534.35	40884.48
534.52	41006.19
534.69	40954.69
534.86	41385.35
535.03	40608.29
535.20	41441.53
535.37	41387.69
535.54	41333.86
535.71	41003.85
535.88	41322.16
536.05	40999.16
536.22	40985.12
536.38	41530.47
536.55	41214.49
536.72	41354.93
536.89	41668.56
537.06	41486.00
537.23	41500.04
537.40	41633.45
537.57	41757.50
537.74	41923.68
537.91	41825.37
538.08	41865.16
538.25	41427.48
538.42	41762.18
538.59	42211.56
538.75	41404.08
538.92	41839.42
539.09	41886.23
539.26	42307.52
539.43	42131.98
539.60	42038.36
539.77	41970.49
539.94	41961.12
540.11	41841.76
540.28	42298.16
540.44	42204.54
540.61	41659.20
540.78	42054.75
540.95	42314.55
541.12	41858.14
541.29	42281.78
541.46	42080.49
541.62	42511.15
541.79	42953.51
541.96	42401.14
542.13	42366.04
542.30	42635.20
542.47	42405.83
542.63	42754.57
542.80	42724.14
542.97	42808.40
543.14	43540.99
543.31	43260.12
543.48	43803.13
543.64	43807.81
543.81	43496.52
543.98	43454.39
544.15	43278.85
544.32	43379.49
544.48	43959.94
544.65	43746.95
544.82	43569.07
544.99	43407.58
545.16	43480.13
545.32	43482.47
545.49	44121.44
545.66	43789.08
545.83	43690.78
546.00	44055.90
546.16	43697.80
546.33	43531.62
546.50	43201.61
546.67	43674.40
546.83	43290.55
547.00	44044.20
547.17	43990.37
547.34	43908.45
547.50	44142.50
547.67	43976.33
547.84	43770.36
548.00	44154.21
548.17	44428.05
548.34	44119.10
548.51	44474.86
548.67	44343.79
548.84	44423.37
549.01	44304.00
549.18	44184.63
549.34	44509.97
549.51	44554.44
549.68	44563.80
549.84	44519.33
550.01	44807.22
550.18	43983.35
550.34	44449.11
550.51	44156.55
550.68	44191.65
550.84	44236.12
551.01	44825.94
551.18	44465.50
551.34	44734.66
551.51	44641.04
551.68	45064.67
551.84	44898.50
552.01	45003.82
552.18	44727.64
552.34	44348.47
552.51	45160.64
552.68	44861.05
552.84	45141.91
553.01	45277.66
553.18	45144.25
553.34	45158.30
553.51	44964.03
553.67	45247.24
553.84	45474.27
554.01	45680.24
554.17	44931.26
554.34	45523.42
554.51	45780.88
554.67	45645.13
554.84	45729.39
555.00	45350.22
555.17	44985.10
555.33	45492.99
555.50	45340.86
555.67	45808.96
555.83	45331.50
556.00	45492.99
556.16	45853.44
556.33	45703.64
556.50	45944.72
556.66	45741.09
556.83	45471.93
556.99	45595.98
557.16	45600.66
557.32	45965.78
557.49	45736.41
557.65	45675.55
557.82	46054.72
557.98	45783.22
558.15	45923.65
558.32	46054.72
558.48	45558.53
558.65	46017.27
558.81	45689.60
558.98	45319.79
559.14	45883.86
559.31	45546.82
559.47	45516.40
559.64	46073.45
559.80	46071.10
559.97	46248.99
560.13	45996.21
560.30	45947.06
560.46	46038.34
560.63	46094.51
560.79	46167.07
560.96	46057.06
561.12	45731.73
561.29	45951.74
561.45	46010.25
561.61	46129.62
561.78	45942.38
561.94	46328.56
562.11	45661.51
562.27	46000.89
562.44	46122.60
562.60	46401.12
562.77	46607.09
562.93	45923.65
563.10	46600.07
563.26	45977.48
563.42	46213.88
563.59	45958.76
563.75	46270.05
563.92	46724.11
564.08	46230.26
564.24	46258.35
564.41	46340.27
564.57	46270.05
564.74	46637.51
564.90	46513.47
565.07	46253.67
565.23	45986.85
565.39	45968.12
565.56	46529.85
565.72	46377.72
565.88	46319.20
566.05	46408.14
566.21	46677.30
566.38	46213.88
566.54	46396.44
566.70	46862.21
566.87	46789.65
567.03	46429.21
567.19	46838.80
567.36	46625.81
567.52	46480.70
567.68	46555.60
567.85	46546.23
568.01	46696.03
568.17	46433.89
568.34	46384.74
568.50	46555.60
568.66	46335.59
568.83	46712.41
568.99	46431.55
569.15	46894.97
569.32	46501.76
569.48	46422.19
569.64	46890.29
569.81	46312.18
569.97	46480.70
570.13	46590.70
570.30	46017.27
570.46	46885.61
570.62	46183.45
570.78	46223.24
570.95	46258.35
571.11	46794.33
571.27	46623.47
571.43	46469.00
571.60	46829.44
571.76	46527.51
571.92	46918.38
572.09	46714.75
572.25	46913.70
572.41	46588.36
572.57	46869.23
572.74	47007.32
572.90	46646.88
573.06	46995.62
573.22	46841.14
573.38	46635.17
573.55	46564.96
573.71	46859.87
573.87	46054.72
574.03	46703.05
574.20	46937.10
574.36	46469.00
574.52	46726.46
574.68	46834.12
574.84	46579.00
575.01	46553.26
575.17	47042.43
575.33	46618.79
575.49	46408.14
575.65	46813.05
575.82	46829.44
575.98	46801.35
576.14	46845.82
576.30	46904.34
576.46	46569.64
576.62	46735.82
576.79	46932.42
576.95	46279.41
577.11	46869.23
577.27	46674.96
577.43	46700.71
577.59	46852.84
577.75	46703.05
577.92	46424.53
578.08	46562.62
578.24	46169.41
578.40	46653.90
578.56	46873.91
578.72	46951.15
578.88	46944.12
579.04	46602.41
579.21	46866.89
579.37	46829.44
579.53	46918.38
579.69	46834.12
579.85	47077.54
580.01	47058.81
580.17	47049.45
580.33	47002.64
580.49	46974.55
580.65	46815.40
580.82	46810.71
580.98	46681.98
581.14	46651.56
581.30	46906.68
581.46	46958.17
581.62	46789.65
581.78	46586.02
581.94	47110.30
582.10	46873.91
582.26	47178.18
582.42	46974.55
582.58	47082.22
582.74	46651.56
582.90	46930.08
583.06	46944.12
583.22	47505.85
583.38	46913.70
583.54	46752.20
583.70	46939.44
583.86	46937.10
584.02	46288.77
584.18	46756.88
584.34	46593.04
584.50	46787.31
584.66	46904.34
584.82	46721.77
584.98	47299.89
585.14	46913.70
585.30	46555.60
585.46	47274.14
585.62	46398.78
585.78	46951.15
585.94	46534.53
586.10	46813.05
586.26	46995.62
586.42	46803.69
586.58	47143.07
586.74	46972.21
586.90	46906.68
587.06	46815.40
587.22	47009.66
587.38	46967.53
587.54	46990.94
587.70	47342.02
587.86	46939.44
588.02	46850.50
588.18	47281.16
588.34	46677.30
588.49	46424.53
588.65	46515.81
588.81	46539.21
588.97	46452.61
589.13	46363.67
589.29	46635.17
589.45	46686.67
589.61	46857.52
589.77	46843.48
589.93	46845.82
590.08	47042.43
590.24	47138.39
590.40	47047.11
590.56	47241.37
590.72	47098.60
590.88	47175.84
591.04	47337.33
591.20	47194.56
591.35	47407.55
591.51	47648.63
591.67	46983.91
591.83	47056.47
591.99	46719.43
592.15	46897.31
592.31	46632.83
592.46	46635.17
592.62	47428.62
592.78	46829.44
592.94	47714.16
593.10	47126.69
593.26	47117.32
593.41	46993.28
593.57	47049.45
593.73	47126.69
593.89	46997.96
594.05	46906.68
594.20	46794.33
594.36	47161.79
594.52	46967.53
594.68	46890.29
594.84	47239.03
594.99	47543.30
595.15	46974.55
595.31	47583.09
595.47	47304.57
595.62	47112.64
595.78	47283.50
595.94	47255.42
596.10	47278.82
596.25	47454.36
596.41	47309.25
596.57	47152.43
596.73	47456.70
596.88	47203.92
597.04	47129.03
597.20	47456.70
597.36	47164.14
597.51	47459.04
597.67	47358.40
597.83	46937.10
597.99	47428.62
598.14	46997.96
598.30	47449.68
598.46	46679.64
598.61	47201.58
598.77	46911.36
598.93	46740.50
599.09	47295.21
599.24	47585.43
599.40	46536.87
599.56	47318.61
599.71	47545.64
599.87	47461.38
600.03	47035.41
600.18	47072.85
600.34	47159.45
600.50	46988.60
600.65	47019.02
600.81	47559.69
600.97	47475.43
601.12	47398.19
601.28	47496.49
601.44	46951.15
601.59	47086.90
601.75	46508.79
601.91	47428.62
602.06	46759.22
602.22	47136.05
602.37	46850.50
602.53	47192.22
602.69	47480.11
602.84	47154.77
603.00	47356.06
603.16	46848.16
603.31	47000.30
603.47	47278.82
603.62	47002.64
603.78	47161.79
603.94	46822.42
604.09	47421.59
604.25	47056.47
604.40	47318.61
604.56	47143.07
604.71	47309.25
604.87	46953.49
605.03	47196.90
605.18	47196.90
605.34	47306.91
605.49	46548.57
605.65	46663.26
605.80	47269.46
605.96	47070.51
606.12	47140.73
606.27	47213.29
606.43	46951.15
606.58	47047.11
606.74	46597.73
606.89	47063.49
607.05	47026.04
607.20	46806.03
607.36	46557.94
607.51	47203.92
607.67	46873.91
607.82	47110.30
607.98	46958.17
608.13	46672.62
608.29	47004.98
608.44	46436.23
608.60	46328.56
608.75	46717.09
608.91	46438.57
609.06	46981.57
609.22	46787.31
609.37	46639.86
609.53	46906.68
609.68	46782.63
609.84	46934.76
609.99	46639.86
610.15	46574.32
610.30	46625.81
610.46	45993.87
610.61	46415.16
610.76	46773.27
610.92	46356.65
611.07	46248.99
611.23	46370.69
611.38	46674.96
611.54	46239.62
611.69	46188.13
611.84	45811.31
612.00	46293.46
612.15	45853.44
612.31	46415.16
612.46	46532.19
612.62	46768.58
612.77	46106.21
612.92	46045.36
613.08	45968.12
613.23	46110.89
613.39	46066.42
613.54	45551.51
613.69	46220.90
613.85	45954.08
614.00	46141.32
614.15	46387.08
614.31	46185.79
614.46	46494.74
614.62	46230.26
614.77	45553.85
614.92	46050.04
615.08	45844.07
615.23	45806.62
615.38	46005.57
615.54	45937.69
615.69	45593.64
615.84	45284.68
616.00	46071.10
616.15	45717.68
616.30	45570.23
616.46	45741.09
616.61	45385.33
616.76	46108.55
616.92	45235.53
617.07	45268.30
617.22	45516.40
617.37	45284.68
617.53	45694.28
617.68	46036.00
617.83	45720.02
617.99	45532.78
618.14	45301.07
618.29	45160.64
618.45	45158.30
618.60	45492.99
618.75	45275.32
618.90	45537.46
619.06	45275.32
619.21	45439.16
619.36	45492.99
619.51	45104.46
619.67	45525.76
619.82	45380.65
619.97	45375.97
620.12	45186.38
620.28	44818.92
620.43	44779.13
620.58	45275.32
620.73	45343.20
620.89	45233.19
621.04	44952.33
621.19	45155.96
621.34	45282.34
621.49	44746.36
621.65	44638.70
621.80	44737.00
621.95	44669.12
622.10	45031.91
622.25	44500.61
622.41	44254.85
622.56	44935.95
622.71	44704.23
622.86	44706.57
623.01	44739.34
623.16	45111.49
623.32	44467.84
623.47	45015.52
623.62	44652.74
623.77	44388.26
623.92	44079.31
624.07	44446.77
624.23	44133.14
624.38	44549.76
624.53	43924.83
624.68	44580.18
624.83	44739.34
624.98	44533.37
625.13	43915.47
625.29	44701.89
625.44	43983.35
625.59	44238.47
625.74	43859.30
625.89	44011.43
626.04	43620.56
626.19	44065.27
626.34	43995.05
626.49	43927.17
626.65	44020.80
626.80	44271.23
626.95	43414.60
627.10	43732.91
627.25	43749.29
627.40	43597.16
627.55	43442.68
627.70	43328.00
627.85	43313.95
628.00	43751.63
628.15	44016.11
628.30	43611.20
628.45	43973.98
628.60	43220.33
628.76	43833.55
628.91	43283.53
629.06	43421.62
629.21	43777.38
629.36	43161.82
629.51	43077.56
629.66	43070.54
629.81	43089.26
629.96	43136.07
630.11	43494.18
630.26	43440.34
630.41	42864.57
630.56	43524.60
630.71	43328.00
630.86	43367.79
631.01	43061.18
631.16	42747.54
631.31	42955.85
631.46	42679.67
631.61	43012.02
631.76	43419.28
631.91	43414.60
632.06	42941.81
632.21	42958.19
632.36	43061.18
632.51	42930.11
632.66	43281.19
632.81	42859.89
632.96	42644.56
633.10	42548.60
633.25	42501.79
633.40	42459.66
633.55	42635.20
633.70	42775.63
633.85	43000.32
634.00	42469.02
634.15	42829.46
634.30	42890.32
634.45	42422.21
634.60	42295.82
634.75	42564.98
634.90	42656.26
635.05	42691.37
635.19	42113.26
635.34	42941.81
635.49	42459.66
635.64	42405.83
635.79	41839.42
635.94	42396.46
636.09	42286.46
636.24	42054.75
636.39	42141.35
636.53	42005.59
636.68	42021.98
636.83	41780.90
636.98	42323.91
637.13	41638.13
637.28	42342.63
637.43	42281.78
637.57	42117.94
637.72	41926.02
637.87	42572.00
638.02	42366.04
638.17	41998.57
638.32	41521.10
638.46	41471.95
638.61	41448.55
638.76	41668.56
638.91	41567.91
639.06	41902.61
639.20	41734.09
639.35	41682.60
639.50	41844.10
639.65	41876.86
639.80	41673.24
639.94	41448.55
640.09	41500.04
640.24	41301.09
640.39	41057.68
640.54	41392.37
640.68	41537.49
640.83	41715.37
640.98	41521.10
641.13	40980.44
641.27	41563.23
641.42	41221.52
641.57	41090.44
641.72	40832.99
641.86	40678.51
642.01	41111.51
642.16	40666.81
642.31	41001.50
642.45	41375.99
642.60	40821.28
642.75	40685.53
642.90	41074.06
643.04	40842.35
643.19	40680.85
643.34	40879.80
643.48	40790.86
643.63	41095.13
643.78	40961.72
643.93	40952.35
644.07	40704.26
644.22	40774.47
644.37	40189.34
644.51	40414.03
644.66	40842.35
644.81	40811.92
644.95	40636.38
645.10	40739.36
645.25	40437.44
645.39	40598.93
645.54	40292.32
645.69	40751.07
645.83	40196.36
645.98	40624.68
646.13	41053.00
646.27	40601.27
646.42	40465.52
646.57	40423.39
646.71	39969.33
646.86	40491.27
647.00	40376.58
647.15	40205.72
647.30	40297.00
647.44	40238.49
647.59	40271.26
647.74	40030.18
647.88	40156.57
648.03	40350.84
648.17	40217.43
648.32	39744.64
648.47	39716.55
648.61	39632.29
648.76	40231.47
648.90	40034.86
649.05	39819.53
649.20	40098.06
649.34	39917.84
649.49	39814.85
649.63	39974.01
649.78	40177.64
649.92	39168.87
650.07	39608.89
650.21	39374.83
650.36	39608.89
650.51	39426.32
650.65	39859.32
650.80	39950.60
650.94	39971.67
651.09	39969.33
651.23	40016.14
651.38	39164.18
651.52	39533.99
651.67	39484.84
651.81	39496.54
651.96	39515.26
652.10	39150.14
652.25	39005.03
652.39	39274.19
652.54	39262.49
652.68	39594.84
652.83	39250.78
652.97	39115.03
653.12	39173.55
653.26	39082.27
653.41	39068.22
653.55	39285.89
653.70	39119.71
653.84	38906.73
653.99	39508.24
654.13	38960.56
654.27	39122.05
654.42	39105.67
654.56	38911.41
654.71	39227.38
654.85	38948.85
655.00	39154.82
655.14	38490.11
655.29	38330.95
655.43	38424.57
655.57	38263.08
655.72	38513.52
655.86	38459.68
656.01	38309.89
656.15	37888.59
656.30	37942.42
656.44	37912.00
656.58	38167.12
656.73	38312.23
656.87	38047.75
657.01	38373.08
657.16	38089.88
657.30	37940.08
657.45	37869.87
657.59	37820.72
657.73	37801.99
657.88	38108.60
658.02	38036.05
658.16	37944.76
658.31	38307.55
658.45	37935.40
658.60	38300.53
658.74	38146.05
658.88	37743.48
659.03	37876.89
659.17	38213.93
659.31	38113.28
659.46	37516.45
659.60	37757.52
659.74	37504.74
659.89	37352.61
660.03	37551.56
660.17	37855.82
660.32	37301.12
660.46	37717.73
660.60	37467.30
660.74	37310.48
660.89	37691.99
661.03	37085.79
661.17	37184.09
661.32	37188.77
661.46	37254.31
661.60	36559.17
661.74	36825.99
661.89	37111.53
662.03	37418.14
662.17	37038.98
662.31	36751.09
662.46	36889.18
662.60	36816.63
662.74	36783.86
662.88	36470.23
663.03	36954.72
663.17	36273.62
663.31	36732.37
663.45	36662.15
663.60	36552.15
663.74	36215.11
663.88	36334.48
664.02	36067.66
664.17	36222.13
664.31	36128.51
664.45	36100.42
664.59	36219.79
664.73	36095.74
664.88	36519.38
665.02	36091.06
665.16	36140.21
665.30	35779.77
665.44	35461.46
665.59	35463.80
665.73	35505.93
665.87	35454.44
666.01	35487.20
666.15	35599.55
666.29	35044.84
666.44	35653.38
666.58	35367.84
666.72	35459.12
666.86	35395.92
667.00	35269.53
667.14	34831.85
667.28	35101.01
667.43	34862.28
667.57	34944.20
667.71	35014.41
667.85	34958.24
667.99	34850.58
668.13	34185.86
668.27	34522.90
668.41	34969.94
668.56	34052.45
668.70	34955.90
668.84	34920.79
668.98	34501.84
669.12	34335.66
669.26	34782.70
669.40	34110.97
669.54	34057.14
669.68	34284.17
669.82	33610.09
669.96	33570.30
670.10	33769.25
670.25	33905.00
670.39	34129.69
670.53	33692.01
670.67	33755.21
670.81	33972.88
670.95	33832.44
671.09	33804.36
671.23	33752.87
671.37	33656.90
671.51	33411.15
671.65	33362.00
671.79	33163.05
671.93	32748.78
672.07	33219.22
672.21	33095.18
672.35	33371.36
672.49	33127.94
672.63	33092.83
672.77	33170.07
672.91	32713.67
673.05	32425.78
673.19	32723.03
673.33	32533.45
673.47	32634.09
673.61	32093.43
673.75	32575.58
673.89	32088.74
674.03	31833.63
674.17	31615.96
674.31	31660.43
674.45	31587.87
674.59	32084.06
674.73	32533.45
674.87	32016.19
675.01	31688.51
675.15	32004.49
675.29	31716.60
675.43	31721.28
675.56	31599.57
675.70	31498.93
675.84	31405.31
675.98	30403.56
676.12	31571.49
676.26	31044.87
676.40	31000.40
676.54	31150.19
676.68	30855.28
676.82	30197.59
676.96	30513.56
677.10	30543.99
677.23	30536.97
677.37	30204.61
677.51	30370.79
677.65	30534.63
677.79	29567.99
677.93	30164.82
678.07	29813.74
678.21	29736.51
678.34	29507.13
678.48	29699.06
678.62	29680.33
678.76	29397.13
678.90	29146.69
679.04	29415.85
679.18	29179.46
679.31	29186.48
679.45	29032.00
679.59	28790.93
679.73	28636.45
679.87	29003.92
680.00	29029.66
680.14	28582.62
680.28	28634.11
680.42	28322.82
680.56	28278.35
680.70	27936.63
680.83	28240.90
680.97	27974.08
681.11	27702.58
681.25	27620.66
681.39	27604.28
681.52	27742.37
681.66	27674.49
681.80	27763.43
681.94	27630.02
682.07	27625.34
682.21	27122.13
682.35	27164.26
682.49	27143.19
682.62	27168.94
682.76	26934.88
682.90	26892.76
683.04	26775.73
683.17	27047.23
683.31	26424.65
683.45	26651.68
683.59	26300.60
683.72	26340.39
683.86	26328.69
684.00	26218.68
684.13	26239.75
684.27	26211.66
684.41	25928.45
684.55	25886.32
684.68	25970.58
684.82	25560.99
684.96	25783.34
685.09	25781.00
685.23	25406.52
685.37	25289.49
685.50	25329.28
685.64	25046.07
685.78	25085.86
685.91	25064.80
686.05	25025.01
686.19	24732.44
686.32	24767.55
686.46	24503.07
686.60	24374.34
686.73	23971.77
686.87	23756.44
687.01	23597.28
687.14	23672.18
687.28	23379.61
687.42	23524.72
687.55	23943.68
687.69	23508.34
687.82	23337.48
687.96	23564.51
688.10	23321.10
688.23	23297.69
688.37	22787.46
688.50	23051.94
688.64	23330.46
688.78	22810.86
688.91	22892.78
689.05	22642.34
689.18	22522.98
689.32	22457.44
689.46	22616.60
689.59	22490.21
689.73	22663.41
689.86	22342.75
690.00	22274.88
690.13	22525.32
690.27	22398.93
690.41	22691.49
690.54	21729.53
690.68	21488.46
690.81	21886.35
690.95	21535.27
691.08	21776.34
691.22	21860.60
691.35	21352.71
691.49	21743.58
691.62	21685.06
691.76	21830.18
691.89	21317.60
692.03	21202.91
692.16	20624.80
692.30	21177.17
692.43	20734.81
692.57	20809.70
692.70	20847.15
692.84	20868.22
692.97	20493.73
693.11	20247.97
693.24	20329.89
693.38	20313.51
693.51	20086.48
693.65	20140.31
693.78	19822.00
693.92	19845.40
694.05	19744.76
694.19	19686.25
694.32	19672.20
694.45	19798.59
694.59	19548.15
694.72	19578.58
694.86	19440.49
694.99	19522.41
695.13	19098.77
695.26	18696.20
695.39	19047.28
695.53	19190.05
695.66	19180.69
695.80	19356.23
695.93	18691.52
696.07	18665.77
696.20	18647.05
696.33	18431.72
696.47	18342.78
696.60	18555.77
696.73	18232.77
696.87	18338.10
697.00	18066.60
697.14	18401.29
697.27	18321.71
697.40	18047.87
697.54	17750.62
697.67	18066.60
697.80	17535.29
697.94	17813.82
698.07	17916.80
698.21	17596.15
698.34	17408.90
698.47	17371.46
698.61	17167.83
698.74	17046.12
698.87	16889.31
699.01	16959.52
699.14	17135.06
699.27	16879.94
699.40	16872.92
699.54	16936.12
699.67	16685.68
699.80	16566.31
699.94	16311.19
700.07	16369.71
700.20	16606.10
700.34	16130.97
700.47	16266.72
700.60	16306.51
700.73	16568.65
700.87	16285.45
701.00	16112.25
701.13	15793.94
701.26	15946.07
701.40	15908.62
701.53	15655.84
701.66	15782.23
701.79	15365.62
701.93	15632.44
702.06	15337.53
702.19	15445.20
702.32	15197.10
702.46	15229.87
702.59	15517.75
702.72	15433.49
702.85	15307.10
702.99	15236.89
703.12	15131.56
703.25	15028.58
703.38	14909.21
703.51	15063.69
703.65	14539.41
703.78	14675.16
703.91	14511.32
704.04	14834.32
704.17	14501.96
704.31	14597.92
704.44	14075.98
704.57	13954.27
704.70	13984.70
704.83	13998.74
704.96	14270.25
705.10	14106.41
705.23	14202.37
>>>>>End Processed Spectral Data<<<<<
