SpectraSuite Data File
++++++++++++++++++++++++++++++++++++
Date: Fri Oct 25 10:43:21 EDT 2013
User: price-jones
Dark Spectrum Present: No
Reference Spectrum Present: No
Number of Sampled Component Spectra: 1
Spectrometers: USB2+H05261
Integration Time (usec): 100000 (USB2+H05261)
Spectra Averaged: 1 (USB2+H05261)
Boxcar Smoothing: 0 (USB2+H05261)
Correct for Electrical Dark: No (USB2+H05261)
Strobe/Lamp Enabled: No (USB2+H05261)
Correct for Detector Non-linearity: No (USB2+H05261)
Correct for Stray Light: No (USB2+H05261)
Number of Pixels in Processed Spectrum: 2048
>>>>>Begin Processed Spectral Data<<<<<
365.73	161.50
365.92	161.50
366.12	161.50
366.32	72.56
366.52	0.00
366.72	37.45
366.91	0.00
367.11	49.15
367.31	0.00
367.51	28.09
367.70	42.13
367.90	4.68
368.10	11.70
368.30	23.41
368.49	0.00
368.69	28.09
368.89	88.94
369.09	0.00
369.28	0.00
369.48	4.68
369.68	79.58
369.87	51.49
370.07	95.96
370.27	131.07
370.47	145.11
370.66	379.17
370.86	386.19
371.06	505.56
371.25	477.47
371.45	475.13
371.65	440.02
371.84	423.64
372.04	400.23
372.24	451.72
372.44	458.74
372.63	503.22
372.83	524.28
373.03	566.41
373.22	557.05
373.42	500.87
373.62	535.98
373.81	528.96
374.01	543.00
374.21	491.51
374.40	470.45
374.60	667.05
374.79	517.26
374.99	517.26
375.19	519.60
375.38	592.16
375.58	559.39
375.78	603.86
375.97	638.97
376.17	587.47
376.37	620.24
376.56	606.20
376.76	589.82
376.95	601.52
377.15	631.94
377.35	653.01
377.54	592.16
377.74	601.52
377.93	617.90
378.13	641.31
378.33	688.12
378.52	657.69
378.72	753.65
378.91	648.33
379.11	653.01
379.31	671.73
379.50	624.92
379.70	664.71
379.89	727.91
380.09	554.71
380.28	725.57
380.48	734.93
380.68	641.31
380.87	678.76
381.07	709.18
381.26	713.86
381.46	718.54
381.65	741.95
381.85	678.76
382.04	667.05
382.24	657.69
382.43	746.63
382.63	709.18
382.83	725.57
383.02	704.50
383.22	763.01
383.41	739.61
383.61	746.63
383.80	828.55
384.00	739.61
384.19	767.70
384.39	877.70
384.58	880.04
384.78	835.57
384.97	840.25
385.17	844.93
385.36	763.01
385.56	880.04
385.75	805.14
385.95	809.83
386.14	849.61
386.34	821.53
386.53	828.55
386.72	795.78
386.92	898.77
387.11	863.66
387.31	891.74
387.50	866.00
387.70	898.77
387.89	875.36
388.09	880.04
388.28	880.04
388.48	947.92
388.67	905.79
388.86	924.51
389.06	954.94
389.25	1004.09
389.45	964.30
389.64	957.28
389.84	936.21
390.03	997.07
390.22	987.71
390.42	922.17
390.61	1069.62
390.81	957.28
391.00	1165.59
391.19	1074.31
391.39	877.70
391.58	1018.13
391.78	1041.54
391.97	1032.18
392.16	1011.11
392.36	1128.14
392.55	1041.54
392.75	1022.81
392.94	997.07
393.13	1053.24
393.33	1041.54
393.52	992.39
393.71	1020.47
393.91	1067.28
394.10	1128.14
394.29	1125.80
394.49	1135.16
394.68	1167.93
394.88	1198.35
395.07	1174.95
395.26	1196.01
395.46	1252.19
395.65	1336.45
395.84	1247.51
396.04	1245.16
396.23	1221.76
396.42	1114.10
396.62	1196.01
396.81	1207.72
397.00	1280.27
397.19	1320.06
397.39	1320.06
397.58	1364.53
397.77	1287.29
397.97	1397.30
398.16	1474.54
398.35	1509.65
398.55	1458.15
398.74	1441.77
398.93	1486.24
399.12	1490.92
399.32	1500.28
399.51	1556.46
399.70	1572.84
399.90	1528.37
400.09	1411.34
400.28	1650.08
400.47	1596.25
400.67	1549.43
400.86	1593.90
401.05	1769.44
401.24	1673.48
401.44	1757.74
401.63	1701.57
401.82	1729.66
402.01	1743.70
402.21	1750.72
402.40	1727.32
402.59	1682.85
402.78	1701.57
402.97	1715.61
403.17	1757.74
403.36	1790.51
403.55	1863.07
403.74	1893.49
403.93	1940.30
404.13	1919.24
404.32	1905.20
404.51	1961.37
404.70	1926.26
404.89	1947.33
405.09	2003.50
405.28	1893.49
405.47	1949.67
405.66	1970.73
405.85	1944.99
406.05	2050.31
406.24	2120.53
406.43	1930.94
406.62	1966.05
406.81	2202.44
407.00	2153.29
407.20	2017.54
407.39	2059.67
407.58	2129.89
407.77	2251.60
407.96	2148.61
408.15	2211.81
408.34	2172.02
408.54	2253.94
408.73	2193.08
408.92	2188.40
409.11	2275.00
409.30	2303.09
409.49	2298.41
409.68	2331.17
409.87	2270.32
410.07	2289.04
410.26	2377.98
410.45	2490.33
410.64	2466.92
410.83	2518.42
411.02	2513.74
411.21	2626.08
411.40	2473.95
411.59	2562.89
411.78	2651.83
411.98	2684.59
412.17	2729.06
412.36	2672.89
412.55	2745.45
412.74	2684.59
412.93	2766.51
413.12	2782.90
413.31	2836.73
413.50	2780.56
413.69	2771.19
413.88	2820.35
414.07	2813.32
414.26	2972.48
414.45	2862.48
414.64	2897.58
414.83	2991.20
415.02	3014.61
415.22	3016.95
415.41	3171.43
415.60	3129.30
415.79	3255.69
415.98	3265.05
416.17	3323.56
416.36	3243.98
416.55	3267.39
416.74	3105.89
416.93	3314.20
417.12	3129.30
417.31	3344.63
417.50	3321.22
417.69	3375.05
417.88	3410.16
418.07	3400.80
418.26	3552.93
418.45	3592.72
418.64	3630.17
418.83	3552.93
419.02	3653.58
419.21	3536.55
419.39	3581.02
419.58	3562.30
419.77	3545.91
419.96	3625.49
420.15	3801.03
420.34	3651.24
420.53	3705.07
420.72	3798.69
420.91	3889.97
421.10	3747.20
421.29	3913.38
421.48	3693.37
421.67	3922.74
421.86	3782.31
422.05	3810.39
422.24	3840.82
422.43	3875.93
422.61	3770.60
422.80	3969.55
422.99	3950.82
423.18	3920.40
423.37	3932.10
423.56	3913.38
423.75	3798.69
423.94	3887.63
424.13	3658.26
424.32	3772.94
424.50	3976.57
424.69	4191.90
424.88	4072.53
425.07	3885.29
425.26	3833.80
425.45	4046.79
425.64	4028.06
425.83	4016.36
426.01	4182.54
426.20	4107.64
426.39	3875.93
426.58	4088.92
426.77	3822.09
426.96	3962.53
427.15	4042.11
427.33	3990.61
427.52	4074.87
427.71	4250.41
427.90	4166.15
428.09	4093.60
428.28	4091.26
428.46	4079.55
428.65	4131.05
428.84	4100.62
429.03	4287.86
429.22	4095.94
429.40	4119.34
429.59	4163.81
429.78	3941.46
429.97	3845.50
430.16	4084.23
430.34	4084.23
430.53	3990.61
430.72	4187.22
430.91	4334.67
431.10	4346.37
431.28	4524.26
431.47	4657.67
431.66	4533.62
431.85	4519.57
432.03	4613.20
432.22	4755.97
432.41	4681.07
432.60	4788.74
432.79	4704.48
432.97	4727.88
433.16	4741.93
433.35	4713.84
433.54	4615.54
433.72	4524.26
433.91	4744.27
434.10	4765.33
434.28	4877.68
434.47	4807.46
434.66	4744.27
434.85	4917.47
435.03	4873.00
435.22	4959.60
435.41	5048.54
435.59	5050.88
435.78	5093.01
435.97	5158.54
436.16	5132.79
436.34	5064.92
436.53	5125.77
436.72	5364.51
436.90	5034.49
437.09	5088.32
437.28	5043.85
437.46	5076.62
437.65	5198.33
437.84	5427.70
438.02	5076.62
438.21	5153.86
438.40	5095.35
438.58	5275.57
438.77	5350.46
438.96	5411.32
439.14	5767.08
439.33	5582.18
439.52	5722.61
439.70	5614.95
439.89	5579.84
440.08	5589.20
440.26	5802.19
440.45	5762.40
440.63	5797.51
440.82	5823.25
441.01	5895.81
441.19	5863.04
441.38	6071.35
441.57	5994.11
441.75	6104.12
441.94	6232.85
442.12	6211.78
442.31	6384.98
442.50	6317.11
442.68	6420.09
442.87	6286.68
443.05	6399.02
443.24	6436.47
443.43	6363.92
443.61	6445.84
443.80	6789.89
443.98	6342.85
444.17	6338.17
444.35	6492.65
444.54	6806.28
444.73	6478.60
444.91	6511.37
445.10	6621.38
445.28	6413.07
445.47	6469.24
445.65	6326.47
445.84	6452.86
446.02	6633.08
446.21	6523.07
446.39	6487.96
446.58	6665.85
446.77	6654.14
446.95	6527.75
447.14	6848.41
447.32	6766.49
447.51	6761.81
447.69	6663.51
447.88	6752.45
448.06	6647.12
448.25	6675.21
448.43	6857.77
448.62	6754.79
448.80	6679.89
448.99	6874.15
449.17	6869.47
449.36	6817.98
449.54	6958.41
449.73	7056.72
449.91	7148.00
450.10	7140.97
450.28	7538.87
450.46	7091.82
450.65	7206.51
450.83	7391.41
451.02	7311.83
451.20	7300.13
451.39	7356.30
451.57	7119.91
451.76	7293.11
451.94	7098.84
452.13	7056.72
452.31	7229.91
452.49	7091.82
452.68	7183.10
452.86	7129.27
453.05	7433.54
453.23	7412.48
453.42	7279.07
453.60	7269.70
453.78	7386.73
453.97	7454.61
454.15	7517.80
454.34	7342.26
454.52	7400.77
454.70	7461.63
454.89	7555.25
455.07	7412.48
455.26	7688.66
455.44	7648.87
455.62	7613.76
455.81	7733.13
455.99	7733.13
456.17	7742.49
456.36	7913.35
456.54	7866.54
456.73	7997.61
456.91	8093.57
457.09	8121.66
457.28	8264.43
457.46	8131.02
457.64	8063.15
457.83	8095.91
458.01	8077.19
458.19	8238.69
458.38	8208.26
458.56	8498.49
458.74	8135.70
458.93	8264.43
459.11	8374.44
459.29	8301.88
459.48	8250.39
459.66	8395.50
459.84	8526.57
460.03	8606.15
460.21	8428.27
460.39	8557.00
460.57	8299.54
460.76	8526.57
460.94	8610.83
461.12	8549.98
461.31	8713.81
461.49	8622.53
461.67	8641.26
461.85	8681.05
462.04	8990.00
462.22	9408.95
462.40	9095.32
462.59	8816.80
462.77	9088.30
462.95	9055.53
463.13	8856.59
463.32	9074.26
463.50	9177.24
463.68	8896.38
463.86	9039.15
464.05	8961.91
464.23	8940.85
464.41	8884.67
464.59	8760.63
464.78	9102.34
464.96	8882.33
465.14	8809.78
465.32	9219.37
465.50	9107.02
465.69	9448.74
465.87	9137.45
466.05	9315.33
466.23	9179.58
466.41	9284.91
466.60	9312.99
466.78	9235.75
466.96	9420.66
467.14	9355.12
467.32	9184.26
467.51	9373.85
467.69	9090.64
467.87	9338.74
468.05	9355.12
468.23	9518.96
468.41	9282.56
468.60	9406.61
468.78	9703.86
468.96	9432.36
469.14	9626.62
469.32	9806.84
469.50	9495.55
469.69	9717.90
469.87	9813.87
470.05	9760.03
470.23	9935.57
470.41	9961.32
470.59	9958.98
470.77	9825.57
470.95	9916.85
471.14	10183.67
471.32	9881.74
471.50	10251.55
471.68	10249.21
471.86	10427.09
472.04	10410.70
472.22	10490.28
472.40	10167.29
472.58	10394.32
472.77	10399.00
472.95	10677.52
473.13	10832.00
473.31	10712.63
473.49	10670.50
473.67	10647.10
473.85	10696.25
474.03	10951.37
474.21	10834.34
474.39	10864.77
474.57	10984.13
474.75	10932.64
474.93	11183.08
475.12	11262.66
475.30	11250.96
475.48	11190.10
475.66	11302.45
475.84	11335.21
476.02	11365.64
476.20	11473.31
476.38	11683.95
476.56	11939.07
476.74	11740.13
476.92	11641.82
477.10	11791.62
477.28	12259.73
477.46	12140.36
477.64	12131.00
477.82	12372.07
478.00	12472.71
478.18	12482.08
478.36	12526.55
478.54	12554.63
478.72	12421.22
478.90	12865.92
479.08	12898.69
479.26	13202.96
479.44	13275.52
479.62	13207.64
479.80	13327.01
479.98	13399.57
480.16	13804.48
480.34	13441.70
480.52	13603.19
480.70	13624.26
480.88	13411.27
481.06	13846.61
481.24	13657.03
481.41	14075.98
481.59	14377.91
481.77	14408.34
481.95	14387.27
482.13	14530.05
482.31	14548.77
482.49	14934.96
482.67	14918.57
482.85	15056.67
483.03	15089.43
483.21	15304.76
483.39	15358.60
483.57	15286.04
483.74	15307.10
483.92	15634.78
484.10	15304.76
484.28	15737.76
484.46	15782.23
484.64	16304.17
484.82	16095.86
485.00	16065.44
485.18	16606.10
485.35	16390.77
485.53	16112.25
485.71	15854.79
485.89	16547.59
486.07	16217.57
486.25	16615.46
486.43	16837.81
486.61	16947.82
486.78	17043.78
486.96	17434.65
487.14	17565.72
487.32	17383.16
487.50	17752.96
487.68	18118.09
487.85	18363.84
488.03	18450.44
488.21	18443.42
488.39	18719.60
488.57	18640.03
488.75	18757.05
488.92	18956.00
489.10	19243.88
489.28	19302.40
489.46	19463.90
489.64	19840.72
489.81	19793.91
489.99	20444.58
490.17	20147.33
490.35	20369.68
490.53	20383.73
490.70	20423.51
490.88	20173.08
491.06	20657.57
491.24	20879.92
491.41	20624.80
491.59	20585.01
491.77	20823.75
491.95	20999.29
492.13	21139.72
492.30	21507.18
492.48	21841.88
492.66	22033.80
492.84	21837.20
493.01	22181.26
493.19	22010.40
493.37	22230.41
493.54	22305.31
493.72	22445.74
493.90	22876.40
494.08	22719.58
494.25	22970.02
494.43	23274.29
494.61	23321.10
494.79	23747.08
494.96	23473.23
495.14	23293.01
495.32	23576.22
495.49	23852.40
495.67	23828.99
495.85	24070.07
496.02	24095.82
496.20	24397.74
496.38	24276.04
496.55	24416.47
496.73	24856.49
496.91	24510.09
497.09	24823.72
497.26	25181.82
497.44	25104.59
497.62	24931.39
497.79	25308.21
497.97	25312.89
498.14	25507.16
498.32	25605.46
498.50	25813.77
498.67	25958.88
498.85	25834.83
499.03	25968.24
499.20	26017.40
499.38	26169.53
499.56	26513.59
499.73	26515.93
499.91	26340.39
500.08	26780.41
500.26	26249.11
500.44	26314.64
500.61	26499.55
500.79	26717.22
500.97	27019.14
501.14	27166.60
501.32	26747.64
501.49	26937.23
501.67	26740.62
501.84	27536.40
502.02	27520.02
502.20	27398.31
502.37	27931.95
502.55	27421.72
502.72	27819.61
502.90	27894.50
503.07	28023.23
503.25	28137.92
503.43	28156.64
503.60	28266.65
503.78	28381.34
503.95	28467.94
504.13	28325.16
504.30	28671.56
504.48	28711.35
504.65	28985.19
504.83	29134.99
505.01	28807.31
505.18	29209.89
505.36	28945.41
505.53	29535.22
505.71	29834.81
505.88	29497.77
506.06	29429.90
506.23	29532.88
506.41	29483.73
506.58	29738.85
506.76	30040.78
506.93	29898.00
507.11	29535.22
507.28	29916.73
507.46	29762.25
507.63	30047.80
507.81	29996.31
507.98	30068.86
508.16	30380.15
508.33	30597.82
508.50	30485.48
508.68	31033.16
508.85	30932.52
509.03	31058.91
509.20	31321.05
509.38	31222.75
509.55	31189.98
509.73	31243.81
509.90	31356.16
510.08	31178.28
510.25	31311.69
510.42	31597.23
510.60	31604.25
510.77	31826.60
510.95	31812.56
511.12	32217.47
511.30	31796.18
511.47	31866.39
511.64	32297.05
511.82	32620.05
511.99	32130.87
512.17	32154.28
512.34	32376.63
512.51	32849.42
512.69	32484.30
512.86	32755.80
513.04	32849.42
513.21	32608.34
513.38	32884.53
513.56	32929.00
513.73	32732.39
513.90	33125.60
514.08	33116.24
514.25	32882.19
514.43	33359.66
514.60	33022.62
514.77	33296.46
514.95	33486.04
515.12	33439.23
515.29	33446.26
515.47	33715.42
515.64	34401.19
515.81	33703.71
515.99	33820.74
516.16	34047.77
516.33	33846.49
516.51	33879.25
516.68	33362.00
516.85	33291.78
517.03	33715.42
517.20	33862.87
517.37	34272.46
517.54	34986.33
517.72	33961.17
517.89	34071.18
518.06	33633.50
518.24	34040.75
518.41	34064.16
518.58	34293.53
518.75	34377.79
518.93	34801.43
519.10	34602.48
519.27	35154.85
519.45	35054.20
519.62	35166.55
519.79	35267.19
519.96	35611.25
520.14	35335.07
520.31	34998.03
520.48	35204.00
520.65	35414.65
520.83	35990.42
521.00	35667.42
521.17	35648.70
521.34	36133.19
521.52	36121.49
521.69	35941.27
521.86	36259.58
522.03	36142.55
522.20	36161.28
522.38	36411.71
522.55	36201.07
522.72	36268.94
522.89	36395.33
523.07	36999.19
523.24	36912.59
523.41	36680.88
523.58	36840.03
523.75	36905.57
523.92	37144.30
524.10	37345.59
524.27	37401.76
524.44	37244.94
524.61	37212.18
524.78	37776.25
524.96	37170.05
525.13	37794.97
525.30	37703.69
525.47	37495.38
525.64	37408.78
525.81	37813.70
525.98	37766.88
526.16	37247.29
526.33	37420.48
526.50	37462.61
526.67	37148.98
526.84	37160.69
527.01	37762.20
527.18	37752.84
527.36	38045.41
527.53	38143.71
527.70	38213.93
527.87	38230.31
528.04	37792.63
528.21	38522.88
528.38	38050.09
528.55	39016.73
528.72	38583.73
528.89	38864.60
529.07	39105.67
529.24	38029.02
529.41	38373.08
529.58	38637.56
529.75	38852.89
529.92	38438.62
530.09	38733.53
530.26	39098.65
530.43	39395.90
530.60	39100.99
530.77	39276.53
530.94	39519.95
531.11	39426.32
531.28	39203.97
531.46	39676.76
531.63	39459.09
531.80	39452.07
531.97	38906.73
532.14	39262.49
532.31	39082.27
532.48	39447.39
532.65	39431.01
532.82	39297.59
532.99	39487.18
533.16	39138.44
533.33	39814.85
533.50	40109.76
533.67	39662.72
533.84	39454.41
534.01	40217.43
534.18	39803.15
534.35	40444.46
534.52	39779.74
534.69	40350.84
534.86	40299.34
535.03	39782.09
535.20	40643.40
535.37	40804.90
535.54	40947.67
535.71	40456.16
535.88	40680.85
536.05	40587.23
536.22	40891.50
536.38	40605.95
536.55	40369.56
536.72	40580.21
536.89	40362.54
537.06	40495.95
537.23	40811.92
537.40	40797.88
537.57	40741.71
537.74	40779.15
537.91	41560.89
538.08	41301.09
538.25	40783.83
538.42	40961.72
538.59	41177.04
538.75	40711.28
538.92	41516.42
539.09	41394.71
539.26	41404.08
539.43	41060.02
539.60	41467.27
539.77	41043.63
539.94	40807.24
540.11	41408.76
540.28	41282.37
540.44	41713.03
540.61	41684.94
540.78	40959.38
540.95	41855.80
541.12	41343.22
541.29	41991.55
541.46	41659.20
541.62	41977.51
541.79	42007.94
541.96	41092.79
542.13	41738.77
542.30	42080.49
542.47	41415.78
542.63	42068.79
542.80	41869.84
542.97	42291.14
543.14	42422.21
543.31	42557.96
543.48	42253.69
543.64	42492.43
543.81	42948.83
543.98	42721.80
544.15	42653.92
544.32	42703.07
544.48	42969.90
544.65	42251.35
544.82	42913.72
544.99	42672.65
545.16	42703.07
545.32	42590.73
545.49	43295.23
545.66	43246.08
545.83	42983.94
546.00	43035.43
546.16	42892.66
546.33	42698.39
546.50	42719.46
546.67	43157.14
546.83	42784.99
547.00	43187.56
547.17	43344.38
547.34	43105.65
547.50	43035.43
547.67	43110.33
547.84	43386.51
548.00	43730.57
548.17	43704.82
548.34	43913.13
548.51	43976.33
548.67	44072.29
548.84	43597.16
549.01	43606.52
549.18	43917.81
549.34	43704.82
549.51	43927.17
549.68	43744.61
549.84	43805.47
550.01	44177.61
550.18	43983.35
550.34	43746.95
550.51	44194.00
550.68	43721.21
550.84	43688.44
551.01	43931.86
551.18	43798.44
551.34	43796.10
551.51	43973.98
551.68	44154.21
551.84	44100.37
552.01	43737.59
552.18	44041.86
552.34	43779.72
552.51	44376.56
552.68	43962.28
552.84	44428.05
553.01	44505.29
553.18	44062.93
553.34	44301.66
553.51	44425.71
553.67	44273.57
553.84	44435.07
554.01	44952.33
554.17	44533.37
554.34	44690.19
554.51	44392.94
554.67	44708.91
554.84	44603.59
555.00	44322.72
555.17	44311.02
555.33	44414.01
555.50	44451.45
555.67	45008.50
555.83	44715.93
556.00	44722.96
556.16	44772.11
556.33	45045.95
556.50	44659.76
556.66	44687.85
556.83	44818.92
556.99	44655.08
557.16	45008.50
557.32	44758.06
557.49	44910.20
557.65	44737.00
557.82	44975.73
557.98	44891.48
558.15	44898.50
558.32	45507.04
558.48	44903.18
558.65	44713.59
558.81	45022.54
558.98	45191.06
559.14	45029.57
559.31	45013.18
559.47	44821.26
559.64	45195.74
559.80	45132.55
559.97	45095.10
560.13	45294.05
560.30	44690.19
560.46	45289.37
560.63	45333.84
560.79	45663.85
560.96	45324.47
561.12	45193.40
561.29	45102.12
561.45	45492.99
561.61	45045.95
561.78	44940.63
561.94	45029.57
562.11	45310.43
562.27	45373.63
562.44	44985.10
562.60	45691.94
562.77	45530.44
562.93	45219.15
563.10	45600.66
563.26	45296.39
563.42	45652.15
563.59	45336.18
563.75	45544.48
563.92	45200.43
564.08	45572.57
564.24	45322.13
564.41	45497.67
564.57	45120.85
564.74	45705.98
564.90	45406.39
565.07	45209.79
565.23	45605.34
565.39	45272.98
565.56	45710.66
565.72	44722.96
565.88	45312.77
566.05	45467.25
566.21	45366.60
566.38	45277.66
566.54	45371.28
566.70	46223.24
566.87	45893.22
567.03	45818.33
567.19	45839.39
567.36	45841.73
567.52	45645.13
567.68	45507.04
567.85	45476.61
568.01	45670.87
568.17	45450.86
568.34	45790.24
568.50	45406.39
568.66	45649.81
568.83	45684.92
568.99	45610.02
569.15	45656.83
569.32	45680.24
569.48	45612.36
569.64	46054.72
569.81	46064.08
569.97	45670.87
570.13	45900.25
570.30	45109.14
570.46	45312.77
570.62	44912.54
570.78	45296.39
570.95	45523.42
571.11	45745.77
571.27	45434.48
571.43	45907.27
571.60	45633.42
571.76	45851.09
571.92	45900.25
572.09	45399.37
572.25	45984.51
572.41	46014.93
572.57	46225.58
572.74	46080.47
572.90	45982.16
573.06	45848.75
573.22	45792.58
573.38	46115.58
573.55	45790.24
573.71	45701.30
573.87	45820.67
574.03	45846.41
574.20	45963.44
574.36	45614.70
574.52	45958.76
574.68	46012.59
574.84	45773.86
575.01	45457.88
575.17	45823.01
575.33	45649.81
575.49	45696.62
575.65	46007.91
575.82	46071.10
575.98	45963.44
576.14	46347.29
576.30	46120.26
576.46	45961.10
576.62	45315.11
576.79	45909.61
576.95	45785.56
577.11	46419.84
577.27	45951.74
577.43	46054.72
577.59	46038.34
577.75	45691.94
577.92	45687.26
578.08	45551.51
578.24	45504.70
578.40	45743.43
578.56	45968.12
578.72	45715.34
578.88	46164.73
579.04	46146.00
579.21	45272.98
579.37	45315.11
579.53	46103.87
579.69	45701.30
579.85	45778.54
580.01	45827.69
580.17	45792.58
580.33	45902.59
580.49	46162.39
580.65	45834.71
580.82	46136.64
580.98	45603.00
581.14	45736.41
581.30	45890.88
581.46	45801.94
581.62	45937.69
581.78	46358.99
581.94	46227.92
582.10	46148.34
582.26	46113.23
582.42	45830.03
582.58	45956.42
582.74	45794.92
582.90	46239.62
583.06	46209.20
583.22	46181.11
583.38	46281.75
583.54	46040.68
583.70	46258.35
583.86	46043.02
584.02	45731.73
584.18	46260.69
584.34	45799.60
584.50	46241.96
584.66	46096.85
584.82	46307.50
584.98	46068.76
585.14	46099.19
585.30	46099.19
585.46	46068.76
585.62	45467.25
585.78	45911.95
585.94	45961.10
586.10	45979.82
586.26	45223.83
586.42	45984.51
586.58	46284.09
586.74	46127.28
586.90	45682.58
587.06	46146.00
587.22	45610.02
587.38	45705.98
587.54	46024.29
587.70	45925.99
587.86	45853.44
588.02	46183.45
588.18	46167.07
588.34	45701.30
588.49	45624.06
588.65	45111.49
588.81	45102.12
588.97	45467.25
589.13	45331.50
589.29	45382.99
589.45	45593.64
589.61	45961.10
589.77	46108.55
589.93	46075.79
590.08	46703.05
590.24	46188.13
590.40	46265.37
590.56	46120.26
590.72	45918.97
590.88	45558.53
591.04	46003.23
591.20	46234.94
591.35	46473.68
591.51	46340.27
591.67	45467.25
591.83	46115.58
591.99	45991.53
592.15	46354.31
592.31	46045.36
592.46	45869.82
592.62	46134.30
592.78	46223.24
592.94	46347.29
593.10	46548.57
593.26	46171.75
593.41	46176.43
593.57	45799.60
593.73	45626.40
593.89	45970.46
594.05	46110.89
594.20	46206.86
594.36	46220.90
594.52	46251.33
594.68	46000.89
594.84	46138.98
594.99	46508.79
595.15	46110.89
595.31	46588.36
595.47	46260.69
595.62	45993.87
595.78	46192.81
595.94	46464.32
596.10	46178.77
596.25	46092.17
596.41	46270.05
596.57	45965.78
596.73	46370.69
596.88	46178.77
597.04	45703.64
597.20	46349.63
597.36	46146.00
597.51	46349.63
597.67	46138.98
597.83	46265.37
597.99	46635.17
598.14	46232.60
598.30	45858.12
598.46	46279.41
598.61	46319.20
598.77	45876.84
598.93	46401.12
599.09	45874.50
599.24	46843.48
599.40	46253.67
599.56	46845.82
599.71	46284.09
599.87	46323.88
600.03	46286.43
600.18	45970.46
600.34	46326.22
600.50	45979.82
600.65	45689.60
600.81	46649.22
600.97	46471.34
601.12	46232.60
601.28	45825.35
601.44	45956.42
601.59	46028.98
601.75	45918.97
601.91	45759.81
602.06	45879.18
602.22	46239.62
602.37	45895.56
602.53	46487.72
602.69	46504.10
602.84	46244.30
603.00	46120.26
603.16	45921.31
603.31	46321.54
603.47	46092.17
603.62	45511.72
603.78	46068.76
603.94	46298.14
604.09	46031.32
604.25	46370.69
604.40	46223.24
604.56	45937.69
604.71	46232.60
604.87	45968.12
605.03	45605.34
605.18	45933.01
605.34	45860.46
605.49	45954.08
605.65	45982.16
605.80	45350.22
605.96	45743.43
606.12	45830.03
606.27	45797.26
606.43	45933.01
606.58	46146.00
606.74	45972.80
606.89	45799.60
607.05	45750.45
607.20	46309.84
607.36	45982.16
607.51	46347.29
607.67	46120.26
607.82	45914.29
607.98	46031.32
608.13	45670.87
608.29	45731.73
608.44	45724.71
608.60	45556.19
608.75	45923.65
608.91	45911.95
609.06	45535.12
609.22	45539.80
609.37	45446.18
609.53	45888.54
609.68	45825.35
609.84	45687.26
609.99	45888.54
610.15	45525.76
610.30	45516.40
610.46	45343.20
610.61	45511.72
610.76	45787.90
610.92	45626.40
611.07	45722.37
611.23	45567.89
611.38	45338.52
611.54	45158.30
611.69	44982.76
611.84	45401.71
612.00	45518.74
612.15	45205.11
612.31	45628.74
612.46	45528.10
612.62	45516.40
612.77	45085.74
612.92	45029.57
613.08	44797.85
613.23	45153.62
613.39	44746.36
613.54	44662.10
613.69	45357.24
613.85	44734.66
614.00	45226.17
614.15	45069.36
614.31	45336.18
614.46	45123.19
614.62	45228.51
614.77	44926.58
614.92	44406.98
615.08	44580.18
615.23	44811.90
615.38	44884.45
615.54	44519.33
615.69	44631.68
615.84	44343.79
616.00	44842.32
616.15	44697.21
616.30	44999.14
616.46	44842.32
616.61	44722.96
616.76	44456.14
616.92	44406.98
617.07	44601.25
617.22	44278.25
617.37	44486.56
617.53	44439.75
617.68	45017.86
617.83	44266.55
617.99	44301.66
618.14	44521.67
618.29	44603.59
618.45	44308.68
618.60	43920.15
618.75	44020.80
618.90	43770.36
619.06	43938.88
619.21	44154.21
619.36	44128.46
619.51	44219.74
619.67	43941.22
619.82	43845.26
619.97	44509.97
620.12	44079.31
620.28	43550.35
620.43	43845.26
620.58	44212.72
620.73	43931.86
620.89	43718.87
621.04	43917.81
621.19	44027.82
621.34	43988.03
621.49	43777.38
621.65	43964.62
621.80	43917.81
621.95	43538.65
622.10	43852.28
622.25	43648.65
622.41	43569.07
622.56	43580.78
622.71	43817.17
622.86	43585.46
623.01	43585.46
623.16	43814.83
623.32	43618.22
623.47	43229.69
623.62	43714.19
623.77	43449.70
623.92	43524.60
624.07	43590.14
624.23	43021.39
624.38	43466.09
624.53	43248.42
624.68	43262.46
624.83	43185.22
624.98	43681.42
625.13	43414.60
625.29	43323.32
625.44	43143.09
625.59	42682.01
625.74	43173.52
625.89	42927.77
626.04	42829.46
626.19	42887.98
626.34	43072.88
626.49	43072.88
626.65	42653.92
626.80	42843.51
626.95	42515.83
627.10	42492.43
627.25	42784.99
627.40	42717.12
627.55	42295.82
627.70	42658.60
627.85	42618.81
628.00	42485.40
628.15	42347.31
628.30	42747.54
628.45	42583.71
628.60	42880.95
628.76	42740.52
628.91	42508.81
629.06	42300.50
629.21	42267.73
629.36	42061.77
629.51	41865.16
629.66	42485.40
629.81	42043.04
629.96	41951.76
630.11	42756.91
630.26	42211.56
630.41	42536.90
630.56	42003.25
630.71	41820.69
630.86	42134.32
631.01	42108.58
631.16	41841.76
631.31	41785.58
631.46	41933.04
631.61	41715.37
631.76	41865.16
631.91	42094.53
632.06	42239.65
632.21	41588.98
632.36	41867.50
632.51	41652.17
632.66	41661.54
632.81	41230.88
632.96	41682.60
633.10	41490.68
633.25	41343.22
633.40	41918.99
633.55	42120.28
633.70	41326.84
633.85	41687.28
634.00	41301.09
634.15	41698.98
634.30	41507.06
634.45	41918.99
634.60	41336.20
634.75	41317.48
634.90	41055.34
635.05	40954.69
635.19	41448.55
635.34	41804.31
635.49	41375.99
635.64	40947.67
635.79	41221.52
635.94	41027.25
636.09	41036.61
636.24	40903.20
636.39	40753.41
636.53	41181.73
636.68	40807.24
636.83	41008.53
636.98	40844.69
637.13	41109.17
637.28	41528.13
637.43	41146.62
637.57	41481.31
637.72	40863.41
637.87	41357.27
638.02	41029.59
638.17	41095.13
638.32	40704.26
638.46	40311.05
638.61	40837.67
638.76	40399.99
638.91	41134.92
639.06	40678.51
639.20	41053.00
639.35	40596.59
639.50	40502.97
639.65	40863.41
639.80	40308.71
639.94	40381.26
640.09	40542.76
640.24	40540.42
640.39	40119.12
640.54	40460.84
640.68	40205.72
640.83	39941.24
640.98	40201.04
641.13	40329.77
641.27	40634.04
641.42	39985.71
641.57	39758.68
641.72	39948.26
641.86	40341.47
642.01	39709.53
642.16	39653.36
642.31	39775.06
642.45	40058.27
642.60	39690.80
642.75	39793.79
642.90	40107.42
643.04	40308.71
643.19	39924.86
643.34	39959.97
643.48	40126.14
643.63	40062.95
643.78	39641.65
643.93	39943.58
644.07	39545.69
644.22	39573.78
644.37	39328.02
644.51	39260.15
644.66	39571.44
644.81	39629.95
644.95	39559.73
645.10	39545.69
645.25	39901.45
645.39	39473.13
645.54	39391.22
645.69	38934.81
645.83	39419.30
645.98	39299.94
646.13	39512.92
646.27	39065.88
646.42	38831.83
646.57	39002.69
646.71	39215.68
646.86	39304.62
647.00	39297.59
647.15	38859.91
647.30	38981.62
647.44	38951.20
647.59	39058.86
647.74	38883.32
647.88	38754.59
648.03	38883.32
648.17	39112.69
648.32	38990.98
648.47	38803.74
648.61	38581.39
648.76	38822.47
648.90	38433.94
649.05	38103.92
649.20	38747.57
649.34	38841.19
649.49	38337.98
649.63	38642.24
649.78	38789.70
649.92	38806.08
650.07	38396.49
650.21	38464.36
650.36	38471.39
650.51	38660.97
650.65	38958.22
650.80	39152.48
650.94	38415.21
651.09	38579.05
651.23	38534.58
651.38	38370.74
651.52	38127.33
651.67	38005.62
651.81	37694.33
651.96	38419.89
652.10	38478.41
652.25	38600.12
652.39	38323.93
652.54	38220.95
652.68	38511.17
652.83	38302.87
652.97	38455.00
653.12	38251.38
653.26	37989.24
653.41	38096.90
653.55	37893.27
653.70	38033.71
653.84	37888.59
653.99	37902.64
654.13	38302.87
654.27	37497.72
654.42	38377.76
654.56	38146.05
654.71	38014.98
654.85	37963.49
655.00	37816.04
655.14	37511.77
655.29	37420.48
655.43	37581.98
655.57	37390.06
655.72	36861.10
655.86	37038.98
656.01	36655.13
656.15	36505.34
656.30	36968.76
656.44	36947.70
656.58	37586.66
656.73	37429.85
656.87	37174.73
657.01	37043.66
657.16	36830.67
657.30	36715.98
657.45	37010.89
657.59	36741.73
657.73	37205.16
657.88	36980.46
658.02	37326.86
658.16	37172.39
658.31	36884.50
658.45	36868.12
658.60	37109.19
658.74	37453.25
658.88	37247.29
659.03	36891.52
659.17	36760.45
659.31	36346.18
659.46	36093.40
659.60	36570.87
659.74	36524.06
659.89	36374.27
660.03	36137.87
660.17	36610.66
660.32	36566.19
660.46	36463.21
660.60	36013.82
660.74	36004.46
660.89	36329.80
661.03	35763.39
661.17	35920.20
661.32	36072.34
661.46	36407.03
661.60	36016.16
661.74	35805.52
661.89	36112.13
662.03	35852.33
662.17	35894.46
662.31	35730.62
662.46	36130.85
662.60	36020.84
662.74	36224.47
662.88	36311.07
663.03	35728.28
663.17	35470.82
663.31	35412.31
663.45	35569.12
663.60	35735.30
663.74	35058.88
663.88	35388.90
664.02	34665.67
664.17	35510.61
664.31	35337.41
664.45	34948.88
664.59	35061.22
664.73	34972.28
664.88	34998.03
665.02	34691.42
665.16	34909.09
665.30	34478.43
665.44	34300.55
665.59	34445.66
665.73	34754.61
665.87	34375.45
666.01	34778.02
666.15	34155.44
666.29	34309.91
666.44	34359.06
666.58	34679.72
666.72	34277.15
666.86	34232.68
667.00	34345.02
667.14	34157.78
667.28	34256.08
667.43	34146.08
667.57	34110.97
667.71	33605.41
667.85	34015.01
667.99	34455.03
668.13	34174.16
668.27	33694.35
668.41	34171.82
668.56	33830.10
668.70	33472.00
668.84	32931.34
668.98	33331.57
669.12	33205.18
669.26	33654.56
669.40	33097.52
669.54	33343.27
669.68	33153.69
669.82	33029.64
669.96	33027.30
670.10	32893.89
670.25	33160.71
670.39	32816.65
670.53	32818.99
670.67	32657.49
670.81	32713.67
670.95	32364.93
671.09	32484.30
671.23	32353.23
671.37	32170.66
671.51	32158.96
671.65	32266.63
671.79	31716.60
671.93	32189.39
672.07	31971.72
672.21	31915.54
672.35	31789.16
672.49	32210.45
672.63	31564.46
672.77	31721.28
672.91	31501.27
673.05	31690.85
673.19	31370.20
673.33	31585.53
673.47	31269.56
673.61	31393.61
673.75	31014.44
673.89	31075.29
674.03	31417.01
674.17	30834.22
674.31	31044.87
674.45	31028.48
674.59	31321.05
674.73	31435.74
674.87	30654.00
675.01	31227.43
675.15	30937.20
675.29	30586.12
675.43	30742.94
675.56	30644.63
675.70	30520.59
675.84	30398.88
675.98	29450.96
676.12	30375.47
676.26	30258.45
676.40	30209.29
676.54	30036.09
676.68	30382.49
676.82	29422.87
676.96	29797.36
677.10	29940.13
677.23	29956.52
677.37	29355.00
677.51	29617.14
677.65	28982.85
677.79	28615.39
677.93	29373.72
678.07	29024.98
678.21	28479.64
678.34	28517.09
678.48	28161.33
678.62	28271.33
678.76	28463.25
678.90	27885.14
679.04	28617.73
679.18	28393.04
679.31	28077.07
679.45	27917.91
679.59	27566.83
679.73	27821.95
679.87	27721.30
680.00	27838.33
680.14	27679.18
680.28	27201.71
680.42	27468.53
680.56	27311.71
680.70	27377.25
680.83	27267.24
680.97	27234.47
681.11	27058.93
681.25	27262.56
681.39	26813.18
681.52	26859.99
681.66	26719.56
681.80	26712.53
681.94	26562.74
682.07	26136.76
682.21	26401.24
682.35	26146.12
682.49	26178.89
682.62	25972.92
682.76	26132.08
682.90	25942.50
683.04	26094.63
683.17	26019.74
683.31	25736.53
683.45	25694.40
683.59	25649.93
683.72	25699.08
683.86	25481.41
684.00	25219.27
684.13	25111.61
684.27	24875.21
684.41	25149.06
684.55	25055.43
684.68	24730.10
684.82	24989.90
684.96	25027.35
685.09	24821.38
685.23	24549.88
685.37	24563.92
685.50	24503.07
685.64	24430.51
685.78	24187.10
685.91	24173.05
686.05	23908.57
686.19	23960.06
686.32	23534.09
686.46	23321.10
686.60	23534.09
686.73	23206.41
686.87	22937.25
687.01	23175.98
687.14	22658.73
687.28	23033.21
687.42	22923.21
687.55	23126.83
687.69	22897.46
687.82	22630.64
687.96	22860.01
688.10	22431.69
688.23	22637.66
688.37	22686.81
688.50	22775.75
688.64	22518.29
688.78	22302.96
688.91	22176.58
689.05	21757.62
689.18	21923.80
689.32	21425.26
689.46	21940.18
689.59	22300.62
689.73	21860.60
689.86	21472.07
690.00	21621.87
690.13	21689.74
690.27	21373.77
690.41	20931.41
690.54	21106.95
690.68	20779.28
690.81	21043.76
690.95	21446.33
691.08	21104.61
691.22	20863.54
691.35	20786.30
691.49	20882.26
691.62	21041.42
691.76	20975.88
691.89	20547.56
692.03	20662.25
692.16	20641.18
692.30	20231.59
692.43	20210.53
692.57	19702.63
692.70	19875.83
692.84	19711.99
692.97	19716.67
693.11	19501.34
693.24	19878.17
693.38	19522.41
693.51	19501.34
693.65	19393.68
693.78	19403.04
693.92	19396.02
694.05	19246.23
694.19	19372.61
694.32	19197.07
694.45	19454.53
694.59	19061.32
694.72	18665.77
694.86	18829.61
694.99	18724.29
695.13	18317.03
695.26	18513.64
695.39	18593.22
695.53	18450.44
695.66	18600.24
695.80	18394.27
695.93	18501.93
696.07	18073.62
696.20	18312.35
696.33	17994.04
696.47	17851.27
696.60	17984.68
696.73	17720.20
696.87	17717.86
697.00	17542.32
697.14	17322.30
697.27	17355.07
697.40	17064.85
697.54	17193.58
697.67	17308.26
697.80	17186.55
697.94	17193.58
698.07	17153.79
698.21	17193.58
698.34	17165.49
698.47	16950.16
698.61	16666.95
698.74	16774.62
698.87	16769.94
699.01	16648.23
699.14	16285.45
699.27	16177.78
699.40	16109.91
699.54	16360.34
699.67	16156.72
699.80	16027.99
699.94	15723.72
700.07	16004.58
700.20	15910.96
700.34	15882.88
700.47	15917.98
700.60	15627.76
700.73	15824.36
700.87	15634.78
701.00	15693.29
701.13	15527.11
701.26	15183.06
701.40	15274.34
701.53	15187.74
701.66	15066.03
701.79	15143.27
701.93	15030.92
702.06	14941.98
702.19	14998.15
702.32	14848.36
702.46	14810.91
702.59	15002.83
702.72	14827.29
702.85	14590.90
702.99	14370.89
703.12	14431.74
703.25	14415.36
703.38	14532.39
703.51	14537.07
703.65	13914.48
703.78	13973.00
703.91	13982.36
704.04	14003.43
704.17	14085.34
704.31	13916.83
704.44	13701.50
704.57	13584.47
704.70	13694.47
704.83	13516.59
704.96	13645.32
705.10	13645.32
705.23	13373.82
>>>>>End Processed Spectral Data<<<<<
