SpectraSuite Data File
++++++++++++++++++++++++++++++++++++
Date: Fri Oct 25 10:43:48 EDT 2013
User: price-jones
Dark Spectrum Present: No
Reference Spectrum Present: No
Number of Sampled Component Spectra: 1
Spectrometers: USB2+H05261
Integration Time (usec): 100000 (USB2+H05261)
Spectra Averaged: 1 (USB2+H05261)
Boxcar Smoothing: 0 (USB2+H05261)
Correct for Electrical Dark: No (USB2+H05261)
Strobe/Lamp Enabled: No (USB2+H05261)
Correct for Detector Non-linearity: No (USB2+H05261)
Correct for Stray Light: No (USB2+H05261)
Number of Pixels in Processed Spectrum: 2048
>>>>>Begin Processed Spectral Data<<<<<
365.73	84.26
365.92	84.26
366.12	84.26
366.32	0.00
366.52	37.45
366.72	0.00
366.91	67.88
367.11	0.00
367.31	23.41
367.51	102.98
367.70	0.00
367.90	42.13
368.10	0.00
368.30	0.00
368.49	42.13
368.69	42.13
368.89	0.00
369.09	7.02
369.28	49.15
369.48	4.68
369.68	37.45
369.87	67.88
370.07	128.73
370.27	182.56
370.47	163.84
370.66	320.65
370.86	442.36
371.06	397.89
371.25	458.74
371.45	425.98
371.65	435.34
371.84	458.74
372.04	376.83
372.24	500.87
372.44	521.94
372.63	552.37
372.83	517.26
373.03	510.24
373.22	533.64
373.42	561.73
373.62	526.62
373.81	566.41
374.01	510.24
374.21	550.03
374.40	594.50
374.60	599.18
374.79	582.79
374.99	528.96
375.19	571.09
375.38	575.77
375.58	622.58
375.78	561.73
375.97	669.39
376.17	627.26
376.37	554.71
376.56	678.76
376.76	552.37
376.95	627.26
377.15	704.50
377.35	620.24
377.54	653.01
377.74	566.41
377.93	564.07
378.13	683.44
378.33	638.97
378.52	662.37
378.72	629.60
378.91	702.16
379.11	692.80
379.31	615.56
379.50	669.39
379.70	645.99
379.89	713.86
380.09	688.12
380.28	727.91
380.48	720.88
380.68	718.54
380.87	727.91
381.07	674.07
381.26	660.03
381.46	690.46
381.65	641.31
381.85	648.33
382.04	727.91
382.24	802.80
382.43	723.23
382.63	706.84
382.83	641.31
383.02	744.29
383.22	692.80
383.41	660.03
383.61	765.36
383.80	847.27
384.00	802.80
384.19	711.52
384.39	847.27
384.58	788.76
384.78	821.53
384.97	851.96
385.17	753.65
385.36	809.83
385.56	877.70
385.75	821.53
385.95	823.87
386.14	842.59
386.34	823.87
386.53	837.91
386.72	805.14
386.92	887.06
387.11	861.32
387.31	866.00
387.50	912.81
387.70	816.85
387.89	830.89
388.09	807.48
388.28	870.68
388.48	868.34
388.67	877.70
388.86	938.55
389.06	952.60
389.25	884.72
389.45	990.05
389.64	994.73
389.84	945.58
390.03	947.92
390.22	1025.15
390.42	1039.20
390.61	1088.35
390.81	966.64
391.00	1088.35
391.19	1022.81
391.39	978.34
391.58	1076.65
391.78	1029.84
391.97	1011.11
392.16	1001.75
392.36	1055.58
392.55	1118.78
392.75	938.55
392.94	1048.56
393.13	1027.50
393.33	966.64
393.52	1004.09
393.71	1011.11
393.91	1121.12
394.10	1062.60
394.29	1062.60
394.49	1142.18
394.68	1184.31
394.88	1287.29
395.07	1170.27
395.26	1280.27
395.46	1252.19
395.65	1214.74
395.84	1233.46
396.04	1261.55
396.23	1116.44
396.42	1109.41
396.62	1214.74
396.81	1184.31
397.00	1181.97
397.19	1355.17
397.39	1235.80
397.58	1315.38
397.77	1355.17
397.97	1437.09
398.16	1439.43
398.35	1519.01
398.55	1420.71
398.74	1479.22
398.93	1540.07
399.12	1509.65
399.32	1533.05
399.51	1493.26
399.70	1523.69
399.90	1540.07
400.09	1521.35
400.28	1577.52
400.47	1572.84
400.67	1659.44
400.86	1640.72
401.05	1554.12
401.24	1582.20
401.44	1692.21
401.63	1739.02
401.82	1657.10
402.01	1582.20
402.21	1633.69
402.40	1743.70
402.59	1671.14
402.78	1776.47
402.97	1783.49
403.17	1778.81
403.36	1771.79
403.55	1853.70
403.74	1771.79
403.93	1846.68
404.13	1963.71
404.32	1870.09
404.51	1933.28
404.70	2022.22
404.89	1846.68
405.09	1987.11
405.28	1881.79
405.47	1970.73
405.66	1926.26
405.85	2108.82
406.05	1952.01
406.24	2136.91
406.43	1984.77
406.62	2008.18
406.81	2003.50
407.00	2031.58
407.20	1975.41
407.39	2165.00
407.58	2181.38
407.77	2148.61
407.96	2253.94
408.15	2214.15
408.34	2094.78
408.54	2216.49
408.73	2270.32
408.92	2284.36
409.11	2293.72
409.30	2284.36
409.49	2277.34
409.68	2291.38
409.87	2235.21
410.07	2338.20
410.26	2417.77
410.45	2394.37
410.64	2429.48
410.83	2303.09
411.02	2436.50
411.21	2630.76
411.40	2558.21
411.59	2558.21
411.78	2546.50
411.98	2605.02
412.17	2689.28
412.36	2654.17
412.55	2651.83
412.74	2773.53
412.93	2675.23
413.12	2621.40
413.31	2738.43
413.50	2841.41
413.69	2878.86
413.88	2895.24
414.07	2888.22
414.26	2888.22
414.45	2946.73
414.64	3056.74
414.83	2932.69
415.02	2925.67
415.22	3030.99
415.41	3115.25
415.60	3052.06
415.79	3117.59
415.98	3269.73
416.17	3115.25
416.36	3164.40
416.55	3290.79
416.74	3187.81
416.93	3218.24
417.12	3262.71
417.31	3255.69
417.50	3255.69
417.69	3438.25
417.88	3426.54
418.07	3379.73
418.26	3304.84
418.45	3471.01
418.64	3627.83
418.83	3459.31
419.02	3417.18
419.21	3616.13
419.39	3531.87
419.58	3398.46
419.77	3449.95
419.96	3599.74
420.15	3613.79
420.34	3737.84
420.53	3714.43
420.72	3686.34
420.91	3611.45
421.10	3747.20
421.29	3784.65
421.48	3726.13
421.67	3901.67
421.86	3768.26
422.05	3709.75
422.24	3810.39
422.43	3794.01
422.61	3786.99
422.80	3896.99
422.99	3934.44
423.18	3868.91
423.37	3894.65
423.56	3733.15
423.75	4032.74
423.94	3805.71
424.13	3679.32
424.32	3761.24
424.50	3861.88
424.69	3866.56
424.88	3915.72
425.07	3983.59
425.26	3826.78
425.45	3901.67
425.64	3878.27
425.83	3929.76
426.01	3962.53
426.20	3913.38
426.39	3873.59
426.58	3885.29
426.77	3943.80
426.96	3913.38
427.15	4063.17
427.33	4079.55
427.52	3918.06
427.71	4056.15
427.90	4196.58
428.09	4208.28
428.28	4152.11
428.46	4114.66
428.65	4156.79
428.84	4189.56
429.03	4290.20
429.22	4063.17
429.40	4072.53
429.59	4077.21
429.78	3868.91
429.97	3929.76
430.16	4070.19
430.34	4070.19
430.53	4287.86
430.72	4229.35
430.91	4023.38
431.10	4355.74
431.28	4465.74
431.47	4486.81
431.66	4489.15
431.85	4475.10
432.03	4528.94
432.22	4706.82
432.41	4601.49
432.60	4505.53
432.79	4692.77
432.97	4667.03
433.16	4669.37
433.35	4650.64
433.54	4503.19
433.72	4751.29
433.91	4533.62
434.10	4716.18
434.28	4727.88
434.47	4805.12
434.66	4697.46
434.85	4966.62
435.03	4856.61
435.22	4964.28
435.41	5048.54
435.59	4997.04
435.78	5139.82
435.97	5146.84
436.16	5139.82
436.34	4954.91
436.53	5221.74
436.72	5334.08
436.90	5095.35
437.09	5254.50
437.28	5093.01
437.46	5188.97
437.65	5263.86
437.84	5261.52
438.02	5144.50
438.21	5137.48
438.40	5104.71
438.58	5341.10
438.77	5252.16
438.96	5355.15
439.14	5633.67
439.33	5727.29
439.52	5509.62
439.70	5682.82
439.89	5631.33
440.08	5692.18
440.26	5610.26
440.45	5652.39
440.63	5912.19
440.82	5884.11
441.01	5959.00
441.19	5905.17
441.38	6064.33
441.57	5900.49
441.75	6267.95
441.94	6260.93
442.12	6200.08
442.31	6200.08
442.50	6258.59
442.68	6113.48
442.87	6345.19
443.05	6274.98
443.24	6228.17
443.43	6277.32
443.61	6415.41
443.80	6581.59
443.98	6314.77
444.17	6132.20
444.35	6450.52
444.54	6612.01
444.73	6502.01
444.91	6413.07
445.10	6436.47
445.28	6476.26
445.47	6420.09
445.65	6417.75
445.84	6494.99
446.02	6567.54
446.21	6373.28
446.39	6569.88
446.58	6705.63
446.77	6569.88
446.95	6525.41
447.14	6700.95
447.32	6801.60
447.51	6703.29
447.69	6651.80
447.88	6682.23
448.06	6684.57
448.25	6602.65
448.43	6810.96
448.62	6487.96
448.80	6759.47
448.99	6715.00
449.17	6757.13
449.36	6649.46
449.54	6782.87
449.73	6958.41
449.91	7105.87
450.10	7138.63
450.28	7201.83
450.46	7162.04
450.65	7117.57
450.83	7082.46
451.02	7234.60
451.20	7215.87
451.39	7117.57
451.57	6963.09
451.76	7110.55
451.94	7213.53
452.13	7281.41
452.31	6998.20
452.49	7045.01
452.68	7115.23
452.86	7002.88
453.05	7358.64
453.23	7269.70
453.42	7283.75
453.60	7206.51
453.78	7419.50
453.97	7433.54
454.15	7304.81
454.34	7419.50
454.52	7281.41
454.70	7639.51
454.89	7520.14
455.07	7417.16
455.26	7653.55
455.44	7721.43
455.62	7761.22
455.81	7602.06
455.99	7688.66
456.17	7740.15
456.36	7824.41
456.54	7911.01
456.73	7836.11
456.91	8065.49
457.09	7925.05
457.28	8311.24
457.46	7941.44
457.64	8145.06
457.83	8114.64
458.01	7899.31
458.19	8219.96
458.38	7971.86
458.56	8245.71
458.74	8236.35
458.93	8301.88
459.11	8334.65
459.29	8252.73
459.48	8304.22
459.66	8327.63
459.84	8510.19
460.03	8278.47
460.21	8189.53
460.39	8219.96
460.57	8236.35
460.76	8566.36
460.94	8526.57
461.12	8351.03
461.31	8589.77
461.49	8755.94
461.67	8526.57
461.85	8746.58
462.04	8823.82
462.22	9193.62
462.40	8652.96
462.59	8851.91
462.77	8737.22
462.95	8912.76
463.13	8769.99
463.32	8823.82
463.50	8889.35
463.68	8870.63
463.86	9008.72
464.05	8800.41
464.23	8912.76
464.41	9078.94
464.59	8805.10
464.78	9212.35
464.96	8961.91
465.14	9088.30
465.32	9198.31
465.50	9191.28
465.69	9151.49
465.87	9067.24
466.05	9179.58
466.23	9160.86
466.41	9015.74
466.60	9149.15
466.78	9018.08
466.96	9224.05
467.14	9415.98
467.32	9128.09
467.51	9572.79
467.69	9170.22
467.87	9350.44
468.05	9502.58
468.23	9310.65
468.41	9282.56
468.60	9640.67
468.78	9701.52
468.96	9521.30
469.14	9472.15
469.32	9537.68
469.50	9287.25
469.69	9610.24
469.87	9703.86
470.05	9757.69
470.23	9820.89
470.41	9664.07
470.59	9930.89
470.77	9858.34
470.95	9935.57
471.14	10101.75
471.32	9877.06
471.50	10232.82
471.68	10111.11
471.86	10340.49
472.04	10370.91
472.22	10303.04
472.40	10307.72
472.58	10249.21
472.77	10485.60
472.95	10494.96
473.13	10637.73
473.31	10384.96
473.49	10544.11
473.67	10429.43
473.85	10677.52
474.03	10871.79
474.21	10927.96
474.39	10906.90
474.57	10869.45
474.75	11073.07
474.93	11023.92
475.12	10953.71
475.30	11183.08
475.48	11066.05
475.66	11332.87
475.84	11314.15
476.02	11162.01
476.20	11300.11
476.38	11424.15
476.56	11918.01
476.74	11662.89
476.92	11910.99
477.10	11651.19
477.28	11866.52
477.46	11840.77
477.64	12255.04
477.82	12131.00
478.00	12758.26
478.18	12297.17
478.36	12198.87
478.54	12442.29
478.72	12594.42
478.90	12720.81
479.08	13053.17
479.26	12905.71
479.44	13144.45
479.62	13387.86
479.80	13055.51
479.98	13530.64
480.16	13532.98
480.34	13542.34
480.52	13628.94
480.70	13600.85
480.88	13500.21
481.06	13767.03
481.24	14038.53
481.41	14136.84
481.59	14176.62
481.77	14333.44
481.95	14167.26
482.13	14621.33
482.31	14661.12
482.49	14778.14
482.67	14644.73
482.85	14815.59
483.03	14831.97
483.21	15030.92
483.39	15213.48
483.57	15063.69
483.74	15433.49
483.92	15218.16
484.10	15171.35
484.28	15756.49
484.46	16196.51
484.64	16341.62
484.82	15976.50
485.00	16107.57
485.18	16133.31
485.35	16383.75
485.53	15908.62
485.71	16194.17
485.89	16458.65
486.07	16432.90
486.25	16507.80
486.43	16643.55
486.61	17085.91
486.78	17034.42
486.96	17188.89
487.14	17273.15
487.32	17736.58
487.50	17926.16
487.68	17961.27
487.85	18293.63
488.03	18333.42
488.21	18398.95
488.39	18340.44
488.57	18274.90
488.75	18466.83
488.92	19014.51
489.10	18953.66
489.28	19274.31
489.46	19445.17
489.64	19506.02
489.81	20152.01
489.99	20058.39
490.17	20224.57
490.35	20407.13
490.53	20175.42
490.70	20505.43
490.88	20238.61
491.06	20898.64
491.24	20570.97
491.41	20652.89
491.59	20746.51
491.77	20622.46
491.95	20802.68
492.13	21029.71
492.30	21656.98
492.48	21488.46
492.66	21724.85
492.84	21736.56
493.01	22214.02
493.19	21900.39
493.37	21975.29
493.54	22085.30
493.72	22501.91
493.90	22665.75
494.08	22963.00
494.25	23271.95
494.43	22852.99
494.61	22941.93
494.79	23534.09
494.96	23367.91
495.14	23255.56
495.32	23592.60
495.49	23491.96
495.67	23667.50
495.85	23988.15
496.02	24196.46
496.20	24292.42
496.38	24369.66
496.55	24393.06
496.73	24793.29
496.91	24723.08
497.09	24922.02
497.26	25123.31
497.44	24631.80
497.62	24662.22
497.79	25235.66
497.97	24812.02
498.14	25230.98
498.32	25113.95
498.50	25816.11
498.67	25869.94
498.85	25778.66
499.03	25879.30
499.20	26162.51
499.38	25998.67
499.56	26272.51
499.73	26286.56
499.91	26401.24
500.08	26361.45
500.26	26574.44
500.44	26532.31
500.61	26604.87
500.79	26651.68
500.97	26394.22
501.14	26820.20
501.32	27040.21
501.49	26998.08
501.67	26974.67
501.84	27166.60
502.02	27452.14
502.20	27274.26
502.37	27358.52
502.55	27817.27
502.72	27501.29
502.90	27887.48
503.07	27681.52
503.25	28144.94
503.43	28030.26
503.60	28048.98
503.78	27873.44
503.95	28037.28
504.13	28453.89
504.30	28154.30
504.48	28531.13
504.65	28797.95
504.83	29032.00
505.01	28652.84
505.18	28641.14
505.36	29181.80
505.53	29310.53
505.71	29589.05
505.88	29673.31
506.06	29333.93
506.23	29518.84
506.41	29771.61
506.58	29731.83
506.76	29610.12
506.93	29776.30
507.11	29724.80
507.28	30218.66
507.46	29659.27
507.63	29933.11
507.81	29865.24
507.98	29802.04
508.16	30202.27
508.33	30525.27
508.50	30689.10
508.68	30719.53
508.85	31075.29
509.03	30721.87
509.20	31079.97
509.38	31239.13
509.55	31367.86
509.73	31211.04
509.90	31166.57
510.08	31381.90
510.25	31129.12
510.42	31562.12
510.60	31494.25
510.77	31417.01
510.95	32313.44
511.12	31220.41
511.30	31824.26
511.47	32032.57
511.64	32671.54
511.82	32229.18
511.99	31941.29
512.17	32470.25
512.34	32156.62
512.51	32025.55
512.69	32308.76
512.86	32659.84
513.04	32954.74
513.21	32708.99
513.38	32650.47
513.56	32875.16
513.73	32400.04
513.90	32638.77
514.08	32765.16
514.25	32975.81
514.43	32584.94
514.60	33404.13
514.77	32914.95
514.95	33668.61
515.12	33795.00
515.29	33340.93
515.47	34015.01
515.64	33347.95
515.81	33642.86
515.99	33905.00
516.16	33427.53
516.33	33448.60
516.51	33448.60
516.68	32929.00
516.85	33443.91
517.03	33624.14
517.20	33855.85
517.37	33715.42
517.54	34265.44
517.72	34288.85
517.89	33839.47
518.06	33647.54
518.24	34007.98
518.41	34157.78
518.58	34288.85
518.75	34639.93
518.93	34679.72
519.10	34604.82
519.27	34731.21
519.45	34820.15
519.62	34890.37
519.79	35400.60
519.96	35515.29
520.14	35529.33
520.31	35047.18
520.48	35658.06
520.65	35091.65
520.83	35545.72
521.00	35545.72
521.17	35669.76
521.34	35637.00
521.52	35878.07
521.69	35697.85
521.86	36011.48
522.03	36282.98
522.20	35887.43
522.38	36004.46
522.55	36194.04
522.72	36524.06
522.89	36325.11
523.07	36460.87
523.24	36079.36
523.41	36650.45
523.58	36540.44
523.75	37366.65
523.92	37050.68
524.10	37280.05
524.27	36996.85
524.44	36779.18
524.61	36989.83
524.78	37170.05
524.96	37006.21
525.13	37612.41
525.30	37729.44
525.47	37605.39
525.64	37495.38
525.81	37450.91
525.98	37102.17
526.16	37076.43
526.33	37415.80
526.50	37303.46
526.67	36748.75
526.84	37134.94
527.01	37202.82
527.18	37479.00
527.36	38174.14
527.53	38019.66
527.70	38150.73
527.87	38277.12
528.04	37916.68
528.21	38230.31
528.38	38726.50
528.55	38520.54
528.72	38607.14
528.89	39112.69
529.07	38366.06
529.24	39002.69
529.41	39124.40
529.58	38773.31
529.75	38728.84
529.92	38497.13
530.09	38597.77
530.26	39192.27
530.43	39138.44
530.60	38885.66
530.77	38871.62
530.94	39423.98
531.11	39054.18
531.28	39302.28
531.46	39243.76
531.63	39388.88
531.80	39068.22
531.97	39620.59
532.14	39145.46
532.31	39023.75
532.48	39529.31
532.65	39344.41
532.82	39636.97
532.99	39639.31
533.16	39611.23
533.33	39789.11
533.50	39789.11
533.67	40093.38
533.84	39686.12
534.01	39831.24
534.18	39566.76
534.35	40084.01
534.52	39871.03
534.69	39934.22
534.86	40009.12
535.03	40151.89
535.20	40575.53
535.37	40409.35
535.54	40886.82
535.71	40460.84
535.88	40395.31
536.05	40531.06
536.22	40589.57
536.38	40603.61
536.55	40229.13
536.72	40329.77
536.89	39915.50
537.06	40627.02
537.23	41134.92
537.40	40435.10
537.57	41153.64
537.74	41001.50
537.91	40973.42
538.08	41034.27
538.25	40643.40
538.42	40788.52
538.59	41102.15
538.75	40837.67
538.92	40865.75
539.09	41399.40
539.26	41478.97
539.43	41436.84
539.60	41336.20
539.77	41043.63
539.94	41120.87
540.11	41593.66
540.28	41364.29
540.44	41284.71
540.61	41127.89
540.78	40959.38
540.95	41443.87
541.12	41146.62
541.29	41251.94
541.46	41668.56
541.62	41675.58
541.79	41797.29
541.96	41102.15
542.13	41586.64
542.30	41530.47
542.47	41907.29
542.63	42354.33
542.80	41972.83
542.97	41806.65
543.14	42536.90
543.31	42541.58
543.48	42398.80
543.64	42843.51
543.81	42408.17
543.98	42471.36
544.15	42277.10
544.32	42777.97
544.48	43105.65
544.65	42501.79
544.82	42918.40
544.99	42714.78
545.16	42803.72
545.32	42450.30
545.49	43016.71
545.66	42962.87
545.83	42974.58
546.00	43208.63
546.16	42981.60
546.33	42862.23
546.50	42777.97
546.67	43501.20
546.83	42532.22
547.00	42976.92
547.17	42913.72
547.34	42679.67
547.50	43157.14
547.67	43484.81
547.84	43185.22
548.00	43400.55
548.17	43438.00
548.34	43351.40
548.51	43716.53
548.67	43721.21
548.84	43667.37
549.01	43597.16
549.18	43304.59
549.34	43545.67
549.51	43999.73
549.68	43758.66
549.84	43821.85
550.01	43789.08
550.18	43826.53
550.34	43557.37
550.51	43962.28
550.68	43732.91
550.84	43171.18
551.01	43969.30
551.18	43311.61
551.34	43632.27
551.51	44381.24
551.68	44186.97
551.84	44346.13
552.01	43955.26
552.18	44119.10
552.34	44116.76
552.51	43934.20
552.68	44184.63
552.84	44126.12
553.01	44575.50
553.18	44353.15
553.34	44278.25
553.51	44304.00
553.67	44669.12
553.84	44488.90
554.01	44371.88
554.17	44786.15
554.34	44657.42
554.51	44619.97
554.67	44524.01
554.84	44720.62
555.00	44137.82
555.17	44552.10
555.33	44650.40
555.50	44729.98
555.67	44533.37
555.83	44636.36
556.00	44655.08
556.16	44884.45
556.33	44748.70
556.50	44582.52
556.66	44947.65
556.83	44105.06
556.99	44985.10
557.16	44421.03
557.32	44828.28
557.49	45020.20
557.65	44849.35
557.82	44465.50
557.98	45387.67
558.15	44886.79
558.32	45378.31
558.48	44575.50
558.65	44610.61
558.81	44828.28
558.98	44886.79
559.14	44882.11
559.31	45099.78
559.47	44931.26
559.64	44816.58
559.80	44931.26
559.97	45287.03
560.13	45034.25
560.30	44673.81
560.46	45296.39
560.63	45390.01
560.79	45280.00
560.96	45244.90
561.12	45130.21
561.29	45221.49
561.45	45249.58
561.61	44942.97
561.78	45244.90
561.94	44643.38
562.11	45167.66
562.27	45244.90
562.44	45240.21
562.60	45521.08
562.77	45172.34
562.93	45186.38
563.10	45565.55
563.26	44989.78
563.42	45628.74
563.59	45338.52
563.75	45411.07
563.92	45631.08
564.08	45558.53
564.24	45963.44
564.41	45645.13
564.57	45343.20
564.74	45502.35
564.90	45610.02
565.07	45242.56
565.23	45612.36
565.39	45457.88
565.56	45500.01
565.72	45373.63
565.88	45399.37
566.05	45205.11
566.21	45373.63
566.38	45352.56
566.54	45385.33
566.70	45130.21
566.87	46085.15
567.03	45347.88
567.19	45827.69
567.36	45780.88
567.52	45673.21
567.68	45614.70
567.85	45621.72
568.01	45921.31
568.17	45411.07
568.34	45757.47
568.50	45460.23
568.66	45551.51
568.83	45450.86
568.99	45436.82
569.15	45244.90
569.32	45834.71
569.48	45411.07
569.64	46010.25
569.81	45666.19
569.97	45553.85
570.13	45659.17
570.30	45439.16
570.46	45132.55
570.62	45455.54
570.78	45132.55
570.95	45275.32
571.11	45633.42
571.27	45485.97
571.43	45670.87
571.60	46305.16
571.76	45340.86
571.92	45720.02
572.09	45766.84
572.25	45773.86
572.41	46003.23
572.57	45722.37
572.74	46396.44
572.90	45993.87
573.06	45654.49
573.22	45846.41
573.38	46246.65
573.55	45951.74
573.71	46003.23
573.87	46047.70
574.03	45769.18
574.20	46260.69
574.36	45771.52
574.52	45813.65
574.68	46043.02
574.84	46131.96
575.01	45727.05
575.17	45996.21
575.33	45666.19
575.49	45752.79
575.65	45888.54
575.82	45848.75
575.98	45776.20
576.14	45715.34
576.30	45991.53
576.46	45469.59
576.62	46099.19
576.79	45713.00
576.95	45577.25
577.11	45942.38
577.27	45724.71
577.43	45895.56
577.59	45373.63
577.75	45764.49
577.92	45918.97
578.08	45394.69
578.24	45296.39
578.40	45806.62
578.56	46260.69
578.72	45570.23
578.88	46080.47
579.04	46028.98
579.21	45696.62
579.37	45563.21
579.53	45808.96
579.69	45750.45
579.85	45942.38
580.01	46223.24
580.17	45607.68
580.33	45715.34
580.49	46263.03
580.65	46302.82
580.82	46057.06
580.98	45820.67
581.14	45748.11
581.30	45752.79
581.46	45783.22
581.62	45834.71
581.78	45984.51
581.94	45968.12
582.10	46143.66
582.26	46040.68
582.42	46012.59
582.58	45820.67
582.74	45914.29
582.90	46010.25
583.06	46436.23
583.22	46274.73
583.38	46064.08
583.54	46080.47
583.70	46464.32
583.86	46223.24
584.02	45698.96
584.18	46124.94
584.34	46012.59
584.50	46263.03
584.66	45443.84
584.82	45532.78
584.98	46122.60
585.14	46431.55
585.30	45956.42
585.46	45867.48
585.62	45748.11
585.78	45687.26
585.94	45579.59
586.10	46206.86
586.26	46120.26
586.42	46665.60
586.58	46298.14
586.74	46040.68
586.90	45961.10
587.06	46181.11
587.22	46024.29
587.38	45792.58
587.54	46026.63
587.70	46396.44
587.86	46401.12
588.02	45785.56
588.18	45940.04
588.34	45808.96
588.49	45511.72
588.65	45165.32
588.81	45310.43
588.97	45783.22
589.13	45422.78
589.29	45481.29
589.45	45998.55
589.61	46120.26
589.77	46120.26
589.93	46232.60
590.08	46206.86
590.24	46181.11
590.40	46227.92
590.56	46525.17
590.72	45958.76
590.88	46328.56
591.04	46211.54
591.20	46415.16
591.35	46171.75
591.51	46813.05
591.67	45743.43
591.83	46143.66
591.99	46274.73
592.15	46351.97
592.31	45979.82
592.46	45963.44
592.62	46253.67
592.78	46426.87
592.94	46494.74
593.10	46096.85
593.26	46122.60
593.41	46319.20
593.57	46057.06
593.73	46054.72
593.89	46192.81
594.05	46380.06
594.20	46295.80
594.36	46557.94
594.52	46209.20
594.68	46209.20
594.84	45968.12
594.99	46358.99
595.15	46234.94
595.31	46586.02
595.47	46160.05
595.62	46218.56
595.78	46204.52
595.94	46401.12
596.10	46417.50
596.25	46117.92
596.41	46117.92
596.57	45813.65
596.73	46424.53
596.88	46096.85
597.04	46066.42
597.20	46326.22
597.36	45839.39
597.51	46527.51
597.67	46394.10
597.83	46220.90
597.99	46625.81
598.14	46246.65
598.30	46171.75
598.46	46543.89
598.61	46284.09
598.77	45883.86
598.93	46277.07
599.09	46630.49
599.24	46733.48
599.40	46515.81
599.56	46454.95
599.71	46241.96
599.87	46256.01
600.03	45827.69
600.18	45867.48
600.34	46019.61
600.50	46288.77
600.65	46050.04
600.81	46265.37
600.97	46281.75
601.12	46710.07
601.28	46499.42
601.44	46033.66
601.59	45823.01
601.75	45773.86
601.91	46347.29
602.06	45773.86
602.22	45975.14
602.37	45895.56
602.53	46464.32
602.69	46246.65
602.84	45607.68
603.00	46326.22
603.16	46518.15
603.31	45888.54
603.47	46307.50
603.62	45668.53
603.78	46183.45
603.94	46295.80
604.09	46307.50
604.25	46073.45
604.40	46305.16
604.56	45958.76
604.71	46349.63
604.87	46026.63
605.03	46309.84
605.18	45961.10
605.34	45750.45
605.49	45942.38
605.65	46213.88
605.80	45743.43
605.96	46574.32
606.12	45977.48
606.27	46307.50
606.43	45907.27
606.58	45958.76
606.74	46000.89
606.89	46096.85
607.05	46260.69
607.20	46246.65
607.36	45769.18
607.51	46045.36
607.67	46218.56
607.82	45951.74
607.98	45846.41
608.13	45661.51
608.29	45464.91
608.44	45659.17
608.60	45457.88
608.75	45677.90
608.91	45853.44
609.06	45504.70
609.22	45975.14
609.37	45387.67
609.53	45921.31
609.68	45633.42
609.84	45310.43
609.99	45813.65
610.15	45315.11
610.30	45272.98
610.46	44907.86
610.61	45113.83
610.76	45783.22
610.92	45792.58
611.07	45628.74
611.23	45893.22
611.38	45729.39
611.54	45390.01
611.69	45125.53
611.84	44917.22
612.00	44975.73
612.15	45249.58
612.31	45649.81
612.46	45469.59
612.62	45474.27
612.77	45048.29
612.92	45619.38
613.08	45062.33
613.23	44837.64
613.39	45148.93
613.54	44641.04
613.69	44912.54
613.85	44807.22
614.00	45170.00
614.15	45680.24
614.31	45460.23
614.46	45474.27
614.62	45336.18
614.77	44830.62
614.92	44851.69
615.08	45186.38
615.23	44809.56
615.38	45165.32
615.54	44896.16
615.69	45272.98
615.84	44975.73
616.00	44959.35
616.15	44830.62
616.30	44769.77
616.46	44619.97
616.61	44945.31
616.76	44044.20
616.92	44308.68
617.07	44765.09
617.22	44680.83
617.37	44275.91
617.53	44779.13
617.68	45200.43
617.83	44472.52
617.99	44624.65
618.14	44486.56
618.29	44524.01
618.45	44203.36
618.60	44533.37
618.75	44086.33
618.90	43976.33
619.06	44683.17
619.21	44549.76
619.36	44952.33
619.51	44287.62
619.67	44105.06
619.82	44411.67
619.97	44669.12
620.12	44161.23
620.28	43761.00
620.43	44208.04
620.58	44404.64
620.73	44353.15
620.89	44222.08
621.04	44334.43
621.19	43906.11
621.34	43917.81
621.49	44065.27
621.65	44074.63
621.80	43976.33
621.95	43419.28
622.10	44201.02
622.25	44243.15
622.41	43723.55
622.56	43531.62
622.71	43688.44
622.86	44212.72
623.01	43643.97
623.16	43966.96
623.32	43426.30
623.47	43571.41
623.62	43845.26
623.77	43545.67
623.92	43765.68
624.07	43178.20
624.23	43363.11
624.38	43402.89
624.53	43367.79
624.68	43711.84
624.83	43548.01
624.98	44083.99
625.13	42511.15
625.29	43171.18
625.44	43065.86
625.59	42906.70
625.74	42436.25
625.89	42990.96
626.04	43241.40
626.19	42852.87
626.34	43140.75
626.49	42979.26
626.65	42733.50
626.80	43072.88
626.95	42871.59
627.10	42658.60
627.25	42766.27
627.40	42555.62
627.55	42380.08
627.70	42557.96
627.85	42553.28
628.00	42719.46
628.15	43175.86
628.30	42873.93
628.45	42604.77
628.60	42782.65
628.76	42429.23
628.91	42438.59
629.06	42644.56
629.21	42293.48
629.36	42469.02
629.51	42003.25
629.66	42277.10
629.81	42197.52
629.96	42326.25
630.11	42682.01
630.26	42553.28
630.41	42342.63
630.56	42485.40
630.71	42873.93
630.86	42113.26
631.01	42129.64
631.16	42307.52
631.31	42019.64
631.46	41642.81
631.61	41713.03
631.76	42059.43
631.91	41947.08
632.06	41965.81
632.21	42192.84
632.36	42274.76
632.51	41588.98
632.66	41518.76
632.81	41720.05
632.96	42007.94
633.10	41654.51
633.25	42059.43
633.40	41539.83
633.55	42188.16
633.70	41333.86
633.85	41900.27
634.00	41567.91
634.15	42246.67
634.30	41921.34
634.45	41544.51
634.60	41432.16
634.75	41588.98
634.90	41516.42
635.05	41642.81
635.19	41095.13
635.34	41380.67
635.49	41743.45
635.64	41317.48
635.79	41226.20
635.94	40851.71
636.09	41247.26
636.24	40849.37
636.39	40825.96
636.53	40945.33
636.68	40847.03
636.83	41090.44
636.98	41233.22
637.13	41048.32
637.28	41181.73
637.43	41251.94
637.57	41251.94
637.72	40912.56
637.87	41001.50
638.02	40947.67
638.17	41170.02
638.32	40807.24
638.46	40989.80
638.61	40875.12
638.76	40615.32
638.91	41031.93
639.06	41429.82
639.20	40917.25
639.35	41184.07
639.50	41207.47
639.65	40851.71
639.80	40935.97
639.94	40767.45
640.09	40439.78
640.24	40711.28
640.39	40364.88
640.54	40484.25
640.68	40374.24
640.83	40266.58
640.98	40065.29
641.13	40121.46
641.27	40549.78
641.42	40100.40
641.57	40020.82
641.72	40364.88
641.86	40091.04
642.01	39927.20
642.16	40140.19
642.31	39842.94
642.45	40123.80
642.60	40072.31
642.75	39828.90
642.90	40289.98
643.04	40165.93
643.19	40102.74
643.34	39576.12
643.48	39978.69
643.63	40313.39
643.78	39817.19
643.93	39915.50
644.07	39908.47
644.22	39449.73
644.37	39847.62
644.51	39700.17
644.66	39812.51
644.81	39754.00
644.95	39634.63
645.10	39643.99
645.25	40112.10
645.39	39826.56
645.54	39480.16
645.69	39590.16
645.83	39941.24
645.98	39475.48
646.13	39168.87
646.27	39150.14
646.42	39400.58
646.57	39356.11
646.71	39021.41
646.86	39463.77
647.00	39115.03
647.15	39049.50
647.30	39276.53
647.44	39187.59
647.59	38976.94
647.74	38616.50
647.88	39269.51
648.03	38866.94
648.17	38859.91
648.32	39044.82
648.47	38820.13
648.61	38820.13
648.76	39318.66
648.90	38979.28
649.05	39304.62
649.20	38749.91
649.34	39072.90
649.49	38684.37
649.63	38588.41
649.78	39047.16
649.92	39269.51
650.07	38792.04
650.21	38850.55
650.36	39124.40
650.51	38892.68
650.65	39274.19
650.80	39379.51
650.94	38834.17
651.09	39072.90
651.23	38490.11
651.38	38536.92
651.52	38260.74
651.67	38363.72
651.81	38146.05
651.96	38387.13
652.10	38745.23
652.25	38506.49
652.39	38387.13
652.54	38183.50
652.68	38438.62
652.83	38197.54
652.97	38726.50
653.12	38693.74
653.26	38314.57
653.41	37680.28
653.55	37928.38
653.70	37771.57
653.84	37926.04
653.99	37825.40
654.13	37701.35
654.27	37958.81
654.42	37794.97
654.56	38010.30
654.71	38033.71
654.85	37631.13
655.00	37820.72
655.14	37830.08
655.29	37514.11
655.43	37357.29
655.57	37401.76
655.72	37406.44
655.86	37263.67
656.01	37441.55
656.15	36797.90
656.30	37589.00
656.44	37446.23
656.58	37766.88
656.73	37397.08
656.87	37497.72
657.01	36903.23
657.16	37120.90
657.30	36545.12
657.45	36753.43
657.59	36795.56
657.73	37247.29
657.88	37301.12
658.02	37242.60
658.16	37390.06
658.31	37354.95
658.45	37165.37
658.60	36938.33
658.74	36971.10
658.88	37158.34
659.03	36744.07
659.17	37027.28
659.31	36610.66
659.46	36369.58
659.60	36460.87
659.74	36926.63
659.89	36568.53
660.03	36713.64
660.17	36601.30
660.32	37027.28
660.46	36708.96
660.60	36503.00
660.74	36444.48
660.89	36495.97
661.03	35959.99
661.17	36006.80
661.32	36325.11
661.46	36400.01
661.60	36168.30
661.74	36030.21
661.89	35847.64
662.03	36053.61
662.17	35707.21
662.31	36392.99
662.46	35999.78
662.60	36011.48
662.74	36119.15
662.88	35978.72
663.03	35889.77
663.17	35744.66
663.31	35044.84
663.45	35924.88
663.60	35693.17
663.74	35262.51
663.88	35407.62
664.02	35136.12
664.17	35335.07
664.31	35084.63
664.45	34850.58
664.59	34778.02
664.73	35323.36
664.88	35218.04
665.02	34462.05
665.16	34951.22
665.30	34810.79
665.44	35147.82
665.59	34501.84
665.73	35309.32
665.87	34532.26
666.01	34829.51
666.15	34742.91
666.29	34651.63
666.44	34611.84
666.58	34565.03
666.72	34614.18
666.86	34422.26
667.00	34885.68
667.14	34375.45
667.28	34047.77
667.43	34209.27
667.57	34082.88
667.71	34242.04
667.85	34279.49
667.99	34134.37
668.13	34075.86
668.27	34464.39
668.41	34277.15
668.56	33457.96
668.70	34499.50
668.84	33806.70
668.98	33319.87
669.12	33233.27
669.26	33408.81
669.40	33104.54
669.54	32891.55
669.68	33298.80
669.82	33071.77
669.96	32921.98
670.10	33111.56
670.25	33256.67
670.39	32914.95
670.53	32786.22
670.67	33235.61
670.81	33212.20
670.95	32430.46
671.09	32872.82
671.23	32737.07
671.37	32297.05
671.51	32180.03
671.65	32423.44
671.79	32236.20
671.93	32484.30
672.07	32130.87
672.21	32149.60
672.35	32240.88
672.49	32154.28
672.63	32093.43
672.77	31889.80
672.91	31887.46
673.05	31945.97
673.19	31833.63
673.33	31742.35
673.47	31187.64
673.61	31782.13
673.75	31096.36
673.89	31101.04
674.03	31307.01
674.17	31234.45
674.31	31335.09
674.45	31239.13
674.59	31384.24
674.73	31012.10
674.87	31201.68
675.01	30700.81
675.15	30796.77
675.29	30553.35
675.43	30675.06
675.56	30881.03
675.70	30632.93
675.84	30197.59
675.98	29919.07
676.12	29851.19
676.26	30403.56
676.40	30377.81
676.54	30419.94
676.68	30157.80
676.82	29577.35
676.96	29813.74
677.10	29851.19
677.23	29577.35
677.37	29483.73
677.51	29600.76
677.65	29593.73
677.79	28917.32
677.93	29240.31
678.07	28723.05
678.21	28507.72
678.34	28884.55
678.48	28732.42
678.62	28879.87
678.76	28500.70
678.90	28379.00
679.04	28287.71
679.18	28552.20
679.31	27988.13
679.45	28311.12
679.59	28109.83
679.73	27793.86
679.87	27922.59
680.00	28156.64
680.14	27623.00
680.28	27707.26
680.42	27620.66
680.56	27346.82
680.70	27569.17
680.83	27496.61
680.97	27274.26
681.11	27274.26
681.25	27007.44
681.39	27346.82
681.52	26719.56
681.66	26747.64
681.80	27274.26
681.94	26693.81
682.07	26738.28
682.21	26583.80
682.35	26567.42
682.49	26335.71
682.62	26204.64
682.76	26216.34
682.90	25907.39
683.04	26178.89
683.17	26256.13
683.31	25769.30
683.45	25788.02
683.59	25614.82
683.72	25717.81
683.86	25727.17
684.00	25474.39
684.13	25546.95
684.27	25191.19
684.41	25013.31
684.55	25291.83
684.68	24713.72
684.82	24982.88
684.96	24875.21
685.09	24713.72
685.23	24456.26
685.37	24657.54
685.50	24680.95
685.64	24786.27
685.78	24453.92
685.91	24257.31
686.05	24238.59
686.19	23630.05
686.32	23751.76
686.46	23459.19
686.60	23058.96
686.73	23229.82
686.87	23227.48
687.01	23122.15
687.14	22782.77
687.28	23087.04
687.42	23269.61
687.55	22913.84
687.69	23262.58
687.82	22888.10
687.96	23220.45
688.10	22541.70
688.23	22279.56
688.37	22492.55
688.50	22852.99
688.64	22621.28
688.78	22398.93
688.91	21759.96
689.05	22230.41
689.18	22204.66
689.32	22104.02
689.46	21811.45
689.59	22352.12
689.73	22171.89
689.86	21839.54
690.00	21359.73
690.13	21809.11
690.27	21425.26
690.41	21282.49
690.54	21186.53
690.68	20709.06
690.81	21165.46
690.95	21228.66
691.08	20966.52
691.22	20994.61
691.35	20940.77
691.49	21308.24
691.62	20865.88
691.76	20814.38
691.89	20575.65
692.03	20781.62
692.16	20329.89
692.30	20374.36
692.43	20166.06
692.57	19917.96
692.70	19948.39
692.84	19910.94
692.97	20142.65
693.11	19726.04
693.24	19765.82
693.38	19309.42
693.51	19550.49
693.65	19672.20
693.78	19501.34
693.92	19534.11
694.05	19255.59
694.19	19370.27
694.32	19190.05
694.45	19187.71
694.59	19131.54
694.72	18986.43
694.86	18853.02
694.99	18609.60
695.13	18953.66
695.26	18738.33
695.39	18527.68
695.53	18614.28
695.66	18974.72
695.80	18487.89
695.93	18600.24
696.07	18417.68
696.20	18487.89
696.33	18143.83
696.47	17958.93
696.60	17752.96
696.73	17795.09
696.87	17947.23
697.00	17872.33
697.14	17544.66
697.27	17186.55
697.40	17298.90
697.54	17324.65
697.67	17256.77
697.80	17088.25
697.94	16901.01
698.07	16725.47
698.21	16982.93
698.34	17029.74
698.47	16922.07
698.61	16940.80
698.74	16753.55
698.87	16702.06
699.01	16629.51
699.14	16472.69
699.27	16163.74
699.40	16507.80
699.54	16130.97
699.67	16105.23
699.80	16159.06
699.94	16079.48
700.07	16004.58
700.20	15756.49
700.34	15964.79
700.47	15871.17
700.60	16046.71
700.73	15922.66
700.87	15744.78
701.00	15805.64
701.13	15290.72
701.26	15449.88
701.40	15279.02
701.53	15147.95
701.66	15269.66
701.79	15288.38
701.93	14988.79
702.06	14902.19
702.19	14839.00
702.32	14949.00
702.46	14658.78
702.59	14993.47
702.72	14628.35
702.85	14551.11
702.99	14567.49
703.12	14714.95
703.25	14616.65
703.38	14586.22
703.51	14377.91
703.65	14139.18
703.78	13987.04
703.91	13760.01
704.04	14197.69
704.17	14160.24
704.31	13933.21
704.44	13855.97
704.57	13738.94
704.70	13654.69
704.83	13561.06
704.96	13699.16
705.10	13497.87
705.23	13785.76
>>>>>End Processed Spectral Data<<<<<
