SpectraSuite Data File
++++++++++++++++++++++++++++++++++++
Date: Fri Oct 25 10:44:44 EDT 2013
User: price-jones
Dark Spectrum Present: No
Reference Spectrum Present: No
Number of Sampled Component Spectra: 1
Spectrometers: USB2+H05261
Integration Time (usec): 100000 (USB2+H05261)
Spectra Averaged: 1 (USB2+H05261)
Boxcar Smoothing: 0 (USB2+H05261)
Correct for Electrical Dark: No (USB2+H05261)
Strobe/Lamp Enabled: No (USB2+H05261)
Correct for Detector Non-linearity: No (USB2+H05261)
Correct for Stray Light: No (USB2+H05261)
Number of Pixels in Processed Spectrum: 2048
>>>>>Begin Processed Spectral Data<<<<<
365.73	156.82
365.92	156.82
366.12	156.82
366.32	11.70
366.52	30.43
366.72	93.62
366.91	0.00
367.11	16.38
367.31	0.00
367.51	18.72
367.70	51.49
367.90	0.00
368.10	72.56
368.30	100.64
368.49	14.04
368.69	35.11
368.89	0.00
369.09	23.41
369.28	58.51
369.48	74.90
369.68	65.54
369.87	152.13
370.07	70.22
370.27	140.43
370.47	168.52
370.66	362.78
370.86	365.12
371.06	444.70
371.25	458.74
371.45	477.47
371.65	425.98
371.84	451.72
372.04	479.81
372.24	573.43
372.44	423.64
372.63	596.84
372.83	484.49
373.03	498.53
373.22	486.83
373.42	521.94
373.62	503.22
373.81	484.49
374.01	561.73
374.21	528.96
374.40	484.49
374.60	496.19
374.79	554.71
374.99	585.13
375.19	533.64
375.38	433.00
375.58	526.62
375.78	601.52
375.97	587.47
376.17	638.97
376.37	582.79
376.56	557.05
376.76	550.03
376.95	559.39
377.15	507.90
377.35	578.11
377.54	550.03
377.74	608.54
377.93	622.58
378.13	589.82
378.33	643.65
378.52	641.31
378.72	573.43
378.91	596.84
379.11	568.75
379.31	664.71
379.50	636.63
379.70	711.52
379.89	505.56
380.09	671.73
380.28	601.52
380.48	655.35
380.68	641.31
380.87	554.71
381.07	662.37
381.26	732.59
381.46	648.33
381.65	634.29
381.85	758.33
382.04	718.54
382.24	695.14
382.43	770.04
382.63	734.93
382.83	734.93
383.02	725.57
383.22	655.35
383.41	662.37
383.61	683.44
383.80	744.29
384.00	650.67
384.19	727.91
384.39	765.36
384.58	772.38
384.78	854.30
384.97	767.70
385.17	676.41
385.36	730.25
385.56	760.67
385.75	704.50
385.95	725.57
386.14	823.87
386.34	807.48
386.53	777.06
386.72	758.33
386.92	798.12
387.11	863.66
387.31	931.53
387.50	763.01
387.70	901.11
387.89	748.97
388.09	765.36
388.28	912.81
388.48	844.93
388.67	828.55
388.86	873.02
389.06	873.02
389.25	954.94
389.45	910.47
389.64	861.32
389.84	910.47
390.03	894.08
390.22	854.30
390.42	947.92
390.61	924.51
390.81	903.45
391.00	940.90
391.19	990.05
391.39	950.26
391.58	968.98
391.78	912.81
391.97	1027.50
392.16	903.45
392.36	1020.47
392.55	1025.15
392.75	926.85
392.94	964.30
393.13	954.94
393.33	947.92
393.52	1020.47
393.71	1008.77
393.91	1090.69
394.10	964.30
394.29	973.66
394.49	1020.47
394.68	1144.52
394.88	1006.43
395.07	1163.25
395.26	1111.75
395.46	1128.14
395.65	1186.65
395.84	1163.25
396.04	1273.25
396.23	1107.07
396.42	1111.75
396.62	1214.74
396.81	1158.57
397.00	1205.38
397.19	1128.14
397.39	1219.42
397.58	1263.89
397.77	1184.31
397.97	1240.48
398.16	1287.29
398.35	1275.59
398.55	1240.48
398.74	1371.55
398.93	1345.81
399.12	1364.53
399.32	1324.74
399.51	1385.60
399.70	1364.53
399.90	1455.81
400.09	1437.09
400.28	1430.07
400.47	1362.19
400.67	1486.24
400.86	1502.62
401.05	1493.26
401.24	1488.58
401.44	1500.28
401.63	1514.33
401.82	1621.99
402.01	1556.46
402.21	1526.03
402.40	1678.16
402.59	1542.41
402.78	1645.40
402.97	1537.73
403.17	1640.72
403.36	1600.93
403.55	1680.50
403.74	1600.93
403.93	1643.06
404.13	1699.23
404.32	1659.44
404.51	1664.12
404.70	1673.48
404.89	1717.95
405.09	1867.75
405.28	1795.19
405.47	1739.02
405.66	1818.60
405.85	1820.94
406.05	1804.55
406.24	1785.83
406.43	1717.95
406.62	1891.15
406.81	1804.55
407.00	1888.81
407.20	1792.85
407.39	1912.22
407.58	1984.77
407.77	1921.58
407.96	1919.24
408.15	2003.50
408.34	1961.37
408.54	2019.88
408.73	1989.46
408.92	2052.65
409.11	2073.71
409.30	2073.71
409.49	2066.69
409.68	2120.53
409.87	1996.48
410.07	2064.35
410.26	2214.15
410.45	2127.55
410.64	2148.61
410.83	2312.45
411.02	2270.32
411.21	2347.56
411.40	2293.72
411.59	2319.47
411.78	2216.49
411.98	2380.32
412.17	2286.70
412.36	2260.96
412.55	2310.11
412.74	2513.74
412.93	2565.23
413.12	2443.52
413.31	2567.57
413.50	2527.78
413.69	2600.34
413.88	2651.83
414.07	2539.48
414.26	2616.72
414.45	2668.21
414.64	2726.72
414.83	2771.19
415.02	2719.70
415.22	2717.36
415.41	2850.77
415.60	2796.94
415.79	2780.56
415.98	2909.29
416.17	3077.80
416.36	2897.58
416.55	3066.10
416.74	2794.60
416.93	2876.52
417.12	2890.56
417.31	3021.63
417.50	2993.55
417.69	3126.96
417.88	3204.19
418.07	2967.80
418.26	3047.38
418.45	3091.85
418.64	3274.41
418.83	3255.69
419.02	3091.85
419.21	3236.96
419.39	3325.90
419.58	3232.28
419.77	3234.62
419.96	3260.37
420.15	3424.20
420.34	3307.18
420.53	3358.67
420.72	3449.95
420.91	3293.13
421.10	3414.84
421.29	3513.14
421.48	3412.50
421.67	3527.19
421.86	3435.91
422.05	3473.36
422.24	3478.04
422.43	3592.72
422.61	3527.19
422.80	3534.21
422.99	3534.21
423.18	3655.92
423.37	3653.58
423.56	3604.42
423.75	3681.66
423.94	3515.48
424.13	3267.39
424.32	3405.48
424.50	3698.05
424.69	3698.05
424.88	3602.08
425.07	3651.24
425.26	3499.10
425.45	3527.19
425.64	3543.57
425.83	3681.66
426.01	3758.90
426.20	3639.53
426.39	3604.42
426.58	3566.98
426.77	3581.02
426.96	3522.51
427.15	3669.96
427.33	3735.50
427.52	3758.90
427.71	3836.14
427.90	3721.45
428.09	3822.09
428.28	3742.52
428.46	3955.51
428.65	3826.78
428.84	3859.54
429.03	3946.14
429.22	3857.20
429.40	3929.76
429.59	3878.27
429.78	3705.07
429.97	3709.75
430.16	3808.05
430.34	3756.56
430.53	4016.36
430.72	3899.33
430.91	3850.18
431.10	4030.40
431.28	4180.20
431.47	4180.20
431.66	4196.58
431.85	4095.94
432.03	4163.81
432.22	4238.71
432.41	4304.25
432.60	4241.05
432.79	4379.14
432.97	4365.10
433.16	4432.97
433.35	4121.68
433.54	4292.54
433.72	4348.72
433.91	4252.75
434.10	4376.80
434.28	4351.06
434.47	4409.57
434.66	4489.15
434.85	4540.64
435.03	4547.66
435.22	4503.19
435.41	4587.45
435.59	4617.88
435.78	4531.28
435.97	4643.62
436.16	4622.56
436.34	4657.67
436.53	4641.28
436.72	4856.61
436.90	4671.71
437.09	4758.31
437.28	4613.20
437.46	4819.16
437.65	4802.78
437.84	4777.03
438.02	4929.17
438.21	4786.40
438.40	4723.20
438.58	4882.36
438.77	4938.53
438.96	4875.34
439.14	5153.86
439.33	5130.45
439.52	5043.85
439.70	5259.18
439.89	5305.99
440.08	5268.55
440.26	5357.49
440.45	5287.27
440.63	5322.38
440.82	5385.57
441.01	5462.81
441.19	5343.44
441.38	5565.79
441.57	5624.31
441.75	5408.98
441.94	5781.12
442.12	5605.58
442.31	5652.39
442.50	5673.46
442.68	5647.71
442.87	5760.06
443.05	5708.57
443.24	5865.38
443.43	5856.02
443.61	5951.98
443.80	5881.77
443.98	5680.48
444.17	5621.97
444.35	6029.22
444.54	6143.91
444.73	5865.38
444.91	5846.66
445.10	5968.37
445.28	5919.21
445.47	5895.81
445.65	5844.32
445.84	5996.45
446.02	5951.98
446.21	5970.71
446.39	5905.17
446.58	6005.81
446.77	6050.28
446.95	5851.34
447.14	6071.35
447.32	6019.86
447.51	6045.60
447.69	5977.73
447.88	6148.59
448.06	6080.71
448.25	6073.69
448.43	6059.65
448.62	6207.10
448.80	6167.31
448.99	6279.66
449.17	6251.57
449.36	6314.77
449.54	6413.07
449.73	6429.45
449.91	6406.05
450.10	6523.07
450.28	6588.61
450.46	6408.39
450.65	6370.94
450.83	6485.62
451.02	6462.22
451.20	6635.42
451.39	6689.25
451.57	6380.30
451.76	6469.24
451.94	6518.39
452.13	6663.51
452.31	6750.10
452.49	6415.41
452.68	6586.27
452.86	6476.26
453.05	6586.27
453.23	6642.44
453.42	6677.55
453.60	6719.68
453.78	6778.19
453.97	6586.27
454.15	6693.93
454.34	6670.53
454.52	6836.70
454.70	6813.30
454.89	6825.00
455.07	6885.86
455.26	7096.50
455.44	7028.63
455.62	7091.82
455.81	7119.91
455.99	6995.86
456.17	7007.56
456.36	7098.84
456.54	7215.87
456.73	7258.00
456.91	7321.20
457.09	7304.81
457.28	7555.25
457.46	7302.47
457.64	7407.80
457.83	7197.15
458.01	7218.21
458.19	7365.67
458.38	7599.72
458.56	7515.46
458.74	7461.63
458.93	7482.69
459.11	7534.18
459.29	7573.97
459.48	7744.83
459.66	7660.57
459.84	7604.40
460.03	7943.78
460.21	7758.88
460.39	7728.45
460.57	7810.37
460.76	7620.78
460.94	7854.84
461.12	7997.61
461.31	7810.37
461.49	7791.64
461.67	7896.97
461.85	8243.37
462.04	8056.12
462.22	8360.39
462.40	8079.53
462.59	7992.93
462.77	8208.26
462.95	8109.96
463.13	8051.44
463.32	8217.62
463.50	8341.67
463.68	8198.90
463.86	8215.28
464.05	8362.73
464.23	8217.62
464.41	8262.09
464.59	8121.66
464.78	8451.67
464.96	8234.00
465.14	8355.71
465.32	8461.04
465.50	8456.36
465.69	8411.89
465.87	8351.03
466.05	8395.50
466.23	8290.18
466.41	8594.45
466.60	8617.85
466.78	8416.57
466.96	8540.61
467.14	8407.20
467.32	8667.00
467.51	8887.01
467.69	8395.50
467.87	8500.83
468.05	8671.68
468.23	8664.66
468.41	8608.49
468.60	8997.02
468.78	8517.21
468.96	8713.81
469.14	9004.04
469.32	8978.30
469.50	8723.18
469.69	8816.80
469.87	8975.95
470.05	9214.69
470.23	8950.21
470.41	9125.75
470.59	9200.65
470.77	9125.75
470.95	9195.96
471.14	9357.46
471.32	9121.07
471.50	9408.95
471.68	9355.12
471.86	9296.61
472.04	9565.77
472.22	9631.30
472.40	9256.82
472.58	9434.70
472.77	9575.13
472.95	9703.86
473.13	9994.09
473.31	9584.49
473.49	9533.00
473.67	9729.61
473.85	9914.51
474.03	9881.74
474.21	10232.82
474.39	10190.69
474.57	10073.67
474.75	10438.79
474.93	10251.55
475.12	10235.16
475.30	10569.86
475.48	10406.02
475.66	10483.26
475.84	10253.89
476.02	10509.01
476.20	10597.95
476.38	10480.92
476.56	11047.33
476.74	10782.85
476.92	10895.19
477.10	10857.75
477.28	10998.18
477.46	11192.44
477.64	11007.54
477.82	11520.12
478.00	11531.82
478.18	11293.08
478.36	11639.48
478.54	11754.17
478.72	11627.78
478.90	11864.18
479.08	12065.46
479.26	12250.36
479.44	12121.63
479.62	12138.02
479.80	12182.49
479.98	12283.13
480.16	12695.07
480.34	12624.85
480.52	12699.75
480.70	12564.00
480.88	12636.55
481.06	12666.98
481.24	12861.24
481.41	13144.45
481.59	13153.81
481.77	13219.35
481.95	13160.83
482.13	13500.21
482.31	13312.97
482.49	13692.13
482.67	13586.81
482.85	13846.61
483.03	13837.25
483.21	14036.19
483.39	14038.53
483.57	14427.06
483.74	14279.61
483.92	14347.48
484.10	14263.22
484.28	14487.92
484.46	14876.44
484.64	14885.81
484.82	14618.99
485.00	14909.21
485.18	15227.53
485.35	15534.14
485.53	15096.46
485.71	15096.46
485.89	15405.41
486.07	15557.54
486.25	15559.88
486.43	15676.91
486.61	15751.81
486.78	15981.18
486.96	16081.82
487.14	16538.23
487.32	16383.75
487.50	16592.06
487.68	16767.60
487.85	16964.20
488.03	16833.13
488.21	17238.05
488.39	17401.88
488.57	17453.37
488.75	17329.33
488.92	17727.22
489.10	17893.40
489.28	17675.73
489.46	18167.24
489.64	18331.08
489.81	18761.73
489.99	18420.02
490.17	18806.20
490.35	18911.53
490.53	18759.39
490.70	18843.65
490.88	19417.08
491.06	19218.14
491.24	19136.22
491.41	19211.12
491.59	19108.13
491.77	19290.70
491.95	19454.53
492.13	19749.44
492.30	19840.72
492.48	19880.51
492.66	20297.13
492.84	20217.55
493.01	20556.93
493.19	20079.46
493.37	20627.14
493.54	20879.92
493.72	20950.14
493.90	20896.30
494.08	21181.85
494.25	21392.50
494.43	21507.18
494.61	21809.11
494.79	21743.58
494.96	21888.69
495.14	21687.40
495.32	21792.73
495.49	22038.48
495.67	22111.04
495.85	22092.32
496.02	22272.54
496.20	22522.98
496.38	22724.26
496.55	22941.93
496.73	22927.89
496.91	22953.63
497.09	23302.37
497.26	23098.75
497.44	23501.32
497.62	23454.51
497.79	23222.80
497.97	23557.49
498.14	23583.24
498.32	24011.56
498.50	24159.01
498.67	24107.52
498.85	23875.80
499.03	24072.41
499.20	24402.43
499.38	24163.69
499.56	24650.52
499.73	24648.18
499.91	24657.54
500.08	24781.59
500.26	24800.32
500.44	24788.61
500.61	25013.31
500.79	24847.13
500.97	25064.80
501.14	25488.43
501.32	25429.92
501.49	25474.39
501.67	25860.58
501.84	25465.03
502.02	25876.96
502.20	25565.67
502.37	25860.58
502.55	25834.83
502.72	26251.45
502.90	25883.98
503.07	26068.89
503.25	26487.84
503.43	26134.42
503.60	26459.76
503.78	26387.20
503.95	26272.51
504.13	26705.51
504.30	26878.71
504.48	26581.46
504.65	27037.87
504.83	27190.00
505.01	27608.96
505.18	27054.25
505.36	27323.41
505.53	27796.20
505.71	27271.92
505.88	27688.54
506.06	27779.82
506.23	27410.01
506.41	27601.94
506.58	27950.68
506.76	27592.58
506.93	28025.57
507.11	27807.90
507.28	28058.34
507.46	27967.06
507.63	28268.99
507.81	28219.84
507.98	28212.82
508.16	28374.31
508.33	28704.33
508.50	28821.36
508.68	29120.95
508.85	28973.49
509.03	28666.88
509.20	29064.77
509.38	29270.74
509.55	29003.92
509.73	29610.12
509.90	29163.08
510.08	29570.33
510.25	29439.26
510.42	29369.04
510.60	29972.90
510.77	29986.94
510.95	30167.16
511.12	30188.23
511.30	29977.58
511.47	30295.89
511.64	30328.66
511.82	30649.32
511.99	30129.72
512.17	30403.56
512.34	30410.58
512.51	30457.39
512.69	30841.24
512.86	30843.58
513.04	30665.70
513.21	30522.93
513.38	31194.66
513.56	30759.32
513.73	30403.56
513.90	30960.61
514.08	31023.80
514.25	31346.79
514.43	31267.22
514.60	31744.69
514.77	31438.08
514.95	31625.32
515.12	31428.71
515.29	31697.88
515.47	31847.67
515.64	31852.35
515.81	31489.57
515.99	31835.97
516.16	31789.16
516.33	32212.79
516.51	32025.55
516.68	31632.34
516.85	31590.21
517.03	31384.24
517.20	31903.84
517.37	31938.95
517.54	32273.65
517.72	32444.51
517.89	31859.37
518.06	32531.11
518.24	32369.61
518.41	32369.61
518.58	32793.25
518.75	32400.04
518.93	32863.46
519.10	32999.21
519.27	33308.16
519.45	32833.04
519.62	32921.98
519.79	33237.95
519.96	33226.24
520.14	33118.58
520.31	33266.03
520.48	33167.73
520.65	33638.18
520.83	33684.99
521.00	34057.14
521.17	34246.72
521.34	33989.26
521.52	33956.49
521.69	34305.23
521.86	34466.73
522.03	34754.61
522.20	34492.47
522.38	34286.51
522.55	34522.90
522.72	34401.19
522.89	34433.96
523.07	34639.93
523.24	34558.01
523.41	34632.91
523.58	34501.84
523.75	35395.92
523.92	34944.20
524.10	35180.59
524.27	35030.80
524.44	35079.95
524.61	35241.45
524.78	34768.66
524.96	35456.78
525.13	35264.85
525.30	35356.13
525.47	35721.26
525.64	35583.16
525.81	35730.62
525.98	35290.60
526.16	35321.02
526.33	35140.80
526.50	35700.19
526.67	35131.44
526.84	35735.30
527.01	35627.63
527.18	35639.34
527.36	36180.00
527.53	36463.21
527.70	36673.85
527.87	36226.81
528.04	36601.30
528.21	36332.14
528.38	36229.15
528.55	36732.37
528.72	37174.73
528.89	36804.92
529.07	36378.95
529.24	36638.75
529.41	36641.09
529.58	36648.11
529.75	36655.13
529.92	36638.75
530.09	37195.79
530.26	36870.46
530.43	37125.58
530.60	36919.61
530.77	37237.92
530.94	37137.28
531.11	37006.21
531.28	36875.14
531.46	37446.23
531.63	37476.66
531.80	37338.57
531.97	37436.87
532.14	37233.24
532.31	37457.93
532.48	37799.65
532.65	37691.99
532.82	37663.90
532.99	37771.57
533.16	37535.17
533.33	37635.81
533.50	38223.29
533.67	37928.38
533.84	37324.52
534.01	38010.30
534.18	37907.32
534.35	38497.13
534.52	37935.40
534.69	38595.43
534.86	38462.02
535.03	38487.77
535.20	38487.77
535.37	38726.50
535.54	39051.84
535.71	38227.97
535.88	38455.00
536.05	38604.80
536.22	38576.71
536.38	38628.20
536.55	38433.94
536.72	38452.66
536.89	38274.78
537.06	38944.17
537.23	38665.65
537.40	38375.42
537.57	38719.48
537.74	39330.36
537.91	39768.04
538.08	39491.86
538.25	38745.23
538.42	38988.64
538.59	39353.77
538.75	38944.17
538.92	39035.45
539.09	39438.03
539.26	39042.48
539.43	39290.57
539.60	39484.84
539.77	39061.20
539.94	39201.63
540.11	39311.64
540.28	39859.32
540.44	39496.54
540.61	39629.95
540.78	39655.70
540.95	39477.82
541.12	39541.01
541.29	39452.07
541.46	39751.66
541.62	39906.13
541.79	40282.96
541.96	39651.02
542.13	40018.48
542.30	39976.35
542.47	40133.17
542.63	40187.00
542.80	40081.67
542.97	40542.76
543.14	40538.08
543.31	40245.51
543.48	40477.22
543.64	41542.17
543.81	40961.72
543.98	40968.74
544.15	40935.97
544.32	41008.53
544.48	40924.27
544.65	41097.47
544.82	41148.96
544.99	40734.68
545.16	41359.61
545.32	41095.13
545.49	41530.47
545.66	41261.30
545.83	41673.24
546.00	41464.93
546.16	41219.17
546.33	41130.23
546.50	41294.07
546.67	40917.25
546.83	40758.09
547.00	41235.56
547.17	41071.72
547.34	40809.58
547.50	41757.50
547.67	41926.02
547.84	41144.28
548.00	41600.68
548.17	41890.91
548.34	41528.13
548.51	41937.72
548.67	41914.31
548.84	42012.62
549.01	41251.94
549.18	41682.60
549.34	41937.72
549.51	42178.79
549.68	42323.91
549.84	42216.24
550.01	42323.91
550.18	42115.60
550.34	42106.24
550.51	42059.43
550.68	42078.15
550.84	41574.94
551.01	42192.84
551.18	41560.89
551.34	41993.89
551.51	42167.09
551.68	42237.31
551.84	42340.29
552.01	42417.53
552.18	42504.13
552.34	42169.43
552.51	42366.04
552.68	42410.51
552.84	42445.62
553.01	42351.99
553.18	43044.79
553.34	42274.76
553.51	42396.46
553.67	42307.52
553.84	42803.72
554.01	42941.81
554.17	42799.04
554.34	42667.97
554.51	43159.48
554.67	42777.97
554.84	43016.71
555.00	42960.53
555.17	42492.43
555.33	42838.83
555.50	42859.89
555.67	42885.64
555.83	42745.20
556.00	42960.53
556.16	43372.47
556.33	42845.85
556.50	42646.90
556.66	42883.30
556.83	42712.44
556.99	43316.29
557.16	43330.34
557.32	43026.07
557.49	43283.53
557.65	43182.88
557.82	42829.46
557.98	43281.19
558.15	42848.19
558.32	43611.20
558.48	43489.49
558.65	43552.69
558.81	43344.38
558.98	42602.43
559.14	43040.11
559.31	43330.34
559.47	43475.45
559.64	43611.20
559.80	43463.75
559.97	43768.02
560.13	43136.07
560.30	43512.90
560.46	43700.14
560.63	43758.66
560.79	43882.70
560.96	43812.49
561.12	44175.27
561.29	43489.49
561.45	44126.12
561.61	43779.72
561.78	43480.13
561.94	43629.93
562.11	43880.36
562.27	43524.60
562.44	43456.73
562.60	43983.35
562.77	43817.17
562.93	43695.46
563.10	43894.41
563.26	43587.80
563.42	43917.81
563.59	43650.99
563.75	43803.13
563.92	43796.10
564.08	43943.56
564.24	44205.70
564.41	44369.54
564.57	43901.43
564.74	43908.45
564.90	44472.52
565.07	43929.51
565.23	44184.63
565.39	43768.02
565.56	44095.69
565.72	43796.10
565.88	43964.62
566.05	44044.20
566.21	44121.44
566.38	43892.07
566.54	44322.72
566.70	44182.29
566.87	44273.57
567.03	43824.19
567.19	44538.05
567.36	44418.69
567.52	44149.53
567.68	44334.43
567.85	44329.75
568.01	44044.20
568.17	44037.18
568.34	44453.79
568.50	44266.55
568.66	43889.73
568.83	44147.18
568.99	43934.20
569.15	43721.21
569.32	44280.60
569.48	44135.48
569.64	44603.59
569.81	44428.05
569.97	44189.31
570.13	44126.12
570.30	43948.24
570.46	43817.17
570.62	44091.01
570.78	44158.89
570.95	44294.64
571.11	44755.72
571.27	44421.03
571.43	43878.02
571.60	44364.85
571.76	44376.56
571.92	44360.17
572.09	44453.79
572.25	44083.99
572.41	44023.14
572.57	44900.84
572.74	44608.27
572.90	44608.27
573.06	44837.64
573.22	44493.58
573.38	44280.60
573.55	44039.52
573.71	44549.76
573.87	44140.16
574.03	44002.07
574.20	44519.33
574.36	44467.84
574.52	44320.38
574.68	44797.85
574.84	44369.54
575.01	44378.90
575.17	44261.87
575.33	44023.14
575.49	44304.00
575.65	44498.26
575.82	44957.01
575.98	44158.89
576.14	44306.34
576.30	44690.19
576.46	44629.34
576.62	43983.35
576.79	44325.07
576.95	44137.82
577.11	44451.45
577.27	44514.65
577.43	44648.06
577.59	44842.32
577.75	44388.26
577.92	43618.22
578.08	44385.92
578.24	44140.16
578.40	44020.80
578.56	44481.88
578.72	44318.04
578.88	44905.52
579.04	44982.76
579.21	44156.55
579.37	44423.37
579.53	44095.69
579.69	44683.17
579.85	44411.67
580.01	44622.31
580.17	44463.16
580.33	44912.54
580.49	44315.70
580.65	44938.29
580.82	44615.29
580.98	44615.29
581.14	44343.79
581.30	44762.75
581.46	44472.52
581.62	44348.47
581.78	44502.95
581.94	44739.34
582.10	44704.23
582.26	44842.32
582.42	44439.75
582.58	44535.71
582.74	44102.71
582.90	44442.09
583.06	45057.65
583.22	44924.24
583.38	45055.31
583.54	44994.46
583.70	44863.39
583.86	44835.30
584.02	44648.06
584.18	44500.61
584.34	44734.66
584.50	44683.17
584.66	44556.78
584.82	44507.63
584.98	44718.28
585.14	44751.04
585.30	44421.03
585.46	44729.98
585.62	44741.68
585.78	44828.28
585.94	44371.88
586.10	44233.78
586.26	44720.62
586.42	44573.16
586.58	44797.85
586.74	44601.25
586.90	44467.84
587.06	44765.09
587.22	44907.86
587.38	44346.13
587.54	45041.27
587.70	44608.27
587.86	44765.09
588.02	44547.42
588.18	44722.96
588.34	44617.63
588.49	44135.48
588.65	44327.41
588.81	43959.94
588.97	44512.31
589.13	44257.19
589.29	44292.30
589.45	44704.23
589.61	44744.02
589.77	44727.64
589.93	44690.19
590.08	44832.96
590.24	44491.24
590.40	45209.79
590.56	45034.25
590.72	45207.45
590.88	44774.45
591.04	44802.53
591.20	45247.24
591.35	45074.04
591.51	45352.56
591.67	45090.42
591.83	44737.00
591.99	45109.14
592.15	45092.76
592.31	45137.23
592.46	44797.85
592.62	44514.65
592.78	45031.91
592.94	45123.19
593.10	44978.07
593.26	45078.72
593.41	44809.56
593.57	44959.35
593.73	44938.29
593.89	44673.81
594.05	45067.02
594.20	45319.79
594.36	44999.14
594.52	44760.40
594.68	44858.71
594.84	44643.38
594.99	44961.69
595.15	44891.48
595.31	45113.83
595.47	44715.93
595.62	45076.38
595.78	44652.74
595.94	45195.74
596.10	45055.31
596.25	45017.86
596.41	45036.59
596.57	44837.64
596.73	45329.16
596.88	44713.59
597.04	45425.12
597.20	45097.44
597.36	44914.88
597.51	45691.94
597.67	45184.04
597.83	44996.80
597.99	45155.96
598.14	45177.02
598.30	45027.23
598.46	45291.71
598.61	45186.38
598.77	44905.52
598.93	45116.17
599.09	44905.52
599.24	45666.19
599.40	45481.29
599.56	45427.46
599.71	45368.94
599.87	45467.25
600.03	45027.23
600.18	45048.29
600.34	44942.97
600.50	45258.94
600.65	45034.25
600.81	44849.35
600.97	45177.02
601.12	45200.43
601.28	45193.40
601.44	45352.56
601.59	45116.17
601.75	44800.19
601.91	44992.12
602.06	44868.07
602.22	45380.65
602.37	44886.79
602.53	45174.68
602.69	45581.93
602.84	44865.73
603.00	44877.43
603.16	44800.19
603.31	44891.48
603.47	44973.39
603.62	44931.26
603.78	44804.88
603.94	44884.45
604.09	45312.77
604.25	45303.41
604.40	45521.08
604.56	44683.17
604.71	44900.84
604.87	44428.05
605.03	44725.30
605.18	44636.36
605.34	44708.91
605.49	44488.90
605.65	44575.50
605.80	44884.45
605.96	45067.02
606.12	44854.03
606.27	45228.51
606.43	44814.24
606.58	45205.11
606.74	44584.86
606.89	44755.72
607.05	44746.36
607.20	44858.71
607.36	44971.05
607.51	44926.58
607.67	45202.77
607.82	44786.15
607.98	44947.65
608.13	44582.52
608.29	44631.68
608.44	44680.83
608.60	44287.62
608.75	44203.36
608.91	44488.90
609.06	44329.75
609.22	44954.67
609.37	44449.11
609.53	44491.24
609.68	44809.56
609.84	44634.02
609.99	44692.53
610.15	44465.50
610.30	44605.93
610.46	44432.73
610.61	45071.70
610.76	44835.30
610.92	44612.95
611.07	44320.38
611.23	44779.13
611.38	44538.05
611.54	44758.06
611.69	44296.98
611.84	44439.75
612.00	44355.49
612.15	44549.76
612.31	44456.14
612.46	44737.00
612.62	44711.25
612.77	44470.18
612.92	44481.88
613.08	43873.34
613.23	44350.81
613.39	44275.91
613.54	43786.74
613.69	44177.61
613.85	43913.13
614.00	44189.31
614.15	44325.07
614.31	43775.04
614.46	44643.38
614.62	44184.63
614.77	44304.00
614.92	43723.55
615.08	43859.30
615.23	44170.59
615.38	43629.93
615.54	43606.52
615.69	43793.76
615.84	43812.49
616.00	44046.54
616.15	43564.39
616.30	43988.03
616.46	43435.66
616.61	43878.02
616.76	43716.53
616.92	43681.42
617.07	43569.07
617.22	43461.41
617.37	43768.02
617.53	43772.70
617.68	43976.33
617.83	43863.98
617.99	43695.46
618.14	43669.72
618.29	43761.00
618.45	43339.70
618.60	43543.33
618.75	43646.31
618.90	43206.29
619.06	43714.19
619.21	43573.75
619.36	43658.01
619.51	43416.94
619.67	43466.09
619.82	43271.82
619.97	43643.97
620.12	43545.67
620.28	43084.58
620.43	43459.07
620.58	43454.39
620.73	42939.47
620.89	43030.75
621.04	43086.92
621.19	42876.27
621.34	43124.37
621.49	42766.27
621.65	43349.06
621.80	42965.21
621.95	42665.63
622.10	42810.74
622.25	42742.86
622.41	42658.60
622.56	42487.74
622.71	42911.38
622.86	42796.70
623.01	42684.35
623.16	42892.66
623.32	42525.19
623.47	42628.18
623.62	42667.97
623.77	42667.97
623.92	42731.16
624.07	42167.09
624.23	42256.03
624.38	42532.22
624.53	42590.73
624.68	42174.11
624.83	42473.70
624.98	42506.47
625.13	42260.71
625.29	42649.24
625.44	42230.29
625.59	42316.89
625.74	42045.38
625.89	41750.48
626.04	42003.25
626.19	41937.72
626.34	42412.85
626.49	41977.51
626.65	42115.60
626.80	41696.64
626.95	41818.35
627.10	41904.95
627.25	42321.57
627.40	41628.77
627.55	41467.27
627.70	41448.55
627.85	41546.85
628.00	41640.47
628.15	41752.82
628.30	41331.52
628.45	41968.15
628.60	41598.34
628.76	41900.27
628.91	41773.88
629.06	41588.98
629.21	41455.57
629.36	41478.97
629.51	41296.41
629.66	41392.37
629.81	41097.47
629.96	41748.14
630.11	41322.16
630.26	41612.38
630.41	41895.59
630.56	41539.83
630.71	41464.93
630.86	41560.89
631.01	40971.08
631.16	41668.56
631.31	41287.05
631.46	40636.38
631.61	41024.91
631.76	41275.35
631.91	41048.32
632.06	41296.41
632.21	41581.96
632.36	41460.25
632.51	41125.55
632.66	41055.34
632.81	40411.69
632.96	40898.52
633.10	40818.94
633.25	41242.58
633.40	41078.74
633.55	41193.43
633.70	40978.10
633.85	41031.93
634.00	40268.92
634.15	41055.34
634.30	40704.26
634.45	40460.84
634.60	40907.88
634.75	40863.41
634.90	40512.33
635.05	40414.03
635.19	39938.90
635.34	40858.73
635.49	40463.18
635.64	40559.14
635.79	40065.29
635.94	40479.57
636.09	40610.64
636.24	40615.32
636.39	39945.92
636.53	40191.68
636.68	40091.04
636.83	40713.62
636.98	40690.21
637.13	40006.78
637.28	40130.83
637.43	40245.51
637.57	40624.68
637.72	40439.78
637.87	39814.85
638.02	39992.73
638.17	40896.18
638.32	40191.68
638.46	39838.26
638.61	40030.18
638.76	39845.28
638.91	40322.75
639.06	40142.53
639.20	39875.71
639.35	40051.25
639.50	39871.03
639.65	40128.48
639.80	40137.85
639.94	39529.31
640.09	39716.55
640.24	39725.91
640.39	39037.80
640.54	39161.84
640.68	39798.47
640.83	39613.57
640.98	39784.43
641.13	39129.08
641.27	39583.14
641.42	39665.06
641.57	39386.54
641.72	39395.90
641.86	39459.09
642.01	39316.32
642.16	39171.21
642.31	39306.96
642.45	39526.97
642.60	38895.02
642.75	39295.25
642.90	39351.43
643.04	39150.14
643.19	39157.16
643.34	38951.20
643.48	38646.93
643.63	38890.34
643.78	38803.74
643.93	38782.68
644.07	39072.90
644.22	39002.69
644.37	38770.97
644.51	38937.15
644.66	39402.92
644.81	39196.95
644.95	39440.37
645.10	38775.66
645.25	38707.78
645.39	38747.57
645.54	38953.54
645.69	39196.95
645.83	38637.56
645.98	39250.78
646.13	38525.22
646.27	38792.04
646.42	38600.12
646.57	38588.41
646.71	39143.12
646.86	38813.10
647.00	38911.41
647.15	38782.68
647.30	38473.73
647.44	38134.35
647.59	38450.32
647.74	38169.46
647.88	38455.00
648.03	38352.02
648.17	38614.16
648.32	38396.49
648.47	38611.82
648.61	38007.96
648.76	38433.94
648.90	38066.47
649.05	38478.41
649.20	38176.48
649.34	38223.29
649.49	37825.40
649.63	38190.52
649.78	37926.04
649.92	38113.28
650.07	38476.07
650.21	38075.84
650.36	38022.00
650.51	37970.51
650.65	38417.55
650.80	38452.66
650.94	38190.52
651.09	37942.42
651.23	37834.76
651.38	37881.57
651.52	37825.40
651.67	37729.44
651.81	37919.02
651.96	37446.23
652.10	37383.04
652.25	37017.91
652.39	37886.25
652.54	38155.41
652.68	38167.12
652.83	37752.84
652.97	38211.59
653.12	37371.33
653.26	37261.33
653.41	37113.87
653.55	37591.34
653.70	37294.10
653.84	37432.19
653.99	37521.13
654.13	37474.32
654.27	37247.29
654.42	37163.03
654.56	36968.76
654.71	37193.45
654.85	37244.94
655.00	36872.80
655.14	37085.79
655.29	36638.75
655.43	36720.66
655.57	36715.98
655.72	37113.87
655.86	36723.01
656.01	37064.72
656.15	36765.14
656.30	36458.52
656.44	37029.62
656.58	36842.37
656.73	36783.86
656.87	37088.13
657.01	36659.81
657.16	36643.43
657.30	36921.95
657.45	36112.13
657.59	36921.95
657.73	36755.77
657.88	36982.80
658.02	36320.43
658.16	36636.41
658.31	36746.41
658.45	36994.51
658.60	36622.36
658.74	36299.37
658.88	36414.05
659.03	35981.06
659.17	36100.42
659.31	36292.35
659.46	36030.21
659.60	36151.91
659.74	35791.47
659.89	35789.13
660.03	36086.38
660.17	36247.88
660.32	35840.62
660.46	36245.54
660.60	35995.10
660.74	35887.43
660.89	35847.64
661.03	35924.88
661.17	35496.56
661.32	35009.73
661.46	35276.55
661.60	35321.02
661.74	35512.95
661.89	35447.41
662.03	35374.86
662.17	35248.47
662.31	34991.01
662.46	35412.31
662.60	35496.56
662.74	35168.89
662.88	35082.29
663.03	34998.03
663.17	34927.81
663.31	34899.73
663.45	34649.29
663.60	35103.35
663.74	34857.60
663.88	34808.45
664.02	34628.23
664.17	34899.73
664.31	34543.97
664.45	34976.97
664.59	34536.94
664.73	34618.86
664.88	34630.57
665.02	33993.94
665.16	34859.94
665.30	34611.84
665.44	34298.21
665.59	34349.70
665.73	34462.05
665.87	34010.32
666.01	34415.24
666.15	34113.31
666.29	34239.70
666.44	34256.08
666.58	33818.40
666.72	34092.24
666.86	34110.97
667.00	33921.38
667.14	33593.71
667.28	33366.68
667.43	33418.17
667.57	33607.75
667.71	33235.61
667.85	33441.57
667.99	33528.17
668.13	33172.41
668.27	33158.37
668.41	33563.28
668.56	32685.58
668.70	33163.05
668.84	33263.69
668.98	32903.25
669.12	32690.26
669.26	32407.06
669.40	32821.33
669.54	32582.60
669.68	32898.57
669.82	32423.44
669.96	32683.24
670.10	32706.65
670.25	32610.68
670.39	32257.26
670.53	31622.98
670.67	32383.65
670.81	32826.01
670.95	32119.17
671.09	31976.40
671.23	32634.09
671.37	32259.60
671.51	31751.71
671.65	31945.97
671.79	31702.56
671.93	31728.30
672.07	31978.74
672.21	31962.36
672.35	32126.19
672.49	31714.26
672.63	31775.11
672.77	31197.00
672.91	31751.71
673.05	31311.69
673.19	31445.10
673.33	31344.45
673.47	31267.22
673.61	30857.62
673.75	31115.08
673.89	30656.34
674.03	30721.87
674.17	31159.55
674.31	30843.58
674.45	30546.33
674.59	30625.91
674.73	31232.11
674.87	30726.55
675.01	30433.99
675.15	30497.18
675.29	30820.17
675.43	30342.70
675.56	30019.71
675.70	30113.33
675.84	29968.22
675.98	29205.20
676.12	29858.21
676.26	30017.37
676.40	29979.92
676.54	29928.43
676.68	29717.78
676.82	29153.71
676.96	29565.65
677.10	29640.54
677.23	29413.51
677.37	29296.49
677.51	29261.38
677.65	28940.72
677.79	28383.68
677.93	28833.06
678.07	28371.97
678.21	28463.25
678.34	28332.18
678.48	28250.27
678.62	28006.85
678.76	27988.13
678.90	27971.74
679.04	27784.50
679.18	27866.42
679.31	27531.72
679.45	27791.52
679.59	27288.31
679.73	27508.32
679.87	27585.55
680.00	27421.72
680.14	27391.29
680.28	27241.50
680.42	27351.50
680.56	27730.67
680.70	27386.61
680.83	27112.77
680.97	27040.21
681.11	27250.86
681.25	26787.43
681.39	26668.06
681.52	26874.03
681.66	26799.13
681.80	26504.23
681.94	26370.82
682.07	26485.50
682.21	26052.50
682.35	26256.13
682.49	26363.79
682.62	26096.97
682.76	25731.85
682.90	26061.87
683.04	25275.45
683.17	25474.39
683.31	25371.41
683.45	25624.18
683.59	25230.98
683.72	25097.56
683.86	25200.55
684.00	25383.11
684.13	25420.56
684.27	24922.02
684.41	24940.75
684.55	24645.84
684.68	24503.07
684.82	24748.82
684.96	24493.71
685.09	24687.97
685.23	24203.48
685.37	24142.63
685.50	24297.10
685.64	23775.16
685.78	23716.65
685.91	23864.10
686.05	23885.17
686.19	23644.09
686.32	23831.33
686.46	23440.47
686.60	23047.26
686.73	23405.36
686.87	23290.67
687.01	23080.02
687.14	22766.39
687.28	23070.66
687.42	22911.50
687.55	22801.50
687.69	22827.24
687.82	23023.85
687.96	22967.68
688.10	22735.96
688.23	22738.30
688.37	22527.66
688.50	22164.87
688.64	22469.14
688.78	21979.97
688.91	22375.52
689.05	22050.19
689.18	22623.62
689.32	21839.54
689.46	21645.27
689.59	21509.52
689.73	22202.32
689.86	21710.81
690.00	21692.08
690.13	21717.83
690.27	21338.66
690.41	21053.12
690.54	20994.61
690.68	20615.44
690.81	20645.87
690.95	20917.37
691.08	20774.60
691.22	20786.30
691.35	20652.89
691.49	20751.19
691.62	20922.05
691.76	20758.21
691.89	20006.90
692.03	20187.12
692.16	20133.29
692.30	20292.44
692.43	20119.24
692.57	19737.74
692.70	19672.20
692.84	19709.65
692.97	19922.64
693.11	19583.26
693.24	19571.56
693.38	19559.86
693.51	19421.77
693.65	19496.66
693.78	19644.12
693.92	19367.93
694.05	19075.37
694.19	19054.30
694.32	19044.94
694.45	19103.45
694.59	18551.09
694.72	18731.31
694.86	18717.26
694.99	18628.32
695.13	18555.77
695.26	18532.36
695.39	18331.08
695.53	18321.71
695.66	18279.58
695.80	18221.07
695.93	18242.14
696.07	17923.82
696.20	17879.35
696.33	18104.04
696.47	17788.07
696.60	17694.45
696.73	17469.76
696.87	17490.82
697.00	17472.10
697.14	17633.60
697.27	17371.46
697.40	17479.12
697.54	17181.87
697.67	16968.88
697.80	17137.40
697.94	16994.63
698.07	16599.08
698.21	16844.84
698.34	16585.04
698.47	16540.57
698.61	16507.80
698.74	16566.31
698.87	16245.66
699.01	16271.40
699.14	15864.15
699.27	15983.52
699.40	16222.25
699.54	15819.68
699.67	15939.05
699.80	16051.39
699.94	15981.18
700.07	16011.60
700.20	15833.72
700.34	15875.85
700.47	15616.05
700.60	15775.21
700.73	16020.97
700.87	15424.13
701.00	15463.92
701.13	15321.15
701.26	15154.97
701.40	15297.74
701.53	14960.70
701.66	15264.97
701.79	15150.29
701.93	15014.54
702.06	14857.72
702.19	14377.91
702.32	14771.12
702.46	14630.69
702.59	14778.14
702.72	14808.57
702.85	14516.00
702.99	14331.10
703.12	14476.21
703.25	14162.58
703.38	14150.88
703.51	14136.84
703.65	14305.35
703.78	14258.54
703.91	14036.19
704.04	13841.93
704.17	14129.81
704.31	14015.13
704.44	13617.24
704.57	13783.41
704.70	13657.03
704.83	13596.17
704.96	13696.82
705.10	13673.41
705.23	13563.40
>>>>>End Processed Spectral Data<<<<<
