SpectraSuite Data File
++++++++++++++++++++++++++++++++++++
Date: Fri Oct 25 10:47:44 EDT 2013
User: price-jones
Dark Spectrum Present: No
Reference Spectrum Present: No
Number of Sampled Component Spectra: 1
Spectrometers: USB2+H05261
Integration Time (usec): 100000 (USB2+H05261)
Spectra Averaged: 1 (USB2+H05261)
Boxcar Smoothing: 0 (USB2+H05261)
Correct for Electrical Dark: No (USB2+H05261)
Strobe/Lamp Enabled: No (USB2+H05261)
Correct for Detector Non-linearity: No (USB2+H05261)
Correct for Stray Light: No (USB2+H05261)
Number of Pixels in Processed Spectrum: 2048
>>>>>Begin Processed Spectral Data<<<<<
365.73	93.62
365.92	93.62
366.12	93.62
366.32	42.13
366.52	0.00
366.72	60.85
366.91	11.70
367.11	21.06
367.31	44.47
367.51	7.02
367.70	46.81
367.90	67.88
368.10	25.75
368.30	84.26
368.49	119.37
368.69	21.06
368.89	11.70
369.09	0.00
369.28	91.28
369.48	74.90
369.68	46.81
369.87	58.51
370.07	81.92
370.27	161.50
370.47	227.03
370.66	414.27
370.86	461.09
371.06	449.38
371.25	414.27
371.45	433.00
371.65	533.64
371.84	428.32
372.04	379.17
372.24	514.92
372.44	526.62
372.63	477.47
372.83	477.47
373.03	526.62
373.22	458.74
373.42	557.05
373.62	603.86
373.81	535.98
374.01	526.62
374.21	552.37
374.40	554.71
374.60	545.34
374.79	449.38
374.99	561.73
375.19	575.77
375.38	575.77
375.58	531.30
375.78	543.00
375.97	561.73
376.17	631.94
376.37	493.85
376.56	580.45
376.76	587.47
376.95	657.69
377.15	610.88
377.35	601.52
377.54	559.39
377.74	638.97
377.93	524.28
378.13	578.11
378.33	624.92
378.52	603.86
378.72	681.10
378.91	608.54
379.11	669.39
379.31	636.63
379.50	493.85
379.70	634.29
379.89	650.67
380.09	655.35
380.28	660.03
380.48	657.69
380.68	645.99
380.87	620.24
381.07	664.71
381.26	723.23
381.46	711.52
381.65	702.16
381.85	559.39
382.04	699.82
382.24	716.20
382.43	648.33
382.63	737.27
382.83	697.48
383.02	702.16
383.22	732.59
383.41	709.18
383.61	725.57
383.80	748.97
384.00	688.12
384.19	702.16
384.39	713.86
384.58	751.31
384.78	798.12
384.97	770.04
385.17	732.59
385.36	767.70
385.56	737.27
385.75	723.23
385.95	777.06
386.14	823.87
386.34	788.76
386.53	795.78
386.72	807.48
386.92	805.14
387.11	802.80
387.31	765.36
387.50	866.00
387.70	765.36
387.89	891.74
388.09	835.57
388.28	866.00
388.48	821.53
388.67	973.66
388.86	835.57
389.06	819.19
389.25	891.74
389.45	840.25
389.64	858.98
389.84	903.45
390.03	894.08
390.22	919.83
390.42	847.27
390.61	929.19
390.81	931.53
391.00	994.73
391.19	971.32
391.39	997.07
391.58	866.00
391.78	926.85
391.97	999.41
392.16	983.02
392.36	1001.75
392.55	980.68
392.75	1060.26
392.94	1055.58
393.13	931.53
393.33	957.28
393.52	990.05
393.71	1032.18
393.91	966.64
394.10	968.98
394.29	966.64
394.49	1078.99
394.68	1076.65
394.88	1135.16
395.07	1118.78
395.26	1043.88
395.46	1116.44
395.65	1212.40
395.84	1090.69
396.04	1071.97
396.23	1128.14
396.42	1025.15
396.62	1167.93
396.81	1125.80
397.00	1146.86
397.19	1191.33
397.39	1200.69
397.58	1196.01
397.77	1207.72
397.97	1233.46
398.16	1296.66
398.35	1301.34
398.55	1352.83
398.74	1299.00
398.93	1455.81
399.12	1331.76
399.32	1331.76
399.51	1404.32
399.70	1348.15
399.90	1291.98
400.09	1343.47
400.28	1479.22
400.47	1437.09
400.67	1448.79
400.86	1423.05
401.05	1544.75
401.24	1458.15
401.44	1490.92
401.63	1547.09
401.82	1437.09
402.01	1441.77
402.21	1467.52
402.40	1568.16
402.59	1488.58
402.78	1600.93
402.97	1465.18
403.17	1514.33
403.36	1556.46
403.55	1556.46
403.74	1703.91
403.93	1657.10
404.13	1722.63
404.32	1619.65
404.51	1584.54
404.70	1682.85
404.89	1671.14
405.09	1699.23
405.28	1610.29
405.47	1736.68
405.66	1715.61
405.85	1692.21
406.05	1778.81
406.24	1804.55
406.43	1703.91
406.62	1849.02
406.81	1863.07
407.00	1722.63
407.20	1818.60
407.39	1856.04
407.58	1963.71
407.77	1816.26
407.96	1928.60
408.15	1851.36
408.34	1881.79
408.54	1980.09
408.73	1837.32
408.92	2054.99
409.11	1994.14
409.30	1989.46
409.49	1905.20
409.68	2010.52
409.87	1961.37
410.07	2031.58
410.26	2040.95
410.45	2076.06
410.64	2057.33
410.83	2092.44
411.02	2200.10
411.21	2249.25
411.40	2242.23
411.59	2235.21
411.78	2221.17
411.98	2289.04
412.17	2307.77
412.36	2284.36
412.55	2408.41
412.74	2328.83
412.93	2462.24
413.12	2293.72
413.31	2539.48
413.50	2331.17
413.69	2380.32
413.88	2626.08
414.07	2504.37
414.26	2539.48
414.45	2588.63
414.64	2590.97
414.83	2637.78
415.02	2705.66
415.22	2867.16
415.41	2600.34
415.60	2733.75
415.79	2722.04
415.98	2904.60
416.17	2839.07
416.36	2780.56
416.55	2911.63
416.74	2963.12
416.93	2820.35
417.12	2939.71
417.31	2984.18
417.50	2981.84
417.69	2974.82
417.88	3040.36
418.07	3124.62
418.26	3021.63
418.45	3056.74
418.64	3129.30
418.83	3131.64
419.02	3115.25
419.21	3133.98
419.39	3159.72
419.58	3094.19
419.77	3164.40
419.96	3176.11
420.15	3328.24
420.34	3239.30
420.53	3272.07
420.72	3389.10
420.91	3339.94
421.10	3410.16
421.29	3449.95
421.48	3351.65
421.67	3426.54
421.86	3311.86
422.05	3379.73
422.24	3379.73
422.43	3454.63
422.61	3559.95
422.80	3566.98
422.99	3669.96
423.18	3571.66
423.37	3559.95
423.56	3494.42
423.75	3463.99
423.94	3405.48
424.13	3382.07
424.32	3236.96
424.50	3428.88
424.69	3566.98
424.88	3501.44
425.07	3438.25
425.26	3520.17
425.45	3494.42
425.64	3440.59
425.83	3435.91
426.01	3644.21
426.20	3529.53
426.39	3552.93
426.58	3550.59
426.77	3634.85
426.96	3623.15
427.15	3501.44
427.33	3630.17
427.52	3536.55
427.71	3779.97
427.90	3751.88
428.09	3822.09
428.28	3712.09
428.46	3707.41
428.65	3754.22
428.84	3894.65
429.03	4018.70
429.22	3808.05
429.40	3728.47
429.59	3726.13
429.78	3613.79
429.97	3623.15
430.16	3803.37
430.34	3833.80
430.53	3854.86
430.72	3927.42
430.91	3857.20
431.10	4009.34
431.28	3978.91
431.47	4135.73
431.66	4084.23
431.85	4070.19
432.03	4166.15
432.22	4187.22
432.41	4173.18
432.60	4039.76
432.79	4201.26
432.97	4205.94
433.16	4198.92
433.35	4227.01
433.54	4180.20
433.72	4322.97
433.91	4301.90
434.10	4355.74
434.28	4287.86
434.47	4418.93
434.66	4388.50
434.85	4381.48
435.03	4414.25
435.22	4428.29
435.41	4535.96
435.59	4479.79
435.78	4554.68
435.97	4505.53
436.16	4358.08
436.34	4599.15
436.53	4636.60
436.72	4575.75
436.90	4552.34
437.09	4662.35
437.28	4610.86
437.46	4748.95
437.65	4725.54
437.84	4716.18
438.02	4709.16
438.21	4683.41
438.40	4575.75
438.58	4828.53
438.77	4875.34
438.96	4842.57
439.14	4959.60
439.33	4971.30
439.52	5064.92
439.70	5165.56
439.89	5151.52
440.08	5090.67
440.26	5008.75
440.45	5146.84
440.63	5233.44
440.82	5345.78
441.01	5252.16
441.19	5259.18
441.38	5343.44
441.57	5425.36
441.75	5568.13
441.94	5570.48
442.12	5537.71
442.31	5748.36
442.50	5500.26
442.68	5596.22
442.87	5596.22
443.05	5710.91
443.24	5783.46
443.43	5685.16
443.61	5685.16
443.80	5973.05
443.98	5600.90
444.17	5551.75
444.35	5685.16
444.54	6019.86
444.73	5839.64
444.91	5757.72
445.10	5589.20
445.28	5746.02
445.47	5462.81
445.65	5738.99
445.84	5886.45
446.02	5907.51
446.21	5919.21
446.39	5816.23
446.58	5951.98
446.77	5905.17
446.95	5994.11
447.14	5849.00
447.32	6136.88
447.51	5919.21
447.69	5867.72
447.88	5823.25
448.06	6015.18
448.25	6019.86
448.43	6017.52
448.62	5865.38
448.80	5872.40
448.99	6148.59
449.17	6132.20
449.36	6038.58
449.54	6141.57
449.73	6136.88
449.91	6473.92
450.10	6277.32
450.28	6506.69
450.46	6408.39
450.65	6413.07
450.83	6235.19
451.02	6443.49
451.20	6359.24
451.39	6492.65
451.57	6399.02
451.76	6221.14
451.94	6420.09
452.13	6530.09
452.31	6555.84
452.49	6450.52
452.68	6434.13
452.86	6401.37
453.05	6567.54
453.23	6600.31
453.42	6567.54
453.60	6534.78
453.78	6551.16
453.97	6509.03
454.15	6476.26
454.34	6544.14
454.52	6675.21
454.70	6689.25
454.89	6801.60
455.07	6834.36
455.26	6923.30
455.44	6801.60
455.62	6918.62
455.81	6916.28
455.99	6930.33
456.17	6998.20
456.36	7026.29
456.54	7056.72
456.73	6930.33
456.91	7152.68
457.09	7133.95
457.28	7363.33
457.46	7241.62
457.64	7445.24
457.83	7243.96
458.01	7222.89
458.19	7445.24
458.38	7091.82
458.56	7250.98
458.74	7302.47
458.93	7349.28
459.11	7258.00
459.29	7588.02
459.48	7349.28
459.66	7442.90
459.84	7405.46
460.03	7475.67
460.21	7494.40
460.39	7590.36
460.57	7831.43
460.76	7854.84
460.94	7747.17
461.12	7637.17
461.31	7552.91
461.49	7747.17
461.67	7756.54
461.85	7866.54
462.04	7597.38
462.22	8243.37
462.40	8021.02
462.59	7908.67
462.77	8072.51
462.95	7976.55
463.13	7941.44
463.32	7911.01
463.50	8105.28
463.68	8035.06
463.86	7969.52
464.05	7882.92
464.23	8177.83
464.41	8159.11
464.59	8004.63
464.78	8369.76
464.96	8191.88
465.14	7934.42
465.32	8367.42
465.50	8262.09
465.69	8376.78
465.87	8348.69
466.05	8210.60
466.23	8063.15
466.41	8479.76
466.60	8535.93
466.78	8327.63
466.96	8325.29
467.14	8301.88
467.32	8470.40
467.51	8566.36
467.69	8266.77
467.87	8561.68
468.05	8758.28
468.23	8381.46
468.41	8641.26
468.60	8542.96
468.78	8512.53
468.96	8528.91
469.14	8610.83
469.32	8676.37
469.50	8589.77
469.69	8781.69
469.87	8575.72
470.05	8987.66
470.23	8858.93
470.41	8898.72
470.59	8821.48
470.77	8868.29
470.95	9015.74
471.14	9205.33
471.32	8992.34
471.50	9289.59
471.68	9212.35
471.86	9261.50
472.04	9320.01
472.22	9380.87
472.40	9254.48
472.58	9355.12
472.77	9359.80
472.95	9556.41
473.13	9717.90
473.31	9535.34
473.49	9586.83
473.67	9476.83
473.85	9771.74
474.03	9823.23
474.21	9893.44
474.39	9977.70
474.57	9792.80
474.75	10115.80
474.93	10097.07
475.12	9928.55
475.30	10169.63
475.48	10286.65
475.66	10225.80
475.84	10122.82
476.02	10363.89
476.20	10380.28
476.38	10530.07
476.56	10586.24
476.74	10537.09
476.92	10766.46
477.10	10703.27
477.28	10869.45
477.46	10871.79
477.64	11126.91
477.82	11117.54
478.00	11400.75
478.18	11269.68
478.36	11534.16
478.54	11487.35
478.72	11576.29
478.90	11740.13
479.08	11646.51
479.26	11868.86
479.44	11817.36
479.62	11939.07
479.80	12140.36
479.98	11955.46
480.16	12346.33
480.34	12280.79
480.52	12409.52
480.70	12554.63
480.88	12201.21
481.06	12514.84
481.24	12575.70
481.41	12837.84
481.59	12987.63
481.77	12875.29
481.95	13184.24
482.13	13165.51
482.31	13109.34
482.49	13184.24
482.67	13128.06
482.85	13689.79
483.03	13589.15
483.21	14068.96
483.39	13940.23
483.57	13921.51
483.74	14129.81
483.92	13888.74
484.10	14174.28
484.28	14181.31
484.46	14614.30
484.64	14813.25
484.82	14647.07
485.00	14848.36
485.18	15054.33
485.35	15108.16
485.53	14822.61
485.71	15143.27
485.89	15276.68
486.07	15176.03
486.25	15470.94
486.43	15552.86
486.61	15653.50
486.78	15810.32
486.96	15613.71
487.14	16170.76
487.32	16285.45
487.50	16255.02
487.68	16460.99
487.85	16706.74
488.03	16835.47
488.21	17102.29
488.39	16978.25
488.57	16994.63
488.75	17036.76
488.92	17397.20
489.10	17666.36
489.28	17537.63
489.46	17898.08
489.64	17734.24
489.81	18202.35
489.99	17949.57
490.17	18541.72
490.35	18497.25
490.53	18438.74
490.70	18836.63
490.88	18984.09
491.06	19164.31
491.24	18876.42
491.41	19206.44
491.59	19051.96
491.77	19152.60
491.95	19199.41
492.13	19730.72
492.30	19592.62
492.48	19688.59
492.66	19580.92
492.84	19857.10
493.01	19969.45
493.19	20273.72
493.37	20175.42
493.54	20507.77
493.72	20615.44
493.90	20294.79
494.08	21092.91
494.25	21397.18
494.43	21193.55
494.61	21357.39
494.79	21200.57
494.96	21043.76
495.14	21191.21
495.32	21855.92
495.49	21736.56
495.67	21645.27
495.85	22237.43
496.02	22211.68
496.20	22216.36
496.38	22321.69
496.55	22712.56
496.73	22761.71
496.91	22691.49
497.09	22867.03
497.26	22785.12
497.44	23218.11
497.62	23033.21
497.79	23454.51
497.97	23175.98
498.14	23424.08
498.32	23417.06
498.50	23571.54
498.67	24046.66
498.85	23901.55
499.03	23999.85
499.20	23981.13
499.38	24184.76
499.56	23983.47
499.73	24643.50
499.91	24542.86
500.08	24793.29
500.26	24126.24
500.44	24137.94
500.61	24732.44
500.79	24643.50
500.97	25006.28
501.14	25282.47
501.32	24882.24
501.49	25120.97
501.67	25050.75
501.84	25406.52
502.02	25429.92
502.20	25598.44
502.37	25652.27
502.55	25781.00
502.72	25516.52
502.90	25727.17
503.07	25785.68
503.25	25986.97
503.43	25811.43
503.60	25972.92
503.78	25933.14
503.95	26223.36
504.13	26429.33
504.30	26429.33
504.48	26370.82
504.65	26485.50
504.83	26492.52
505.01	26902.12
505.18	26661.04
505.36	27068.30
505.53	27063.61
505.71	27234.47
505.88	27271.92
506.06	27342.14
506.23	27285.97
506.41	27131.49
506.58	27433.42
506.76	27789.18
506.93	27700.24
507.11	27716.62
507.28	27845.35
507.46	28088.77
507.63	27777.48
507.81	27903.87
507.98	27913.23
508.16	28023.23
508.33	28283.03
508.50	28313.46
508.68	28594.32
508.85	28985.19
509.03	28287.71
509.20	28809.65
509.38	28610.71
509.55	28725.39
509.73	29036.69
509.90	29153.71
510.08	28725.39
510.25	29230.95
510.42	29039.03
510.60	29455.64
510.77	29729.48
510.95	29663.95
511.12	29336.27
511.30	29645.23
511.47	30110.99
511.64	29823.11
511.82	30497.18
511.99	29759.91
512.17	30082.91
512.34	30129.72
512.51	30314.62
512.69	30253.76
512.86	30607.19
513.04	30288.87
513.21	30682.08
513.38	30307.60
513.56	30565.06
513.73	30387.18
513.90	30813.15
514.08	30965.29
514.25	31253.17
514.43	30799.11
514.60	30998.06
514.77	31157.21
514.95	31285.94
515.12	31112.74
515.29	31215.72
515.47	31035.50
515.64	31433.39
515.81	31133.81
515.99	31730.64
516.16	31604.25
516.33	31339.77
516.51	31835.97
516.68	31519.99
516.85	31192.32
517.03	31725.96
517.20	31805.54
517.37	32245.56
517.54	32212.79
517.72	32194.07
517.89	31999.80
518.06	32444.51
518.24	32217.47
518.41	32264.28
518.58	31992.78
518.75	32369.61
518.93	32496.00
519.10	32645.79
519.27	32893.89
519.45	32833.04
519.62	32912.61
519.79	32783.88
519.96	33102.20
520.14	33551.58
520.31	33186.46
520.48	33354.97
520.65	33443.91
520.83	33488.38
521.00	33528.17
521.17	33556.26
521.34	33897.98
521.52	33579.67
521.69	33675.63
521.86	33942.45
522.03	33979.90
522.20	33902.66
522.38	34141.39
522.55	34071.18
522.72	34522.90
522.89	34178.84
523.07	34342.68
523.24	34136.71
523.41	34614.18
523.58	34380.13
523.75	34642.27
523.92	34843.56
524.10	35077.61
524.27	34787.38
524.44	34862.28
524.61	34714.83
524.78	35108.04
524.96	35175.91
525.13	35311.66
525.30	35253.15
525.47	35447.41
525.64	35529.33
525.81	35339.75
525.98	35042.50
526.16	35218.04
526.33	34986.33
526.50	35498.91
526.67	35229.74
526.84	35566.78
527.01	35601.89
527.18	35470.82
527.36	35714.23
527.53	35969.35
527.70	36161.28
527.87	35819.56
528.04	35962.33
528.21	35950.63
528.38	36030.21
528.55	36617.68
528.72	36280.64
528.89	36376.61
529.07	36149.57
529.24	36280.64
529.41	36524.06
529.58	36009.14
529.75	36416.40
529.92	36765.14
530.09	36392.99
530.26	36610.66
530.43	37027.28
530.60	36844.71
530.77	36811.95
530.94	37036.64
531.11	37418.14
531.28	37336.23
531.46	37076.43
531.63	37476.66
531.80	37373.67
531.97	37144.30
532.14	37085.79
532.31	37158.34
532.48	37046.00
532.65	37479.00
532.82	37464.96
532.99	37581.98
533.16	37160.69
533.33	37380.70
533.50	37979.87
533.67	37867.53
533.84	37677.94
534.01	37991.58
534.18	37659.22
534.35	38047.75
534.52	37427.51
534.69	37989.24
534.86	38031.36
535.03	38115.62
535.20	38045.41
535.37	38455.00
535.54	38632.88
535.71	38782.68
535.88	38277.12
536.05	38415.21
536.22	37979.87
536.38	38457.34
536.55	38234.99
536.72	38770.97
536.89	38398.83
537.06	38249.03
537.23	38621.18
537.40	38370.74
537.57	38768.63
537.74	38792.04
537.91	38843.53
538.08	39232.06
538.25	38167.12
538.42	38721.82
538.59	39161.84
538.75	38857.57
538.92	39210.99
539.09	39346.75
539.26	38944.17
539.43	39344.41
539.60	39199.29
539.77	39061.20
539.94	39026.09
540.11	39159.50
540.28	39789.11
540.44	39295.25
540.61	39344.41
540.78	39136.10
540.95	39620.59
541.12	39192.27
541.29	39503.56
541.46	39501.22
541.62	39414.62
541.79	39482.50
541.96	39737.62
542.13	39658.04
542.30	40055.93
542.47	39763.36
542.63	39786.77
542.80	39571.44
542.97	40233.81
543.14	40664.47
543.31	40669.15
543.48	40428.07
543.64	40561.48
543.81	40772.13
543.98	40385.94
544.15	40378.92
544.32	40692.55
544.48	41371.31
544.65	40179.98
544.82	40659.79
544.99	40641.06
545.16	40989.80
545.32	40488.93
545.49	40957.03
545.66	41137.26
545.83	41181.73
546.00	41195.77
546.16	41090.44
546.33	40762.77
546.50	40538.08
546.67	41045.97
546.83	40804.90
547.00	41127.89
547.17	41106.83
547.34	40940.65
547.50	41273.01
547.67	41743.45
547.84	41214.49
548.00	41881.55
548.17	41930.70
548.34	41116.19
548.51	41888.57
548.67	41706.01
548.84	41907.29
549.01	41277.69
549.18	41792.61
549.34	41879.21
549.51	42092.19
549.68	41991.55
549.84	41752.82
550.01	41731.75
550.18	41771.54
550.34	41748.14
550.51	41991.55
550.68	41661.54
550.84	41614.72
551.01	41813.67
551.18	41715.37
551.34	41670.90
551.51	41975.17
551.68	42492.43
551.84	41886.23
552.01	41532.81
552.18	42164.75
552.34	41893.25
552.51	42508.81
552.68	42377.74
552.84	42253.69
553.01	42707.76
553.18	42705.41
553.34	42202.20
553.51	42351.99
553.67	42185.82
553.84	42649.24
554.01	42490.09
554.17	43351.40
554.34	42777.97
554.51	42576.69
554.67	43122.03
554.84	42597.75
555.00	42824.78
555.17	42831.80
555.33	43026.07
555.50	42326.25
555.67	42677.33
555.83	42899.68
556.00	42806.06
556.16	43262.46
556.33	43196.93
556.50	42944.15
556.66	43091.60
556.83	42887.98
556.99	43023.73
557.16	43250.76
557.32	42997.98
557.49	43037.77
557.65	42930.11
557.82	42972.24
557.98	42986.28
558.15	42862.23
558.32	43398.21
558.48	42955.85
558.65	42953.51
558.81	42887.98
558.98	43461.41
559.14	43335.02
559.31	43363.11
559.47	43360.76
559.64	43496.52
559.80	43821.85
559.97	43501.20
560.13	43466.09
560.30	43496.52
560.46	43552.69
560.63	43290.55
560.79	43470.77
560.96	43634.61
561.12	43604.18
561.29	43821.85
561.45	43721.21
561.61	43318.64
561.78	43828.87
561.94	43271.82
562.11	43473.11
562.27	43761.00
562.44	43407.58
562.60	43842.92
562.77	44137.82
562.93	43430.98
563.10	43770.36
563.26	43365.45
563.42	43981.01
563.59	43880.36
563.75	43988.03
563.92	44039.52
564.08	43927.17
564.24	44006.75
564.41	44081.65
564.57	44313.36
564.74	43833.55
564.90	44039.52
565.07	44371.88
565.23	43779.72
565.39	43611.20
565.56	44367.20
565.72	43868.66
565.88	44025.48
566.05	43702.48
566.21	44151.87
566.38	44018.46
566.54	43812.49
566.70	43920.15
566.87	44210.38
567.03	44072.29
567.19	44109.74
567.36	44119.10
567.52	44481.88
567.68	44762.75
567.85	44378.90
568.01	44360.17
568.17	44067.61
568.34	44219.74
568.50	43976.33
568.66	44154.21
568.83	44318.04
568.99	43580.78
569.15	43810.15
569.32	44266.55
569.48	44147.18
569.64	44250.17
569.81	44472.52
569.97	44584.86
570.13	43955.26
570.30	44013.77
570.46	43943.56
570.62	44107.40
570.78	43847.60
570.95	44418.69
571.11	44411.67
571.27	43915.47
571.43	43966.96
571.60	44247.83
571.76	44051.22
571.92	44006.75
572.09	44495.92
572.25	44128.46
572.41	44179.95
572.57	44769.77
572.74	44802.53
572.90	44917.22
573.06	44278.25
573.22	44524.01
573.38	44128.46
573.55	44025.48
573.71	44299.32
573.87	44128.46
574.03	44371.88
574.20	43995.05
574.36	44137.82
574.52	44708.91
574.68	44589.55
574.84	44547.42
575.01	44460.82
575.17	44657.42
575.33	44432.73
575.49	44416.35
575.65	44725.30
575.82	45064.67
575.98	44273.57
576.14	44596.57
576.30	44425.71
576.46	44491.24
576.62	44130.80
576.79	44680.83
576.95	44411.67
577.11	44179.95
577.27	44250.17
577.43	44147.18
577.59	44278.25
577.75	44289.96
577.92	44385.92
578.08	44130.80
578.24	44240.81
578.40	44299.32
578.56	44538.05
578.72	44655.08
578.88	44594.23
579.04	44835.30
579.21	44332.09
579.37	43973.98
579.53	44435.07
579.69	44219.74
579.85	44252.51
580.01	44371.88
580.17	44374.22
580.33	44360.17
580.49	44474.86
580.65	44364.85
580.82	44783.81
580.98	44538.05
581.14	44552.10
581.30	44849.35
581.46	44580.18
581.62	44339.11
581.78	44786.15
581.94	45041.27
582.10	44491.24
582.26	44577.84
582.42	44465.50
582.58	44718.28
582.74	44687.85
582.90	44528.69
583.06	44399.96
583.22	44753.38
583.38	44818.92
583.54	44921.90
583.70	44538.05
583.86	44737.00
584.02	44598.91
584.18	44725.30
584.34	44552.10
584.50	44996.80
584.66	44385.92
584.82	44659.76
584.98	44849.35
585.14	44898.50
585.30	44315.70
585.46	43985.69
585.62	44512.31
585.78	44439.75
585.94	44205.70
586.10	44622.31
586.26	44692.53
586.42	44598.91
586.58	44435.07
586.74	44849.35
586.90	43824.19
587.06	44399.96
587.22	44945.31
587.38	44570.82
587.54	45050.63
587.70	44982.76
587.86	44699.55
588.02	44912.54
588.18	45109.14
588.34	44636.36
588.49	44715.93
588.65	44830.62
588.81	44603.59
588.97	44697.21
589.13	44528.69
589.29	44655.08
589.45	44821.26
589.61	45081.06
589.77	45127.87
589.93	45095.10
590.08	44755.72
590.24	45146.59
590.40	45385.33
590.56	45371.28
590.72	44664.44
590.88	44474.86
591.04	44772.11
591.20	45329.16
591.35	45256.60
591.51	45041.27
591.67	44751.04
591.83	44868.07
591.99	44816.58
592.15	44671.46
592.31	44854.03
592.46	44603.59
592.62	45055.31
592.78	44900.84
592.94	44896.16
593.10	44964.03
593.26	44797.85
593.41	44924.24
593.57	44683.17
593.73	44903.18
593.89	44957.01
594.05	45001.48
594.20	44980.42
594.36	45090.42
594.52	44882.11
594.68	45226.17
594.84	44879.77
594.99	45443.84
595.15	44556.78
595.31	45586.61
595.47	45570.23
595.62	44910.20
595.78	44980.42
595.94	45062.33
596.10	45258.94
596.25	45366.60
596.41	45799.60
596.57	45146.59
596.73	45280.00
596.88	44734.66
597.04	44898.50
597.20	44790.83
597.36	45010.84
597.51	45495.33
597.67	45287.03
597.83	45146.59
597.99	45202.77
598.14	45223.83
598.30	45275.32
598.46	45191.06
598.61	45148.93
598.77	44961.69
598.93	45481.29
599.09	44978.07
599.24	45528.10
599.40	44935.95
599.56	45214.47
599.71	45354.90
599.87	45603.00
600.03	45055.31
600.18	45352.56
600.34	45022.54
600.50	44994.46
600.65	44751.04
600.81	45319.79
600.97	45319.79
601.12	45261.28
601.28	45413.41
601.44	45132.55
601.59	44905.52
601.75	44844.66
601.91	44973.39
602.06	45237.87
602.22	45095.10
602.37	45216.81
602.53	45003.82
602.69	45354.90
602.84	45034.25
603.00	44718.28
603.16	45092.76
603.31	45013.18
603.47	45120.85
603.62	45492.99
603.78	44957.01
603.94	45397.03
604.09	45312.77
604.25	45174.68
604.40	45177.02
604.56	44949.99
604.71	45134.89
604.87	44917.22
605.03	45319.79
605.18	44692.53
605.34	44875.09
605.49	44886.79
605.65	45081.06
605.80	44835.30
605.96	45228.51
606.12	45502.35
606.27	45120.85
606.43	44851.69
606.58	44971.05
606.74	44811.90
606.89	45106.80
607.05	44744.02
607.20	45338.52
607.36	45071.70
607.51	45233.19
607.67	44957.01
607.82	45095.10
607.98	44615.29
608.13	44509.97
608.29	44624.65
608.44	44788.49
608.60	44156.55
608.75	44872.75
608.91	44641.04
609.06	44779.13
609.22	44917.22
609.37	44446.77
609.53	44715.93
609.68	44699.55
609.84	44992.12
609.99	44914.88
610.15	44559.12
610.30	44549.76
610.46	44128.46
610.61	44360.17
610.76	44498.26
610.92	44252.51
611.07	44486.56
611.23	44385.92
611.38	44463.16
611.54	44053.56
611.69	44336.77
611.84	44175.27
612.00	44498.26
612.15	44514.65
612.31	44404.64
612.46	44481.88
612.62	44479.54
612.77	44065.27
612.92	44706.57
613.08	44168.25
613.23	44194.00
613.39	43861.64
613.54	44074.63
613.69	44666.78
613.85	44081.65
614.00	44208.04
614.15	44573.16
614.31	44460.82
614.46	44664.44
614.62	44402.30
614.77	44289.96
614.92	44091.01
615.08	44142.50
615.23	44245.49
615.38	44357.83
615.54	43557.37
615.69	43672.06
615.84	43423.96
616.00	44098.03
616.15	43681.42
616.30	44355.49
616.46	43594.82
616.61	43620.56
616.76	43751.63
616.92	43470.77
617.07	43491.83
617.22	44016.11
617.37	43461.41
617.53	44282.94
617.68	44374.22
617.83	43789.08
617.99	43552.69
618.14	43660.35
618.29	43178.20
618.45	43276.51
618.60	43423.96
618.75	44285.28
618.90	43676.74
619.06	43704.82
619.21	43447.36
619.36	43264.80
619.51	43679.08
619.67	43452.05
619.82	43264.80
619.97	43674.40
620.12	43283.53
620.28	42880.95
620.43	43030.75
620.58	43222.67
620.73	43159.48
620.89	43370.13
621.04	43157.14
621.19	42564.98
621.34	43330.34
621.49	43159.48
621.65	43161.82
621.80	43449.70
621.95	42958.19
622.10	43100.97
622.25	43014.37
622.41	42852.87
622.56	42897.34
622.71	43342.04
622.86	43187.56
623.01	43409.92
623.16	43030.75
623.32	42696.05
623.47	43019.05
623.62	42876.27
623.77	43002.66
623.92	42909.04
624.07	42536.90
624.23	42906.70
624.38	42822.44
624.53	42302.84
624.68	42693.71
624.83	42845.85
624.98	42513.49
625.13	42576.69
625.29	42913.72
625.44	42504.13
625.59	42497.11
625.74	41930.70
625.89	42249.01
626.04	42089.85
626.19	41968.15
626.34	42499.45
626.49	42436.25
626.65	42433.91
626.80	42389.44
626.95	42347.31
627.10	42075.81
627.25	42316.89
627.40	41914.31
627.55	41780.90
627.70	41729.41
627.85	42316.89
628.00	42234.97
628.15	42258.37
628.30	41940.06
628.45	42326.25
628.60	41897.93
628.76	42230.29
628.91	42024.32
629.06	42064.11
629.21	41553.87
629.36	41904.95
629.51	41614.72
629.66	41691.96
629.81	41584.30
629.96	41493.02
630.11	41624.09
630.26	41668.56
630.41	41851.12
630.56	41514.08
630.71	41368.97
630.86	41525.78
631.01	41495.36
631.16	41701.32
631.31	41581.96
631.46	41221.52
631.61	41317.48
631.76	41729.41
631.91	41563.23
632.06	41645.15
632.21	41530.47
632.36	41457.91
632.51	41347.90
632.66	41673.24
632.81	40858.73
632.96	41284.71
633.10	41123.21
633.25	40851.71
633.40	41177.04
633.55	41207.47
633.70	40928.95
633.85	40926.61
634.00	40863.41
634.15	41060.02
634.30	40840.01
634.45	40926.61
634.60	40886.82
634.75	40903.20
634.90	40957.03
635.05	40954.69
635.19	40882.14
635.34	41081.08
635.49	41043.63
635.64	40781.49
635.79	40739.36
635.94	40449.14
636.09	40512.33
636.24	40399.99
636.39	40271.26
636.53	40514.67
636.68	40203.38
636.83	40699.58
636.98	40926.61
637.13	39913.16
637.28	40353.18
637.43	40620.00
637.57	40350.84
637.72	39810.17
637.87	40196.36
638.02	40437.44
638.17	40404.67
638.32	40184.66
638.46	39995.07
638.61	40182.32
638.76	40018.48
638.91	40591.91
639.06	39936.56
639.20	40343.81
639.35	40072.31
639.50	39882.73
639.65	40224.45
639.80	40556.80
639.94	40039.54
640.09	40177.64
640.24	39749.32
640.39	39587.82
640.54	39964.65
640.68	40037.20
640.83	39751.66
640.98	40023.16
641.13	39983.37
641.27	40236.15
641.42	39749.32
641.57	39950.60
641.72	39821.87
641.86	39505.90
642.01	39309.30
642.16	39445.05
642.31	39042.48
642.45	39304.62
642.60	39164.18
642.75	38890.34
642.90	39274.19
643.04	39309.30
643.19	39313.98
643.34	39182.91
643.48	39377.17
643.63	39395.90
643.78	39505.90
643.93	38998.01
644.07	38930.13
644.22	39447.39
644.37	39105.67
644.51	38703.10
644.66	39400.58
644.81	39026.09
644.95	39494.20
645.10	39384.19
645.25	39206.31
645.39	39564.42
645.54	39009.71
645.69	38630.54
645.83	38665.65
645.98	38948.85
646.13	38876.30
646.27	38808.42
646.42	38787.36
646.57	39054.18
646.71	39054.18
646.86	39164.18
647.00	38918.43
647.15	38934.81
647.30	39154.82
647.44	38986.30
647.59	38223.29
647.74	38759.27
647.88	38735.87
648.03	38878.64
648.17	38609.48
648.32	38478.41
648.47	38717.14
648.61	38188.18
648.76	38770.97
648.90	38742.89
649.05	38691.40
649.20	38480.75
649.34	38672.67
649.49	38473.73
649.63	38611.82
649.78	38153.07
649.92	38061.79
650.07	39040.14
650.21	38066.47
650.36	38103.92
650.51	38031.36
650.65	38457.34
650.80	38747.57
650.94	38579.05
651.09	38244.35
651.23	38501.81
651.38	37862.85
651.52	38476.07
651.67	38270.10
651.81	38225.63
651.96	37991.58
652.10	37970.51
652.25	37610.07
652.39	37900.29
652.54	37998.60
652.68	37724.75
652.83	37801.99
652.97	38059.45
653.12	37539.85
653.26	37860.51
653.41	37837.10
653.55	37586.66
653.70	37830.08
653.84	37771.57
653.99	37668.58
654.13	37647.52
654.27	38022.00
654.42	37364.31
654.56	37457.93
654.71	37570.28
654.85	37064.72
655.00	37078.77
655.14	36980.46
655.29	36833.01
655.43	37294.10
655.57	36989.83
655.72	36767.48
655.86	36861.10
656.01	36966.42
656.15	37090.47
656.30	36844.71
656.44	36975.78
656.58	37158.34
656.73	36786.20
656.87	36814.29
657.01	36751.09
657.16	36725.35
657.30	36769.82
657.45	36762.79
657.59	36793.22
657.73	36816.63
657.88	36943.02
658.02	36907.91
658.16	36458.52
658.31	37158.34
658.45	36437.46
658.60	36730.03
658.74	36898.55
658.88	36772.16
659.03	36477.25
659.17	36694.92
659.31	36304.05
659.46	36229.15
659.60	36404.69
659.74	36062.97
659.89	36135.53
660.03	36058.29
660.17	36154.26
660.32	36236.17
660.46	36428.10
660.60	36589.59
660.74	36114.47
660.89	36266.60
661.03	35709.55
661.17	35758.70
661.32	35704.87
661.46	35765.73
661.60	35508.27
661.74	35885.09
661.89	36041.91
662.03	35875.73
662.17	35468.48
662.31	35505.93
662.46	35629.98
662.60	35159.53
662.74	35388.90
662.88	35442.73
663.03	35204.00
663.17	35491.88
663.31	35194.64
663.45	35424.01
663.60	35019.10
663.74	34958.24
663.88	34813.13
664.02	34930.16
664.17	34899.73
664.31	34574.39
664.45	34651.63
664.59	34979.31
664.73	34660.99
664.88	34778.02
665.02	34366.09
665.16	34707.80
665.30	34878.66
665.44	34728.87
665.59	34129.69
665.73	34316.93
665.87	34108.63
666.01	34455.03
666.15	34239.70
666.29	34359.06
666.44	34410.56
666.58	33902.66
666.72	34422.26
666.86	34117.99
667.00	34387.15
667.14	33865.21
667.28	33795.00
667.43	34092.24
667.57	33965.85
667.71	33605.41
667.85	33301.14
667.99	33523.49
668.13	33432.21
668.27	33490.73
668.41	33404.13
668.56	33350.29
668.70	33472.00
668.84	33202.84
668.98	33460.30
669.12	33404.13
669.26	33434.55
669.40	32818.99
669.54	33186.46
669.68	33029.64
669.82	33055.39
669.96	32741.75
670.10	32907.93
670.25	33195.82
670.39	32954.74
670.53	33064.75
670.67	32687.92
670.81	32519.40
670.95	32622.39
671.09	32638.77
671.23	32711.33
671.37	32676.22
671.51	32411.74
671.65	32137.90
671.79	31974.06
671.93	32165.98
672.07	31941.29
672.21	32067.68
672.35	32053.64
672.49	31850.01
672.63	31941.29
672.77	32081.72
672.91	31449.78
673.05	31744.69
673.19	31372.54
673.33	31599.57
673.47	31358.50
673.61	31189.98
673.75	31072.95
673.89	31103.38
674.03	31042.53
674.17	30728.89
674.31	31103.38
674.45	30756.98
674.59	30794.43
674.73	31037.84
674.87	31035.50
675.01	30642.29
675.15	31082.31
675.29	30850.60
675.43	30579.10
675.56	30532.29
675.70	30387.18
675.84	30302.92
675.98	29226.27
676.12	30347.39
676.26	30071.20
676.40	29846.51
676.54	29638.20
676.68	30017.37
676.82	29200.52
676.96	29355.00
677.10	29439.26
677.23	29347.98
677.37	29713.10
677.51	29413.51
677.65	29326.91
677.79	28847.10
677.93	29301.17
678.07	29116.26
678.21	28531.13
678.34	28830.72
678.48	28400.06
678.62	28690.29
678.76	28357.93
678.90	28758.16
679.04	28507.72
679.18	28428.15
679.31	27948.34
679.45	27985.79
679.59	28044.30
679.73	27599.60
679.87	28006.85
680.00	27887.48
680.14	27513.00
680.28	27562.15
680.42	27608.96
680.56	27599.60
680.70	27424.06
680.83	27571.51
680.97	27042.55
681.11	26785.09
681.25	27070.64
681.39	26876.37
681.52	27138.51
681.66	26862.33
681.80	26972.33
681.94	26438.69
682.07	26607.21
682.21	26419.97
682.35	25933.14
682.49	26331.03
682.62	26375.50
682.76	26029.10
682.90	26160.17
683.04	26022.08
683.17	25781.00
683.31	25883.98
683.45	25799.73
683.59	25528.22
683.72	25294.17
683.86	25135.01
684.00	25348.00
684.13	25572.69
684.27	25516.52
684.41	25238.00
684.55	24790.95
684.68	24957.13
684.82	24636.48
684.96	24702.01
685.09	24465.62
685.23	24444.56
685.37	24732.44
685.50	24489.03
685.64	24135.60
685.78	24133.26
685.91	24229.23
686.05	23957.72
686.19	23857.08
686.32	23733.03
686.46	23496.64
686.60	23487.28
686.73	23578.56
686.87	23531.75
687.01	23531.75
687.14	23253.22
687.28	22958.31
687.42	23260.24
687.55	22778.09
687.69	22951.29
687.82	22752.35
687.96	23080.02
688.10	22874.06
688.23	22834.27
688.37	22174.24
688.50	22216.36
688.64	22665.75
688.78	22398.93
688.91	22190.62
689.05	22394.25
689.18	21893.37
689.32	21734.21
689.46	21984.65
689.59	22288.92
689.73	22160.19
689.86	21577.40
690.00	21490.80
690.13	21781.03
690.27	21619.53
690.41	21425.26
690.54	20936.09
690.68	20999.29
690.81	20828.43
690.95	20933.75
691.08	21151.42
691.22	21371.43
691.35	20807.36
691.49	21029.71
691.62	21067.16
691.76	20936.09
691.89	20556.93
692.03	20411.81
692.16	20334.57
692.30	20369.68
692.43	20271.38
692.57	19882.85
692.70	20137.97
692.84	20226.91
692.97	19864.13
693.11	19798.59
693.24	20065.41
693.38	19796.25
693.51	19349.21
693.65	19564.54
693.78	19573.90
693.92	19566.88
694.05	19356.23
694.19	19386.66
694.32	19061.32
694.45	19101.11
694.59	19131.54
694.72	19014.51
694.86	18874.08
694.99	19019.19
695.13	18494.91
695.26	18354.48
695.39	18047.87
695.53	18366.18
695.66	18277.24
695.80	18373.21
695.93	18188.30
696.07	18033.83
696.20	18611.94
696.33	17942.55
696.47	17912.12
696.60	17790.41
696.73	17919.14
696.87	17919.14
697.00	17699.13
697.14	17689.77
697.27	17614.87
697.40	17781.05
697.54	17163.15
697.67	17287.20
697.80	17233.36
697.94	16931.44
698.07	17067.19
698.21	16917.39
698.34	17013.35
698.47	16870.58
698.61	16683.34
698.74	16634.19
698.87	16704.40
699.01	16414.18
699.14	16599.08
699.27	16451.63
699.40	16238.64
699.54	15995.22
699.67	15887.56
699.80	16198.85
699.94	16255.02
700.07	16079.48
700.20	15990.54
700.34	15763.51
700.47	15882.88
700.60	15946.07
700.73	15793.94
700.87	15637.12
701.00	15438.17
701.13	15536.48
701.26	15517.75
701.40	15342.21
701.53	15302.42
701.66	15150.29
701.79	15087.09
701.93	15033.26
702.06	14822.61
702.19	14710.27
702.32	14726.65
702.46	14839.00
702.59	14565.15
702.72	14628.35
702.85	14581.54
702.99	14864.74
703.12	14860.06
703.25	14487.92
703.38	14611.96
703.51	14251.52
703.65	14317.06
703.78	14162.58
703.91	14267.91
704.04	13965.98
704.17	14061.94
704.31	13804.48
704.44	13624.26
704.57	13619.58
704.70	13657.03
704.83	13816.18
704.96	13774.05
705.10	13614.90
705.23	13776.39
>>>>>End Processed Spectral Data<<<<<
