SpectraSuite Data File
++++++++++++++++++++++++++++++++++++
Date: Fri Oct 25 10:43:28 EDT 2013
User: price-jones
Dark Spectrum Present: No
Reference Spectrum Present: No
Number of Sampled Component Spectra: 1
Spectrometers: USB2+H05261
Integration Time (usec): 100000 (USB2+H05261)
Spectra Averaged: 1 (USB2+H05261)
Boxcar Smoothing: 0 (USB2+H05261)
Correct for Electrical Dark: No (USB2+H05261)
Strobe/Lamp Enabled: No (USB2+H05261)
Correct for Detector Non-linearity: No (USB2+H05261)
Correct for Stray Light: No (USB2+H05261)
Number of Pixels in Processed Spectrum: 2048
>>>>>Begin Processed Spectral Data<<<<<
365.73	110.01
365.92	110.01
366.12	110.01
366.32	35.11
366.52	46.81
366.72	95.96
366.91	0.00
367.11	42.13
367.31	2.34
367.51	0.00
367.70	18.72
367.90	39.79
368.10	0.00
368.30	95.96
368.49	0.00
368.69	44.47
368.89	0.00
369.09	25.75
369.28	56.17
369.48	49.15
369.68	44.47
369.87	86.60
370.07	142.77
370.27	152.13
370.47	168.52
370.66	337.04
370.86	416.62
371.06	451.72
371.25	449.38
371.45	498.53
371.65	526.62
371.84	463.43
372.04	402.57
372.24	528.96
372.44	491.51
372.63	456.40
372.83	496.19
373.03	489.17
373.22	498.53
373.42	554.71
373.62	470.45
373.81	486.83
374.01	543.00
374.21	610.88
374.40	589.82
374.60	519.60
374.79	514.92
374.99	610.88
375.19	603.86
375.38	554.71
375.58	599.18
375.78	653.01
375.97	585.13
376.17	622.58
376.37	638.97
376.56	676.41
376.76	660.03
376.95	622.58
377.15	603.86
377.35	535.98
377.54	645.99
377.74	657.69
377.93	660.03
378.13	648.33
378.33	627.26
378.52	643.65
378.72	622.58
378.91	650.67
379.11	655.35
379.31	601.52
379.50	547.69
379.70	683.44
379.89	734.93
380.09	699.82
380.28	690.46
380.48	641.31
380.68	653.01
380.87	734.93
381.07	713.86
381.26	643.65
381.46	760.67
381.65	709.18
381.85	758.33
382.04	676.41
382.24	732.59
382.43	667.05
382.63	713.86
382.83	697.48
383.02	732.59
383.22	660.03
383.41	692.80
383.61	744.29
383.80	751.31
384.00	770.04
384.19	737.27
384.39	833.23
384.58	795.78
384.78	814.51
384.97	755.99
385.17	835.57
385.36	774.72
385.56	791.10
385.75	798.12
385.95	779.40
386.14	873.02
386.34	814.51
386.53	837.91
386.72	816.85
386.92	826.21
387.11	882.38
387.31	856.64
387.50	849.61
387.70	819.19
387.89	868.34
388.09	807.48
388.28	873.02
388.48	882.38
388.67	952.60
388.86	929.19
389.06	873.02
389.25	891.74
389.45	952.60
389.64	964.30
389.84	1057.92
390.03	966.64
390.22	959.62
390.42	915.15
390.61	978.34
390.81	961.96
391.00	1055.58
391.19	1057.92
391.39	1153.88
391.58	1006.43
391.78	1114.10
391.97	1034.52
392.16	1029.84
392.36	1043.88
392.55	1011.11
392.75	976.00
392.94	994.73
393.13	1076.65
393.33	1004.09
393.52	1032.18
393.71	1097.71
393.91	1132.82
394.10	1123.46
394.29	1177.29
394.49	1081.33
394.68	1217.08
394.88	1212.40
395.07	1198.35
395.26	1268.57
395.46	1270.91
395.65	1205.38
395.84	1135.16
396.04	1181.97
396.23	1174.95
396.42	1064.94
396.62	1221.76
396.81	1277.93
397.00	1296.66
397.19	1291.98
397.39	1256.87
397.58	1296.66
397.77	1369.21
397.97	1406.66
398.16	1404.32
398.35	1420.71
398.55	1448.79
398.74	1495.60
398.93	1493.26
399.12	1509.65
399.32	1530.71
399.51	1486.24
399.70	1465.18
399.90	1558.80
400.09	1526.03
400.28	1556.46
400.47	1530.71
400.67	1554.12
400.86	1575.18
401.05	1607.95
401.24	1659.44
401.44	1724.97
401.63	1710.93
401.82	1788.17
402.01	1689.87
402.21	1771.79
402.40	1806.89
402.59	1813.92
402.78	1865.41
402.97	1694.55
403.17	1678.16
403.36	1774.13
403.55	1858.39
403.74	1898.17
403.93	1926.26
404.13	1884.13
404.32	1827.96
404.51	1853.70
404.70	1921.58
404.89	1858.39
405.09	2026.90
405.28	1970.73
405.47	2005.84
405.66	1860.73
405.85	1940.30
406.05	1956.69
406.24	2029.24
406.43	2129.89
406.62	1966.05
406.81	2139.25
407.00	2064.35
407.20	1970.73
407.39	2005.84
407.58	2136.91
407.77	2120.53
407.96	2216.49
408.15	2244.57
408.34	2153.29
408.54	2251.60
408.73	2244.57
408.92	2267.98
409.11	2335.85
409.30	2361.60
409.49	2333.51
409.68	2272.66
409.87	2275.00
410.07	2356.92
410.26	2410.75
410.45	2401.39
410.64	2417.77
410.83	2525.44
411.02	2579.27
411.21	2499.69
411.40	2551.18
411.59	2583.95
411.78	2551.18
411.98	2572.25
412.17	2736.09
412.36	2682.25
412.55	2708.00
412.74	2789.92
412.93	2731.41
413.12	2747.79
413.31	2785.24
413.50	2705.66
413.69	2754.81
413.88	2885.88
414.07	2857.79
414.26	3012.27
414.45	2928.01
414.64	2965.46
414.83	2974.82
415.02	3012.27
415.22	3136.32
415.41	3141.00
415.60	3157.38
415.79	3122.27
415.98	3243.98
416.17	3222.92
416.36	3185.47
416.55	3192.49
416.74	3323.56
416.93	3204.19
417.12	3281.43
417.31	3316.54
417.50	3232.28
417.69	3494.42
417.88	3414.84
418.07	3426.54
418.26	3442.93
418.45	3482.72
418.64	3602.08
418.83	3571.66
419.02	3522.51
419.21	3543.57
419.39	3700.39
419.58	3454.63
419.77	3419.52
419.96	3627.83
420.15	3691.02
420.34	3644.21
420.53	3733.15
420.72	3815.07
420.91	3950.82
421.10	3871.25
421.29	3882.95
421.48	3911.04
421.67	3878.27
421.86	3786.99
422.05	3768.26
422.24	3665.28
422.43	3744.86
422.61	3794.01
422.80	3843.16
422.99	3911.04
423.18	3955.51
423.37	3918.06
423.56	3843.16
423.75	3803.37
423.94	3866.56
424.13	3728.47
424.32	3623.15
424.50	4007.00
424.69	3988.27
424.88	3929.76
425.07	3925.08
425.26	3782.31
425.45	4021.04
425.64	3873.59
425.83	3946.14
426.01	3904.01
426.20	4063.17
426.39	3885.29
426.58	3904.01
426.77	3852.52
426.96	3873.59
427.15	3922.74
427.33	3988.27
427.52	3969.55
427.71	4121.68
427.90	4107.64
428.09	4131.05
428.28	4131.05
428.46	4049.13
428.65	3983.59
428.84	4264.46
429.03	4149.77
429.22	4248.07
429.40	4161.47
429.59	4224.67
429.78	3871.25
429.97	3894.65
430.16	4166.15
430.34	3999.98
430.53	4074.87
430.72	4182.54
430.91	4046.79
431.10	4173.18
431.28	4559.36
431.47	4503.19
431.66	4660.01
431.85	4514.89
432.03	4622.56
432.22	4608.51
432.41	4627.24
432.60	4594.47
432.79	4636.60
432.97	4564.04
433.16	4676.39
433.35	4559.36
433.54	4594.47
433.72	4784.06
433.91	4671.71
434.10	4695.11
434.28	4805.12
434.47	4887.04
434.66	4837.89
434.85	4863.63
435.03	4856.61
435.22	4880.02
435.41	5020.45
435.59	4954.91
435.78	5137.48
435.97	4985.34
436.16	5097.69
436.34	5043.85
436.53	5167.90
436.72	5275.57
436.90	4987.68
437.09	5081.30
437.28	4922.15
437.46	5128.11
437.65	5233.44
437.84	5174.92
438.02	5245.14
438.21	5109.39
438.40	5069.60
438.58	5483.88
438.77	5439.40
438.96	5392.59
439.14	5488.56
439.33	5540.05
439.52	5565.79
439.70	5544.73
439.89	5607.92
440.08	5731.97
440.26	5792.83
440.45	5776.44
440.63	5799.85
440.82	6008.16
441.01	5874.74
441.19	5949.64
441.38	6164.97
441.57	6146.25
441.75	6239.87
441.94	6244.55
442.12	6272.64
442.31	6270.30
442.50	6260.93
442.68	6225.82
442.87	6200.08
443.05	6267.95
443.24	6375.62
443.43	6263.27
443.61	6417.75
443.80	6661.16
443.98	6459.88
444.17	6232.85
444.35	6656.48
444.54	6628.40
444.73	6445.84
444.91	6478.60
445.10	6373.28
445.28	6466.90
445.47	6232.85
445.65	6494.99
445.84	6511.37
446.02	6612.01
446.21	6380.30
446.39	6494.99
446.58	6579.25
446.77	6649.46
446.95	6544.14
447.14	6834.36
447.32	6857.77
447.51	6448.18
447.69	6658.82
447.88	6743.08
448.06	6771.17
448.25	6670.53
448.43	6787.55
448.62	6642.44
448.80	6595.63
448.99	6820.32
449.17	6808.62
449.36	6782.87
449.54	7089.48
449.73	7037.99
449.91	6920.96
450.10	7068.42
450.28	7155.02
450.46	7148.00
450.65	7197.15
450.83	7246.30
451.02	7152.68
451.20	7286.09
451.39	7056.72
451.57	7019.27
451.76	7173.74
451.94	7138.63
452.13	7112.89
452.31	7070.76
452.49	7258.00
452.68	7255.66
452.86	7136.29
453.05	7110.55
453.23	7265.02
453.42	7267.36
453.60	7393.75
453.78	7316.51
453.97	7372.69
454.15	7398.43
454.34	7433.54
454.52	7452.27
454.70	7573.97
454.89	7562.27
455.07	7557.59
455.26	7569.29
455.44	7620.78
455.62	7506.10
455.81	7709.72
455.99	7918.03
456.17	7775.26
456.36	7777.60
456.54	7899.31
456.73	8025.70
456.91	8107.62
457.09	8032.72
457.28	8074.85
457.46	7873.56
457.64	8128.68
457.83	8067.83
458.01	7861.86
458.19	8255.07
458.38	7920.37
458.56	8119.32
458.74	8374.44
458.93	8032.72
459.11	8210.60
459.29	8252.73
459.48	8292.52
459.66	8287.84
459.84	8381.46
460.03	8454.02
460.21	8528.91
460.39	8585.08
460.57	8355.71
460.76	8681.05
460.94	8571.04
461.12	8592.11
461.31	8704.45
461.49	8596.79
461.67	8631.90
461.85	8791.05
462.04	8786.37
462.22	9284.91
462.40	8975.95
462.59	8812.12
462.77	8882.33
462.95	8980.64
463.13	8753.60
463.32	8931.48
463.50	8975.95
463.68	8865.95
463.86	9226.39
464.05	8931.48
464.23	8659.98
464.41	9046.17
464.59	8697.43
464.78	8917.44
464.96	9104.68
465.14	8936.17
465.32	9064.89
465.50	8994.68
465.69	9266.18
465.87	9095.32
466.05	9048.51
466.23	9013.40
466.41	9055.53
466.60	9327.03
466.78	9025.11
466.96	9305.97
467.14	9195.96
467.32	9294.27
467.51	9500.23
467.69	9139.79
467.87	9277.88
468.05	9547.05
468.23	9294.27
468.41	9366.82
468.60	9577.47
468.78	9614.92
468.96	9413.63
469.14	9647.69
469.32	9568.11
469.50	9572.79
469.69	9647.69
469.87	9816.21
470.05	9956.64
470.23	9853.66
470.41	9834.93
470.59	10019.83
470.77	9813.87
470.95	9774.08
471.14	9891.10
471.32	9989.41
471.50	10178.99
471.68	10022.17
471.86	10200.05
472.04	10303.04
472.22	10684.55
472.40	10043.24
472.58	10452.83
472.77	10576.88
472.95	10438.79
473.13	10785.19
473.31	10380.28
473.49	10415.38
473.67	10555.82
473.85	10628.37
474.03	10864.77
474.21	10909.24
474.39	10874.13
474.57	10902.22
474.75	11030.94
474.93	11150.31
475.12	11061.37
475.30	11227.55
475.48	11009.88
475.66	11117.54
475.84	11201.80
476.02	11316.49
476.20	11272.02
476.38	11477.99
476.56	11857.15
476.74	11983.54
476.92	11616.08
477.10	11871.20
477.28	11887.58
477.46	12074.82
477.64	12168.45
477.82	12645.91
478.00	12624.85
478.18	12325.26
478.36	12428.24
478.54	12620.17
478.72	12638.89
478.90	12884.65
479.08	13170.19
479.26	12863.58
479.44	13128.06
479.62	13315.31
479.80	12989.97
479.98	13160.83
480.16	13401.91
480.34	13678.09
480.52	13792.78
480.70	13771.71
480.88	13540.00
481.06	13617.24
481.24	13827.88
481.41	13881.72
481.59	14150.88
481.77	14155.56
481.95	14288.97
482.13	14700.90
482.31	14291.31
482.49	14855.38
482.67	14656.43
482.85	14717.29
483.03	15225.18
483.21	15080.07
483.39	15318.81
483.57	15161.99
483.74	15641.80
483.92	15363.28
484.10	15206.46
484.28	15648.82
484.46	15941.39
484.64	16156.72
484.82	15833.72
485.00	16011.60
485.18	16023.31
485.35	16358.00
485.53	16072.46
485.71	16046.71
485.89	16095.86
486.07	16100.55
486.25	16638.87
486.43	16854.20
486.61	16924.41
486.78	17106.98
486.96	17277.83
487.14	17680.41
487.32	17570.40
487.50	17771.69
487.68	18104.04
487.85	18178.94
488.03	18478.53
488.21	18623.64
488.39	18328.74
488.57	18310.01
488.75	18951.32
488.92	18897.49
489.10	19084.73
489.28	19424.11
489.46	19744.76
489.64	19449.85
489.81	19756.46
489.99	19639.44
490.17	20196.48
490.35	20163.72
490.53	20210.53
490.70	20601.40
490.88	20486.71
491.06	20760.55
491.24	20606.08
491.41	20374.36
491.59	20767.57
491.77	20542.88
491.95	20840.13
492.13	21083.55
492.30	21420.58
492.48	21516.54
492.66	21750.60
492.84	21432.29
493.01	21692.08
493.19	21984.65
493.37	22155.51
493.54	22167.21
493.72	22593.19
493.90	22551.06
494.08	22581.49
494.25	23101.09
494.43	22925.55
494.61	23494.30
494.79	23353.87
494.96	23285.99
495.14	23260.24
495.32	23311.74
495.49	23733.03
495.67	23714.31
495.85	23718.99
496.02	24273.70
496.20	24205.82
496.38	24491.37
496.55	24442.21
496.73	24872.87
496.91	24739.46
497.09	24725.42
497.26	24971.18
497.44	25270.76
497.62	24849.47
497.79	25085.86
497.97	24999.26
498.14	25226.29
498.32	25518.86
498.50	25715.47
498.67	25902.71
498.85	25965.90
499.03	26127.40
499.20	26164.85
499.38	26295.92
499.56	26038.46
499.73	26382.52
499.91	26387.20
500.08	26672.74
500.26	26061.87
500.44	26721.90
500.61	26548.70
500.79	26499.55
500.97	26434.01
501.14	26892.76
501.32	26890.41
501.49	27122.13
501.67	26717.22
501.84	27173.62
502.02	27152.55
502.20	27288.31
502.37	27782.16
502.55	27775.14
502.72	27768.12
502.90	27866.42
503.07	27601.94
503.25	27892.16
503.43	27690.88
503.60	27817.27
503.78	27777.48
503.95	27934.29
504.13	28121.54
504.30	28402.40
504.48	28407.08
504.65	28718.37
504.83	28416.44
505.01	29085.84
505.18	28627.09
505.36	29099.88
505.53	29106.90
505.71	29422.87
505.88	29628.84
506.06	29443.94
506.23	29457.98
506.41	29439.26
506.58	29659.27
506.76	29584.37
506.93	29919.07
507.11	29476.71
507.28	29771.61
507.46	29736.51
507.63	29738.85
507.81	29734.17
507.98	29785.66
508.16	30513.56
508.33	30235.04
508.50	30534.63
508.68	30611.87
508.85	30859.96
509.03	30649.32
509.20	30707.83
509.38	31365.52
509.55	30906.77
509.73	31332.75
509.90	31405.31
510.08	31232.11
510.25	31260.20
510.42	31339.77
510.60	31824.26
510.77	31325.73
510.95	31641.70
511.12	31655.75
511.30	31725.96
511.47	32142.58
511.64	31997.46
511.82	31997.46
511.99	32070.02
512.17	32285.35
512.34	32201.09
512.51	31950.65
512.69	32694.94
512.86	32837.72
513.04	32671.54
513.21	32378.97
513.38	32713.67
513.56	32006.83
513.73	32603.66
513.90	32767.50
514.08	32818.99
514.25	33109.22
514.43	32957.08
514.60	32938.36
514.77	33029.64
514.95	33287.10
515.12	33614.77
515.29	33088.15
515.47	33947.13
515.64	33757.55
515.81	33593.71
515.99	33521.15
516.16	33113.90
516.33	32996.87
516.51	33134.96
516.68	33195.82
516.85	33308.16
517.03	33441.57
517.20	33563.28
517.37	34230.33
517.54	34141.39
517.72	34026.71
517.89	33652.22
518.06	33729.46
518.24	33764.57
518.41	34075.86
518.58	34480.77
518.75	34473.75
518.93	34763.98
519.10	34618.86
519.27	34789.72
519.45	34974.63
519.62	34728.87
519.79	35241.45
519.96	35086.97
520.14	35009.73
520.31	34792.06
520.48	34852.92
520.65	35353.79
520.83	35613.59
521.00	35761.05
521.17	35613.59
521.34	35487.20
521.52	35896.80
521.69	35742.32
521.86	35880.41
522.03	35852.33
522.20	36023.19
522.38	36135.53
522.55	36102.76
522.72	36046.59
522.89	36091.06
523.07	36273.62
523.24	36238.51
523.41	36528.74
523.58	36109.78
523.75	36889.18
523.92	36996.85
524.10	37242.60
524.27	37148.98
524.44	36952.38
524.61	36917.27
524.78	37221.54
524.96	37132.60
525.13	37343.25
525.30	37060.04
525.47	37296.44
525.64	37476.66
525.81	36959.40
525.98	36821.31
526.16	37134.94
526.33	36982.80
526.50	37411.12
526.67	37055.36
526.84	37635.81
527.01	37537.51
527.18	37722.41
527.36	37841.78
527.53	38047.75
527.70	38073.49
527.87	38176.48
528.04	37748.16
528.21	37907.32
528.38	38323.93
528.55	38466.70
528.72	38354.36
528.89	38831.83
529.07	38377.76
529.24	38359.04
529.41	38611.82
529.58	38518.20
529.75	38555.64
529.92	39019.07
530.09	39035.45
530.26	38607.14
530.43	39126.74
530.60	38782.68
530.77	38733.53
530.94	39133.76
531.11	39108.01
531.28	39175.89
531.46	39065.88
531.63	39061.20
531.80	39173.55
531.97	39379.51
532.14	39147.80
532.31	38817.78
532.48	39318.66
532.65	39019.07
532.82	39328.02
532.99	39346.75
533.16	39508.24
533.33	39019.07
533.50	39873.37
533.67	39725.91
533.84	39627.61
534.01	39835.92
534.18	39459.09
534.35	40044.23
534.52	39796.13
534.69	40163.59
534.86	40521.69
535.03	39882.73
535.20	40584.89
535.37	40563.82
535.54	40495.95
535.71	40676.17
535.88	40348.50
536.05	40411.69
536.22	40584.89
536.38	40245.51
536.55	39894.43
536.72	40484.25
536.89	40378.92
537.06	40308.71
537.23	40928.95
537.40	41095.13
537.57	41254.28
537.74	40631.70
537.91	41399.40
538.08	41228.54
538.25	40718.30
538.42	40741.71
538.59	40959.38
538.75	40907.88
538.92	40765.11
539.09	41069.38
539.26	41184.07
539.43	41013.21
539.60	41280.03
539.77	40858.73
539.94	41200.45
540.11	41476.63
540.28	41806.65
540.44	41364.29
540.61	41368.97
540.78	40879.80
540.95	41364.29
541.12	41322.16
541.29	41322.16
541.46	41427.48
541.62	41713.03
541.79	41911.97
541.96	41500.04
542.13	41371.31
542.30	41528.13
542.47	41441.53
542.63	41551.53
542.80	41373.65
542.97	42012.62
543.14	42462.00
543.31	42349.65
543.48	42045.38
543.64	42363.70
543.81	42726.48
543.98	42614.13
544.15	42195.18
544.32	42483.06
544.48	42932.45
544.65	42897.34
544.82	42487.74
544.99	42169.43
545.16	42583.71
545.32	42230.29
545.49	43388.85
545.66	43007.34
545.83	42983.94
546.00	43014.37
546.16	42532.22
546.33	43047.13
546.50	42440.93
546.67	42946.49
546.83	42703.07
547.00	42717.12
547.17	42560.30
547.34	42682.01
547.50	43353.74
547.67	43274.16
547.84	43075.22
548.00	43372.47
548.17	43543.33
548.34	43164.16
548.51	43323.32
548.67	43512.90
548.84	43590.14
549.01	43016.71
549.18	43320.98
549.34	43386.51
549.51	43725.89
549.68	43566.73
549.84	43459.07
550.01	43721.21
550.18	43459.07
550.34	43821.85
550.51	43669.72
550.68	43903.77
550.84	43093.94
551.01	44243.15
551.18	43901.43
551.34	43515.24
551.51	43903.77
551.68	44215.06
551.84	44353.15
552.01	43765.68
552.18	43826.53
552.34	43618.22
552.51	44030.16
552.68	43868.66
552.84	44105.06
553.01	44034.84
553.18	44016.11
553.34	44388.26
553.51	44322.72
553.67	44034.84
553.84	44479.54
554.01	44252.51
554.17	44371.88
554.34	44247.83
554.51	44575.50
554.67	44699.55
554.84	44245.49
555.00	44081.65
555.17	44222.08
555.33	44744.02
555.50	44636.36
555.67	44383.58
555.83	44500.61
556.00	44502.95
556.16	44795.51
556.33	44282.94
556.50	44650.40
556.66	44966.37
556.83	44411.67
556.99	45010.84
557.16	44364.85
557.32	44486.56
557.49	44732.32
557.65	44289.96
557.82	44364.85
557.98	44201.02
558.15	44732.32
558.32	45045.95
558.48	44725.30
558.65	44353.15
558.81	44903.18
558.98	44842.32
559.14	44612.95
559.31	45067.02
559.47	44896.16
559.64	45305.75
559.80	44758.06
559.97	45062.33
560.13	44928.92
560.30	44755.72
560.46	44727.64
560.63	45191.06
560.79	45158.30
560.96	45347.88
561.12	44758.06
561.29	45371.28
561.45	44659.76
561.61	45043.61
561.78	45055.31
561.94	44877.43
562.11	44851.69
562.27	44868.07
562.44	45134.89
562.60	45230.85
562.77	45413.41
562.93	45186.38
563.10	45331.50
563.26	44884.45
563.42	45682.58
563.59	44580.18
563.75	45085.74
563.92	45603.00
564.08	44926.58
564.24	45581.93
564.41	45095.10
564.57	45097.44
564.74	44999.14
564.90	45495.33
565.07	45366.60
565.23	45127.87
565.39	44921.90
565.56	45701.30
565.72	44715.93
565.88	45277.66
566.05	45378.31
566.21	45008.50
566.38	45228.51
566.54	45382.99
566.70	45818.33
566.87	45933.01
567.03	45319.79
567.19	45710.66
567.36	45535.12
567.52	45703.64
567.68	45661.51
567.85	45284.68
568.01	45492.99
568.17	45390.01
568.34	45745.77
568.50	45490.65
568.66	45212.13
568.83	45446.18
568.99	45071.70
569.15	45425.12
569.32	45015.52
569.48	45219.15
569.64	45961.10
569.81	46040.68
569.97	45422.78
570.13	45649.81
570.30	45198.09
570.46	45668.53
570.62	45563.21
570.78	45041.27
570.95	45441.50
571.11	45158.30
571.27	45771.52
571.43	45312.77
571.60	45698.96
571.76	45277.66
571.92	45570.23
572.09	45598.32
572.25	45687.26
572.41	45811.31
572.57	46007.91
572.74	46298.14
572.90	45848.75
573.06	45996.21
573.22	45500.01
573.38	45794.92
573.55	45542.14
573.71	46071.10
573.87	45820.67
574.03	45553.85
574.20	45862.80
574.36	45336.18
574.52	45963.44
574.68	45427.46
574.84	45500.01
575.01	45497.67
575.17	45708.32
575.33	45357.24
575.49	45516.40
575.65	46134.30
575.82	45748.11
575.98	45378.31
576.14	45904.93
576.30	46197.49
576.46	45975.14
576.62	45617.04
576.79	45748.11
576.95	45453.20
577.11	46099.19
577.27	45942.38
577.43	45853.44
577.59	45567.89
577.75	45017.86
577.92	45268.30
578.08	45481.29
578.24	45535.12
578.40	45553.85
578.56	45619.38
578.72	45900.25
578.88	46230.26
579.04	45759.81
579.21	45453.20
579.37	45731.73
579.53	45862.80
579.69	45563.21
579.85	45867.48
580.01	45612.36
580.17	45759.81
580.33	45830.03
580.49	45993.87
580.65	45610.02
580.82	45947.06
580.98	45759.81
581.14	45333.84
581.30	45993.87
581.46	45713.00
581.62	45755.13
581.78	45874.50
581.94	46351.97
582.10	45972.80
582.26	45752.79
582.42	45902.59
582.58	45918.97
582.74	45762.15
582.90	45961.10
583.06	45970.46
583.22	45696.62
583.38	45801.94
583.54	46000.89
583.70	45687.26
583.86	45691.94
584.02	45567.89
584.18	45869.82
584.34	45860.46
584.50	45663.85
584.66	45581.93
584.82	45603.00
584.98	45605.34
585.14	46019.61
585.30	45593.64
585.46	45886.20
585.62	45455.54
585.78	45717.68
585.94	45610.02
586.10	45382.99
586.26	45558.53
586.42	46380.06
586.58	46141.32
586.74	45677.90
586.90	45507.04
587.06	45895.56
587.22	45638.11
587.38	46082.81
587.54	45961.10
587.70	45968.12
587.86	45792.58
588.02	45558.53
588.18	45862.80
588.34	45535.12
588.49	45560.87
588.65	45324.47
588.81	45439.16
588.97	45464.91
589.13	45352.56
589.29	45631.08
589.45	45460.23
589.61	45680.24
589.77	45776.20
589.93	45900.25
590.08	45890.88
590.24	46162.39
590.40	45918.97
590.56	46174.09
590.72	46281.75
590.88	45563.21
591.04	46092.17
591.20	46239.62
591.35	46220.90
591.51	46630.49
591.67	46188.13
591.83	45724.71
591.99	45811.31
592.15	46019.61
592.31	46085.15
592.46	46092.17
592.62	46061.74
592.78	46202.18
592.94	45975.14
593.10	45855.78
593.26	46099.19
593.41	46265.37
593.57	46000.89
593.73	45972.80
593.89	46288.77
594.05	46204.52
594.20	45867.48
594.36	46143.66
594.52	46274.73
594.68	45865.14
594.84	45890.88
594.99	46232.60
595.15	46101.53
595.31	46251.33
595.47	45832.37
595.62	46527.51
595.78	46036.00
595.94	46316.86
596.10	46398.78
596.25	46583.68
596.41	45757.47
596.57	45996.21
596.73	45951.74
596.88	45474.27
597.04	45970.46
597.20	46337.93
597.36	45935.35
597.51	46394.10
597.67	46054.72
597.83	45851.09
597.99	46380.06
598.14	46157.70
598.30	46333.24
598.46	46141.32
598.61	46040.68
598.77	45752.79
598.93	45867.48
599.09	46124.94
599.24	46525.17
599.40	46438.57
599.56	45961.10
599.71	46122.60
599.87	46291.12
600.03	45979.82
600.18	45925.99
600.34	46040.68
600.50	45682.58
600.65	45834.71
600.81	45914.29
600.97	46089.83
601.12	46012.59
601.28	45916.63
601.44	45661.51
601.59	45471.93
601.75	45860.46
601.91	46248.99
602.06	46138.98
602.22	46148.34
602.37	45879.18
602.53	45794.92
602.69	46487.72
602.84	45851.09
603.00	45865.14
603.16	46307.50
603.31	45652.15
603.47	45764.49
603.62	46010.25
603.78	46024.29
603.94	46080.47
604.09	46108.55
604.25	45944.72
604.40	45595.98
604.56	46047.70
604.71	46277.07
604.87	45731.73
605.03	45776.20
605.18	45958.76
605.34	45876.84
605.49	45862.80
605.65	46080.47
605.80	45890.88
605.96	45951.74
606.12	45668.53
606.27	45897.91
606.43	45462.57
606.58	45972.80
606.74	45523.42
606.89	45387.67
607.05	45614.70
607.20	46204.52
607.36	45841.73
607.51	45975.14
607.67	45834.71
607.82	45897.91
607.98	45471.93
608.13	45792.58
608.29	45455.54
608.44	45492.99
608.60	45446.18
608.75	46101.53
608.91	45425.12
609.06	45490.65
609.22	45825.35
609.37	45354.90
609.53	45827.69
609.68	45846.41
609.84	45478.95
609.99	45446.18
610.15	45174.68
610.30	45354.90
610.46	45336.18
610.61	45305.75
610.76	45502.35
610.92	45628.74
611.07	45492.99
611.23	45607.68
611.38	45874.50
611.54	45432.14
611.69	45315.11
611.84	45301.07
612.00	45202.77
612.15	44954.67
612.31	45240.21
612.46	45146.59
612.62	45656.83
612.77	44919.56
612.92	45296.39
613.08	45324.47
613.23	44847.00
613.39	44500.61
613.54	44704.23
613.69	44711.25
613.85	44577.84
614.00	44982.76
614.15	44933.60
614.31	44804.88
614.46	44989.78
614.62	45329.16
614.77	44854.03
614.92	45118.51
615.08	44671.46
615.23	44839.98
615.38	44765.09
615.54	44596.57
615.69	44552.10
615.84	44243.15
616.00	44299.32
616.15	44334.43
616.30	44816.58
616.46	44605.93
616.61	44629.34
616.76	44392.94
616.92	44350.81
617.07	44186.97
617.22	44519.33
617.37	44219.74
617.53	44512.31
617.68	44273.57
617.83	44512.31
617.99	44790.83
618.14	44449.11
618.29	44254.85
618.45	44156.55
618.60	44198.68
618.75	43964.62
618.90	43899.09
619.06	43959.94
619.21	44027.82
619.36	43943.56
619.51	44006.75
619.67	43679.08
619.82	43775.04
619.97	44126.12
620.12	43943.56
620.28	43468.43
620.43	43716.53
620.58	44151.87
620.73	43945.90
620.89	43700.14
621.04	44105.06
621.19	44112.08
621.34	43981.01
621.49	43679.08
621.65	43522.26
621.80	44481.88
621.95	43398.21
622.10	43519.92
622.25	43398.21
622.41	43447.36
622.56	43658.01
622.71	44025.48
622.86	43091.60
623.01	43686.10
623.16	43681.42
623.32	43592.48
623.47	43555.03
623.62	43833.55
623.77	43220.33
623.92	43161.82
624.07	43058.84
624.23	43056.50
624.38	43037.77
624.53	43115.01
624.68	42780.31
624.83	43697.80
624.98	43360.76
625.13	42670.31
625.29	42897.34
625.44	43030.75
625.59	42813.08
625.74	43070.54
625.89	42747.54
626.04	42270.08
626.19	42745.20
626.34	43428.64
626.49	42691.37
626.65	42536.90
626.80	42902.02
626.95	42607.11
627.10	42384.76
627.25	43026.07
627.40	42576.69
627.55	42525.19
627.70	42436.25
627.85	42382.42
628.00	42499.45
628.15	42550.94
628.30	42164.75
628.45	42742.86
628.60	42665.63
628.76	42202.20
628.91	42190.50
629.06	42333.27
629.21	42223.26
629.36	42302.84
629.51	42094.53
629.66	42127.30
629.81	42080.49
629.96	42082.83
630.11	42085.17
630.26	42256.03
630.41	42286.46
630.56	42136.66
630.71	42061.77
630.86	41961.12
631.01	41420.46
631.16	42073.47
631.31	41706.01
631.46	41261.30
631.61	41549.19
631.76	41659.20
631.91	41907.29
632.06	41954.10
632.21	42052.41
632.36	42089.85
632.51	42007.94
632.66	41951.76
632.81	41666.22
632.96	41553.87
633.10	41642.81
633.25	41331.52
633.40	41970.49
633.55	41265.99
633.70	41357.27
633.85	41415.78
634.00	41242.58
634.15	41741.11
634.30	41015.55
634.45	41043.63
634.60	41186.41
634.75	41200.45
634.90	40959.38
635.05	41249.60
635.19	41029.59
635.34	41247.26
635.49	41661.54
635.64	41081.08
635.79	40858.73
635.94	40973.42
636.09	40893.84
636.24	40622.34
636.39	40767.45
636.53	41144.28
636.68	40741.71
636.83	40582.55
636.98	40769.79
637.13	40950.01
637.28	41003.85
637.43	41336.20
637.57	41071.72
637.72	40755.75
637.87	40533.40
638.02	40968.74
638.17	40987.46
638.32	40304.02
638.46	40531.06
638.61	40425.73
638.76	40378.92
638.91	40563.82
639.06	40603.61
639.20	40730.00
639.35	40627.02
639.50	40161.25
639.65	40306.37
639.80	40444.46
639.94	40706.60
640.09	40224.45
640.24	40013.80
640.39	40289.98
640.54	40081.67
640.68	40039.54
640.83	39709.53
640.98	39927.20
641.13	39866.34
641.27	40442.12
641.42	39791.45
641.57	39622.93
641.72	39985.71
641.86	39999.76
642.01	39538.67
642.16	39700.17
642.31	39360.79
642.45	40034.86
642.60	39672.08
642.75	39835.92
642.90	40210.40
643.04	39826.56
643.19	39332.70
643.34	39955.29
643.48	39927.20
643.63	39393.56
643.78	39304.62
643.93	39974.01
644.07	39515.26
644.22	39442.71
644.37	39136.10
644.51	39285.89
644.66	39669.74
644.81	39257.81
644.95	39496.54
645.10	39215.68
645.25	39431.01
645.39	39704.85
645.54	39168.87
645.69	39136.10
645.83	39316.32
645.98	38958.22
646.13	38862.26
646.27	39498.88
646.42	39065.88
646.57	38796.72
646.71	38941.83
646.86	39381.85
647.00	38979.28
647.15	38827.15
647.30	38778.00
647.44	38600.12
647.59	39063.54
647.74	38667.99
647.88	38770.97
648.03	38974.60
648.17	38707.78
648.32	38632.88
648.47	39007.37
648.61	38499.47
648.76	38745.23
648.90	38527.56
649.05	38888.00
649.20	38829.49
649.34	38660.97
649.49	38101.58
649.63	38497.13
649.78	38609.48
649.92	38679.69
650.07	38738.21
650.21	38752.25
650.36	38616.50
650.51	38555.64
650.65	38801.40
650.80	38827.15
650.94	38548.62
651.09	38284.14
651.23	38066.47
651.38	38319.25
651.52	38113.28
651.67	37780.93
651.81	38045.41
651.96	37816.04
652.10	38455.00
652.25	38256.06
652.39	38553.30
652.54	38110.94
652.68	38382.45
652.83	38644.59
652.97	38550.96
653.12	37993.92
653.26	38007.96
653.41	37830.08
653.55	38124.99
653.70	37780.93
653.84	38155.41
653.99	37766.88
654.13	37933.06
654.27	37750.50
654.42	37610.07
654.56	37954.13
654.71	37773.91
654.85	37752.84
655.00	37993.92
655.14	37415.80
655.29	37081.11
655.43	37457.93
655.57	37181.75
655.72	37017.91
655.86	37048.34
656.01	36851.73
656.15	36800.24
656.30	37046.00
656.44	37432.19
656.58	37373.67
656.73	37368.99
656.87	37043.66
657.01	36788.54
657.16	37041.32
657.30	36673.85
657.45	36720.66
657.59	36989.83
657.73	36711.30
657.88	37109.19
658.02	37376.01
658.16	37301.12
658.31	37277.71
658.45	37214.52
658.60	36938.33
658.74	37373.67
658.88	37048.34
659.03	36240.86
659.17	36547.47
659.31	36353.20
659.46	36084.04
659.60	36538.10
659.74	36100.42
659.89	36287.67
660.03	36198.73
660.17	36966.42
660.32	36460.87
660.46	36371.92
660.60	36362.56
660.74	36458.52
660.89	36521.72
661.03	36137.87
661.17	36088.72
661.32	35782.11
661.46	36170.64
661.60	35835.94
661.74	35557.42
661.89	36114.47
662.03	35852.33
662.17	35959.99
662.31	35831.26
662.46	36266.60
662.60	35824.24
662.74	36018.50
662.88	36002.12
663.03	35086.97
663.17	35754.02
663.31	35051.86
663.45	35358.47
663.60	35393.58
663.74	35056.54
663.88	35295.28
664.02	34881.00
664.17	35175.91
664.31	34682.06
664.45	34499.50
664.59	35070.59
664.73	34969.94
664.88	34955.90
665.02	34155.44
665.16	34518.22
665.30	33979.90
665.44	34359.06
665.59	34553.33
665.73	34782.70
665.87	34574.39
666.01	34052.45
666.15	34298.21
666.29	34375.45
666.44	34600.14
666.58	34478.43
666.72	34258.42
666.86	34171.82
667.00	34171.82
667.14	33663.93
667.28	33572.64
667.43	33823.08
667.57	34153.10
667.71	34029.05
667.85	33787.97
667.99	33928.41
668.13	33916.70
668.27	33806.70
668.41	33514.13
668.56	33832.44
668.70	33619.46
668.84	33240.29
668.98	33001.55
669.12	33207.52
669.26	33282.42
669.40	33486.04
669.54	32938.36
669.68	32893.89
669.82	32428.12
669.96	32788.56
670.10	32542.81
670.25	33085.81
670.39	32826.01
670.53	32666.86
670.67	32643.45
670.81	32861.12
670.95	32683.24
671.09	32947.72
671.23	32154.28
671.37	32280.67
671.51	32280.67
671.65	32357.91
671.79	32051.30
671.93	31983.42
672.07	31915.54
672.21	31824.26
672.35	31842.99
672.49	32105.13
672.63	31842.99
672.77	31941.29
672.91	31683.83
673.05	31742.35
673.19	31323.39
673.33	31417.01
673.47	31527.02
673.61	31522.34
673.75	31232.11
673.89	31356.16
674.03	31215.72
674.17	31044.87
674.31	31070.61
674.45	31307.01
674.59	30885.71
674.73	31335.09
674.87	31143.17
675.01	30787.41
675.15	30937.20
675.29	30595.48
675.43	30930.18
675.56	30572.08
675.70	30529.95
675.84	30087.59
675.98	29575.01
676.12	30031.41
676.26	30295.89
676.40	30319.30
676.54	29991.62
676.68	29876.94
676.82	29500.11
676.96	30197.59
677.10	29530.54
677.23	29617.14
677.37	29385.43
677.51	29427.56
677.65	28929.02
677.79	28875.19
677.93	29092.86
678.07	28638.80
678.21	28442.19
678.34	28704.33
678.48	28528.79
678.62	28517.09
678.76	28245.58
678.90	28268.99
679.04	28210.48
679.18	28126.22
679.31	28194.09
679.45	27711.94
679.59	27770.46
679.73	27871.10
679.87	27758.75
680.00	27697.90
680.14	27632.36
680.28	27342.14
680.42	27122.13
680.56	27234.47
680.70	27122.13
680.83	27241.50
680.97	27232.13
681.11	26649.34
681.25	26892.76
681.39	27014.46
681.52	26988.72
681.66	26581.46
681.80	26705.51
681.94	26246.77
682.07	26511.25
682.21	26434.01
682.35	26045.48
682.49	26059.52
682.62	25965.90
682.76	26209.32
682.90	25724.83
683.04	25937.82
683.17	25921.43
683.31	25661.63
683.45	25607.80
683.59	25371.41
683.72	25495.46
683.86	25628.87
684.00	25113.95
684.13	24947.77
684.27	25069.48
684.41	25127.99
684.55	24910.32
684.68	24907.98
684.82	24652.86
684.96	24570.94
685.09	24601.37
685.23	24304.12
685.37	24783.93
685.50	24407.11
685.64	24528.81
685.78	23761.12
685.91	24304.12
686.05	23901.55
686.19	23679.20
686.32	23592.60
686.46	23208.75
686.60	23332.80
686.73	22953.63
686.87	23103.43
687.01	22970.02
687.14	23016.83
687.28	23023.85
687.42	23131.51
687.55	22726.60
687.69	22848.31
687.82	22810.86
687.96	22522.98
688.10	22403.61
688.23	22520.63
688.37	22366.16
688.50	22478.50
688.64	22328.71
688.78	22410.63
688.91	21907.41
689.05	21748.26
689.18	21841.88
689.32	21490.80
689.46	21872.31
689.59	22012.74
689.73	21827.84
689.86	21989.33
690.00	21270.79
690.13	21537.61
690.27	20982.90
690.41	21172.49
690.54	21076.52
690.68	21383.13
690.81	21167.80
690.95	20952.48
691.08	21139.72
691.22	20812.04
691.35	20915.03
691.49	20795.66
691.62	20662.25
691.76	20762.89
691.89	20510.11
692.03	20390.75
692.16	20453.94
692.30	20201.16
692.43	20255.00
692.57	20037.33
692.70	19693.27
692.84	19711.99
692.97	19749.44
693.11	19433.47
693.24	19393.68
693.38	19536.45
693.51	19644.12
693.65	19527.09
693.78	19278.99
693.92	19278.99
694.05	19173.67
694.19	19293.04
694.32	18747.69
694.45	19243.88
694.59	19021.53
694.72	18899.83
694.86	18778.12
694.99	18530.02
695.13	18455.12
695.26	18539.38
695.39	18420.02
695.53	18768.76
695.66	18527.68
695.80	18125.11
695.93	18321.71
696.07	18047.87
696.20	17998.72
696.33	17958.93
696.47	17675.73
696.60	17940.21
696.73	17764.67
696.87	17832.54
697.00	17701.47
697.14	17238.05
697.27	17270.81
697.40	17455.72
697.54	17226.34
697.67	16966.54
697.80	17025.06
697.94	17003.99
698.07	16978.25
698.21	17015.69
698.34	17116.34
698.47	16898.67
698.61	16826.11
698.74	16697.38
698.87	16936.12
699.01	16355.66
699.14	16285.45
699.27	16285.45
699.40	16308.85
699.54	16170.76
699.67	15798.62
699.80	15955.43
699.94	16065.44
700.07	16044.37
700.20	15906.28
700.34	16002.24
700.47	15941.39
700.60	15742.44
700.73	15653.50
700.87	15854.79
701.00	15269.66
701.13	15672.23
701.26	15311.78
701.40	15405.41
701.53	14899.85
701.66	15372.64
701.79	15005.17
701.93	14916.23
702.06	14981.77
702.19	14888.15
702.32	14824.95
702.46	14897.51
702.59	14740.69
702.72	14857.72
702.85	14647.07
702.99	14448.13
703.12	14714.95
703.25	14391.95
703.38	14469.19
703.51	14492.60
703.65	14658.78
703.78	13848.95
703.91	13874.70
704.04	14078.32
704.17	13916.83
704.31	13804.48
704.44	13603.19
704.57	13635.96
704.70	13607.87
704.83	13448.72
704.96	13603.19
705.10	13462.76
705.23	13551.70
>>>>>End Processed Spectral Data<<<<<
