SpectraSuite Data File
++++++++++++++++++++++++++++++++++++
Date: Fri Oct 25 10:43:34 EDT 2013
User: price-jones
Dark Spectrum Present: No
Reference Spectrum Present: No
Number of Sampled Component Spectra: 1
Spectrometers: USB2+H05261
Integration Time (usec): 100000 (USB2+H05261)
Spectra Averaged: 1 (USB2+H05261)
Boxcar Smoothing: 0 (USB2+H05261)
Correct for Electrical Dark: No (USB2+H05261)
Strobe/Lamp Enabled: No (USB2+H05261)
Correct for Detector Non-linearity: No (USB2+H05261)
Correct for Stray Light: No (USB2+H05261)
Number of Pixels in Processed Spectrum: 2048
>>>>>Begin Processed Spectral Data<<<<<
365.73	112.35
365.92	112.35
366.12	112.35
366.32	51.49
366.52	44.47
366.72	14.04
366.91	0.00
367.11	51.49
367.31	63.19
367.51	0.00
367.70	72.56
367.90	28.09
368.10	70.22
368.30	9.36
368.49	0.00
368.69	37.45
368.89	58.51
369.09	42.13
369.28	58.51
369.48	25.75
369.68	14.04
369.87	72.56
370.07	79.58
370.27	117.03
370.47	175.54
370.66	341.72
370.86	393.21
371.06	381.51
371.25	479.81
371.45	341.72
371.65	500.87
371.84	447.04
372.04	458.74
372.24	458.74
372.44	540.66
372.63	500.87
372.83	484.49
373.03	566.41
373.22	482.15
373.42	470.45
373.62	561.73
373.81	580.45
374.01	571.09
374.21	543.00
374.40	592.16
374.60	571.09
374.79	496.19
374.99	456.40
375.19	608.54
375.38	645.99
375.58	535.98
375.78	617.90
375.97	627.26
376.17	613.22
376.37	578.11
376.56	571.09
376.76	575.77
376.95	657.69
377.15	697.48
377.35	596.84
377.54	580.45
377.74	636.63
377.93	606.20
378.13	624.92
378.33	725.57
378.52	699.82
378.72	718.54
378.91	655.35
379.11	594.50
379.31	674.07
379.50	655.35
379.70	643.65
379.89	648.33
380.09	631.94
380.28	718.54
380.48	683.44
380.68	667.05
380.87	695.14
381.07	760.67
381.26	781.74
381.46	753.65
381.65	718.54
381.85	692.80
382.04	732.59
382.24	695.14
382.43	744.29
382.63	772.38
382.83	770.04
383.02	732.59
383.22	723.23
383.41	664.71
383.61	702.16
383.80	779.40
384.00	781.74
384.19	765.36
384.39	730.25
384.58	821.53
384.78	826.21
384.97	807.48
385.17	758.33
385.36	786.42
385.56	819.19
385.75	828.55
385.95	823.87
386.14	835.57
386.34	875.36
386.53	800.46
386.72	772.38
386.92	816.85
387.11	844.93
387.31	931.53
387.50	823.87
387.70	833.23
387.89	926.85
388.09	875.36
388.28	812.17
388.48	910.47
388.67	1039.20
388.86	894.08
389.06	945.58
389.25	973.66
389.45	971.32
389.64	1029.84
389.84	1067.28
390.03	1013.45
390.22	1095.37
390.42	1018.13
390.61	1008.77
390.81	1018.13
391.00	1093.03
391.19	1069.62
391.39	1071.97
391.58	1053.24
391.78	983.02
391.97	1074.31
392.16	1025.15
392.36	1100.05
392.55	926.85
392.75	1034.52
392.94	964.30
393.13	936.21
393.33	938.55
393.52	1032.18
393.71	1095.37
393.91	1172.61
394.10	1158.57
394.29	1114.10
394.49	1203.04
394.68	1284.95
394.88	1186.65
395.07	1268.57
395.26	1277.93
395.46	1205.38
395.65	1235.80
395.84	1219.42
396.04	1177.29
396.23	1093.03
396.42	1081.33
396.62	1177.29
396.81	1324.74
397.00	1247.51
397.19	1261.55
397.39	1336.45
397.58	1455.81
397.77	1338.79
397.97	1423.05
398.16	1390.28
398.35	1458.15
398.55	1502.62
398.74	1509.65
398.93	1549.43
399.12	1465.18
399.32	1577.52
399.51	1551.78
399.70	1598.59
399.90	1551.78
400.09	1586.88
400.28	1572.84
400.47	1643.06
400.67	1694.55
400.86	1614.97
401.05	1715.61
401.24	1696.89
401.44	1701.57
401.63	1853.70
401.82	1636.03
402.01	1724.97
402.21	1717.95
402.40	1675.82
402.59	1661.78
402.78	1696.89
402.97	1818.60
403.17	1795.19
403.36	1818.60
403.55	1863.07
403.74	1877.11
403.93	1795.19
404.13	1895.83
404.32	1827.96
404.51	1886.47
404.70	1966.05
404.89	1933.28
405.09	2024.56
405.28	1984.77
405.47	1947.33
405.66	2064.35
405.85	1991.80
406.05	1959.03
406.24	2047.97
406.43	2120.53
406.62	2033.93
406.81	2237.55
407.00	2104.14
407.20	2087.76
407.39	1996.48
407.58	2146.27
407.77	2218.83
407.96	2291.38
408.15	2333.51
408.34	2277.34
408.54	2335.85
408.73	2354.58
408.92	2307.77
409.11	2319.47
409.30	2349.90
409.49	2190.74
409.68	2225.85
409.87	2272.66
410.07	2272.66
410.26	2293.72
410.45	2408.41
410.64	2406.07
410.83	2518.42
411.02	2558.21
411.21	2698.64
411.40	2597.99
411.59	2665.87
411.78	2700.98
411.98	2640.12
412.17	2649.49
412.36	2719.70
412.55	2818.00
412.74	2801.62
412.93	2754.81
413.12	2834.39
413.31	2956.10
413.50	2878.86
413.69	2857.79
413.88	2979.50
414.07	3009.93
414.26	3045.04
414.45	2988.86
414.64	3098.87
414.83	2951.42
415.02	3066.10
415.22	3124.62
415.41	3159.72
415.60	3148.02
415.79	3370.37
415.98	3307.18
416.17	3225.26
416.36	3251.00
416.55	3314.20
416.74	3337.60
416.93	3346.97
417.12	3288.45
417.31	3309.52
417.50	3300.16
417.69	3473.36
417.88	3517.83
418.07	3435.91
418.26	3461.65
418.45	3578.68
418.64	3611.45
418.83	3662.94
419.02	3588.04
419.21	3651.24
419.39	3737.84
419.58	3623.15
419.77	3627.83
419.96	3768.26
420.15	3843.16
420.34	3770.60
420.53	3899.33
420.72	3803.37
420.91	3999.98
421.10	3932.10
421.29	3995.29
421.48	3936.78
421.67	3850.18
421.86	3794.01
422.05	3819.75
422.24	3889.97
422.43	3913.38
422.61	3950.82
422.80	3934.44
422.99	4044.45
423.18	4039.76
423.37	3974.23
423.56	3978.91
423.75	3999.98
423.94	3955.51
424.13	3822.09
424.32	3878.27
424.50	3971.89
424.69	4088.92
424.88	4023.38
425.07	3960.19
425.26	4021.04
425.45	3983.59
425.64	3971.89
425.83	4025.72
426.01	4124.02
426.20	4168.49
426.39	4119.34
426.58	3948.48
426.77	3754.22
426.96	4072.53
427.15	3971.89
427.33	4154.45
427.52	4081.89
427.71	4109.98
427.90	4086.58
428.09	4191.90
428.28	4140.41
428.46	4219.99
428.65	4248.07
428.84	4381.48
429.03	4294.88
429.22	4210.62
429.40	4248.07
429.59	4135.73
429.78	3990.61
429.97	3833.80
430.16	4051.47
430.34	4107.64
430.53	4145.09
430.72	4208.28
430.91	4449.36
431.10	4273.82
431.28	4517.23
431.47	4809.80
431.66	4681.07
431.85	4601.49
432.03	4681.07
432.22	4741.93
432.41	4772.35
432.60	4662.35
432.79	4681.07
432.97	4903.42
433.16	4720.86
433.35	4795.76
433.54	4723.20
433.72	4683.41
433.91	4765.33
434.10	4933.85
434.28	4770.01
434.47	4915.12
434.66	4891.72
434.85	5050.88
435.03	4985.34
435.22	4954.91
435.41	5210.03
435.59	5011.09
435.78	5282.59
435.97	5226.42
436.16	5294.29
436.34	5064.92
436.53	5231.10
436.72	5327.06
436.90	5085.98
437.09	5294.29
437.28	5195.99
437.46	5188.97
437.65	5160.88
437.84	5373.87
438.02	5378.55
438.21	5261.52
438.40	5226.42
438.58	5528.35
438.77	5446.43
438.96	5420.68
439.14	5507.28
439.33	5673.46
439.52	5713.25
439.70	5678.14
439.89	5802.19
440.08	5715.59
440.26	5774.10
440.45	5802.19
440.63	5872.40
440.82	6026.88
441.01	6071.35
441.19	6033.90
441.38	6106.46
441.57	6242.21
441.75	6307.74
441.94	6286.68
442.12	6480.94
442.31	6427.11
442.50	6457.54
442.68	6377.96
442.87	6218.80
443.05	6420.09
443.24	6719.68
443.43	6583.93
443.61	6502.01
443.80	6715.00
443.98	6356.90
444.17	6284.34
444.35	6649.46
444.54	6729.04
444.73	6789.89
444.91	6745.42
445.10	6366.26
445.28	6576.91
445.47	6399.02
445.65	6509.03
445.84	6502.01
446.02	6771.17
446.21	6546.48
446.39	6715.00
446.58	6684.57
446.77	6686.91
446.95	6705.63
447.14	6827.34
447.32	6736.06
447.51	6827.34
447.69	6768.83
447.88	6661.16
448.06	6801.60
448.25	6752.45
448.43	6895.22
448.62	6857.77
448.80	6850.75
448.99	7005.22
449.17	6918.62
449.36	6993.52
449.54	7103.53
449.73	7159.70
449.91	7187.79
450.10	7272.04
450.28	7199.49
450.46	7335.24
450.65	7414.82
450.83	7368.01
451.02	7487.37
451.20	7447.58
451.39	7531.84
451.57	7438.22
451.76	7353.96
451.94	7309.49
452.13	7393.75
452.31	7227.57
452.49	7255.66
452.68	7365.67
452.86	7218.21
453.05	7225.23
453.23	7440.56
453.42	7585.68
453.60	7478.01
453.78	7564.61
453.97	7346.94
454.15	7501.42
454.34	7232.26
454.52	7674.62
454.70	7648.87
454.89	7681.64
455.07	7534.18
455.26	7831.43
455.44	7765.90
455.62	7929.74
455.81	7915.69
455.99	7805.69
456.17	8004.63
456.36	7880.58
456.54	8058.46
456.73	8229.32
456.91	8299.54
457.09	8418.91
457.28	8362.73
457.46	8138.04
457.64	8301.88
457.83	8156.77
458.01	8006.97
458.19	8287.84
458.38	8341.67
458.56	8475.08
458.74	8388.48
458.93	8201.24
459.11	8564.02
459.29	8219.96
459.48	8491.46
459.66	8468.06
459.84	8674.03
460.03	8664.66
460.21	8446.99
460.39	8688.07
460.57	8500.83
460.76	8809.78
460.94	8571.04
461.12	8837.86
461.31	8737.22
461.49	8610.83
461.67	8713.81
461.85	8924.46
462.04	9036.81
462.22	9383.21
462.40	9139.79
462.59	9071.92
462.77	8891.70
462.95	9069.58
463.13	9029.79
463.32	9146.81
463.50	9226.39
463.68	9233.41
463.86	9104.68
464.05	9104.68
464.23	8945.53
464.41	9240.44
464.59	9027.45
464.78	9217.03
464.96	9139.79
465.14	9261.50
465.32	9364.48
465.50	9486.19
465.69	9345.76
465.87	9287.25
466.05	9329.38
466.23	9312.99
466.41	9324.69
466.60	9336.40
466.78	9376.19
466.96	9327.03
467.14	9387.89
467.32	9699.18
467.51	9331.72
467.69	9170.22
467.87	9804.50
468.05	9827.91
468.23	9628.96
468.41	9607.90
468.60	9542.36
468.78	9760.03
468.96	9411.29
469.14	9942.60
469.32	9886.42
469.50	9582.15
469.69	9987.07
469.87	9874.72
470.05	10033.88
470.23	10101.75
470.41	9970.68
470.59	10087.71
470.77	9991.75
470.95	9982.38
471.14	10239.84
471.32	10083.03
471.50	10345.17
471.68	10562.84
471.86	10469.22
472.04	10534.75
472.22	10820.30
472.40	10375.59
472.58	10448.15
472.77	10518.37
472.95	10691.57
473.13	10860.09
473.31	10899.87
473.49	10677.52
473.67	10853.06
473.85	11009.88
474.03	11080.10
474.21	11080.10
474.39	11124.57
474.57	11227.55
474.75	11276.70
474.93	11365.64
475.12	11342.24
475.30	11477.99
475.48	11297.77
475.66	11639.48
475.84	11274.36
476.02	11520.12
476.20	11728.42
476.38	11866.52
476.56	12138.02
476.74	11910.99
476.92	11929.71
477.10	12091.21
477.28	12098.23
477.46	12212.92
477.64	12173.13
477.82	12566.34
478.00	12865.92
478.18	12840.18
478.36	12652.94
478.54	12856.56
478.72	12840.18
478.90	13055.51
479.08	13043.81
479.26	13315.31
479.44	13465.10
479.62	13483.83
479.80	13422.97
479.98	13366.80
480.16	13774.05
480.34	13783.41
480.52	13795.12
480.70	13944.91
480.88	13631.28
481.06	14157.90
481.24	13991.72
481.41	14658.78
481.59	14534.73
481.77	14417.70
481.95	14644.73
482.13	14675.16
482.31	14644.73
482.49	15021.56
482.67	15267.31
482.85	15213.48
483.03	15396.04
483.21	15288.38
483.39	15445.20
483.57	15807.98
483.74	15747.12
483.92	15611.37
484.10	15651.16
484.28	16098.20
484.46	16175.44
484.64	16463.33
484.82	16161.40
485.00	16365.03
485.18	16503.12
485.35	16765.26
485.53	16407.16
485.71	16369.71
485.89	16547.59
486.07	16973.56
486.25	16798.02
486.43	16922.07
486.61	17130.38
486.78	17345.71
486.96	17123.36
487.14	17376.14
487.32	18003.40
487.50	17898.08
487.68	17933.18
487.85	18567.47
488.03	18427.04
488.21	18806.20
488.39	18616.62
488.57	18822.59
488.75	18927.91
488.92	19239.20
489.10	19461.55
489.28	19192.39
489.46	19941.36
489.64	19786.89
489.81	20266.70
489.99	20393.09
490.17	20617.78
490.35	20432.88
490.53	20500.75
490.70	20638.84
490.88	20725.44
491.06	20964.18
491.24	20699.70
491.41	20950.14
491.59	21191.21
491.77	20835.45
491.95	21432.29
492.13	21055.46
492.30	21804.43
492.48	21991.67
492.66	21788.05
492.84	22221.05
493.01	22146.15
493.19	22295.94
493.37	22742.99
493.54	22698.52
493.72	22665.75
493.90	22883.42
494.08	23077.68
494.25	23417.06
494.43	23419.40
494.61	23669.84
494.79	24037.30
494.96	23616.01
495.14	23639.41
495.32	23941.34
495.49	24187.10
495.67	24189.44
495.85	24407.11
496.02	24720.74
496.20	24421.15
496.38	24592.01
496.55	24926.71
496.73	25874.62
496.91	25282.47
497.09	25532.90
497.26	25507.16
497.44	25043.73
497.62	25640.57
497.79	25790.36
497.97	25160.76
498.14	25626.53
498.32	25951.86
498.50	25944.84
498.67	26202.30
498.85	26316.98
499.03	26536.99
499.20	26391.88
499.38	26733.60
499.56	26911.48
499.73	26466.78
499.91	26717.22
500.08	26710.19
500.26	26656.36
500.44	26735.94
500.61	26904.46
500.79	26719.56
500.97	27168.94
501.14	27253.20
501.32	27288.31
501.49	27431.08
501.67	27311.71
501.84	27580.87
502.02	27763.43
502.20	27623.00
502.37	27976.42
502.55	27967.06
502.72	28292.40
502.90	28425.81
503.07	28102.81
503.25	28266.65
503.43	28402.40
503.60	27974.08
503.78	28280.69
503.95	28343.89
504.13	28393.04
504.30	28690.29
504.48	28943.06
504.65	29259.04
504.83	28905.62
505.01	29455.64
505.18	29062.43
505.36	29525.86
505.53	29523.52
505.71	29893.32
505.88	30052.48
506.06	29446.28
506.23	29898.00
506.41	29532.88
506.58	29734.17
506.76	30387.18
506.93	30221.00
507.11	30195.25
507.28	30239.72
507.46	30349.73
507.63	30202.27
507.81	30569.74
507.98	30497.18
508.16	30773.36
508.33	30668.04
508.50	30630.59
508.68	31061.25
508.85	31325.73
509.03	31241.47
509.20	31445.10
509.38	31447.44
509.55	31639.36
509.73	31604.25
509.90	31365.52
510.08	31761.07
510.25	31627.66
510.42	31672.13
510.60	32191.73
510.77	31828.95
510.95	31999.80
511.12	31978.74
511.30	32545.15
511.47	32971.13
511.64	32589.62
511.82	32528.77
511.99	32414.08
512.17	32779.20
512.34	32416.42
512.51	32690.26
512.69	32652.81
512.86	32748.78
513.04	32840.06
513.21	33104.54
513.38	32706.65
513.56	33102.20
513.73	33041.34
513.90	33055.39
514.08	33060.07
514.25	33675.63
514.43	33394.76
514.60	33734.14
514.77	33457.96
514.95	33972.88
515.12	33780.95
515.29	33743.50
515.47	34026.71
515.64	34239.70
515.81	33949.47
515.99	34244.38
516.16	33722.44
516.33	33481.36
516.51	33717.76
516.68	33380.72
516.85	33151.35
517.03	33558.60
517.20	34176.50
517.37	34183.52
517.54	34834.19
517.72	34366.09
517.89	34136.71
518.06	33975.22
518.24	34455.03
518.41	34590.78
518.58	35033.14
518.75	35040.16
518.93	35047.18
519.10	35288.26
519.27	35800.83
519.45	35215.70
519.62	35693.17
519.79	35899.14
519.96	35391.24
520.14	35585.50
520.31	35440.39
520.48	35594.87
520.65	35604.23
520.83	36065.31
521.00	35868.71
521.17	35849.99
521.34	36320.43
521.52	36790.88
521.69	36332.14
521.86	36704.28
522.03	36510.02
522.20	36615.34
522.38	36575.55
522.55	36545.12
522.72	36339.16
522.89	37008.55
523.07	36947.70
523.24	36889.18
523.41	37600.71
523.58	37125.58
523.75	37949.45
523.92	37706.03
524.10	37390.06
524.27	37422.83
524.44	37666.24
524.61	37528.15
524.78	37418.14
524.96	37603.05
525.13	37539.85
525.30	37736.46
525.47	37989.24
525.64	37677.94
525.81	37860.51
525.98	37804.33
526.16	37432.19
526.33	37570.28
526.50	37919.02
526.67	37453.25
526.84	37584.32
527.01	37654.54
527.18	37734.12
527.36	38419.89
527.53	38415.21
527.70	38375.42
527.87	38689.06
528.04	38616.50
528.21	38520.54
528.38	38602.46
528.55	39246.10
528.72	39178.23
528.89	39110.35
529.07	39112.69
529.24	38878.64
529.41	38904.38
529.58	39112.69
529.75	38962.90
529.92	39587.82
530.09	39040.14
530.26	38930.13
530.43	39590.16
530.60	39236.74
530.77	38913.75
530.94	39718.89
531.11	39768.04
531.28	39583.14
531.46	40018.48
531.63	39981.03
531.80	39636.97
531.97	39765.70
532.14	39344.41
532.31	39452.07
532.48	39959.97
532.65	39920.18
532.82	39800.81
532.99	40067.63
533.16	39679.10
533.33	40772.13
533.50	40350.84
533.67	40325.09
533.84	40465.52
534.01	40282.96
534.18	39908.47
534.35	40568.51
534.52	40683.19
534.69	40556.80
534.86	40711.28
535.03	40484.25
535.20	41024.91
535.37	41434.50
535.54	41572.60
535.71	40673.83
535.88	40973.42
536.05	41067.04
536.22	40973.42
536.38	40512.33
536.55	41041.29
536.72	40917.25
536.89	40545.10
537.06	41223.86
537.23	41125.55
537.40	41319.82
537.57	41212.15
537.74	41436.84
537.91	41546.85
538.08	41600.68
538.25	41422.80
538.42	41446.21
538.59	41703.67
538.75	41090.44
538.92	41909.63
539.09	42036.02
539.26	42040.70
539.43	41223.86
539.60	41766.86
539.77	41343.22
539.94	41317.48
540.11	41584.30
540.28	41928.36
540.44	41638.13
540.61	41443.87
540.78	41542.17
540.95	41818.35
541.12	42047.72
541.29	42096.88
541.46	42148.37
541.62	42164.75
541.79	42756.91
541.96	42085.17
542.13	42363.70
542.30	42099.22
542.47	42445.62
542.63	42054.75
542.80	42513.49
542.97	42918.40
543.14	43082.24
543.31	42354.33
543.48	42684.35
543.64	42920.74
543.81	43040.11
543.98	42817.76
544.15	42895.00
544.32	42967.55
544.48	43686.10
544.65	43082.24
544.82	43089.26
544.99	42333.27
545.16	43232.04
545.32	42834.14
545.49	43688.44
545.66	43639.29
545.83	43203.95
546.00	43274.16
546.16	43627.59
546.33	43306.93
546.50	43122.03
546.67	43674.40
546.83	42958.19
547.00	43491.83
547.17	43335.02
547.34	43386.51
547.50	43742.27
547.67	43920.15
547.84	43227.35
548.00	43854.62
548.17	44114.42
548.34	43990.37
548.51	44215.06
548.67	43931.86
548.84	44133.14
549.01	43955.26
549.18	43906.11
549.34	43810.15
549.51	44296.98
549.68	44201.02
549.84	44421.03
550.01	44123.78
550.18	44168.25
550.34	44055.90
550.51	44194.00
550.68	44091.01
550.84	43543.33
551.01	44552.10
551.18	43901.43
551.34	44339.11
551.51	44615.29
551.68	44353.15
551.84	44516.99
552.01	44549.76
552.18	44149.53
552.34	44425.71
552.51	44421.03
552.68	44891.48
552.84	44643.38
553.01	44722.96
553.18	44278.25
553.34	44418.69
553.51	44694.87
553.67	44861.05
553.84	45045.95
554.01	45228.51
554.17	45219.15
554.34	44942.97
554.51	44528.69
554.67	45483.63
554.84	44959.35
555.00	44748.70
555.17	44722.96
555.33	44872.75
555.50	45352.56
555.67	45132.55
555.83	44884.45
556.00	45017.86
556.16	45165.32
556.33	44659.76
556.50	44811.90
556.66	44947.65
556.83	44940.63
556.99	45076.38
557.16	44718.28
557.32	45137.23
557.49	45492.99
557.65	45111.49
557.82	45043.61
557.98	45099.78
558.15	45457.88
558.32	44828.28
558.48	44865.73
558.65	45387.67
558.81	44982.76
558.98	45490.65
559.14	45078.72
559.31	45256.60
559.47	45226.17
559.64	45563.21
559.80	45106.80
559.97	45408.73
560.13	45371.28
560.30	45483.63
560.46	45408.73
560.63	45532.78
560.79	45624.06
560.96	46094.51
561.12	45446.18
561.29	45127.87
561.45	45600.66
561.61	45619.38
561.78	45467.25
561.94	45375.97
562.11	45504.70
562.27	45357.24
562.44	45617.04
562.60	46068.76
562.77	45792.58
562.93	45497.67
563.10	46010.25
563.26	45460.23
563.42	45256.60
563.59	45647.47
563.75	45612.36
563.92	45776.20
564.08	45823.01
564.24	46066.42
564.41	45631.08
564.57	45720.02
564.74	45937.69
564.90	45970.46
565.07	46033.66
565.23	45773.86
565.39	45717.68
565.56	45972.80
565.72	45502.35
565.88	45722.37
566.05	45453.20
566.21	45549.17
566.38	45612.36
566.54	45794.92
566.70	46375.37
566.87	46548.57
567.03	45993.87
567.19	46288.77
567.36	46143.66
567.52	45951.74
567.68	46057.06
567.85	45780.88
568.01	46031.32
568.17	46127.28
568.34	46183.45
568.50	46176.43
568.66	45764.49
568.83	46155.36
568.99	45813.65
569.15	45998.55
569.32	46181.11
569.48	45844.07
569.64	46274.73
569.81	46195.15
569.97	45830.03
570.13	46265.37
570.30	45626.40
570.46	45691.94
570.62	46045.36
570.78	45617.04
570.95	45371.28
571.11	46274.73
571.27	45883.86
571.43	45799.60
571.60	45928.33
571.76	45944.72
571.92	45830.03
572.09	46319.20
572.25	46291.12
572.41	46068.76
572.57	46293.46
572.74	46480.70
572.90	46108.55
573.06	46328.56
573.22	45855.78
573.38	46473.68
573.55	45801.94
573.71	46333.24
573.87	46419.84
574.03	46277.07
574.20	45830.03
574.36	46258.35
574.52	46326.22
574.68	46274.73
574.84	46038.34
575.01	45916.63
575.17	46085.15
575.33	45837.05
575.49	46270.05
575.65	45830.03
575.82	46270.05
575.98	45858.12
576.14	46712.41
576.30	46506.44
576.46	46040.68
576.62	46253.67
576.79	45846.41
576.95	46138.98
577.11	46267.71
577.27	46344.95
577.43	46202.18
577.59	45560.87
577.75	45846.41
577.92	45930.67
578.08	46096.85
578.24	45663.85
578.40	46043.02
578.56	46085.15
578.72	46192.81
578.88	46522.83
579.04	46440.91
579.21	46330.90
579.37	46337.93
579.53	46122.60
579.69	46078.13
579.85	46026.63
580.01	46326.22
580.17	46092.17
580.33	46146.00
580.49	46106.21
580.65	46443.25
580.82	46117.92
580.98	46080.47
581.14	45663.85
581.30	46480.70
581.46	46504.10
581.62	46293.46
581.78	46225.58
581.94	46419.84
582.10	46174.09
582.26	46604.75
582.42	46358.99
582.58	46094.51
582.74	46429.21
582.90	46286.43
583.06	46588.36
583.22	46358.99
583.38	46574.32
583.54	46508.79
583.70	46450.27
583.86	46117.92
584.02	46288.77
584.18	46279.41
584.34	46476.02
584.50	46162.39
584.66	46199.83
584.82	46080.47
584.98	46230.26
585.14	46256.01
585.30	46197.49
585.46	46326.22
585.62	45876.84
585.78	46248.99
585.94	45909.61
586.10	45940.04
586.26	46174.09
586.42	46300.48
586.58	46557.94
586.74	46181.11
586.90	46471.34
587.06	46286.43
587.22	46281.75
587.38	46443.25
587.54	46440.91
587.70	46962.85
587.86	45867.48
588.02	46071.10
588.18	46639.86
588.34	45923.65
588.49	45888.54
588.65	45532.78
588.81	45783.22
588.97	45670.87
589.13	45808.96
589.29	45937.69
589.45	45963.44
589.61	45954.08
589.77	46539.21
589.93	46438.57
590.08	46644.54
590.24	46237.28
590.40	46511.13
590.56	46639.86
590.72	46162.39
590.88	46241.96
591.04	46611.77
591.20	47028.38
591.35	46632.83
591.51	46660.92
591.67	45928.33
591.83	46588.36
591.99	46380.06
592.15	46443.25
592.31	46614.11
592.46	46131.96
592.62	45989.19
592.78	46436.23
592.94	46522.83
593.10	46307.50
593.26	46579.00
593.41	46499.42
593.57	46227.92
593.73	46291.12
593.89	46635.17
594.05	46714.75
594.20	46382.40
594.36	46579.00
594.52	46560.28
594.68	46663.26
594.84	46534.53
594.99	46071.10
595.15	46295.80
595.31	46710.07
595.47	46862.21
595.62	46712.41
595.78	46597.73
595.94	46916.04
596.10	46569.64
596.25	46433.89
596.41	46185.79
596.57	46131.96
596.73	46305.16
596.88	46504.10
597.04	46405.80
597.20	45947.06
597.36	46258.35
597.51	47051.79
597.67	46562.62
597.83	46391.76
597.99	47014.34
598.14	46684.33
598.30	46459.63
598.46	46419.84
598.61	46590.70
598.77	46312.18
598.93	46653.90
599.09	46527.51
599.24	46714.75
599.40	46684.33
599.56	46696.03
599.71	46288.77
599.87	46735.82
600.03	46431.55
600.18	46693.69
600.34	46321.54
600.50	46127.28
600.65	46185.79
600.81	47000.30
600.97	46974.55
601.12	46564.96
601.28	46366.01
601.44	46253.67
601.59	46405.80
601.75	46272.39
601.91	46384.74
602.06	46433.89
602.22	46438.57
602.37	46216.22
602.53	46389.42
602.69	46899.65
602.84	46281.75
603.00	46340.27
603.16	46284.09
603.31	45771.52
603.47	46281.75
603.62	46127.28
603.78	46326.22
603.94	46291.12
604.09	46656.24
604.25	46508.79
604.40	46478.36
604.56	46185.79
604.71	46176.43
604.87	46284.09
605.03	46057.06
605.18	46153.02
605.34	46040.68
605.49	46012.59
605.65	46265.37
605.80	46127.28
605.96	46181.11
606.12	46209.20
606.27	46511.13
606.43	45984.51
606.58	46272.39
606.74	46363.67
606.89	46012.59
607.05	46113.23
607.20	46050.04
607.36	46424.53
607.51	46487.72
607.67	46031.32
607.82	46218.56
607.98	45904.93
608.13	46012.59
608.29	46234.94
608.44	45511.72
608.60	45635.77
608.75	46031.32
608.91	46089.83
609.06	46113.23
609.22	46167.07
609.37	45483.63
609.53	45902.59
609.68	45874.50
609.84	45808.96
609.99	45691.94
610.15	45794.92
610.30	45750.45
610.46	46010.25
610.61	45900.25
610.76	46014.93
610.92	45933.01
611.07	45853.44
611.23	45956.42
611.38	45766.84
611.54	45731.73
611.69	45413.41
611.84	45324.47
612.00	45448.52
612.15	45441.50
612.31	45645.13
612.46	45762.15
612.62	45923.65
612.77	45507.04
612.92	45453.20
613.08	45406.39
613.23	45666.19
613.39	45113.83
613.54	45137.23
613.69	45645.13
613.85	45193.40
614.00	45247.24
614.15	45558.53
614.31	45460.23
614.46	45464.91
614.62	45261.28
614.77	45296.39
614.92	45158.30
615.08	45205.11
615.23	45270.64
615.38	44985.10
615.54	44919.56
615.69	45148.93
615.84	44849.35
616.00	44715.93
616.15	44704.23
616.30	44910.20
616.46	45034.25
616.61	44465.50
616.76	44629.34
616.92	44556.78
617.07	44409.32
617.22	44879.77
617.37	44790.83
617.53	44978.07
617.68	45251.92
617.83	44748.70
617.99	45092.76
618.14	44617.63
618.29	44713.59
618.45	44404.64
618.60	44584.86
618.75	44163.57
618.90	44648.06
619.06	44685.51
619.21	44388.26
619.36	44734.66
619.51	44329.75
619.67	44212.72
619.82	44575.50
619.97	44381.24
620.12	43964.62
620.28	43922.49
620.43	44456.14
620.58	44360.17
620.73	44713.59
620.89	44072.29
621.04	44449.11
621.19	44463.16
621.34	44226.76
621.49	44498.26
621.65	43569.07
621.80	44126.12
621.95	43973.98
622.10	44549.76
622.25	43728.23
622.41	44046.54
622.56	43768.02
622.71	44002.07
622.86	44062.93
623.01	44069.95
623.16	43824.19
623.32	43634.61
623.47	43936.54
623.62	43842.92
623.77	43686.10
623.92	43765.68
624.07	43342.04
624.23	43388.85
624.38	43728.23
624.53	43557.37
624.68	43599.50
624.83	43555.03
624.98	43683.76
625.13	43056.50
625.29	43208.63
625.44	43131.39
625.59	42965.21
625.74	43178.20
625.89	43171.18
626.04	43021.39
626.19	42855.21
626.34	43351.40
626.49	43515.24
626.65	42974.58
626.80	42965.21
626.95	42464.34
627.10	42555.62
627.25	43122.03
627.40	42721.80
627.55	43082.24
627.70	42520.51
627.85	42930.11
628.00	42834.14
628.15	43157.14
628.30	42878.61
628.45	43147.78
628.60	42827.12
628.76	42735.84
628.91	42618.81
629.06	43122.03
629.21	42799.04
629.36	42426.89
629.51	42569.66
629.66	42543.92
629.81	42241.99
629.96	42263.05
630.11	42202.20
630.26	42635.20
630.41	42667.97
630.56	42227.95
630.71	42450.30
630.86	42403.49
631.01	42199.86
631.16	42103.90
631.31	42117.94
631.46	41694.30
631.61	42267.73
631.76	42127.30
631.91	42553.28
632.06	42663.28
632.21	42131.98
632.36	42265.39
632.51	41720.05
632.66	42075.81
632.81	41703.67
632.96	42394.12
633.10	42309.86
633.25	41918.99
633.40	42241.99
633.55	41914.31
633.70	42162.41
633.85	41647.49
634.00	41738.77
634.15	42251.35
634.30	41897.93
634.45	41539.83
634.60	41556.21
634.75	41429.82
634.90	41567.91
635.05	41851.12
635.19	41586.64
635.34	41832.39
635.49	41415.78
635.64	41771.54
635.79	41233.22
635.94	41397.06
636.09	40954.69
636.24	41237.90
636.39	41289.39
636.53	41130.23
636.68	41347.90
636.83	41418.12
636.98	41591.32
637.13	40823.62
637.28	41549.19
637.43	41703.67
637.57	41581.96
637.72	40942.99
637.87	41366.63
638.02	40954.69
638.17	40985.12
638.32	41139.60
638.46	41123.21
638.61	40837.67
638.76	41017.89
638.91	40931.29
639.06	40680.85
639.20	41242.58
639.35	41294.07
639.50	41041.29
639.65	41010.87
639.80	40856.39
639.94	40687.87
640.09	40835.33
640.24	40800.22
640.39	40512.33
640.54	40264.24
640.68	40273.60
640.83	40470.20
640.98	40271.26
641.13	40222.11
641.27	40666.81
641.42	40524.04
641.57	40191.68
641.72	40381.26
641.86	40385.94
642.01	40289.98
642.16	40240.83
642.31	40013.80
642.45	40308.71
642.60	39899.11
642.75	40053.59
642.90	40479.57
643.04	40591.91
643.19	40074.65
643.34	39903.79
643.48	40053.59
643.63	40282.96
643.78	39842.94
643.93	39810.17
644.07	39901.45
644.22	39697.83
644.37	39807.83
644.51	39653.36
644.66	39838.26
644.81	39941.24
644.95	39665.06
645.10	40020.82
645.25	39812.51
645.39	40140.19
645.54	39653.36
645.69	39454.41
645.83	39323.34
645.98	38953.54
646.13	39580.80
646.27	39821.87
646.42	39161.84
646.57	39339.72
646.71	39515.26
646.86	39800.81
647.00	39629.95
647.15	39201.63
647.30	39697.83
647.44	39318.66
647.59	39182.91
647.74	39065.88
647.88	38986.30
648.03	39264.83
648.17	39419.30
648.32	38998.01
648.47	39482.50
648.61	38609.48
648.76	39255.46
648.90	39061.20
649.05	39321.00
649.20	38859.91
649.34	39318.66
649.49	38679.69
649.63	38749.91
649.78	39274.19
649.92	38665.65
650.07	38724.16
650.21	39103.33
650.36	38682.03
650.51	38976.94
650.65	39625.27
650.80	39503.56
650.94	38969.92
651.09	38913.75
651.23	38506.49
651.38	38553.30
651.52	38672.67
651.67	38108.60
651.81	38628.20
651.96	38623.52
652.10	38382.45
652.25	38300.53
652.39	38550.96
652.54	38487.77
652.68	38501.81
652.83	38824.81
652.97	38960.56
653.12	38361.38
653.26	38040.73
653.41	38274.78
653.55	38033.71
653.70	38117.96
653.84	38415.21
653.99	37691.99
654.13	37914.34
654.27	37855.82
654.42	37989.24
654.56	37846.46
654.71	38029.02
654.85	38007.96
655.00	37958.81
655.14	37851.14
655.29	37804.33
655.43	37731.78
655.57	37553.90
655.72	37315.16
655.86	37546.87
656.01	37401.76
656.15	37003.87
656.30	37151.32
656.44	37102.17
656.58	37778.59
656.73	37338.57
656.87	37024.93
657.01	36982.80
657.16	37057.70
657.30	37230.90
657.45	37408.78
657.59	37464.96
657.73	37373.67
657.88	37383.04
658.02	37504.74
658.16	37310.48
658.31	37586.66
658.45	37647.52
658.60	37205.16
658.74	37528.15
658.88	36790.88
659.03	36924.29
659.17	36933.65
659.31	36453.84
659.46	36870.46
659.60	36882.16
659.74	36957.06
659.89	36704.28
660.03	36589.59
660.17	36774.50
660.32	36907.91
660.46	36783.86
660.60	36535.76
660.74	36704.28
660.89	36261.92
661.03	36004.46
661.17	36538.10
661.32	36500.65
661.46	36224.47
661.60	36191.70
661.74	35995.10
661.89	36004.46
662.03	36048.93
662.17	36102.76
662.31	35835.94
662.46	36348.52
662.60	36402.35
662.74	36158.94
662.88	36034.89
663.03	35559.76
663.17	35669.76
663.31	35721.26
663.45	35091.65
663.60	35517.63
663.74	35637.00
663.88	35770.41
664.02	35314.00
664.17	35269.53
664.31	35431.03
664.45	34838.87
664.59	35143.14
664.73	35543.38
664.88	34902.07
665.02	34644.61
665.16	34920.79
665.30	34897.39
665.44	34663.33
665.59	34843.56
665.73	34646.95
665.87	34326.30
666.01	35180.59
666.15	34691.42
666.29	34817.81
666.44	34983.99
666.58	34759.30
666.72	34635.25
666.86	34515.88
667.00	34508.86
667.14	34010.32
667.28	33921.38
667.43	34122.67
667.57	34244.38
667.71	34370.77
667.85	34146.08
667.99	34328.64
668.13	34038.41
668.27	34293.53
668.41	34370.77
668.56	33579.67
668.70	33844.15
668.84	33193.48
668.98	33710.74
669.12	33422.85
669.26	33673.29
669.40	33378.38
669.54	33413.49
669.68	33127.94
669.82	33048.36
669.96	32800.27
670.10	33076.45
670.25	33088.15
670.39	33029.64
670.53	32910.27
670.67	33149.01
670.81	33020.28
670.95	32826.01
671.09	32385.99
671.23	32500.68
671.37	32411.74
671.51	32552.17
671.65	32348.54
671.79	32261.94
671.93	32400.04
672.07	32435.14
672.21	32278.33
672.35	32327.48
672.49	31974.06
672.63	32381.31
672.77	31927.25
672.91	32187.05
673.05	31978.74
673.19	31742.35
673.33	31833.63
673.47	31817.24
673.61	31674.47
673.75	31477.86
673.89	31742.35
674.03	31428.71
674.17	31510.63
674.31	31328.07
674.45	30965.29
674.59	31538.72
674.73	30979.33
674.87	31414.67
675.01	30824.86
675.15	30829.54
675.29	31182.96
675.43	30932.52
675.56	30944.22
675.70	30850.60
675.84	30614.21
675.98	30129.72
676.12	30775.70
676.26	30532.29
676.40	30429.30
676.54	30359.09
676.68	30113.33
676.82	29479.05
676.96	29928.43
677.10	30213.98
677.23	29965.88
677.37	29593.73
677.51	29673.31
677.65	29359.68
677.79	29029.66
677.93	29249.67
678.07	29228.61
678.21	28671.56
678.34	28919.66
678.48	28671.56
678.62	28430.49
678.76	28313.46
678.90	28299.42
679.04	28290.06
679.18	28472.62
679.31	28051.32
679.45	27721.30
679.59	28231.54
679.73	28023.23
679.87	28313.46
680.00	27730.67
680.14	27775.14
680.28	27976.42
680.42	27468.53
680.56	27520.02
680.70	27618.32
680.83	27463.85
680.97	27449.80
681.11	27587.89
681.25	27234.47
681.39	27014.46
681.52	27047.23
681.66	27033.19
681.80	27173.62
681.94	26979.36
682.07	26565.08
682.21	26518.27
682.35	26429.33
682.49	26279.54
682.62	26059.52
682.76	26195.28
682.90	26066.55
683.04	26024.42
683.17	26066.55
683.31	25832.49
683.45	25785.68
683.59	25621.84
683.72	25511.84
683.86	25654.61
684.00	25507.16
684.13	24910.32
684.27	25109.27
684.41	25153.74
684.55	25238.00
684.68	25177.14
684.82	24800.32
684.96	24943.09
685.09	24992.24
685.23	24657.54
685.37	24891.60
685.50	24746.48
685.64	24645.84
685.78	24669.25
685.91	24072.41
686.05	24243.27
686.19	24137.94
686.32	24105.18
686.46	23435.78
686.60	23183.01
686.73	23222.80
686.87	23309.40
687.01	23133.86
687.14	22789.80
687.28	23632.39
687.42	22937.25
687.55	23005.13
687.69	23175.98
687.82	22745.33
687.96	22834.27
688.10	22918.53
688.23	22581.49
688.37	22485.53
688.50	22279.56
688.64	22492.55
688.78	22239.77
688.91	22087.64
689.05	21804.43
689.18	22017.42
689.32	21664.00
689.46	21954.22
689.59	22066.57
689.73	22064.23
689.86	21682.72
690.00	21460.37
690.13	21582.08
690.27	21500.16
690.41	21247.38
690.54	21214.62
690.68	21462.71
690.81	21280.15
690.95	21216.96
691.08	21247.38
691.22	20908.01
691.35	21223.98
691.49	21235.68
691.62	20814.38
691.76	20821.41
691.89	20966.52
692.03	20432.88
692.16	20472.67
692.30	20360.32
692.43	20442.24
692.57	20074.77
692.70	20168.40
692.84	20009.24
692.97	19805.61
693.11	19569.22
693.24	19590.28
693.38	19667.52
693.51	19768.16
693.65	19644.12
693.78	19419.42
693.92	19571.56
694.05	19480.28
694.19	19452.19
694.32	19019.19
694.45	19220.48
694.59	19269.63
694.72	18993.45
694.86	19103.45
694.99	18881.10
695.13	18906.85
695.26	18611.94
695.39	18876.42
695.53	18630.66
695.66	18274.90
695.80	18452.78
695.93	18223.41
696.07	18326.39
696.20	18038.51
696.33	18249.16
696.47	17982.34
696.60	18300.65
696.73	17884.03
696.87	17659.34
697.00	17839.56
697.14	17614.87
697.27	17048.46
697.40	17275.49
697.54	17509.55
697.67	17235.70
697.80	17228.68
697.94	17032.08
698.07	17151.45
698.21	17137.40
698.34	16975.91
698.47	16884.62
698.61	16929.09
698.74	16868.24
698.87	16559.29
699.01	16437.58
699.14	16156.72
699.27	16416.52
699.40	16367.37
699.54	16210.55
699.67	16278.43
699.80	16189.49
699.94	16063.10
700.07	16102.89
700.20	16049.05
700.34	15978.84
700.47	16009.26
700.60	15992.88
700.73	15798.62
700.87	15800.96
701.00	15641.80
701.13	15482.64
701.26	15484.98
701.40	15688.61
701.53	15199.44
701.66	15297.74
701.79	15044.96
701.93	14984.11
702.06	14808.57
702.19	14593.24
702.32	14960.70
702.46	14810.91
702.59	14846.02
702.72	14621.33
702.85	14932.62
702.99	14728.99
703.12	14389.61
703.25	14721.97
703.38	14324.08
703.51	14539.41
703.65	14338.12
703.78	14033.85
703.91	14090.02
704.04	13980.02
704.17	13860.65
704.31	13989.38
704.44	13895.76
704.57	13701.50
704.70	13659.37
704.83	13703.84
704.96	13783.41
705.10	13525.96
705.23	13596.17
>>>>>End Processed Spectral Data<<<<<
