SpectraSuite Data File
++++++++++++++++++++++++++++++++++++
Date: Fri Oct 25 10:47:14 EDT 2013
User: price-jones
Dark Spectrum Present: No
Reference Spectrum Present: No
Number of Sampled Component Spectra: 1
Spectrometers: USB2+H05261
Integration Time (usec): 100000 (USB2+H05261)
Spectra Averaged: 1 (USB2+H05261)
Boxcar Smoothing: 0 (USB2+H05261)
Correct for Electrical Dark: No (USB2+H05261)
Strobe/Lamp Enabled: No (USB2+H05261)
Correct for Detector Non-linearity: No (USB2+H05261)
Correct for Stray Light: No (USB2+H05261)
Number of Pixels in Processed Spectrum: 2048
>>>>>Begin Processed Spectral Data<<<<<
365.73	121.71
365.92	121.71
366.12	121.71
366.32	7.02
366.52	23.41
366.72	44.47
366.91	79.58
367.11	39.79
367.31	25.75
367.51	11.70
367.70	0.00
367.90	16.38
368.10	49.15
368.30	72.56
368.49	35.11
368.69	88.94
368.89	72.56
369.09	91.28
369.28	58.51
369.48	77.24
369.68	53.83
369.87	124.05
370.07	110.01
370.27	121.71
370.47	182.56
370.66	395.55
370.86	320.65
371.06	435.34
371.25	397.89
371.45	386.19
371.65	390.87
371.84	482.15
372.04	465.77
372.24	491.51
372.44	470.45
372.63	475.13
372.83	440.02
373.03	519.60
373.22	458.74
373.42	449.38
373.62	440.02
373.81	512.58
374.01	514.92
374.21	500.87
374.40	475.13
374.60	655.35
374.79	580.45
374.99	592.16
375.19	505.56
375.38	517.26
375.58	550.03
375.78	554.71
375.97	599.18
376.17	631.94
376.37	613.22
376.56	575.77
376.76	557.05
376.95	615.56
377.15	615.56
377.35	592.16
377.54	566.41
377.74	566.41
377.93	540.66
378.13	531.30
378.33	629.60
378.52	603.86
378.72	641.31
378.91	620.24
379.11	601.52
379.31	587.47
379.50	613.22
379.70	655.35
379.89	655.35
380.09	610.88
380.28	688.12
380.48	622.58
380.68	631.94
380.87	674.07
381.07	711.52
381.26	704.50
381.46	568.75
381.65	634.29
381.85	564.07
382.04	638.97
382.24	720.88
382.43	711.52
382.63	650.67
382.83	650.67
383.02	795.78
383.22	702.16
383.41	692.80
383.61	624.92
383.80	753.65
384.00	730.25
384.19	664.71
384.39	772.38
384.58	716.20
384.78	692.80
384.97	842.59
385.17	746.63
385.36	690.46
385.56	786.42
385.75	702.16
385.95	765.36
386.14	751.31
386.34	699.82
386.53	816.85
386.72	779.40
386.92	786.42
387.11	805.14
387.31	791.10
387.50	870.68
387.70	758.33
387.89	828.55
388.09	791.10
388.28	795.78
388.48	844.93
388.67	819.19
388.86	812.17
389.06	863.66
389.25	908.13
389.45	908.13
389.64	861.32
389.84	894.08
390.03	887.06
390.22	910.47
390.42	772.38
390.61	919.83
390.81	964.30
391.00	971.32
391.19	849.61
391.39	936.21
391.58	976.00
391.78	959.62
391.97	868.34
392.16	938.55
392.36	992.39
392.55	938.55
392.75	978.34
392.94	976.00
393.13	931.53
393.33	1050.90
393.52	990.05
393.71	1046.22
393.91	1032.18
394.10	1046.22
394.29	994.73
394.49	1069.62
394.68	1032.18
394.88	1088.35
395.07	1050.90
395.26	1067.28
395.46	1022.81
395.65	1100.05
395.84	1100.05
396.04	1144.52
396.23	1149.20
396.42	957.28
396.62	1121.12
396.81	1193.67
397.00	1083.67
397.19	1114.10
397.39	1095.37
397.58	1116.44
397.77	1212.40
397.97	1275.59
398.16	1139.84
398.35	1263.89
398.55	1219.42
398.74	1275.59
398.93	1338.79
399.12	1306.02
399.32	1224.10
399.51	1308.36
399.70	1317.72
399.90	1277.93
400.09	1362.19
400.28	1369.21
400.47	1336.45
400.67	1369.21
400.86	1399.64
401.05	1434.75
401.24	1291.98
401.44	1526.03
401.63	1476.88
401.82	1444.11
402.01	1406.66
402.21	1474.54
402.40	1448.79
402.59	1458.15
402.78	1493.26
402.97	1427.73
403.17	1544.75
403.36	1603.27
403.55	1526.03
403.74	1565.82
403.93	1603.27
404.13	1617.31
404.32	1624.33
404.51	1554.12
404.70	1647.74
404.89	1563.48
405.09	1776.47
405.28	1619.65
405.47	1619.65
405.66	1741.36
405.85	1715.61
406.05	1614.97
406.24	1657.10
406.43	1741.36
406.62	1764.76
406.81	1811.57
407.00	1720.29
407.20	1689.87
407.39	1778.81
407.58	1827.96
407.77	1795.19
407.96	1783.49
408.15	1900.52
408.34	1898.17
408.54	1860.73
408.73	2010.52
408.92	2057.33
409.11	1933.28
409.30	1935.62
409.49	1916.90
409.68	2099.46
409.87	1956.69
410.07	1973.07
410.26	1989.46
410.45	1961.37
410.64	2162.66
410.83	2148.61
411.02	2085.42
411.21	2132.23
411.40	2113.50
411.59	2235.21
411.78	2115.84
411.98	2204.78
412.17	2235.21
412.36	2221.17
412.55	2279.68
412.74	2333.51
412.93	2321.81
413.12	2335.85
413.31	2452.88
413.50	2244.57
413.69	2502.03
413.88	2504.37
414.07	2380.32
414.26	2469.27
414.45	2581.61
414.64	2438.84
414.83	2579.27
415.02	2738.43
415.22	2597.99
415.41	2553.52
415.60	2682.25
415.79	2672.89
415.98	2686.94
416.17	2796.94
416.36	2740.77
416.55	2633.10
416.74	2883.54
416.93	2841.41
417.12	2911.63
417.31	2867.16
417.50	2930.35
417.69	3016.95
417.88	2981.84
418.07	3005.25
418.26	2918.65
418.45	2949.08
418.64	3087.17
418.83	3141.00
419.02	3115.25
419.21	3157.38
419.39	3056.74
419.58	2946.73
419.77	3136.32
419.96	3094.19
420.15	3094.19
420.34	3171.43
420.53	3260.37
420.72	3180.79
420.91	3272.07
421.10	3269.73
421.29	3325.90
421.48	3239.30
421.67	3370.37
421.86	3353.99
422.05	3187.81
422.24	3323.56
422.43	3293.13
422.61	3346.97
422.80	3435.91
422.99	3501.44
423.18	3325.90
423.37	3428.88
423.56	3342.28
423.75	3403.14
423.94	3283.77
424.13	3126.96
424.32	3190.15
424.50	3389.10
424.69	3524.85
424.88	3552.93
425.07	3407.82
425.26	3265.05
425.45	3543.57
425.64	3529.53
425.83	3412.50
426.01	3578.68
426.20	3478.04
426.39	3510.80
426.58	3454.63
426.77	3508.46
426.96	3482.72
427.15	3517.83
427.33	3606.77
427.52	3637.19
427.71	3513.14
427.90	3606.77
428.09	3515.48
428.28	3571.66
428.46	3609.11
428.65	3599.74
428.84	3927.42
429.03	3817.41
429.22	3625.49
429.40	3592.72
429.59	3686.34
429.78	3513.14
429.97	3574.00
430.16	3693.37
430.34	3667.62
430.53	3679.32
430.72	3737.84
430.91	3866.56
431.10	3808.05
431.28	3999.98
431.47	3962.53
431.66	4021.04
431.85	3822.09
432.03	4016.36
432.22	4095.94
432.41	3906.35
432.60	4124.02
432.79	4030.40
432.97	4135.73
433.16	4114.66
433.35	3974.23
433.54	4215.30
433.72	4184.88
433.91	4152.11
434.10	4276.16
434.28	4152.11
434.47	4147.43
434.66	4248.07
434.85	4346.37
435.03	4252.75
435.22	4273.82
435.41	4372.12
435.59	4322.97
435.78	4437.66
435.97	4435.32
436.16	4498.51
436.34	4447.02
436.53	4411.91
436.72	4493.83
436.90	4353.40
437.09	4479.79
437.28	4470.42
437.46	4416.59
437.65	4505.53
437.84	4477.44
438.02	4587.45
438.21	4622.56
438.40	4589.79
438.58	4711.50
438.77	4786.40
438.96	4624.90
439.14	4835.55
439.33	4770.01
439.52	4798.10
439.70	5025.13
439.89	5025.13
440.08	4950.23
440.26	5001.72
440.45	4830.87
440.63	5048.54
440.82	5018.11
441.01	4990.02
441.19	5221.74
441.38	5249.82
441.57	5198.33
441.75	5399.62
441.94	5493.24
442.12	5425.36
442.31	5277.91
442.50	5380.89
442.68	5376.21
442.87	5493.24
443.05	5500.26
443.24	5734.31
443.43	5558.77
443.61	5638.35
443.80	5816.23
443.98	5441.75
444.17	5378.55
444.35	5760.06
444.54	5724.95
444.73	5692.18
444.91	5657.07
445.10	5600.90
445.28	5666.44
445.47	5589.20
445.65	5727.29
445.84	5706.23
446.02	5713.25
446.21	5706.23
446.39	5643.03
446.58	5680.48
446.77	5776.44
446.95	5526.00
447.14	5605.58
447.32	5682.82
447.51	5715.59
447.69	5830.27
447.88	5818.57
448.06	5846.66
448.25	5774.10
448.43	5923.90
448.62	5825.59
448.80	5867.72
448.99	5968.37
449.17	6005.81
449.36	6017.52
449.54	6228.17
449.73	5989.43
449.91	6181.35
450.10	6188.38
450.28	6061.99
450.46	6162.63
450.65	6183.70
450.83	6129.86
451.02	6143.91
451.20	6237.53
451.39	6307.74
451.57	6148.59
451.76	6092.41
451.94	6148.59
452.13	6249.23
452.31	6230.51
452.49	6249.23
452.68	6342.85
452.86	6179.01
453.05	6579.25
453.23	6253.91
453.42	6239.87
453.60	6223.48
453.78	6516.05
453.97	6434.13
454.15	6401.37
454.34	6356.90
454.52	6583.93
454.70	6637.76
454.89	6518.39
455.07	6604.99
455.26	6738.40
455.44	6771.17
455.62	6548.82
455.81	6590.95
455.99	6733.72
456.17	6719.68
456.36	6803.94
456.54	6782.87
456.73	6829.68
456.91	7122.25
457.09	7082.46
457.28	7145.66
457.46	6911.60
457.64	6977.14
457.83	6916.28
458.01	6998.20
458.19	7204.17
458.38	7091.82
458.56	7171.40
458.74	7140.97
458.93	7101.19
459.11	7363.33
459.29	7262.68
459.48	7215.87
459.66	7286.09
459.84	7447.58
460.03	7363.33
460.21	7155.02
460.39	7494.40
460.57	7211.19
460.76	7405.46
460.94	7510.78
461.12	7414.82
461.31	7513.12
461.49	7604.40
461.67	7583.34
461.85	7688.66
462.04	7503.76
462.22	8105.28
462.40	7719.09
462.59	7658.23
462.77	7742.49
462.95	7899.31
463.13	7597.38
463.32	7896.97
463.50	7808.03
463.68	7939.10
463.86	7784.62
464.05	7791.64
464.23	7768.24
464.41	7967.18
464.59	7850.16
464.78	8112.30
464.96	7922.71
465.14	7801.01
465.32	7878.24
465.50	8116.98
465.69	8217.62
465.87	8205.92
466.05	8168.47
466.23	8060.80
466.41	8126.34
466.60	8381.46
466.78	8063.15
466.96	8131.02
467.14	8163.79
467.32	8215.28
467.51	8311.24
467.69	8079.53
467.87	8210.60
468.05	8332.31
468.23	8231.66
468.41	8271.45
468.60	8248.05
468.78	8388.48
468.96	8397.84
469.14	8528.91
469.32	8596.79
469.50	8407.20
469.69	8608.49
469.87	8613.17
470.05	8514.87
470.23	8695.09
470.41	8566.36
470.59	8807.44
470.77	8683.39
470.95	8872.97
471.14	9100.00
471.32	8627.21
471.50	8919.78
471.68	8802.75
471.86	8961.91
472.04	9202.99
472.22	9177.24
472.40	9123.41
472.58	9046.17
472.77	9083.62
472.95	9191.28
473.13	9673.43
473.31	9172.56
473.49	9100.00
473.67	9336.40
473.85	9518.96
474.03	9652.37
474.21	9472.15
474.39	9647.69
474.57	9600.88
474.75	9675.77
474.93	9877.06
475.12	9678.12
475.30	9706.20
475.48	10047.92
475.66	10033.88
475.84	9790.46
476.02	9909.83
476.20	10047.92
476.38	10218.78
476.56	10604.97
476.74	10422.41
476.92	10429.43
477.10	10422.41
477.28	10565.18
477.46	10679.86
477.64	10846.04
477.82	10991.16
478.00	11087.12
478.18	11070.73
478.36	11136.27
478.54	11311.81
478.72	11028.60
478.90	11393.73
479.08	11592.67
479.26	11660.55
479.44	11597.35
479.62	11597.35
479.80	11634.80
479.98	12016.31
480.16	11971.84
480.34	11927.37
480.52	12042.06
480.70	12208.23
480.88	11978.86
481.06	12166.10
481.24	12212.92
481.41	12320.58
481.59	12627.19
481.77	12641.23
481.95	12784.01
482.13	12989.97
482.31	12755.92
482.49	13062.53
482.67	13104.66
482.85	13207.64
483.03	13516.59
483.21	13446.38
483.39	13495.53
483.57	13392.55
483.74	13715.54
483.92	13872.36
484.10	13940.23
484.28	14317.06
484.46	14183.65
484.64	14295.99
484.82	14113.43
485.00	14324.08
485.18	14700.90
485.35	14801.55
485.53	14724.31
485.71	14831.97
485.89	14949.00
486.07	14689.20
486.25	15012.20
486.43	15286.04
486.61	15222.84
486.78	15442.85
486.96	15576.27
487.14	15667.55
487.32	15765.85
487.50	15932.03
487.68	16140.33
487.85	16189.49
488.03	16369.71
488.21	16711.42
488.39	16624.83
488.57	16730.15
488.75	17090.59
488.92	17109.32
489.10	17336.35
489.28	17074.21
489.46	17394.86
489.64	17497.84
489.81	17846.58
489.99	17767.01
490.17	17909.78
490.35	18270.22
490.53	17898.08
490.70	18214.05
490.88	18291.29
491.06	18581.51
491.24	18473.85
491.41	18656.41
491.59	18476.19
491.77	18831.95
491.95	18960.68
492.13	19300.06
492.30	19389.00
492.48	19426.45
492.66	19515.39
492.84	19506.02
493.01	19550.49
493.19	19822.00
493.37	20002.22
493.54	19875.83
493.72	20060.73
493.90	19985.83
494.08	20315.85
494.25	20540.54
494.43	21336.32
494.61	20662.25
494.79	20947.79
494.96	21200.57
495.14	20910.35
495.32	21331.64
495.49	20973.54
495.67	21207.59
495.85	21713.15
496.02	21429.94
496.20	22059.55
496.38	21500.16
496.55	21799.75
496.73	22391.91
496.91	21947.20
497.09	22361.48
497.26	22576.81
497.44	22328.71
497.62	22607.23
497.79	22785.12
497.97	22682.13
498.14	22981.72
498.32	23084.70
498.50	22764.05
498.67	23473.23
498.85	23414.72
499.03	23662.82
499.20	23506.00
499.38	23491.96
499.56	23873.46
499.73	23702.61
499.91	23939.00
500.08	24091.13
500.26	23873.46
500.44	24020.92
500.61	24159.01
500.79	23700.26
500.97	24093.47
501.14	24584.99
501.32	24631.80
501.49	24713.72
501.67	24938.41
501.84	25085.86
502.02	24751.17
502.20	25092.88
502.37	25123.31
502.55	24922.02
502.72	25209.91
502.90	25184.16
503.07	25369.07
503.25	25315.23
503.43	25542.27
503.60	25598.44
503.78	25610.14
503.95	25783.34
504.13	25738.87
504.30	25893.35
504.48	26024.42
504.65	25970.58
504.83	26335.71
505.01	26536.99
505.18	26286.56
505.36	26546.36
505.53	26525.29
505.71	26703.17
505.88	27122.13
506.06	26277.19
506.23	26534.65
506.41	26490.18
506.58	26672.74
506.76	27103.40
506.93	26948.93
507.11	27236.81
507.28	27129.15
507.46	27365.54
507.63	27246.18
507.81	27845.35
507.98	27367.88
508.16	27634.71
508.33	27800.88
508.50	27714.28
508.68	27789.18
508.85	28215.16
509.03	28025.57
509.20	27798.54
509.38	28236.22
509.55	28554.54
509.73	28659.86
509.90	28512.41
510.08	28676.24
510.25	28285.37
510.42	28716.03
510.60	28481.98
510.77	28673.90
510.95	29179.46
511.12	28664.54
511.30	29102.22
511.47	29366.70
511.64	29221.59
511.82	29528.20
511.99	29113.92
512.17	29413.51
512.34	29455.64
512.51	29956.52
512.69	30043.12
512.86	29914.39
513.04	30167.16
513.21	29996.31
513.38	29837.15
513.56	30068.86
513.73	29935.45
513.90	30260.79
514.08	30047.80
514.25	30354.41
514.43	30747.62
514.60	30426.96
514.77	30490.16
514.95	30955.93
515.12	30543.99
515.29	30649.32
515.47	31225.09
515.64	30913.80
515.81	30864.64
515.99	31166.57
516.16	31051.89
516.33	30991.03
516.51	31152.53
516.68	31283.60
516.85	31164.23
517.03	31356.16
517.20	31321.05
517.37	31728.30
517.54	31407.65
517.72	31662.77
517.89	31400.63
518.06	31337.43
518.24	31417.01
518.41	31625.32
518.58	32018.53
518.75	31749.37
518.93	32151.94
519.10	32205.77
519.27	31976.40
519.45	32205.77
519.62	32423.44
519.79	32233.86
519.96	32547.49
520.14	32650.47
520.31	32278.33
520.48	32826.01
520.65	32790.91
520.83	32711.33
521.00	33235.61
521.17	32826.01
521.34	32814.31
521.52	33226.24
521.69	33064.75
521.86	33441.57
522.03	33439.23
522.20	33441.57
522.38	33778.61
522.55	33701.37
522.72	33324.55
522.89	33434.55
523.07	33776.27
523.24	33474.34
523.41	33715.42
523.58	33853.51
523.75	34265.44
523.92	33958.83
524.10	34277.15
524.27	34230.33
524.44	34223.31
524.61	34368.43
524.78	34726.53
524.96	34675.04
525.13	34796.74
525.30	35077.61
525.47	34789.72
525.64	34527.58
525.81	34845.90
525.98	34799.08
526.16	34595.46
526.33	34838.87
526.50	35110.38
526.67	34824.83
526.84	34845.90
527.01	35042.50
527.18	35178.25
527.36	35393.58
527.53	35304.64
527.70	35690.83
527.87	35484.86
528.04	35573.80
528.21	35681.47
528.38	35557.42
528.55	35637.00
528.72	35775.09
528.89	35779.77
529.07	35541.03
529.24	35681.47
529.41	35845.30
529.58	35637.00
529.75	35508.27
529.92	35697.85
530.09	36058.29
530.26	36128.51
530.43	36561.51
530.60	36095.74
530.77	36437.46
530.94	36486.61
531.11	36456.18
531.28	35868.71
531.46	36711.30
531.63	36524.06
531.80	36666.83
531.97	36524.06
532.14	36636.41
532.31	36706.62
532.48	36807.26
532.65	37141.96
532.82	36673.85
532.99	37184.09
533.16	36697.26
533.33	37057.70
533.50	37177.07
533.67	37401.76
533.84	37263.67
534.01	36720.66
534.18	37003.87
534.35	37113.87
534.52	37539.85
534.69	37312.82
534.86	37661.56
535.03	37254.31
535.20	37633.47
535.37	37605.39
535.54	38307.55
535.71	37153.66
535.88	38012.64
536.05	37940.08
536.22	37787.95
536.38	37869.87
536.55	37853.48
536.72	37937.74
536.89	38045.41
537.06	38082.86
537.23	37787.95
537.40	38162.43
537.57	38089.88
537.74	38202.22
537.91	38511.17
538.08	38375.42
538.25	37867.53
538.42	38089.88
538.59	38403.51
538.75	38368.40
538.92	38146.05
539.09	38810.76
539.26	38478.41
539.43	38684.37
539.60	38408.19
539.77	38534.58
539.94	39061.20
540.11	38731.18
540.28	38785.02
540.44	39065.88
540.61	38883.32
540.78	38747.57
540.95	38808.42
541.12	38714.80
541.29	38815.44
541.46	38710.12
541.62	38930.13
541.79	39473.13
541.96	38705.44
542.13	39510.58
542.30	39012.05
542.47	39730.59
542.63	39079.92
542.80	39590.16
542.97	39732.93
543.14	39845.28
543.31	39695.49
543.48	39508.24
543.64	40020.82
543.81	39688.46
543.98	40037.20
544.15	39812.51
544.32	40297.00
544.48	40596.59
544.65	40205.72
544.82	40566.16
544.99	39667.40
545.16	40594.25
545.32	39913.16
545.49	40381.26
545.66	40783.83
545.83	40362.54
546.00	40556.80
546.16	40472.54
546.33	40509.99
546.50	40041.88
546.67	40444.46
546.83	40011.46
547.00	40369.56
547.17	40519.35
547.34	40624.68
547.50	40861.07
547.67	41212.15
547.84	40921.93
548.00	41184.07
548.17	40947.67
548.34	40620.00
548.51	41116.19
548.67	41249.60
548.84	41254.28
549.01	41057.68
549.18	41017.89
549.34	41207.47
549.51	41371.31
549.68	41184.07
549.84	40884.48
550.01	41474.29
550.18	41221.52
550.34	41434.50
550.51	41579.62
550.68	41270.67
550.84	41109.17
551.01	41804.31
551.18	41738.77
551.34	41600.68
551.51	41373.65
551.68	41797.29
551.84	41694.30
552.01	41731.75
552.18	41375.99
552.34	41626.43
552.51	41588.98
552.68	41848.78
552.84	42068.79
553.01	41937.72
553.18	41909.63
553.34	41698.98
553.51	41832.39
553.67	41893.25
553.84	42139.00
554.01	42225.60
554.17	42305.18
554.34	42101.56
554.51	41818.35
554.67	42621.16
554.84	42679.67
555.00	42066.45
555.17	42323.91
555.33	42157.73
555.50	42398.80
555.67	42014.96
555.83	42246.67
556.00	42658.60
556.16	42951.17
556.33	42534.56
556.50	42770.95
556.66	42677.33
556.83	42780.31
556.99	42431.57
557.16	42469.02
557.32	42653.92
557.49	42564.98
557.65	42864.57
557.82	42515.83
557.98	42110.92
558.15	42646.90
558.32	42394.12
558.48	43091.60
558.65	43070.54
558.81	42862.23
558.98	42721.80
559.14	42134.32
559.31	42784.99
559.47	42469.02
559.64	43264.80
559.80	43044.79
559.97	43400.55
560.13	42366.04
560.30	42986.28
560.46	43028.41
560.63	42656.26
560.79	43082.24
560.96	43571.41
561.12	43323.32
561.29	43323.32
561.45	43136.07
561.61	43075.22
561.78	43147.78
561.94	42958.19
562.11	43260.12
562.27	43157.14
562.44	42960.53
562.60	43461.41
562.77	43400.55
562.93	43323.32
563.10	43447.36
563.26	43084.58
563.42	43281.19
563.59	43325.66
563.75	43173.52
563.92	43639.29
564.08	43805.47
564.24	43728.23
564.41	43498.86
564.57	43379.49
564.74	43203.95
564.90	43264.80
565.07	43716.53
565.23	43405.23
565.39	43346.72
565.56	43442.68
565.72	43559.71
565.88	43732.91
566.05	43402.89
566.21	43164.16
566.38	43325.66
566.54	43643.97
566.70	43859.30
566.87	43798.44
567.03	44039.52
567.19	43880.36
567.36	43332.68
567.52	43866.32
567.68	43828.87
567.85	43421.62
568.01	43756.32
568.17	43419.28
568.34	43545.67
568.50	43913.13
568.66	43557.37
568.83	43983.35
568.99	43634.61
569.15	43178.20
569.32	43470.77
569.48	43313.95
569.64	43995.05
569.81	44266.55
569.97	43461.41
570.13	43805.47
570.30	43611.20
570.46	43653.33
570.62	43566.73
570.78	43665.03
570.95	43971.64
571.11	43910.79
571.27	43732.91
571.43	44058.24
571.60	43852.28
571.76	43667.37
571.92	43349.06
572.09	43863.98
572.25	43849.94
572.41	43878.02
572.57	43615.88
572.74	44477.20
572.90	43725.89
573.06	43777.38
573.22	44009.09
573.38	43365.45
573.55	43819.51
573.71	43990.37
573.87	43573.75
574.03	43676.74
574.20	43943.56
574.36	43683.76
574.52	43707.16
574.68	44271.23
574.84	44416.35
575.01	43791.42
575.17	43501.20
575.33	43887.39
575.49	43770.36
575.65	44566.14
575.82	44465.50
575.98	44126.12
576.14	44299.32
576.30	43833.55
576.46	44135.48
576.62	43981.01
576.79	44067.61
576.95	43629.93
577.11	43873.34
577.27	44259.53
577.43	44243.15
577.59	44144.84
577.75	43899.09
577.92	43416.94
578.08	43618.22
578.24	44069.95
578.40	43775.04
578.56	43983.35
578.72	44238.47
578.88	44509.97
579.04	44196.34
579.21	44327.41
579.37	44079.31
579.53	43868.66
579.69	43655.67
579.85	44163.57
580.01	44397.62
580.17	43917.81
580.33	44296.98
580.49	44161.23
580.65	43934.20
580.82	44107.40
580.98	44144.84
581.14	44165.91
581.30	43856.96
581.46	44039.52
581.62	44381.24
581.78	44528.69
581.94	44692.53
582.10	44107.40
582.26	44116.76
582.42	43854.62
582.58	44240.81
582.74	43915.47
582.90	44177.61
583.06	43796.10
583.22	44137.82
583.38	44561.46
583.54	44442.09
583.70	44521.67
583.86	43997.39
584.02	43714.19
584.18	44074.63
584.34	44259.53
584.50	44030.16
584.66	44048.88
584.82	43669.72
584.98	44804.88
585.14	44034.84
585.30	44402.30
585.46	44044.20
585.62	44032.50
585.78	44025.48
585.94	43880.36
586.10	44126.12
586.26	44449.11
586.42	44231.44
586.58	44350.81
586.74	44128.46
586.90	43957.60
587.06	44289.96
587.22	44369.54
587.38	43819.51
587.54	44648.06
587.70	44163.57
587.86	44287.62
588.02	44505.29
588.18	44828.28
588.34	44168.25
588.49	44280.60
588.65	44369.54
588.81	44074.63
588.97	44552.10
589.13	43966.96
589.29	44011.43
589.45	44037.18
589.61	44325.07
589.77	44505.29
589.93	44315.70
590.08	44339.11
590.24	44491.24
590.40	44470.18
590.56	44615.29
590.72	44093.35
590.88	44505.29
591.04	44699.55
591.20	44582.52
591.35	44575.50
591.51	44818.92
591.67	44767.43
591.83	44287.62
591.99	44755.72
592.15	44479.54
592.31	44519.33
592.46	44577.84
592.62	44385.92
592.78	44603.59
592.94	44673.81
593.10	44669.12
593.26	44580.18
593.41	44687.85
593.57	44577.84
593.73	44765.09
593.89	44547.42
594.05	44776.79
594.20	44481.88
594.36	44563.80
594.52	44727.64
594.68	44634.02
594.84	44629.34
594.99	44931.26
595.15	44603.59
595.31	44847.00
595.47	44634.02
595.62	44676.15
595.78	44825.94
595.94	44935.95
596.10	44605.93
596.25	44406.98
596.41	44685.51
596.57	44552.10
596.73	44589.55
596.88	44460.82
597.04	44622.31
597.20	44582.52
597.36	44676.15
597.51	44739.34
597.67	44715.93
597.83	44715.93
597.99	44924.24
598.14	44781.47
598.30	44385.92
598.46	44856.37
598.61	44697.21
598.77	44631.68
598.93	44278.25
599.09	44360.17
599.24	45401.71
599.40	44835.30
599.56	44624.65
599.71	44896.16
599.87	45123.19
600.03	44992.12
600.18	44631.68
600.34	44598.91
600.50	45050.63
600.65	44425.71
600.81	44854.03
600.97	44856.37
601.12	44994.46
601.28	44526.35
601.44	44552.10
601.59	44542.74
601.75	44463.16
601.91	44507.63
602.06	44619.97
602.22	44849.35
602.37	44776.79
602.53	44531.03
602.69	44875.09
602.84	44463.16
603.00	45055.31
603.16	44725.30
603.31	44671.46
603.47	44566.14
603.62	44437.41
603.78	44652.74
603.94	44919.56
604.09	44985.10
604.25	44877.43
604.40	44825.94
604.56	44533.37
604.71	44603.59
604.87	44467.84
605.03	44409.32
605.18	44584.86
605.34	44524.01
605.49	44765.09
605.65	44891.48
605.80	44659.76
605.96	44760.40
606.12	44912.54
606.27	44882.11
606.43	44563.80
606.58	44898.50
606.74	44692.53
606.89	44378.90
607.05	44900.84
607.20	44863.39
607.36	44844.66
607.51	44942.97
607.67	44744.02
607.82	44893.82
607.98	44425.71
608.13	44542.74
608.29	44491.24
608.44	44079.31
608.60	43887.39
608.75	43908.45
608.91	44463.16
609.06	44182.29
609.22	44648.06
609.37	44526.35
609.53	44243.15
609.68	44296.98
609.84	43997.39
609.99	44123.78
610.15	44107.40
610.30	44231.44
610.46	44261.87
610.61	43882.70
610.76	44355.49
610.92	43866.32
611.07	44156.55
611.23	43894.41
611.38	44327.41
611.54	44299.32
611.69	43805.47
611.84	43838.23
612.00	43936.54
612.15	44030.16
612.31	43927.17
612.46	43690.78
612.62	44238.47
612.77	44102.71
612.92	44055.90
613.08	43695.46
613.23	43920.15
613.39	43955.26
613.54	43557.37
613.69	43917.81
613.85	43840.57
614.00	43908.45
614.15	44037.18
614.31	43999.73
614.46	44360.17
614.62	43817.17
614.77	43880.36
614.92	43761.00
615.08	43384.17
615.23	43835.89
615.38	43880.36
615.54	43173.52
615.69	43985.69
615.84	43091.60
616.00	43732.91
616.15	43129.05
616.30	43569.07
616.46	43349.06
616.61	42866.91
616.76	43721.21
616.92	43075.22
617.07	43133.73
617.22	43019.05
617.37	43309.27
617.53	43505.88
617.68	43283.53
617.83	43487.15
617.99	43983.35
618.14	43889.73
618.29	43253.10
618.45	42887.98
618.60	43606.52
618.75	43332.68
618.90	43044.79
619.06	43325.66
619.21	43161.82
619.36	43304.59
619.51	42972.24
619.67	42810.74
619.82	43269.48
619.97	43337.36
620.12	42993.30
620.28	42511.15
620.43	42682.01
620.58	42951.17
620.73	43084.58
620.89	42710.10
621.04	43091.60
621.19	42656.26
621.34	42763.93
621.49	42941.81
621.65	42787.33
621.80	42962.87
621.95	42733.50
622.10	42656.26
622.25	42667.97
622.41	42302.84
622.56	42698.39
622.71	43189.91
622.86	42967.55
623.01	42782.65
623.16	42693.71
623.32	42356.67
623.47	42822.44
623.62	42703.07
623.77	42305.18
623.92	42588.39
624.07	42574.34
624.23	42066.45
624.38	42457.32
624.53	42241.99
624.68	42572.00
624.83	42518.17
624.98	42375.40
625.13	42443.27
625.29	42270.08
625.44	42045.38
625.59	41736.43
625.74	41867.50
625.89	42106.24
626.04	41226.20
626.19	41689.62
626.34	41984.53
626.49	42398.80
626.65	42021.98
626.80	42234.97
626.95	41385.35
627.10	41865.16
627.25	41560.89
627.40	41586.64
627.55	40884.48
627.70	41001.50
627.85	41280.03
628.00	41579.62
628.15	41951.76
628.30	41717.71
628.45	41902.61
628.60	41427.48
628.76	41762.18
628.91	41457.91
629.06	41724.73
629.21	41448.55
629.36	41411.10
629.51	41141.94
629.66	41240.24
629.81	41048.32
629.96	41284.71
630.11	41184.07
630.26	41773.88
630.41	41579.62
630.56	41469.61
630.71	41275.35
630.86	41312.80
631.01	41064.70
631.16	41518.76
631.31	40568.51
631.46	40790.86
631.61	41050.66
631.76	40933.63
631.91	41170.02
632.06	40856.39
632.21	41127.89
632.36	41429.82
632.51	40694.89
632.66	40694.89
632.81	40561.48
632.96	40601.27
633.10	40318.07
633.25	40746.39
633.40	40715.96
633.55	40779.15
633.70	40760.43
633.85	40280.62
634.00	40701.92
634.15	40219.77
634.30	40533.40
634.45	40755.75
634.60	40304.02
634.75	40250.19
634.90	40879.80
635.05	40725.32
635.19	40048.91
635.34	41071.72
635.49	40500.63
635.64	40697.24
635.79	40397.65
635.94	40002.10
636.09	40376.58
636.24	40470.20
636.39	40182.32
636.53	40498.29
636.68	40229.13
636.83	39976.35
636.98	40287.64
637.13	39651.02
637.28	40002.10
637.43	40416.37
637.57	40222.11
637.72	39871.03
637.87	39943.58
638.02	40133.17
638.17	39875.71
638.32	39449.73
638.46	39714.21
638.61	39360.79
638.76	40168.27
638.91	39812.51
639.06	39803.15
639.20	39452.07
639.35	40060.61
639.50	39866.34
639.65	40023.16
639.80	39875.71
639.94	39398.24
640.09	39522.29
640.24	39658.04
640.39	39100.99
640.54	39564.42
640.68	39227.38
640.83	39728.25
640.98	39419.30
641.13	39372.49
641.27	39526.97
641.42	39564.42
641.57	39505.90
641.72	39346.75
641.86	39136.10
642.01	39147.80
642.16	39388.88
642.31	39033.11
642.45	39037.80
642.60	38775.66
642.75	39313.98
642.90	39239.08
643.04	39517.60
643.19	39077.58
643.34	39278.87
643.48	38918.43
643.63	38724.16
643.78	38967.58
643.93	38698.42
644.07	38667.99
644.22	38574.37
644.37	38150.73
644.51	38600.12
644.66	38391.81
644.81	38614.16
644.95	39072.90
645.10	38717.14
645.25	38749.91
645.39	39049.50
645.54	38700.76
645.69	38625.86
645.83	38352.02
645.98	38391.81
646.13	38951.20
646.27	39093.97
646.42	38337.98
646.57	38925.45
646.71	38763.95
646.86	38955.88
647.00	38721.82
647.15	38920.77
647.30	38485.43
647.44	38911.41
647.59	38286.48
647.74	38557.99
647.88	38096.90
648.03	38124.99
648.17	38394.15
648.32	37951.79
648.47	38370.74
648.61	38124.99
648.76	38246.69
648.90	37916.68
649.05	38192.86
649.20	38153.07
649.34	38431.60
649.49	37975.19
649.63	38000.94
649.78	37921.36
649.92	37443.89
650.07	38419.89
650.21	37748.16
650.36	38071.15
650.51	37902.64
650.65	38005.62
650.80	37904.98
650.94	37968.17
651.09	38220.95
651.23	37993.92
651.38	38043.07
651.52	37703.69
651.67	37977.53
651.81	37511.77
651.96	37619.43
652.10	37319.84
652.25	37656.88
652.39	37354.95
652.54	37427.51
652.68	38003.28
652.83	38092.22
652.97	37659.22
653.12	37649.86
653.26	37368.99
653.41	37673.26
653.55	37844.12
653.70	37509.43
653.84	37837.10
653.99	37961.15
654.13	37446.23
654.27	37230.90
654.42	37158.34
654.56	37216.86
654.71	37450.91
654.85	37223.88
655.00	37031.96
655.14	37303.46
655.29	36931.31
655.43	37017.91
655.57	37127.92
655.72	36968.76
655.86	36912.59
656.01	36781.52
656.15	36458.52
656.30	37034.30
656.44	36947.70
656.58	36329.80
656.73	36573.21
656.87	36615.34
657.01	36259.58
657.16	36725.35
657.30	36601.30
657.45	36439.80
657.59	36650.45
657.73	36493.63
657.88	36664.49
658.02	36505.34
658.16	36746.41
658.31	36811.95
658.45	36521.72
658.60	36439.80
658.74	36306.39
658.88	36921.95
659.03	36144.89
659.17	35967.01
659.31	36172.98
659.46	35786.79
659.60	36187.02
659.74	36086.38
659.89	35833.60
660.03	35742.32
660.17	35615.93
660.32	35831.26
660.46	36189.36
660.60	36285.33
660.74	36147.23
660.89	36041.91
661.03	35449.75
661.17	35857.01
661.32	35501.25
661.46	35459.12
661.60	35215.70
661.74	35063.57
661.89	35281.24
662.03	35161.87
662.17	35089.31
662.31	35182.93
662.46	35374.86
662.60	35646.36
662.74	35365.49
662.88	35152.51
663.03	35075.27
663.17	34991.01
663.31	34848.24
663.45	34892.71
663.60	35101.01
663.74	34632.91
663.88	34862.28
664.02	34593.12
664.17	35026.12
664.31	34270.12
664.45	34684.40
664.59	34780.36
664.73	34539.29
664.88	34724.19
665.02	34127.35
665.16	34375.45
665.30	34565.03
665.44	34609.50
665.59	34178.84
665.73	33982.24
665.87	33469.66
666.01	33820.74
666.15	33867.55
666.29	33752.87
666.44	33727.12
666.58	33919.04
666.72	34106.29
666.86	34029.05
667.00	33975.22
667.14	33787.97
667.28	33773.93
667.43	33195.82
667.57	33743.50
667.71	33366.68
667.85	33589.03
667.99	33294.12
668.13	33661.58
668.27	33649.88
668.41	33399.44
668.56	32914.95
668.70	33326.89
668.84	33165.39
668.98	32917.29
669.12	32926.66
669.26	33427.53
669.40	33244.97
669.54	32491.32
669.68	32432.80
669.82	32488.98
669.96	32601.32
670.10	32322.80
670.25	32821.33
670.39	32636.43
670.53	32879.85
670.67	32381.31
670.81	32629.41
670.95	32219.81
671.09	32297.05
671.23	32091.09
671.37	32252.58
671.51	32322.80
671.65	32205.77
671.79	31772.77
671.93	31508.29
672.07	32175.34
672.21	31531.70
672.35	31754.05
672.49	31683.83
672.63	31606.59
672.77	31274.24
672.91	31353.82
673.05	31529.36
673.19	31447.44
673.33	30824.86
673.47	30925.50
673.61	30806.13
673.75	30831.88
673.89	30646.97
674.03	30792.09
674.17	31002.74
674.31	30438.67
674.45	30696.13
674.59	30707.83
674.73	31065.93
674.87	30548.67
675.01	30335.68
675.15	30944.22
675.29	30338.02
675.43	30558.03
675.56	30588.46
675.70	30721.87
675.84	30274.83
675.98	29230.95
676.12	29909.71
676.26	29572.67
676.40	29509.47
676.54	29310.53
676.68	29785.66
676.82	29111.58
676.96	29631.18
677.10	29259.04
677.23	29127.97
677.37	29242.65
677.51	29120.95
677.65	29046.05
677.79	28725.39
677.93	28388.36
678.07	28992.22
678.21	28418.78
678.34	28634.11
678.48	28201.11
678.62	28643.48
678.76	28065.36
678.90	28135.58
679.04	28247.93
679.18	28102.81
679.31	27489.59
679.45	27784.50
679.59	27541.08
679.73	27627.68
679.87	27225.11
680.00	27515.34
680.14	27194.68
680.28	27271.92
680.42	27218.09
680.56	27278.94
680.70	27098.72
680.83	27215.75
680.97	26881.05
681.11	27115.11
681.25	26527.63
681.39	26611.89
681.52	26665.72
681.66	26934.88
681.80	26745.30
681.94	26787.43
682.07	26096.97
682.21	26316.98
682.35	26103.99
682.49	25958.88
682.62	26242.09
682.76	25893.35
682.90	25764.62
683.04	25678.02
683.17	25432.26
683.31	25661.63
683.45	25958.88
683.59	25713.13
683.72	25163.10
683.86	25348.00
684.00	25158.42
684.13	25240.34
684.27	24938.41
684.41	24734.78
684.55	24912.66
684.68	24797.98
684.82	24444.56
684.96	24479.66
685.09	24570.94
685.23	24329.87
685.37	24648.18
685.50	24477.32
685.64	23957.72
685.78	23873.46
685.91	24233.91
686.05	23861.76
686.19	23461.53
686.32	23988.15
686.46	23419.40
686.60	23501.32
686.73	23604.30
686.87	23623.03
687.01	23178.33
687.14	23168.96
687.28	23058.96
687.42	23108.11
687.55	22775.75
687.69	22651.70
687.82	22642.34
687.96	22815.54
688.10	22607.23
688.23	22464.46
688.37	22403.61
688.50	22160.19
688.64	22178.92
688.78	22068.91
688.91	21984.65
689.05	21905.07
689.18	22143.81
689.32	21500.16
689.46	21935.50
689.59	22071.25
689.73	21905.07
689.86	21443.99
690.00	21490.80
690.13	21778.68
690.27	21399.52
690.41	21247.38
690.54	21128.02
690.68	21069.50
690.81	21231.00
690.95	20926.73
691.08	20585.01
691.22	20823.75
691.35	20790.98
691.49	20812.04
691.62	20999.29
691.76	20538.20
691.89	20645.87
692.03	20095.84
692.16	19953.07
692.30	20203.50
692.43	20350.96
692.57	20079.46
692.70	19885.19
692.84	20046.69
692.97	19796.25
693.11	19550.49
693.24	19049.62
693.38	19529.43
693.51	19365.59
693.65	19454.53
693.78	19496.66
693.92	19286.01
694.05	19108.13
694.19	18881.10
694.32	19349.21
694.45	19229.84
694.59	19080.05
694.72	18944.30
694.86	18771.10
694.99	18806.20
695.13	18668.11
695.26	18448.10
695.39	18040.85
695.53	18146.17
695.66	18611.94
695.80	18368.52
695.93	18347.46
696.07	17729.56
696.20	17954.25
696.33	17907.44
696.47	17757.64
696.60	17792.75
696.73	17776.37
696.87	17762.33
697.00	17834.88
697.14	17722.54
697.27	17432.31
697.40	17734.24
697.54	17446.35
697.67	17198.26
697.80	17186.55
697.94	17209.96
698.07	17036.76
698.21	16891.65
698.34	16805.05
698.47	16725.47
698.61	16472.69
698.74	16320.56
698.87	16468.01
699.01	16262.04
699.14	16037.35
699.27	16386.09
699.40	16269.06
699.54	16299.49
699.67	15939.05
699.80	15983.52
699.94	16135.65
700.07	15941.39
700.20	15772.87
700.34	15604.35
700.47	15609.03
700.60	15889.90
700.73	15871.17
700.87	15180.71
701.00	15358.60
701.13	15487.32
701.26	15477.96
701.40	15363.28
701.53	14932.62
701.66	15307.10
701.79	15124.54
701.93	14899.85
702.06	14717.29
702.19	14862.40
702.32	14944.32
702.46	14696.22
702.59	14640.05
702.72	14466.85
702.85	14572.18
702.99	14565.15
703.12	14380.25
703.25	14417.70
703.38	14565.15
703.51	14303.01
703.65	14075.98
703.78	14005.77
703.91	14150.88
704.04	14099.39
704.17	13820.86
704.31	13771.71
704.44	13547.02
704.57	13521.27
704.70	13371.48
704.83	13631.28
704.96	13537.66
705.10	13659.37
705.23	13474.46
>>>>>End Processed Spectral Data<<<<<
