SpectraSuite Data File
++++++++++++++++++++++++++++++++++++
Date: Fri Oct 25 10:47:15 EDT 2013
User: price-jones
Dark Spectrum Present: No
Reference Spectrum Present: No
Number of Sampled Component Spectra: 1
Spectrometers: USB2+H05261
Integration Time (usec): 100000 (USB2+H05261)
Spectra Averaged: 1 (USB2+H05261)
Boxcar Smoothing: 0 (USB2+H05261)
Correct for Electrical Dark: No (USB2+H05261)
Strobe/Lamp Enabled: No (USB2+H05261)
Correct for Detector Non-linearity: No (USB2+H05261)
Correct for Stray Light: No (USB2+H05261)
Number of Pixels in Processed Spectrum: 2048
>>>>>Begin Processed Spectral Data<<<<<
365.73	175.54
365.92	175.54
366.12	175.54
366.32	37.45
366.52	86.60
366.72	18.72
366.91	23.41
367.11	100.64
367.31	65.54
367.51	9.36
367.70	23.41
367.90	95.96
368.10	30.43
368.30	9.36
368.49	39.79
368.69	149.79
368.89	58.51
369.09	7.02
369.28	63.19
369.48	11.70
369.68	32.77
369.87	114.69
370.07	65.54
370.27	159.16
370.47	224.69
370.66	435.34
370.86	440.02
371.06	400.23
371.25	416.62
371.45	440.02
371.65	486.83
371.84	437.68
372.04	489.17
372.24	486.83
372.44	449.38
372.63	430.66
372.83	500.87
373.03	507.90
373.22	414.27
373.42	470.45
373.62	479.81
373.81	550.03
374.01	482.15
374.21	538.32
374.40	535.98
374.60	503.22
374.79	540.66
374.99	505.56
375.19	552.37
375.38	486.83
375.58	592.16
375.78	599.18
375.97	571.09
376.17	540.66
376.37	620.24
376.56	557.05
376.76	587.47
376.95	564.07
377.15	596.84
377.35	620.24
377.54	601.52
377.74	554.71
377.93	526.62
378.13	589.82
378.33	674.07
378.52	615.56
378.72	685.78
378.91	543.00
379.11	641.31
379.31	685.78
379.50	543.00
379.70	653.01
379.89	671.73
380.09	566.41
380.28	667.05
380.48	603.86
380.68	650.67
380.87	629.60
381.07	702.16
381.26	655.35
381.46	650.67
381.65	629.60
381.85	620.24
382.04	622.58
382.24	741.95
382.43	596.84
382.63	662.37
382.83	709.18
383.02	732.59
383.22	725.57
383.41	678.76
383.61	699.82
383.80	753.65
384.00	741.95
384.19	690.46
384.39	706.84
384.58	660.03
384.78	770.04
384.97	727.91
385.17	779.40
385.36	676.41
385.56	725.57
385.75	667.05
385.95	784.08
386.14	692.80
386.34	786.42
386.53	699.82
386.72	723.23
386.92	798.12
387.11	816.85
387.31	891.74
387.50	807.48
387.70	800.46
387.89	723.23
388.09	819.19
388.28	828.55
388.48	800.46
388.67	849.61
388.86	788.76
389.06	898.77
389.25	844.93
389.45	833.23
389.64	830.89
389.84	835.57
390.03	875.36
390.22	894.08
390.42	814.51
390.61	746.63
390.81	835.57
391.00	819.19
391.19	940.90
391.39	837.91
391.58	959.62
391.78	954.94
391.97	875.36
392.16	912.81
392.36	966.64
392.55	896.43
392.75	856.64
392.94	917.49
393.13	821.53
393.33	919.83
393.52	1071.97
393.71	968.98
393.91	1095.37
394.10	1011.11
394.29	1011.11
394.49	990.05
394.68	1036.86
394.88	1071.97
395.07	1107.07
395.26	1076.65
395.46	1057.92
395.65	1121.12
395.84	1125.80
396.04	1123.46
396.23	1078.99
396.42	1032.18
396.62	1142.18
396.81	1163.25
397.00	1093.03
397.19	1214.74
397.39	1165.59
397.58	1188.99
397.77	1196.01
397.97	1118.78
398.16	1240.48
398.35	1228.78
398.55	1219.42
398.74	1247.51
398.93	1282.61
399.12	1299.00
399.32	1193.67
399.51	1280.27
399.70	1273.25
399.90	1362.19
400.09	1322.40
400.28	1334.11
400.47	1303.68
400.67	1404.32
400.86	1427.73
401.05	1423.05
401.24	1364.53
401.44	1469.86
401.63	1385.60
401.82	1444.11
402.01	1387.94
402.21	1411.34
402.40	1441.77
402.59	1514.33
402.78	1394.96
402.97	1437.09
403.17	1497.94
403.36	1476.88
403.55	1493.26
403.74	1568.16
403.93	1551.78
404.13	1523.69
404.32	1547.09
404.51	1533.05
404.70	1703.91
404.89	1666.46
405.09	1678.16
405.28	1570.50
405.47	1565.82
405.66	1664.12
405.85	1687.53
406.05	1654.76
406.24	1724.97
406.43	1692.21
406.62	1671.14
406.81	1818.60
407.00	1753.06
407.20	1696.89
407.39	1708.59
407.58	1858.39
407.77	1856.04
407.96	1865.41
408.15	1900.52
408.34	1853.70
408.54	1863.07
408.73	1926.26
408.92	1830.30
409.11	1898.17
409.30	2050.31
409.49	1928.60
409.68	2005.84
409.87	1865.41
410.07	1930.94
410.26	2026.90
410.45	1954.35
410.64	2106.48
410.83	2071.37
411.02	2031.58
411.21	2197.76
411.40	2141.59
411.59	2230.53
411.78	2289.04
411.98	2083.08
412.17	2197.76
412.36	2235.21
412.55	2375.64
412.74	2232.87
412.93	2424.80
413.12	2230.53
413.31	2300.75
413.50	2310.11
413.69	2422.45
413.88	2385.01
414.07	2434.16
414.26	2532.46
414.45	2392.03
414.64	2544.16
414.83	2576.93
415.02	2609.70
415.22	2679.91
415.41	2614.38
415.60	2679.91
415.79	2698.64
415.98	2705.66
416.17	2766.51
416.36	2766.51
416.55	2710.34
416.74	2696.30
416.93	2740.77
417.12	2726.72
417.31	2827.37
417.50	2895.24
417.69	2988.86
417.88	3075.46
418.07	2911.63
418.26	3021.63
418.45	2949.08
418.64	3075.46
418.83	3014.61
419.02	2949.08
419.21	3096.53
419.39	2986.52
419.58	2963.12
419.77	3096.53
419.96	3220.58
420.15	3145.68
420.34	3061.42
420.53	3117.59
420.72	3243.98
420.91	3267.39
421.10	3276.75
421.29	3293.13
421.48	3148.02
421.67	3239.30
421.86	3251.00
422.05	3206.53
422.24	3307.18
422.43	3318.88
422.61	3384.41
422.80	3302.50
422.99	3377.39
423.18	3279.09
423.37	3431.23
423.56	3372.71
423.75	3286.11
423.94	3288.45
424.13	3080.14
424.32	3218.24
424.50	3438.25
424.69	3424.20
424.88	3499.10
425.07	3307.18
425.26	3398.46
425.45	3316.54
425.64	3342.28
425.83	3375.05
426.01	3398.46
426.20	3426.54
426.39	3456.97
426.58	3391.44
426.77	3412.50
426.96	3330.58
427.15	3445.27
427.33	3384.41
427.52	3604.42
427.71	3604.42
427.90	3520.17
428.09	3536.55
428.28	3698.05
428.46	3555.27
428.65	3630.17
428.84	3679.32
429.03	3681.66
429.22	3611.45
429.40	3719.11
429.59	3672.30
429.78	3581.02
429.97	3454.63
430.16	3548.25
430.34	3693.37
430.53	3840.82
430.72	3691.02
430.91	3747.20
431.10	3763.58
431.28	3894.65
431.47	4021.04
431.66	3992.95
431.85	3829.12
432.03	3997.64
432.22	3967.21
432.41	4042.11
432.60	4105.30
432.79	4042.11
432.97	4119.34
433.16	4105.30
433.35	4124.02
433.54	4177.86
433.72	4042.11
433.91	4117.00
434.10	4044.45
434.28	4060.83
434.47	4109.98
434.66	4222.33
434.85	4191.90
435.03	4196.58
435.22	4156.79
435.41	4276.16
435.59	4404.89
435.78	4322.97
435.97	4437.66
436.16	4299.56
436.34	4273.82
436.53	4542.98
436.72	4585.11
436.90	4437.66
437.09	4442.34
437.28	4229.35
437.46	4554.68
437.65	4327.65
437.84	4571.07
438.02	4463.40
438.21	4564.04
438.40	4489.15
438.58	4629.58
438.77	4660.01
438.96	4608.51
439.14	4697.46
439.33	4685.75
439.52	4856.61
439.70	4959.60
439.89	4891.72
440.08	4856.61
440.26	4947.89
440.45	4905.76
440.63	5170.24
440.82	5088.32
441.01	5149.18
441.19	5170.24
441.38	5219.39
441.57	5355.15
441.75	5275.57
441.94	5373.87
442.12	5303.65
442.31	5444.09
442.50	5511.96
442.68	5343.44
442.87	5423.02
443.05	5308.34
443.24	5528.35
443.43	5481.53
443.61	5516.64
443.80	5792.83
443.98	5490.90
444.17	5270.89
444.35	5561.11
444.54	5626.65
444.73	5659.42
444.91	5598.56
445.10	5502.60
445.28	5544.73
445.47	5600.90
445.65	5533.03
445.84	5575.16
446.02	5729.63
446.21	5465.15
446.39	5561.11
446.58	5757.72
446.77	5692.18
446.95	5425.36
447.14	5619.63
447.32	5781.12
447.51	5540.05
447.69	5689.84
447.88	5605.58
448.06	5708.57
448.25	5535.37
448.43	5696.86
448.62	5593.88
448.80	5820.91
448.99	5607.92
449.17	5834.96
449.36	5874.74
449.54	5907.51
449.73	6080.71
449.91	6045.60
450.10	6071.35
450.28	6127.52
450.46	6092.41
450.65	6038.58
450.83	6076.03
451.02	6249.23
451.20	6263.27
451.39	6171.99
451.57	6186.04
451.76	6134.54
451.94	6181.35
452.13	6253.91
452.31	6188.38
452.49	6024.54
452.68	6242.21
452.86	6305.40
453.05	6253.91
453.23	6424.77
453.42	6354.55
453.60	6377.96
453.78	6558.18
453.97	6155.61
454.15	6406.05
454.34	6347.53
454.52	6544.14
454.70	6548.82
454.89	6370.94
455.07	6427.11
455.26	6602.65
455.44	6623.72
455.62	6668.19
455.81	6567.54
455.99	6612.01
456.17	6691.59
456.36	6853.09
456.54	6808.62
456.73	6988.84
456.91	7019.27
457.09	7049.69
457.28	7206.51
457.46	6923.30
457.64	6810.96
457.83	7019.27
458.01	6963.09
458.19	7066.08
458.38	7019.27
458.56	7075.44
458.74	7061.40
458.93	7176.08
459.11	7178.42
459.29	7157.36
459.48	7243.96
459.66	7262.68
459.84	7321.20
460.03	7419.50
460.21	7370.35
460.39	7426.52
460.57	7494.40
460.76	7276.73
460.94	7400.77
461.12	7375.03
461.31	7499.08
461.49	7482.69
461.67	7522.48
461.85	7632.49
462.04	7510.78
462.22	7871.22
462.40	7793.98
462.59	7817.39
462.77	7623.12
462.95	7658.23
463.13	7812.71
463.32	7747.17
463.50	7784.62
463.68	7887.61
463.86	7770.58
464.05	7733.13
464.23	7779.94
464.41	7873.56
464.59	7632.49
464.78	8002.29
464.96	7875.90
465.14	7730.79
465.32	7852.50
465.50	8011.65
465.69	7943.78
465.87	7896.97
466.05	8196.56
466.23	8013.99
466.41	8091.23
466.60	8243.37
466.78	8030.38
466.96	7971.86
467.14	8168.47
467.32	8180.17
467.51	8217.62
467.69	7943.78
467.87	8145.06
468.05	8372.10
468.23	8257.41
468.41	8238.69
468.60	8299.54
468.78	8477.42
468.96	8329.97
469.14	8280.82
469.32	8557.00
469.50	8322.94
469.69	8606.15
469.87	8732.54
470.05	8528.91
470.23	8430.61
470.41	8367.42
470.59	8655.30
470.77	8753.60
470.95	8861.27
471.14	8769.99
471.32	8816.80
471.50	9062.55
471.68	8828.50
471.86	8875.31
472.04	8889.35
472.22	9102.34
472.40	8765.31
472.58	9041.49
472.77	9132.77
472.95	9315.33
473.13	9647.69
473.31	9228.73
473.49	9104.68
473.67	9219.37
473.85	9462.79
474.03	9439.38
474.21	9624.28
474.39	9628.96
474.57	9575.13
474.75	9596.20
474.93	9727.27
475.12	9743.65
475.30	9956.64
475.48	9738.97
475.66	9762.37
475.84	9914.51
476.02	9856.00
476.20	10047.92
476.38	10284.31
476.56	10490.28
476.74	10279.63
476.92	10127.50
477.10	10377.94
477.28	10665.82
477.46	10668.16
477.64	10593.26
477.82	10874.13
478.00	10934.98
478.18	11077.76
478.36	11063.71
478.54	11105.84
478.72	11335.21
478.90	11023.92
479.08	11358.62
479.26	11452.24
479.44	11545.86
479.62	11702.68
479.80	11747.15
479.98	11908.65
480.16	11913.33
480.34	11868.86
480.52	11843.11
480.70	12142.70
480.88	11887.58
481.06	12180.15
481.24	12156.74
481.41	12400.16
481.59	12578.04
481.77	12657.62
481.95	12730.17
482.13	13069.55
482.31	12535.91
482.49	13078.91
482.67	12774.64
482.85	13144.45
483.03	13261.48
483.21	13390.20
483.39	13603.19
483.57	13540.00
483.74	13664.05
483.92	13675.75
484.10	13528.30
484.28	13980.02
484.46	14148.54
484.64	14396.64
484.82	13846.61
485.00	14312.38
485.18	14647.07
485.35	14668.14
485.53	14778.14
485.71	14623.67
485.89	14855.38
486.07	14895.17
486.25	14918.57
486.43	15002.83
486.61	14977.09
486.78	15335.19
486.96	15712.02
487.14	15604.35
487.32	15723.72
487.50	15782.23
487.68	16025.65
487.85	16493.76
488.03	16472.69
488.21	16369.71
488.39	16652.91
488.57	16758.24
488.75	16802.71
488.92	16875.26
489.10	17142.08
489.28	17055.48
489.46	17355.07
489.64	17013.35
489.81	17532.95
489.99	17666.36
490.17	17788.07
490.35	18260.86
490.53	17921.48
490.70	18104.04
490.88	18256.18
491.06	18483.21
491.24	18682.16
491.41	18782.80
491.59	18700.88
491.77	18663.43
491.95	18817.91
492.13	18822.59
492.30	18998.13
492.48	19377.30
492.66	19250.91
492.84	19318.78
493.01	19599.65
493.19	19845.40
493.37	19906.26
493.54	19943.70
493.72	20203.50
493.90	20067.75
494.08	20219.89
494.25	20730.12
494.43	20409.47
494.61	20774.60
494.79	20704.38
494.96	20828.43
495.14	20924.39
495.32	20865.88
495.49	21125.68
495.67	21345.69
495.85	21221.64
496.02	21539.95
496.20	21387.82
496.38	21991.67
496.55	21848.90
496.73	22356.80
496.91	21790.39
497.09	22228.07
497.26	22307.65
497.44	22429.35
497.62	22466.80
497.79	22562.76
497.97	22567.45
498.14	22916.19
498.32	22892.78
498.50	23068.32
498.67	22988.74
498.85	23194.71
499.03	23342.16
499.20	23300.03
499.38	23342.16
499.56	23786.86
499.73	23616.01
499.91	23651.11
500.08	23831.33
500.26	23466.21
500.44	24177.73
500.61	24084.11
500.79	24208.16
500.97	24168.37
501.14	24137.94
501.32	24540.52
501.49	24219.86
501.67	24725.42
501.84	24638.82
502.02	24449.24
502.20	24996.92
502.37	24870.53
502.55	24868.19
502.72	25032.03
502.90	25104.59
503.07	24819.04
503.25	25366.73
503.43	25434.60
503.60	25481.41
503.78	25624.18
503.95	25666.31
504.13	25736.53
504.30	25783.34
504.48	25750.57
504.65	26068.89
504.83	26164.85
505.01	26246.77
505.18	25867.60
505.36	26583.80
505.53	26277.19
505.71	26377.84
505.88	26576.78
506.06	26218.68
506.23	26874.03
506.41	26600.19
506.58	26513.59
506.76	26904.46
506.93	26906.80
507.11	27103.40
507.28	27166.60
507.46	27037.87
507.63	27072.98
507.81	27601.94
507.98	27402.99
508.16	27433.42
508.33	27449.80
508.50	27821.95
508.68	28060.68
508.85	28189.41
509.03	27985.79
509.20	27999.83
509.38	27922.59
509.55	28290.06
509.73	27681.52
509.90	28540.49
510.08	28027.92
510.25	28521.77
510.42	28559.22
510.60	28865.83
510.77	28863.49
510.95	28851.78
511.12	28814.34
511.30	28898.59
511.47	29167.76
511.64	29078.82
511.82	29350.32
511.99	29027.32
512.17	29401.81
512.34	29230.95
512.51	29696.72
512.69	29605.44
512.86	29429.90
513.04	29675.65
513.21	29670.97
513.38	29769.27
513.56	30045.46
513.73	29415.85
513.90	30092.27
514.08	30183.55
514.25	30291.21
514.43	30153.12
514.60	30291.21
514.77	30157.80
514.95	30382.49
515.12	30426.96
515.29	30478.46
515.47	30719.53
515.64	30789.75
515.81	30689.10
515.99	30717.19
516.16	30749.96
516.33	31077.63
516.51	31075.29
516.68	30986.35
516.85	30675.06
517.03	30843.58
517.20	31136.15
517.37	31119.76
517.54	31360.84
517.72	31339.77
517.89	31248.49
518.06	31552.76
518.24	31370.20
518.41	31756.39
518.58	31398.29
518.75	31655.75
518.93	31903.84
519.10	31964.70
519.27	32266.63
519.45	31934.27
519.62	32027.89
519.79	32290.03
519.96	32266.63
520.14	32884.53
520.31	32098.11
520.48	32657.49
520.65	32442.17
520.83	32844.74
521.00	32655.15
521.17	32723.03
521.34	33172.41
521.52	33149.01
521.69	33076.45
521.86	32723.03
522.03	33170.07
522.20	32957.08
522.38	32964.10
522.55	33680.31
522.72	33537.54
522.89	33289.44
523.07	33319.87
523.24	33219.22
523.41	33752.87
523.58	33748.18
523.75	33982.24
523.92	33802.02
524.10	34150.76
524.27	34120.33
524.44	33858.19
524.61	34106.29
524.78	34618.86
524.96	33954.15
525.13	34586.10
525.30	34553.33
525.47	34632.91
525.64	34330.98
525.81	34342.68
525.98	34873.98
526.16	34288.85
526.33	34389.49
526.50	34904.41
526.67	34448.00
526.84	34286.51
527.01	34401.19
527.18	34803.77
527.36	35049.52
527.53	35569.12
527.70	35372.52
527.87	35292.94
528.04	35283.58
528.21	35213.36
528.38	35119.74
528.55	35269.53
528.72	35498.91
528.89	35700.19
529.07	35400.60
529.24	35299.96
529.41	35683.81
529.58	35459.12
529.75	35665.08
529.92	35625.29
530.09	35503.59
530.26	35892.12
530.43	36374.27
530.60	35901.48
530.77	36086.38
530.94	36364.90
531.11	35957.65
531.28	35903.82
531.46	36547.47
531.63	36559.17
531.80	36367.24
531.97	36119.15
532.14	36196.38
532.31	36594.28
532.48	36905.57
532.65	36804.92
532.82	36638.75
532.99	37022.59
533.16	36580.23
533.33	36786.20
533.50	36694.92
533.67	37071.75
533.84	36919.61
534.01	36858.76
534.18	37165.37
534.35	37181.75
534.52	36943.02
534.69	37085.79
534.86	37626.45
535.03	37392.40
535.20	37570.28
535.37	37457.93
535.54	37912.00
535.71	37493.04
535.88	37691.99
536.05	37434.53
536.22	37902.64
536.38	37699.01
536.55	37907.32
536.72	37876.89
536.89	37373.67
537.06	37565.60
537.23	38213.93
537.40	38036.05
537.57	38014.98
537.74	37673.26
537.91	38464.36
538.08	38192.86
538.25	38176.48
538.42	38050.09
538.59	38359.04
538.75	38052.43
538.92	38225.63
539.09	38354.36
539.26	38094.56
539.43	38249.03
539.60	38405.85
539.77	38363.72
539.94	38897.36
540.11	38536.92
540.28	38607.14
540.44	38522.88
540.61	38380.10
540.78	38452.66
540.95	38859.91
541.12	38433.94
541.29	38609.48
541.46	38440.96
541.62	39292.91
541.79	39075.24
541.96	38742.89
542.13	38967.58
542.30	38948.85
542.47	39243.76
542.63	39009.71
542.80	39234.40
542.97	39522.29
543.14	39426.32
543.31	39426.32
543.48	39833.58
543.64	40095.72
543.81	40093.38
543.98	39887.41
544.15	39423.98
544.32	39854.64
544.48	40343.81
544.65	40009.12
544.82	39594.84
544.99	39714.21
545.16	40194.02
545.32	39608.89
545.49	40584.89
545.66	40105.08
545.83	40067.63
546.00	40334.45
546.16	40062.95
546.33	39894.43
546.50	39950.60
546.67	40184.66
546.83	39981.03
547.00	40205.72
547.17	40133.17
547.34	40306.37
547.50	40837.67
547.67	40486.59
547.84	40458.50
548.00	40856.39
548.17	40891.50
548.34	40620.00
548.51	40982.78
548.67	41055.34
548.84	40828.30
549.01	40851.71
549.18	41242.58
549.34	40765.11
549.51	41205.13
549.68	41139.60
549.84	41486.00
550.01	41069.38
550.18	40989.80
550.34	41186.41
550.51	41214.49
550.68	41350.24
550.84	41163.00
551.01	41336.20
551.18	41132.57
551.34	41214.49
551.51	40842.35
551.68	41036.61
551.84	41148.96
552.01	41406.42
552.18	41226.20
552.34	41141.94
552.51	41600.68
552.68	41303.43
552.84	41736.43
553.01	41708.35
553.18	41565.57
553.34	41446.21
553.51	41631.11
553.67	41544.51
553.84	41804.31
554.01	41979.85
554.17	42209.22
554.34	42075.81
554.51	42005.59
554.67	41860.48
554.84	42082.83
555.00	41956.44
555.17	41883.89
555.33	42244.33
555.50	42117.94
555.67	42295.82
555.83	41773.88
556.00	42169.43
556.16	42499.45
556.33	42220.92
556.50	42277.10
556.66	42059.43
556.83	42178.79
556.99	42333.27
557.16	42471.36
557.32	42167.09
557.49	42286.46
557.65	42410.51
557.82	42099.22
557.98	42686.69
558.15	42469.02
558.32	42408.17
558.48	42342.63
558.65	42616.47
558.81	42710.10
558.98	42185.82
559.14	42609.45
559.31	42356.67
559.47	42543.92
559.64	42689.03
559.80	42574.34
559.97	42866.91
560.13	42518.17
560.30	42621.16
560.46	42359.02
560.63	42377.74
560.79	42960.53
560.96	43278.85
561.12	42520.51
561.29	42721.80
561.45	42923.08
561.61	42705.41
561.78	42995.64
561.94	42337.95
562.11	43393.53
562.27	42890.32
562.44	43096.28
562.60	42815.42
562.77	42990.96
562.93	43323.32
563.10	43227.35
563.26	42761.59
563.42	42953.51
563.59	43070.54
563.75	42784.99
563.92	43445.02
564.08	43068.20
564.24	43276.51
564.41	43227.35
564.57	43168.84
564.74	43311.61
564.90	43435.66
565.07	43131.39
565.23	43056.50
565.39	43056.50
565.56	43306.93
565.72	43372.47
565.88	43545.67
566.05	43002.66
566.21	43012.02
566.38	43143.09
566.54	42857.55
566.70	43323.32
566.87	43667.37
567.03	43468.43
567.19	43789.08
567.36	43466.09
567.52	43374.81
567.68	43393.53
567.85	42993.30
568.01	43421.62
568.17	43344.38
568.34	43842.92
568.50	43356.08
568.66	43370.13
568.83	43702.48
568.99	43178.20
569.15	43508.22
569.32	43306.93
569.48	43288.21
569.64	43690.78
569.81	43709.50
569.97	43861.64
570.13	43323.32
570.30	43374.81
570.46	43484.81
570.62	43271.82
570.78	43159.48
570.95	43021.39
571.11	43903.77
571.27	43622.90
571.43	43250.76
571.60	43622.90
571.76	43250.76
571.92	43180.54
572.09	43931.86
572.25	43522.26
572.41	43339.70
572.57	43653.33
572.74	43782.06
572.90	43353.74
573.06	43473.11
573.22	43892.07
573.38	43243.74
573.55	43538.65
573.71	43819.51
573.87	43737.59
574.03	43484.81
574.20	43896.75
574.36	43496.52
574.52	43550.35
574.68	43966.96
574.84	43917.81
575.01	43658.01
575.17	43749.29
575.33	43667.37
575.49	43667.37
575.65	44369.54
575.82	44406.98
575.98	43622.90
576.14	43861.64
576.30	43765.68
576.46	43641.63
576.62	43971.64
576.79	44055.90
576.95	43470.77
577.11	43929.51
577.27	43739.93
577.43	43566.73
577.59	43903.77
577.75	44093.35
577.92	43929.51
578.08	43655.67
578.24	43597.16
578.40	43807.81
578.56	44048.88
578.72	44385.92
578.88	44069.95
579.04	43814.83
579.21	43793.76
579.37	43814.83
579.53	43735.25
579.69	43440.34
579.85	44247.83
580.01	44107.40
580.17	44163.57
580.33	44198.68
580.49	43931.86
580.65	43833.55
580.82	43831.21
580.98	43814.83
581.14	43807.81
581.30	43786.74
581.46	44210.38
581.62	44320.38
581.78	43999.73
581.94	44453.79
582.10	43966.96
582.26	43950.58
582.42	44140.16
582.58	43856.96
582.74	43452.05
582.90	44226.76
583.06	44144.84
583.22	44282.94
583.38	44280.60
583.54	43908.45
583.70	43936.54
583.86	43906.11
584.02	43756.32
584.18	44360.17
584.34	43564.39
584.50	44451.45
584.66	44364.85
584.82	43353.74
584.98	44261.87
585.14	44292.30
585.30	44357.83
585.46	43920.15
585.62	43948.24
585.78	44329.75
585.94	43445.02
586.10	43779.72
586.26	43978.67
586.42	43882.70
586.58	44229.10
586.74	44367.20
586.90	43782.06
587.06	44301.66
587.22	44240.81
587.38	43714.19
587.54	44020.80
587.70	44355.49
587.86	44411.67
588.02	43880.36
588.18	44273.57
588.34	43934.20
588.49	44072.29
588.65	43959.94
588.81	44114.42
588.97	43990.37
589.13	44020.80
589.29	44353.15
589.45	43887.39
589.61	44055.90
589.77	44341.45
589.93	44463.16
590.08	44430.39
590.24	44371.88
590.40	44067.61
590.56	44133.14
590.72	44362.51
590.88	44240.81
591.04	44020.80
591.20	44524.01
591.35	44591.89
591.51	44580.18
591.67	44786.15
591.83	44783.81
591.99	44168.25
592.15	44416.35
592.31	44456.14
592.46	44320.38
592.62	44367.20
592.78	44701.89
592.94	44072.29
593.10	44472.52
593.26	44406.98
593.41	44418.69
593.57	43875.68
593.73	44133.14
593.89	44222.08
594.05	44493.58
594.20	44399.96
594.36	44275.91
594.52	44928.92
594.68	44456.14
594.84	44591.89
594.99	44491.24
595.15	44385.92
595.31	44767.43
595.47	44280.60
595.62	44760.40
595.78	44554.44
595.94	44573.16
596.10	44573.16
596.25	44830.62
596.41	44849.35
596.57	44353.15
596.73	44369.54
596.88	44271.23
597.04	44666.78
597.20	44238.47
597.36	44793.17
597.51	44252.51
597.67	44591.89
597.83	44821.26
597.99	44671.46
598.14	44755.72
598.30	44708.91
598.46	44505.29
598.61	44535.71
598.77	44294.64
598.93	44367.20
599.09	44378.90
599.24	44921.90
599.40	44732.32
599.56	44507.63
599.71	44566.14
599.87	44683.17
600.03	44133.14
600.18	44538.05
600.34	44704.23
600.50	44418.69
600.65	44296.98
600.81	44884.45
600.97	45017.86
601.12	45052.97
601.28	44828.28
601.44	44561.46
601.59	44786.15
601.75	44629.34
601.91	44559.12
602.06	44538.05
602.22	44854.03
602.37	44409.32
602.53	44580.18
602.69	44814.24
602.84	44835.30
603.00	44641.04
603.16	44692.53
603.31	44011.43
603.47	44821.26
603.62	44526.35
603.78	44563.80
603.94	44343.79
604.09	44718.28
604.25	44949.99
604.40	44816.58
604.56	44634.02
604.71	44903.18
604.87	44561.46
605.03	44725.30
605.18	44236.12
605.34	44783.81
605.49	44343.79
605.65	44376.56
605.80	44879.77
605.96	44619.97
606.12	44521.67
606.27	44755.72
606.43	44362.51
606.58	44060.58
606.74	44435.07
606.89	44474.86
607.05	44367.20
607.20	44348.47
607.36	44395.28
607.51	44790.83
607.67	44776.79
607.82	44205.70
607.98	44404.64
608.13	44711.25
608.29	44458.48
608.44	43873.34
608.60	43683.76
608.75	44051.22
608.91	43962.28
609.06	44313.36
609.22	44664.44
609.37	43878.02
609.53	44315.70
609.68	44383.58
609.84	44051.22
609.99	44016.11
610.15	43997.39
610.30	43992.71
610.46	43557.37
610.61	44252.51
610.76	43861.64
610.92	43756.32
611.07	43636.95
611.23	43772.70
611.38	44388.26
611.54	44039.52
611.69	44191.65
611.84	43725.89
612.00	44053.56
612.15	43686.10
612.31	44189.31
612.46	43538.65
612.62	43878.02
612.77	43711.84
612.92	43945.90
613.08	43463.75
613.23	43908.45
613.39	43667.37
613.54	43435.66
613.69	43374.81
613.85	43660.35
614.00	43688.44
614.15	44561.46
614.31	43892.07
614.46	44184.63
614.62	44140.16
614.77	43580.78
614.92	43393.53
615.08	43800.79
615.23	43782.06
615.38	43407.58
615.54	43150.12
615.69	43594.82
615.84	43030.75
616.00	43402.89
616.15	43749.29
616.30	43098.62
616.46	43679.08
616.61	42632.86
616.76	43363.11
616.92	42934.79
617.07	43491.83
617.22	42810.74
617.37	43138.41
617.53	43021.39
617.68	43292.89
617.83	43482.47
617.99	43311.61
618.14	43381.83
618.29	43220.33
618.45	43175.86
618.60	43061.18
618.75	42815.42
618.90	43288.21
619.06	43384.17
619.21	43419.28
619.36	43285.87
619.51	43030.75
619.67	42920.74
619.82	43002.66
619.97	43063.52
620.12	42766.27
620.28	42415.19
620.43	42728.82
620.58	42567.32
620.73	42518.17
620.89	42569.66
621.04	42775.63
621.19	42501.79
621.34	42890.32
621.49	42424.55
621.65	42391.78
621.80	42628.18
621.95	42429.23
622.10	42560.30
622.25	42373.06
622.41	42370.72
622.56	41773.88
622.71	43063.52
622.86	42366.04
623.01	42513.49
623.16	42735.84
623.32	42469.02
623.47	42824.78
623.62	42466.68
623.77	41991.55
623.92	42447.96
624.07	42218.58
624.23	42075.81
624.38	41907.29
624.53	42312.20
624.68	42103.90
624.83	41963.46
624.98	42099.22
625.13	42295.82
625.29	41785.58
625.44	42000.91
625.59	41853.46
625.74	42256.03
625.89	41942.40
626.04	41383.01
626.19	41853.46
626.34	42089.85
626.49	41764.52
626.65	41717.71
626.80	41916.65
626.95	41560.89
627.10	41649.83
627.25	41448.55
627.40	41378.33
627.55	41034.27
627.70	41109.17
627.85	41287.05
628.00	41303.43
628.15	41769.20
628.30	41691.96
628.45	41832.39
628.60	41661.54
628.76	41558.55
628.91	41724.73
629.06	41453.23
629.21	41427.48
629.36	41144.28
629.51	41284.71
629.66	41008.53
629.81	40996.82
629.96	41043.63
630.11	41380.67
630.26	40978.10
630.41	41064.70
630.56	41315.14
630.71	41530.47
630.86	41263.64
631.01	40924.27
631.16	41043.63
631.31	40720.64
631.46	40711.28
631.61	41020.23
631.76	41270.67
631.91	40561.48
632.06	40596.59
632.21	41420.46
632.36	41013.21
632.51	40315.73
632.66	40919.59
632.81	40360.20
632.96	40933.63
633.10	40566.16
633.25	40638.72
633.40	40720.64
633.55	40591.91
633.70	40713.62
633.85	40437.44
634.00	40760.43
634.15	40266.58
634.30	40175.30
634.45	40222.11
634.60	40486.59
634.75	40371.90
634.90	40407.01
635.05	40404.67
635.19	40170.61
635.34	40891.50
635.49	40137.85
635.64	40254.87
635.79	40322.75
635.94	40266.58
636.09	40002.10
636.24	40172.96
636.39	39777.40
636.53	40383.60
636.68	39957.63
636.83	40037.20
636.98	40271.26
637.13	39966.99
637.28	40189.34
637.43	39833.58
637.57	40123.80
637.72	39805.49
637.87	39910.82
638.02	40266.58
638.17	39711.87
638.32	39309.30
638.46	39529.31
638.61	39957.63
638.76	39482.50
638.91	39351.43
639.06	39807.83
639.20	39435.69
639.35	39629.95
639.50	39402.92
639.65	40119.12
639.80	39690.80
639.94	39360.79
640.09	39096.31
640.24	39016.73
640.39	39529.31
640.54	38955.88
640.68	39601.86
640.83	39241.42
640.98	39089.29
641.13	38937.15
641.27	39531.65
641.42	39501.22
641.57	39515.26
641.72	39372.49
641.86	39075.24
642.01	39105.67
642.16	38710.12
642.31	39049.50
642.45	39131.42
642.60	39056.52
642.75	39639.31
642.90	38518.20
643.04	39152.48
643.19	39182.91
643.34	39035.45
643.48	38934.81
643.63	38672.67
643.78	38845.87
643.93	38789.70
644.07	38340.32
644.22	38796.72
644.37	38550.96
644.51	38363.72
644.66	38284.14
644.81	38466.70
644.95	38902.04
645.10	38419.89
645.25	38787.36
645.39	38696.08
645.54	38773.31
645.69	38504.15
645.83	38426.92
645.98	38464.36
646.13	38405.85
646.27	38511.17
646.42	38602.46
646.57	38541.60
646.71	38499.47
646.86	38485.43
647.00	38635.22
647.15	38810.76
647.30	38302.87
647.44	38452.66
647.59	38298.19
647.74	38082.86
647.88	37741.14
648.03	38082.86
648.17	38232.65
648.32	37956.47
648.47	37867.53
648.61	37809.01
648.76	38237.33
648.90	38321.59
649.05	38307.55
649.20	38391.81
649.34	38024.34
649.49	37792.63
649.63	37930.72
649.78	37869.87
649.92	37986.89
650.07	38115.62
650.21	37750.50
650.36	37647.52
650.51	37392.40
650.65	38024.34
650.80	37933.06
650.94	38337.98
651.09	37970.51
651.23	37738.80
651.38	37762.20
651.52	37790.29
651.67	37933.06
651.81	37982.21
651.96	37247.29
652.10	37764.54
652.25	37233.24
652.39	36994.51
652.54	36879.82
652.68	37390.06
652.83	37727.10
652.97	37979.87
653.12	37305.80
653.26	37408.78
653.41	37448.57
653.55	37249.63
653.70	37380.70
653.84	37263.67
653.99	37411.12
654.13	37380.70
654.27	36992.17
654.42	37046.00
654.56	36959.40
654.71	37275.37
654.85	37186.43
655.00	36844.71
655.14	37242.60
655.29	37003.87
655.43	36762.79
655.57	36589.59
655.72	36697.26
655.86	37022.59
656.01	36697.26
656.15	37099.83
656.30	36762.79
656.44	36603.64
656.58	36488.95
656.73	36701.94
656.87	36577.89
657.01	36411.71
657.16	36910.25
657.30	36282.98
657.45	36371.92
657.59	36598.96
657.73	36266.60
657.88	36311.07
658.02	36128.51
658.16	36339.16
658.31	36034.89
658.45	36594.28
658.60	36079.36
658.74	36315.75
658.88	36198.73
659.03	36280.64
659.17	36065.31
659.31	35847.64
659.46	35997.44
659.60	35704.87
659.74	35775.09
659.89	35957.65
660.03	36041.91
660.17	36041.91
660.32	36079.36
660.46	36079.36
660.60	35559.76
660.74	35835.94
660.89	35779.77
661.03	35473.16
661.17	35592.53
661.32	35051.86
661.46	35115.06
661.60	35262.51
661.74	35625.29
661.89	35407.62
662.03	35693.17
662.17	35365.49
662.31	35194.64
662.46	35248.47
662.60	35534.01
662.74	35351.45
662.88	35215.70
663.03	35058.88
663.17	34813.13
663.31	34726.53
663.45	35243.79
663.60	34991.01
663.74	34642.27
663.88	34459.71
664.02	34677.38
664.17	34469.07
664.31	34359.06
664.45	34309.91
664.59	34426.94
664.73	34443.32
664.88	34150.76
665.02	33947.13
665.16	34040.75
665.30	34162.46
665.44	33769.25
665.59	33577.33
665.73	33610.09
665.87	33783.29
666.01	34199.91
666.15	33642.86
666.29	33656.90
666.44	33621.80
666.58	33766.91
666.72	34029.05
666.86	33802.02
667.00	34092.24
667.14	33752.87
667.28	33624.14
667.43	33226.24
667.57	33509.45
667.71	33397.10
667.85	33251.99
667.99	33415.83
668.13	33191.14
668.27	33303.48
668.41	32692.60
668.56	32601.32
668.70	33132.62
668.84	32643.45
668.98	32776.86
669.12	32720.69
669.26	32966.45
669.40	32657.49
669.54	32694.94
669.68	32589.62
669.82	32903.25
669.96	32510.04
670.10	32542.81
670.25	32711.33
670.39	32807.29
670.53	32072.36
670.67	32116.83
670.81	32531.11
670.95	32393.01
671.09	32540.47
671.23	32610.68
671.37	32210.45
671.51	32063.00
671.65	32067.68
671.79	31489.57
671.93	32079.38
672.07	31892.14
672.21	32140.24
672.35	32093.43
672.49	31402.97
672.63	31859.37
672.77	31342.11
672.91	31398.29
673.05	31367.86
673.19	31173.60
673.33	31131.47
673.47	30955.93
673.61	30888.05
673.75	30913.80
673.89	30707.83
674.03	30480.80
674.17	30728.89
674.31	30593.14
674.45	30719.53
674.59	30204.61
674.73	30745.28
674.87	30459.73
675.01	30925.50
675.15	30635.27
675.29	30958.27
675.43	30232.70
675.56	30033.75
675.70	30391.86
675.84	29991.62
675.98	28739.44
676.12	30008.01
676.26	29851.19
676.40	29305.85
676.54	29701.40
676.68	29415.85
676.82	28861.15
676.96	29240.31
677.10	28924.34
677.23	29053.07
677.37	29181.80
677.51	28926.68
677.65	29039.03
677.79	28877.53
677.93	28467.94
678.07	28680.92
678.21	28547.51
678.34	28332.18
678.48	28203.46
678.62	28189.41
678.76	28278.35
678.90	28004.51
679.04	28112.17
679.18	28678.58
679.31	27983.44
679.45	27524.70
679.59	27325.75
679.73	27630.02
679.87	27386.61
680.00	27541.08
680.14	27264.90
680.28	27456.82
680.42	27140.85
680.56	27157.24
680.70	27171.28
680.83	26892.76
680.97	26867.01
681.11	26867.01
681.25	26356.77
681.39	26703.17
681.52	27096.38
681.66	26338.05
681.80	26419.97
681.94	26068.89
682.07	26405.92
682.21	26113.36
682.35	26143.78
682.49	25745.89
682.62	26249.11
682.76	25879.30
682.90	25649.93
683.04	25486.09
683.17	25656.95
683.31	25511.84
683.45	25589.08
683.59	25518.86
683.72	24940.75
683.86	24781.59
684.00	24657.54
684.13	25088.20
684.27	25130.33
684.41	24933.73
684.55	24800.32
684.68	25085.86
684.82	24592.01
684.96	24671.59
685.09	24648.18
685.23	24290.08
685.37	23967.09
685.50	24442.21
685.64	23889.85
685.78	23882.83
685.91	24121.56
686.05	23573.88
686.19	23168.96
686.32	23606.64
686.46	23810.27
686.60	23185.35
686.73	23623.03
686.87	23271.95
687.01	23274.29
687.14	23229.82
687.28	22672.77
687.42	22857.67
687.55	22548.72
687.69	22920.87
687.82	22979.38
687.96	22838.95
688.10	22513.61
688.23	22422.33
688.37	22199.98
688.50	21982.31
688.64	22160.19
688.78	21963.59
688.91	22284.24
689.05	22246.79
689.18	21982.31
689.32	21539.95
689.46	21869.97
689.59	21752.94
689.73	22104.02
689.86	21486.12
690.00	21659.32
690.13	21628.89
690.27	21626.55
690.41	21312.92
690.54	21123.33
690.68	20912.69
690.81	20774.60
690.95	20823.75
691.08	20503.09
691.22	20725.44
691.35	20994.61
691.49	20971.20
691.62	20638.84
691.76	20540.54
691.89	20301.81
692.03	20250.32
692.16	20224.57
692.30	20020.94
692.43	20152.01
692.57	19552.84
692.70	19683.91
692.84	19662.84
692.97	19623.05
693.11	19805.61
693.24	19566.88
693.38	19276.65
693.51	19538.79
693.65	19477.94
693.78	19213.46
693.92	19494.32
694.05	19014.51
694.19	19213.46
694.32	19073.03
694.45	19126.86
694.59	18705.56
694.72	18930.25
694.86	18644.71
694.99	18691.52
695.13	18415.34
695.26	18211.71
695.39	18218.73
695.53	17837.22
695.66	18328.74
695.80	18239.79
695.93	17886.37
696.07	17783.39
696.20	17748.28
696.33	18040.85
696.47	17738.92
696.60	17441.67
696.73	17818.50
696.87	17558.70
697.00	17261.45
697.14	17495.50
697.27	17542.32
697.40	17481.46
697.54	17209.96
697.67	17121.02
697.80	17003.99
697.94	17125.70
698.07	17048.46
698.21	17006.33
698.34	16833.13
698.47	16856.54
698.61	16350.98
698.74	16479.71
698.87	16409.50
699.01	16374.39
699.14	16257.36
699.27	16053.73
699.40	16290.13
699.54	15700.31
699.67	15756.49
699.80	15939.05
699.94	15953.09
700.07	16070.12
700.20	15833.72
700.34	15648.82
700.47	15833.72
700.60	15686.27
700.73	15932.03
700.87	15468.60
701.00	15475.62
701.13	15215.82
701.26	15360.94
701.40	15286.04
701.53	15243.91
701.66	15000.49
701.79	14775.80
701.93	14916.23
702.06	14747.72
702.19	14902.19
702.32	14923.26
702.46	14473.87
702.59	14860.06
702.72	14717.29
702.85	14567.49
702.99	14618.99
703.12	14448.13
703.25	14391.95
703.38	14476.21
703.51	14265.57
703.65	14031.51
703.78	14026.83
703.91	13963.64
704.04	13926.19
704.17	13902.78
704.31	13898.10
704.44	13626.60
704.57	13465.10
704.70	13078.91
704.83	13451.06
704.96	13650.00
705.10	13582.13
705.23	13336.37
>>>>>End Processed Spectral Data<<<<<
