SpectraSuite Data File
++++++++++++++++++++++++++++++++++++
Date: Fri Oct 25 10:48:12 EDT 2013
User: price-jones
Dark Spectrum Present: No
Reference Spectrum Present: No
Number of Sampled Component Spectra: 1
Spectrometers: USB2+H05261
Integration Time (usec): 100000 (USB2+H05261)
Spectra Averaged: 1 (USB2+H05261)
Boxcar Smoothing: 0 (USB2+H05261)
Correct for Electrical Dark: No (USB2+H05261)
Strobe/Lamp Enabled: No (USB2+H05261)
Correct for Detector Non-linearity: No (USB2+H05261)
Correct for Stray Light: No (USB2+H05261)
Number of Pixels in Processed Spectrum: 2048
>>>>>Begin Processed Spectral Data<<<<<
365.73	81.92
365.92	81.92
366.12	81.92
366.32	110.01
366.52	11.70
366.72	72.56
366.91	35.11
367.11	166.18
367.31	65.54
367.51	11.70
367.70	9.36
367.90	49.15
368.10	77.24
368.30	42.13
368.49	79.58
368.69	100.64
368.89	74.90
369.09	23.41
369.28	72.56
369.48	44.47
369.68	72.56
369.87	140.43
370.07	133.41
370.27	152.13
370.47	236.39
370.66	362.78
370.86	421.30
371.06	528.96
371.25	447.04
371.45	456.40
371.65	477.47
371.84	454.06
372.04	416.62
372.24	531.30
372.44	521.94
372.63	592.16
372.83	531.30
373.03	578.11
373.22	503.22
373.42	484.49
373.62	514.92
373.81	507.90
374.01	521.94
374.21	660.03
374.40	594.50
374.60	580.45
374.79	547.69
374.99	540.66
375.19	594.50
375.38	580.45
375.58	613.22
375.78	580.45
375.97	594.50
376.17	587.47
376.37	641.31
376.56	582.79
376.76	592.16
376.95	627.26
377.15	657.69
377.35	580.45
377.54	573.43
377.74	550.03
377.93	596.84
378.13	631.94
378.33	645.99
378.52	608.54
378.72	674.07
378.91	667.05
379.11	585.13
379.31	648.33
379.50	624.92
379.70	706.84
379.89	699.82
380.09	636.63
380.28	636.63
380.48	662.37
380.68	690.46
380.87	699.82
381.07	683.44
381.26	636.63
381.46	601.52
381.65	763.01
381.85	608.54
382.04	779.40
382.24	653.01
382.43	650.67
382.63	704.50
382.83	662.37
383.02	844.93
383.22	713.86
383.41	676.41
383.61	770.04
383.80	767.70
384.00	753.65
384.19	706.84
384.39	830.89
384.58	786.42
384.78	713.86
384.97	713.86
385.17	812.17
385.36	748.97
385.56	826.21
385.75	830.89
385.95	840.25
386.14	779.40
386.34	807.48
386.53	779.40
386.72	765.36
386.92	884.72
387.11	732.59
387.31	889.40
387.50	830.89
387.70	795.78
387.89	866.00
388.09	779.40
388.28	887.06
388.48	833.23
388.67	821.53
388.86	858.98
389.06	896.43
389.25	891.74
389.45	877.70
389.64	847.27
389.84	926.85
390.03	961.96
390.22	926.85
390.42	919.83
390.61	947.92
390.81	964.30
391.00	875.36
391.19	915.15
391.39	929.19
391.58	943.24
391.78	938.55
391.97	922.17
392.16	915.15
392.36	908.13
392.55	978.34
392.75	976.00
392.94	1027.50
393.13	954.94
393.33	957.28
393.52	922.17
393.71	1088.35
393.91	1020.47
394.10	1109.41
394.29	957.28
394.49	1050.90
394.68	1064.94
394.88	1156.22
395.07	1139.84
395.26	1217.08
395.46	1144.52
395.65	1135.16
395.84	1221.76
396.04	1228.78
396.23	1144.52
396.42	1153.88
396.62	1193.67
396.81	1086.01
397.00	1153.88
397.19	1207.72
397.39	1207.72
397.58	1350.49
397.77	1231.12
397.97	1219.42
398.16	1247.51
398.35	1270.91
398.55	1308.36
398.74	1334.11
398.93	1446.45
399.12	1317.72
399.32	1296.66
399.51	1313.04
399.70	1380.92
399.90	1425.39
400.09	1355.17
400.28	1430.07
400.47	1472.20
400.67	1465.18
400.86	1465.18
401.05	1418.36
401.24	1418.36
401.44	1451.13
401.63	1472.20
401.82	1441.77
402.01	1369.21
402.21	1460.49
402.40	1629.01
402.59	1509.65
402.78	1502.62
402.97	1600.93
403.17	1626.67
403.36	1514.33
403.55	1650.08
403.74	1610.29
403.93	1614.97
404.13	1750.72
404.32	1624.33
404.51	1600.93
404.70	1715.61
404.89	1713.27
405.09	1699.23
405.28	1694.55
405.47	1771.79
405.66	1696.89
405.85	1769.44
406.05	1823.28
406.24	1743.70
406.43	1785.83
406.62	1799.87
406.81	1849.02
407.00	1879.45
407.20	1933.28
407.39	1898.17
407.58	1907.54
407.77	1980.09
407.96	2064.35
408.15	2031.58
408.34	1975.41
408.54	2062.01
408.73	1989.46
408.92	1909.88
409.11	2108.82
409.30	1980.09
409.49	1987.11
409.68	2040.95
409.87	2092.44
410.07	2043.29
410.26	2085.42
410.45	2134.57
410.64	2174.36
410.83	2209.47
411.02	2099.46
411.21	2319.47
411.40	2239.89
411.59	2296.07
411.78	2221.17
411.98	2303.09
412.17	2370.96
412.36	2380.32
412.55	2459.90
412.74	2387.35
412.93	2448.20
413.12	2434.16
413.31	2527.78
413.50	2462.24
413.69	2572.25
413.88	2693.96
414.07	2523.10
414.26	2628.42
414.45	2658.85
414.64	2628.42
414.83	2663.53
415.02	2829.71
415.22	2778.22
415.41	2834.39
415.60	2780.56
415.79	2691.62
415.98	2848.43
416.17	2839.07
416.36	2888.22
416.55	2942.05
416.74	2981.84
416.93	2862.48
417.12	2822.69
417.31	2935.03
417.50	2871.84
417.69	3155.04
417.88	3019.29
418.07	3197.17
418.26	3112.91
418.45	3185.47
418.64	3185.47
418.83	3124.62
419.02	3260.37
419.21	3349.31
419.39	3194.83
419.58	3105.89
419.77	3185.47
419.96	3297.81
420.15	3356.33
420.34	3332.92
420.53	3281.43
420.72	3372.71
420.91	3414.84
421.10	3538.89
421.29	3473.36
421.48	3337.60
421.67	3471.01
421.86	3365.69
422.05	3485.06
422.24	3421.86
422.43	3410.16
422.61	3482.72
422.80	3545.91
422.99	3564.64
423.18	3562.30
423.37	3623.15
423.56	3618.47
423.75	3576.34
423.94	3468.67
424.13	3300.16
424.32	3353.99
424.50	3742.52
424.69	3623.15
424.88	3669.96
425.07	3662.94
425.26	3463.99
425.45	3503.78
425.64	3506.12
425.83	3634.85
426.01	3585.70
426.20	3508.46
426.39	3548.25
426.58	3599.74
426.77	3536.55
426.96	3684.00
427.15	3606.77
427.33	3686.34
427.52	3784.65
427.71	3777.62
427.90	3627.83
428.09	3740.18
428.28	3873.59
428.46	3742.52
428.65	3808.05
428.84	3873.59
429.03	3920.40
429.22	3775.28
429.40	3866.56
429.59	3817.41
429.78	3606.77
429.97	3660.60
430.16	3705.07
430.34	3918.06
430.53	4060.83
430.72	3815.07
430.91	3908.69
431.10	3936.78
431.28	4117.00
431.47	4236.37
431.66	4315.95
431.85	4133.39
432.03	4161.47
432.22	4184.88
432.41	4009.34
432.60	4182.54
432.79	4266.80
432.97	4271.48
433.16	4329.99
433.35	4257.43
433.54	4278.50
433.72	4311.27
433.91	4325.31
434.10	4362.76
434.28	4344.03
434.47	4362.76
434.66	4344.03
434.85	4388.50
435.03	4489.15
435.22	4390.84
435.41	4524.26
435.59	4554.68
435.78	4620.22
435.97	4662.35
436.16	4634.26
436.34	4517.23
436.53	4571.07
436.72	4788.74
436.90	4561.70
437.09	4706.82
437.28	4472.76
437.46	4561.70
437.65	4683.41
437.84	4753.63
438.02	4830.87
438.21	4830.87
438.40	4755.97
438.58	4940.87
438.77	4938.53
438.96	4877.68
439.14	5008.75
439.33	5128.11
439.52	5095.35
439.70	5219.39
439.89	5121.09
440.08	5076.62
440.26	5158.54
440.45	5294.29
440.63	5373.87
440.82	5439.40
441.01	5390.25
441.19	5404.30
441.38	5516.64
441.57	5481.53
441.75	5575.16
441.94	5614.95
442.12	5603.24
442.31	5671.12
442.50	5741.33
442.68	5504.94
442.87	5748.36
443.05	5685.16
443.24	5586.86
443.43	5631.33
443.61	5731.97
443.80	6024.54
443.98	5788.14
444.17	5614.95
444.35	5844.32
444.54	5893.47
444.73	5919.21
444.91	6017.52
445.10	5799.85
445.28	6064.33
445.47	5811.55
445.65	5748.36
445.84	6001.13
446.02	5877.09
446.21	5902.83
446.39	5860.70
446.58	5865.38
446.77	5923.90
446.95	5900.49
447.14	6019.86
447.32	6031.56
447.51	5987.09
447.69	5942.62
447.88	6045.60
448.06	6164.97
448.25	6104.12
448.43	6026.88
448.62	6179.01
448.80	6059.65
448.99	6040.92
449.17	6136.88
449.36	6179.01
449.54	6317.11
449.73	6490.31
449.91	6366.26
450.10	6394.34
450.28	6396.68
450.46	6347.53
450.65	6513.71
450.83	6539.46
451.02	6478.60
451.20	6438.81
451.39	6478.60
451.57	6361.58
451.76	6314.77
451.94	6504.35
452.13	6544.14
452.31	6555.84
452.49	6476.26
452.68	6586.27
452.86	6586.27
453.05	6738.40
453.23	6593.29
453.42	6511.37
453.60	6392.00
453.78	6792.23
453.97	6607.33
454.15	6691.59
454.34	6752.45
454.52	6602.65
454.70	6525.41
454.89	6745.42
455.07	6686.91
455.26	6902.24
455.44	7061.40
455.62	7145.66
455.81	6988.84
455.99	6789.89
456.17	6904.58
456.36	6909.26
456.54	7148.00
456.73	7410.14
456.91	7414.82
457.09	7328.22
457.28	7482.69
457.46	7138.63
457.64	7323.54
457.83	7424.18
458.01	7302.47
458.19	7421.84
458.38	7466.31
458.56	7330.56
458.74	7468.65
458.93	7531.84
459.11	7325.88
459.29	7365.67
459.48	7564.61
459.66	7562.27
459.84	7592.70
460.03	7599.72
460.21	7721.43
460.39	7712.07
460.57	7597.38
460.76	7681.64
460.94	7770.58
461.12	7669.94
461.31	7829.09
461.49	7805.69
461.67	7695.68
461.85	7826.75
462.04	7817.39
462.22	8411.89
462.40	8184.85
462.59	7997.61
462.77	8161.45
462.95	8177.83
463.13	7857.18
463.32	8070.17
463.50	8063.15
463.68	8037.40
463.86	8152.09
464.05	7941.44
464.23	8262.09
464.41	8226.98
464.59	7941.44
464.78	8173.15
464.96	8374.44
465.14	8163.79
465.32	8437.63
465.50	8388.48
465.69	8411.89
465.87	8418.91
466.05	8126.34
466.23	8531.25
466.41	8257.41
466.60	8393.16
466.78	8287.84
466.96	8308.90
467.14	8325.29
467.32	8336.99
467.51	8557.00
467.69	8573.38
467.87	8482.10
468.05	8720.84
468.23	8592.11
468.41	8315.92
468.60	8751.26
468.78	8819.14
468.96	8662.32
469.14	8842.54
469.32	9013.40
469.50	8552.32
469.69	8908.08
469.87	8872.97
470.05	8837.86
470.23	9043.83
470.41	8739.56
470.59	9212.35
470.77	9067.24
470.95	9121.07
471.14	9151.49
471.32	9060.21
471.50	9184.26
471.68	9294.27
471.86	9233.41
472.04	9369.16
472.22	9621.94
472.40	9179.58
472.58	9373.85
472.77	9465.13
472.95	9458.10
473.13	9937.91
473.31	9638.33
473.49	9614.92
473.67	9781.10
473.85	9731.95
474.03	9994.09
474.21	9734.29
474.39	9991.75
474.57	9984.73
474.75	10078.35
474.93	10291.34
475.12	10181.33
475.30	10349.85
475.48	10366.23
475.66	10200.05
475.84	10415.38
476.02	10291.34
476.20	10445.81
476.38	10619.01
476.56	10939.66
476.74	10555.82
476.92	10647.10
477.10	10604.97
477.28	10895.19
477.46	11044.99
477.64	11101.16
477.82	11391.39
478.00	11431.18
478.18	11295.43
478.36	11721.40
478.54	11503.73
478.72	11587.99
478.90	11690.98
479.08	11875.88
479.26	11932.05
479.44	12049.08
479.62	12060.78
479.80	12051.42
479.98	12292.49
480.16	12542.93
480.34	12231.64
480.52	12285.47
480.70	12538.25
480.88	12435.27
481.06	12451.65
481.24	12652.94
481.41	12908.05
481.59	13029.76
481.77	13158.49
481.95	13156.15
482.13	13420.63
482.31	13287.22
482.49	13593.83
482.67	13217.01
482.85	13504.89
483.03	13685.11
483.21	13825.54
483.39	13954.27
483.57	13994.06
483.74	14256.20
483.92	14263.22
484.10	14310.04
484.28	14291.31
484.46	14452.81
484.64	15070.71
484.82	14689.20
485.00	14960.70
485.18	15136.24
485.35	15215.82
485.53	15054.33
485.71	15206.46
485.89	15524.77
486.07	15541.16
486.25	15431.15
486.43	15697.97
486.61	16044.37
486.78	16037.35
486.96	16060.76
487.14	16063.10
487.32	16273.74
487.50	16620.14
487.68	16573.33
487.85	16629.51
488.03	16950.16
488.21	17240.39
488.39	17125.70
488.57	17146.76
488.75	17624.23
488.92	17446.35
489.10	17841.90
489.28	17584.44
489.46	17841.90
489.64	17832.54
489.81	18270.22
489.99	18471.51
490.17	18471.51
490.35	18747.69
490.53	18548.75
490.70	18663.43
490.88	18579.17
491.06	18984.09
491.24	18827.27
491.41	19180.69
491.59	19171.33
491.77	19016.85
491.95	19379.64
492.13	19798.59
492.30	19786.89
492.48	20018.60
492.66	20215.21
492.84	20100.52
493.01	20198.82
493.19	20250.32
493.37	20133.29
493.54	20549.90
493.72	20751.19
493.90	20786.30
494.08	21109.29
494.25	21216.96
494.43	21181.85
494.61	21366.75
494.79	21200.57
494.96	21298.88
495.14	21518.89
495.32	22066.57
495.49	21736.56
495.67	22078.27
495.85	22024.44
496.02	22398.93
496.20	22618.94
496.38	22555.74
496.55	22668.09
496.73	22944.27
496.91	22530.00
497.09	22986.40
497.26	22981.72
497.44	23199.39
497.62	23344.50
497.79	23718.99
497.97	23524.72
498.14	23513.02
498.32	23754.10
498.50	23836.02
498.67	24032.62
498.85	24175.39
499.03	24252.63
499.20	24266.67
499.38	24170.71
499.56	24456.26
499.73	24346.25
499.91	24533.50
500.08	24376.68
500.26	24512.43
500.44	24608.39
500.61	24659.88
500.79	24676.27
500.97	24755.85
501.14	25228.63
501.32	25230.98
501.49	25317.57
501.67	25303.53
501.84	25476.73
502.02	25425.24
502.20	25579.71
502.37	25940.16
502.55	26111.02
502.72	25806.75
502.90	25989.31
503.07	26043.14
503.25	25752.91
503.43	26064.21
503.60	25940.16
503.78	26511.25
503.95	26024.42
504.13	26700.83
504.30	26958.29
504.48	26340.39
504.65	26974.67
504.83	26766.37
505.01	27145.53
505.18	26742.96
505.36	27201.71
505.53	27007.44
505.71	27688.54
505.88	27377.25
506.06	26806.16
506.23	27541.08
506.41	27550.45
506.58	27466.19
506.76	27562.15
506.93	27964.72
507.11	27639.39
507.28	27903.87
507.46	27864.08
507.63	27756.41
507.81	28105.15
507.98	28208.14
508.16	28470.28
508.33	28503.04
508.50	28446.87
508.68	28481.98
508.85	28627.09
509.03	28613.05
509.20	29142.01
509.38	29387.77
509.55	29125.63
509.73	28875.19
509.90	29111.58
510.08	29312.87
510.25	29455.64
510.42	29237.97
510.60	29769.27
510.77	29940.13
510.95	30045.46
511.12	29722.46
511.30	29993.97
511.47	30022.05
511.64	30155.46
511.82	30569.74
511.99	30031.41
512.17	30349.73
512.34	30443.35
512.51	30426.96
512.69	30698.47
512.86	30698.47
513.04	30675.06
513.21	30665.70
513.38	30728.89
513.56	30579.10
513.73	30654.00
513.90	30824.86
514.08	30937.20
514.25	30604.84
514.43	31145.51
514.60	31019.12
514.77	31363.18
514.95	31651.06
515.12	31056.57
515.29	31349.14
515.47	31793.84
515.64	31814.90
515.81	31974.06
515.99	31374.88
516.16	31978.74
516.33	31700.22
516.51	32222.16
516.68	31744.69
516.85	31639.36
517.03	32198.75
517.20	31999.80
517.37	32189.39
517.54	31938.95
517.72	32575.58
517.89	32460.89
518.06	32388.33
518.24	32247.90
518.41	32032.57
518.58	32587.28
518.75	32409.40
518.93	32762.82
519.10	32950.06
519.27	33127.94
519.45	32503.02
519.62	33158.37
519.79	33092.83
519.96	33614.77
520.14	33612.43
520.31	33223.90
520.48	33149.01
520.65	33434.55
520.83	33507.11
521.00	33986.92
521.17	33869.89
521.34	33818.40
521.52	34139.05
521.69	34286.51
521.86	33998.62
522.03	33895.64
522.20	33940.11
522.38	34370.77
522.55	34565.03
522.72	34003.30
522.89	34239.70
523.07	34658.65
523.24	34298.21
523.41	34305.23
523.58	34553.33
523.75	34988.67
523.92	35040.16
524.10	35054.20
524.27	34799.08
524.44	35126.76
524.61	35288.26
524.78	35215.70
524.96	35168.89
525.13	35679.13
525.30	35697.85
525.47	36018.50
525.64	35220.38
525.81	35555.08
525.98	35583.16
526.16	35030.80
526.33	35306.98
526.50	35859.35
526.67	35466.14
526.84	35360.81
527.01	35800.83
527.18	35353.79
527.36	36034.89
527.53	36133.19
527.70	36694.92
527.87	36442.14
528.04	36161.28
528.21	36334.48
528.38	36217.45
528.55	36184.68
528.72	36261.92
528.89	36421.08
529.07	36381.29
529.24	36524.06
529.41	36453.84
529.58	36704.28
529.75	36519.38
529.92	36692.58
530.09	36870.46
530.26	36671.51
530.43	36891.52
530.60	36774.50
530.77	36851.73
530.94	37177.07
531.11	37017.91
531.28	37401.76
531.46	37453.25
531.63	37523.47
531.80	37518.79
531.97	37160.69
532.14	37474.32
532.31	37500.06
532.48	37584.32
532.65	37956.47
532.82	37581.98
532.99	37855.82
533.16	37886.25
533.33	37553.90
533.50	38096.90
533.67	38082.86
533.84	37708.37
534.01	38122.65
534.18	37720.07
534.35	38520.54
534.52	38642.24
534.69	38279.46
534.86	38279.46
535.03	37928.38
535.20	38450.32
535.37	38731.18
535.54	39051.84
535.71	38192.86
535.88	38597.77
536.05	38403.51
536.22	38614.16
536.38	38602.46
536.55	38700.76
536.72	38675.01
536.89	38780.34
537.06	39023.75
537.23	39044.82
537.40	38871.62
537.57	38667.99
537.74	38888.00
537.91	39426.32
538.08	39133.76
538.25	38682.03
538.42	39100.99
538.59	39313.98
538.75	39061.20
538.92	39075.24
539.09	39295.25
539.26	39459.09
539.43	39402.92
539.60	39648.68
539.77	39622.93
539.94	39442.71
540.11	39559.73
540.28	39491.86
540.44	39592.50
540.61	39660.38
540.78	39323.34
540.95	39625.27
541.12	39636.97
541.29	39728.25
541.46	40142.53
541.62	40076.99
541.79	39763.36
541.96	39578.46
542.13	39880.39
542.30	40062.95
542.47	39892.09
542.63	39894.43
542.80	40088.70
542.97	40060.61
543.14	40751.07
543.31	40479.57
543.48	40706.60
543.64	41237.90
543.81	40399.99
543.98	41022.57
544.15	41132.57
544.32	40734.68
544.48	41146.62
544.65	41095.13
544.82	40985.12
544.99	40535.74
545.16	41090.44
545.32	40854.05
545.49	41008.53
545.66	40968.74
545.83	40966.40
546.00	41549.19
546.16	41097.47
546.33	40964.06
546.50	40964.06
546.67	40964.06
546.83	40659.79
547.00	41235.56
547.17	41544.51
547.34	41111.51
547.50	41500.04
547.67	41691.96
547.84	41439.18
548.00	41813.67
548.17	42073.47
548.34	41808.99
548.51	41631.11
548.67	42045.38
548.84	41668.56
549.01	41968.15
549.18	41626.43
549.34	42150.71
549.51	41914.31
549.68	41862.82
549.84	41811.33
550.01	42171.77
550.18	41933.04
550.34	42232.63
550.51	41797.29
550.68	41787.92
550.84	41745.80
551.01	42335.61
551.18	41848.78
551.34	42202.20
551.51	41956.44
551.68	42410.51
551.84	42433.91
552.01	42225.60
552.18	42417.53
552.34	42232.63
552.51	42038.36
552.68	42230.29
552.84	42625.84
553.01	42705.41
553.18	42511.15
553.34	42387.10
553.51	42253.69
553.67	42827.12
553.84	42967.55
554.01	43056.50
554.17	42735.84
554.34	43215.65
554.51	42773.29
554.67	43119.69
554.84	42777.97
555.00	42522.85
555.17	42438.59
555.33	43225.01
555.50	43136.07
555.67	42820.10
555.83	43115.01
556.00	42822.44
556.16	43660.35
556.33	43505.88
556.50	43070.54
556.66	43438.00
556.83	43093.94
556.99	43210.97
557.16	43260.12
557.32	43276.51
557.49	43194.59
557.65	43386.51
557.82	43065.86
557.98	43452.05
558.15	43655.67
558.32	43658.01
558.48	43386.51
558.65	43475.45
558.81	43510.56
558.98	43257.78
559.14	43510.56
559.31	43791.42
559.47	43461.41
559.64	43826.53
559.80	44161.23
559.97	43765.68
560.13	43669.72
560.30	43175.86
560.46	43395.87
560.63	43438.00
560.79	43728.23
560.96	43576.09
561.12	43522.26
561.29	43721.21
561.45	43828.87
561.61	43688.44
561.78	43189.91
561.94	43126.71
562.11	43697.80
562.27	43966.96
562.44	44224.42
562.60	43849.94
562.77	43934.20
562.93	43592.48
563.10	43896.75
563.26	43761.00
563.42	44259.53
563.59	43917.81
563.75	43824.19
563.92	44182.29
564.08	44006.75
564.24	44339.11
564.41	43859.30
564.57	43838.23
564.74	43548.01
564.90	44275.91
565.07	43936.54
565.23	44081.65
565.39	44065.27
565.56	44320.38
565.72	43789.08
565.88	44245.49
566.05	44109.74
566.21	44313.36
566.38	43899.09
566.54	44243.15
566.70	44395.28
566.87	44570.82
567.03	44060.58
567.19	44205.70
567.36	44357.83
567.52	44119.10
567.68	44336.77
567.85	43931.86
568.01	44060.58
568.17	44184.63
568.34	44392.94
568.50	44435.07
568.66	44023.14
568.83	44135.48
568.99	44491.24
569.15	44294.64
569.32	44072.29
569.48	44194.00
569.64	44233.78
569.81	44425.71
569.97	44378.90
570.13	44615.29
570.30	43957.60
570.46	44095.69
570.62	44163.57
570.78	44020.80
570.95	44088.67
571.11	44509.97
571.27	44587.21
571.43	44610.61
571.60	44767.43
571.76	44521.67
571.92	44538.05
572.09	44285.28
572.25	44126.12
572.41	44563.80
572.57	44336.77
572.74	45099.78
572.90	44215.06
573.06	44898.50
573.22	44800.19
573.38	44591.89
573.55	44662.10
573.71	44957.01
573.87	44233.78
574.03	44772.11
574.20	44776.79
574.36	44474.86
574.52	44547.42
574.68	45036.59
574.84	45069.36
575.01	44760.40
575.17	44758.06
575.33	44989.78
575.49	44399.96
575.65	44601.25
575.82	44795.51
575.98	44477.20
576.14	45228.51
576.30	44605.93
576.46	44264.21
576.62	44526.35
576.79	44680.83
576.95	44144.84
577.11	44722.96
577.27	44472.52
577.43	44968.71
577.59	44315.70
577.75	44575.50
577.92	44704.23
578.08	44278.25
578.24	44701.89
578.40	44552.10
578.56	44722.96
578.72	45057.65
578.88	44678.49
579.04	44444.43
579.21	44734.66
579.37	44643.38
579.53	44456.14
579.69	44481.88
579.85	44697.21
580.01	44502.95
580.17	44369.54
580.33	44659.76
580.49	44748.70
580.65	44905.52
580.82	44683.17
580.98	44751.04
581.14	44388.26
581.30	44807.22
581.46	44849.35
581.62	44765.09
581.78	44865.73
581.94	44814.24
582.10	44980.42
582.26	44662.10
582.42	45020.20
582.58	44423.37
582.74	44949.99
582.90	44903.18
583.06	45057.65
583.22	44938.29
583.38	44980.42
583.54	44493.58
583.70	45209.79
583.86	44524.01
584.02	44643.38
584.18	44732.32
584.34	44858.71
584.50	45179.36
584.66	44704.23
584.82	44587.21
584.98	44774.45
585.14	45319.79
585.30	44856.37
585.46	44872.75
585.62	44910.20
585.78	44559.12
585.94	44355.49
586.10	44804.88
586.26	44830.62
586.42	44968.71
586.58	45036.59
586.74	44989.78
586.90	44781.47
587.06	44626.99
587.22	45247.24
587.38	44589.55
587.54	45464.91
587.70	45170.00
587.86	45301.07
588.02	44975.73
588.18	45345.54
588.34	44973.39
588.49	44598.91
588.65	44704.23
588.81	44896.16
588.97	44477.20
589.13	44435.07
589.29	45258.94
589.45	44935.95
589.61	45188.72
589.77	45067.02
589.93	44690.19
590.08	44978.07
590.24	45263.62
590.40	45315.11
590.56	45502.35
590.72	45151.27
590.88	44879.77
591.04	45095.10
591.20	45268.30
591.35	45205.11
591.51	45804.28
591.67	45492.99
591.83	45195.74
591.99	44978.07
592.15	44882.11
592.31	44985.10
592.46	44734.66
592.62	45373.63
592.78	45013.18
592.94	45373.63
593.10	45022.54
593.26	45399.37
593.41	45352.56
593.57	44751.04
593.73	45041.27
593.89	44992.12
594.05	45020.20
594.20	44891.48
594.36	45549.17
594.52	45179.36
594.68	45244.90
594.84	45249.58
594.99	45537.46
595.15	45130.21
595.31	45776.20
595.47	45022.54
595.62	45237.87
595.78	45230.85
595.94	45111.49
596.10	45275.32
596.25	45492.99
596.41	45645.13
596.57	45151.27
596.73	45528.10
596.88	45209.79
597.04	45280.00
597.20	45020.20
597.36	45242.56
597.51	45584.27
597.67	45202.77
597.83	45223.83
597.99	45570.23
598.14	45481.29
598.30	44973.39
598.46	44891.48
598.61	45638.11
598.77	45106.80
598.93	45495.33
599.09	45528.10
599.24	45553.85
599.40	45598.32
599.56	45263.62
599.71	44961.69
599.87	45177.02
600.03	45502.35
600.18	44961.69
600.34	45198.09
600.50	45268.30
600.65	44732.32
600.81	45371.28
600.97	45794.92
601.12	45741.09
601.28	45521.08
601.44	45209.79
601.59	45560.87
601.75	45085.74
601.91	44896.16
602.06	45177.02
602.22	45085.74
602.37	45205.11
602.53	45319.79
602.69	45698.96
602.84	45392.35
603.00	44975.73
603.16	45141.91
603.31	45230.85
603.47	45268.30
603.62	45514.06
603.78	45275.32
603.94	44954.67
604.09	45216.81
604.25	45457.88
604.40	45027.23
604.56	45488.31
604.71	45537.46
604.87	45272.98
605.03	45226.17
605.18	45160.64
605.34	45216.81
605.49	44814.24
605.65	44924.24
605.80	44842.32
605.96	45113.83
606.12	45106.80
606.27	45574.91
606.43	45195.74
606.58	45240.21
606.74	45022.54
606.89	44839.98
607.05	45092.76
607.20	45071.70
607.36	44797.85
607.51	45619.38
607.67	44942.97
607.82	45485.97
607.98	44938.29
608.13	45539.80
608.29	45272.98
608.44	44584.86
608.60	44818.92
608.75	44547.42
608.91	44818.92
609.06	44542.74
609.22	45272.98
609.37	44868.07
609.53	44587.21
609.68	44935.95
609.84	44744.02
609.99	44722.96
610.15	44552.10
610.30	44697.21
610.46	44666.78
610.61	44711.25
610.76	44591.89
610.92	44414.01
611.07	44741.68
611.23	44261.87
611.38	45116.17
611.54	44556.78
611.69	44463.16
611.84	44318.04
612.00	44769.77
612.15	44706.57
612.31	44711.25
612.46	44463.16
612.62	44687.85
612.77	44966.37
612.92	44741.68
613.08	44343.79
613.23	44332.09
613.39	44289.96
613.54	44062.93
613.69	44091.01
613.85	44477.20
614.00	44748.70
614.15	44729.98
614.31	44470.18
614.46	44879.77
614.62	44224.42
614.77	44346.13
614.92	44526.35
615.08	44463.16
615.23	43892.07
615.38	44378.90
615.54	43842.92
615.69	44135.48
615.84	43538.65
616.00	44032.50
616.15	44460.82
616.30	43943.56
616.46	44247.83
616.61	43826.53
616.76	43650.99
616.92	43583.12
617.07	43690.78
617.22	43910.79
617.37	43643.97
617.53	44123.78
617.68	44112.08
617.83	43866.32
617.99	44067.61
618.14	43875.68
618.29	43592.48
618.45	43632.27
618.60	43807.81
618.75	43545.67
618.90	43419.28
619.06	44006.75
619.21	43634.61
619.36	44039.52
619.51	43618.22
619.67	43711.84
619.82	43271.82
619.97	43606.52
620.12	42913.72
620.28	42939.47
620.43	43063.52
620.58	43491.83
620.73	43342.04
620.89	42827.12
621.04	43199.27
621.19	43494.18
621.34	43344.38
621.49	42862.23
621.65	43133.73
621.80	43358.42
621.95	43255.44
622.10	43428.64
622.25	43072.88
622.41	42983.94
622.56	43377.15
622.71	43225.01
622.86	42948.83
623.01	42796.70
623.16	43512.90
623.32	43206.29
623.47	43093.94
623.62	42707.76
623.77	43215.65
623.92	43185.22
624.07	42719.46
624.23	42401.14
624.38	42948.83
624.53	42415.19
624.68	42710.10
624.83	42766.27
624.98	42689.03
625.13	42403.49
625.29	42527.53
625.44	43016.71
625.59	43065.86
625.74	42391.78
625.89	42026.66
626.04	41991.55
626.19	41911.97
626.34	42443.27
626.49	41820.69
626.65	42476.04
626.80	42157.73
626.95	42314.55
627.10	42036.02
627.25	42108.58
627.40	41680.26
627.55	41462.59
627.70	41682.60
627.85	41764.52
628.00	41858.14
628.15	42614.13
628.30	42113.26
628.45	41921.34
628.60	42213.90
628.76	41881.55
628.91	42424.55
629.06	42218.58
629.21	42101.56
629.36	41661.54
629.51	41275.35
629.66	41954.10
629.81	41808.99
629.96	41897.93
630.11	42052.41
630.26	41558.55
630.41	42188.16
630.56	41593.66
630.71	41977.51
630.86	41762.18
631.01	40945.33
631.16	41851.12
631.31	41092.79
631.46	41062.36
631.61	41085.76
631.76	41331.52
631.91	41359.61
632.06	41490.68
632.21	41780.90
632.36	41528.13
632.51	41148.96
632.66	41682.60
632.81	41310.46
632.96	41511.74
633.10	41120.87
633.25	40858.73
633.40	41214.49
633.55	41439.18
633.70	41127.89
633.85	41425.14
634.00	41392.37
634.15	41041.29
634.30	41170.02
634.45	41504.72
634.60	40858.73
634.75	41102.15
634.90	40650.42
635.05	41366.63
635.19	41123.21
635.34	41085.76
635.49	41265.99
635.64	40926.61
635.79	40690.21
635.94	40645.74
636.09	40769.79
636.24	40697.24
636.39	40502.97
636.53	40449.14
636.68	40367.22
636.83	40622.34
636.98	40676.17
637.13	40486.59
637.28	41144.28
637.43	40788.52
637.57	40304.02
637.72	40854.05
637.87	40404.67
638.02	40683.19
638.17	40388.28
638.32	40596.59
638.46	40425.73
638.61	39856.98
638.76	40149.55
638.91	40229.13
639.06	40318.07
639.20	40334.45
639.35	40545.10
639.50	39817.19
639.65	40711.28
639.80	40547.44
639.94	40151.89
640.09	40294.66
640.24	40004.44
640.39	40271.26
640.54	39964.65
640.68	39686.12
640.83	40285.30
640.98	39714.21
641.13	39969.33
641.27	40430.41
641.42	39744.64
641.57	40060.61
641.72	39388.88
641.86	39842.94
642.01	39789.11
642.16	39466.11
642.31	39498.88
642.45	39913.16
642.60	39365.47
642.75	39250.78
642.90	39718.89
643.04	39585.48
643.19	39164.18
643.34	39608.89
643.48	39922.52
643.63	39416.96
643.78	39285.89
643.93	39040.14
644.07	38747.57
644.22	39566.76
644.37	38855.23
644.51	39056.52
644.66	39351.43
644.81	39136.10
644.95	38986.30
645.10	39058.86
645.25	39199.29
645.39	39466.11
645.54	39117.37
645.69	39152.48
645.83	39133.76
645.98	39260.15
646.13	38880.98
646.27	39108.01
646.42	38967.58
646.57	39002.69
646.71	38778.00
646.86	38852.89
647.00	38857.57
647.15	39365.47
647.30	39136.10
647.44	38747.57
647.59	38773.31
647.74	38801.40
647.88	38653.95
648.03	38557.99
648.17	38880.98
648.32	38377.76
648.47	38581.39
648.61	38698.42
648.76	38871.62
648.90	38988.64
649.05	38506.49
649.20	38265.42
649.34	38787.36
649.49	38387.13
649.63	38438.62
649.78	38213.93
649.92	38766.29
650.07	38532.24
650.21	38499.47
650.36	38309.89
650.51	38326.27
650.65	38565.01
650.80	38462.02
650.94	38562.67
651.09	38529.90
651.23	38092.22
651.38	38300.53
651.52	37989.24
651.67	38003.28
651.81	38490.11
651.96	38127.33
652.10	37881.57
652.25	37717.73
652.39	38007.96
652.54	37787.95
652.68	37991.58
652.83	38239.67
652.97	38209.25
653.12	37996.26
653.26	37839.44
653.41	37883.91
653.55	37731.78
653.70	37914.34
653.84	37476.66
653.99	37855.82
654.13	37392.40
654.27	37694.33
654.42	37638.15
654.56	37282.39
654.71	37961.15
654.85	37448.57
655.00	37797.31
655.14	37392.40
655.29	37574.96
655.43	37235.58
655.57	36797.90
655.72	37319.84
655.86	37422.83
656.01	37099.83
656.15	37139.62
656.30	37455.59
656.44	37053.02
656.58	37223.88
656.73	36973.44
656.87	37165.37
657.01	36594.28
657.16	36725.35
657.30	36727.69
657.45	36814.29
657.59	37202.82
657.73	36898.55
657.88	36905.57
658.02	36833.01
658.16	36659.81
658.31	36896.20
658.45	37263.67
658.60	36638.75
658.74	37076.43
658.88	37062.38
659.03	36435.12
659.17	36369.58
659.31	36189.36
659.46	36694.92
659.60	36605.98
659.74	36364.90
659.89	36589.59
660.03	36596.62
660.17	36601.30
660.32	36449.16
660.46	36720.66
660.60	36369.58
660.74	36348.52
660.89	36486.61
661.03	35896.80
661.17	36273.62
661.32	35814.88
661.46	36254.90
661.60	35812.54
661.74	35835.94
661.89	35952.97
662.03	35964.67
662.17	35449.75
662.31	35718.92
662.46	36023.19
662.60	35473.16
662.74	35615.93
662.88	35262.51
663.03	35344.43
663.17	35480.18
663.31	35269.53
663.45	35604.23
663.60	35431.03
663.74	35262.51
663.88	35171.23
664.02	34742.91
664.17	35173.57
664.31	34761.64
664.45	34930.16
664.59	35101.01
664.73	34859.94
664.88	35061.22
665.02	34419.92
665.16	34909.09
665.30	35330.39
665.44	34866.96
665.59	33993.94
665.73	34162.46
665.87	34300.55
666.01	34478.43
666.15	34384.81
666.29	34476.09
666.44	34375.45
666.58	34033.73
666.72	34586.10
666.86	34448.00
667.00	34263.10
667.14	33757.55
667.28	33565.62
667.43	33881.60
667.57	33914.36
667.71	33717.76
667.85	33802.02
667.99	33570.30
668.13	33104.54
668.27	33832.44
668.41	34143.74
668.56	33291.78
668.70	33811.38
668.84	33570.30
668.98	33532.86
669.12	33294.12
669.26	33149.01
669.40	33071.77
669.54	32898.57
669.68	33347.95
669.82	32746.44
669.96	32783.88
670.10	33027.30
670.25	33067.09
670.39	33254.33
670.53	32879.85
670.67	32467.91
670.81	32816.65
670.95	32994.53
671.09	32573.24
671.23	32685.58
671.37	32669.20
671.51	32210.45
671.65	32329.82
671.79	32116.83
671.93	32025.55
672.07	32229.18
672.21	32187.05
672.35	31906.18
672.49	31672.13
672.63	32044.27
672.77	31997.46
672.91	32060.66
673.05	31428.71
673.19	31538.72
673.33	31461.48
673.47	31454.46
673.61	31276.58
673.75	31601.91
673.89	30845.92
674.03	31103.38
674.17	30602.50
674.31	30824.86
674.45	30937.20
674.59	31028.48
674.73	31103.38
674.87	30642.29
675.01	30859.96
675.15	31187.64
675.29	30899.75
675.43	30644.63
675.56	30441.01
675.70	30944.22
675.84	30508.88
675.98	29528.20
676.12	29853.53
676.26	29785.66
676.40	29780.98
676.54	30246.74
676.68	29832.47
676.82	29738.85
676.96	29734.17
677.10	29731.83
677.23	29408.83
677.37	29434.58
677.51	29743.53
677.65	29528.20
677.79	28751.14
677.93	29088.18
678.07	29041.37
678.21	28582.62
678.34	28919.66
678.48	28931.36
678.62	28484.32
678.76	28460.91
678.90	28727.74
679.04	28671.56
679.18	28582.62
679.31	28163.67
679.45	28271.33
679.59	27777.48
679.73	27955.36
679.87	27887.48
680.00	28079.41
680.14	27695.56
680.28	27459.16
680.42	27307.03
680.56	27728.33
680.70	27494.27
680.83	27180.64
680.97	27264.90
681.11	26787.43
681.25	26852.97
681.39	27194.68
681.52	26859.99
681.66	26815.52
681.80	26766.37
681.94	26705.51
682.07	26588.49
682.21	26380.18
682.35	26354.43
682.49	26401.24
682.62	26380.18
682.76	25975.27
682.90	26143.78
683.04	26199.96
683.17	25986.97
683.31	25823.13
683.45	25844.20
683.59	26008.03
683.72	25523.54
683.86	25469.71
684.00	25111.61
684.13	25340.98
684.27	25043.73
684.41	25200.55
684.55	24865.85
684.68	24790.95
684.82	24606.05
684.96	24879.89
685.09	24922.02
685.23	24641.16
685.37	24474.98
685.50	24584.99
685.64	24327.53
685.78	24367.32
685.91	24524.13
686.05	24203.48
686.19	24032.62
686.32	24208.16
686.46	23716.65
686.60	23398.34
686.73	23613.66
686.87	23213.43
687.01	23330.46
687.14	23051.94
687.28	23213.43
687.42	22897.46
687.55	23211.09
687.69	22946.61
687.82	22817.88
687.96	23232.16
688.10	23077.68
688.23	22651.70
688.37	22340.41
688.50	22272.54
688.64	22670.43
688.78	22235.09
688.91	21986.99
689.05	22572.13
689.18	21942.52
689.32	21816.13
689.46	21994.01
689.59	22293.60
689.73	22127.42
689.86	21989.33
690.00	21575.06
690.13	21940.18
690.27	21762.30
690.41	21750.60
690.54	21231.00
690.68	21326.96
690.81	21055.46
690.95	20933.75
691.08	21125.68
691.22	21090.57
691.35	21179.51
691.49	20980.56
691.62	20711.40
691.76	20603.74
691.89	20877.58
692.03	20365.00
692.16	20737.15
692.30	20477.35
692.43	20397.77
692.57	20147.33
692.70	20170.74
692.84	20116.90
692.97	19782.21
693.11	20102.86
693.24	19847.74
693.38	19480.28
693.51	19648.80
693.65	19527.09
693.78	19552.84
693.92	19454.53
694.05	19459.21
694.19	18932.59
694.32	19365.59
694.45	19159.63
694.59	19000.47
694.72	18881.10
694.86	19012.17
694.99	18602.58
695.13	18640.03
695.26	18513.64
695.39	18359.16
695.53	18525.34
695.66	18855.36
695.80	18328.74
695.93	18141.49
696.07	18003.40
696.20	18232.77
696.33	18015.10
696.47	18068.94
696.60	17982.34
696.73	17764.67
696.87	17750.62
697.00	17879.35
697.14	17521.25
697.27	17685.09
697.40	17439.33
697.54	17446.35
697.67	17460.40
697.80	17275.49
697.94	17095.27
698.07	17242.73
698.21	16903.35
698.34	16903.35
698.47	16901.01
698.61	16760.58
698.74	16727.81
698.87	16570.99
699.01	16514.82
699.14	16437.58
699.27	16627.17
699.40	16348.64
699.54	16243.32
699.67	16250.34
699.80	16407.16
699.94	16177.78
700.07	15988.20
700.20	16002.24
700.34	15786.91
700.47	15686.27
700.60	15969.48
700.73	15845.43
700.87	15754.15
701.00	15531.80
701.13	15452.22
701.26	15651.16
701.40	15580.95
701.53	15538.82
701.66	15239.23
701.79	15180.71
701.93	14794.53
702.06	14871.76
702.19	14853.04
702.32	14951.34
702.46	14918.57
702.59	14574.52
702.72	14534.73
702.85	15056.67
702.99	14750.06
703.12	14640.05
703.25	14583.88
703.38	14427.06
703.51	14595.58
703.65	14614.30
703.78	14523.02
703.91	14129.81
704.04	13823.20
704.17	14143.86
704.31	13879.38
704.44	13628.94
704.57	13486.17
704.70	13668.73
704.83	13944.91
704.96	13837.25
705.10	13771.71
705.23	13769.37
>>>>>End Processed Spectral Data<<<<<
