SpectraSuite Data File
++++++++++++++++++++++++++++++++++++
Date: Fri Oct 25 10:47:08 EDT 2013
User: price-jones
Dark Spectrum Present: No
Reference Spectrum Present: No
Number of Sampled Component Spectra: 1
Spectrometers: USB2+H05261
Integration Time (usec): 100000 (USB2+H05261)
Spectra Averaged: 1 (USB2+H05261)
Boxcar Smoothing: 0 (USB2+H05261)
Correct for Electrical Dark: No (USB2+H05261)
Strobe/Lamp Enabled: No (USB2+H05261)
Correct for Detector Non-linearity: No (USB2+H05261)
Correct for Stray Light: No (USB2+H05261)
Number of Pixels in Processed Spectrum: 2048
>>>>>Begin Processed Spectral Data<<<<<
365.73	140.43
365.92	140.43
366.12	140.43
366.32	0.00
366.52	35.11
366.72	35.11
366.91	11.70
367.11	32.77
367.31	49.15
367.51	79.58
367.70	58.51
367.90	46.81
368.10	4.68
368.30	21.06
368.49	4.68
368.69	131.07
368.89	35.11
369.09	25.75
369.28	84.26
369.48	63.19
369.68	51.49
369.87	65.54
370.07	98.30
370.27	208.31
370.47	184.90
370.66	376.83
370.86	397.89
371.06	390.87
371.25	404.91
371.45	411.93
371.65	435.34
371.84	418.96
372.04	465.77
372.24	456.40
372.44	451.72
372.63	454.06
372.83	535.98
373.03	496.19
373.22	493.85
373.42	564.07
373.62	505.56
373.81	528.96
374.01	561.73
374.21	606.20
374.40	568.75
374.60	552.37
374.79	554.71
374.99	491.51
375.19	526.62
375.38	566.41
375.58	685.78
375.78	559.39
375.97	521.94
376.17	660.03
376.37	571.09
376.56	631.94
376.76	545.34
376.95	533.64
377.15	545.34
377.35	554.71
377.54	603.86
377.74	622.58
377.93	531.30
378.13	655.35
378.33	498.53
378.52	594.50
378.72	627.26
378.91	589.82
379.11	580.45
379.31	664.71
379.50	557.05
379.70	723.23
379.89	688.12
380.09	580.45
380.28	603.86
380.48	648.33
380.68	620.24
380.87	589.82
381.07	624.92
381.26	655.35
381.46	671.73
381.65	641.31
381.85	613.22
382.04	692.80
382.24	641.31
382.43	744.29
382.63	730.25
382.83	662.37
383.02	709.18
383.22	746.63
383.41	723.23
383.61	678.76
383.80	702.16
384.00	746.63
384.19	706.84
384.39	765.36
384.58	730.25
384.78	861.32
384.97	812.17
385.17	774.72
385.36	763.01
385.56	657.69
385.75	690.46
385.95	823.87
386.14	816.85
386.34	758.33
386.53	711.52
386.72	777.06
386.92	725.57
387.11	819.19
387.31	774.72
387.50	758.33
387.70	770.04
387.89	805.14
388.09	910.47
388.28	819.19
388.48	858.98
388.67	847.27
388.86	908.13
389.06	861.32
389.25	861.32
389.45	877.70
389.64	851.96
389.84	868.34
390.03	908.13
390.22	931.53
390.42	961.96
390.61	863.66
390.81	779.40
391.00	1006.43
391.19	994.73
391.39	931.53
391.58	912.81
391.78	894.08
391.97	985.37
392.16	945.58
392.36	997.07
392.55	875.36
392.75	961.96
392.94	980.68
393.13	805.14
393.33	901.11
393.52	966.64
393.71	1041.54
393.91	1011.11
394.10	980.68
394.29	1060.26
394.49	1074.31
394.68	1146.86
394.88	1095.37
395.07	1011.11
395.26	1083.67
395.46	1088.35
395.65	1125.80
395.84	1083.67
396.04	1116.44
396.23	1123.46
396.42	1137.50
396.62	1210.06
396.81	1191.33
397.00	1184.31
397.19	1118.78
397.39	1240.48
397.58	1174.95
397.77	1233.46
397.97	1198.35
398.16	1181.97
398.35	1270.91
398.55	1207.72
398.74	1294.32
398.93	1380.92
399.12	1252.19
399.32	1238.14
399.51	1310.70
399.70	1406.66
399.90	1334.11
400.09	1317.72
400.28	1376.24
400.47	1411.34
400.67	1348.15
400.86	1397.30
401.05	1425.39
401.24	1460.49
401.44	1521.35
401.63	1486.24
401.82	1511.99
402.01	1376.24
402.21	1451.13
402.40	1460.49
402.59	1537.73
402.78	1439.43
402.97	1334.11
403.17	1490.92
403.36	1533.05
403.55	1636.03
403.74	1629.01
403.93	1633.69
404.13	1610.29
404.32	1586.88
404.51	1647.74
404.70	1645.40
404.89	1570.50
405.09	1699.23
405.28	1675.82
405.47	1636.03
405.66	1664.12
405.85	1827.96
406.05	1540.07
406.24	1820.94
406.43	1762.42
406.62	1816.26
406.81	1888.81
407.00	1930.94
407.20	1762.42
407.39	1734.34
407.58	1930.94
407.77	1912.22
407.96	1867.75
408.15	1959.03
408.34	2005.84
408.54	1895.83
408.73	1970.73
408.92	1998.82
409.11	1970.73
409.30	1959.03
409.49	2050.31
409.68	2012.86
409.87	1921.58
410.07	2047.97
410.26	2085.42
410.45	2153.29
410.64	2001.16
410.83	2064.35
411.02	2183.72
411.21	2237.55
411.40	2162.66
411.59	2260.96
411.78	2207.13
411.98	2246.91
412.17	2174.36
412.36	2284.36
412.55	2333.51
412.74	2406.07
412.93	2452.88
413.12	2303.09
413.31	2553.52
413.50	2349.90
413.69	2532.46
413.88	2551.18
414.07	2436.50
414.26	2686.94
414.45	2630.76
414.64	2621.40
414.83	2635.44
415.02	2567.57
415.22	2670.55
415.41	2661.19
415.60	2691.62
415.79	2682.25
415.98	2785.24
416.17	2789.92
416.36	2717.36
416.55	2733.75
416.74	2899.92
416.93	2813.32
417.12	2860.13
417.31	2871.84
417.50	2906.95
417.69	2937.37
417.88	2970.14
418.07	2928.01
418.26	2998.23
418.45	2949.08
418.64	3141.00
418.83	3157.38
419.02	3220.58
419.21	3225.26
419.39	3122.27
419.58	3169.09
419.77	3243.98
419.96	3136.32
420.15	3199.51
420.34	3276.75
420.53	3159.72
420.72	3236.96
420.91	3414.84
421.10	3431.23
421.29	3471.01
421.48	3281.43
421.67	3328.24
421.86	3353.99
422.05	3407.82
422.24	3351.65
422.43	3339.94
422.61	3372.71
422.80	3424.20
422.99	3403.14
423.18	3393.78
423.37	3492.08
423.56	3449.95
423.75	3513.14
423.94	3424.20
424.13	3213.56
424.32	3356.33
424.50	3496.76
424.69	3503.78
424.88	3555.27
425.07	3529.53
425.26	3445.27
425.45	3536.55
425.64	3485.06
425.83	3496.76
426.01	3630.17
426.20	3527.19
426.39	3557.61
426.58	3529.53
426.77	3487.40
426.96	3531.87
427.15	3527.19
427.33	3548.25
427.52	3751.88
427.71	3618.47
427.90	3632.51
428.09	3632.51
428.28	3714.43
428.46	3791.67
428.65	3880.61
428.84	3801.03
429.03	3810.39
429.22	3637.19
429.40	3791.67
429.59	3623.15
429.78	3595.06
429.97	3590.38
430.16	3641.87
430.34	3716.77
430.53	3899.33
430.72	3843.16
430.91	3808.05
431.10	3819.75
431.28	4021.04
431.47	4063.17
431.66	3955.51
431.85	4018.70
432.03	4189.56
432.22	4142.75
432.41	4133.39
432.60	4187.22
432.79	4133.39
432.97	4243.39
433.16	4187.22
433.35	4072.53
433.54	4241.05
433.72	4175.52
433.91	4285.52
434.10	4156.79
434.28	4301.90
434.47	4409.57
434.66	4339.35
434.85	4447.02
435.03	4353.40
435.22	4482.13
435.41	4470.42
435.59	4500.85
435.78	4418.93
435.97	4503.19
436.16	4458.72
436.34	4533.62
436.53	4440.00
436.72	4552.34
436.90	4552.34
437.09	4444.68
437.28	4629.58
437.46	4554.68
437.65	4844.91
437.84	4727.88
438.02	4503.19
438.21	4622.56
438.40	4671.71
438.58	4915.12
438.77	4990.02
438.96	4699.80
439.14	4912.78
439.33	5060.24
439.52	4971.30
439.70	4983.00
439.89	5039.17
440.08	5027.47
440.26	4952.57
440.45	4983.00
440.63	5177.26
440.82	5259.18
441.01	5282.59
441.19	5315.36
441.38	5310.68
441.57	5277.91
441.75	5474.51
441.94	5671.12
442.12	5579.84
442.31	5511.96
442.50	5570.48
442.68	5453.45
442.87	5638.35
443.05	5542.39
443.24	5579.84
443.43	5785.80
443.61	5771.76
443.80	5888.79
443.98	5556.43
444.17	5441.75
444.35	5650.05
444.54	5771.76
444.73	5813.89
444.91	5689.84
445.10	5816.23
445.28	5647.71
445.47	5781.12
445.65	5628.99
445.84	5654.73
446.02	5940.28
446.21	5715.59
446.39	5748.36
446.58	5816.23
446.77	5881.77
446.95	5760.06
447.14	5849.00
447.32	5959.00
447.51	5982.41
447.69	6031.56
447.88	5827.93
448.06	5863.04
448.25	5841.98
448.43	5767.08
448.62	5830.27
448.80	5832.62
448.99	6087.73
449.17	6043.26
449.36	5912.19
449.54	5989.43
449.73	6333.49
449.91	6242.21
450.10	6244.55
450.28	6279.66
450.46	6228.17
450.65	6450.52
450.83	6256.25
451.02	6420.09
451.20	6448.18
451.39	6291.36
451.57	6340.51
451.76	6267.95
451.94	6211.78
452.13	6354.55
452.31	6403.71
452.49	6326.47
452.68	6289.02
452.86	6487.96
453.05	6619.04
453.23	6443.49
453.42	6387.32
453.60	6303.06
453.78	6684.57
453.97	6431.79
454.15	6532.44
454.34	6436.47
454.52	6668.19
454.70	6677.55
454.89	6677.55
455.07	6719.68
455.26	6754.79
455.44	6855.43
455.62	6794.58
455.81	6799.26
455.99	6906.92
456.17	6792.23
456.36	6995.86
456.54	6963.09
456.73	6953.73
456.91	7276.73
457.09	7110.55
457.28	7222.89
457.46	7094.16
457.64	7253.32
457.83	6984.16
458.01	7133.95
458.19	7318.86
458.38	7272.04
458.56	7150.34
458.74	7115.23
458.93	7272.04
459.11	7208.85
459.29	7206.51
459.48	7536.52
459.66	7274.38
459.84	7517.80
460.03	7588.02
460.21	7330.56
460.39	7578.65
460.57	7344.60
460.76	7679.30
460.94	7721.43
461.12	7719.09
461.31	7833.77
461.49	7700.36
461.67	7602.06
461.85	7733.13
462.04	7611.42
462.22	8149.75
462.40	7899.31
462.59	7824.41
462.77	7808.03
462.95	7700.36
463.13	8149.75
463.32	7997.61
463.50	8121.66
463.68	7887.61
463.86	8042.08
464.05	7763.56
464.23	7784.62
464.41	8161.45
464.59	7894.63
464.78	8315.92
464.96	8056.12
465.14	7894.63
465.32	7985.91
465.50	8339.33
465.69	8306.56
465.87	8411.89
466.05	8280.82
466.23	8124.00
466.41	8376.78
466.60	8451.67
466.78	8018.68
466.96	8124.00
467.14	8269.11
467.32	8327.63
467.51	8421.25
467.69	8226.98
467.87	8339.33
468.05	8416.57
468.23	8496.14
468.41	8538.27
468.60	8418.91
468.78	8603.81
468.96	8390.82
469.14	8557.00
469.32	8746.58
469.50	8627.21
469.69	8739.56
469.87	8723.18
470.05	8662.32
470.23	8659.98
470.41	8659.98
470.59	8929.14
470.77	8851.91
470.95	8709.13
471.14	8959.57
471.32	8978.30
471.50	9200.65
471.68	9139.79
471.86	9188.94
472.04	9165.54
472.22	9380.87
472.40	9135.11
472.58	9128.09
472.77	9385.55
472.95	9589.17
473.13	9521.30
473.31	9252.14
473.49	9411.29
473.67	9392.57
473.85	9544.70
474.03	9909.83
474.21	9645.35
474.39	10026.86
474.57	9874.72
474.75	9806.84
474.93	9947.28
475.12	9863.02
475.30	10015.15
475.48	9912.17
475.66	10045.58
475.84	10073.67
476.02	10242.18
476.20	10235.16
476.38	10361.55
476.56	10775.83
476.74	10682.20
476.92	10499.64
477.10	10401.34
477.28	10834.34
477.46	10675.18
477.64	10839.02
477.82	11087.12
478.00	11274.36
478.18	11108.18
478.36	11089.46
478.54	11241.59
478.72	11332.87
478.90	11456.92
479.08	11426.50
479.26	11960.14
479.44	11932.05
479.62	11992.90
479.80	11843.11
479.98	11850.13
480.16	12098.23
480.34	12276.11
480.52	12299.52
480.70	12587.40
480.88	12051.42
481.06	12280.79
481.24	12519.53
481.41	12533.57
481.59	12828.48
481.77	12779.32
481.95	12809.75
482.13	13158.49
482.31	13008.70
482.49	13364.46
482.67	13282.54
482.85	13280.20
483.03	13600.85
483.21	13633.62
483.39	13809.16
483.57	13790.44
483.74	13914.48
483.92	14225.78
484.10	13937.89
484.28	14441.11
484.46	14551.11
484.64	14719.63
484.82	14721.97
485.00	14469.19
485.18	14923.26
485.35	14953.68
485.53	14803.89
485.71	14745.38
485.89	15126.88
486.07	14986.45
486.25	15363.28
486.43	15262.63
486.61	15342.21
486.78	15524.77
486.96	15824.36
487.14	15962.45
487.32	15955.43
487.50	16196.51
487.68	16468.01
487.85	16641.21
488.03	16772.28
488.21	16819.09
488.39	16669.30
488.57	16992.29
488.75	16863.56
488.92	17109.32
489.10	17198.26
489.28	17373.80
489.46	17781.05
489.64	17720.20
489.81	18111.07
489.99	17982.34
490.17	18272.56
490.35	18621.30
490.53	18319.37
490.70	18483.21
490.88	18459.81
491.06	18857.70
491.24	18782.80
491.41	19138.56
491.59	18869.40
491.77	18998.13
491.95	19288.35
492.13	19536.45
492.30	19583.26
492.48	19761.14
492.66	19667.52
492.84	19924.98
493.01	20053.71
493.19	19917.96
493.37	20210.53
493.54	20566.29
493.72	20496.07
493.90	20285.42
494.08	20596.71
494.25	20882.26
494.43	21160.78
494.61	21277.81
494.79	21179.51
494.96	21153.76
495.14	21158.44
495.32	21603.14
495.49	21469.73
495.67	21659.32
495.85	21743.58
496.02	21834.86
496.20	21958.91
496.38	22073.59
496.55	22235.09
496.73	22820.22
496.91	22265.52
497.09	22361.48
497.26	22700.86
497.44	22937.25
497.62	22993.42
497.79	23087.04
497.97	22803.84
498.14	23342.16
498.32	23255.56
498.50	23424.08
498.67	23679.20
498.85	23608.98
499.03	23906.23
499.20	23878.15
499.38	24023.26
499.56	24109.86
499.73	23964.75
499.91	23899.21
500.08	24339.23
500.26	23878.15
500.44	24088.79
500.61	24723.08
500.79	24512.43
500.97	24465.62
501.14	24718.40
501.32	24987.56
501.49	24821.38
501.67	24580.31
501.84	25015.65
502.02	25113.95
502.20	25275.45
502.37	25680.36
502.55	25450.99
502.72	25443.96
502.90	25680.36
503.07	25429.92
503.25	25397.15
503.43	26111.02
503.60	25879.30
503.78	26015.05
503.95	26073.57
504.13	26235.06
504.30	26398.90
504.48	26162.51
504.65	26302.94
504.83	26532.31
505.01	26628.27
505.18	26221.02
505.36	26850.63
505.53	26930.20
505.71	26974.67
505.88	27182.98
506.06	26714.87
506.23	27049.57
506.41	27292.99
506.58	27115.11
506.76	27098.72
506.93	27431.08
507.11	27339.80
507.28	27126.81
507.46	27332.78
507.63	27630.02
507.81	27962.38
507.98	27843.01
508.16	27618.32
508.33	28128.56
508.50	28128.56
508.68	28189.41
508.85	28664.54
509.03	28521.77
509.20	28591.98
509.38	28603.69
509.55	28669.22
509.73	28816.68
509.90	28332.18
510.08	28856.46
510.25	28830.72
510.42	28673.90
510.60	29057.75
510.77	28753.48
510.95	29682.67
511.12	29057.75
511.30	29324.57
511.47	29764.59
511.64	29282.44
511.82	29797.36
511.99	29483.73
512.17	29649.91
512.34	29504.79
512.51	30038.44
512.69	30164.82
512.86	30228.02
513.04	30221.00
513.21	30459.73
513.38	30199.93
513.56	30265.47
513.73	30361.43
513.90	30600.16
514.08	30448.03
514.25	30562.72
514.43	30532.29
514.60	31007.42
514.77	30991.03
514.95	31229.77
515.12	30920.82
515.29	30864.64
515.47	31218.07
515.64	31215.72
515.81	31358.50
515.99	31087.00
516.16	31512.97
516.33	31351.48
516.51	31208.70
516.68	31119.76
516.85	31239.13
517.03	31335.09
517.20	31924.91
517.37	31704.90
517.54	31983.42
517.72	31491.91
517.89	31913.20
518.06	31889.80
518.24	31861.71
518.41	31988.10
518.58	32058.32
518.75	31693.19
518.93	32620.05
519.10	32041.93
519.27	32608.34
519.45	32573.24
519.62	32980.49
519.79	32624.73
519.96	32882.19
520.14	33460.30
520.31	32891.55
520.48	32886.87
520.65	33081.13
520.83	33462.64
521.00	33134.96
521.17	33181.77
521.34	33460.30
521.52	33472.00
521.69	33493.07
521.86	33429.87
522.03	33645.20
522.20	33596.05
522.38	33837.12
522.55	33844.15
522.72	33682.65
522.89	33766.91
523.07	34382.47
523.24	34047.77
523.41	34529.92
523.58	34665.67
523.75	34438.64
523.92	34277.15
524.10	34548.65
524.27	34473.75
524.44	34714.83
524.61	35030.80
524.78	34719.51
524.96	34796.74
525.13	34948.88
525.30	35206.34
525.47	35227.40
525.64	35058.88
525.81	35140.80
525.98	34991.01
526.16	34670.36
526.33	35204.00
526.50	35395.92
526.67	35133.78
526.84	35365.49
527.01	35260.17
527.18	35454.44
527.36	35363.15
527.53	35646.36
527.70	35842.96
527.87	35988.08
528.04	35751.68
528.21	35828.92
528.38	35765.73
528.55	36325.11
528.72	36369.58
528.89	36121.49
529.07	36254.90
529.24	35622.95
529.41	36119.15
529.58	35931.90
529.75	36088.72
529.92	36203.41
530.09	36229.15
530.26	36708.96
530.43	36800.24
530.60	36416.40
530.77	36371.92
530.94	36500.65
531.11	36292.35
531.28	36835.35
531.46	36910.25
531.63	36720.66
531.80	36648.11
531.97	37055.36
532.14	36830.67
532.31	36790.88
532.48	36952.38
532.65	37319.84
532.82	37003.87
532.99	37476.66
533.16	37158.34
533.33	36999.19
533.50	37727.10
533.67	37640.50
533.84	37017.91
534.01	37560.92
534.18	37228.56
534.35	37649.86
534.52	37647.52
534.69	37603.05
534.86	38188.18
535.03	37769.22
535.20	37703.69
535.37	38260.74
535.54	38396.49
535.71	37729.44
535.88	37855.82
536.05	37963.49
536.22	37942.42
536.38	38356.70
536.55	38281.80
536.72	38345.00
536.89	37687.31
537.06	38178.82
537.23	38305.21
537.40	38213.93
537.57	38600.12
537.74	38466.70
537.91	38635.22
538.08	38724.16
538.25	38682.03
538.42	38628.20
538.59	38986.30
538.75	38576.71
538.92	38799.06
539.09	39049.50
539.26	38892.68
539.43	39215.68
539.60	39000.35
539.77	39133.76
539.94	38965.24
540.11	38937.15
540.28	38724.16
540.44	38808.42
540.61	39129.08
540.78	38904.38
540.95	39456.75
541.12	38941.83
541.29	39091.63
541.46	39222.70
541.62	39625.27
541.79	39442.71
541.96	39351.43
542.13	39363.13
542.30	39548.03
542.47	39608.89
542.63	39325.68
542.80	40020.82
542.97	39807.83
543.14	39861.66
543.31	39959.97
543.48	40194.02
543.64	40935.97
543.81	40254.87
543.98	40521.69
544.15	40418.71
544.32	40512.33
544.48	40842.35
544.65	40566.16
544.82	40488.93
544.99	39913.16
545.16	40549.78
545.32	40198.70
545.49	40910.22
545.66	40889.16
545.83	40818.94
546.00	40879.80
546.16	40701.92
546.33	40938.31
546.50	40486.59
546.67	40371.90
546.83	40821.28
547.00	41146.62
547.17	40713.62
547.34	40870.43
547.50	40877.46
547.67	41453.23
547.84	40692.55
548.00	41584.30
548.17	41186.41
548.34	41024.91
548.51	41174.70
548.67	41441.53
548.84	41624.09
549.01	41186.41
549.18	41249.60
549.34	41130.23
549.51	41776.22
549.68	41638.13
549.84	41233.22
550.01	41860.48
550.18	41242.58
550.34	41172.36
550.51	41474.29
550.68	41577.28
550.84	41214.49
551.01	41614.72
551.18	41659.20
551.34	41750.48
551.51	41614.72
551.68	42113.26
551.84	42033.68
552.01	42078.15
552.18	41897.93
552.34	41680.26
552.51	41706.01
552.68	42256.03
552.84	42178.79
553.01	42220.92
553.18	41918.99
553.34	42047.72
553.51	41977.51
553.67	42291.14
553.84	42384.76
554.01	42513.49
554.17	42679.67
554.34	42504.13
554.51	42286.46
554.67	42368.38
554.84	42361.36
555.00	42260.71
555.17	42398.80
555.33	42586.05
555.50	42354.33
555.67	42272.42
555.83	42354.33
556.00	42775.63
556.16	42799.04
556.33	42679.67
556.50	42939.47
556.66	42892.66
556.83	42576.69
556.99	43393.53
557.16	43129.05
557.32	42925.42
557.49	43054.15
557.65	42586.05
557.82	42852.87
557.98	42253.69
558.15	42787.33
558.32	43262.46
558.48	43269.48
558.65	42801.38
558.81	42988.62
558.98	43042.45
559.14	42738.18
559.31	43089.26
559.47	43098.62
559.64	43318.64
559.80	43185.22
559.97	42831.80
560.13	43023.73
560.30	43311.61
560.46	42876.27
560.63	43103.31
560.79	42897.34
560.96	43653.33
561.12	43061.18
561.29	43236.72
561.45	43206.29
561.61	43086.92
561.78	43133.73
561.94	43199.27
562.11	43154.80
562.27	43255.44
562.44	43601.84
562.60	43707.16
562.77	43328.00
562.93	43026.07
563.10	43730.57
563.26	43147.78
563.42	43814.83
563.59	43505.88
563.75	43388.85
563.92	43756.32
564.08	43665.03
564.24	43714.19
564.41	44034.84
564.57	44095.69
564.74	43807.81
564.90	43849.94
565.07	43622.90
565.23	43772.70
565.39	43475.45
565.56	43976.33
565.72	43349.06
565.88	43873.34
566.05	43498.86
566.21	43903.77
566.38	43695.46
566.54	43838.23
566.70	43737.59
566.87	44463.16
567.03	43985.69
567.19	44243.15
567.36	43791.42
567.52	43573.75
567.68	43931.86
567.85	44149.53
568.01	43590.14
568.17	43786.74
568.34	43899.09
568.50	44032.50
568.66	43915.47
568.83	43585.46
568.99	43704.82
569.15	43833.55
569.32	43910.79
569.48	43400.55
569.64	44158.89
569.81	43861.64
569.97	43976.33
570.13	44053.56
570.30	43906.11
570.46	43704.82
570.62	43679.08
570.78	44041.86
570.95	43718.87
571.11	44226.76
571.27	44196.34
571.43	43955.26
571.60	44306.34
571.76	43639.29
571.92	44093.35
572.09	43887.39
572.25	43962.28
572.41	44041.86
572.57	44374.22
572.74	44538.05
572.90	44453.79
573.06	44098.03
573.22	44467.84
573.38	44236.12
573.55	44025.48
573.71	44308.68
573.87	44165.91
574.03	43908.45
574.20	44374.22
574.36	44212.72
574.52	44397.62
574.68	44533.37
574.84	44121.44
575.01	44179.95
575.17	44016.11
575.33	44399.96
575.49	44154.21
575.65	44346.13
575.82	44615.29
575.98	44486.56
576.14	44612.95
576.30	44332.09
576.46	44168.25
576.62	44037.18
576.79	44158.89
576.95	43786.74
577.11	44109.74
577.27	44418.69
577.43	44533.37
577.59	44385.92
577.75	44423.37
577.92	44294.64
578.08	44226.76
578.24	43821.85
578.40	44531.03
578.56	44236.12
578.72	44261.87
578.88	44479.54
579.04	44275.91
579.21	44376.56
579.37	44280.60
579.53	43906.11
579.69	43985.69
579.85	44552.10
580.01	44877.43
580.17	44435.07
580.33	44729.98
580.49	44779.13
580.65	44350.81
580.82	44334.43
580.98	44512.31
581.14	44168.25
581.30	44481.88
581.46	44123.78
581.62	44215.06
581.78	44516.99
581.94	44547.42
582.10	44128.46
582.26	44760.40
582.42	44355.49
582.58	44507.63
582.74	44086.33
582.90	44519.33
583.06	44414.01
583.22	44694.87
583.38	44912.54
583.54	44350.81
583.70	44839.98
583.86	44285.28
584.02	44002.07
584.18	44414.01
584.34	44725.30
584.50	44561.46
584.66	44334.43
584.82	44509.97
584.98	44556.78
585.14	44362.51
585.30	44264.21
585.46	44383.58
585.62	44428.05
585.78	44201.02
585.94	44067.61
586.10	44367.20
586.26	44470.18
586.42	44437.41
586.58	44357.83
586.74	44416.35
586.90	44378.90
587.06	44114.42
587.22	44435.07
587.38	44243.15
587.54	44783.81
587.70	44467.84
587.86	44526.35
588.02	44676.15
588.18	45216.81
588.34	44615.29
588.49	44360.17
588.65	44266.55
588.81	44041.86
588.97	44570.82
589.13	44329.75
589.29	44467.84
589.45	44844.66
589.61	44914.88
589.77	44781.47
589.93	44444.43
590.08	44708.91
590.24	44907.86
590.40	45076.38
590.56	44802.53
590.72	44884.45
590.88	44739.34
591.04	44877.43
591.20	45207.45
591.35	44903.18
591.51	45123.19
591.67	45043.61
591.83	44882.11
591.99	44631.68
592.15	44388.26
592.31	44832.96
592.46	44767.43
592.62	44690.19
592.78	45045.95
592.94	44865.73
593.10	44591.89
593.26	44863.39
593.41	44446.77
593.57	44538.05
593.73	44456.14
593.89	44793.17
594.05	44673.81
594.20	44839.98
594.36	45172.34
594.52	44928.92
594.68	44982.76
594.84	44678.49
594.99	45280.00
595.15	44814.24
595.31	45071.70
595.47	45347.88
595.62	44793.17
595.78	44992.12
595.94	44875.09
596.10	45240.21
596.25	45146.59
596.41	44910.20
596.57	44816.58
596.73	44985.10
596.88	44589.55
597.04	44847.00
597.20	44872.75
597.36	44821.26
597.51	44985.10
597.67	44360.17
597.83	44692.53
597.99	45015.52
598.14	44816.58
598.30	45326.81
598.46	44683.17
598.61	44697.21
598.77	44083.99
598.93	44708.91
599.09	44802.53
599.24	45153.62
599.40	45078.72
599.56	45237.87
599.71	44779.13
599.87	45556.19
600.03	44842.32
600.18	44861.05
600.34	45010.84
600.50	45078.72
600.65	45261.28
600.81	45050.63
600.97	45202.77
601.12	45481.29
601.28	45209.79
601.44	45001.48
601.59	45368.94
601.75	44772.11
601.91	44729.98
602.06	44861.05
602.22	44821.26
602.37	44964.03
602.53	44861.05
602.69	45368.94
602.84	45020.20
603.00	45191.06
603.16	44643.38
603.31	44811.90
603.47	44772.11
603.62	44631.68
603.78	45312.77
603.94	45104.46
604.09	45050.63
604.25	45270.64
604.40	45200.43
604.56	44875.09
604.71	44921.90
604.87	44397.62
605.03	44851.69
605.18	44603.59
605.34	44767.43
605.49	44313.36
605.65	45258.94
605.80	44921.90
605.96	44678.49
606.12	44907.86
606.27	45340.86
606.43	44896.16
606.58	44823.60
606.74	44774.45
606.89	44559.12
607.05	44851.69
607.20	44395.28
607.36	44818.92
607.51	45109.14
607.67	45013.18
607.82	44671.46
607.98	44411.67
608.13	44369.54
608.29	44584.86
608.44	44531.03
608.60	43948.24
608.75	44388.26
608.91	44336.77
609.06	44603.59
609.22	44842.32
609.37	44519.33
609.53	44769.77
609.68	44626.99
609.84	44509.97
609.99	44442.09
610.15	44516.99
610.30	44570.82
610.46	44149.53
610.61	44177.61
610.76	44676.15
610.92	44601.25
611.07	44381.24
611.23	44147.18
611.38	44275.91
611.54	44191.65
611.69	43966.96
611.84	44114.42
612.00	43800.79
612.15	44123.78
612.31	44435.07
612.46	44250.17
612.62	44701.89
612.77	43711.84
612.92	44645.72
613.08	43992.71
613.23	44217.40
613.39	44128.46
613.54	44083.99
613.69	43959.94
613.85	44018.46
614.00	44222.08
614.15	44442.09
614.31	43899.09
614.46	44198.68
614.62	44318.04
614.77	44224.42
614.92	44182.29
615.08	43620.56
615.23	43894.41
615.38	44023.14
615.54	43737.59
615.69	43426.30
615.84	43440.34
616.00	43676.74
616.15	43880.36
616.30	43711.84
616.46	43395.87
616.61	43330.34
616.76	43611.20
616.92	43555.03
617.07	43641.63
617.22	43152.46
617.37	43271.82
617.53	43648.65
617.68	43658.01
617.83	43363.11
617.99	43655.67
618.14	43938.88
618.29	43313.95
618.45	43063.52
618.60	43168.84
618.75	43194.59
618.90	43386.51
619.06	43398.21
619.21	42969.90
619.36	43536.30
619.51	42997.98
619.67	42864.57
619.82	43325.66
619.97	43522.26
620.12	43049.47
620.28	43269.48
620.43	42880.95
620.58	43089.26
620.73	42761.59
620.89	42859.89
621.04	43023.73
621.19	42967.55
621.34	42831.80
621.49	43103.31
621.65	42752.23
621.80	43253.10
621.95	42808.40
622.10	42958.19
622.25	42724.14
622.41	42611.79
622.56	42653.92
622.71	42946.49
622.86	42878.61
623.01	43049.47
623.16	43227.35
623.32	42887.98
623.47	42749.88
623.62	42775.63
623.77	42466.68
623.92	42099.22
624.07	42012.62
624.23	42405.83
624.38	42277.10
624.53	42600.09
624.68	42497.11
624.83	42424.55
624.98	42440.93
625.13	42454.98
625.29	42962.87
625.44	42674.99
625.59	42253.69
625.74	41551.53
625.89	41771.54
626.04	41720.05
626.19	42014.96
626.34	42305.18
626.49	42131.98
626.65	42321.57
626.80	42312.20
626.95	42572.00
627.10	41844.10
627.25	41698.98
627.40	41706.01
627.55	41535.15
627.70	41359.61
627.85	41816.01
628.00	41427.48
628.15	42005.59
628.30	41993.89
628.45	41708.35
628.60	41640.47
628.76	41851.12
628.91	41710.69
629.06	41965.81
629.21	41748.14
629.36	41801.97
629.51	41722.39
629.66	41340.88
629.81	41539.83
629.96	41563.23
630.11	41303.43
630.26	41928.36
630.41	41415.78
630.56	41481.31
630.71	41418.12
630.86	41336.20
631.01	41249.60
631.16	41577.28
631.31	40942.99
631.46	40456.16
631.61	41385.35
631.76	41064.70
631.91	41652.17
632.06	41280.03
632.21	41289.39
632.36	40947.67
632.51	41223.86
632.66	41202.79
632.81	40847.03
632.96	41111.51
633.10	40711.28
633.25	40627.02
633.40	40502.97
633.55	41352.58
633.70	40900.86
633.85	40741.71
634.00	41031.93
634.15	41031.93
634.30	40598.93
634.45	40577.87
634.60	40507.65
634.75	40942.99
634.90	40737.02
635.05	40959.38
635.19	40676.17
635.34	40804.90
635.49	40844.69
635.64	40198.70
635.79	40467.86
635.94	40605.95
636.09	40687.87
636.24	40362.54
636.39	40163.59
636.53	40533.40
636.68	40037.20
636.83	40287.64
636.98	40264.24
637.13	40201.04
637.28	40318.07
637.43	40435.10
637.57	40456.16
637.72	40109.76
637.87	40549.78
638.02	40076.99
638.17	40252.53
638.32	40069.97
638.46	39847.62
638.61	40357.86
638.76	39608.89
638.91	40084.01
639.06	40069.97
639.20	39859.32
639.35	40280.62
639.50	39943.58
639.65	40084.01
639.80	40432.75
639.94	39632.29
640.09	40177.64
640.24	39515.26
640.39	39732.93
640.54	39337.38
640.68	39721.23
640.83	39871.03
640.98	39667.40
641.13	39445.05
641.27	39903.79
641.42	39276.53
641.57	39852.30
641.72	39482.50
641.86	39349.09
642.01	39344.41
642.16	39519.95
642.31	39178.23
642.45	39288.23
642.60	39047.16
642.75	38848.21
642.90	39248.44
643.04	39115.03
643.19	39175.89
643.34	39402.92
643.48	39414.62
643.63	39063.54
643.78	39103.33
643.93	39042.48
644.07	38939.49
644.22	38747.57
644.37	38501.81
644.51	38604.80
644.66	38890.34
644.81	39243.76
644.95	38679.69
645.10	39290.57
645.25	39033.11
645.39	39178.23
645.54	39225.04
645.69	38595.43
645.83	38857.57
645.98	38518.20
646.13	38583.73
646.27	38932.47
646.42	38890.34
646.57	38576.71
646.71	38768.63
646.86	38667.99
647.00	38703.10
647.15	38539.26
647.30	38667.99
647.44	38710.12
647.59	38607.14
647.74	38410.53
647.88	38366.06
648.03	38424.57
648.17	38555.64
648.32	38293.50
648.47	38195.20
648.61	38277.12
648.76	38087.54
648.90	38337.98
649.05	38422.23
649.20	38164.78
649.34	38639.90
649.49	38085.20
649.63	38003.28
649.78	38089.88
649.92	38057.11
650.07	38504.15
650.21	37876.89
650.36	38405.85
650.51	38033.71
650.65	38270.10
650.80	38485.43
650.94	38387.13
651.09	38487.77
651.23	38225.63
651.38	37738.80
651.52	37919.02
651.67	37958.81
651.81	37535.17
651.96	37223.88
652.10	37581.98
652.25	37900.29
652.39	37366.65
652.54	37909.66
652.68	38103.92
652.83	38092.22
652.97	37787.95
653.12	37806.67
653.26	37443.89
653.41	37881.57
653.55	37336.23
653.70	37202.82
653.84	37502.40
653.99	37848.80
654.13	37570.28
654.27	37628.79
654.42	37907.32
654.56	37308.14
654.71	37270.69
654.85	37284.73
655.00	37373.67
655.14	37408.78
655.29	36800.24
655.43	37144.30
655.57	36931.31
655.72	37099.83
655.86	37268.35
656.01	36947.70
656.15	36973.44
656.30	37095.15
656.44	36900.89
656.58	37123.24
656.73	36683.22
656.87	37053.02
657.01	36854.08
657.16	36421.08
657.30	36870.46
657.45	36364.90
657.59	36744.07
657.73	36465.55
657.88	36701.94
658.02	36781.52
658.16	36481.93
658.31	36556.83
658.45	36615.34
658.60	36498.31
658.74	36402.35
658.88	36517.04
659.03	36400.01
659.17	36280.64
659.31	36100.42
659.46	35927.22
659.60	36172.98
659.74	36070.00
659.89	35555.08
660.03	35594.87
660.17	36112.13
660.32	35938.93
660.46	36081.70
660.60	35697.85
660.74	35873.39
660.89	36168.30
661.03	35559.76
661.17	35690.83
661.32	35494.22
661.46	35414.65
661.60	35353.79
661.74	35569.12
661.89	35440.39
662.03	35922.54
662.17	35557.42
662.31	35297.62
662.46	34913.77
662.60	35426.35
662.74	35337.41
662.88	35110.38
663.03	35290.60
663.17	35363.15
663.31	34719.51
663.45	34948.88
663.60	34543.97
663.74	34438.64
663.88	35014.41
664.02	34689.08
664.17	35096.33
664.31	34539.29
664.45	34476.09
664.59	34871.64
664.73	34593.12
664.88	34621.20
665.02	34099.26
665.16	34602.48
665.30	34583.76
665.44	34197.57
665.59	34007.98
665.73	34237.36
665.87	33694.35
666.01	34085.22
666.15	33972.88
666.29	34054.79
666.44	34199.91
666.58	34246.72
666.72	33944.79
666.86	34293.53
667.00	34202.25
667.14	33940.11
667.28	34080.54
667.43	33514.13
667.57	33867.55
667.71	33804.36
667.85	33347.95
667.99	33472.00
668.13	33177.09
668.27	33235.61
668.41	33476.68
668.56	33085.81
668.70	33376.04
668.84	33071.77
668.98	33085.81
669.12	32945.38
669.26	33277.74
669.40	33057.73
669.54	32830.69
669.68	33167.73
669.82	32479.61
669.96	32458.55
670.10	32652.81
670.25	32685.58
670.39	33261.35
670.53	32760.48
670.67	32376.63
670.81	32765.16
670.95	32652.81
671.09	32388.33
671.23	32484.30
671.37	32189.39
671.51	32395.35
671.65	32430.46
671.79	32053.64
671.93	31580.85
672.07	32144.92
672.21	31833.63
672.35	31763.41
672.49	31639.36
672.63	31555.10
672.77	31505.95
672.91	31585.53
673.05	31384.24
673.19	31197.00
673.33	31433.39
673.47	31157.21
673.61	30948.90
673.75	31000.40
673.89	30773.36
674.03	30771.02
674.17	30712.51
674.31	31285.94
674.45	30735.92
674.59	30843.58
674.73	30906.77
674.87	30768.68
675.01	30696.13
675.15	30682.08
675.29	30958.27
675.43	30352.07
675.56	30476.12
675.70	30551.01
675.84	30078.22
675.98	29340.96
676.12	30267.81
676.26	29933.11
676.40	29266.06
676.54	29539.90
676.68	29937.79
676.82	29453.30
676.96	29481.39
677.10	29149.03
677.23	29521.18
677.37	29429.90
677.51	29120.95
677.65	29022.64
677.79	29060.09
677.93	28776.89
678.07	28929.02
678.21	28662.20
678.34	28786.25
678.48	28542.83
678.62	28465.60
678.76	28383.68
678.90	27847.69
679.04	28180.05
679.18	28292.40
679.31	27702.58
679.45	27990.47
679.59	27508.32
679.73	27587.89
679.87	27573.85
680.00	27580.87
680.14	27278.94
680.28	27140.85
680.42	27129.15
680.56	27395.97
680.70	27250.86
680.83	27356.18
680.97	26824.88
681.11	27131.49
681.25	26572.10
681.39	26995.74
681.52	26993.40
681.66	26586.15
681.80	26597.85
681.94	26490.18
682.07	26450.39
682.21	25895.69
682.35	26464.44
682.49	26015.05
682.62	26529.97
682.76	25867.60
682.90	25881.64
683.04	25741.21
683.17	25642.91
683.31	25687.38
683.45	25809.09
683.59	25558.65
683.72	25233.32
683.86	25008.62
684.00	24936.07
684.13	25378.43
684.27	25420.56
684.41	25284.81
684.55	25179.48
684.68	24999.26
684.82	24657.54
684.96	24208.16
685.09	24369.66
685.23	24489.03
685.37	24357.96
685.50	24381.36
685.64	24226.89
685.78	24491.37
685.91	24395.40
686.05	24025.60
686.19	23552.81
686.32	24060.71
686.46	23531.75
686.60	23508.34
686.73	23400.68
686.87	23239.18
687.01	23323.44
687.14	22925.55
687.28	23405.36
687.42	23215.77
687.55	23026.19
687.69	22864.69
687.82	22759.37
687.96	22656.39
688.10	22602.55
688.23	22497.23
688.37	22340.41
688.50	22537.02
688.64	22211.68
688.78	22377.86
688.91	22469.14
689.05	22099.34
689.18	22052.53
689.32	21652.30
689.46	21921.46
689.59	21977.63
689.73	22225.73
689.86	21797.41
690.00	21298.88
690.13	21656.98
690.27	21273.13
690.41	21420.58
690.54	20952.48
690.68	20985.24
690.81	20767.57
690.95	20835.45
691.08	20957.16
691.22	20643.52
691.35	20765.23
691.49	20774.60
691.62	20919.71
691.76	20542.88
691.89	20849.49
692.03	20753.53
692.16	20226.91
692.30	19901.58
692.43	20121.59
692.57	20177.76
692.70	19967.11
692.84	19950.73
692.97	19690.93
693.11	19601.99
693.24	19789.23
693.38	19644.12
693.51	19585.60
693.65	19463.90
693.78	19562.20
693.92	19531.77
694.05	19648.80
694.19	19019.19
694.32	19176.01
694.45	19225.16
694.59	18724.29
694.72	18899.83
694.86	18864.72
694.99	18656.41
695.13	18595.56
695.26	18434.06
695.39	18417.68
695.53	18321.71
695.66	18326.39
695.80	18331.08
695.93	18204.69
696.07	18017.44
696.20	17809.14
696.33	18019.78
696.47	17727.22
696.60	17996.38
696.73	17865.31
696.87	17516.57
697.00	17542.32
697.14	17514.23
697.27	17666.36
697.40	17706.15
697.54	17247.41
697.67	17301.24
697.80	17369.12
697.94	17153.79
698.07	16802.71
698.21	17032.08
698.34	16865.90
698.47	16950.16
698.61	16643.55
698.74	16568.65
698.87	16657.59
699.01	16203.53
699.14	16168.42
699.27	16313.53
699.40	16327.58
699.54	16009.26
699.67	15964.79
699.80	15992.88
699.94	15765.85
700.07	15901.60
700.20	15829.04
700.34	15868.83
700.47	15679.25
700.60	15702.65
700.73	16224.59
700.87	15557.54
701.00	15389.02
701.13	15295.40
701.26	15484.98
701.40	15639.46
701.53	15197.10
701.66	15126.88
701.79	15112.84
701.93	14949.00
702.06	15044.96
702.19	14930.28
702.32	14979.43
702.46	14644.73
702.59	14459.83
702.72	14480.89
702.85	14689.20
702.99	14588.56
703.12	14525.36
703.25	14831.97
703.38	14537.07
703.51	14195.35
703.65	14260.88
703.78	13994.06
703.91	14073.64
704.04	14029.17
704.17	14200.03
704.31	14031.51
704.44	13724.90
704.57	13444.04
704.70	13556.38
704.83	13509.57
704.96	13486.17
705.10	13664.05
705.23	13811.50
>>>>>End Processed Spectral Data<<<<<
