SpectraSuite Data File
++++++++++++++++++++++++++++++++++++
Date: Fri Oct 25 11:34:42 EDT 2013
User: price-jones
Dark Spectrum Present: No
Reference Spectrum Present: No
Number of Sampled Component Spectra: 1
Spectrometers: USB2+H05261
Integration Time (usec): 100000 (USB2+H05261)
Spectra Averaged: 1 (USB2+H05261)
Boxcar Smoothing: 0 (USB2+H05261)
Correct for Electrical Dark: No (USB2+H05261)
Strobe/Lamp Enabled: No (USB2+H05261)
Correct for Detector Non-linearity: No (USB2+H05261)
Correct for Stray Light: No (USB2+H05261)
Number of Pixels in Processed Spectrum: 2048
>>>>>Begin Processed Spectral Data<<<<<
365.73	276.18
365.92	276.18
366.12	276.18
366.32	245.76
366.52	182.56
366.72	175.54
366.91	107.66
367.11	189.58
367.31	175.54
367.51	133.41
367.70	175.54
367.90	224.69
368.10	180.22
368.30	177.88
368.49	168.52
368.69	245.76
368.89	212.99
369.09	135.75
369.28	229.37
369.48	273.84
369.68	217.67
369.87	280.86
370.07	294.91
370.27	266.82
370.47	355.76
370.66	433.00
370.86	454.06
371.06	557.05
371.25	521.94
371.45	500.87
371.65	543.00
371.84	543.00
372.04	613.22
372.24	573.43
372.44	526.62
372.63	641.31
372.83	557.05
373.03	538.32
373.22	594.50
373.42	526.62
373.62	510.24
373.81	622.58
374.01	716.20
374.21	683.44
374.40	627.26
374.60	594.50
374.79	615.56
374.99	620.24
375.19	601.52
375.38	636.63
375.58	674.07
375.78	697.48
375.97	678.76
376.17	660.03
376.37	585.13
376.56	709.18
376.76	702.16
376.95	688.12
377.15	617.90
377.35	732.59
377.54	727.91
377.74	688.12
377.93	606.20
378.13	716.20
378.33	725.57
378.52	732.59
378.72	660.03
378.91	702.16
379.11	751.31
379.31	702.16
379.50	653.01
379.70	737.27
379.89	760.67
380.09	737.27
380.28	711.52
380.48	734.93
380.68	807.48
380.87	641.31
381.07	683.44
381.26	767.70
381.46	751.31
381.65	683.44
381.85	751.31
382.04	669.39
382.24	772.38
382.43	739.61
382.63	739.61
382.83	720.88
383.02	870.68
383.22	737.27
383.41	840.25
383.61	858.98
383.80	800.46
384.00	767.70
384.19	706.84
384.39	866.00
384.58	807.48
384.78	898.77
384.97	805.14
385.17	788.76
385.36	798.12
385.56	781.74
385.75	793.44
385.95	880.04
386.14	840.25
386.34	922.17
386.53	856.64
386.72	770.04
386.92	912.81
387.11	870.68
387.31	894.08
387.50	873.02
387.70	812.17
387.89	929.19
388.09	976.00
388.28	866.00
388.48	905.79
388.67	943.24
388.86	898.77
389.06	884.72
389.25	933.87
389.45	926.85
389.64	847.27
389.84	924.51
390.03	926.85
390.22	875.36
390.42	908.13
390.61	971.32
390.81	931.53
391.00	929.19
391.19	1015.79
391.39	976.00
391.58	987.71
391.78	983.02
391.97	1046.22
392.16	912.81
392.36	1041.54
392.55	1060.26
392.75	1064.94
392.94	990.05
393.13	990.05
393.33	1020.47
393.52	1013.45
393.71	1074.31
393.91	1022.81
394.10	978.34
394.29	1050.90
394.49	1071.97
394.68	1118.78
394.88	1130.48
395.07	1055.58
395.26	1109.41
395.46	1097.71
395.65	1064.94
395.84	1107.07
396.04	1174.95
396.23	1121.12
396.42	1081.33
396.62	1198.35
396.81	1156.22
397.00	1191.33
397.19	1266.23
397.39	1104.73
397.58	1214.74
397.77	1191.33
397.97	1224.10
398.16	1228.78
398.35	1198.35
398.55	1280.27
398.74	1256.87
398.93	1282.61
399.12	1299.00
399.32	1221.76
399.51	1280.27
399.70	1268.57
399.90	1238.14
400.09	1270.91
400.28	1296.66
400.47	1336.45
400.67	1406.66
400.86	1357.51
401.05	1308.36
401.24	1322.40
401.44	1364.53
401.63	1392.62
401.82	1329.42
402.01	1406.66
402.21	1355.17
402.40	1376.24
402.59	1373.89
402.78	1434.75
402.97	1437.09
403.17	1507.30
403.36	1526.03
403.55	1409.00
403.74	1481.56
403.93	1572.84
404.13	1554.12
404.32	1565.82
404.51	1547.09
404.70	1577.52
404.89	1497.94
405.09	1577.52
405.28	1523.69
405.47	1605.61
405.66	1645.40
405.85	1582.20
406.05	1610.29
406.24	1643.06
406.43	1626.67
406.62	1687.53
406.81	1790.51
407.00	1572.84
407.20	1591.56
407.39	1673.48
407.58	1694.55
407.77	1809.23
407.96	1717.95
408.15	1825.62
408.34	1692.21
408.54	1844.34
408.73	1858.39
408.92	1867.75
409.11	1806.89
409.30	1863.07
409.49	1893.49
409.68	1942.64
409.87	1919.24
410.07	1834.98
410.26	1959.03
410.45	1914.56
410.64	2078.40
410.83	2040.95
411.02	2012.86
411.21	2157.97
411.40	2078.40
411.59	2106.48
411.78	2080.74
411.98	1956.69
412.17	2115.84
412.36	2207.13
412.55	2148.61
412.74	2279.68
412.93	2228.19
413.12	2223.51
413.31	2438.84
413.50	2291.38
413.69	2270.32
413.88	2289.04
414.07	2363.94
414.26	2450.54
414.45	2441.18
414.64	2342.88
414.83	2399.05
415.02	2445.86
415.22	2532.46
415.41	2513.74
415.60	2443.52
415.79	2565.23
415.98	2661.19
416.17	2715.02
416.36	2637.78
416.55	2565.23
416.74	2583.95
416.93	2668.21
417.12	2780.56
417.31	2677.57
417.50	2684.59
417.69	2729.06
417.88	2785.24
418.07	2696.30
418.26	2771.19
418.45	2843.75
418.64	2822.69
418.83	2813.32
419.02	2874.18
419.21	3009.93
419.39	2984.18
419.58	2951.42
419.77	2803.96
419.96	3009.93
420.15	2937.37
420.34	2885.88
420.53	2953.76
420.72	3021.63
420.91	3098.87
421.10	3084.83
421.29	3157.38
421.48	2988.86
421.67	3112.91
421.86	3239.30
422.05	3115.25
422.24	3225.26
422.43	3094.19
422.61	3124.62
422.80	3241.64
422.99	3194.83
423.18	3346.97
423.37	3283.77
423.56	3262.71
423.75	3232.28
423.94	3171.43
424.13	2965.46
424.32	3105.89
424.50	3215.90
424.69	3197.17
424.88	3234.62
425.07	3150.36
425.26	3176.11
425.45	3248.66
425.64	3115.25
425.83	3279.09
426.01	3309.52
426.20	3344.63
426.39	3405.48
426.58	3152.70
426.77	3281.43
426.96	3361.01
427.15	3412.50
427.33	3372.71
427.52	3471.01
427.71	3442.93
427.90	3382.07
428.09	3400.80
428.28	3529.53
428.46	3398.46
428.65	3398.46
428.84	3684.00
429.03	3627.83
429.22	3393.78
429.40	3468.67
429.59	3468.67
429.78	3473.36
429.97	3485.06
430.16	3646.55
430.34	3646.55
430.53	3691.02
430.72	3679.32
430.91	3688.68
431.10	3705.07
431.28	3805.71
431.47	3857.20
431.66	3824.44
431.85	3747.20
432.03	3964.87
432.22	3829.12
432.41	3901.67
432.60	3784.65
432.79	3906.35
432.97	3878.27
433.16	3901.67
433.35	3850.18
433.54	3918.06
433.72	4058.49
433.91	3941.46
434.10	4009.34
434.28	3868.91
434.47	3985.93
434.66	4056.15
434.85	4072.53
435.03	4119.34
435.22	4133.39
435.41	4248.07
435.59	4142.75
435.78	4117.00
435.97	4152.11
436.16	4154.45
436.34	4154.45
436.53	4114.66
436.72	4297.22
436.90	4198.92
437.09	4329.99
437.28	4224.67
437.46	4196.58
437.65	4397.87
437.84	4372.12
438.02	4318.29
438.21	4447.02
438.40	4465.74
438.58	4542.98
438.77	4449.36
438.96	4554.68
439.14	4603.83
439.33	4732.56
439.52	4622.56
439.70	4730.22
439.89	4765.33
440.08	4798.10
440.26	4854.27
440.45	4683.41
440.63	4870.65
440.82	4957.25
441.01	4795.76
441.19	4863.63
441.38	4873.00
441.57	5001.72
441.75	4929.17
441.94	5123.43
442.12	5151.52
442.31	5184.29
442.50	5111.73
442.68	5027.47
442.87	5327.06
443.05	5228.76
443.24	5266.21
443.43	5275.57
443.61	5235.78
443.80	5357.49
443.98	5207.69
444.17	4987.68
444.35	5158.54
444.54	5411.32
444.73	5350.46
444.91	5266.21
445.10	5261.52
445.28	5373.87
445.47	5385.57
445.65	5336.42
445.84	5565.79
446.02	5563.45
446.21	5352.81
446.39	5303.65
446.58	5392.59
446.77	5605.58
446.95	5390.25
447.14	5416.00
447.32	5554.09
447.51	5493.24
447.69	5385.57
447.88	5523.66
448.06	5350.46
448.25	5441.75
448.43	5472.17
448.62	5500.26
448.80	5486.22
448.99	5614.95
449.17	5572.82
449.36	5472.17
449.54	5518.98
449.73	5661.76
449.91	5743.67
450.10	5834.96
450.28	5771.76
450.46	5849.00
450.65	5659.42
450.83	5820.91
451.02	5888.79
451.20	5825.59
451.39	5795.17
451.57	5937.94
451.76	5888.79
451.94	5755.38
452.13	6057.31
452.31	5954.32
452.49	5865.38
452.68	5914.53
452.86	5921.56
453.05	6076.03
453.23	6073.69
453.42	5774.10
453.60	5837.30
453.78	6296.04
453.97	5940.28
454.15	6230.51
454.34	6052.63
454.52	6069.01
454.70	6120.50
454.89	6174.33
455.07	6410.73
455.26	6389.66
455.44	6347.53
455.62	6406.05
455.81	6265.61
455.99	6450.52
456.17	6277.32
456.36	6408.39
456.54	6494.99
456.73	6408.39
456.91	6827.34
457.09	6504.35
457.28	6771.17
457.46	6626.06
457.64	6637.76
457.83	6551.16
458.01	6410.73
458.19	6729.04
458.38	6768.83
458.56	6719.68
458.74	6808.62
458.93	6916.28
459.11	6871.81
459.29	6853.09
459.48	6867.13
459.66	6881.18
459.84	6855.43
460.03	6904.58
460.21	6942.03
460.39	6958.41
460.57	6911.60
460.76	7028.63
460.94	7073.10
461.12	7192.47
461.31	7169.06
461.49	7122.25
461.67	7082.46
461.85	7192.47
462.04	7246.30
462.22	7749.51
462.40	7276.73
462.59	7370.35
462.77	7262.68
462.95	7297.79
463.13	7368.01
463.32	7328.22
463.50	7520.14
463.68	7470.99
463.86	7372.69
464.05	7351.62
464.23	7489.71
464.41	7456.95
464.59	7412.48
464.78	7499.08
464.96	7527.16
465.14	7569.29
465.32	7777.60
465.50	7478.01
465.69	7630.15
465.87	7726.11
466.05	7510.78
466.23	7775.26
466.41	7756.54
466.60	7822.07
466.78	7805.69
466.96	7803.35
467.14	7810.37
467.32	7651.21
467.51	7908.67
467.69	7709.72
467.87	8070.17
468.05	7925.05
468.23	7808.03
468.41	7903.99
468.60	7901.65
468.78	8063.15
468.96	8046.76
469.14	7978.89
469.32	8149.75
469.50	7927.39
469.69	8257.41
469.87	8222.30
470.05	8271.45
470.23	8154.43
470.41	8325.29
470.59	8456.36
470.77	8100.59
470.95	8458.70
471.14	8571.04
471.32	8198.90
471.50	8545.30
471.68	8617.85
471.86	8652.96
472.04	8627.21
472.22	8730.20
472.40	8571.04
472.58	8807.44
472.77	8723.18
472.95	8671.68
473.13	9179.58
473.31	8898.72
473.49	8975.95
473.67	8835.52
473.85	9034.47
474.03	9247.46
474.21	9177.24
474.39	9277.88
474.57	9254.48
474.75	9373.85
474.93	9427.68
475.12	9362.14
475.30	9547.05
475.48	9437.04
475.66	9352.78
475.84	9565.77
476.02	9638.33
476.20	9682.80
476.38	9912.17
476.56	10134.52
476.74	9923.87
476.92	9734.29
477.10	9898.13
477.28	9949.62
477.46	10223.46
477.64	10242.18
477.82	10228.14
478.00	10604.97
478.18	10501.98
478.36	10434.11
478.54	10724.33
478.72	10757.10
478.90	10787.53
479.08	10956.05
479.26	11054.35
479.44	10895.19
479.62	10675.18
479.80	11030.94
479.98	11398.41
480.16	11655.87
480.34	11400.75
480.52	11496.71
480.70	11321.17
480.88	11428.84
481.06	11658.21
481.24	11882.90
481.41	11838.43
481.59	12201.21
481.77	12131.00
481.95	12257.39
482.13	12194.19
482.31	12355.69
482.49	12414.20
482.67	12351.01
482.85	12716.13
483.03	12659.96
483.21	13039.12
483.39	13099.98
483.57	12940.82
483.74	13280.20
483.92	13315.31
484.10	12938.48
484.28	13577.45
484.46	13907.46
484.64	13839.59
484.82	13767.03
485.00	13823.20
485.18	14214.07
485.35	14188.33
485.53	14047.90
485.71	14424.72
485.89	14623.67
486.07	14438.76
486.25	14700.90
486.43	14764.10
486.61	14752.40
486.78	14960.70
486.96	14853.04
487.14	15154.97
487.32	14995.81
487.50	15393.70
487.68	15594.99
487.85	15566.90
488.03	15978.84
488.21	15875.85
488.39	15627.76
488.57	16100.55
488.75	16081.82
488.92	16739.51
489.10	16304.17
489.28	16636.53
489.46	16472.69
489.64	16524.18
489.81	17039.10
489.99	17074.21
490.17	17121.02
490.35	17226.34
490.53	17626.57
490.70	17467.42
490.88	17298.90
491.06	17771.69
491.24	17905.10
491.41	17813.82
491.59	18118.09
491.77	17987.02
491.95	18302.99
492.13	18286.61
492.30	18494.91
492.48	18707.90
492.66	18693.86
492.84	18630.66
493.01	18864.72
493.19	18824.93
493.37	18920.89
493.54	19080.05
493.72	19466.24
493.90	19487.30
494.08	19393.68
494.25	19812.63
494.43	19637.09
494.61	19976.47
494.79	20039.67
494.96	19896.89
495.14	20166.06
495.32	20414.15
495.49	20372.02
495.67	20996.95
495.85	20606.08
496.02	20772.25
496.20	21064.82
496.38	20936.09
496.55	21205.25
496.73	21142.06
496.91	21099.93
497.09	21589.10
497.26	21324.62
497.44	21715.49
497.62	21682.72
497.79	21790.39
497.97	21472.07
498.14	22324.03
498.32	22279.56
498.50	22019.76
498.67	22518.29
498.85	22361.48
499.03	22682.13
499.20	22595.53
499.38	23047.26
499.56	23054.28
499.73	22860.01
499.91	23236.84
500.08	23445.15
500.26	22773.41
500.44	23648.77
500.61	23646.43
500.79	23229.82
500.97	23550.47
501.14	23821.97
501.32	23763.46
501.49	23693.24
501.67	23735.37
501.84	24273.70
502.02	24311.14
502.20	24091.13
502.37	24435.19
502.55	24465.62
502.72	24189.44
502.90	24393.06
503.07	24046.66
503.25	24580.31
503.43	24285.40
503.60	24671.59
503.78	24856.49
503.95	24549.88
504.13	24790.95
504.30	24987.56
504.48	25130.33
504.65	25205.23
504.83	25488.43
505.01	25329.28
505.18	25638.23
505.36	25811.43
505.53	25635.89
505.71	25537.59
505.88	25507.16
506.06	25448.64
506.23	26038.46
506.41	25832.49
506.58	25991.65
506.76	26534.65
506.93	26263.15
507.11	26092.29
507.28	26291.24
507.46	26623.59
507.63	26354.43
507.81	27044.89
507.98	26345.07
508.16	26703.17
508.33	26843.60
508.50	27091.70
508.68	27136.17
508.85	26909.14
509.03	27168.94
509.20	27248.52
509.38	27452.14
509.55	27583.21
509.73	27470.87
509.90	27398.31
510.08	27297.67
510.25	27704.92
510.42	27417.04
510.60	27924.93
510.77	28142.60
510.95	28318.14
511.12	28147.28
511.30	27990.47
511.47	28147.28
511.64	28318.14
511.82	28402.40
511.99	28353.25
512.17	28519.43
512.34	28800.29
512.51	28559.22
512.69	28919.66
512.86	28830.72
513.04	28802.63
513.21	28938.38
513.38	28968.81
513.56	29460.32
513.73	29345.64
513.90	29240.31
514.08	29436.92
514.25	29977.58
514.43	29649.91
514.60	29708.42
514.77	29551.60
514.95	29825.45
515.12	29846.51
515.29	29694.38
515.47	30183.55
515.64	30724.21
515.81	30038.44
515.99	30204.61
516.16	30536.97
516.33	30419.94
516.51	30277.17
516.68	30527.61
516.85	30703.15
517.03	30822.51
517.20	30883.37
517.37	30696.13
517.54	30562.72
517.72	30803.79
517.89	30923.16
518.06	30766.34
518.24	30979.33
518.41	30923.16
518.58	31426.37
518.75	31063.59
518.93	31477.86
519.10	31424.03
519.27	31662.77
519.45	31580.85
519.62	31737.66
519.79	31810.22
519.96	31590.21
520.14	31978.74
520.31	31299.98
520.48	31938.95
520.65	32135.56
520.83	32140.24
521.00	32498.34
521.17	32093.43
521.34	32191.73
521.52	32397.70
521.69	32474.93
521.86	32844.74
522.03	32650.47
522.20	32704.31
522.38	32830.69
522.55	32734.73
522.72	32556.85
522.89	33085.81
523.07	32938.36
523.24	33385.40
523.41	32842.40
523.58	33158.37
523.75	33401.79
523.92	32905.59
524.10	33532.86
524.27	33654.56
524.44	33553.92
524.61	33860.53
524.78	33635.84
524.96	33710.74
525.13	33926.07
525.30	33888.62
525.47	34181.18
525.64	34040.75
525.81	34387.15
525.98	33895.64
526.16	34220.97
526.33	34202.25
526.50	34132.03
526.67	33914.36
526.84	34651.63
527.01	34485.45
527.18	34359.06
527.36	34630.57
527.53	34527.58
527.70	34993.35
527.87	34962.92
528.04	34756.96
528.21	34948.88
528.38	34628.23
528.55	35047.18
528.72	34824.83
528.89	35051.86
529.07	35044.84
529.24	34721.85
529.41	35150.17
529.58	35082.29
529.75	35398.26
529.92	35594.87
530.09	35424.01
530.26	35662.74
530.43	35154.85
530.60	35084.63
530.77	35178.25
530.94	35775.09
531.11	35470.82
531.28	35627.63
531.46	35370.18
531.63	36013.82
531.80	35793.81
531.97	36112.13
532.14	35999.78
532.31	36252.56
532.48	36507.68
532.65	36332.14
532.82	36278.30
532.99	36243.20
533.16	36070.00
533.33	36299.37
533.50	36343.84
533.67	36418.74
533.84	36428.10
534.01	36421.08
534.18	36493.63
534.35	36744.07
534.52	36971.10
534.69	36928.97
534.86	37296.44
535.03	36690.24
535.20	37237.92
535.37	37343.25
535.54	37076.43
535.71	37214.52
535.88	37038.98
536.05	37139.62
536.22	37376.01
536.38	37249.63
536.55	37219.20
536.72	37848.80
536.89	37247.29
537.06	37710.71
537.23	37457.93
537.40	37532.83
537.57	36952.38
537.74	37298.78
537.91	37942.42
538.08	37694.33
538.25	37607.73
538.42	37570.28
538.59	38190.52
538.75	37677.94
538.92	37771.57
539.09	38096.90
539.26	38117.96
539.43	38160.09
539.60	38380.10
539.77	38377.76
539.94	38494.79
540.11	38658.63
540.28	38361.38
540.44	38263.08
540.61	38181.16
540.78	38625.86
540.95	38181.16
541.12	38628.20
541.29	38457.34
541.46	38534.58
541.62	38597.77
541.79	39150.14
541.96	38494.79
542.13	38770.97
542.30	38686.71
542.47	38562.67
542.63	38885.66
542.80	38747.57
542.97	38892.68
543.14	38995.67
543.31	39122.05
543.48	39182.91
543.64	39746.98
543.81	39543.35
543.98	39768.04
544.15	39370.15
544.32	39512.92
544.48	39868.69
544.65	39578.46
544.82	39651.02
544.99	39356.11
545.16	39786.77
545.32	40144.87
545.49	40252.53
545.66	39908.47
545.83	39873.37
546.00	40285.30
546.16	39798.47
546.33	40282.96
546.50	39833.58
546.67	40395.31
546.83	39735.27
547.00	40205.72
547.17	40336.79
547.34	40257.21
547.50	40641.06
547.67	40439.78
547.84	40458.50
548.00	40402.33
548.17	40919.59
548.34	40861.07
548.51	41076.40
548.67	40636.38
548.84	40940.65
549.01	40540.42
549.18	40744.05
549.34	41186.41
549.51	41006.19
549.68	40940.65
549.84	40683.19
550.01	40996.82
550.18	40793.20
550.34	40942.99
550.51	40947.67
550.68	41170.02
550.84	40957.03
551.01	41394.71
551.18	41329.18
551.34	41511.74
551.51	41237.90
551.68	41270.67
551.84	40966.40
552.01	40886.82
552.18	41209.81
552.34	41429.82
552.51	41144.28
552.68	41535.15
552.84	41120.87
553.01	41855.80
553.18	41251.94
553.34	42005.59
553.51	41228.54
553.67	41745.80
553.84	41874.52
554.01	42026.66
554.17	41392.37
554.34	41801.97
554.51	41846.44
554.67	42176.45
554.84	42263.05
555.00	41670.90
555.17	42410.51
555.33	42141.35
555.50	42148.37
555.67	42508.81
555.83	42113.26
556.00	41993.89
556.16	42600.09
556.33	42586.05
556.50	42445.62
556.66	42220.92
556.83	42457.32
556.99	42560.30
557.16	42820.10
557.32	42541.58
557.49	42649.24
557.65	42377.74
557.82	42543.92
557.98	42419.87
558.15	42885.64
558.32	42508.81
558.48	42316.89
558.65	42344.97
558.81	42621.16
558.98	42550.94
559.14	42363.70
559.31	42738.18
559.47	42476.04
559.64	43084.58
559.80	42777.97
559.97	42909.04
560.13	42665.63
560.30	42948.83
560.46	43180.54
560.63	43491.83
560.79	43009.68
560.96	43423.96
561.12	42990.96
561.29	43295.23
561.45	43129.05
561.61	42981.60
561.78	43157.14
561.94	43555.03
562.11	42965.21
562.27	43402.89
562.44	42937.13
562.60	43297.57
562.77	43625.25
562.93	43126.71
563.10	43196.93
563.26	43201.61
563.42	43426.30
563.59	43346.72
563.75	43590.14
563.92	43222.67
564.08	43208.63
564.24	43400.55
564.41	43140.75
564.57	43606.52
564.74	43353.74
564.90	43115.01
565.07	42780.31
565.23	43246.08
565.39	43274.16
565.56	43480.13
565.72	43388.85
565.88	43718.87
566.05	43833.55
566.21	43494.18
566.38	43533.96
566.54	43533.96
566.70	44013.77
566.87	43363.11
567.03	43470.77
567.19	43875.68
567.36	43725.89
567.52	43665.03
567.68	44392.94
567.85	43899.09
568.01	44299.32
568.17	43800.79
568.34	43655.67
568.50	43662.69
568.66	43510.56
568.83	43920.15
568.99	43578.43
569.15	43981.01
569.32	43950.58
569.48	44091.01
569.64	44348.47
569.81	43990.37
569.97	43910.79
570.13	44198.68
570.30	43903.77
570.46	44201.02
570.62	44046.54
570.78	44189.31
570.95	43875.68
571.11	44091.01
571.27	43564.39
571.43	43688.44
571.60	44055.90
571.76	43983.35
571.92	43761.00
572.09	44226.76
572.25	44158.89
572.41	44378.90
572.57	44491.24
572.74	44467.84
572.90	44086.33
573.06	44240.81
573.22	44362.51
573.38	44416.35
573.55	44149.53
573.71	44257.19
573.87	44465.50
574.03	43880.36
574.20	44311.02
574.36	43950.58
574.52	44147.18
574.68	44156.55
574.84	44458.48
575.01	44528.69
575.17	44563.80
575.33	44304.00
575.49	44629.34
575.65	44460.82
575.82	44385.92
575.98	44315.70
576.14	44577.84
576.30	44549.76
576.46	44376.56
576.62	44322.72
576.79	44147.18
576.95	44479.54
577.11	44390.60
577.27	44329.75
577.43	44177.61
577.59	44657.42
577.75	44285.28
577.92	44259.53
578.08	44491.24
578.24	44552.10
578.40	44629.34
578.56	44671.46
578.72	44388.26
578.88	44114.42
579.04	44046.54
579.21	44545.08
579.37	44311.02
579.53	44320.38
579.69	44175.27
579.85	44636.36
580.01	44556.78
580.17	44816.58
580.33	45284.68
580.49	44601.25
580.65	44479.54
580.82	44378.90
580.98	44315.70
581.14	44549.76
581.30	44622.31
581.46	44130.80
581.62	44381.24
581.78	43941.22
581.94	44926.58
582.10	44755.72
582.26	44549.76
582.42	44751.04
582.58	44657.42
582.74	44767.43
582.90	44680.83
583.06	44971.05
583.22	44465.50
583.38	44811.90
583.54	44942.97
583.70	44584.86
583.86	45247.24
584.02	44533.37
584.18	44839.98
584.34	45148.93
584.50	44875.09
584.66	44643.38
584.82	45261.28
584.98	45420.44
585.14	44889.13
585.30	44816.58
585.46	44669.12
585.62	44818.92
585.78	44872.75
585.94	44205.70
586.10	44566.14
586.26	44561.46
586.42	44889.13
586.58	44715.93
586.74	44921.90
586.90	44807.22
587.06	44776.79
587.22	44907.86
587.38	44882.11
587.54	45291.71
587.70	45240.21
587.86	45022.54
588.02	44694.87
588.18	44708.91
588.34	44886.79
588.49	44783.81
588.65	45041.27
588.81	44683.17
588.97	44872.75
589.13	45071.70
589.29	45090.42
589.45	44718.28
589.61	45289.37
589.77	44804.88
589.93	44797.85
590.08	45525.76
590.24	45090.42
590.40	45170.00
590.56	45020.20
590.72	45294.05
590.88	45125.53
591.04	44844.66
591.20	45425.12
591.35	45062.33
591.51	45780.88
591.67	45605.34
591.83	45797.26
591.99	45261.28
592.15	45174.68
592.31	45221.49
592.46	44882.11
592.62	45034.25
592.78	45350.22
592.94	45684.92
593.10	45256.60
593.26	45970.46
593.41	45624.06
593.57	45443.84
593.73	45408.73
593.89	45595.98
594.05	45174.68
594.20	45666.19
594.36	45322.13
594.52	45993.87
594.68	45516.40
594.84	45200.43
594.99	45818.33
595.15	45474.27
595.31	45776.20
595.47	45439.16
595.62	45478.95
595.78	45280.00
595.94	45317.45
596.10	45382.99
596.25	45408.73
596.41	45947.06
596.57	45598.32
596.73	45736.41
596.88	45404.05
597.04	45581.93
597.20	45902.59
597.36	45462.57
597.51	45593.64
597.67	45539.80
597.83	45361.92
597.99	45270.64
598.14	45500.01
598.30	45750.45
598.46	45478.95
598.61	45940.04
598.77	45844.07
598.93	45736.41
599.09	45820.67
599.24	45961.10
599.40	45769.18
599.56	45844.07
599.71	45610.02
599.87	46136.64
600.03	46000.89
600.18	45792.58
600.34	46061.74
600.50	45776.20
600.65	45771.52
600.81	46230.26
600.97	45682.58
601.12	45766.84
601.28	46052.38
601.44	45724.71
601.59	45729.39
601.75	45500.01
601.91	46251.33
602.06	45846.41
602.22	45815.99
602.37	45291.71
602.53	45820.67
602.69	45893.22
602.84	45635.77
603.00	45825.35
603.16	45703.64
603.31	45787.90
603.47	45787.90
603.62	45488.31
603.78	46026.63
603.94	45385.33
604.09	45640.45
604.25	45705.98
604.40	45485.97
604.56	45823.01
604.71	45979.82
604.87	45603.00
605.03	45640.45
605.18	45565.55
605.34	45872.16
605.49	45586.61
605.65	45614.70
605.80	45485.97
605.96	45535.12
606.12	45390.01
606.27	45710.66
606.43	45024.89
606.58	45970.46
606.74	45549.17
606.89	45450.86
607.05	45539.80
607.20	46007.91
607.36	45305.75
607.51	45546.82
607.67	45469.59
607.82	45652.15
607.98	45329.16
608.13	45579.59
608.29	45301.07
608.44	45567.89
608.60	45315.11
608.75	45464.91
608.91	45111.49
609.06	45057.65
609.22	45610.02
609.37	45436.82
609.53	45673.21
609.68	45584.27
609.84	45184.04
609.99	46040.68
610.15	45088.08
610.30	45036.59
610.46	45024.89
610.61	45345.54
610.76	45411.07
610.92	45207.45
611.07	45181.70
611.23	45010.84
611.38	45340.86
611.54	45394.69
611.69	45385.33
611.84	44861.05
612.00	44781.47
612.15	45029.57
612.31	45141.91
612.46	45345.54
612.62	45132.55
612.77	45312.77
612.92	44919.56
613.08	45158.30
613.23	45354.90
613.39	45221.49
613.54	44758.06
613.69	45181.70
613.85	44797.85
614.00	45198.09
614.15	45387.67
614.31	44641.04
614.46	44657.42
614.62	44460.82
614.77	44734.66
614.92	44811.90
615.08	45057.65
615.23	44760.40
615.38	44854.03
615.54	44680.83
615.69	44999.14
615.84	45029.57
616.00	45036.59
616.15	44870.41
616.30	44865.73
616.46	44222.08
616.61	45095.10
616.76	44989.78
616.92	44664.44
617.07	44467.84
617.22	44346.13
617.37	44545.08
617.53	44671.46
617.68	44645.72
617.83	44552.10
617.99	44774.45
618.14	45064.67
618.29	44186.97
618.45	44837.64
618.60	44566.14
618.75	44311.02
618.90	44322.72
619.06	44259.53
619.21	44610.61
619.36	44734.66
619.51	44151.87
619.67	44299.32
619.82	44041.86
619.97	44367.20
620.12	43997.39
620.28	44250.17
620.43	44116.76
620.58	44210.38
620.73	44556.78
620.89	44509.97
621.04	44360.17
621.19	44175.27
621.34	44271.23
621.49	43693.12
621.65	44622.31
621.80	44655.08
621.95	44205.70
622.10	44531.03
622.25	43831.21
622.41	44280.60
622.56	43908.45
622.71	44240.81
622.86	43849.94
623.01	43988.03
623.16	44179.95
623.32	44224.42
623.47	44257.19
623.62	43981.01
623.77	43597.16
623.92	44046.54
624.07	44107.40
624.23	43885.04
624.38	44231.44
624.53	44058.24
624.68	43704.82
624.83	43480.13
624.98	43386.51
625.13	43643.97
625.29	43091.60
625.44	43442.68
625.59	43604.18
625.74	43489.49
625.89	43405.23
626.04	42895.00
626.19	43328.00
626.34	43400.55
626.49	43222.67
626.65	42618.81
626.80	43260.12
626.95	43154.80
627.10	43189.91
627.25	43236.72
627.40	43285.87
627.55	43477.79
627.70	42780.31
627.85	43065.86
628.00	43267.14
628.15	43115.01
628.30	43002.66
628.45	42562.64
628.60	42794.36
628.76	42902.02
628.91	42871.59
629.06	42672.65
629.21	42822.44
629.36	42604.77
629.51	42773.29
629.66	43215.65
629.81	42899.68
629.96	42845.85
630.11	42946.49
630.26	42464.34
630.41	42562.64
630.56	42822.44
630.71	42925.42
630.86	42429.23
631.01	42234.97
631.16	42328.59
631.31	42555.62
631.46	42499.45
631.61	42899.68
631.76	42742.86
631.91	42777.97
632.06	43056.50
632.21	42663.28
632.36	42897.34
632.51	42323.91
632.66	42333.27
632.81	42270.08
632.96	42672.65
633.10	42473.70
633.25	42281.78
633.40	42557.96
633.55	42295.82
633.70	42635.20
633.85	42169.43
634.00	42019.64
634.15	41928.36
634.30	41977.51
634.45	41907.29
634.60	42047.72
634.75	42359.02
634.90	41993.89
635.05	42251.35
635.19	41841.76
635.34	41797.29
635.49	41862.82
635.64	42323.91
635.79	41921.34
635.94	41937.72
636.09	42096.88
636.24	41883.89
636.39	42054.75
636.53	41717.71
636.68	41984.53
636.83	41500.04
636.98	41064.70
637.13	41392.37
637.28	41516.42
637.43	41380.67
637.57	41605.36
637.72	41560.89
637.87	41392.37
638.02	41605.36
638.17	41422.80
638.32	41427.48
638.46	41146.62
638.61	41092.79
638.76	41207.47
638.91	41493.02
639.06	41158.32
639.20	41387.69
639.35	41390.03
639.50	40879.80
639.65	41312.80
639.80	41914.31
639.94	41392.37
640.09	41514.08
640.24	41212.15
640.39	41184.07
640.54	40538.08
640.68	41223.86
640.83	41333.86
640.98	41034.27
641.13	41200.45
641.27	40875.12
641.42	40992.14
641.57	40381.26
641.72	40875.12
641.86	41170.02
642.01	40421.05
642.16	40547.44
642.31	40390.62
642.45	40863.41
642.60	40570.85
642.75	40488.93
642.90	40795.54
643.04	40795.54
643.19	40690.21
643.34	40582.55
643.48	40444.46
643.63	40474.88
643.78	40641.06
643.93	40847.03
644.07	40921.93
644.22	40910.22
644.37	40463.18
644.51	40788.52
644.66	40418.71
644.81	40327.43
644.95	40432.75
645.10	40414.03
645.25	40273.60
645.39	40189.34
645.54	40203.38
645.69	40156.57
645.83	40495.95
645.98	39887.41
646.13	39826.56
646.27	39938.90
646.42	39927.20
646.57	40456.16
646.71	40177.64
646.86	40364.88
647.00	39952.94
647.15	39908.47
647.30	40257.21
647.44	40184.66
647.59	39906.13
647.74	39852.30
647.88	40325.09
648.03	40114.44
648.17	40353.18
648.32	40238.49
648.47	40023.16
648.61	39798.47
648.76	39847.62
648.90	39746.98
649.05	39938.90
649.20	39615.91
649.34	39737.62
649.49	40196.36
649.63	39557.39
649.78	39936.56
649.92	40018.48
650.07	39899.11
650.21	39817.19
650.36	39889.75
650.51	39423.98
650.65	40215.08
650.80	39859.32
650.94	39952.94
651.09	39075.24
651.23	38946.51
651.38	39899.11
651.52	38789.70
651.67	39082.27
651.81	39414.62
651.96	39728.25
652.10	39136.10
652.25	39098.65
652.39	38918.43
652.54	39400.58
652.68	38642.24
652.83	39253.12
652.97	39274.19
653.12	39313.98
653.26	39061.20
653.41	39096.31
653.55	38930.13
653.70	39428.66
653.84	39566.76
653.99	38941.83
654.13	39133.76
654.27	38576.71
654.42	39086.95
654.56	38405.85
654.71	38958.22
654.85	39047.16
655.00	38845.87
655.14	39049.50
655.29	38782.68
655.43	38848.21
655.57	38473.73
655.72	38401.17
655.86	38272.44
656.01	38529.90
656.15	38614.16
656.30	38586.07
656.44	38436.28
656.58	38883.32
656.73	38356.70
656.87	38445.64
657.01	38178.82
657.16	38480.75
657.30	38333.29
657.45	38167.12
657.59	37975.19
657.73	38272.44
657.88	38464.36
658.02	38483.09
658.16	38831.83
658.31	38518.20
658.45	38195.20
658.60	38045.41
658.74	37820.72
658.88	38132.01
659.03	37776.25
659.17	37691.99
659.31	38157.75
659.46	37904.98
659.60	38206.90
659.74	37656.88
659.89	37731.78
660.03	37291.76
660.17	37638.15
660.32	37329.20
660.46	37565.60
660.60	37385.38
660.74	37563.26
660.89	37368.99
661.03	37301.12
661.17	37354.95
661.32	37385.38
661.46	37638.15
661.60	37294.10
661.74	37163.03
661.89	36917.27
662.03	37174.73
662.17	37205.16
662.31	36636.41
662.46	37165.37
662.60	36751.09
662.74	36224.47
662.88	36320.43
663.03	36238.51
663.17	36547.47
663.31	36320.43
663.45	36376.61
663.60	36807.26
663.74	36620.02
663.88	36322.77
664.02	36095.74
664.17	36245.54
664.31	36339.16
664.45	36126.17
664.59	36250.22
664.73	36231.49
664.88	36243.20
665.02	35772.75
665.16	36013.82
665.30	35489.54
665.44	36299.37
665.59	35655.72
665.73	35798.49
665.87	35012.07
666.01	35658.06
666.15	35515.29
666.29	35562.10
666.44	35786.79
666.58	35428.69
666.72	35246.13
666.86	35608.91
667.00	35658.06
667.14	35164.21
667.28	35007.39
667.43	35281.24
667.57	34953.56
667.71	35007.39
667.85	35779.77
667.99	35288.26
668.13	35168.89
668.27	34719.51
668.41	34838.87
668.56	34309.91
668.70	34227.99
668.84	34323.96
668.98	34373.11
669.12	34429.28
669.26	34536.94
669.40	34391.83
669.54	34281.83
669.68	34562.69
669.82	33958.83
669.96	33589.03
670.10	34019.69
670.25	33968.19
670.39	34033.73
670.53	33961.17
670.67	33467.32
670.81	33692.01
670.95	33979.90
671.09	33666.27
671.23	33553.92
671.37	33680.31
671.51	33235.61
671.65	33163.05
671.79	33074.11
671.93	33282.42
672.07	33579.67
672.21	33036.66
672.35	32872.82
672.49	33039.00
672.63	33165.39
672.77	32804.95
672.91	32762.82
673.05	32854.10
673.19	32844.74
673.33	32325.14
673.47	32187.05
673.61	32463.23
673.75	32201.09
673.89	32163.64
674.03	32046.62
674.17	31889.80
674.31	31632.34
674.45	32147.26
674.59	31924.91
674.73	32194.07
674.87	31501.27
675.01	31501.27
675.15	31164.23
675.29	31307.01
675.43	31707.24
675.56	31536.38
675.70	31653.40
675.84	31005.08
675.98	30213.98
676.12	30892.73
676.26	31255.51
676.40	30866.98
676.54	31115.08
676.68	30574.42
676.82	30019.71
676.96	30665.70
677.10	30218.66
677.23	30525.27
677.37	30199.93
677.51	30373.13
677.65	30036.09
677.79	29841.83
677.93	29706.08
678.07	29823.11
678.21	30047.80
678.34	29589.05
678.48	29326.91
678.62	29631.18
678.76	29226.27
678.90	29364.36
679.04	29205.20
679.18	29055.41
679.31	29057.75
679.45	28889.23
679.59	28718.37
679.73	29170.10
679.87	28395.38
680.00	28699.65
680.14	28601.35
680.28	28617.73
680.42	28388.36
680.56	28484.32
680.70	27882.80
680.83	27765.78
680.97	27864.08
681.11	28184.73
681.25	27295.33
681.39	27433.42
681.52	27398.31
681.66	27412.35
681.80	27122.13
681.94	26841.26
682.07	26838.92
682.21	27091.70
682.35	26600.19
682.49	26703.17
682.62	26541.68
682.76	26712.53
682.90	26560.40
683.04	26838.92
683.17	26838.92
683.31	26398.90
683.45	26113.36
683.59	25869.94
683.72	25685.04
683.86	25912.07
684.00	25788.02
684.13	25834.83
684.27	25717.81
684.41	25476.73
684.55	25460.35
684.68	25722.49
684.82	25242.68
684.96	25106.93
685.09	25174.80
685.23	25127.99
685.37	25401.83
685.50	24985.22
685.64	25348.00
685.78	24570.94
685.91	24816.70
686.05	24308.80
686.19	24187.10
686.32	24416.47
686.46	24051.34
686.60	23784.52
686.73	24063.05
686.87	23861.76
687.01	24222.20
687.14	23941.34
687.28	23861.76
687.42	23838.36
687.55	23281.31
687.69	23339.82
687.82	23527.06
687.96	23363.23
688.10	23288.33
688.23	23138.54
688.37	22974.70
688.50	23529.41
688.64	22747.67
688.78	22934.91
688.91	22555.74
689.05	23051.94
689.18	22398.93
689.32	22127.42
689.46	22120.40
689.59	22424.67
689.73	22574.47
689.86	22324.03
690.00	22244.45
690.13	22338.07
690.27	21933.16
690.41	22005.72
690.54	21680.38
690.68	21186.53
690.81	21249.72
690.95	21518.89
691.08	21439.31
691.22	21163.12
691.35	20938.43
691.49	21422.92
691.62	21411.22
691.76	20800.34
691.89	20484.37
692.03	20622.46
692.16	20226.91
692.30	20411.81
692.43	20404.79
692.57	20156.69
692.70	20123.93
692.84	20262.02
692.97	19999.88
693.11	19927.32
693.24	19665.18
693.38	19763.48
693.51	19702.63
693.65	19714.33
693.78	19330.48
693.92	19604.33
694.05	19108.13
694.19	19386.66
694.32	19433.47
694.45	19381.98
694.59	19557.52
694.72	19318.78
694.86	19091.75
694.99	18661.09
695.13	18700.88
695.26	18434.06
695.39	18270.22
695.53	18331.08
695.66	18305.33
695.80	18525.34
695.93	18188.30
696.07	18253.84
696.20	17860.63
696.33	18080.64
696.47	17687.43
696.60	17685.09
696.73	17717.86
696.87	18003.40
697.00	17722.54
697.14	17441.67
697.27	17259.11
697.40	17462.74
697.54	17359.75
697.67	17123.36
697.80	17401.88
697.94	17003.99
698.07	17202.94
698.21	16905.69
698.34	16819.09
698.47	16863.56
698.61	16418.86
698.74	16524.18
698.87	16439.92
699.01	16233.96
699.14	16350.98
699.27	16365.03
699.40	16184.80
699.54	16180.12
699.67	15941.39
699.80	16107.57
699.94	15932.03
700.07	16056.08
700.20	15761.17
700.34	15494.35
700.47	15672.23
700.60	15585.63
700.73	15800.96
700.87	15695.63
701.00	15243.91
701.13	15197.10
701.26	15066.03
701.40	15173.69
701.53	14902.19
701.66	14958.36
701.79	14817.93
701.93	14665.80
702.06	14679.84
702.19	14487.92
702.32	14626.01
702.46	14452.81
702.59	14679.84
702.72	14525.36
702.85	14490.26
702.99	14115.77
703.12	14235.14
703.25	13965.98
703.38	14064.28
703.51	13706.18
703.65	13830.23
703.78	13645.32
703.91	13341.05
704.04	13500.21
704.17	13544.68
704.31	13652.34
704.44	13518.93
704.57	13446.38
704.70	13245.09
704.83	13006.36
704.96	13195.94
705.10	13118.70
705.23	13036.78
>>>>>End Processed Spectral Data<<<<<
