SpectraSuite Data File
++++++++++++++++++++++++++++++++++++
Date: Fri Oct 25 11:34:07 EDT 2013
User: price-jones
Dark Spectrum Present: No
Reference Spectrum Present: No
Number of Sampled Component Spectra: 1
Spectrometers: USB2+H05261
Integration Time (usec): 100000 (USB2+H05261)
Spectra Averaged: 1 (USB2+H05261)
Boxcar Smoothing: 0 (USB2+H05261)
Correct for Electrical Dark: No (USB2+H05261)
Strobe/Lamp Enabled: No (USB2+H05261)
Correct for Detector Non-linearity: No (USB2+H05261)
Correct for Stray Light: No (USB2+H05261)
Number of Pixels in Processed Spectrum: 2048
>>>>>Begin Processed Spectral Data<<<<<
365.73	222.35
365.92	222.35
366.12	222.35
366.32	159.16
366.52	163.84
366.72	168.52
366.91	173.20
367.11	196.60
367.31	166.18
367.51	187.24
367.70	126.39
367.90	210.65
368.10	163.84
368.30	168.52
368.49	184.90
368.69	250.44
368.89	170.86
369.09	212.99
369.28	212.99
369.48	161.50
369.68	236.39
369.87	170.86
370.07	276.18
370.27	278.52
370.47	241.08
370.66	468.11
370.86	510.24
371.06	538.32
371.25	587.47
371.45	566.41
371.65	603.86
371.84	512.58
372.04	526.62
372.24	552.37
372.44	645.99
372.63	559.39
372.83	571.09
373.03	599.18
373.22	622.58
373.42	596.84
373.62	599.18
373.81	655.35
374.01	645.99
374.21	660.03
374.40	681.10
374.60	732.59
374.79	610.88
374.99	678.76
375.19	716.20
375.38	655.35
375.58	603.86
375.78	613.22
375.97	657.69
376.17	594.50
376.37	599.18
376.56	697.48
376.76	617.90
376.95	634.29
377.15	676.41
377.35	676.41
377.54	622.58
377.74	725.57
377.93	716.20
378.13	671.73
378.33	653.01
378.52	685.78
378.72	755.99
378.91	741.95
379.11	662.37
379.31	739.61
379.50	650.67
379.70	692.80
379.89	678.76
380.09	695.14
380.28	641.31
380.48	732.59
380.68	664.71
380.87	702.16
381.07	751.31
381.26	704.50
381.46	767.70
381.65	795.78
381.85	779.40
382.04	842.59
382.24	807.48
382.43	713.86
382.63	812.17
382.83	734.93
383.02	819.19
383.22	805.14
383.41	739.61
383.61	814.51
383.80	866.00
384.00	788.76
384.19	830.89
384.39	795.78
384.58	772.38
384.78	840.25
384.97	777.06
385.17	734.93
385.36	781.74
385.56	884.72
385.75	844.93
385.95	807.48
386.14	912.81
386.34	828.55
386.53	866.00
386.72	823.87
386.92	880.04
387.11	854.30
387.31	891.74
387.50	875.36
387.70	875.36
387.89	901.11
388.09	924.51
388.28	812.17
388.48	800.46
388.67	891.74
388.86	917.49
389.06	863.66
389.25	849.61
389.45	976.00
389.64	896.43
389.84	968.98
390.03	997.07
390.22	976.00
390.42	950.26
390.61	917.49
390.81	931.53
391.00	1015.79
391.19	1088.35
391.39	987.71
391.58	1022.81
391.78	1088.35
391.97	997.07
392.16	1001.75
392.36	1074.31
392.55	1076.65
392.75	1088.35
392.94	1139.84
393.13	1025.15
393.33	1055.58
393.52	1029.84
393.71	1111.75
393.91	1062.60
394.10	1097.71
394.29	1111.75
394.49	1001.75
394.68	1167.93
394.88	1088.35
395.07	1144.52
395.26	1093.03
395.46	1165.59
395.65	1074.31
395.84	1053.24
396.04	1181.97
396.23	1165.59
396.42	1135.16
396.62	1053.24
396.81	1210.06
397.00	1179.63
397.19	1196.01
397.39	1196.01
397.58	1252.19
397.77	1254.53
397.97	1228.78
398.16	1200.69
398.35	1282.61
398.55	1273.25
398.74	1247.51
398.93	1266.23
399.12	1268.57
399.32	1235.80
399.51	1315.38
399.70	1308.36
399.90	1331.76
400.09	1359.85
400.28	1336.45
400.47	1401.98
400.67	1301.34
400.86	1390.28
401.05	1385.60
401.24	1376.24
401.44	1418.36
401.63	1460.49
401.82	1394.96
402.01	1399.64
402.21	1432.41
402.40	1399.64
402.59	1430.07
402.78	1462.83
402.97	1504.96
403.17	1547.09
403.36	1516.67
403.55	1493.26
403.74	1640.72
403.93	1561.14
404.13	1610.29
404.32	1530.71
404.51	1610.29
404.70	1589.22
404.89	1607.95
405.09	1729.66
405.28	1675.82
405.47	1619.65
405.66	1614.97
405.85	1607.95
406.05	1645.40
406.24	1769.44
406.43	1785.83
406.62	1757.74
406.81	1769.44
407.00	1774.13
407.20	1710.93
407.39	1802.21
407.58	1877.11
407.77	1748.38
407.96	1750.72
408.15	1884.13
408.34	1776.47
408.54	1900.52
408.73	1916.90
408.92	1912.22
409.11	1895.83
409.30	1944.99
409.49	1874.77
409.68	1968.39
409.87	1905.20
410.07	2019.88
410.26	2059.67
410.45	2094.78
410.64	2003.50
410.83	2090.10
411.02	2127.55
411.21	2139.25
411.40	2087.76
411.59	2106.48
411.78	2190.74
411.98	2211.81
412.17	2354.58
412.36	2256.28
412.55	2202.44
412.74	2375.64
412.93	2368.62
413.12	2275.00
413.31	2392.03
413.50	2399.05
413.69	2410.75
413.88	2331.17
414.07	2373.30
414.26	2401.39
414.45	2375.64
414.64	2459.90
414.83	2480.97
415.02	2572.25
415.22	2562.89
415.41	2572.25
415.60	2661.19
415.79	2684.59
415.98	2750.13
416.17	2668.21
416.36	2773.53
416.55	2628.42
416.74	2689.28
416.93	2740.77
417.12	2691.62
417.31	2719.70
417.50	2832.05
417.69	3005.25
417.88	3002.91
418.07	2869.50
418.26	2818.00
418.45	2925.67
418.64	3150.36
418.83	3040.36
419.02	2958.44
419.21	3033.33
419.39	3049.72
419.58	3056.74
419.77	3012.27
419.96	3162.06
420.15	3197.17
420.34	3108.23
420.53	3126.96
420.72	3187.81
420.91	3246.32
421.10	3183.13
421.29	3162.06
421.48	3267.39
421.67	3197.17
421.86	3138.66
422.05	3276.75
422.24	3274.41
422.43	3232.28
422.61	3194.83
422.80	3274.41
422.99	3346.97
423.18	3346.97
423.37	3410.16
423.56	3293.13
423.75	3365.69
423.94	3311.86
424.13	3159.72
424.32	3272.07
424.50	3300.16
424.69	3435.91
424.88	3461.65
425.07	3353.99
425.26	3311.86
425.45	3433.57
425.64	3356.33
425.83	3405.48
426.01	3433.57
426.20	3431.23
426.39	3449.95
426.58	3419.52
426.77	3314.20
426.96	3302.50
427.15	3531.87
427.33	3492.08
427.52	3419.52
427.71	3541.23
427.90	3613.79
428.09	3646.55
428.28	3707.41
428.46	3630.17
428.65	3641.87
428.84	3796.35
429.03	3714.43
429.22	3611.45
429.40	3686.34
429.59	3653.58
429.78	3728.47
429.97	3679.32
430.16	3786.99
430.34	3768.26
430.53	3777.62
430.72	3875.93
430.91	3824.44
431.10	3716.77
431.28	3936.78
431.47	3913.38
431.66	3920.40
431.85	3786.99
432.03	3789.33
432.22	3875.93
432.41	3880.61
432.60	3953.16
432.79	4035.08
432.97	4004.66
433.16	4119.34
433.35	4028.06
433.54	4091.26
433.72	4102.96
433.91	4238.71
434.10	3946.14
434.28	4065.51
434.47	4255.09
434.66	4126.36
434.85	4250.41
435.03	4322.97
435.22	4339.35
435.41	4346.37
435.59	4299.56
435.78	4273.82
435.97	4271.48
436.16	4320.63
436.34	4283.18
436.53	4404.89
436.72	4449.36
436.90	4325.31
437.09	4512.55
437.28	4250.41
437.46	4367.44
437.65	4491.49
437.84	4596.81
438.02	4475.10
438.21	4526.60
438.40	4517.23
438.58	4760.65
438.77	4678.73
438.96	4582.77
439.14	4760.65
439.33	4758.31
439.52	4711.50
439.70	4725.54
439.89	5057.90
440.08	4837.89
440.26	5104.71
440.45	4854.27
440.63	5135.14
440.82	5013.43
441.01	5015.77
441.19	5118.75
441.38	5121.09
441.57	5093.01
441.75	5167.90
441.94	5270.89
442.12	5247.48
442.31	5343.44
442.50	5284.93
442.68	5305.99
442.87	5338.76
443.05	5298.97
443.24	5518.98
443.43	5408.98
443.61	5350.46
443.80	5636.01
443.98	5383.23
444.17	5294.29
444.35	5535.37
444.54	5437.06
444.73	5472.17
444.91	5472.17
445.10	5488.56
445.28	5488.56
445.47	5472.17
445.65	5572.82
445.84	5598.56
446.02	5551.75
446.21	5411.32
446.39	5570.48
446.58	5682.82
446.77	5540.05
446.95	5397.28
447.14	5572.82
447.32	5645.37
447.51	5631.33
447.69	5610.26
447.88	5558.77
448.06	5556.43
448.25	5734.31
448.43	5734.31
448.62	5781.12
448.80	5809.21
448.99	5781.12
449.17	5781.12
449.36	5586.86
449.54	5813.89
449.73	5980.07
449.91	5928.58
450.10	5933.26
450.28	6040.92
450.46	6076.03
450.65	6083.05
450.83	6005.81
451.02	6003.47
451.20	6059.65
451.39	6010.50
451.57	6024.54
451.76	6029.22
451.94	6153.27
452.13	6132.20
452.31	6033.90
452.49	6024.54
452.68	6188.38
452.86	6214.12
453.05	6160.29
453.23	6258.59
453.42	6223.48
453.60	6260.93
453.78	6349.87
453.97	6335.83
454.15	6277.32
454.34	6406.05
454.52	6455.20
454.70	6422.43
454.89	6352.21
455.07	6483.28
455.26	6438.81
455.44	6497.33
455.62	6415.41
455.81	6553.50
455.99	6464.56
456.17	6712.66
456.36	6569.88
456.54	6679.89
456.73	6583.93
456.91	6911.60
457.09	6881.18
457.28	6974.80
457.46	6740.74
457.64	6986.50
457.83	6855.43
458.01	6890.54
458.19	7234.60
458.38	7033.31
458.56	7049.69
458.74	7098.84
458.93	7094.16
459.11	7126.93
459.29	7054.37
459.48	7112.89
459.66	7005.22
459.84	7133.95
460.03	7283.75
460.21	7314.17
460.39	7019.27
460.57	7307.15
460.76	7379.71
460.94	7410.14
461.12	7309.49
461.31	7269.70
461.49	7548.23
461.67	7335.24
461.85	7700.36
462.04	7431.20
462.22	7892.29
462.40	7627.81
462.59	7585.68
462.77	7440.56
462.95	7782.28
463.13	7592.70
463.32	7641.85
463.50	7796.32
463.68	7751.85
463.86	7658.23
464.05	7555.25
464.23	7754.19
464.41	7815.05
464.59	7623.12
464.78	7978.89
464.96	7873.56
465.14	7777.60
465.32	8016.33
465.50	7859.52
465.69	8006.97
465.87	8121.66
466.05	7990.59
466.23	7997.61
466.41	7934.42
466.60	8114.64
466.78	8018.68
466.96	7885.26
467.14	8095.91
467.32	8107.62
467.51	8142.72
467.69	7894.63
467.87	8056.12
468.05	8229.32
468.23	7974.21
468.41	8252.73
468.60	8156.77
468.78	8257.41
468.96	8140.38
469.14	8252.73
469.32	8486.78
469.50	8325.29
469.69	8355.71
469.87	8531.25
470.05	8692.75
470.23	8610.83
470.41	8650.62
470.59	8692.75
470.77	8737.22
470.95	8739.56
471.14	8851.91
471.32	8608.49
471.50	8842.54
471.68	8992.34
471.86	8891.70
472.04	8964.25
472.22	9128.09
472.40	9062.55
472.58	9062.55
472.77	8971.27
472.95	9111.71
473.13	9345.76
473.31	9027.45
473.49	9224.05
473.67	9050.85
473.85	9294.27
474.03	9502.58
474.21	9542.36
474.39	9650.03
474.57	9537.68
474.75	9551.73
474.93	9638.33
475.12	9528.32
475.30	9940.26
475.48	9760.03
475.66	10061.96
475.84	9806.84
476.02	10090.05
476.20	9994.09
476.38	10249.21
476.56	10139.20
476.74	10080.69
476.92	10143.88
477.10	10462.19
477.28	10324.10
477.46	10434.11
477.64	10424.75
477.82	10752.42
478.00	11040.31
478.18	10806.25
478.36	10944.34
478.54	11115.20
478.72	10913.92
478.90	11122.23
479.08	11147.97
479.26	11346.92
479.44	11480.33
479.62	11349.26
479.80	11882.90
479.98	11627.78
480.16	12049.08
480.34	12044.40
480.52	11768.21
480.70	12039.72
480.88	11929.71
481.06	11983.54
481.24	12238.66
481.41	12411.86
481.59	12409.52
481.77	12634.21
481.95	12575.70
482.13	12702.09
482.31	12784.01
482.49	13224.03
482.67	13261.48
482.85	13280.20
483.03	13146.79
483.21	13334.03
483.39	13507.23
483.57	13369.14
483.74	13593.83
483.92	13710.86
484.10	13427.65
484.28	13923.85
484.46	14244.50
484.64	14450.47
484.82	14118.11
485.00	14354.51
485.18	14672.82
485.35	14689.20
485.53	14747.72
485.71	14972.41
485.89	14895.17
486.07	15009.86
486.25	15129.22
486.43	15140.93
486.61	15410.09
486.78	15342.21
486.96	15564.56
487.14	15723.72
487.32	15885.22
487.50	15910.96
487.68	16100.55
487.85	16166.08
488.03	16685.68
488.21	16645.89
488.39	16692.70
488.57	16545.25
488.75	16919.73
488.92	16865.90
489.10	17252.09
489.28	17128.04
489.46	17376.14
489.64	17242.73
489.81	18033.83
489.99	17905.10
490.17	17893.40
490.35	18036.17
490.53	18171.92
490.70	18167.24
490.88	17972.97
491.06	18635.35
491.24	18335.76
491.41	18684.50
491.59	18794.50
491.77	18726.63
491.95	18808.54
492.13	19180.69
492.30	19330.48
492.48	19222.82
492.66	19049.62
492.84	19386.66
493.01	19756.46
493.19	19606.67
493.37	19826.68
493.54	19995.20
493.72	20236.27
493.90	20210.53
494.08	20393.09
494.25	20767.57
494.43	20350.96
494.61	20816.72
494.79	20950.14
494.96	20891.62
495.14	20760.55
495.32	21287.17
495.49	21184.19
495.67	21296.53
495.85	21928.48
496.02	21708.47
496.20	21764.64
496.38	22005.72
496.55	21834.86
496.73	22459.78
496.91	22211.68
497.09	22071.25
497.26	22279.56
497.44	22377.86
497.62	22511.27
497.79	22721.92
497.97	22595.53
498.14	23171.30
498.32	22904.48
498.50	23168.96
498.67	23768.14
498.85	23211.09
499.03	23517.70
499.20	23463.87
499.38	23878.15
499.56	23765.80
499.73	24311.14
499.91	23817.29
500.08	23737.71
500.26	24144.97
500.44	24421.15
500.61	24056.03
500.79	24428.17
500.97	24573.28
501.14	24847.13
501.32	24758.19
501.49	24690.31
501.67	24709.04
501.84	25111.61
502.02	25078.84
502.20	24973.52
502.37	25394.81
502.55	25331.62
502.72	25050.75
502.90	25401.83
503.07	25563.33
503.25	25411.20
503.43	25366.73
503.60	26017.40
503.78	25598.44
503.95	25673.34
504.13	25490.77
504.30	25965.90
504.48	26274.85
504.65	26431.67
504.83	26448.05
505.01	26895.10
505.18	26787.43
505.36	26726.58
505.53	26487.84
505.71	26698.49
505.88	26569.76
506.06	26817.86
506.23	27131.49
506.41	27012.12
506.58	26916.16
506.76	27211.07
506.93	27435.76
507.11	26984.04
507.28	27461.51
507.46	27431.08
507.63	27550.45
507.81	27924.93
507.98	27557.47
508.16	27873.44
508.33	28016.21
508.50	28074.73
508.68	27878.12
508.85	28283.03
509.03	28177.71
509.20	28776.89
509.38	28166.01
509.55	28503.04
509.73	28678.58
509.90	28903.28
510.08	28676.24
510.25	28907.96
510.42	29324.57
510.60	29003.92
510.77	29177.12
510.95	29483.73
511.12	29607.78
511.30	29046.05
511.47	29036.69
511.64	29677.99
511.82	29457.98
511.99	29317.55
512.17	29556.28
512.34	29893.32
512.51	29823.11
512.69	30106.31
512.86	30218.66
513.04	30340.36
513.21	29853.53
513.38	30333.34
513.56	30558.03
513.73	30349.73
513.90	30443.35
514.08	30639.95
514.25	30490.16
514.43	31290.62
514.60	30965.29
514.77	31044.87
514.95	31108.06
515.12	30948.90
515.29	30789.75
515.47	30916.14
515.64	31466.16
515.81	31292.96
515.99	31791.50
516.16	31524.68
516.33	31108.06
516.51	31690.85
516.68	31711.92
516.85	31793.84
517.03	31866.39
517.20	32187.05
517.37	32339.18
517.54	31924.91
517.72	32020.87
517.89	32107.47
518.06	32341.52
518.24	32306.41
518.41	32268.97
518.58	32367.27
518.75	32231.52
518.93	32402.38
519.10	32442.17
519.27	32505.36
519.45	33057.73
519.62	33010.92
519.79	32758.14
519.96	33041.34
520.14	33017.94
520.31	33041.34
520.48	33113.90
520.65	33535.20
520.83	33584.35
521.00	34134.37
521.17	33647.54
521.34	33867.55
521.52	33457.96
521.69	33539.88
521.86	33785.63
522.03	34136.71
522.20	34298.21
522.38	34520.56
522.55	34122.67
522.72	34101.61
522.89	33996.28
523.07	34803.77
523.24	34508.86
523.41	34548.65
523.58	34742.91
523.75	34719.51
523.92	34806.11
524.10	34991.01
524.27	34834.19
524.44	34775.68
524.61	35065.91
524.78	35136.12
524.96	35047.18
525.13	35204.00
525.30	35576.14
525.47	35393.58
525.64	35040.16
525.81	35365.49
525.98	35531.67
526.16	35723.60
526.33	35536.35
526.50	35594.87
526.67	35351.45
526.84	35637.00
527.01	35606.57
527.18	35917.86
527.36	35796.15
527.53	36105.10
527.70	36322.77
527.87	36203.41
528.04	36165.96
528.21	36196.38
528.38	36545.12
528.55	36713.64
528.72	35945.95
528.89	36360.22
529.07	36577.89
529.24	36524.06
529.41	36968.76
529.58	36643.43
529.75	36404.69
529.92	37223.88
530.09	37104.51
530.26	36641.09
530.43	37017.91
530.60	36737.05
530.77	36495.97
530.94	36868.12
531.11	36790.88
531.28	36751.09
531.46	36809.61
531.63	37633.47
531.80	37205.16
531.97	37455.59
532.14	37301.12
532.31	37511.77
532.48	37904.98
532.65	37890.93
532.82	37256.65
532.99	37806.67
533.16	37996.26
533.33	37998.60
533.50	38066.47
533.67	37787.95
533.84	37706.03
534.01	38520.54
534.18	38356.70
534.35	38319.25
534.52	38279.46
534.69	38534.58
534.86	38752.25
535.03	38373.08
535.20	38548.62
535.37	38548.62
535.54	38506.49
535.71	38534.58
535.88	38878.64
536.05	38445.64
536.22	38609.48
536.38	38883.32
536.55	38389.47
536.72	38969.92
536.89	38827.15
537.06	38520.54
537.23	38988.64
537.40	39225.04
537.57	38780.34
537.74	38852.89
537.91	39386.54
538.08	39466.11
538.25	39084.61
538.42	39124.40
538.59	39571.44
538.75	38930.13
538.92	39625.27
539.09	39667.40
539.26	39372.49
539.43	39840.60
539.60	39878.05
539.77	39735.27
539.94	39878.05
540.11	39817.19
540.28	39945.92
540.44	39878.05
540.61	39835.92
540.78	39681.44
540.95	40163.59
541.12	39847.62
541.29	40109.76
541.46	39746.98
541.62	40191.68
541.79	40502.97
541.96	40170.61
542.13	40217.43
542.30	40114.44
542.47	40378.92
542.63	40304.02
542.80	40643.40
542.97	40893.84
543.14	40556.80
543.31	40535.74
543.48	40673.83
543.64	40868.09
543.81	41090.44
543.98	41031.93
544.15	41062.36
544.32	41251.94
544.48	41471.95
544.65	41120.87
544.82	41361.95
544.99	41364.29
545.16	41588.98
545.32	41078.74
545.49	41764.52
545.66	41982.19
545.83	41542.17
546.00	42050.06
546.16	41443.87
546.33	41591.32
546.50	41474.29
546.67	42241.99
546.83	41289.39
547.00	41879.21
547.17	41918.99
547.34	41750.48
547.50	42050.06
547.67	42527.53
547.84	41659.20
548.00	42021.98
548.17	42639.88
548.34	42417.53
548.51	42476.04
548.67	42344.97
548.84	42539.24
549.01	42237.31
549.18	42148.37
549.34	42438.59
549.51	42719.46
549.68	42249.01
549.84	42799.04
550.01	42642.22
550.18	42597.75
550.34	42527.53
550.51	42775.63
550.68	42682.01
550.84	42747.54
551.01	43161.82
551.18	42967.55
551.34	42738.18
551.51	42721.80
551.68	42721.80
551.84	42749.88
552.01	43150.12
552.18	43180.54
552.34	42862.23
552.51	43428.64
552.68	43199.27
552.84	43058.84
553.01	43166.50
553.18	43395.87
553.34	43112.67
553.51	43320.98
553.67	43875.68
553.84	43627.59
554.01	43470.77
554.17	43051.81
554.34	43707.16
554.51	43423.96
554.67	43503.54
554.84	43695.46
555.00	43613.54
555.17	43887.39
555.33	44133.14
555.50	43679.08
555.67	43922.49
555.83	43707.16
556.00	43859.30
556.16	44128.46
556.33	44299.32
556.50	43817.17
556.66	43756.32
556.83	43583.12
556.99	44650.40
557.16	44350.81
557.32	44100.37
557.49	43901.43
557.65	44320.38
557.82	44196.34
557.98	44425.71
558.15	43924.83
558.32	44151.87
558.48	44182.29
558.65	44435.07
558.81	44355.49
558.98	44332.09
559.14	44474.86
559.31	44271.23
559.47	44524.01
559.64	44706.57
559.80	44474.86
559.97	44580.18
560.13	44126.12
560.30	44636.36
560.46	44711.25
560.63	44999.14
560.79	44924.24
560.96	45258.94
561.12	44854.03
561.29	44594.23
561.45	44481.88
561.61	44418.69
561.78	44587.21
561.94	44507.63
562.11	45111.49
562.27	44655.08
562.44	44657.42
562.60	45235.53
562.77	45069.36
562.93	44404.64
563.10	45036.59
563.26	44786.15
563.42	45186.38
563.59	44914.88
563.75	45001.48
563.92	44964.03
564.08	44795.51
564.24	45137.23
564.41	44760.40
564.57	45148.93
564.74	45088.08
564.90	44818.92
565.07	45317.45
565.23	45081.06
565.39	45420.44
565.56	45434.48
565.72	45146.59
565.88	45209.79
566.05	44931.26
566.21	45343.20
566.38	45275.32
566.54	44694.87
566.70	45375.97
566.87	45429.80
567.03	45247.24
567.19	45303.41
567.36	45191.06
567.52	45404.05
567.68	45944.72
567.85	45696.62
568.01	45701.30
568.17	45797.26
568.34	45879.18
568.50	45610.02
568.66	45247.24
568.83	45834.71
568.99	45581.93
569.15	45848.75
569.32	45577.25
569.48	45296.39
569.64	46326.22
569.81	45862.80
569.97	46082.81
570.13	45783.22
570.30	45249.58
570.46	45801.94
570.62	45771.52
570.78	45497.67
570.95	45588.95
571.11	45757.47
571.27	45806.62
571.43	45448.52
571.60	45818.33
571.76	45441.50
571.92	45825.35
572.09	45656.83
572.25	45553.85
572.41	45497.67
572.57	45701.30
572.74	46057.06
572.90	46171.75
573.06	46258.35
573.22	46169.41
573.38	46073.45
573.55	46064.08
573.71	46162.39
573.87	45834.71
574.03	45937.69
574.20	46258.35
574.36	46024.29
574.52	46218.56
574.68	45610.02
574.84	46232.60
575.01	46059.40
575.17	46335.59
575.33	46358.99
575.49	46101.53
575.65	45933.01
575.82	46234.94
575.98	45780.88
576.14	45965.78
576.30	46422.19
576.46	45867.48
576.62	46213.88
576.79	45872.16
576.95	45780.88
577.11	46087.49
577.27	45811.31
577.43	46684.33
577.59	46293.46
577.75	46092.17
577.92	45925.99
578.08	45998.55
578.24	46241.96
578.40	46106.21
578.56	46272.39
578.72	46050.04
578.88	46447.93
579.04	46113.23
579.21	46181.11
579.37	46169.41
579.53	46167.07
579.69	46146.00
579.85	46284.09
580.01	46291.12
580.17	45787.90
580.33	46347.29
580.49	46286.43
580.65	46417.50
580.82	46057.06
580.98	46120.26
581.14	45762.15
581.30	46164.73
581.46	46454.95
581.62	46267.71
581.78	45996.21
581.94	45968.12
582.10	46122.60
582.26	46885.61
582.42	46438.57
582.58	46344.95
582.74	46162.39
582.90	46213.88
583.06	46347.29
583.22	46239.62
583.38	46532.19
583.54	46155.36
583.70	46394.10
583.86	46337.93
584.02	46293.46
584.18	46501.76
584.34	46480.70
584.50	46749.86
584.66	46335.59
584.82	46349.63
584.98	46621.13
585.14	46590.70
585.30	45944.72
585.46	46424.53
585.62	46539.21
585.78	46328.56
585.94	46068.76
586.10	46003.23
586.26	46499.42
586.42	46246.65
586.58	46759.22
586.74	46906.68
586.90	46146.00
587.06	46721.77
587.22	46735.82
587.38	46628.15
587.54	46859.87
587.70	46773.27
587.86	46358.99
588.02	46183.45
588.18	46358.99
588.34	46202.18
588.49	46632.83
588.65	46192.81
588.81	46794.33
588.97	46831.78
589.13	46471.34
589.29	46836.46
589.45	47075.19
589.61	46518.15
589.77	46480.70
589.93	46707.73
590.08	46653.90
590.24	46976.89
590.40	46981.57
590.56	46880.93
590.72	47054.13
590.88	46710.07
591.04	46745.18
591.20	47391.17
591.35	46890.29
591.51	47250.74
591.67	46712.41
591.83	47316.27
591.99	46834.12
592.15	46429.21
592.31	46930.08
592.46	46637.51
592.62	46628.15
592.78	47257.76
592.94	47459.04
593.10	47435.64
593.26	47330.31
593.41	46937.10
593.57	46909.02
593.73	46810.71
593.89	47194.56
594.05	47220.31
594.20	47346.70
594.36	47360.74
594.52	47012.00
594.68	46871.57
594.84	46773.27
594.99	47456.70
595.15	47267.12
595.31	47129.03
595.47	47166.48
595.62	47007.32
595.78	47194.56
595.94	46768.58
596.10	47058.81
596.25	47278.82
596.41	47459.04
596.57	46756.88
596.73	47618.20
596.88	47503.51
597.04	47327.97
597.20	47047.11
597.36	47449.68
597.51	47114.98
597.67	46808.37
597.83	47096.26
597.99	47388.83
598.14	47201.58
598.30	47012.00
598.46	47325.63
598.61	47655.65
598.77	47353.72
598.93	47482.45
599.09	46979.23
599.24	47180.52
599.40	47391.17
599.56	47334.99
599.71	47999.71
599.87	47657.99
600.03	47585.43
600.18	47452.02
600.34	47381.80
600.50	47145.41
600.65	47606.50
600.81	47412.23
600.97	47753.95
601.12	47489.47
601.28	47735.23
601.44	47274.14
601.59	47236.69
601.75	47250.74
601.91	47789.06
602.06	47264.78
602.22	47540.96
602.37	47271.80
602.53	47445.00
602.69	47753.95
602.84	47358.40
603.00	47239.03
603.16	47334.99
603.31	47276.48
603.47	47433.30
603.62	47360.74
603.78	47629.90
603.94	46953.49
604.09	47590.11
604.25	47278.82
604.40	46969.87
604.56	47477.77
604.71	47484.79
604.87	47126.69
605.03	47517.56
605.18	47386.49
605.34	47168.82
605.49	47313.93
605.65	47459.04
605.80	47566.71
605.96	47213.29
606.12	47269.46
606.27	47122.01
606.43	47023.70
606.58	47210.95
606.74	47049.45
606.89	47370.10
607.05	47531.60
607.20	47215.63
607.36	47061.15
607.51	47323.29
607.67	46934.76
607.82	47089.24
607.98	46934.76
608.13	47110.30
608.29	46679.64
608.44	47267.12
608.60	47035.41
608.75	47159.45
608.91	47086.90
609.06	46822.42
609.22	47456.70
609.37	46864.55
609.53	47122.01
609.68	47393.51
609.84	47110.30
609.99	47040.09
610.15	47224.99
610.30	46906.68
610.46	46848.16
610.61	46906.68
610.76	47325.63
610.92	46803.69
611.07	46539.21
611.23	46960.51
611.38	46717.09
611.54	46780.29
611.69	46859.87
611.84	46768.58
612.00	46927.74
612.15	47110.30
612.31	46822.42
612.46	46344.95
612.62	47119.66
612.77	46541.55
612.92	47070.51
613.08	46906.68
613.23	46834.12
613.39	46234.94
613.54	46649.22
613.69	47281.16
613.85	46920.72
614.00	46866.89
614.15	46787.31
614.31	46487.72
614.46	46319.20
614.62	46810.71
614.77	46457.29
614.92	46934.76
615.08	46988.60
615.23	46859.87
615.38	46609.43
615.54	46885.61
615.69	46094.51
615.84	46300.48
616.00	46726.46
616.15	46574.32
616.30	46719.43
616.46	46424.53
616.61	46443.25
616.76	46443.25
616.92	46553.26
617.07	46284.09
617.22	46515.81
617.37	46241.96
617.53	46623.47
617.68	45741.09
617.83	46749.86
617.99	46586.02
618.14	46625.81
618.29	46375.37
618.45	46005.57
618.60	46021.95
618.75	46108.55
618.90	46096.85
619.06	46227.92
619.21	46087.49
619.36	46447.93
619.51	46059.40
619.67	45703.64
619.82	45886.20
619.97	46181.11
620.12	45832.37
620.28	45907.27
620.43	46176.43
620.58	46356.65
620.73	46211.54
620.89	46590.70
621.04	45949.40
621.19	45865.14
621.34	45736.41
621.49	46047.70
621.65	45713.00
621.80	46131.96
621.95	45954.08
622.10	46281.75
622.25	45972.80
622.41	45340.86
622.56	45631.08
622.71	45586.61
622.86	45525.76
623.01	45649.81
623.16	45750.45
623.32	45500.01
623.47	45006.16
623.62	45684.92
623.77	45911.95
623.92	45701.30
624.07	45387.67
624.23	45642.79
624.38	45539.80
624.53	45687.26
624.68	45390.01
624.83	45537.46
624.98	45390.01
625.13	45570.23
625.29	45317.45
625.44	45408.73
625.59	45794.92
625.74	44978.07
625.89	44968.71
626.04	44711.25
626.19	45214.47
626.34	45055.31
626.49	44924.24
626.65	45059.99
626.80	45071.70
626.95	44957.01
627.10	44603.59
627.25	45102.12
627.40	45106.80
627.55	45111.49
627.70	45104.46
627.85	45083.40
628.00	45095.10
628.15	44978.07
628.30	44629.34
628.45	44645.72
628.60	44201.02
628.76	44744.02
628.91	44542.74
629.06	44619.97
629.21	44285.28
629.36	44428.05
629.51	44531.03
629.66	44563.80
629.81	44414.01
629.96	44556.78
630.11	44474.86
630.26	44161.23
630.41	44788.49
630.56	44294.64
630.71	44430.39
630.86	44245.49
631.01	44093.35
631.16	44362.51
631.31	44067.61
631.46	44332.09
631.61	44718.28
631.76	44708.91
631.91	44713.59
632.06	44348.47
632.21	44432.73
632.36	44566.14
632.51	44203.36
632.66	43945.90
632.81	44243.15
632.96	43995.05
633.10	44044.20
633.25	44116.76
633.40	43704.82
633.55	44147.18
633.70	44065.27
633.85	43501.20
634.00	44088.67
634.15	43943.56
634.30	43688.44
634.45	43618.22
634.60	43866.32
634.75	43742.27
634.90	43812.49
635.05	43969.30
635.19	44088.67
635.34	43765.68
635.49	43739.93
635.64	43791.42
635.79	43887.39
635.94	43599.50
636.09	43751.63
636.24	43562.05
636.39	43569.07
636.53	43711.84
636.68	43332.68
636.83	43098.62
636.98	42951.17
637.13	42815.42
637.28	43241.40
637.43	43517.58
637.57	43655.67
637.72	43096.28
637.87	43009.68
638.02	43627.59
638.17	43161.82
638.32	43196.93
638.46	43384.17
638.61	43049.47
638.76	42691.37
638.91	43189.91
639.06	42993.30
639.20	42679.67
639.35	42522.85
639.50	42539.24
639.65	43171.18
639.80	43175.86
639.94	42890.32
640.09	43021.39
640.24	43227.35
640.39	42876.27
640.54	42466.68
640.68	42803.72
640.83	43225.01
640.98	42993.30
641.13	42642.22
641.27	43065.86
641.42	42506.47
641.57	42557.96
641.72	42658.60
641.86	42288.80
642.01	42045.38
642.16	42749.88
642.31	42157.73
642.45	42218.58
642.60	42251.35
642.75	42263.05
642.90	42857.55
643.04	42497.11
643.19	42162.41
643.34	42314.55
643.48	41965.81
643.63	42260.71
643.78	42274.76
643.93	42579.03
644.07	42204.54
644.22	42202.20
644.37	42183.48
644.51	42593.07
644.66	42300.50
644.81	42115.60
644.95	42024.32
645.10	42330.93
645.25	41865.16
645.39	41832.39
645.54	41691.96
645.69	41710.69
645.83	41926.02
645.98	41680.26
646.13	42136.66
646.27	41890.91
646.42	41418.12
646.57	41766.86
646.71	41645.15
646.86	42092.19
647.00	41642.81
647.15	41911.97
647.30	41851.12
647.44	41961.12
647.59	41851.12
647.74	41640.47
647.88	41661.54
648.03	41827.71
648.17	41661.54
648.32	41755.16
648.47	41869.84
648.61	41303.43
648.76	41233.22
648.90	41324.50
649.05	41586.64
649.20	41462.59
649.34	41139.60
649.49	41163.00
649.63	42064.11
649.78	41359.61
649.92	41570.25
650.07	41546.85
650.21	41338.54
650.36	41242.58
650.51	41212.15
650.65	41565.57
650.80	41490.68
650.94	41045.97
651.09	40863.41
651.23	40694.89
651.38	41062.36
651.52	40741.71
651.67	40942.99
651.81	41088.10
651.96	41062.36
652.10	40563.82
652.25	40664.47
652.39	40999.16
652.54	40690.21
652.68	40753.41
652.83	40552.12
652.97	41031.93
653.12	40858.73
653.26	40697.24
653.41	40781.49
653.55	40886.82
653.70	40755.75
653.84	40858.73
653.99	41284.71
654.13	40837.67
654.27	40631.70
654.42	40624.68
654.56	40495.95
654.71	40449.14
654.85	40837.67
655.00	40673.83
655.14	40720.64
655.29	40734.68
655.43	40772.13
655.57	40467.86
655.72	40430.41
655.86	40289.98
656.01	40177.64
656.15	39749.32
656.30	39768.04
656.44	40765.11
656.58	40353.18
656.73	40245.51
656.87	40060.61
657.01	40187.00
657.16	40046.57
657.30	40076.99
657.45	40189.34
657.59	39896.77
657.73	40142.53
657.88	40444.46
658.02	40238.49
658.16	39941.24
658.31	39761.02
658.45	40041.88
658.60	39470.79
658.74	39789.11
658.88	39714.21
659.03	39487.18
659.17	38831.83
659.31	39260.15
659.46	39330.36
659.60	40376.58
659.74	39620.59
659.89	39388.88
660.03	38724.16
660.17	39042.48
660.32	38810.76
660.46	39428.66
660.60	38710.12
660.74	39187.59
660.89	39159.50
661.03	38866.94
661.17	38939.49
661.32	39131.42
661.46	38604.80
661.60	38799.06
661.74	38492.45
661.89	38745.23
662.03	38616.50
662.17	38291.16
662.31	38527.56
662.46	38792.04
662.60	37970.51
662.74	38326.27
662.88	37811.35
663.03	37972.85
663.17	38253.72
663.31	37897.95
663.45	38199.88
663.60	38572.03
663.74	38115.62
663.88	38080.52
664.02	37855.82
664.17	38031.36
664.31	37668.58
664.45	37677.94
664.59	37750.50
664.73	37291.76
664.88	38265.42
665.02	37493.04
665.16	37350.27
665.30	37432.19
665.44	37383.04
665.59	37457.93
665.73	37235.58
665.87	36825.99
666.01	37102.17
666.15	37057.70
666.29	37106.85
666.44	36950.04
666.58	36680.88
666.72	36397.67
666.86	37017.91
667.00	36950.04
667.14	36512.36
667.28	36634.06
667.43	36376.61
667.57	36872.80
667.71	37060.04
667.85	36893.86
667.99	36229.15
668.13	36402.35
668.27	36006.80
668.41	36107.44
668.56	36032.55
668.70	35817.22
668.84	35779.77
668.98	35709.55
669.12	36329.80
669.26	36194.04
669.40	35730.62
669.54	35754.02
669.68	35597.21
669.82	35791.47
669.96	35470.82
670.10	35512.95
670.25	35374.86
670.39	35548.06
670.53	35524.65
670.67	35232.08
670.81	35707.21
670.95	35349.11
671.09	34944.20
671.23	34852.92
671.37	35023.78
671.51	34850.58
671.65	34668.02
671.79	34522.90
671.93	35133.78
672.07	34703.12
672.21	34948.88
672.35	34291.19
672.49	34485.45
672.63	34244.38
672.77	34143.74
672.91	34209.27
673.05	34167.14
673.19	33509.45
673.33	34059.48
673.47	34122.67
673.61	33617.11
673.75	33404.13
673.89	33673.29
674.03	33310.50
674.17	33282.42
674.31	33406.47
674.45	33303.48
674.59	33509.45
674.73	33682.65
674.87	32828.35
675.01	32875.16
675.15	32870.48
675.29	32926.66
675.43	32449.19
675.56	32524.08
675.70	32610.68
675.84	32355.57
675.98	31440.42
676.12	32444.51
676.26	32205.77
676.40	32477.27
676.54	31791.50
676.68	31899.16
676.82	31821.92
676.96	31433.39
677.10	31740.00
677.23	32128.53
677.37	31791.50
677.51	31204.02
677.65	31681.49
677.79	31260.20
677.93	31070.61
678.07	31239.13
678.21	31030.82
678.34	30663.36
678.48	30448.03
678.62	30703.15
678.76	30771.02
678.90	30251.42
679.04	30300.58
679.18	30658.68
679.31	30359.09
679.45	30087.59
679.59	29905.02
679.73	30494.84
679.87	29958.86
680.00	29809.06
680.14	29750.55
680.28	29696.72
680.42	29537.56
680.56	29589.05
680.70	29069.45
680.83	28840.08
680.97	28879.87
681.11	29446.28
681.25	28814.34
681.39	28437.51
681.52	28870.51
681.66	28299.42
681.80	28133.24
681.94	27880.46
682.07	28009.19
682.21	28112.17
682.35	28442.19
682.49	28067.70
682.62	27873.44
682.76	28142.60
682.90	27943.66
683.04	27653.43
683.17	27405.33
683.31	27463.85
683.45	27084.68
683.59	26848.29
683.72	27105.74
683.86	27094.04
684.00	27037.87
684.13	26869.35
684.27	26665.72
684.41	26513.59
684.55	26677.43
684.68	26569.76
684.82	26394.22
684.96	26338.05
685.09	26263.15
685.23	26183.57
685.37	26637.64
685.50	26302.94
685.64	25989.31
685.78	25956.54
685.91	25551.63
686.05	25373.75
686.19	25060.12
686.32	25310.55
686.46	25046.07
686.60	24582.65
686.73	25184.16
686.87	25027.35
687.01	24968.84
687.14	24903.30
687.28	24655.20
687.42	24694.99
687.55	24404.77
687.69	24514.77
687.82	24367.32
687.96	24519.45
688.10	24332.21
688.23	24287.74
688.37	24339.23
688.50	24254.97
688.64	24229.23
688.78	24039.64
688.91	23824.31
689.05	23407.70
689.18	23576.22
689.32	23166.62
689.46	23379.61
689.59	23168.96
689.73	23506.00
689.86	23124.49
690.00	22829.59
690.13	23194.71
690.27	22794.48
690.41	22675.11
690.54	22436.38
690.68	22354.46
690.81	22672.77
690.95	22190.62
691.08	22195.30
691.22	22162.53
691.35	22230.41
691.49	22082.95
691.62	21823.16
691.76	21727.19
691.89	21666.34
692.03	21476.76
692.16	21226.32
692.30	21352.71
692.43	21336.32
692.57	21333.98
692.70	21254.40
692.84	20910.35
692.97	20805.02
693.11	20828.43
693.24	20596.71
693.38	20751.19
693.51	20032.65
693.65	20383.73
693.78	20402.45
693.92	20339.26
694.05	20194.14
694.19	19967.11
694.32	19981.15
694.45	20409.47
694.59	20360.32
694.72	20159.03
694.86	19791.57
694.99	19541.13
695.13	19604.33
695.26	19669.86
695.39	19236.86
695.53	19426.45
695.66	19164.31
695.80	19379.64
695.93	19271.97
696.07	18930.25
696.20	18621.30
696.33	18464.49
696.47	18410.65
696.60	18562.79
696.73	18476.19
696.87	18780.46
697.00	18735.99
697.14	18209.37
697.27	18249.16
697.40	18012.76
697.54	17830.20
697.67	17989.36
697.80	18001.06
697.94	17652.32
698.07	17554.02
698.21	17724.88
698.34	17598.49
698.47	17387.84
698.61	17163.15
698.74	17043.78
698.87	17579.76
699.01	17064.85
699.14	17135.06
699.27	17001.65
699.40	16943.14
699.54	16755.90
699.67	16697.38
699.80	16706.74
699.94	16585.04
700.07	16748.87
700.20	16152.04
700.34	16273.74
700.47	16622.48
700.60	16734.83
700.73	16219.91
700.87	16058.42
701.00	15817.34
701.13	15744.78
701.26	15796.28
701.40	15744.78
701.53	15784.57
701.66	15660.52
701.79	15606.69
701.93	15208.80
702.06	15232.21
702.19	15506.05
702.32	15091.77
702.46	15323.49
702.59	15442.85
702.72	15068.37
702.85	14965.39
702.99	14995.81
703.12	14719.63
703.25	14504.30
703.38	14743.03
703.51	14361.53
703.65	14518.34
703.78	14523.02
703.91	14225.78
704.04	13996.40
704.17	14178.97
704.31	14267.91
704.44	14104.07
704.57	14148.54
704.70	13940.23
704.83	13895.76
704.96	13713.20
705.10	13673.41
705.23	13556.38
>>>>>End Processed Spectral Data<<<<<
