SpectraSuite Data File
++++++++++++++++++++++++++++++++++++
Date: Fri Oct 25 11:34:05 EDT 2013
User: price-jones
Dark Spectrum Present: No
Reference Spectrum Present: No
Number of Sampled Component Spectra: 1
Spectrometers: USB2+H05261
Integration Time (usec): 100000 (USB2+H05261)
Spectra Averaged: 1 (USB2+H05261)
Boxcar Smoothing: 0 (USB2+H05261)
Correct for Electrical Dark: No (USB2+H05261)
Strobe/Lamp Enabled: No (USB2+H05261)
Correct for Detector Non-linearity: No (USB2+H05261)
Correct for Stray Light: No (USB2+H05261)
Number of Pixels in Processed Spectrum: 2048
>>>>>Begin Processed Spectral Data<<<<<
365.73	278.52
365.92	278.52
366.12	278.52
366.32	227.03
366.52	184.90
366.72	297.25
366.91	187.24
367.11	163.84
367.31	147.45
367.51	194.26
367.70	189.58
367.90	198.95
368.10	243.42
368.30	205.97
368.49	180.22
368.69	203.63
368.89	156.82
369.09	189.58
369.28	187.24
369.48	166.18
369.68	182.56
369.87	318.31
370.07	231.71
370.27	294.91
370.47	313.63
370.66	437.68
370.86	463.43
371.06	491.51
371.25	543.00
371.45	498.53
371.65	594.50
371.84	524.28
372.04	587.47
372.24	599.18
372.44	505.56
372.63	622.58
372.83	543.00
373.03	580.45
373.22	559.39
373.42	669.39
373.62	655.35
373.81	571.09
374.01	678.76
374.21	699.82
374.40	655.35
374.60	751.31
374.79	674.07
374.99	622.58
375.19	596.84
375.38	662.37
375.58	603.86
375.78	662.37
375.97	671.73
376.17	713.86
376.37	695.14
376.56	650.67
376.76	704.50
376.95	676.41
377.15	669.39
377.35	681.10
377.54	671.73
377.74	702.16
377.93	676.41
378.13	788.76
378.33	692.80
378.52	683.44
378.72	746.63
378.91	779.40
379.11	709.18
379.31	667.05
379.50	636.63
379.70	781.74
379.89	739.61
380.09	739.61
380.28	718.54
380.48	704.50
380.68	786.42
380.87	781.74
381.07	664.71
381.26	847.27
381.46	755.99
381.65	758.33
381.85	739.61
382.04	774.72
382.24	744.29
382.43	781.74
382.63	741.95
382.83	814.51
383.02	880.04
383.22	861.32
383.41	800.46
383.61	798.12
383.80	875.36
384.00	767.70
384.19	800.46
384.39	840.25
384.58	748.97
384.78	873.02
384.97	915.15
385.17	779.40
385.36	788.76
385.56	854.30
385.75	807.48
385.95	858.98
386.14	868.34
386.34	828.55
386.53	821.53
386.72	826.21
386.92	840.25
387.11	896.43
387.31	884.72
387.50	952.60
387.70	908.13
387.89	854.30
388.09	889.40
388.28	828.55
388.48	931.53
388.67	938.55
388.86	940.90
389.06	971.32
389.25	933.87
389.45	976.00
389.64	964.30
389.84	1039.20
390.03	959.62
390.22	968.98
390.42	1004.09
390.61	985.37
390.81	1022.81
391.00	959.62
391.19	985.37
391.39	971.32
391.58	912.81
391.78	1013.45
391.97	1071.97
392.16	1006.43
392.36	992.39
392.55	994.73
392.75	1128.14
392.94	1076.65
393.13	1043.88
393.33	964.30
393.52	1076.65
393.71	1170.27
393.91	1046.22
394.10	1036.86
394.29	1095.37
394.49	1135.16
394.68	1083.67
394.88	1102.39
395.07	1165.59
395.26	1125.80
395.46	1139.84
395.65	1146.86
395.84	1210.06
396.04	1217.08
396.23	1163.25
396.42	1135.16
396.62	1156.22
396.81	1135.16
397.00	1130.48
397.19	1179.63
397.39	1156.22
397.58	1270.91
397.77	1212.40
397.97	1249.85
398.16	1245.16
398.35	1240.48
398.55	1207.72
398.74	1261.55
398.93	1261.55
399.12	1334.11
399.32	1306.02
399.51	1296.66
399.70	1420.71
399.90	1266.23
400.09	1378.58
400.28	1378.58
400.47	1329.42
400.67	1352.83
400.86	1437.09
401.05	1430.07
401.24	1406.66
401.44	1476.88
401.63	1369.21
401.82	1462.83
402.01	1380.92
402.21	1366.87
402.40	1404.32
402.59	1511.99
402.78	1448.79
402.97	1519.01
403.17	1540.07
403.36	1451.13
403.55	1561.14
403.74	1549.43
403.93	1533.05
404.13	1565.82
404.32	1479.22
404.51	1563.48
404.70	1614.97
404.89	1523.69
405.09	1661.78
405.28	1624.33
405.47	1652.42
405.66	1659.44
405.85	1692.21
406.05	1701.57
406.24	1650.08
406.43	1776.47
406.62	1809.23
406.81	1788.17
407.00	1834.98
407.20	1650.08
407.39	1783.49
407.58	1757.74
407.77	1806.89
407.96	1902.86
408.15	1935.62
408.34	1865.41
408.54	1853.70
408.73	1806.89
408.92	1844.34
409.11	1963.71
409.30	1973.07
409.49	1949.67
409.68	1984.77
409.87	2019.88
410.07	2050.31
410.26	2069.03
410.45	2045.63
410.64	1998.82
410.83	2097.12
411.02	2146.27
411.21	2097.12
411.40	2195.42
411.59	2179.04
411.78	2202.44
411.98	2099.46
412.17	2244.57
412.36	2188.40
412.55	2195.42
412.74	2312.45
412.93	2244.57
413.12	2321.81
413.31	2293.72
413.50	2345.22
413.69	2296.07
413.88	2389.69
414.07	2298.41
414.26	2448.20
414.45	2448.20
414.64	2495.01
414.83	2600.34
415.02	2513.74
415.22	2651.83
415.41	2605.02
415.60	2597.99
415.79	2633.10
415.98	2731.41
416.17	2649.49
416.36	2621.40
416.55	2640.12
416.74	2729.06
416.93	2715.02
417.12	2843.75
417.31	2696.30
417.50	2684.59
417.69	2923.33
417.88	2801.62
418.07	2932.69
418.26	2890.56
418.45	2949.08
418.64	3045.04
418.83	2878.86
419.02	3033.33
419.21	3108.23
419.39	3070.78
419.58	3080.14
419.77	3073.12
419.96	3194.83
420.15	3136.32
420.34	3101.21
420.53	3166.74
420.72	3206.53
420.91	3103.55
421.10	3222.92
421.29	3253.34
421.48	3143.34
421.67	3293.13
421.86	3248.66
422.05	3260.37
422.24	3185.47
422.43	3351.65
422.61	3386.76
422.80	3482.72
422.99	3339.94
423.18	3372.71
423.37	3307.18
423.56	3199.51
423.75	3316.54
423.94	3253.34
424.13	3033.33
424.32	3274.41
424.50	3379.73
424.69	3342.28
424.88	3346.97
425.07	3337.60
425.26	3323.56
425.45	3368.03
425.64	3384.41
425.83	3459.31
426.01	3473.36
426.20	3471.01
426.39	3302.50
426.58	3424.20
426.77	3463.99
426.96	3480.38
427.15	3438.25
427.33	3515.48
427.52	3545.91
427.71	3550.59
427.90	3536.55
428.09	3475.70
428.28	3634.85
428.46	3742.52
428.65	3648.90
428.84	3761.24
429.03	3716.77
429.22	3606.77
429.40	3730.81
429.59	3599.74
429.78	3536.55
429.97	3527.19
430.16	3749.54
430.34	3803.37
430.53	3824.44
430.72	3791.67
430.91	3932.10
431.10	3810.39
431.28	3875.93
431.47	3962.53
431.66	3960.19
431.85	3925.08
432.03	3943.80
432.22	4011.68
432.41	4039.76
432.60	4049.13
432.79	3971.89
432.97	3969.55
433.16	3955.51
433.35	3988.27
433.54	3967.21
433.72	4145.09
433.91	4037.42
434.10	4149.77
434.28	3990.61
434.47	4154.45
434.66	4107.64
434.85	4243.39
435.03	4262.12
435.22	4292.54
435.41	4355.74
435.59	4278.50
435.78	4351.06
435.97	4390.84
436.16	4227.01
436.34	4292.54
436.53	4367.44
436.72	4517.23
436.90	4393.19
437.09	4498.51
437.28	4498.51
437.46	4535.96
437.65	4376.80
437.84	4500.85
438.02	4510.21
438.21	4355.74
438.40	4603.83
438.58	4645.96
438.77	4638.94
438.96	4751.29
439.14	4758.31
439.33	4741.93
439.52	4791.08
439.70	4835.55
439.89	4877.68
440.08	5034.49
440.26	4966.62
440.45	4933.85
440.63	4964.28
440.82	5107.05
441.01	4994.70
441.19	4842.57
441.38	5235.78
441.57	5238.12
441.75	5064.92
441.94	5170.24
442.12	5298.97
442.31	5526.00
442.50	5416.00
442.68	5315.36
442.87	5233.44
443.05	5371.53
443.24	5551.75
443.43	5533.03
443.61	5509.62
443.80	5570.48
443.98	5336.42
444.17	5366.85
444.35	5596.22
444.54	5570.48
444.73	5509.62
444.91	5497.92
445.10	5774.10
445.28	5671.12
445.47	5467.49
445.65	5462.81
445.84	5666.44
446.02	5621.97
446.21	5474.51
446.39	5626.65
446.58	5614.95
446.77	5727.29
446.95	5586.86
447.14	5668.78
447.32	5776.44
447.51	5905.17
447.69	5710.91
447.88	5722.61
448.06	5720.27
448.25	5654.73
448.43	5607.92
448.62	5738.99
448.80	5870.06
448.99	6073.69
449.17	5799.85
449.36	5774.10
449.54	5865.38
449.73	5877.09
449.91	5881.77
450.10	6012.84
450.28	5984.75
450.46	6031.56
450.65	5944.96
450.83	6120.50
451.02	6057.31
451.20	6127.52
451.39	5980.07
451.57	6136.88
451.76	6047.94
451.94	6153.27
452.13	6176.67
452.31	6153.27
452.49	5998.79
452.68	6169.65
452.86	6188.38
453.05	6101.78
453.23	6413.07
453.42	6307.74
453.60	6256.25
453.78	6317.11
453.97	6321.79
454.15	6422.43
454.34	6179.01
454.52	6530.09
454.70	6483.28
454.89	6537.12
455.07	6497.33
455.26	6492.65
455.44	6565.20
455.62	6455.20
455.81	6677.55
455.99	6633.08
456.17	6640.10
456.36	6747.76
456.54	6691.59
456.73	6745.42
456.91	6918.62
457.09	6775.85
457.28	6878.83
457.46	6780.53
457.64	6902.24
457.83	6850.75
458.01	6878.83
458.19	7295.45
458.38	6974.80
458.56	7108.21
458.74	7019.27
458.93	7059.06
459.11	7042.67
459.29	7026.29
459.48	7021.61
459.66	7157.36
459.84	7112.89
460.03	7405.46
460.21	7159.70
460.39	7267.36
460.57	7410.14
460.76	7311.83
460.94	7375.03
461.12	7236.94
461.31	7365.67
461.49	7332.90
461.67	7435.88
461.85	7545.89
462.04	7492.05
462.22	8004.63
462.40	7646.53
462.59	7552.91
462.77	7531.84
462.95	7782.28
463.13	7541.21
463.32	7595.04
463.50	7735.47
463.68	7604.40
463.86	7733.13
464.05	7770.58
464.23	7653.55
464.41	7815.05
464.59	7695.68
464.78	8093.57
464.96	8049.10
465.14	7751.85
465.32	8006.97
465.50	7997.61
465.69	7957.82
465.87	7873.56
466.05	7899.31
466.23	8032.72
466.41	8191.88
466.60	8100.59
466.78	8149.75
466.96	8060.80
467.14	8004.63
467.32	8077.19
467.51	8304.22
467.69	7969.52
467.87	8056.12
468.05	8287.84
468.23	8191.88
468.41	8238.69
468.60	8294.86
468.78	8341.67
468.96	8404.86
469.14	8336.99
469.32	8585.08
469.50	8451.67
469.69	8582.74
469.87	8709.13
470.05	8599.13
470.23	8772.33
470.41	8727.86
470.59	8772.33
470.77	8697.43
470.95	8699.77
471.14	8861.27
471.32	8641.26
471.50	8999.36
471.68	8910.42
471.86	8823.82
472.04	8933.82
472.22	9151.49
472.40	8809.78
472.58	9104.68
472.77	9149.15
472.95	9142.13
473.13	9495.55
473.31	8929.14
473.49	9247.46
473.67	9291.93
473.85	9336.40
474.03	9437.04
474.21	9687.48
474.39	9582.15
474.57	9614.92
474.75	9685.14
474.93	9792.80
475.12	9689.82
475.30	9944.94
475.48	9568.11
475.66	10024.51
475.84	9841.95
476.02	9961.32
476.20	10031.54
476.38	10284.31
476.56	10490.28
476.74	10300.70
476.92	10221.12
477.10	10073.67
477.28	10328.78
477.46	10733.70
477.64	10672.84
477.82	10874.13
478.00	11044.99
478.18	10911.58
478.36	10958.39
478.54	11250.96
478.72	11314.15
478.90	11428.84
479.08	11449.90
479.26	11735.45
479.44	11587.99
479.62	11211.17
479.80	11730.76
479.98	11793.96
480.16	12081.85
480.34	11967.16
480.52	11829.07
480.70	12058.44
480.88	12156.74
481.06	12173.13
481.24	11857.15
481.41	12379.09
481.59	12734.85
481.77	12500.80
481.95	12744.22
482.13	12980.61
482.31	12702.09
482.49	12971.25
482.67	13081.25
482.85	13249.77
483.03	13458.08
483.21	13451.06
483.39	13380.84
483.57	13242.75
483.74	13582.13
483.92	13645.32
484.10	13757.67
484.28	14097.05
484.46	14321.74
484.64	14583.88
484.82	14396.64
485.00	14640.05
485.18	14712.61
485.35	14888.15
485.53	14743.03
485.71	14778.14
485.89	15220.50
486.07	15033.26
486.25	15080.07
486.43	15124.54
486.61	15637.12
486.78	15807.98
486.96	15466.26
487.14	15850.11
487.32	16161.40
487.50	16027.99
487.68	16116.93
487.85	16414.18
488.03	16451.63
488.21	16912.71
488.39	16732.49
488.57	16898.67
488.75	17050.80
488.92	17130.38
489.10	17294.22
489.28	17209.96
489.46	17308.26
489.64	17383.16
489.81	17785.73
489.99	17958.93
490.17	17736.58
490.35	17884.03
490.53	18302.99
490.70	18242.14
490.88	18380.23
491.06	18415.34
491.24	18464.49
491.41	18562.79
491.59	18902.17
491.77	18918.55
491.95	19073.03
492.13	18836.63
492.30	19281.33
492.48	19431.13
492.66	19730.72
492.84	19587.94
493.01	19784.55
493.19	19859.45
493.37	20250.32
493.54	20147.33
493.72	20561.61
493.90	20341.60
494.08	20329.89
494.25	20570.97
494.43	20730.12
494.61	20592.03
494.79	20755.87
494.96	20739.49
495.14	20910.35
495.32	21294.19
495.49	21432.29
495.67	21577.40
495.85	21645.27
496.02	21640.59
496.20	21708.47
496.38	22199.98
496.55	22239.77
496.73	22511.27
496.91	22148.49
497.09	22256.15
497.26	22347.44
497.44	22501.91
497.62	22927.89
497.79	22883.42
497.97	22864.69
498.14	23194.71
498.32	23288.33
498.50	23051.94
498.67	23660.48
498.85	23140.88
499.03	23758.78
499.20	23508.34
499.38	23807.93
499.56	23953.04
499.73	24173.05
499.91	24257.31
500.08	24049.00
500.26	24144.97
500.44	24629.46
500.61	24259.65
500.79	23953.04
500.97	24702.01
501.14	25034.37
501.32	24896.28
501.49	24945.43
501.67	25057.78
501.84	25329.28
502.02	24802.66
502.20	25649.93
502.37	25275.45
502.55	24961.81
502.72	25397.15
502.90	25680.36
503.07	25514.18
503.25	25479.07
503.43	25507.16
503.60	25951.86
503.78	26064.21
503.95	26162.51
504.13	26029.10
504.30	26089.95
504.48	26438.69
504.65	26391.88
504.83	26696.15
505.01	26504.23
505.18	26419.97
505.36	27220.43
505.53	26639.98
505.71	26506.57
505.88	27035.53
506.06	26513.59
506.23	27215.75
506.41	27281.28
506.58	26859.99
506.76	27484.91
506.93	27370.22
507.11	27754.07
507.28	27552.79
507.46	27831.31
507.63	27761.09
507.81	28013.87
507.98	28126.22
508.16	27955.36
508.33	28236.22
508.50	28374.31
508.68	28297.08
508.85	28582.62
509.03	28556.88
509.20	28250.27
509.38	28460.91
509.55	28664.54
509.73	28929.02
509.90	28737.10
510.08	29062.43
510.25	29221.59
510.42	28893.91
510.60	29963.54
510.77	29544.58
510.95	29771.61
511.12	29104.56
511.30	29532.88
511.47	29474.37
511.64	29607.78
511.82	29848.85
511.99	29771.61
512.17	29933.11
512.34	30157.80
512.51	29916.73
512.69	30424.62
512.86	30284.19
513.04	30075.88
513.21	30148.44
513.38	30443.35
513.56	30588.46
513.73	30705.49
513.90	30602.50
514.08	30967.63
514.25	30906.77
514.43	30845.92
514.60	30829.54
514.77	31115.08
514.95	31253.17
515.12	30913.80
515.29	31197.00
515.47	31463.82
515.64	31665.11
515.81	31330.41
515.99	31608.93
516.16	31821.92
516.33	31782.13
516.51	31723.62
516.68	31840.65
516.85	31985.76
517.03	31948.31
517.20	32053.64
517.37	32077.04
517.54	32112.15
517.72	32177.68
517.89	32182.37
518.06	32620.05
518.24	32496.00
518.41	31950.65
518.58	32367.27
518.75	32882.19
518.93	32622.39
519.10	32727.71
519.27	32708.99
519.45	32809.63
519.62	33188.80
519.79	32980.49
519.96	33305.82
520.14	33097.52
520.31	33460.30
520.48	33116.24
520.65	33359.66
520.83	33565.62
521.00	33921.38
521.17	33762.23
521.34	33928.41
521.52	33809.04
521.69	33991.60
521.86	34293.53
522.03	34227.99
522.20	34377.79
522.38	34443.32
522.55	34176.50
522.72	34508.86
522.89	34316.93
523.07	34763.98
523.24	34506.52
523.41	34892.71
523.58	34218.63
523.75	35014.41
523.92	34464.39
524.10	34630.57
524.27	34803.77
524.44	35501.25
524.61	35023.78
524.78	35346.77
524.96	35117.40
525.13	35587.85
525.30	35880.41
525.47	35302.30
525.64	35269.53
525.81	35983.40
525.98	35562.10
526.16	35522.31
526.33	35496.56
526.50	36023.19
526.67	35566.78
526.84	35917.86
527.01	36407.03
527.18	36053.61
527.36	36219.79
527.53	36418.74
527.70	36573.21
527.87	36362.56
528.04	36622.36
528.21	36334.48
528.38	36430.44
528.55	36694.92
528.72	36634.06
528.89	36481.93
529.07	36542.78
529.24	36648.11
529.41	36811.95
529.58	36837.69
529.75	36348.52
529.92	36910.25
530.09	37331.54
530.26	37340.91
530.43	36971.10
530.60	37254.31
530.77	37188.77
530.94	37361.97
531.11	36982.80
531.28	37156.00
531.46	37399.42
531.63	37205.16
531.80	37736.46
531.97	37689.65
532.14	37474.32
532.31	37535.17
532.48	37689.65
532.65	37787.95
532.82	37598.37
532.99	38007.96
533.16	37755.18
533.33	37888.59
533.50	38480.75
533.67	37893.27
533.84	37794.97
534.01	38022.00
534.18	38000.94
534.35	38518.20
534.52	37970.51
534.69	38361.38
534.86	38541.60
535.03	38293.50
535.20	38504.15
535.37	38417.55
535.54	38700.76
535.71	38799.06
535.88	38981.62
536.05	39278.87
536.22	39138.44
536.38	38501.81
536.55	38569.69
536.72	38838.85
536.89	39079.92
537.06	39210.99
537.23	39138.44
537.40	38883.32
537.57	39105.67
537.74	39098.65
537.91	39875.71
538.08	39124.40
538.25	39063.54
538.42	39215.68
538.59	39878.05
538.75	39234.40
538.92	39840.60
539.09	39508.24
539.26	39351.43
539.43	40048.91
539.60	39777.40
539.77	40076.99
539.94	40114.44
540.11	40119.12
540.28	40105.08
540.44	40088.70
540.61	39814.85
540.78	39641.65
540.95	40292.32
541.12	39929.54
541.29	39983.37
541.46	40154.23
541.62	40311.05
541.79	40643.40
541.96	39929.54
542.13	40348.50
542.30	40425.73
542.47	40926.61
542.63	40706.60
542.80	40928.95
542.97	41144.28
543.14	41104.49
543.31	41254.28
543.48	41235.56
543.64	41268.33
543.81	41315.14
543.98	41088.10
544.15	41151.30
544.32	41282.37
544.48	41790.27
544.65	41551.53
544.82	41535.15
544.99	41373.65
545.16	41556.21
545.32	41539.83
545.49	41507.06
545.66	42045.38
545.83	42436.25
546.00	41977.51
546.16	41808.99
546.33	41471.95
546.50	41219.17
546.67	42134.32
546.83	41453.23
547.00	41996.23
547.17	42082.83
547.34	41921.34
547.50	42288.80
547.67	42815.42
547.84	42199.86
548.00	42590.73
548.17	42602.43
548.34	42206.88
548.51	42333.27
548.67	42632.86
548.84	42637.54
549.01	42389.44
549.18	42548.60
549.34	42623.50
549.51	42838.83
549.68	43089.26
549.84	42408.17
550.01	42937.13
550.18	42555.62
550.34	42691.37
550.51	43276.51
550.68	42904.36
550.84	43044.79
551.01	43292.89
551.18	42574.34
551.34	42848.19
551.51	43159.48
551.68	43189.91
551.84	42988.62
552.01	43140.75
552.18	43194.59
552.34	43002.66
552.51	43042.45
552.68	42995.64
552.84	43021.39
553.01	43686.10
553.18	43260.12
553.34	43445.02
553.51	43229.69
553.67	43643.97
553.84	43903.77
554.01	43730.57
554.17	43887.39
554.34	43601.84
554.51	43501.20
554.67	44294.64
554.84	43782.06
555.00	43618.22
555.17	43856.96
555.33	43915.47
555.50	43728.23
555.67	43887.39
555.83	43966.96
556.00	44128.46
556.16	44734.66
556.33	44254.85
556.50	43943.56
556.66	44418.69
556.83	44245.49
556.99	44589.55
557.16	44105.06
557.32	44505.29
557.49	44240.81
557.65	44421.03
557.82	44355.49
557.98	44374.22
558.15	44449.11
558.32	44360.17
558.48	44381.24
558.65	44765.09
558.81	44186.97
558.98	44598.91
559.14	44151.87
559.31	44561.46
559.47	44559.12
559.64	44533.37
559.80	44355.49
559.97	44498.26
560.13	44264.21
560.30	44624.65
560.46	45001.48
560.63	44772.11
560.79	44718.28
560.96	45226.17
561.12	44767.43
561.29	44643.38
561.45	45186.38
561.61	45001.48
561.78	45296.39
561.94	44718.28
562.11	44999.14
562.27	44912.54
562.44	45380.65
562.60	45027.23
562.77	44849.35
562.93	45240.21
563.10	45591.30
563.26	45144.25
563.42	45521.08
563.59	44706.57
563.75	45062.33
563.92	45329.16
564.08	45022.54
564.24	45158.30
564.41	45336.18
564.57	45411.07
564.74	45193.40
564.90	44741.68
565.07	45425.12
565.23	45134.89
565.39	45174.68
565.56	45205.11
565.72	44945.31
565.88	45476.61
566.05	45326.81
566.21	45748.11
566.38	45448.52
566.54	45610.02
566.70	45720.02
566.87	45106.80
567.03	45492.99
567.19	45263.62
567.36	45160.64
567.52	45441.50
567.68	45813.65
567.85	45401.71
568.01	45677.90
568.17	45640.45
568.34	45872.16
568.50	45687.26
568.66	45886.20
568.83	45813.65
568.99	45411.07
569.15	45684.92
569.32	45631.08
569.48	45404.05
569.64	45963.44
569.81	46134.30
569.97	46188.13
570.13	46113.23
570.30	45673.21
570.46	45808.96
570.62	45961.10
570.78	46012.59
570.95	45345.54
571.11	45951.74
571.27	45944.72
571.43	45390.01
571.60	45914.29
571.76	45914.29
571.92	45825.35
572.09	45958.76
572.25	45567.89
572.41	45698.96
572.57	45710.66
572.74	46028.98
572.90	45970.46
573.06	46211.54
573.22	46101.53
573.38	46478.36
573.55	46728.80
573.71	46518.15
573.87	46461.97
574.03	46199.83
574.20	46014.93
574.36	46021.95
574.52	46466.66
574.68	46253.67
574.84	46080.47
575.01	46183.45
575.17	46190.47
575.33	46057.06
575.49	45933.01
575.65	46328.56
575.82	45811.31
575.98	46169.41
576.14	46052.38
576.30	46302.82
576.46	46604.75
576.62	46019.61
576.79	46026.63
576.95	46054.72
577.11	46319.20
577.27	46129.62
577.43	46239.62
577.59	46412.82
577.75	46157.70
577.92	45961.10
578.08	46092.17
578.24	46251.33
578.40	46323.88
578.56	46876.25
578.72	46321.54
578.88	46356.65
579.04	46600.07
579.21	46443.25
579.37	46366.01
579.53	46490.06
579.69	46459.63
579.85	46143.66
580.01	46770.93
580.17	46513.47
580.33	46721.77
580.49	46630.49
580.65	46461.97
580.82	46349.63
580.98	46550.91
581.14	46113.23
581.30	46604.75
581.46	46148.34
581.62	46588.36
581.78	46071.10
581.94	46265.37
582.10	46525.17
582.26	46223.24
582.42	46691.35
582.58	46557.94
582.74	46740.50
582.90	46506.44
583.06	46710.07
583.22	46239.62
583.38	46464.32
583.54	46211.54
583.70	46646.88
583.86	46937.10
584.02	46590.70
584.18	47056.47
584.34	46115.58
584.50	46553.26
584.66	46700.71
584.82	46714.75
584.98	46979.23
585.14	46728.80
585.30	46246.65
585.46	47009.66
585.62	46717.09
585.78	46899.65
585.94	46197.49
586.10	46564.96
586.26	46389.42
586.42	46829.44
586.58	46443.25
586.74	46569.64
586.90	46501.76
587.06	46305.16
587.22	47049.45
587.38	46190.47
587.54	46862.21
587.70	46738.16
587.86	47030.72
588.02	46670.28
588.18	46719.43
588.34	46581.34
588.49	46841.14
588.65	46527.51
588.81	46803.69
588.97	46735.82
589.13	46665.60
589.29	46459.63
589.45	46969.87
589.61	47126.69
589.77	46728.80
589.93	47166.48
590.08	47217.97
590.24	47196.90
590.40	47463.72
590.56	47056.47
590.72	47182.86
590.88	47082.22
591.04	47129.03
591.20	47365.42
591.35	47232.01
591.51	47271.80
591.67	46913.70
591.83	47009.66
591.99	47377.12
592.15	46646.88
592.31	47243.71
592.46	46948.81
592.62	47063.49
592.78	47524.58
592.94	47370.10
593.10	47477.77
593.26	47653.31
593.41	47330.31
593.57	47220.31
593.73	47119.66
593.89	47540.96
594.05	47173.50
594.20	47304.57
594.36	47665.01
594.52	47234.35
594.68	47358.40
594.84	47152.43
594.99	47662.67
595.15	47306.91
595.31	47597.13
595.47	47089.24
595.62	47297.55
595.78	46913.70
595.94	47445.00
596.10	47320.95
596.25	48083.97
596.41	47311.59
596.57	47185.20
596.73	47491.81
596.88	47526.92
597.04	47707.14
597.20	47325.63
597.36	47150.09
597.51	47585.43
597.67	47129.03
597.83	47419.25
597.99	47430.96
598.14	47309.25
598.30	47512.88
598.46	47470.75
598.61	47505.85
598.77	47629.90
598.93	47342.02
599.09	47309.25
599.24	47775.02
599.40	47171.16
599.56	47709.48
599.71	47959.92
599.87	47856.93
600.03	47707.14
600.18	47491.81
600.34	47524.58
600.50	47407.55
600.65	47515.22
600.81	47969.28
600.97	47491.81
601.12	47756.29
601.28	47370.10
601.44	47449.68
601.59	47454.36
601.75	47653.31
601.91	47863.96
602.06	47342.02
602.22	47290.52
602.37	47098.60
602.53	47318.61
602.69	47955.24
602.84	47248.39
603.00	47531.60
603.16	47484.79
603.31	47739.91
603.47	47786.72
603.62	47676.71
603.78	47676.71
603.94	47601.82
604.09	47772.67
604.25	47178.18
604.40	47337.33
604.56	47402.87
604.71	47737.57
604.87	47068.17
605.03	47363.08
605.18	47421.59
605.34	47777.36
605.49	47199.24
605.65	47112.64
605.80	47388.83
605.96	47257.76
606.12	47232.01
606.27	46944.12
606.43	47459.04
606.58	47210.95
606.74	46883.27
606.89	47805.44
607.05	47660.33
607.20	47480.11
607.36	47138.39
607.51	47503.51
607.67	47559.69
607.82	47262.44
607.98	47578.41
608.13	47107.96
608.29	47538.62
608.44	47264.78
608.60	47358.40
608.75	47194.56
608.91	47323.29
609.06	47016.68
609.22	47676.71
609.37	46955.83
609.53	47669.69
609.68	47400.53
609.84	47037.75
609.99	47199.24
610.15	47519.90
610.30	47182.86
610.46	47271.80
610.61	47012.00
610.76	47084.56
610.92	47061.15
611.07	46614.11
611.23	47564.37
611.38	47047.11
611.54	47082.22
611.69	47157.11
611.84	47180.52
612.00	47267.12
612.15	46838.80
612.31	47107.96
612.46	46731.14
612.62	46983.91
612.77	47016.68
612.92	47325.63
613.08	46773.27
613.23	46878.59
613.39	46349.63
613.54	46831.78
613.69	47171.16
613.85	47089.24
614.00	47196.90
614.15	47035.41
614.31	46710.07
614.46	46822.42
614.62	46981.57
614.77	47164.14
614.92	47339.68
615.08	46904.34
615.23	46794.33
615.38	46791.99
615.54	46979.23
615.69	46838.80
615.84	46408.14
616.00	46806.03
616.15	46829.44
616.30	46574.32
616.46	46625.81
616.61	46794.33
616.76	46700.71
616.92	46466.66
617.07	46674.96
617.22	46548.57
617.37	46356.65
617.53	46417.50
617.68	46167.07
617.83	46167.07
617.99	47030.72
618.14	46834.12
618.29	46480.70
618.45	46373.03
618.60	46518.15
618.75	46026.63
618.90	46162.39
619.06	46279.41
619.21	46326.22
619.36	46691.35
619.51	46162.39
619.67	45879.18
619.82	46157.70
619.97	46375.37
620.12	46291.12
620.28	45942.38
620.43	46637.51
620.58	46248.99
620.73	46012.59
620.89	46501.76
621.04	46679.64
621.19	46251.33
621.34	45808.96
621.49	46190.47
621.65	46087.49
621.80	46431.55
621.95	45696.62
622.10	45698.96
622.25	45902.59
622.41	45914.29
622.56	45705.98
622.71	46281.75
622.86	46312.18
623.01	45694.28
623.16	45979.82
623.32	45743.43
623.47	45904.93
623.62	45713.00
623.77	45759.81
623.92	45757.47
624.07	46036.00
624.23	45851.09
624.38	46101.53
624.53	45617.04
624.68	45560.87
624.83	45324.47
624.98	45954.08
625.13	45036.59
625.29	45235.53
625.44	45703.64
625.59	45418.10
625.74	45256.60
625.89	45436.82
626.04	45275.32
626.19	45155.96
626.34	45408.73
626.49	45343.20
626.65	44811.90
626.80	45268.30
626.95	45045.95
627.10	44868.07
627.25	45261.28
627.40	44865.73
627.55	45153.62
627.70	44975.73
627.85	45130.21
628.00	44697.21
628.15	44800.19
628.30	44830.62
628.45	44383.58
628.60	44809.56
628.76	44734.66
628.91	44858.71
629.06	44247.83
629.21	44430.39
629.36	44753.38
629.51	45017.86
629.66	45340.86
629.81	45022.54
629.96	45092.76
630.11	44418.69
630.26	44669.12
630.41	44676.15
630.56	44388.26
630.71	44416.35
630.86	44598.91
631.01	44236.12
631.16	44524.01
631.31	44378.90
631.46	44428.05
631.61	44725.30
631.76	44657.42
631.91	44755.72
632.06	44217.40
632.21	44524.01
632.36	44598.91
632.51	44397.62
632.66	44219.74
632.81	44231.44
632.96	44388.26
633.10	44266.55
633.25	44088.67
633.40	44664.44
633.55	44524.01
633.70	44231.44
633.85	43908.45
634.00	43997.39
634.15	43697.80
634.30	43716.53
634.45	43115.01
634.60	43950.58
634.75	43859.30
634.90	43976.33
635.05	44076.97
635.19	43606.52
635.34	43917.81
635.49	43557.37
635.64	44147.18
635.79	44238.47
635.94	43887.39
636.09	44119.10
636.24	43969.30
636.39	43519.92
636.53	43833.55
636.68	43894.41
636.83	43398.21
636.98	43679.08
637.13	43005.00
637.28	43079.90
637.43	43646.31
637.57	43943.56
637.72	43005.00
637.87	43756.32
638.02	43461.41
638.17	43384.17
638.32	43454.39
638.46	43054.15
638.61	43154.80
638.76	43269.48
638.91	43145.44
639.06	43112.67
639.20	43105.65
639.35	43316.29
639.50	42988.62
639.65	43477.79
639.80	43414.60
639.94	43569.07
640.09	43072.88
640.24	43187.56
640.39	43323.32
640.54	42241.99
640.68	42742.86
640.83	43253.10
640.98	42588.39
641.13	42667.97
641.27	43409.92
641.42	42773.29
641.57	42787.33
641.72	42520.51
641.86	42859.89
642.01	42220.92
642.16	42279.44
642.31	42169.43
642.45	43164.16
642.60	42614.13
642.75	42614.13
642.90	42857.55
643.04	42656.26
643.19	42731.16
643.34	42520.51
643.48	42178.79
643.63	42251.35
643.78	42291.14
643.93	42955.85
644.07	42485.40
644.22	42560.30
644.37	42164.75
644.51	42735.84
644.66	42581.37
644.81	42230.29
644.95	42546.26
645.10	41949.42
645.25	42244.33
645.39	41951.76
645.54	41869.84
645.69	42096.88
645.83	41652.17
645.98	41385.35
646.13	41883.89
646.27	42012.62
646.42	41340.88
646.57	41675.58
646.71	42127.30
646.86	41947.08
647.00	41706.01
647.15	42012.62
647.30	42150.71
647.44	42103.90
647.59	41727.07
647.74	41359.61
647.88	41734.09
648.03	41986.87
648.17	42471.36
648.32	42518.17
648.47	42117.94
648.61	41642.81
648.76	41766.86
648.90	41787.92
649.05	41621.75
649.20	41832.39
649.34	41701.32
649.49	41684.94
649.63	41888.57
649.78	41818.35
649.92	41869.84
650.07	42314.55
650.21	41879.21
650.36	41879.21
650.51	41682.60
650.65	41418.12
650.80	41305.77
650.94	42024.32
651.09	41240.24
651.23	40746.39
651.38	40840.01
651.52	41095.13
651.67	41294.07
651.81	40989.80
651.96	41074.06
652.10	41198.11
652.25	41008.53
652.39	41226.20
652.54	41102.15
652.68	40912.56
652.83	41092.79
652.97	41048.32
653.12	41249.60
653.26	40966.40
653.41	40837.67
653.55	40364.88
653.70	40950.01
653.84	40882.14
653.99	41193.43
654.13	40753.41
654.27	40823.62
654.42	40957.03
654.56	40355.52
654.71	41163.00
654.85	41134.92
655.00	40437.44
655.14	41331.52
655.29	41092.79
655.43	40938.31
655.57	40575.53
655.72	40308.71
655.86	40713.62
656.01	40261.90
656.15	39835.92
656.30	40109.76
656.44	40439.78
656.58	40465.52
656.73	40313.39
656.87	40076.99
657.01	39913.16
657.16	40376.58
657.30	40107.42
657.45	40341.47
657.59	40098.06
657.73	40163.59
657.88	40041.88
658.02	40098.06
658.16	40444.46
658.31	40203.38
658.45	39990.39
658.60	39922.52
658.74	39681.44
658.88	39805.49
659.03	39599.52
659.17	39393.56
659.31	39697.83
659.46	39646.33
659.60	39625.27
659.74	39498.88
659.89	39089.29
660.03	38916.09
660.17	39061.20
660.32	39285.89
660.46	39210.99
660.60	39044.82
660.74	39012.05
660.89	39203.97
661.03	38911.41
661.17	38724.16
661.32	38871.62
661.46	38890.34
661.60	38939.49
661.74	38387.13
661.89	38829.49
662.03	39084.61
662.17	38916.09
662.31	38581.39
662.46	38857.57
662.60	38803.74
662.74	38237.33
662.88	38234.99
663.03	37778.59
663.17	37780.93
663.31	37961.15
663.45	38256.06
663.60	38382.45
663.74	38082.86
663.88	38415.21
664.02	38155.41
664.17	38602.46
664.31	38160.09
664.45	37853.48
664.59	37872.21
664.73	37806.67
664.88	38220.95
665.02	37387.72
665.16	37523.47
665.30	37961.15
665.44	37694.33
665.59	37347.93
665.73	36678.54
665.87	37373.67
666.01	36966.42
666.15	37273.03
666.29	36893.86
666.44	37542.19
666.58	37448.57
666.72	37177.07
666.86	36814.29
667.00	37120.90
667.14	37198.13
667.28	36933.65
667.43	37015.57
667.57	37163.03
667.71	37043.66
667.85	37060.04
667.99	36685.56
668.13	36779.18
668.27	36385.97
668.41	36500.65
668.56	35718.92
668.70	36238.51
668.84	36105.10
668.98	35962.33
669.12	36224.47
669.26	36147.23
669.40	36271.28
669.54	35641.68
669.68	36048.93
669.82	35859.35
669.96	34998.03
670.10	35433.37
670.25	35662.74
670.39	35526.99
670.53	35632.32
670.67	35409.96
670.81	35536.35
670.95	35592.53
671.09	35454.44
671.23	35145.48
671.37	35728.28
671.51	35091.65
671.65	34897.39
671.79	34796.74
671.93	35211.02
672.07	35068.25
672.21	34969.94
672.35	34766.32
672.49	34714.83
672.63	34869.30
672.77	34389.49
672.91	34391.83
673.05	34176.50
673.19	33893.30
673.33	33905.00
673.47	33886.28
673.61	33972.88
673.75	33226.24
673.89	33642.86
674.03	33476.68
674.17	33619.46
674.31	33453.28
674.45	33235.61
674.59	33488.38
674.73	33369.02
674.87	32975.81
675.01	32826.01
675.15	32514.72
675.29	32542.81
675.43	33001.55
675.56	33095.18
675.70	32837.72
675.84	32690.26
675.98	31491.91
676.12	32465.57
676.26	32807.29
676.40	32390.67
676.54	31945.97
676.68	32292.37
676.82	31653.40
676.96	31943.63
677.10	32180.03
677.23	31749.37
677.37	31931.93
677.51	31597.23
677.65	31716.60
677.79	31283.60
677.93	31164.23
678.07	31496.59
678.21	30824.86
678.34	30965.29
678.48	30855.28
678.62	30719.53
678.76	30281.85
678.90	30752.30
679.04	30452.71
679.18	30693.79
679.31	30738.26
679.45	29984.60
679.59	29909.71
679.73	30588.46
679.87	30106.31
680.00	29848.85
680.14	29607.78
680.28	30010.35
680.42	29610.12
680.56	29638.20
680.70	29259.04
680.83	29289.46
680.97	29240.31
681.11	29275.42
681.25	29046.05
681.39	28765.18
681.52	28973.49
681.66	28788.59
681.80	28194.09
681.94	28184.73
682.07	28332.18
682.21	28435.17
682.35	28374.31
682.49	28030.26
682.62	28226.86
682.76	27693.22
682.90	27978.76
683.04	28135.58
683.17	27613.64
683.31	27704.92
683.45	27445.12
683.59	26993.40
683.72	26766.37
683.86	27297.67
684.00	27309.37
684.13	27000.42
684.27	26698.49
684.41	26965.31
684.55	26962.97
684.68	26441.03
684.82	26426.99
684.96	26464.44
685.09	26391.88
685.23	26448.05
685.37	26511.25
685.50	26780.41
685.64	26302.94
685.78	26003.35
685.91	25998.67
686.05	25532.90
686.19	25460.35
686.32	25418.22
686.46	24912.66
686.60	24898.62
686.73	25434.60
686.87	25085.86
687.01	25186.50
687.14	25046.07
687.28	25010.96
687.42	24802.66
687.55	24615.41
687.69	24556.90
687.82	24430.51
687.96	24304.12
688.10	24486.68
688.23	24376.68
688.37	24439.87
688.50	24294.76
688.64	24414.13
688.78	24077.09
688.91	23484.94
689.05	23988.15
689.18	23534.09
689.32	23084.70
689.46	22885.76
689.59	23454.51
689.73	23550.47
689.86	23426.42
690.00	23318.76
690.13	23138.54
690.27	22604.89
690.41	23150.24
690.54	22597.87
690.68	22724.26
690.81	22544.04
690.95	22485.53
691.08	22153.17
691.22	22019.76
691.35	22380.20
691.49	22445.74
691.62	22387.22
691.76	21717.83
691.89	21708.47
692.03	21404.20
692.16	21542.29
692.30	21668.68
692.43	21422.92
692.57	21214.62
692.70	21055.46
692.84	21322.28
692.97	21078.86
693.11	21123.33
693.24	20830.77
693.38	20790.98
693.51	20545.22
693.65	20599.05
693.78	20077.12
693.92	20166.06
694.05	19985.83
694.19	20407.13
694.32	20418.83
694.45	20325.21
694.59	20355.64
694.72	20107.54
694.86	19878.17
694.99	19660.50
695.13	19480.28
695.26	19264.95
695.39	19190.05
695.53	19349.21
695.66	19363.25
695.80	18883.44
695.93	19276.65
696.07	18951.32
696.20	18787.48
696.33	18750.03
696.47	18611.94
696.60	18427.04
696.73	18874.08
696.87	18927.91
697.00	18422.36
697.14	18178.94
697.27	18485.55
697.40	17951.91
697.54	18047.87
697.67	18181.28
697.80	17963.61
697.94	17905.10
698.07	17884.03
698.21	17743.60
698.34	17783.39
698.47	17380.82
698.61	17610.19
698.74	17242.73
698.87	17425.29
699.01	16975.91
699.14	17153.79
699.27	16898.67
699.40	16793.34
699.54	16851.86
699.67	16858.88
699.80	16875.26
699.94	16498.44
700.07	16460.99
700.20	16418.86
700.34	16320.56
700.47	16542.91
700.60	16339.28
700.73	16353.32
700.87	16152.04
701.00	15826.70
701.13	15826.70
701.26	15836.06
701.40	15798.62
701.53	15552.86
701.66	15555.20
701.79	15822.02
701.93	15374.98
702.06	15353.91
702.19	15005.17
702.32	15412.43
702.46	15494.35
702.59	15370.30
702.72	15197.10
702.85	15068.37
702.99	15000.49
703.12	14853.04
703.25	14677.50
703.38	14618.99
703.51	14897.51
703.65	14286.63
703.78	14370.89
703.91	14249.18
704.04	14305.35
704.17	14197.69
704.31	14033.85
704.44	14005.77
704.57	13839.59
704.70	13898.10
704.83	14031.51
704.96	13944.91
705.10	13841.93
705.23	13668.73
>>>>>End Processed Spectral Data<<<<<
