SpectraSuite Data File
++++++++++++++++++++++++++++++++++++
Date: Fri Oct 25 10:43:30 EDT 2013
User: price-jones
Dark Spectrum Present: No
Reference Spectrum Present: No
Number of Sampled Component Spectra: 1
Spectrometers: USB2+H05261
Integration Time (usec): 100000 (USB2+H05261)
Spectra Averaged: 1 (USB2+H05261)
Boxcar Smoothing: 0 (USB2+H05261)
Correct for Electrical Dark: No (USB2+H05261)
Strobe/Lamp Enabled: No (USB2+H05261)
Correct for Detector Non-linearity: No (USB2+H05261)
Correct for Stray Light: No (USB2+H05261)
Number of Pixels in Processed Spectrum: 2048
>>>>>Begin Processed Spectral Data<<<<<
365.73	227.03
365.92	227.03
366.12	227.03
366.32	81.92
366.52	16.38
366.72	65.54
366.91	28.09
367.11	46.81
367.31	4.68
367.51	42.13
367.70	53.83
367.90	100.64
368.10	0.00
368.30	0.00
368.49	28.09
368.69	32.77
368.89	77.24
369.09	2.34
369.28	0.00
369.48	46.81
369.68	74.90
369.87	67.88
370.07	63.19
370.27	86.60
370.47	201.29
370.66	421.30
370.86	444.70
371.06	461.09
371.25	461.09
371.45	418.96
371.65	468.11
371.84	461.09
372.04	493.85
372.24	540.66
372.44	489.17
372.63	505.56
372.83	477.47
373.03	458.74
373.22	454.06
373.42	507.90
373.62	482.15
373.81	463.43
374.01	540.66
374.21	617.90
374.40	559.39
374.60	617.90
374.79	582.79
374.99	606.20
375.19	550.03
375.38	580.45
375.58	540.66
375.78	603.86
375.97	643.65
376.17	594.50
376.37	575.77
376.56	543.00
376.76	491.51
376.95	582.79
377.15	512.58
377.35	678.76
377.54	641.31
377.74	631.94
377.93	706.84
378.13	653.01
378.33	645.99
378.52	566.41
378.72	695.14
378.91	629.60
379.11	617.90
379.31	587.47
379.50	594.50
379.70	699.82
379.89	671.73
380.09	636.63
380.28	667.05
380.48	645.99
380.68	695.14
380.87	718.54
381.07	730.25
381.26	758.33
381.46	713.86
381.65	573.43
381.85	608.54
382.04	741.95
382.24	678.76
382.43	711.52
382.63	748.97
382.83	711.52
383.02	770.04
383.22	636.63
383.41	669.39
383.61	814.51
383.80	763.01
384.00	767.70
384.19	798.12
384.39	826.21
384.58	751.31
384.78	823.87
384.97	786.42
385.17	833.23
385.36	779.40
385.56	795.78
385.75	821.53
385.95	851.96
386.14	781.74
386.34	863.66
386.53	858.98
386.72	844.93
386.92	894.08
387.11	833.23
387.31	910.47
387.50	849.61
387.70	870.68
387.89	866.00
388.09	903.45
388.28	884.72
388.48	837.91
388.67	994.73
388.86	898.77
389.06	924.51
389.25	919.83
389.45	987.71
389.64	936.21
389.84	1029.84
390.03	931.53
390.22	1053.24
390.42	943.24
390.61	1015.79
390.81	1022.81
391.00	1020.47
391.19	1132.82
391.39	1090.69
391.58	1034.52
391.78	1001.75
391.97	1118.78
392.16	1022.81
392.36	1107.07
392.55	959.62
392.75	1018.13
392.94	894.08
393.13	950.26
393.33	959.62
393.52	1048.56
393.71	1027.50
393.91	1088.35
394.10	1088.35
394.29	1060.26
394.49	1149.20
394.68	1270.91
394.88	1287.29
395.07	1221.76
395.26	1224.10
395.46	1191.33
395.65	1249.85
395.84	1219.42
396.04	1275.59
396.23	1179.63
396.42	1196.01
396.62	1139.84
396.81	1146.86
397.00	1256.87
397.19	1226.44
397.39	1219.42
397.58	1308.36
397.77	1439.43
397.97	1380.92
398.16	1369.21
398.35	1336.45
398.55	1313.04
398.74	1537.73
398.93	1406.66
399.12	1458.15
399.32	1533.05
399.51	1523.69
399.70	1516.67
399.90	1437.09
400.09	1584.54
400.28	1535.39
400.47	1605.61
400.67	1699.23
400.86	1640.72
401.05	1561.14
401.24	1724.97
401.44	1746.04
401.63	1650.08
401.82	1715.61
402.01	1687.53
402.21	1647.74
402.40	1720.29
402.59	1720.29
402.78	1666.46
402.97	1638.38
403.17	1783.49
403.36	1806.89
403.55	1764.76
403.74	1804.55
403.93	1839.66
404.13	1966.05
404.32	1757.74
404.51	1863.07
404.70	1926.26
404.89	1881.79
405.09	2019.88
405.28	1989.46
405.47	1877.11
405.66	1865.41
405.85	1970.73
406.05	1980.09
406.24	2066.69
406.43	1949.67
406.62	2012.86
406.81	2209.47
407.00	2115.84
407.20	2008.18
407.39	2066.69
407.58	2176.70
407.77	2047.97
407.96	2141.59
408.15	2279.68
408.34	2251.60
408.54	2256.28
408.73	2331.17
408.92	2300.75
409.11	2289.04
409.30	2249.25
409.49	2314.79
409.68	2216.49
409.87	2303.09
410.07	2258.62
410.26	2368.62
410.45	2427.14
410.64	2211.81
410.83	2525.44
411.02	2497.35
411.21	2616.72
411.40	2471.61
411.59	2581.61
411.78	2619.06
411.98	2647.15
412.17	2626.08
412.36	2635.44
412.55	2698.64
412.74	2820.35
412.93	2710.34
413.12	2764.17
413.31	2846.09
413.50	2719.70
413.69	2813.32
413.88	2869.50
414.07	2899.92
414.26	2904.60
414.45	2918.65
414.64	3026.31
414.83	3012.27
415.02	3033.33
415.22	2986.52
415.41	3056.74
415.60	3126.96
415.79	3169.09
415.98	3234.62
416.17	3269.73
416.36	3251.00
416.55	3318.88
416.74	3185.47
416.93	3246.32
417.12	3220.58
417.31	3253.34
417.50	3431.23
417.69	3363.35
417.88	3386.76
418.07	3363.35
418.26	3513.14
418.45	3574.00
418.64	3534.21
418.83	3506.12
419.02	3606.77
419.21	3494.42
419.39	3627.83
419.58	3613.79
419.77	3548.25
419.96	3735.50
420.15	3581.02
420.34	3681.66
420.53	3742.52
420.72	3808.05
420.91	3775.28
421.10	3660.60
421.29	3864.22
421.48	3866.56
421.67	3749.54
421.86	3719.11
422.05	3665.28
422.24	3611.45
422.43	3756.56
422.61	3700.39
422.80	3854.86
422.99	3941.46
423.18	3927.42
423.37	4002.32
423.56	4016.36
423.75	3939.12
423.94	3871.25
424.13	3758.90
424.32	3747.20
424.50	3887.63
424.69	4046.79
424.88	3978.91
425.07	3866.56
425.26	3873.59
425.45	3896.99
425.64	3974.23
425.83	3918.06
426.01	4011.68
426.20	3971.89
426.39	4058.49
426.58	3918.06
426.77	3761.24
426.96	3920.40
427.15	4084.23
427.33	4084.23
427.52	4065.51
427.71	4011.68
427.90	4131.05
428.09	4081.89
428.28	4030.40
428.46	4109.98
428.65	4081.89
428.84	4276.16
429.03	4250.41
429.22	3988.27
429.40	3988.27
429.59	4142.75
429.78	3892.31
429.97	3843.16
430.16	3983.59
430.34	3981.25
430.53	4177.86
430.72	4098.28
430.91	4208.28
431.10	4332.33
431.28	4519.57
431.47	4599.15
431.66	4521.92
431.85	4325.31
432.03	4526.60
432.22	4657.67
432.41	4608.51
432.60	4697.46
432.79	4713.84
432.97	4770.01
433.16	4636.60
433.35	4610.86
433.54	4697.46
433.72	4594.47
433.91	4683.41
434.10	4772.35
434.28	4755.97
434.47	4889.38
434.66	4863.63
434.85	4959.60
435.03	4854.27
435.22	4767.67
435.41	5081.30
435.59	5151.52
435.78	5062.58
435.97	5114.07
436.16	5123.43
436.34	5177.26
436.53	5186.63
436.72	5231.10
436.90	5114.07
437.09	5060.24
437.28	5060.24
437.46	5008.75
437.65	5011.09
437.84	5146.84
438.02	5247.48
438.21	5100.03
438.40	5135.14
438.58	5238.12
438.77	5490.90
438.96	5277.91
439.14	5444.09
439.33	5549.41
439.52	5533.03
439.70	5647.71
439.89	5717.93
440.08	5495.58
440.26	5495.58
440.45	5753.04
440.63	5760.06
440.82	5863.04
441.01	5703.89
441.19	5916.87
441.38	5968.37
441.57	6169.65
441.75	6118.16
441.94	6284.34
442.12	6031.56
442.31	6431.79
442.50	6265.61
442.68	6164.97
442.87	6197.74
443.05	6373.28
443.24	6455.20
443.43	6338.17
443.61	6387.32
443.80	6413.07
443.98	6328.81
444.17	6303.06
444.35	6408.39
444.54	6548.82
444.73	6471.58
444.91	6581.59
445.10	6473.92
445.28	6445.84
445.47	6406.05
445.65	6457.54
445.84	6541.80
446.02	6654.14
446.21	6612.01
446.39	6487.96
446.58	6684.57
446.77	6551.16
446.95	6581.59
447.14	6663.51
447.32	6869.47
447.51	6630.74
447.69	6843.73
447.88	6548.82
448.06	6703.29
448.25	6705.63
448.43	6644.78
448.62	6562.86
448.80	6565.20
448.99	6672.87
449.17	6642.44
449.36	6761.81
449.54	6867.13
449.73	6942.03
449.91	6998.20
450.10	7129.27
450.28	7225.23
450.46	7265.02
450.65	7180.76
450.83	7019.27
451.02	7290.77
451.20	7119.91
451.39	7304.81
451.57	7194.81
451.76	7126.93
451.94	7194.81
452.13	7325.88
452.31	7337.58
452.49	7063.74
452.68	7084.80
452.86	6857.77
453.05	7377.37
453.23	7393.75
453.42	7124.59
453.60	7260.34
453.78	7590.36
453.97	7342.26
454.15	7555.25
454.34	7321.20
454.52	7595.04
454.70	7302.47
454.89	7353.96
455.07	7508.44
455.26	7686.32
455.44	7653.55
455.62	7655.89
455.81	7630.15
455.99	7829.09
456.17	7861.86
456.36	7915.69
456.54	7822.07
456.73	8028.04
456.91	8021.02
457.09	8051.44
457.28	8259.75
457.46	7920.37
457.64	8102.93
457.83	7939.10
458.01	7836.11
458.19	8236.35
458.38	8229.32
458.56	8180.17
458.74	8145.06
458.93	8203.58
459.11	8255.07
459.29	8346.35
459.48	8222.30
459.66	8175.49
459.84	8290.18
460.03	8421.25
460.21	8411.89
460.39	8510.19
460.57	8336.99
460.76	8690.41
460.94	8706.79
461.12	8648.28
461.31	8645.94
461.49	8730.20
461.67	8617.85
461.85	8793.39
462.04	8805.10
462.22	9472.15
462.40	9020.42
462.59	8891.70
462.77	8812.12
462.95	8894.04
463.13	8898.72
463.32	8891.70
463.50	8964.25
463.68	8966.59
463.86	8802.75
464.05	8746.58
464.23	8812.12
464.41	9020.42
464.59	8720.84
464.78	9123.41
464.96	9076.60
465.14	8908.08
465.32	9170.22
465.50	9453.42
465.69	9097.66
465.87	9177.24
466.05	9268.52
466.23	9181.92
466.41	9149.15
466.60	9338.74
466.78	8992.34
466.96	9341.08
467.14	9142.13
467.32	9348.10
467.51	9628.96
467.69	9193.62
467.87	9462.79
468.05	9497.89
468.23	9331.72
468.41	9242.78
468.60	9383.21
468.78	9645.35
468.96	9408.95
469.14	9673.43
469.32	9511.94
469.50	9254.48
469.69	9668.75
469.87	9645.35
470.05	9874.72
470.23	9673.43
470.41	9645.35
470.59	9944.94
470.77	9720.24
470.95	9701.52
471.14	10087.71
471.32	9877.06
471.50	10335.81
471.68	10258.57
471.86	10338.15
472.04	10239.84
472.22	10450.49
472.40	10181.33
472.58	10583.90
472.77	10548.79
472.95	10434.11
473.13	10963.07
473.31	10537.09
473.49	10675.18
473.67	10487.94
473.85	10562.84
474.03	10902.22
474.21	11014.56
474.39	10972.43
474.57	11016.90
474.75	11061.37
474.93	11033.29
475.12	11026.26
475.30	11229.89
475.48	11131.59
475.66	11351.60
475.84	11232.23
476.02	11225.21
476.20	11438.20
476.38	11534.16
476.56	11864.18
476.74	11772.89
476.92	11796.30
477.10	11765.87
477.28	11894.60
477.46	11894.60
477.64	12402.50
477.82	12152.06
478.00	12491.44
478.18	12229.30
478.36	12587.40
478.54	12760.60
478.72	12493.78
478.90	12690.38
479.08	13116.36
479.26	12999.34
479.44	13170.19
479.62	13057.85
479.80	13092.96
479.98	13032.10
480.16	13844.27
480.34	13713.20
480.52	13729.58
480.70	13427.65
480.88	13476.80
481.06	13853.63
481.24	14083.00
481.41	14174.28
481.59	14293.65
481.77	14424.72
481.95	14401.32
482.13	14190.67
482.31	14452.81
482.49	14810.91
482.67	14855.38
482.85	14902.19
483.03	15227.53
483.21	15239.23
483.39	15302.42
483.57	15112.84
483.74	15236.89
483.92	15618.39
484.10	15721.38
484.28	15667.55
484.46	16058.42
484.64	16231.62
484.82	16280.77
485.00	16219.91
485.18	16020.97
485.35	16395.45
485.53	16060.76
485.71	16002.24
485.89	16053.73
486.07	16568.65
486.25	16350.98
486.43	16505.46
486.61	16802.71
486.78	16971.22
486.96	16931.44
487.14	17547.00
487.32	17497.84
487.50	17994.04
487.68	17930.84
487.85	18274.90
488.03	18232.77
488.21	18483.21
488.39	18359.16
488.57	18689.18
488.75	18487.89
488.92	19112.81
489.10	19049.62
489.28	19363.25
489.46	19847.74
489.64	19662.84
489.81	19990.52
489.99	20168.40
490.17	20128.61
490.35	20093.50
490.53	20236.27
490.70	20208.19
490.88	20339.26
491.06	20673.95
491.24	20610.76
491.41	20622.46
491.59	20552.24
491.77	20936.09
491.95	20596.71
492.13	21008.65
492.30	21390.16
492.48	21539.95
492.66	21537.61
492.84	21752.94
493.01	21837.20
493.19	21820.81
493.37	21736.56
493.54	21895.71
493.72	22731.28
493.90	22178.92
494.08	23073.00
494.25	23019.17
494.43	23227.48
494.61	23477.91
494.79	23548.13
494.96	23417.06
495.14	23234.50
495.32	23562.17
495.49	23445.15
495.67	23463.87
495.85	23805.59
496.02	23861.76
496.20	24095.82
496.38	24432.85
496.55	24217.52
496.73	25029.69
496.91	24828.40
497.09	25008.62
497.26	25170.12
497.44	25135.01
497.62	25135.01
497.79	25392.47
497.97	25184.16
498.14	25366.73
498.32	25488.43
498.50	25546.95
498.67	25752.91
498.85	26103.99
499.03	25809.09
499.20	25912.07
499.38	26216.34
499.56	26122.72
499.73	26228.04
499.91	26314.64
500.08	26845.94
500.26	26108.68
500.44	26387.20
500.61	26359.11
500.79	26492.52
500.97	26593.17
501.14	26998.08
501.32	27021.48
501.49	26885.73
501.67	27208.73
501.84	27501.29
502.02	27269.58
502.20	27386.61
502.37	27988.13
502.55	27463.85
502.72	27985.79
502.90	28063.02
503.07	27957.70
503.25	28280.69
503.43	27498.95
503.60	28077.07
503.78	27569.17
503.95	28215.16
504.13	28147.28
504.30	28425.81
504.48	28680.92
504.65	28456.23
504.83	29123.29
505.01	29244.99
505.18	29139.67
505.36	29408.83
505.53	29469.69
505.71	29514.16
505.88	29500.11
506.06	28793.27
506.23	29890.98
506.41	28940.72
506.58	29626.50
506.76	29881.62
506.93	30103.97
507.11	29933.11
507.28	29708.42
507.46	30033.75
507.63	29816.08
507.81	29905.02
507.98	29998.65
508.16	29790.34
508.33	30206.95
508.50	30480.80
508.68	30796.77
508.85	30895.07
509.03	30813.15
509.20	30881.03
509.38	31117.42
509.55	30600.16
509.73	30941.88
509.90	31070.61
510.08	30984.01
510.25	31367.86
510.42	31510.63
510.60	31810.22
510.77	31695.53
510.95	32116.83
511.12	31442.76
511.30	31721.28
511.47	32416.42
511.64	32018.53
511.82	32201.09
511.99	31700.22
512.17	32496.00
512.34	32355.57
512.51	32077.04
512.69	32507.70
512.86	32423.44
513.04	32620.05
513.21	32514.72
513.38	32739.41
513.56	32711.33
513.73	32432.80
513.90	32673.88
514.08	32554.51
514.25	32842.40
514.43	33219.22
514.60	32795.59
514.77	33275.40
514.95	33242.63
515.12	33378.38
515.29	33715.42
515.47	33825.42
515.64	33900.32
515.81	33563.28
515.99	33677.97
516.16	33502.43
516.33	33282.42
516.51	33092.83
516.68	32989.85
516.85	33116.24
517.03	33113.90
517.20	33783.29
517.37	34024.37
517.54	34319.28
517.72	33724.78
517.89	33319.87
518.06	33729.46
518.24	33837.12
518.41	34015.01
518.58	34223.31
518.75	34363.75
518.93	34771.00
519.10	34356.72
519.27	35054.20
519.45	35019.10
519.62	35180.59
519.79	35178.25
519.96	35239.11
520.14	35262.51
520.31	35093.99
520.48	35161.87
520.65	35178.25
520.83	35615.93
521.00	35744.66
521.17	35857.01
521.34	35393.58
521.52	35672.10
521.69	35849.99
521.86	35955.31
522.03	35772.75
522.20	36135.53
522.38	36215.11
522.55	36278.30
522.72	36163.62
522.89	36184.68
523.07	36538.10
523.24	36231.49
523.41	36397.67
523.58	36114.47
523.75	36760.45
523.92	36863.44
524.10	36917.27
524.27	36884.50
524.44	37221.54
524.61	37291.76
524.78	37003.87
524.96	37095.15
525.13	37551.56
525.30	37916.68
525.47	37287.07
525.64	37542.19
525.81	37104.51
525.98	37071.75
526.16	37361.97
526.33	36870.46
526.50	37109.19
526.67	37053.02
526.84	37146.64
527.01	37221.54
527.18	37689.65
527.36	38024.34
527.53	37804.33
527.70	38022.00
527.87	37970.51
528.04	38141.37
528.21	38370.74
528.38	38593.09
528.55	38445.64
528.72	38883.32
528.89	38543.94
529.07	38693.74
529.24	38380.10
529.41	38513.52
529.58	38445.64
529.75	39061.20
529.92	39110.35
530.09	38990.98
530.26	38913.75
530.43	39178.23
530.60	38932.47
530.77	39133.76
530.94	39206.31
531.11	39208.65
531.28	39461.43
531.46	39232.06
531.63	39182.91
531.80	39370.15
531.97	39208.65
532.14	39131.42
532.31	38724.16
532.48	39339.72
532.65	39555.05
532.82	38934.81
532.99	39892.09
533.16	39311.64
533.33	39922.52
533.50	39971.67
533.67	39655.70
533.84	39597.18
534.01	39526.97
534.18	40002.10
534.35	40210.40
534.52	40266.58
534.69	39990.39
534.86	40009.12
535.03	40095.72
535.20	40566.16
535.37	40931.29
535.54	40737.02
535.71	40058.27
535.88	40589.57
536.05	40411.69
536.22	40484.25
536.38	40722.98
536.55	40409.35
536.72	40458.50
536.89	40147.21
537.06	40624.68
537.23	40856.39
537.40	40900.86
537.57	40500.63
537.74	40617.66
537.91	41137.26
538.08	41174.70
538.25	40959.38
538.42	40678.51
538.59	40947.67
538.75	40620.00
538.92	40624.68
539.09	41186.41
539.26	41563.23
539.43	41511.74
539.60	41256.62
539.77	41116.19
539.94	41383.01
540.11	41015.55
540.28	41191.09
540.44	41839.42
540.61	41331.52
540.78	41317.48
540.95	41682.60
541.12	41347.90
541.29	41406.42
541.46	41717.71
541.62	41551.53
541.79	41558.55
541.96	41525.78
542.13	41865.16
542.30	41448.55
542.47	41956.44
542.63	41902.61
542.80	42410.51
542.97	42579.03
543.14	42356.67
543.31	42167.09
543.48	42241.99
543.64	42740.52
543.81	42642.22
543.98	42377.74
544.15	42520.51
544.32	42679.67
544.48	43023.73
544.65	42300.50
544.82	42429.23
544.99	42267.73
545.16	42454.98
545.32	42770.95
545.49	43023.73
545.66	43115.01
545.83	43180.54
546.00	43257.78
546.16	43079.90
546.33	42918.40
546.50	42609.45
546.67	42934.79
546.83	42520.51
547.00	42850.53
547.17	42864.57
547.34	42756.91
547.50	43044.79
547.67	43239.06
547.84	43295.23
548.00	43777.38
548.17	43658.01
548.34	43285.87
548.51	43398.21
548.67	43845.26
548.84	43246.08
549.01	43150.12
549.18	43257.78
549.34	43051.81
549.51	43473.11
549.68	43997.39
549.84	44076.97
550.01	43641.63
550.18	43662.69
550.34	43674.40
550.51	43695.46
550.68	43496.52
550.84	43510.56
551.01	44226.76
551.18	43643.97
551.34	44009.09
551.51	43782.06
551.68	43784.40
551.84	43931.86
552.01	43753.97
552.18	43746.95
552.34	43892.07
552.51	43824.19
552.68	44128.46
552.84	44067.61
553.01	44552.10
553.18	44294.64
553.34	44179.95
553.51	44229.10
553.67	44315.70
553.84	44575.50
554.01	44545.08
554.17	44519.33
554.34	44428.05
554.51	44329.75
554.67	44697.21
554.84	44657.42
555.00	44287.62
555.17	43887.39
555.33	44631.68
555.50	44212.72
555.67	44570.82
555.83	44552.10
556.00	44404.64
556.16	44868.07
556.33	44364.85
556.50	44561.46
556.66	44814.24
556.83	44126.12
556.99	44914.88
557.16	44645.72
557.32	44921.90
557.49	44821.26
557.65	44802.53
557.82	45132.55
557.98	44952.33
558.15	44870.41
558.32	44760.40
558.48	44486.56
558.65	44713.59
558.81	44617.63
558.98	44875.09
559.14	44996.80
559.31	44989.78
559.47	44882.11
559.64	45024.89
559.80	44949.99
559.97	45015.52
560.13	44325.07
560.30	44870.41
560.46	44896.16
560.63	45167.66
560.79	45069.36
560.96	45382.99
561.12	45153.62
561.29	44755.72
561.45	45258.94
561.61	44933.60
561.78	44863.39
561.94	44596.57
562.11	44610.61
562.27	45209.79
562.44	45401.71
562.60	45434.48
562.77	45469.59
562.93	45315.11
563.10	45443.84
563.26	45322.13
563.42	45390.01
563.59	45170.00
563.75	45294.05
563.92	45773.86
564.08	45560.87
564.24	45207.45
564.41	45490.65
564.57	45411.07
564.74	45366.60
564.90	45310.43
565.07	45347.88
565.23	45715.34
565.39	44926.58
565.56	45628.74
565.72	45303.41
565.88	45275.32
566.05	45357.24
566.21	45530.44
566.38	45446.18
566.54	45361.92
566.70	46003.23
566.87	45701.30
567.03	45584.27
567.19	45855.78
567.36	45649.81
567.52	45614.70
567.68	45794.92
567.85	45361.92
568.01	45422.78
568.17	45521.08
568.34	45666.19
568.50	45586.61
568.66	45228.51
568.83	45244.90
568.99	45127.87
569.15	45408.73
569.32	45441.50
569.48	45624.06
569.64	45876.84
569.81	45851.09
569.97	45378.31
570.13	45727.05
570.30	45280.00
570.46	45539.80
570.62	45478.95
570.78	45254.26
570.95	45345.54
571.11	45708.32
571.27	45352.56
571.43	45464.91
571.60	46057.06
571.76	45703.64
571.92	45872.16
572.09	45469.59
572.25	45481.29
572.41	45930.67
572.57	45951.74
572.74	46185.79
572.90	45911.95
573.06	45776.20
573.22	45528.10
573.38	45427.46
573.55	45207.45
573.71	46040.68
573.87	45909.61
574.03	45933.01
574.20	45907.27
574.36	45446.18
574.52	45656.83
574.68	45846.41
574.84	45860.46
575.01	45832.37
575.17	45928.33
575.33	45429.80
575.49	45591.30
575.65	46012.59
575.82	45729.39
575.98	45694.28
576.14	46115.58
576.30	45799.60
576.46	45694.28
576.62	45525.76
576.79	45563.21
576.95	45579.59
577.11	45993.87
577.27	45511.72
577.43	45418.10
577.59	45312.77
577.75	45460.23
577.92	45612.36
578.08	45617.04
578.24	45490.65
578.40	45759.81
578.56	45773.86
578.72	45471.93
578.88	46092.17
579.04	46019.61
579.21	45553.85
579.37	45401.71
579.53	45633.42
579.69	45422.78
579.85	45591.30
580.01	45914.29
580.17	45581.93
580.33	45717.68
580.49	45743.43
580.65	46028.98
580.82	45659.17
580.98	45776.20
581.14	45560.87
581.30	45769.18
581.46	45785.56
581.62	46085.15
581.78	45837.05
581.94	45963.44
582.10	45862.80
582.26	45794.92
582.42	45883.86
582.58	45949.40
582.74	46087.49
582.90	45406.39
583.06	46241.96
583.22	45970.46
583.38	46146.00
583.54	45855.78
583.70	45970.46
583.86	46167.07
584.02	45467.25
584.18	45670.87
584.34	45649.81
584.50	45776.20
584.66	46391.76
584.82	45869.82
584.98	46263.03
585.14	45750.45
585.30	45485.97
585.46	45703.64
585.62	46061.74
585.78	45776.20
585.94	45635.77
586.10	46031.32
586.26	45701.30
586.42	45825.35
586.58	45904.93
586.74	46134.30
586.90	45858.12
587.06	45895.56
587.22	46071.10
587.38	45736.41
587.54	45785.56
587.70	45935.35
587.86	45811.31
588.02	45893.22
588.18	45841.73
588.34	45476.61
588.49	45422.78
588.65	45097.44
588.81	45464.91
588.97	45879.18
589.13	45757.47
589.29	45694.28
589.45	45577.25
589.61	45900.25
589.77	45947.06
589.93	46040.68
590.08	45925.99
590.24	45961.10
590.40	46099.19
590.56	46122.60
590.72	46017.27
590.88	45820.67
591.04	46192.81
591.20	46642.20
591.35	46146.00
591.51	46396.44
591.67	45713.00
591.83	45909.61
591.99	45865.14
592.15	45687.26
592.31	46174.09
592.46	46089.83
592.62	45818.33
592.78	45633.42
592.94	46059.40
593.10	46148.34
593.26	46138.98
593.41	46129.62
593.57	45806.62
593.73	45595.98
593.89	46363.67
594.05	46003.23
594.20	46237.28
594.36	45961.10
594.52	46286.43
594.68	45860.46
594.84	46059.40
594.99	46068.76
595.15	46054.72
595.31	46396.44
595.47	46209.20
595.62	46326.22
595.78	45968.12
595.94	46176.43
596.10	46059.40
596.25	46131.96
596.41	46202.18
596.57	45722.37
596.73	46232.60
596.88	46099.19
597.04	46246.65
597.20	46382.40
597.36	45848.75
597.51	46436.23
597.67	46064.08
597.83	46012.59
597.99	46302.82
598.14	45961.10
598.30	46424.53
598.46	46014.93
598.61	45790.24
598.77	46286.43
598.93	46368.35
599.09	46426.87
599.24	46443.25
599.40	46471.34
599.56	46167.07
599.71	46054.72
599.87	46611.77
600.03	46150.68
600.18	45947.06
600.34	45949.40
600.50	45755.13
600.65	45989.19
600.81	46103.87
600.97	46227.92
601.12	46412.82
601.28	46382.40
601.44	46059.40
601.59	46328.56
601.75	45921.31
601.91	46052.38
602.06	45764.49
602.22	46312.18
602.37	45743.43
602.53	46433.89
602.69	46396.44
602.84	45975.14
603.00	45741.09
603.16	45776.20
603.31	46108.55
603.47	46363.67
603.62	45984.51
603.78	46258.35
603.94	46206.86
604.09	46277.07
604.25	45720.02
604.40	46071.10
604.56	46188.13
604.71	46443.25
604.87	46127.28
605.03	46003.23
605.18	46274.73
605.34	45436.82
605.49	45785.56
605.65	46169.41
605.80	45729.39
605.96	46157.70
606.12	45523.42
606.27	46115.58
606.43	45937.69
606.58	46258.35
606.74	45705.98
606.89	45659.17
607.05	45598.32
607.20	46316.86
607.36	45741.09
607.51	45940.04
607.67	45823.01
607.82	45738.75
607.98	45631.08
608.13	45705.98
608.29	45413.41
608.44	45794.92
608.60	45624.06
608.75	45956.42
608.91	45610.02
609.06	45359.58
609.22	45900.25
609.37	45368.94
609.53	45837.05
609.68	45631.08
609.84	45326.81
609.99	45914.29
610.15	45399.37
610.30	45701.30
610.46	44957.01
610.61	45441.50
610.76	45397.03
610.92	45717.68
611.07	45373.63
611.23	45858.12
611.38	45750.45
611.54	45184.04
611.69	45516.40
611.84	44949.99
612.00	45153.62
612.15	44849.35
612.31	45752.79
612.46	45390.01
612.62	45593.64
612.77	45167.66
612.92	45404.05
613.08	44823.60
613.23	45148.93
613.39	44959.35
613.54	44231.44
613.69	44617.63
613.85	44889.13
614.00	44634.02
614.15	44893.82
614.31	45031.91
614.46	45378.31
614.62	44786.15
614.77	44762.75
614.92	44931.26
615.08	44451.45
615.23	44779.13
615.38	45144.25
615.54	44299.32
615.69	44507.63
615.84	44725.30
616.00	44477.20
616.15	45240.21
616.30	44594.23
616.46	44594.23
616.61	44435.07
616.76	44362.51
616.92	44168.25
617.07	44657.42
617.22	44175.27
617.37	44322.72
617.53	44690.19
617.68	44832.96
617.83	44664.44
617.99	44425.71
618.14	44699.55
618.29	44030.16
618.45	44093.35
618.60	43962.28
618.75	44268.89
618.90	43681.42
619.06	44493.58
619.21	43709.50
619.36	44236.12
619.51	44041.86
619.67	43587.80
619.82	43835.89
619.97	44210.38
620.12	43562.05
620.28	44039.52
620.43	44076.97
620.58	44147.18
620.73	44140.16
620.89	43943.56
621.04	43964.62
621.19	43955.26
621.34	44027.82
621.49	43817.17
621.65	43381.83
621.80	43938.88
621.95	43655.67
622.10	43658.01
622.25	43716.53
622.41	43618.22
622.56	43901.43
622.71	43849.94
622.86	43728.23
623.01	43679.08
623.16	43325.66
623.32	43463.75
623.47	43194.59
623.62	43320.98
623.77	43173.52
623.92	43686.10
624.07	43674.40
624.23	43225.01
624.38	42946.49
624.53	43487.15
624.68	43210.97
624.83	43299.91
624.98	43342.04
625.13	43435.66
625.29	43147.78
625.44	43086.92
625.59	42979.26
625.74	42728.82
625.89	42869.25
626.04	43138.41
626.19	42939.47
626.34	42749.88
626.49	42518.17
626.65	42993.30
626.80	42944.15
626.95	42450.30
627.10	42990.96
627.25	42572.00
627.40	42794.36
627.55	41998.57
627.70	42682.01
627.85	42288.80
628.00	42249.01
628.15	42777.97
628.30	42918.40
628.45	42609.45
628.60	42447.96
628.76	42501.79
628.91	42745.20
629.06	42487.74
629.21	42117.94
629.36	42532.22
629.51	41862.82
629.66	42246.67
629.81	42164.75
629.96	42134.32
630.11	42174.11
630.26	42485.40
630.41	42237.31
630.56	42012.62
630.71	41904.95
630.86	42075.81
631.01	42258.37
631.16	42040.70
631.31	41488.34
631.46	41523.44
631.61	41720.05
631.76	42249.01
631.91	42195.18
632.06	41893.25
632.21	42300.50
632.36	41975.17
632.51	41883.89
632.66	41565.57
632.81	41549.19
632.96	41631.11
633.10	41528.13
633.25	41762.18
633.40	41986.87
633.55	41823.03
633.70	41268.33
633.85	41277.69
634.00	41399.40
634.15	41532.81
634.30	41598.34
634.45	41530.47
634.60	41368.97
634.75	41366.63
634.90	41226.20
635.05	41488.34
635.19	40980.44
635.34	41359.61
635.49	41329.18
635.64	41116.19
635.79	41617.07
635.94	41420.46
636.09	40818.94
636.24	40278.28
636.39	40545.10
636.53	40928.95
636.68	41127.89
636.83	40849.37
636.98	40854.05
637.13	41113.85
637.28	41298.75
637.43	41024.91
637.57	41186.41
637.72	40603.61
637.87	40912.56
638.02	41167.68
638.17	40821.28
638.32	40573.19
638.46	40765.11
638.61	40465.52
638.76	40746.39
638.91	40336.79
639.06	40554.46
639.20	40856.39
639.35	40914.90
639.50	40128.48
639.65	41172.36
639.80	40151.89
639.94	40334.45
640.09	40362.54
640.24	39873.37
640.39	40294.66
640.54	39971.67
640.68	40456.16
640.83	40088.70
640.98	40100.40
641.13	40168.27
641.27	40268.92
641.42	40091.04
641.57	39955.29
641.72	39976.35
641.86	39735.27
642.01	39634.63
642.16	40051.25
642.31	39737.62
642.45	39920.18
642.60	39498.88
642.75	39353.77
642.90	39952.94
643.04	39697.83
643.19	39936.56
643.34	39519.95
643.48	39739.96
643.63	39864.00
643.78	39667.40
643.93	40023.16
644.07	39541.01
644.22	39908.47
644.37	39328.02
644.51	39674.42
644.66	39782.09
644.81	39651.02
644.95	39405.26
645.10	39648.68
645.25	39632.29
645.39	39435.69
645.54	39243.76
645.69	39016.73
645.83	39033.11
645.98	39196.95
646.13	39709.53
646.27	39344.41
646.42	38710.12
646.57	38976.94
646.71	39033.11
646.86	39295.25
647.00	39325.68
647.15	39005.03
647.30	39065.88
647.44	39005.03
647.59	39012.05
647.74	38445.64
647.88	38567.35
648.03	38904.38
648.17	38731.18
648.32	39185.25
648.47	38473.73
648.61	38548.62
648.76	38972.26
648.90	38778.00
649.05	39016.73
649.20	38960.56
649.34	38644.59
649.49	38162.43
649.63	38209.25
649.78	38724.16
649.92	38424.57
650.07	38782.68
650.21	38780.34
650.36	38768.63
650.51	38632.88
650.65	39309.30
650.80	39100.99
650.94	38485.43
651.09	38333.29
651.23	38099.24
651.38	38464.36
651.52	38061.79
651.67	38073.49
651.81	37949.45
651.96	38185.84
652.10	38293.50
652.25	38132.01
652.39	38321.59
652.54	38096.90
652.68	38136.69
652.83	38078.18
652.97	38806.08
653.12	38342.66
653.26	37879.23
653.41	37497.72
653.55	37937.74
653.70	38267.76
653.84	38251.38
653.99	37813.70
654.13	37038.98
654.27	37668.58
654.42	37722.41
654.56	37677.94
654.71	37579.64
654.85	37706.03
655.00	37675.60
655.14	37502.40
655.29	37682.62
655.43	37223.88
655.57	36870.46
655.72	36821.31
655.86	37273.03
656.01	36746.41
656.15	36547.47
656.30	37109.19
656.44	37041.32
656.58	37038.98
656.73	37172.39
656.87	37266.01
657.01	37399.42
657.16	37289.42
657.30	36680.88
657.45	37067.06
657.59	37031.96
657.73	36975.78
657.88	37462.61
658.02	37397.08
658.16	37200.47
658.31	36697.26
658.45	36774.50
658.60	37132.60
658.74	36900.89
658.88	37397.08
659.03	36177.66
659.17	36641.09
659.31	36865.78
659.46	36559.17
659.60	36624.70
659.74	36758.11
659.89	36210.43
660.03	36011.48
660.17	36809.61
660.32	36683.22
660.46	36678.54
660.60	36350.86
660.74	36395.33
660.89	36407.03
661.03	36027.87
661.17	35915.52
661.32	36275.96
661.46	36077.02
661.60	35711.89
661.74	35838.28
661.89	36161.28
662.03	35866.37
662.17	36037.23
662.31	35606.57
662.46	36023.19
662.60	35732.96
662.74	36165.96
662.88	35854.67
663.03	35641.68
663.17	35489.54
663.31	35615.93
663.45	35426.35
663.60	35709.55
663.74	35021.44
663.88	35356.13
664.02	35255.49
664.17	35681.47
664.31	34955.90
664.45	34747.59
664.59	35096.33
664.73	35131.44
664.88	35084.63
665.02	34602.48
665.16	34642.27
665.30	34204.59
665.44	34649.29
665.59	34443.32
665.73	34684.40
665.87	34639.93
666.01	34377.79
666.15	34576.73
666.29	34391.83
666.44	34616.52
666.58	34611.84
666.72	34539.29
666.86	34071.18
667.00	34693.76
667.14	34092.24
667.28	33963.51
667.43	33738.82
667.57	33993.94
667.71	33757.55
667.85	34085.22
667.99	34019.69
668.13	34185.86
668.27	33996.28
668.41	33926.07
668.56	33647.54
668.70	33462.64
668.84	33202.84
668.98	33097.52
669.12	33280.08
669.26	33818.40
669.40	33074.11
669.54	33268.37
669.68	32996.87
669.82	33053.05
669.96	32620.05
670.10	32577.92
670.25	33069.43
670.39	32947.72
670.53	32645.79
670.67	32432.80
670.81	32964.10
670.95	32479.61
671.09	32830.69
671.23	32627.07
671.37	32353.23
671.51	32266.63
671.65	32346.20
671.79	32301.73
671.93	31967.04
672.07	32353.23
672.21	32091.09
672.35	31999.80
672.49	32074.70
672.63	31929.59
672.77	31337.43
672.91	31747.03
673.05	31573.83
673.19	31850.01
673.33	31601.91
673.47	31419.35
673.61	30902.09
673.75	30670.38
673.89	31405.31
674.03	31398.29
674.17	31578.51
674.31	31225.09
674.45	31395.95
674.59	31021.46
674.73	31431.05
674.87	30881.03
675.01	30953.58
675.15	30998.06
675.29	30932.52
675.43	30864.64
675.56	30703.15
675.70	30511.22
675.84	30270.15
675.98	29565.65
676.12	30251.42
676.26	29703.74
676.40	30321.64
676.54	30216.32
676.68	29773.95
676.82	29586.71
676.96	29521.18
677.10	29762.25
677.23	29724.80
677.37	29483.73
677.51	29364.36
677.65	28996.90
677.79	29020.30
677.93	28727.74
678.07	28914.98
678.21	28926.68
678.34	28608.37
678.48	28357.93
678.62	28336.87
678.76	28130.90
678.90	27964.72
679.04	28191.75
679.18	27749.39
679.31	28004.51
679.45	27667.47
679.59	28123.88
679.73	27908.55
679.87	27950.68
680.00	27686.20
680.14	27686.20
680.28	27817.27
680.42	27468.53
680.56	27550.45
680.70	27082.34
680.83	27501.29
680.97	27185.32
681.11	27381.93
681.25	27136.17
681.39	27063.61
681.52	27110.43
681.66	26658.70
681.80	26536.99
681.94	26693.81
682.07	26539.33
682.21	26277.19
682.35	26251.45
682.49	26146.12
682.62	25937.82
682.76	25668.66
682.90	26089.95
683.04	26066.55
683.17	25921.43
683.31	25481.41
683.45	25820.79
683.59	25322.26
683.72	25589.08
683.86	25649.93
684.00	25551.63
684.13	25266.08
684.27	25048.41
684.41	24809.68
684.55	24975.86
684.68	25057.78
684.82	24713.72
684.96	24519.45
685.09	24767.55
685.23	24542.86
685.37	24599.03
685.50	24559.24
685.64	24133.26
685.78	24144.97
685.91	24020.92
686.05	23917.93
686.19	23969.43
686.32	23709.63
686.46	23606.64
686.60	23061.30
686.73	22836.61
686.87	23105.77
687.01	23227.48
687.14	22923.21
687.28	22698.52
687.42	22867.03
687.55	23054.28
687.69	23267.27
687.82	22775.75
687.96	22892.78
688.10	22705.54
688.23	22707.88
688.37	22366.16
688.50	22223.39
688.64	22628.30
688.78	22270.20
688.91	21951.88
689.05	21678.04
689.18	21860.60
689.32	21752.94
689.46	21994.01
689.59	22279.56
689.73	21818.47
689.86	21687.40
690.00	21497.82
690.13	21383.13
690.27	21008.65
690.41	20879.92
690.54	20821.41
690.68	21455.69
690.81	21195.89
690.95	20992.26
691.08	20943.11
691.22	20945.45
691.35	20737.15
691.49	20987.58
691.62	21020.35
691.76	20781.62
691.89	20840.13
692.03	20514.80
692.16	20297.13
692.30	19906.26
692.43	20226.91
692.57	20072.43
692.70	19768.16
692.84	19836.04
692.97	19889.87
693.11	19995.20
693.24	19363.25
693.38	19398.36
693.51	19552.84
693.65	19337.51
693.78	19517.73
693.92	19283.67
694.05	19227.50
694.19	19248.57
694.32	19161.97
694.45	19187.71
694.59	19035.58
694.72	19012.17
694.86	18780.46
694.99	18806.20
695.13	18436.40
695.26	18251.50
695.39	18459.81
695.53	18843.65
695.66	18373.21
695.80	18581.51
695.93	18097.02
696.07	18230.43
696.20	18092.34
696.33	18052.55
696.47	18167.24
696.60	17816.16
696.73	17940.21
696.87	17525.93
697.00	17268.47
697.14	17352.73
697.27	17247.41
697.40	17259.11
697.54	17165.49
697.67	17139.74
697.80	16844.84
697.94	17231.02
698.07	17057.82
698.21	16830.79
698.34	17001.65
698.47	16842.50
698.61	16844.84
698.74	16854.20
698.87	16725.47
699.01	16372.05
699.14	16236.30
699.27	16100.55
699.40	16255.02
699.54	15950.75
699.67	16119.27
699.80	16226.93
699.94	15864.15
700.07	16217.57
700.20	16100.55
700.34	15688.61
700.47	16077.14
700.60	15620.74
700.73	15889.90
700.87	15597.33
701.00	15674.57
701.13	15234.55
701.26	15042.62
701.40	15342.21
701.53	15091.77
701.66	15154.97
701.79	15059.01
701.93	14897.51
702.06	14843.68
702.19	14743.03
702.32	14738.35
702.46	14754.74
702.59	14640.05
702.72	14714.95
702.85	14743.03
702.99	14768.78
703.12	14476.21
703.25	14368.55
703.38	14319.40
703.51	14349.82
703.65	14125.13
703.78	14057.26
703.91	13851.29
704.04	14001.08
704.17	13867.67
704.31	13921.51
704.44	13736.60
704.57	13617.24
704.70	13472.12
704.83	13621.92
704.96	13668.73
705.10	13561.06
705.23	13509.57
>>>>>End Processed Spectral Data<<<<<
