SpectraSuite Data File
++++++++++++++++++++++++++++++++++++
Date: Fri Oct 25 10:47:57 EDT 2013
User: price-jones
Dark Spectrum Present: No
Reference Spectrum Present: No
Number of Sampled Component Spectra: 1
Spectrometers: USB2+H05261
Integration Time (usec): 100000 (USB2+H05261)
Spectra Averaged: 1 (USB2+H05261)
Boxcar Smoothing: 0 (USB2+H05261)
Correct for Electrical Dark: No (USB2+H05261)
Strobe/Lamp Enabled: No (USB2+H05261)
Correct for Detector Non-linearity: No (USB2+H05261)
Correct for Stray Light: No (USB2+H05261)
Number of Pixels in Processed Spectrum: 2048
>>>>>Begin Processed Spectral Data<<<<<
365.73	161.50
365.92	161.50
366.12	161.50
366.32	131.07
366.52	39.79
366.72	67.88
366.91	53.83
367.11	74.90
367.31	35.11
367.51	0.00
367.70	63.19
367.90	49.15
368.10	28.09
368.30	28.09
368.49	32.77
368.69	67.88
368.89	44.47
369.09	84.26
369.28	58.51
369.48	74.90
369.68	131.07
369.87	119.37
370.07	91.28
370.27	168.52
370.47	294.91
370.66	379.17
370.86	400.23
371.06	442.36
371.25	491.51
371.45	437.68
371.65	458.74
371.84	454.06
372.04	479.81
372.24	433.00
372.44	561.73
372.63	482.15
372.83	505.56
373.03	482.15
373.22	463.43
373.42	491.51
373.62	486.83
373.81	592.16
374.01	449.38
374.21	571.09
374.40	550.03
374.60	641.31
374.79	503.22
374.99	472.79
375.19	564.07
375.38	585.13
375.58	503.22
375.78	615.56
375.97	599.18
376.17	657.69
376.37	557.05
376.56	599.18
376.76	592.16
376.95	557.05
377.15	622.58
377.35	631.94
377.54	653.01
377.74	554.71
377.93	543.00
378.13	603.86
378.33	638.97
378.52	615.56
378.72	603.86
378.91	676.41
379.11	610.88
379.31	641.31
379.50	599.18
379.70	603.86
379.89	601.52
380.09	613.22
380.28	599.18
380.48	667.05
380.68	636.63
380.87	725.57
381.07	713.86
381.26	655.35
381.46	667.05
381.65	650.67
381.85	643.65
382.04	592.16
382.24	662.37
382.43	596.84
382.63	627.26
382.83	690.46
383.02	763.01
383.22	730.25
383.41	746.63
383.61	676.41
383.80	713.86
384.00	765.36
384.19	863.66
384.39	669.39
384.58	725.57
384.78	683.44
384.97	685.78
385.17	758.33
385.36	819.19
385.56	800.46
385.75	767.70
385.95	739.61
386.14	802.80
386.34	835.57
386.53	784.08
386.72	823.87
386.92	826.21
387.11	863.66
387.31	826.21
387.50	849.61
387.70	812.17
387.89	891.74
388.09	807.48
388.28	809.83
388.48	781.74
388.67	837.91
388.86	894.08
389.06	809.83
389.25	901.11
389.45	915.15
389.64	968.98
389.84	891.74
390.03	964.30
390.22	894.08
390.42	851.96
390.61	966.64
390.81	959.62
391.00	950.26
391.19	1029.84
391.39	947.92
391.58	929.19
391.78	1008.77
391.97	1013.45
392.16	940.90
392.36	1004.09
392.55	1032.18
392.75	966.64
392.94	987.71
393.13	980.68
393.33	1011.11
393.52	922.17
393.71	1046.22
393.91	1015.79
394.10	1022.81
394.29	1057.92
394.49	1081.33
394.68	1067.28
394.88	1025.15
395.07	1109.41
395.26	1020.47
395.46	1139.84
395.65	1137.50
395.84	1203.04
396.04	1266.23
396.23	1158.57
396.42	1090.69
396.62	1036.86
396.81	1125.80
397.00	1137.50
397.19	1153.88
397.39	1214.74
397.58	1273.25
397.77	1259.21
397.97	1273.25
398.16	1273.25
398.35	1273.25
398.55	1317.72
398.74	1310.70
398.93	1287.29
399.12	1357.51
399.32	1231.12
399.51	1299.00
399.70	1437.09
399.90	1404.32
400.09	1441.77
400.28	1493.26
400.47	1479.22
400.67	1446.45
400.86	1383.26
401.05	1434.75
401.24	1474.54
401.44	1493.26
401.63	1474.54
401.82	1455.81
402.01	1399.64
402.21	1561.14
402.40	1458.15
402.59	1437.09
402.78	1549.43
402.97	1605.61
403.17	1523.69
403.36	1685.19
403.55	1607.95
403.74	1652.42
403.93	1610.29
404.13	1633.69
404.32	1584.54
404.51	1589.22
404.70	1706.25
404.89	1739.02
405.09	1734.34
405.28	1736.68
405.47	1600.93
405.66	1739.02
405.85	1834.98
406.05	1755.40
406.24	1895.83
406.43	1804.55
406.62	1830.30
406.81	1774.13
407.00	1788.17
407.20	1846.68
407.39	1891.15
407.58	1849.02
407.77	1916.90
407.96	1900.52
408.15	1975.41
408.34	1921.58
408.54	1996.48
408.73	1989.46
408.92	1987.11
409.11	2085.42
409.30	1961.37
409.49	2099.46
409.68	1987.11
409.87	2094.78
410.07	2113.50
410.26	2083.08
410.45	2043.29
410.64	2162.66
410.83	2228.19
411.02	2230.53
411.21	2270.32
411.40	2195.42
411.59	2263.30
411.78	2282.02
411.98	2291.38
412.17	2300.75
412.36	2296.07
412.55	2314.79
412.74	2466.92
412.93	2431.82
413.12	2382.67
413.31	2469.27
413.50	2417.77
413.69	2534.80
413.88	2581.61
414.07	2602.68
414.26	2574.59
414.45	2595.65
414.64	2649.49
414.83	2560.55
415.02	2640.12
415.22	2736.09
415.41	2668.21
415.60	2827.37
415.79	2787.58
415.98	2794.60
416.17	2876.52
416.36	2832.05
416.55	2895.24
416.74	2860.13
416.93	2972.48
417.12	2883.54
417.31	3052.06
417.50	2928.01
417.69	3040.36
417.88	3091.85
418.07	3063.76
418.26	3241.64
418.45	3075.46
418.64	3239.30
418.83	3220.58
419.02	3124.62
419.21	3124.62
419.39	3215.90
419.58	3178.45
419.77	3117.59
419.96	3267.39
420.15	3248.66
420.34	3356.33
420.53	3295.47
420.72	3442.93
420.91	3389.10
421.10	3307.18
421.29	3433.57
421.48	3293.13
421.67	3410.16
421.86	3353.99
422.05	3440.59
422.24	3382.07
422.43	3494.42
422.61	3438.25
422.80	3466.33
422.99	3524.85
423.18	3412.50
423.37	3648.90
423.56	3461.65
423.75	3468.67
423.94	3440.59
424.13	3236.96
424.32	3459.31
424.50	3648.90
424.69	3609.11
424.88	3538.89
425.07	3606.77
425.26	3583.36
425.45	3475.70
425.64	3548.25
425.83	3534.21
426.01	3566.98
426.20	3637.19
426.39	3564.64
426.58	3632.51
426.77	3517.83
426.96	3665.28
427.15	3681.66
427.33	3716.77
427.52	3655.92
427.71	3882.95
427.90	3583.36
428.09	3784.65
428.28	3658.26
428.46	3761.24
428.65	3698.05
428.84	3740.18
429.03	3819.75
429.22	3843.16
429.40	3932.10
429.59	3901.67
429.78	3805.71
429.97	3662.94
430.16	3733.15
430.34	3791.67
430.53	3852.52
430.72	3784.65
430.91	3854.86
431.10	3985.93
431.28	4021.04
431.47	4229.35
431.66	4257.43
431.85	4095.94
432.03	4163.81
432.22	4344.03
432.41	4119.34
432.60	4102.96
432.79	4203.60
432.97	4292.54
433.16	4339.35
433.35	4161.47
433.54	4149.77
433.72	4210.62
433.91	4203.60
434.10	4222.33
434.28	4308.93
434.47	4386.16
434.66	4404.89
434.85	4449.36
435.03	4440.00
435.22	4496.17
435.41	4608.51
435.59	4615.54
435.78	4561.70
435.97	4547.66
436.16	4486.81
436.34	4470.42
436.53	4507.87
436.72	4599.15
436.90	4477.44
437.09	4676.39
437.28	4676.39
437.46	4702.14
437.65	4734.90
437.84	4688.09
438.02	4744.27
438.21	4870.65
438.40	4681.07
438.58	4821.50
438.77	4947.89
438.96	4917.47
439.14	4849.59
439.33	4849.59
439.52	5046.20
439.70	5008.75
439.89	5041.51
440.08	5039.17
440.26	5139.82
440.45	5097.69
440.63	5219.39
440.82	5352.81
441.01	5336.42
441.19	5437.06
441.38	5406.64
441.57	5446.43
441.75	5462.81
441.94	5689.84
442.12	5572.82
442.31	5750.70
442.50	5533.03
442.68	5654.73
442.87	5598.56
443.05	5654.73
443.24	5858.36
443.43	5565.79
443.61	5797.51
443.80	5898.15
443.98	5675.80
444.17	5544.73
444.35	5650.05
444.54	5902.83
444.73	5851.34
444.91	5785.80
445.10	5757.72
445.28	5874.74
445.47	5774.10
445.65	5921.56
445.84	5743.67
446.02	5989.43
446.21	5959.00
446.39	5865.38
446.58	6015.18
446.77	6001.13
446.95	5907.51
447.14	5951.98
447.32	6010.50
447.51	5951.98
447.69	5863.04
447.88	6085.39
448.06	5933.26
448.25	6052.63
448.43	6071.35
448.62	6143.91
448.80	5980.07
448.99	6129.86
449.17	6099.44
449.36	6005.81
449.54	6218.80
449.73	6370.94
449.91	6282.00
450.10	6331.15
450.28	6370.94
450.46	6317.11
450.65	6392.00
450.83	6527.75
451.02	6253.91
451.20	6366.26
451.39	6305.40
451.57	6410.73
451.76	6413.07
451.94	6469.24
452.13	6359.24
452.31	6506.69
452.49	6246.89
452.68	6429.45
452.86	6455.20
453.05	6602.65
453.23	6555.84
453.42	6368.60
453.60	6389.66
453.78	6607.33
453.97	6633.08
454.15	6464.56
454.34	6736.06
454.52	6703.29
454.70	6717.34
454.89	6623.72
455.07	6675.21
455.26	6759.47
455.44	6965.43
455.62	6965.43
455.81	6803.94
455.99	6890.54
456.17	6946.71
456.36	7052.03
456.54	7180.76
456.73	7016.93
456.91	7243.96
457.09	7368.01
457.28	7363.33
457.46	7290.77
457.64	7255.66
457.83	7339.92
458.01	7035.65
458.19	7272.04
458.38	7063.74
458.56	7335.24
458.74	7449.93
458.93	7297.79
459.11	7456.95
459.29	7403.11
459.48	7377.37
459.66	7169.06
459.84	7515.46
460.03	7744.83
460.21	7520.14
460.39	7698.02
460.57	7513.12
460.76	7691.00
460.94	7630.15
461.12	7803.35
461.31	7819.73
461.49	7728.45
461.67	7581.00
461.85	7960.16
462.04	7695.68
462.22	8315.92
462.40	7955.48
462.59	8198.90
462.77	7988.25
462.95	8112.30
463.13	7866.54
463.32	8035.06
463.50	8070.17
463.68	8042.08
463.86	7999.95
464.05	7943.78
464.23	8002.29
464.41	8168.47
464.59	8166.13
464.78	8308.90
464.96	8109.96
465.14	8215.28
465.32	8124.00
465.50	8442.31
465.69	8381.46
465.87	8381.46
466.05	8198.90
466.23	8519.55
466.41	8135.70
466.60	8524.23
466.78	8189.53
466.96	8116.98
467.14	8362.73
467.32	8524.23
467.51	8411.89
467.69	8355.71
467.87	8580.40
468.05	8587.43
468.23	8580.40
468.41	8557.00
468.60	8552.32
468.78	8683.39
468.96	8615.51
469.14	8578.06
469.32	8784.03
469.50	8758.28
469.69	8774.67
469.87	8931.48
470.05	8762.97
470.23	9053.19
470.41	8959.57
470.59	8943.19
470.77	9043.83
470.95	9039.15
471.14	9104.68
471.32	8950.21
471.50	9240.44
471.68	9296.61
471.86	9397.25
472.04	9425.34
472.22	9502.58
472.40	9205.33
472.58	9385.55
472.77	9476.83
472.95	9411.29
473.13	9841.95
473.31	9469.81
473.49	9453.42
473.67	9582.15
473.85	9600.88
474.03	9830.25
474.21	9710.88
474.39	9877.06
474.57	10176.65
474.75	10092.39
474.93	9958.98
475.12	10162.61
475.30	10200.05
475.48	10068.98
475.66	10052.60
475.84	10129.84
476.02	10497.30
476.20	10389.64
476.38	10633.05
476.56	10633.05
476.74	10551.14
476.92	10546.45
477.10	10670.50
477.28	10757.10
477.46	10949.03
477.64	11222.87
477.82	11302.45
478.00	11407.77
478.18	11136.27
478.36	11492.03
478.54	11503.73
478.72	11529.48
478.90	11513.10
479.08	11861.84
479.26	11939.07
479.44	12077.16
479.62	12159.08
479.80	12046.74
479.98	12290.15
480.16	12313.56
480.34	12135.68
480.52	12238.66
480.70	12388.46
480.88	12463.35
481.06	12446.97
481.24	12613.15
481.41	12582.72
481.59	12985.29
481.77	13107.00
481.95	12837.84
482.13	13071.89
482.31	13123.38
482.49	13415.95
482.67	13757.67
482.85	13748.31
483.03	13720.22
483.21	14005.77
483.39	13933.21
483.57	13888.74
483.74	14024.49
483.92	14169.60
484.10	14136.84
484.28	14394.29
484.46	14544.09
484.64	14792.19
484.82	14305.35
485.00	14544.09
485.18	14925.60
485.35	15105.82
485.53	15021.56
485.71	14675.16
485.89	15463.92
486.07	15154.97
486.25	15356.25
486.43	15536.48
486.61	15761.17
486.78	15946.07
486.96	16053.73
487.14	16098.20
487.32	16163.74
487.50	16414.18
487.68	16545.25
487.85	16692.70
488.03	17216.98
488.21	17116.34
488.39	16847.18
488.57	17231.02
488.75	17252.09
488.92	17694.45
489.10	17579.76
489.28	17649.98
489.46	17975.31
489.64	17884.03
489.81	18256.18
489.99	18466.83
490.17	18326.39
490.35	18511.30
490.53	18892.80
490.70	18553.43
490.88	18684.50
491.06	19009.83
491.24	19082.39
491.41	19054.30
491.59	19133.88
491.77	19197.07
491.95	19747.10
492.13	19295.38
492.30	19946.05
492.48	19976.47
492.66	20011.58
492.84	19655.82
493.01	20123.93
493.19	20224.57
493.37	20479.69
493.54	20744.17
493.72	20372.02
493.90	20790.98
494.08	21025.03
494.25	21010.99
494.43	21160.78
494.61	21287.17
494.79	21245.04
494.96	21563.36
495.14	21642.93
495.32	21666.34
495.49	21802.09
495.67	21851.24
495.85	21914.44
496.02	22099.34
496.20	22242.11
496.38	22485.53
496.55	22625.96
496.73	22899.80
496.91	22396.59
497.09	22831.93
497.26	23021.51
497.44	22892.78
497.62	23091.73
497.79	23330.46
497.97	23410.04
498.14	23597.28
498.32	23784.52
498.50	23594.94
498.67	23850.06
498.85	23999.85
499.03	23988.15
499.20	24016.24
499.38	24166.03
499.56	24215.18
499.73	24423.49
499.91	24641.16
500.08	24666.91
500.26	24243.27
500.44	24540.52
500.61	25076.50
500.79	24596.69
500.97	24987.56
501.14	25310.55
501.32	25216.93
501.49	25198.21
501.67	24936.07
501.84	25095.22
502.02	25050.75
502.20	25827.81
502.37	25425.24
502.55	25745.89
502.72	26010.37
502.90	25715.47
503.07	25703.76
503.25	25685.04
503.43	26022.08
503.60	25923.77
503.78	26176.55
503.95	26033.78
504.13	26443.37
504.30	26576.78
504.48	26199.96
504.65	26918.50
504.83	26504.23
505.01	27056.59
505.18	27058.93
505.36	26794.45
505.53	27314.05
505.71	27248.52
505.88	27225.11
506.06	27262.56
506.23	27042.55
506.41	27307.03
506.58	27274.26
506.76	27599.60
506.93	27871.10
507.11	27845.35
507.28	27690.88
507.46	28034.94
507.63	27686.20
507.81	27927.27
507.98	27744.71
508.16	28229.20
508.33	28130.90
508.50	28376.66
508.68	28636.45
508.85	28900.94
509.03	28521.77
509.20	28381.34
509.38	28851.78
509.55	29443.94
509.73	29216.91
509.90	29125.63
510.08	28879.87
510.25	29214.57
510.42	29266.06
510.60	29191.16
510.77	29769.27
510.95	29434.58
511.12	29631.18
511.30	29549.26
511.47	29724.80
511.64	30181.21
511.82	29940.13
511.99	29635.86
512.17	30342.70
512.34	29989.28
512.51	30281.85
512.69	30345.05
512.86	30504.20
513.04	30883.37
513.21	30469.09
513.38	30017.37
513.56	30361.43
513.73	30089.93
513.90	30696.13
514.08	30579.10
514.25	30923.16
514.43	30995.71
514.60	31304.67
514.77	31028.48
514.95	31508.29
515.12	31248.49
515.29	31384.24
515.47	31285.94
515.64	31613.62
515.81	31503.61
515.99	31599.57
516.16	31672.13
516.33	31459.14
516.51	31491.91
516.68	31573.83
516.85	31517.65
517.03	31562.12
517.20	32088.74
517.37	31866.39
517.54	32210.45
517.72	32020.87
517.89	32105.13
518.06	32140.24
518.24	32177.68
518.41	32140.24
518.58	32393.01
518.75	32173.00
518.93	32631.75
519.10	32519.40
519.27	32818.99
519.45	32971.13
519.62	33205.18
519.79	32781.54
519.96	33151.35
520.14	33380.72
520.31	33181.77
520.48	33579.67
520.65	33317.53
520.83	33347.95
521.00	33998.62
521.17	33677.97
521.34	33762.23
521.52	33830.10
521.69	33893.30
521.86	33797.34
522.03	34096.92
522.20	33979.90
522.38	34223.31
522.55	34553.33
522.72	33961.17
522.89	34153.10
523.07	34562.69
523.24	34272.46
523.41	34349.70
523.58	34719.51
523.75	34639.93
523.92	34527.58
524.10	34869.30
524.27	35180.59
524.44	34618.86
524.61	35161.87
524.78	35108.04
524.96	35424.01
525.13	34916.11
525.30	35587.85
525.47	35730.62
525.64	35086.97
525.81	35267.19
525.98	35611.25
526.16	35288.26
526.33	35058.88
526.50	35346.77
526.67	35386.56
526.84	35424.01
527.01	35470.82
527.18	35599.55
527.36	35971.69
527.53	35721.26
527.70	36465.55
527.87	35868.71
528.04	35782.11
528.21	36004.46
528.38	35594.87
528.55	36437.46
528.72	36449.16
528.89	36435.12
529.07	36528.74
529.24	36339.16
529.41	36790.88
529.58	36072.34
529.75	36402.35
529.92	36706.62
530.09	36624.70
530.26	36680.88
530.43	36954.72
530.60	36570.87
530.77	36577.89
530.94	37111.53
531.11	37148.98
531.28	36765.14
531.46	37179.41
531.63	37088.13
531.80	37514.11
531.97	37097.49
532.14	37167.71
532.31	37053.02
532.48	37359.63
532.65	37935.40
532.82	37574.96
532.99	37654.54
533.16	37266.01
533.33	37617.09
533.50	37619.43
533.67	37865.19
533.84	37647.52
534.01	38019.66
534.18	37439.21
534.35	38419.89
534.52	37741.14
534.69	38047.75
534.86	38178.82
535.03	37986.89
535.20	38462.02
535.37	38323.93
535.54	38440.96
535.71	38532.24
535.88	38330.95
536.05	38394.15
536.22	38515.86
536.38	38689.06
536.55	38539.26
536.72	38665.65
536.89	38422.23
537.06	38405.85
537.23	38728.84
537.40	38567.35
537.57	38272.44
537.74	38831.83
537.91	38792.04
538.08	39175.89
538.25	38932.47
538.42	38976.94
538.59	38810.76
538.75	38803.74
538.92	39297.59
539.09	39061.20
539.26	39271.85
539.43	39297.59
539.60	39023.75
539.77	38873.96
539.94	39405.26
540.11	39225.04
540.28	39407.60
540.44	39218.02
540.61	39042.48
540.78	39569.10
540.95	39316.32
541.12	39157.16
541.29	39218.02
541.46	39964.65
541.62	39943.58
541.79	39765.70
541.96	39438.03
542.13	39695.49
542.30	39831.24
542.47	40051.25
542.63	40076.99
542.80	40158.91
542.97	40252.53
543.14	40327.43
543.31	40418.71
543.48	40383.60
543.64	40737.02
543.81	40605.95
543.98	40641.06
544.15	40524.04
544.32	40774.47
544.48	40947.67
544.65	40430.41
544.82	40444.46
544.99	40872.78
545.16	40968.74
545.32	40449.14
545.49	41031.93
545.66	41181.73
545.83	41280.03
546.00	41118.53
546.16	41050.66
546.33	40964.06
546.50	40804.90
546.67	41282.37
546.83	40835.33
547.00	40760.43
547.17	41001.50
547.34	40910.22
547.50	41296.41
547.67	41329.18
547.84	41455.57
548.00	41586.64
548.17	41720.05
548.34	41450.89
548.51	41834.74
548.67	41535.15
548.84	41893.25
549.01	41471.95
549.18	41642.81
549.34	42019.64
549.51	41570.25
549.68	41951.76
549.84	41556.21
550.01	42141.35
550.18	42045.38
550.34	41621.75
550.51	41471.95
550.68	41603.02
550.84	41706.01
551.01	42087.51
551.18	41790.27
551.34	41879.21
551.51	42230.29
551.68	42515.83
551.84	42185.82
552.01	42342.63
552.18	42124.96
552.34	42389.44
552.51	42412.85
552.68	42103.90
552.84	42436.25
553.01	42466.68
553.18	42564.98
553.34	42494.77
553.51	42373.06
553.67	42073.47
553.84	42885.64
554.01	42827.12
554.17	42869.25
554.34	42890.32
554.51	42478.38
554.67	42752.23
554.84	42401.14
555.00	42593.07
555.17	42466.68
555.33	42768.61
555.50	42836.48
555.67	42895.00
555.83	42696.05
556.00	42988.62
556.16	43646.31
556.33	43208.63
556.50	43086.92
556.66	43269.48
556.83	42820.10
556.99	43030.75
557.16	42990.96
557.32	43182.88
557.49	43264.80
557.65	42663.28
557.82	43208.63
557.98	42745.20
558.15	43189.91
558.32	43393.53
558.48	43391.19
558.65	43250.76
558.81	43311.61
558.98	42916.06
559.14	42993.30
559.31	43440.34
559.47	43346.72
559.64	43655.67
559.80	43634.61
559.97	43358.42
560.13	43070.54
560.30	43463.75
560.46	43545.67
560.63	43503.54
560.79	43328.00
560.96	43358.42
561.12	43447.36
561.29	43686.10
561.45	43573.75
561.61	43526.94
561.78	43725.89
561.94	43683.76
562.11	43419.28
562.27	43772.70
562.44	43510.56
562.60	43824.19
562.77	43873.34
562.93	43753.97
563.10	44058.24
563.26	43459.07
563.42	43718.87
563.59	43494.18
563.75	43540.99
563.92	44275.91
564.08	43473.11
564.24	44009.09
564.41	44163.57
564.57	43426.30
564.74	44163.57
564.90	44205.70
565.07	43955.26
565.23	44100.37
565.39	43962.28
565.56	44091.01
565.72	44102.71
565.88	44020.80
566.05	43924.83
566.21	43992.71
566.38	44058.24
566.54	43887.39
566.70	44449.11
566.87	44369.54
567.03	44140.16
567.19	44509.97
567.36	43882.70
567.52	43826.53
567.68	44472.52
567.85	44224.42
568.01	44348.47
568.17	44247.83
568.34	43880.36
568.50	44350.81
568.66	44013.77
568.83	44322.72
568.99	44072.29
569.15	44013.77
569.32	44261.87
569.48	44135.48
569.64	44044.20
569.81	44549.76
569.97	44030.16
570.13	44238.47
570.30	44119.10
570.46	44409.32
570.62	44069.95
570.78	44287.62
570.95	44231.44
571.11	44671.46
571.27	44814.24
571.43	44016.11
571.60	44369.54
571.76	44186.97
571.92	44224.42
572.09	44404.64
572.25	44308.68
572.41	44683.17
572.57	44142.50
572.74	44673.81
572.90	44252.51
573.06	44130.80
573.22	44556.78
573.38	44121.44
573.55	44098.03
573.71	44081.65
573.87	44493.58
574.03	44046.54
574.20	44811.90
574.36	44474.86
574.52	44910.20
574.68	44657.42
574.84	44327.41
575.01	44423.37
575.17	44308.68
575.33	44102.71
575.49	44020.80
575.65	44350.81
575.82	44769.77
575.98	44680.83
576.14	44830.62
576.30	44542.74
576.46	44273.57
576.62	44364.85
576.79	44362.51
576.95	44240.81
577.11	44261.87
577.27	44776.79
577.43	44332.09
577.59	44715.93
577.75	44741.68
577.92	44327.41
578.08	44355.49
578.24	44402.30
578.40	44399.96
578.56	44212.72
578.72	44949.99
578.88	44587.21
579.04	44610.61
579.21	44236.12
579.37	44140.16
579.53	44603.59
579.69	44678.49
579.85	44774.45
580.01	44896.16
580.17	44268.89
580.33	44814.24
580.49	44863.39
580.65	44795.51
580.82	44713.59
580.98	44559.12
581.14	44788.49
581.30	44924.24
581.46	44428.05
581.62	44762.75
581.78	44526.35
581.94	45001.48
582.10	44540.39
582.26	45088.08
582.42	44685.51
582.58	44596.57
582.74	44402.30
582.90	44491.24
583.06	45069.36
583.22	44781.47
583.38	45205.11
583.54	44484.22
583.70	44189.31
583.86	45064.67
584.02	44456.14
584.18	44737.00
584.34	44959.35
584.50	44992.12
584.66	44458.48
584.82	44746.36
584.98	45010.84
585.14	45048.29
585.30	44828.28
585.46	45219.15
585.62	44278.25
585.78	44486.56
585.94	44573.16
586.10	44224.42
586.26	44327.41
586.42	44996.80
586.58	45020.20
586.74	44416.35
586.90	44596.57
587.06	44516.99
587.22	44779.13
587.38	44718.28
587.54	45078.72
587.70	44828.28
587.86	44996.80
588.02	45031.91
588.18	44638.70
588.34	44575.50
588.49	44694.87
588.65	44636.36
588.81	44247.83
588.97	44608.27
589.13	44552.10
589.29	44491.24
589.45	45099.78
589.61	44727.64
589.77	44825.94
589.93	45249.58
590.08	44992.12
590.24	45083.40
590.40	44954.67
590.56	45233.19
590.72	45123.19
590.88	45048.29
591.04	45022.54
591.20	45219.15
591.35	45031.91
591.51	45736.41
591.67	45132.55
591.83	45045.95
591.99	44369.54
592.15	44657.42
592.31	45113.83
592.46	44706.57
592.62	45186.38
592.78	44973.39
592.94	45247.24
593.10	45319.79
593.26	45368.94
593.41	45010.84
593.57	44858.71
593.73	44938.29
593.89	45076.38
594.05	45048.29
594.20	45373.63
594.36	45151.27
594.52	44708.91
594.68	45074.04
594.84	44914.88
594.99	45598.32
595.15	45207.45
595.31	45268.30
595.47	45020.20
595.62	45148.93
595.78	45059.99
595.94	45572.57
596.10	45457.88
596.25	45162.98
596.41	45448.52
596.57	45134.89
596.73	45289.37
596.88	44861.05
597.04	45102.12
597.20	45301.07
597.36	44964.03
597.51	45446.18
597.67	45481.29
597.83	45315.11
597.99	45705.98
598.14	45062.33
598.30	45413.41
598.46	45308.09
598.61	44781.47
598.77	45397.03
598.93	45162.98
599.09	45294.05
599.24	45544.48
599.40	45055.31
599.56	45771.52
599.71	45090.42
599.87	45425.12
600.03	45366.60
600.18	45310.43
600.34	44912.54
600.50	45024.89
600.65	45074.04
600.81	44875.09
600.97	45352.56
601.12	45907.27
601.28	45481.29
601.44	45263.62
601.59	45017.86
601.75	45076.38
601.91	45242.56
602.06	44921.90
602.22	45317.45
602.37	44877.43
602.53	45441.50
602.69	45542.14
602.84	45048.29
603.00	45170.00
603.16	44744.02
603.31	45193.40
603.47	44825.94
603.62	44935.95
603.78	45162.98
603.94	45212.13
604.09	45148.93
604.25	45315.11
604.40	44779.13
604.56	45305.75
604.71	45074.04
604.87	45291.71
605.03	44755.72
605.18	45095.10
605.34	44999.14
605.49	44524.01
605.65	44882.11
605.80	45130.21
605.96	45064.67
606.12	45172.34
606.27	45542.14
606.43	44928.92
606.58	45106.80
606.74	44975.73
606.89	44657.42
607.05	45247.24
607.20	45324.47
607.36	45062.33
607.51	45174.68
607.67	45146.59
607.82	44851.69
607.98	44949.99
608.13	45137.23
608.29	45207.45
608.44	44940.63
608.60	44402.30
608.75	44655.08
608.91	44697.21
609.06	44575.50
609.22	44917.22
609.37	44325.07
609.53	44755.72
609.68	44825.94
609.84	44687.85
609.99	44982.76
610.15	45104.46
610.30	44870.41
610.46	44250.17
610.61	44980.42
610.76	44772.11
610.92	44769.77
611.07	44704.23
611.23	44446.77
611.38	44341.45
611.54	44072.29
611.69	44346.13
611.84	44481.88
612.00	44240.81
612.15	44189.31
612.31	44329.75
612.46	44346.13
612.62	44641.04
612.77	44629.34
612.92	44828.28
613.08	44285.28
613.23	44477.20
613.39	44395.28
613.54	44009.09
613.69	43945.90
613.85	43964.62
614.00	44746.36
614.15	44512.31
614.31	44568.48
614.46	44605.93
614.62	44416.35
614.77	44369.54
614.92	43938.88
615.08	44369.54
615.23	44378.90
615.38	44156.55
615.54	44112.08
615.69	43700.14
615.84	43536.30
616.00	43845.26
616.15	43728.23
616.30	43873.34
616.46	43515.24
616.61	43714.19
616.76	43899.09
616.92	43669.72
617.07	43756.32
617.22	43718.87
617.37	43276.51
617.53	44140.16
617.68	44081.65
617.83	43997.39
617.99	44076.97
618.14	43739.93
618.29	43508.22
618.45	43943.56
618.60	43309.27
618.75	43674.40
618.90	43505.88
619.06	43714.19
619.21	43414.60
619.36	43323.32
619.51	43442.68
619.67	43524.60
619.82	43564.39
619.97	43557.37
620.12	43171.18
620.28	43103.31
620.43	43459.07
620.58	43700.14
620.73	43075.22
620.89	43100.97
621.04	43594.82
621.19	42841.17
621.34	43290.55
621.49	42787.33
621.65	43187.56
621.80	43543.33
621.95	42944.15
622.10	42974.58
622.25	42887.98
622.41	42890.32
622.56	42883.30
622.71	43360.76
622.86	43058.84
623.01	43302.25
623.16	42869.25
623.32	43068.20
623.47	42836.48
623.62	43023.73
623.77	42993.30
623.92	43023.73
624.07	42714.78
624.23	42436.25
624.38	42581.37
624.53	42600.09
624.68	43033.09
624.83	42864.57
624.98	43049.47
625.13	42384.76
625.29	42693.71
625.44	42946.49
625.59	42562.64
625.74	42384.76
625.89	42321.57
626.04	42209.22
626.19	42218.58
626.34	42703.07
626.49	42635.20
626.65	42560.30
626.80	41942.40
626.95	42478.38
627.10	42092.19
627.25	41897.93
627.40	41698.98
627.55	41989.21
627.70	41970.49
627.85	41698.98
628.00	41771.54
628.15	42183.48
628.30	42305.18
628.45	42546.26
628.60	41935.38
628.76	42160.07
628.91	41663.88
629.06	41628.77
629.21	42031.34
629.36	41701.32
629.51	41474.29
629.66	41757.50
629.81	41579.62
629.96	41691.96
630.11	41816.01
630.26	41825.37
630.41	41588.98
630.56	41387.69
630.71	41361.95
630.86	41528.13
631.01	41322.16
631.16	41053.00
631.31	41500.04
631.46	40952.35
631.61	41219.17
631.76	41649.83
631.91	41682.60
632.06	41542.17
632.21	41450.89
632.36	41570.25
632.51	41212.15
632.66	41333.86
632.81	41366.63
632.96	40952.35
633.10	40858.73
633.25	40664.47
633.40	40931.29
633.55	41186.41
633.70	40992.14
633.85	41443.87
634.00	41432.16
634.15	41045.97
634.30	40856.39
634.45	41174.70
634.60	40999.16
634.75	41120.87
634.90	40507.65
635.05	41120.87
635.19	40823.62
635.34	40950.01
635.49	40676.17
635.64	40748.73
635.79	40783.83
635.94	40353.18
636.09	40479.57
636.24	40746.39
636.39	40563.82
636.53	40289.98
636.68	40392.97
636.83	40364.88
636.98	40542.76
637.13	40318.07
637.28	40687.87
637.43	40755.75
637.57	40708.94
637.72	40456.16
637.87	40580.21
638.02	40641.06
638.17	40133.17
638.32	40053.59
638.46	40591.91
638.61	40245.51
638.76	40093.38
638.91	40392.97
639.06	40428.07
639.20	40217.43
639.35	40399.99
639.50	39852.30
639.65	40385.94
639.80	40460.84
639.94	40210.40
640.09	40245.51
640.24	40023.16
640.39	40027.84
640.54	39683.78
640.68	39620.59
640.83	39945.92
640.98	39791.45
641.13	40062.95
641.27	40102.74
641.42	39536.33
641.57	39835.92
641.72	39789.11
641.86	39250.78
642.01	39337.38
642.16	39316.32
642.31	39152.48
642.45	39646.33
642.60	39445.05
642.75	39049.50
642.90	39585.48
643.04	39573.78
643.19	39061.20
643.34	39428.66
643.48	39496.54
643.63	39845.28
643.78	38925.45
643.93	38937.15
644.07	39180.57
644.22	38953.54
644.37	39000.35
644.51	38880.98
644.66	38911.41
644.81	39885.07
644.95	39433.35
645.10	39077.58
645.25	39344.41
645.39	39009.71
645.54	39241.42
645.69	38869.28
645.83	38920.77
645.98	38890.34
646.13	39007.37
646.27	39323.34
646.42	39054.18
646.57	38618.84
646.71	38969.92
646.86	38801.40
647.00	39138.44
647.15	38831.83
647.30	38536.92
647.44	39042.48
647.59	38754.59
647.74	38672.67
647.88	38188.18
648.03	38850.55
648.17	38431.60
648.32	38321.59
648.47	38806.08
648.61	38361.38
648.76	38934.81
648.90	38604.80
649.05	38941.83
649.20	38513.52
649.34	38754.59
649.49	38543.94
649.63	38405.85
649.78	38202.22
649.92	38209.25
650.07	38476.07
650.21	38373.08
650.36	37951.79
650.51	38197.54
650.65	38405.85
650.80	38583.73
650.94	38644.59
651.09	38253.72
651.23	38117.96
651.38	38347.34
651.52	37605.39
651.67	38143.71
651.81	38160.09
651.96	38036.05
652.10	37799.65
652.25	37834.76
652.39	37806.67
652.54	38387.13
652.68	37764.54
652.83	38115.62
652.97	38328.61
653.12	38073.49
653.26	37628.79
653.41	37504.74
653.55	37801.99
653.70	37528.15
653.84	37668.58
653.99	37773.91
654.13	37652.20
654.27	37507.08
654.42	37680.28
654.56	37619.43
654.71	37968.17
654.85	37556.24
655.00	37713.05
655.14	37144.30
655.29	37404.10
655.43	37434.53
655.57	36933.65
655.72	36870.46
655.86	36821.31
656.01	36959.40
656.15	37191.11
656.30	36954.72
656.44	36947.70
656.58	36825.99
656.73	37294.10
656.87	36362.56
657.01	36692.58
657.16	37163.03
657.30	36989.83
657.45	36229.15
657.59	36624.70
657.73	36825.99
657.88	36828.33
658.02	36708.96
658.16	36828.33
658.31	36627.04
658.45	36636.41
658.60	36783.86
658.74	36828.33
658.88	36385.97
659.03	36547.47
659.17	36580.23
659.31	36271.28
659.46	36446.82
659.60	36439.80
659.74	36180.00
659.89	36156.60
660.03	35931.90
660.17	36547.47
660.32	36133.19
660.46	36224.47
660.60	36348.52
660.74	36128.51
660.89	36114.47
661.03	35821.90
661.17	35894.46
661.32	35756.36
661.46	35931.90
661.60	35662.74
661.74	35634.66
661.89	35873.39
662.03	35571.46
662.17	35398.26
662.31	35426.35
662.46	35543.38
662.60	35690.83
662.74	35161.87
662.88	35370.18
663.03	35505.93
663.17	35585.50
663.31	34976.97
663.45	35473.16
663.60	34822.49
663.74	34976.97
663.88	34955.90
664.02	34951.22
664.17	34932.50
664.31	34340.34
664.45	34707.80
664.59	35056.54
664.73	35077.61
664.88	35112.72
665.02	34438.64
665.16	34911.43
665.30	34691.42
665.44	34522.90
665.59	34295.87
665.73	34501.84
665.87	34312.25
666.01	34499.50
666.15	34220.97
666.29	34480.77
666.44	34700.78
666.58	33996.28
666.72	33802.02
666.86	34623.54
667.00	34178.84
667.14	33916.70
667.28	33752.87
667.43	33621.80
667.57	33961.17
667.71	33762.23
667.85	33298.80
667.99	33558.60
668.13	33544.56
668.27	33357.32
668.41	33450.94
668.56	33542.22
668.70	33235.61
668.84	33261.35
668.98	33029.64
669.12	33399.44
669.26	33191.14
669.40	33273.06
669.54	32966.45
669.68	32807.29
669.82	32914.95
669.96	32713.67
670.10	32294.71
670.25	32936.02
670.39	33123.26
670.53	32879.85
670.67	32191.73
670.81	33010.92
670.95	32758.14
671.09	32645.79
671.23	32465.57
671.37	32844.74
671.51	32327.48
671.65	32257.26
671.79	32105.13
671.93	31842.99
672.07	32009.17
672.21	31934.27
672.35	32072.36
672.49	31742.35
672.63	32165.98
672.77	31854.69
672.91	31814.90
673.05	32044.27
673.19	31782.13
673.33	31358.50
673.47	31321.05
673.61	30995.71
673.75	31133.81
673.89	30859.96
674.03	31105.72
674.17	30576.76
674.31	30572.08
674.45	31070.61
674.59	31028.48
674.73	31267.22
674.87	30607.19
675.01	30761.66
675.15	30890.39
675.29	30843.58
675.43	30967.63
675.56	30586.12
675.70	30356.75
675.84	29919.07
675.98	29223.93
676.12	30019.71
676.26	30504.20
676.40	29942.47
676.54	29979.92
676.68	29993.97
676.82	29001.58
676.96	29504.79
677.10	29340.96
677.23	28971.15
677.37	29457.98
677.51	29336.27
677.65	29397.13
677.79	29078.82
677.93	29383.09
678.07	29010.94
678.21	28891.57
678.34	28755.82
678.48	28531.13
678.62	28938.38
678.76	28793.27
678.90	28299.42
679.04	28521.77
679.18	28442.19
679.31	28215.16
679.45	28107.49
679.59	27531.72
679.73	28002.17
679.87	27756.41
680.00	27924.93
680.14	27695.56
680.28	27569.17
680.42	27623.00
680.56	27775.14
680.70	27117.45
680.83	26927.86
680.97	26902.12
681.11	26803.82
681.25	26824.88
681.39	27197.02
681.52	26682.11
681.66	27147.87
681.80	26768.71
681.94	26588.49
682.07	26782.75
682.21	26443.37
682.35	26099.31
682.49	26501.89
682.62	26436.35
682.76	26235.06
682.90	25757.60
683.04	26033.78
683.17	26230.38
683.31	25743.55
683.45	25979.95
683.59	25553.97
683.72	25364.39
683.86	25598.44
684.00	25074.16
684.13	25647.59
684.27	25371.41
684.41	24664.57
684.55	24800.32
684.68	24872.87
684.82	25006.28
684.96	24765.21
685.09	24739.46
685.23	24226.89
685.37	24159.01
685.50	24533.50
685.64	24666.91
685.78	24570.94
685.91	24503.07
686.05	23868.78
686.19	23908.57
686.32	23821.97
686.46	23679.20
686.60	23449.83
686.73	23662.82
686.87	23220.45
687.01	23557.49
687.14	23274.29
687.28	23250.88
687.42	23054.28
687.55	22752.35
687.69	22860.01
687.82	22616.60
687.96	22581.49
688.10	22707.88
688.23	22508.93
688.37	22525.32
688.50	22260.84
688.64	22286.58
688.78	22312.33
688.91	21979.97
689.05	22097.00
689.18	21909.75
689.32	21338.66
689.46	21872.31
689.59	22272.54
689.73	22281.90
689.86	21696.77
690.00	21673.36
690.13	21612.51
690.27	21710.81
690.41	21525.91
690.54	21172.49
690.68	21076.52
690.81	21223.98
690.95	20898.64
691.08	20954.82
691.22	20966.52
691.35	20744.17
691.49	20762.89
691.62	20931.41
691.76	20393.09
691.89	20807.36
692.03	20547.56
692.16	20446.92
692.30	20472.67
692.43	20095.84
692.57	20257.34
692.70	20128.61
692.84	20102.86
692.97	19695.61
693.11	19681.56
693.24	19768.16
693.38	19868.81
693.51	19311.76
693.65	19489.64
693.78	19562.20
693.92	19576.24
694.05	19901.58
694.19	19276.65
694.32	19185.37
694.45	18838.97
694.59	18726.63
694.72	19112.81
694.86	18794.50
694.99	18658.75
695.13	18679.82
695.26	18457.46
695.39	18298.31
695.53	18405.97
695.66	18450.44
695.80	18288.95
695.93	18387.25
696.07	18024.47
696.20	18267.88
696.33	17994.04
696.47	18150.85
696.60	17776.37
696.73	17809.14
696.87	17577.42
697.00	17661.68
697.14	17818.50
697.27	17556.36
697.40	17479.12
697.54	17212.30
697.67	17312.94
697.80	17298.90
697.94	17238.05
698.07	17020.38
698.21	17099.95
698.34	16964.20
698.47	17245.07
698.61	16781.64
698.74	16631.85
698.87	16517.16
699.01	16402.47
699.14	16503.12
699.27	16402.47
699.40	16248.00
699.54	16208.21
699.67	16114.59
699.80	16166.08
699.94	16135.65
700.07	16023.31
700.20	15859.47
700.34	15749.46
700.47	15679.25
700.60	15882.88
700.73	15791.59
700.87	15536.48
701.00	15534.14
701.13	15712.02
701.26	15506.05
701.40	15524.77
701.53	14956.02
701.66	15522.43
701.79	15040.28
701.93	14892.83
702.06	15082.41
702.19	14967.73
702.32	14909.21
702.46	14658.78
702.59	14565.15
702.72	14677.50
702.85	14513.66
702.99	14714.95
703.12	14736.01
703.25	14286.63
703.38	14511.32
703.51	14188.33
703.65	14370.89
703.78	14436.42
703.91	14083.00
704.04	14319.40
704.17	14113.43
704.31	14157.90
704.44	13635.96
704.57	13724.90
704.70	13607.87
704.83	13614.90
704.96	13635.96
705.10	13680.43
705.23	13839.59
>>>>>End Processed Spectral Data<<<<<
