SpectraSuite Data File
++++++++++++++++++++++++++++++++++++
Date: Fri Oct 25 11:33:20 EDT 2013
User: price-jones
Dark Spectrum Present: No
Reference Spectrum Present: No
Number of Sampled Component Spectra: 1
Spectrometers: USB2+H05261
Integration Time (usec): 100000 (USB2+H05261)
Spectra Averaged: 1 (USB2+H05261)
Boxcar Smoothing: 0 (USB2+H05261)
Correct for Electrical Dark: No (USB2+H05261)
Strobe/Lamp Enabled: No (USB2+H05261)
Correct for Detector Non-linearity: No (USB2+H05261)
Correct for Stray Light: No (USB2+H05261)
Number of Pixels in Processed Spectrum: 2048
>>>>>Begin Processed Spectral Data<<<<<
365.73	252.78
365.92	252.78
366.12	252.78
366.32	159.16
366.52	238.73
366.72	250.44
366.91	252.78
367.11	121.71
367.31	166.18
367.51	168.52
367.70	145.11
367.90	126.39
368.10	145.11
368.30	205.97
368.49	135.75
368.69	203.63
368.89	182.56
369.09	189.58
369.28	184.90
369.48	241.08
369.68	264.48
369.87	229.37
370.07	194.26
370.27	311.29
370.47	327.68
370.66	463.43
370.86	540.66
371.06	505.56
371.25	533.64
371.45	465.77
371.65	580.45
371.84	531.30
372.04	573.43
372.24	540.66
372.44	608.54
372.63	624.92
372.83	589.82
373.03	599.18
373.22	470.45
373.42	706.84
373.62	589.82
373.81	622.58
374.01	706.84
374.21	676.41
374.40	573.43
374.60	664.71
374.79	669.39
374.99	645.99
375.19	667.05
375.38	662.37
375.58	629.60
375.78	702.16
375.97	690.46
376.17	716.20
376.37	706.84
376.56	634.29
376.76	669.39
376.95	594.50
377.15	645.99
377.35	692.80
377.54	755.99
377.74	664.71
377.93	720.88
378.13	725.57
378.33	744.29
378.52	723.23
378.72	732.59
378.91	723.23
379.11	732.59
379.31	732.59
379.50	741.95
379.70	732.59
379.89	758.33
380.09	702.16
380.28	669.39
380.48	793.44
380.68	702.16
380.87	706.84
381.07	716.20
381.26	802.80
381.46	772.38
381.65	734.93
381.85	786.42
382.04	716.20
382.24	695.14
382.43	727.91
382.63	807.48
382.83	802.80
383.02	816.85
383.22	798.12
383.41	847.27
383.61	833.23
383.80	877.70
384.00	833.23
384.19	784.08
384.39	868.34
384.58	802.80
384.78	880.04
384.97	847.27
385.17	798.12
385.36	908.13
385.56	821.53
385.75	802.80
385.95	842.59
386.14	802.80
386.34	915.15
386.53	894.08
386.72	929.19
386.92	912.81
387.11	861.32
387.31	851.96
387.50	877.70
387.70	884.72
387.89	947.92
388.09	919.83
388.28	861.32
388.48	919.83
388.67	938.55
388.86	931.53
389.06	931.53
389.25	964.30
389.45	947.92
389.64	919.83
389.84	943.24
390.03	973.66
390.22	1015.79
390.42	1036.86
390.61	947.92
390.81	999.41
391.00	959.62
391.19	940.90
391.39	1083.67
391.58	1055.58
391.78	1046.22
391.97	1053.24
392.16	1039.20
392.36	1022.81
392.55	1034.52
392.75	1064.94
392.94	1067.28
393.13	994.73
393.33	957.28
393.52	999.41
393.71	1078.99
393.91	1104.73
394.10	1093.03
394.29	1123.46
394.49	1149.20
394.68	1165.59
394.88	1135.16
395.07	1214.74
395.26	1254.53
395.46	1160.91
395.65	1116.44
395.84	1196.01
396.04	1242.82
396.23	1149.20
396.42	1203.04
396.62	1254.53
396.81	1207.72
397.00	1179.63
397.19	1289.64
397.39	1224.10
397.58	1277.93
397.77	1242.82
397.97	1238.14
398.16	1261.55
398.35	1277.93
398.55	1268.57
398.74	1406.66
398.93	1392.62
399.12	1348.15
399.32	1289.64
399.51	1322.40
399.70	1399.64
399.90	1425.39
400.09	1406.66
400.28	1446.45
400.47	1364.53
400.67	1387.94
400.86	1444.11
401.05	1423.05
401.24	1357.51
401.44	1380.92
401.63	1439.43
401.82	1423.05
402.01	1404.32
402.21	1577.52
402.40	1467.52
402.59	1528.37
402.78	1577.52
402.97	1469.86
403.17	1516.67
403.36	1575.18
403.55	1577.52
403.74	1561.14
403.93	1589.22
404.13	1591.56
404.32	1619.65
404.51	1680.50
404.70	1598.59
404.89	1652.42
405.09	1659.44
405.28	1614.97
405.47	1696.89
405.66	1668.80
405.85	1664.12
406.05	1699.23
406.24	1806.89
406.43	1727.32
406.62	1834.98
406.81	1820.94
407.00	1769.44
407.20	1692.21
407.39	1788.17
407.58	1834.98
407.77	1872.43
407.96	1839.66
408.15	1902.86
408.34	1804.55
408.54	1923.92
408.73	2078.40
408.92	1966.05
409.11	1912.22
409.30	1959.03
409.49	1994.14
409.68	2017.54
409.87	1914.56
410.07	2024.56
410.26	2054.99
410.45	2001.16
410.64	2071.37
410.83	2165.00
411.02	2059.67
411.21	2136.91
411.40	2160.31
411.59	2263.30
411.78	2167.34
411.98	2277.34
412.17	2303.09
412.36	2195.42
412.55	2263.30
412.74	2375.64
412.93	2305.43
413.12	2300.75
413.31	2427.14
413.50	2356.92
413.69	2445.86
413.88	2530.12
414.07	2497.35
414.26	2471.61
414.45	2523.10
414.64	2558.21
414.83	2525.44
415.02	2635.44
415.22	2684.59
415.41	2654.17
415.60	2731.41
415.79	2696.30
415.98	2612.04
416.17	2796.94
416.36	2754.81
416.55	2881.20
416.74	2822.69
416.93	2684.59
417.12	2878.86
417.31	2829.71
417.50	2822.69
417.69	2942.05
417.88	2984.18
418.07	2897.58
418.26	2871.84
418.45	2949.08
418.64	3077.80
418.83	3068.44
419.02	3148.02
419.21	3122.27
419.39	3059.08
419.58	3098.87
419.77	3159.72
419.96	3206.53
420.15	3148.02
420.34	3138.66
420.53	3286.11
420.72	3124.62
420.91	3293.13
421.10	3225.26
421.29	3391.44
421.48	3258.03
421.67	3424.20
421.86	3370.37
422.05	3332.92
422.24	3421.86
422.43	3274.41
422.61	3361.01
422.80	3431.23
422.99	3239.30
423.18	3463.99
423.37	3342.28
423.56	3342.28
423.75	3412.50
423.94	3339.94
424.13	3183.13
424.32	3311.86
424.50	3337.60
424.69	3597.40
424.88	3506.12
425.07	3564.64
425.26	3459.31
425.45	3494.42
425.64	3541.23
425.83	3356.33
426.01	3529.53
426.20	3438.25
426.39	3555.27
426.58	3454.63
426.77	3510.80
426.96	3501.44
427.15	3552.93
427.33	3693.37
427.52	3585.70
427.71	3707.41
427.90	3588.04
428.09	3676.98
428.28	3716.77
428.46	3592.72
428.65	3653.58
428.84	3686.34
429.03	3906.35
429.22	3700.39
429.40	3810.39
429.59	3847.84
429.78	3679.32
429.97	3695.71
430.16	3836.14
430.34	3859.54
430.53	3887.63
430.72	3875.93
430.91	3946.14
431.10	3953.16
431.28	4051.47
431.47	4114.66
431.66	3995.29
431.85	3992.95
432.03	4079.55
432.22	4170.83
432.41	4070.19
432.60	4121.68
432.79	4018.70
432.97	4138.07
433.16	4205.94
433.35	4161.47
433.54	4248.07
433.72	4341.69
433.91	4184.88
434.10	4140.41
434.28	4070.19
434.47	4161.47
434.66	4437.66
434.85	4355.74
435.03	4376.80
435.22	4418.93
435.41	4344.03
435.59	4369.78
435.78	4362.76
435.97	4456.38
436.16	4568.73
436.34	4416.59
436.53	4491.49
436.72	4606.17
436.90	4418.93
437.09	4540.64
437.28	4561.70
437.46	4461.06
437.65	4688.09
437.84	4725.54
438.02	4690.43
438.21	4767.67
438.40	4514.89
438.58	4758.31
438.77	4770.01
438.96	4908.10
439.14	4924.49
439.33	4980.66
439.52	4877.68
439.70	5130.45
439.89	5025.13
440.08	5268.55
440.26	5137.48
440.45	5071.94
440.63	5078.96
440.82	5352.81
441.01	5130.45
441.19	5184.29
441.38	5261.52
441.57	5294.29
441.75	5315.36
441.94	5376.21
442.12	5423.02
442.31	5509.62
442.50	5455.79
442.68	5420.68
442.87	5614.95
443.05	5490.90
443.24	5500.26
443.43	5549.41
443.61	5645.37
443.80	5813.89
443.98	5509.62
444.17	5357.49
444.35	5598.56
444.54	5701.54
444.73	5703.89
444.91	5664.10
445.10	5769.42
445.28	5811.55
445.47	5685.16
445.65	5563.45
445.84	5715.59
446.02	5638.35
446.21	5799.85
446.39	5802.19
446.58	5973.05
446.77	5820.91
446.95	5561.11
447.14	5776.44
447.32	5909.85
447.51	5748.36
447.69	5853.68
447.88	5788.14
448.06	5851.34
448.25	5839.64
448.43	5837.30
448.62	5867.72
448.80	5870.06
448.99	5919.21
449.17	6040.92
449.36	5905.17
449.54	5928.58
449.73	6195.40
449.91	6171.99
450.10	6015.18
450.28	6274.98
450.46	6251.57
450.65	6125.18
450.83	6214.12
451.02	6265.61
451.20	6277.32
451.39	6146.25
451.57	6141.57
451.76	6321.79
451.94	6190.72
452.13	6373.28
452.31	6298.38
452.49	6193.06
452.68	6394.34
452.86	6417.75
453.05	6359.24
453.23	6429.45
453.42	6230.51
453.60	6321.79
453.78	6637.76
453.97	6478.60
454.15	6361.58
454.34	6485.62
454.52	6682.23
454.70	6525.41
454.89	6558.18
455.07	6705.63
455.26	6754.79
455.44	6864.79
455.62	6794.58
455.81	6731.38
455.99	6895.22
456.17	6876.49
456.36	6696.27
456.54	6918.62
456.73	6874.15
456.91	7108.21
457.09	7016.93
457.28	7108.21
457.46	7176.08
457.64	7077.78
457.83	6981.82
458.01	7241.62
458.19	7389.07
458.38	7232.26
458.56	7300.13
458.74	7295.45
458.93	7344.60
459.11	7342.26
459.29	7302.47
459.48	7279.07
459.66	7073.10
459.84	7426.52
460.03	7733.13
460.21	7440.56
460.39	7463.97
460.57	7447.58
460.76	7665.25
460.94	7578.65
461.12	7576.31
461.31	7660.57
461.49	7435.88
461.67	7641.85
461.85	7789.30
462.04	7653.55
462.22	8329.97
462.40	7798.66
462.59	7623.12
462.77	8053.78
462.95	7880.58
463.13	7847.82
463.32	7801.01
463.50	7831.43
463.68	7946.12
463.86	8032.72
464.05	8018.68
464.23	7929.74
464.41	8077.19
464.59	7955.48
464.78	8327.63
464.96	8042.08
465.14	8056.12
465.32	8142.72
465.50	8238.69
465.69	8191.88
465.87	8393.16
466.05	8168.47
466.23	8168.47
466.41	8189.53
466.60	8381.46
466.78	8201.24
466.96	8318.26
467.14	8409.54
467.32	8421.25
467.51	8587.43
467.69	8369.76
467.87	8484.44
468.05	8622.53
468.23	8313.58
468.41	8500.83
468.60	8446.99
468.78	8477.42
468.96	8423.59
469.14	8791.05
469.32	8636.58
469.50	8430.61
469.69	8833.18
469.87	8849.57
470.05	8784.03
470.23	8847.22
470.41	8690.41
470.59	8856.59
470.77	8856.59
470.95	8971.27
471.14	9097.66
471.32	9011.06
471.50	9085.96
471.68	9078.94
471.86	9097.66
472.04	9217.03
472.22	9404.27
472.40	9125.75
472.58	9308.31
472.77	9366.82
472.95	9411.29
473.13	9825.57
473.31	9383.21
473.49	9558.75
473.67	9397.25
473.85	9521.30
474.03	9837.27
474.21	9958.98
474.39	9874.72
474.57	9853.66
474.75	9975.36
474.93	9863.02
475.12	9977.70
475.30	9980.04
475.48	10122.82
475.66	10059.62
475.84	10204.74
476.02	10345.17
476.20	10216.44
476.38	10427.09
476.56	10801.57
476.74	10696.25
476.92	10494.96
477.10	10682.20
477.28	10712.63
477.46	10822.64
477.64	10956.05
477.82	11276.70
478.00	11496.71
478.18	11178.40
478.36	11424.15
478.54	11487.35
478.72	11508.41
478.90	11456.92
479.08	11857.15
479.26	11721.40
479.44	11831.41
479.62	11861.84
479.80	11946.09
479.98	11936.73
480.16	12299.52
480.34	12070.14
480.52	12514.84
480.70	12470.37
480.88	12177.81
481.06	12414.20
481.24	12198.87
481.41	12861.24
481.59	12732.51
481.77	12751.24
481.95	13011.04
482.13	12996.99
482.31	13071.89
482.49	13312.97
482.67	13137.43
482.85	13544.68
483.03	13357.44
483.21	13757.67
483.39	13736.60
483.57	13762.35
483.74	14160.24
483.92	14260.88
484.10	14160.24
484.28	14518.34
484.46	14614.30
484.64	14712.61
484.82	14633.03
485.00	14827.29
485.18	15026.24
485.35	15012.20
485.53	15185.40
485.71	15218.16
485.89	15557.54
486.07	15552.86
486.25	15349.23
486.43	15681.59
486.61	15826.70
486.78	15866.49
486.96	15786.91
487.14	16102.89
487.32	16482.05
487.50	16524.18
487.68	16470.35
487.85	16629.51
488.03	17050.80
488.21	16950.16
488.39	17057.82
488.57	17406.56
488.75	17231.02
488.92	17488.48
489.10	17811.48
489.28	17809.14
489.46	17919.14
489.64	17947.23
489.81	18204.69
489.99	18389.59
490.17	18200.01
490.35	18621.30
490.53	18480.87
490.70	18970.04
490.88	18771.10
491.06	18941.96
491.24	19278.99
491.41	19353.89
491.59	19564.54
491.77	19138.56
491.95	19798.59
492.13	19803.27
492.30	19997.54
492.48	19770.51
492.66	20067.75
492.84	20187.12
493.01	20053.71
493.19	20372.02
493.37	20491.39
493.54	20599.05
493.72	20807.36
493.90	20678.63
494.08	21025.03
494.25	21111.63
494.43	20912.69
494.61	21343.35
494.79	21247.38
494.96	21216.96
495.14	21429.94
495.32	21802.09
495.49	21802.09
495.67	21909.75
495.85	22033.80
496.02	22211.68
496.20	22497.23
496.38	22408.29
496.55	22721.92
496.73	23239.18
496.91	23056.62
497.09	23190.03
497.26	23386.63
497.44	22820.22
497.62	23302.37
497.79	23555.15
497.97	23515.36
498.14	23555.15
498.32	23924.96
498.50	23981.13
498.67	24226.89
498.85	23910.91
499.03	24011.56
499.20	24430.51
499.38	24411.79
499.56	24472.64
499.73	24971.18
499.91	24655.20
500.08	25172.46
500.26	25057.78
500.44	25104.59
500.61	24994.58
500.79	25242.68
500.97	25219.27
501.14	25825.47
501.32	25479.07
501.49	25418.22
501.67	25743.55
501.84	26073.57
502.02	25708.44
502.20	25757.60
502.37	25867.60
502.55	25921.43
502.72	26169.53
502.90	26448.05
503.07	26309.96
503.25	26349.75
503.43	26199.96
503.60	26314.64
503.78	26295.92
503.95	26618.91
504.13	26625.93
504.30	27105.74
504.48	26925.52
504.65	27117.45
504.83	27108.08
505.01	27555.13
505.18	26878.71
505.36	27426.40
505.53	27250.86
505.71	27571.51
505.88	27232.13
506.06	27637.05
506.23	28058.34
506.41	28041.96
506.58	27887.48
506.76	27917.91
506.93	28308.78
507.11	28098.13
507.28	28318.14
507.46	28236.22
507.63	28339.21
507.81	28393.04
507.98	28570.92
508.16	28718.37
508.33	28891.57
508.50	29275.42
508.68	28833.06
508.85	29355.00
509.03	28917.32
509.20	29549.26
509.38	29626.50
509.55	29500.11
509.73	29628.84
509.90	29935.45
510.08	29509.47
510.25	29752.89
510.42	29951.84
510.60	30314.62
510.77	30216.32
510.95	30618.89
511.12	30312.28
511.30	30242.06
511.47	30171.85
511.64	30661.02
511.82	30558.03
511.99	30749.96
512.17	30473.78
512.34	30773.36
512.51	30881.03
512.69	31419.35
512.86	31044.87
513.04	31447.44
513.21	30778.04
513.38	31023.80
513.56	31063.59
513.73	31339.77
513.90	31536.38
514.08	31585.53
514.25	31651.06
514.43	31606.59
514.60	32002.14
514.77	32067.68
514.95	32187.05
515.12	31826.60
515.29	31866.39
515.47	32290.03
515.64	32528.77
515.81	32180.03
515.99	32388.33
516.16	32828.35
516.33	32629.41
516.51	32947.72
516.68	32229.18
516.85	33060.07
517.03	32961.76
517.20	32851.76
517.37	32945.38
517.54	33024.96
517.72	33640.52
517.89	33256.67
518.06	33294.12
518.24	33308.16
518.41	33111.56
518.58	33111.56
518.75	33516.47
518.93	33762.23
519.10	33720.10
519.27	33572.64
519.45	33631.16
519.62	33820.74
519.79	34120.33
519.96	34038.41
520.14	34012.66
520.31	33731.80
520.48	34335.66
520.65	34628.23
520.83	34883.34
521.00	34859.94
521.17	34480.77
521.34	34972.28
521.52	34850.58
521.69	34895.05
521.86	34761.64
522.03	35274.21
522.20	35101.01
522.38	35330.39
522.55	35412.31
522.72	35328.05
522.89	35690.83
523.07	36151.91
523.24	35531.67
523.41	35798.49
523.58	35576.14
523.75	36081.70
523.92	35838.28
524.10	35742.32
524.27	36175.32
524.44	36481.93
524.61	36219.79
524.78	35611.25
524.96	36360.22
525.13	36325.11
525.30	36187.02
525.47	37027.28
525.64	36327.45
525.81	36374.27
525.98	36655.13
526.16	36563.85
526.33	36708.96
526.50	36783.86
526.67	36559.17
526.84	37226.22
527.01	36945.36
527.18	36856.42
527.36	37237.92
527.53	37317.50
527.70	37778.59
527.87	37542.19
528.04	37333.89
528.21	37649.86
528.38	37724.75
528.55	37769.22
528.72	37521.13
528.89	37834.76
529.07	37610.07
529.24	37778.59
529.41	38066.47
529.58	37460.27
529.75	37851.14
529.92	37916.68
530.09	38059.45
530.26	37715.39
530.43	38242.01
530.60	37773.91
530.77	38403.51
530.94	38356.70
531.11	38340.32
531.28	38480.75
531.46	38567.35
531.63	38337.98
531.80	38548.62
531.97	38721.82
532.14	38337.98
532.31	38810.76
532.48	38972.26
532.65	38946.51
532.82	39105.67
532.99	38892.68
533.16	38614.16
533.33	38965.24
533.50	39021.41
533.67	39079.92
533.84	38595.43
534.01	39346.75
534.18	39044.82
534.35	39669.74
534.52	39353.77
534.69	39487.18
534.86	39887.41
535.03	39409.94
535.20	39943.58
535.37	40032.52
535.54	39475.48
535.71	39632.29
535.88	40069.97
536.05	39969.33
536.22	39962.31
536.38	39959.97
536.55	39896.77
536.72	39931.88
536.89	40032.52
537.06	40100.40
537.23	40388.28
537.40	40299.34
537.57	40196.36
537.74	40187.00
537.91	40474.88
538.08	40292.32
538.25	40315.73
538.42	40418.71
538.59	40928.95
538.75	40348.50
538.92	41055.34
539.09	40774.47
539.26	40545.10
539.43	40634.04
539.60	41069.38
539.77	41139.60
539.94	41256.62
540.11	41478.97
540.28	40875.12
540.44	41326.84
540.61	41155.98
540.78	41081.08
540.95	41228.54
541.12	41017.89
541.29	40917.25
541.46	41546.85
541.62	41558.55
541.79	41879.21
541.96	41036.61
542.13	41523.44
542.30	41649.83
542.47	42043.04
542.63	41825.37
542.80	41914.31
542.97	42469.02
543.14	42410.51
543.31	42029.00
543.48	42267.73
543.64	42401.14
543.81	42564.98
543.98	42401.14
544.15	42499.45
544.32	42209.22
544.48	43061.18
544.65	42298.16
544.82	42829.46
544.99	42527.53
545.16	42330.93
545.32	42443.27
545.49	42981.60
545.66	43365.45
545.83	42983.94
546.00	42895.00
546.16	42735.84
546.33	42616.47
546.50	42892.66
546.67	42997.98
546.83	42658.60
547.00	42939.47
547.17	42756.91
547.34	43545.67
547.50	43503.54
547.67	43695.46
547.84	42974.58
548.00	43555.03
548.17	43693.12
548.34	43576.09
548.51	43700.14
548.67	43461.41
548.84	43058.84
549.01	44109.74
549.18	43550.35
549.34	43491.83
549.51	43936.54
549.68	43643.97
549.84	44018.46
550.01	44041.86
550.18	43445.02
550.34	44060.58
550.51	44208.04
550.68	43835.89
550.84	44493.58
551.01	44081.65
551.18	44039.52
551.34	44116.76
551.51	44252.51
551.68	44280.60
551.84	44271.23
552.01	44278.25
552.18	44346.13
552.34	44182.29
552.51	44538.05
552.68	44062.93
552.84	44264.21
553.01	44673.81
553.18	44329.75
553.34	44406.98
553.51	44460.82
553.67	44327.41
553.84	44968.71
554.01	45258.94
554.17	44648.06
554.34	44701.89
554.51	44706.57
554.67	45303.41
554.84	44905.52
555.00	45125.53
555.17	44865.73
555.33	45146.59
555.50	45095.10
555.67	44996.80
555.83	45132.55
556.00	45158.30
556.16	45443.84
556.33	45226.17
556.50	44966.37
556.66	44996.80
556.83	44772.11
556.99	45502.35
557.16	45249.58
557.32	45542.14
557.49	45443.84
557.65	44917.22
557.82	45535.12
557.98	45382.99
558.15	45457.88
558.32	45347.88
558.48	45059.99
558.65	45390.01
558.81	45635.77
558.98	45031.91
559.14	45090.42
559.31	45357.24
559.47	45764.49
559.64	46101.53
559.80	46017.27
559.97	45705.98
560.13	45794.92
560.30	45523.42
560.46	46323.88
560.63	45874.50
560.79	45916.63
560.96	46300.48
561.12	46157.70
561.29	46050.04
561.45	45996.21
561.61	46157.70
561.78	45993.87
561.94	45759.81
562.11	45923.65
562.27	45916.63
562.44	46089.83
562.60	46204.52
562.77	46248.99
562.93	45998.55
563.10	46181.11
563.26	46101.53
563.42	46597.73
563.59	45914.29
563.75	46153.02
563.92	45993.87
564.08	45893.22
564.24	46658.58
564.41	46461.97
564.57	45977.48
564.74	46520.49
564.90	46454.95
565.07	46293.46
565.23	46361.33
565.39	46557.94
565.56	46621.13
565.72	46539.21
565.88	46473.68
566.05	46689.01
566.21	46712.41
566.38	46258.35
566.54	46579.00
566.70	46885.61
566.87	46476.02
567.03	46630.49
567.19	46864.55
567.36	46588.36
567.52	46733.48
567.68	47009.66
567.85	46864.55
568.01	47014.34
568.17	46927.74
568.34	46925.40
568.50	46890.29
568.66	46791.99
568.83	46995.62
568.99	46923.06
569.15	46642.20
569.32	46813.05
569.48	46504.10
569.64	47250.74
569.81	47290.52
569.97	46593.04
570.13	47358.40
570.30	46586.02
570.46	47033.07
570.62	46916.04
570.78	47056.47
570.95	46986.25
571.11	47374.78
571.27	47110.30
571.43	46820.08
571.60	47487.13
571.76	46560.28
571.92	46930.08
572.09	46937.10
572.25	47047.11
572.41	46850.50
572.57	46806.03
572.74	47168.82
572.90	47283.50
573.06	47201.58
573.22	47569.05
573.38	47615.86
573.55	47079.88
573.71	47676.71
573.87	47501.17
574.03	47138.39
574.20	47297.55
574.36	47459.04
574.52	47344.36
574.68	47435.64
574.84	47562.03
575.01	47660.33
575.17	47629.90
575.33	47611.18
575.49	47388.83
575.65	47119.66
575.82	47442.66
575.98	47147.75
576.14	47487.13
576.30	47938.85
576.46	47735.23
576.62	47112.64
576.79	47468.40
576.95	47330.31
577.11	47264.78
577.27	47152.43
577.43	47517.56
577.59	47412.23
577.75	47356.06
577.92	46958.17
578.08	47346.70
578.24	47316.27
578.40	47615.86
578.56	47454.36
578.72	47367.76
578.88	47873.32
579.04	47330.31
579.21	47896.72
579.37	47650.97
579.53	47922.47
579.69	47318.61
579.85	47133.71
580.01	47913.11
580.17	47440.32
580.33	47690.76
580.49	47711.82
580.65	47784.38
580.82	47798.42
580.98	47262.44
581.14	47239.03
581.30	47976.30
581.46	47615.86
581.62	47367.76
581.78	47215.63
581.94	47962.26
582.10	47789.06
582.26	47400.53
582.42	47562.03
582.58	47613.52
582.74	47941.19
582.90	47763.31
583.06	47711.82
583.22	47442.66
583.38	47686.07
583.54	47702.46
583.70	47620.54
583.86	47578.41
584.02	47714.16
584.18	47878.00
584.34	47882.68
584.50	47917.79
584.66	48055.88
584.82	47892.04
584.98	48299.30
585.14	48027.79
585.30	47627.56
585.46	47899.06
585.62	47805.44
585.78	47826.51
585.94	47440.32
586.10	47555.00
586.26	47643.94
586.42	47744.59
586.58	48205.67
586.74	47899.06
586.90	47416.91
587.06	47512.88
587.22	47849.91
587.38	47606.50
587.54	47908.43
587.70	48114.39
587.86	47873.32
588.02	47784.38
588.18	47922.47
588.34	47971.62
588.49	47885.02
588.65	47725.86
588.81	47667.35
588.97	47959.92
589.13	48004.39
589.29	48055.88
589.45	47889.70
589.61	48416.32
589.77	48348.45
589.93	48163.54
590.08	48172.91
590.24	47873.32
590.40	48172.91
590.56	48559.09
590.72	48240.78
590.88	48055.88
591.04	47943.53
591.20	48404.62
591.35	48200.99
591.51	48563.78
591.67	48231.42
591.83	48371.85
591.99	48247.80
592.15	48222.06
592.31	48238.44
592.46	48182.27
592.62	48095.67
592.78	48278.23
592.94	48655.06
593.10	48629.31
593.26	48739.32
593.41	48633.99
593.57	48318.02
593.73	48376.53
593.89	48877.41
594.05	48196.31
594.20	48552.07
594.36	48545.05
594.52	48746.34
594.68	48641.01
594.84	48229.08
594.99	48662.08
595.15	48285.25
595.31	48570.80
595.47	48610.59
595.62	48488.88
595.78	48399.94
595.94	48488.88
596.10	48437.39
596.25	48736.98
596.41	48390.58
596.57	48528.67
596.73	48697.19
596.88	48465.47
597.04	48739.32
597.20	48313.34
597.36	48559.09
597.51	48949.96
597.67	48488.88
597.83	48486.54
597.99	48428.02
598.14	48418.66
598.30	48697.19
598.46	48882.09
598.61	49329.13
598.77	48411.64
598.93	48781.45
599.09	48526.33
599.24	49160.61
599.40	48292.27
599.56	48542.71
599.71	49003.80
599.87	49045.93
600.03	49188.70
600.18	48648.03
600.34	48446.75
600.50	48409.30
600.65	48610.59
600.81	48828.26
600.97	48699.53
601.12	49048.27
601.28	48664.42
601.44	48491.22
601.59	48458.45
601.75	48580.16
601.91	48722.93
602.06	48676.12
602.22	48910.17
602.37	48846.98
602.53	48713.57
602.69	48687.82
602.84	48535.69
603.00	48898.47
603.16	48870.39
603.31	48559.09
603.47	48748.68
603.62	48755.70
603.78	48811.87
603.94	48786.13
604.09	48980.39
604.25	48900.81
604.40	48802.51
604.56	48959.33
604.71	48994.43
604.87	48828.26
605.03	48556.75
605.18	48339.08
605.34	48903.15
605.49	48200.99
605.65	48767.40
605.80	48411.64
605.96	48287.59
606.12	48456.11
606.27	48486.54
606.43	48596.54
606.58	48676.12
606.74	48580.16
606.89	48556.75
607.05	48844.64
607.20	48781.45
607.36	48488.88
607.51	48645.69
607.67	48612.93
607.82	48395.26
607.98	48678.46
608.13	48238.44
608.29	48219.72
608.44	48437.39
608.60	48467.81
608.75	48507.60
608.91	48472.49
609.06	48308.66
609.22	48612.93
609.37	48479.52
609.53	48444.41
609.68	48397.60
609.84	48011.41
609.99	48219.72
610.15	48320.36
610.30	48425.68
610.46	47969.28
610.61	48561.44
610.76	48507.60
610.92	47899.06
611.07	48229.08
611.23	47948.21
611.38	48121.41
611.54	48626.97
611.69	48114.39
611.84	48491.22
612.00	48144.82
612.15	48193.97
612.31	48435.05
612.46	48123.75
612.62	47962.26
612.77	48102.69
612.92	48189.29
613.08	48238.44
613.23	48170.57
613.39	48332.06
613.54	47964.60
613.69	48240.78
613.85	48006.73
614.00	48168.22
614.15	48062.90
614.31	47945.87
614.46	48107.37
614.62	47779.70
614.77	47959.92
614.92	47613.52
615.08	47887.36
615.23	48013.75
615.38	47810.12
615.54	47459.04
615.69	47847.57
615.84	47566.71
616.00	48105.03
616.15	47927.15
616.30	48107.37
616.46	47920.13
616.61	47779.70
616.76	48030.13
616.92	47796.08
617.07	48121.41
617.22	47997.37
617.37	47559.69
617.53	47784.38
617.68	47569.05
617.83	47973.96
617.99	47744.59
618.14	47578.41
618.29	47938.85
618.45	47461.38
618.60	47433.30
618.75	47358.40
618.90	47070.51
619.06	47718.84
619.21	47096.26
619.36	47496.49
619.51	47075.19
619.67	47484.79
619.82	47374.78
619.97	47555.00
620.12	47112.64
620.28	47021.36
620.43	47566.71
620.58	47756.29
620.73	47346.70
620.89	47482.45
621.04	47501.17
621.19	47175.84
621.34	47004.98
621.49	47295.21
621.65	47217.97
621.80	47351.38
621.95	47171.16
622.10	47501.17
622.25	47096.26
622.41	47044.77
622.56	47082.22
622.71	47430.96
622.86	46742.84
623.01	47033.07
623.16	47323.29
623.32	47117.32
623.47	46981.57
623.62	46791.99
623.77	46918.38
623.92	47084.56
624.07	46799.01
624.23	46974.55
624.38	46976.89
624.53	47035.41
624.68	46609.43
624.83	46726.46
624.98	46948.81
625.13	46527.51
625.29	46323.88
625.44	46965.19
625.59	46602.41
625.74	46782.63
625.89	46740.50
626.04	46618.79
626.19	46745.18
626.34	46459.63
626.49	46099.19
626.65	46225.58
626.80	46082.81
626.95	45834.71
627.10	45947.06
627.25	46653.90
627.40	46527.51
627.55	46452.61
627.70	46160.05
627.85	46330.90
628.00	46747.52
628.15	46253.67
628.30	45776.20
628.45	46101.53
628.60	45305.75
628.76	45823.01
628.91	46094.51
629.06	45315.11
629.21	45542.14
629.36	46052.38
629.51	45883.86
629.66	46115.58
629.81	45928.33
629.96	46075.79
630.11	46026.63
630.26	45734.07
630.41	45879.18
630.56	45890.88
630.71	45977.48
630.86	45710.66
631.01	44968.71
631.16	45443.84
631.31	45888.54
631.46	45399.37
631.61	45933.01
631.76	45652.15
631.91	45649.81
632.06	46007.91
632.21	46101.53
632.36	45687.26
632.51	45497.67
632.66	45661.51
632.81	45659.17
632.96	45708.32
633.10	44933.60
633.25	45205.11
633.40	45621.72
633.55	45687.26
633.70	45441.50
633.85	45193.40
634.00	45280.00
634.15	45038.93
634.30	45394.69
634.45	44832.96
634.60	45420.44
634.75	45729.39
634.90	45048.29
635.05	45282.34
635.19	45001.48
635.34	45134.89
635.49	44872.75
635.64	45036.59
635.79	45354.90
635.94	45010.84
636.09	45177.02
636.24	45109.14
636.39	44947.65
636.53	45284.68
636.68	44608.27
636.83	44531.03
636.98	44708.91
637.13	44580.18
637.28	44430.39
637.43	44957.01
637.57	44851.69
637.72	44587.21
637.87	44341.45
638.02	44598.91
638.17	44629.34
638.32	44519.33
638.46	44100.37
638.61	44198.68
638.76	44264.21
638.91	44481.88
639.06	44121.44
639.20	44474.86
639.35	44074.63
639.50	44011.43
639.65	44254.85
639.80	44282.94
639.94	44631.68
640.09	44610.61
640.24	44566.14
640.39	43964.62
640.54	44236.12
640.68	44177.61
640.83	44594.23
640.98	43866.32
641.13	44098.03
641.27	44814.24
641.42	43770.36
641.57	43910.79
641.72	44582.52
641.86	44271.23
642.01	43796.10
642.16	43868.66
642.31	43423.96
642.45	43842.92
642.60	43318.64
642.75	43866.32
642.90	43737.59
643.04	43573.75
643.19	43800.79
643.34	43519.92
643.48	43468.43
643.63	43353.74
643.78	43952.92
643.93	43849.94
644.07	43313.95
644.22	43835.89
644.37	43281.19
644.51	43545.67
644.66	43098.62
644.81	43430.98
644.95	43636.95
645.10	43498.86
645.25	43147.78
645.39	43349.06
645.54	42948.83
645.69	43501.20
645.83	42710.10
645.98	43107.99
646.13	42880.95
646.27	43037.77
646.42	42728.82
646.57	43262.46
646.71	43100.97
646.86	43526.94
647.00	43423.96
647.15	43089.26
647.30	42796.70
647.44	42775.63
647.59	43138.41
647.74	43044.79
647.88	43079.90
648.03	43374.81
648.17	42993.30
648.32	42904.36
648.47	43206.29
648.61	42749.88
648.76	42923.08
648.90	42586.05
649.05	42895.00
649.20	42628.18
649.34	42752.23
649.49	42667.97
649.63	42679.67
649.78	43199.27
649.92	42906.70
650.07	43250.76
650.21	43107.99
650.36	43098.62
650.51	42890.32
650.65	42925.42
650.80	42602.43
650.94	42504.13
651.09	42550.94
651.23	42082.83
651.38	42293.48
651.52	41911.97
651.67	42281.78
651.81	42433.91
651.96	42314.55
652.10	42038.36
652.25	41918.99
652.39	42075.81
652.54	42054.75
652.68	41867.50
652.83	42033.68
652.97	42579.03
653.12	42082.83
653.26	42227.95
653.41	42508.81
653.55	42181.13
653.70	42251.35
653.84	42298.16
653.99	42553.28
654.13	42122.62
654.27	41879.21
654.42	41820.69
654.56	41879.21
654.71	41963.46
654.85	41928.36
655.00	42092.19
655.14	42089.85
655.29	42087.51
655.43	42115.60
655.57	41958.78
655.72	41280.03
655.86	41233.22
656.01	41390.03
656.15	41256.62
656.30	41631.11
656.44	41546.85
656.58	41698.98
656.73	41654.51
656.87	41179.39
657.01	41322.16
657.16	41200.45
657.30	41605.36
657.45	40814.26
657.59	41088.10
657.73	40905.54
657.88	41422.80
658.02	41282.37
658.16	41411.10
658.31	40985.12
658.45	40978.10
658.60	40896.18
658.74	40950.01
658.88	41378.33
659.03	41160.66
659.17	41118.53
659.31	40535.74
659.46	40432.75
659.60	40531.06
659.74	40748.73
659.89	40346.15
660.03	40327.43
660.17	40748.73
660.32	40275.94
660.46	40421.05
660.60	40184.66
660.74	40430.41
660.89	40851.71
661.03	40245.51
661.17	39831.24
661.32	39917.84
661.46	40069.97
661.60	40161.25
661.74	40119.12
661.89	40219.77
662.03	40151.89
662.17	39955.29
662.31	40245.51
662.46	40034.86
662.60	39906.13
662.74	39543.35
662.88	39517.60
663.03	39297.59
663.17	39035.45
663.31	39311.64
663.45	39405.26
663.60	39770.38
663.74	39622.93
663.88	39494.20
664.02	39082.27
664.17	39250.78
664.31	39049.50
664.45	38749.91
664.59	38993.32
664.73	39370.15
664.88	38822.47
665.02	38770.97
665.16	38588.41
665.30	38930.13
665.44	38990.98
665.59	38471.39
665.73	38384.79
665.87	37757.52
666.01	38497.13
666.15	38686.71
666.29	38234.99
666.44	38295.85
666.58	38794.38
666.72	37986.89
666.86	37757.52
667.00	37626.45
667.14	38176.48
667.28	37724.75
667.43	37762.20
667.57	38433.94
667.71	38014.98
667.85	38469.04
667.99	38038.39
668.13	37383.04
668.27	37268.35
668.41	37734.12
668.56	37277.71
668.70	37167.71
668.84	37202.82
668.98	36842.37
669.12	37404.10
669.26	36940.68
669.40	36975.78
669.54	37024.93
669.68	37038.98
669.82	37158.34
669.96	36531.08
670.10	36343.84
670.25	36629.38
670.39	36774.50
670.53	36854.08
670.67	36526.40
670.81	36924.29
670.95	36577.89
671.09	36133.19
671.23	36091.06
671.37	36779.18
671.51	36156.60
671.65	35992.76
671.79	35744.66
671.93	35889.77
672.07	36065.31
672.21	35892.12
672.35	35473.16
672.49	35679.13
672.63	35536.35
672.77	35314.00
672.91	35555.08
673.05	35487.20
673.19	35178.25
673.33	35271.87
673.47	34974.63
673.61	34824.83
673.75	34541.63
673.89	34625.89
674.03	34801.43
674.17	34668.02
674.31	34485.45
674.45	33921.38
674.59	34536.94
674.73	34366.09
674.87	33979.90
675.01	33654.56
675.15	33766.91
675.29	33825.42
675.43	33790.31
675.56	34017.35
675.70	33757.55
675.84	33839.47
675.98	32933.68
676.12	33951.81
676.26	33919.04
676.40	33256.67
676.54	32931.34
676.68	33165.39
676.82	32598.98
676.96	33364.34
677.10	33195.82
677.23	32818.99
677.37	32767.50
677.51	32638.77
677.65	32533.45
677.79	32161.30
677.93	32708.99
678.07	32421.10
678.21	32210.45
678.34	31983.42
678.48	31744.69
678.62	31644.04
678.76	31391.26
678.90	31318.71
679.04	31630.00
679.18	32154.28
679.31	31342.11
679.45	31110.40
679.59	31070.61
679.73	31585.53
679.87	30827.20
680.00	30965.29
680.14	30579.10
680.28	30902.09
680.42	30759.32
680.56	30583.78
680.70	30089.93
680.83	29853.53
680.97	30363.77
681.11	29998.65
681.25	29748.21
681.39	29734.17
681.52	29827.79
681.66	29457.98
681.80	29252.02
681.94	29085.84
682.07	29144.35
682.21	28854.12
682.35	28896.25
682.49	29010.94
682.62	29198.18
682.76	28650.50
682.90	28828.38
683.04	28589.64
683.17	28489.00
683.31	28678.58
683.45	28224.52
683.59	28411.76
683.72	27660.45
683.86	28299.42
684.00	28105.15
684.13	27857.06
684.27	27637.05
684.41	27683.86
684.55	27733.01
684.68	27145.53
684.82	27180.64
684.96	27012.12
685.09	27136.17
685.23	27557.47
685.37	27555.13
685.50	27227.45
685.64	26867.01
685.78	26869.35
685.91	26637.64
686.05	26160.17
686.19	26188.25
686.32	26103.99
686.46	25652.27
686.60	25708.44
686.73	26108.68
686.87	25935.48
687.01	25830.15
687.14	26101.65
687.28	26003.35
687.42	25659.29
687.55	25462.69
687.69	25181.82
687.82	25200.55
687.96	25125.65
688.10	25097.56
688.23	24968.84
688.37	25132.67
688.50	25399.49
688.64	24968.84
688.78	24608.39
688.91	24596.69
689.05	24540.52
689.18	24049.00
689.32	23828.99
689.46	23936.66
689.59	23630.05
689.73	24100.50
689.86	24025.60
690.00	24034.96
690.13	23782.18
690.27	23517.70
690.41	23690.90
690.54	23180.67
690.68	23552.81
690.81	23428.76
690.95	23161.94
691.08	23126.83
691.22	22735.96
691.35	22991.08
691.49	22724.26
691.62	22911.50
691.76	22785.12
691.89	22450.42
692.03	22342.75
692.16	22204.66
692.30	22270.20
692.43	22003.38
692.57	21935.50
692.70	21827.84
692.84	21591.44
692.97	21961.25
693.11	21745.92
693.24	21467.39
693.38	21064.82
693.51	21057.80
693.65	21350.37
693.78	20919.71
693.92	20875.24
694.05	21069.50
694.19	20893.96
694.32	20622.46
694.45	21160.78
694.59	20933.75
694.72	20507.77
694.86	20592.03
694.99	20273.72
695.13	20049.03
695.26	19807.95
695.39	19927.32
695.53	20184.78
695.66	20273.72
695.80	19873.49
695.93	19681.56
696.07	19531.77
696.20	19218.14
696.33	19021.53
696.47	19089.41
696.60	19194.73
696.73	19227.50
696.87	19428.79
697.00	19176.01
697.14	18890.46
697.27	18373.21
697.40	19021.53
697.54	18665.77
697.67	18633.00
697.80	18604.92
697.94	18827.27
698.07	18427.04
698.21	18331.08
698.34	18066.60
698.47	18005.74
698.61	17654.66
698.74	17858.29
698.87	17762.33
699.01	17565.72
699.14	17963.61
699.27	17699.13
699.40	17666.36
699.54	17444.01
699.67	17626.57
699.80	17334.01
699.94	17006.33
700.07	17202.94
700.20	16849.52
700.34	16915.05
700.47	17008.67
700.60	17067.19
700.73	16833.13
700.87	16706.74
701.00	16484.39
701.13	16652.91
701.26	16475.03
701.40	16446.94
701.53	16194.17
701.66	16182.46
701.79	16004.58
701.93	16046.71
702.06	15868.83
702.19	15688.61
702.32	15653.50
702.46	15974.16
702.59	15779.89
702.72	15772.87
702.85	15672.23
702.99	15676.91
703.12	15131.56
703.25	15279.02
703.38	15145.61
703.51	15051.99
703.65	15019.22
703.78	14731.33
703.91	14810.91
704.04	15131.56
704.17	14532.39
704.31	14682.18
704.44	14548.77
704.57	14441.11
704.70	14415.36
704.83	14083.00
704.96	14305.35
705.10	14132.15
705.23	13809.16
>>>>>End Processed Spectral Data<<<<<
