SpectraSuite Data File
++++++++++++++++++++++++++++++++++++
Date: Fri Oct 25 10:47:43 EDT 2013
User: price-jones
Dark Spectrum Present: No
Reference Spectrum Present: No
Number of Sampled Component Spectra: 1
Spectrometers: USB2+H05261
Integration Time (usec): 100000 (USB2+H05261)
Spectra Averaged: 1 (USB2+H05261)
Boxcar Smoothing: 0 (USB2+H05261)
Correct for Electrical Dark: No (USB2+H05261)
Strobe/Lamp Enabled: No (USB2+H05261)
Correct for Detector Non-linearity: No (USB2+H05261)
Correct for Stray Light: No (USB2+H05261)
Number of Pixels in Processed Spectrum: 2048
>>>>>Begin Processed Spectral Data<<<<<
365.73	121.71
365.92	121.71
366.12	121.71
366.32	39.79
366.52	32.77
366.72	63.19
366.91	79.58
367.11	37.45
367.31	65.54
367.51	53.83
367.70	9.36
367.90	0.00
368.10	18.72
368.30	23.41
368.49	0.00
368.69	11.70
368.89	70.22
369.09	65.54
369.28	72.56
369.48	44.47
369.68	70.22
369.87	77.24
370.07	58.51
370.27	161.50
370.47	198.95
370.66	372.15
370.86	454.06
371.06	444.70
371.25	503.22
371.45	454.06
371.65	475.13
371.84	458.74
372.04	489.17
372.24	524.28
372.44	458.74
372.63	468.11
372.83	517.26
373.03	521.94
373.22	510.24
373.42	519.60
373.62	510.24
373.81	535.98
374.01	564.07
374.21	482.15
374.40	477.47
374.60	543.00
374.79	559.39
374.99	500.87
375.19	557.05
375.38	580.45
375.58	545.34
375.78	557.05
375.97	606.20
376.17	634.29
376.37	568.75
376.56	622.58
376.76	582.79
376.95	564.07
377.15	608.54
377.35	575.77
377.54	594.50
377.74	660.03
377.93	528.96
378.13	702.16
378.33	606.20
378.52	624.92
378.72	617.90
378.91	699.82
379.11	606.20
379.31	592.16
379.50	641.31
379.70	617.90
379.89	610.88
380.09	641.31
380.28	622.58
380.48	557.05
380.68	596.84
380.87	575.77
381.07	671.73
381.26	674.07
381.46	620.24
381.65	746.63
381.85	641.31
382.04	662.37
382.24	660.03
382.43	713.86
382.63	657.69
382.83	662.37
383.02	662.37
383.22	657.69
383.41	650.67
383.61	690.46
383.80	739.61
384.00	683.44
384.19	732.59
384.39	772.38
384.58	650.67
384.78	744.29
384.97	716.20
385.17	723.23
385.36	763.01
385.56	833.23
385.75	746.63
385.95	748.97
386.14	791.10
386.34	723.23
386.53	807.48
386.72	763.01
386.92	781.74
387.11	842.59
387.31	809.83
387.50	816.85
387.70	765.36
387.89	884.72
388.09	802.80
388.28	840.25
388.48	798.12
388.67	954.94
388.86	851.96
389.06	807.48
389.25	870.68
389.45	884.72
389.64	858.98
389.84	919.83
390.03	866.00
390.22	882.38
390.42	929.19
390.61	938.55
390.81	905.79
391.00	926.85
391.19	922.17
391.39	884.72
391.58	990.05
391.78	1006.43
391.97	1020.47
392.16	968.98
392.36	978.34
392.55	959.62
392.75	945.58
392.94	990.05
393.13	940.90
393.33	978.34
393.52	961.96
393.71	1069.62
393.91	1022.81
394.10	950.26
394.29	1013.45
394.49	997.07
394.68	1078.99
394.88	1060.26
395.07	1158.57
395.26	1102.39
395.46	1107.07
395.65	1095.37
395.84	1076.65
396.04	1200.69
396.23	1081.33
396.42	1116.44
396.62	1165.59
396.81	1116.44
397.00	1153.88
397.19	1062.60
397.39	1123.46
397.58	1228.78
397.77	1160.91
397.97	1308.36
398.16	1217.08
398.35	1322.40
398.55	1240.48
398.74	1324.74
398.93	1249.85
399.12	1336.45
399.32	1352.83
399.51	1303.68
399.70	1371.55
399.90	1259.21
400.09	1458.15
400.28	1420.71
400.47	1383.26
400.67	1458.15
400.86	1413.68
401.05	1411.34
401.24	1413.68
401.44	1441.77
401.63	1462.83
401.82	1472.20
402.01	1474.54
402.21	1572.84
402.40	1472.20
402.59	1394.96
402.78	1549.43
402.97	1561.14
403.17	1483.90
403.36	1535.39
403.55	1645.40
403.74	1682.85
403.93	1605.61
404.13	1636.03
404.32	1638.38
404.51	1661.78
404.70	1776.47
404.89	1603.27
405.09	1703.91
405.28	1797.53
405.47	1769.44
405.66	1799.87
405.85	1788.17
406.05	1703.91
406.24	1799.87
406.43	1783.49
406.62	1818.60
406.81	1778.81
407.00	1739.02
407.20	1816.26
407.39	1781.15
407.58	1799.87
407.77	1832.64
407.96	1926.26
408.15	1891.15
408.34	1994.14
408.54	1982.43
408.73	1947.33
408.92	2001.16
409.11	2026.90
409.30	2076.06
409.49	1975.41
409.68	1933.28
409.87	2005.84
410.07	2043.29
410.26	2099.46
410.45	2129.89
410.64	2078.40
410.83	2073.71
411.02	2230.53
411.21	2155.63
411.40	2256.28
411.59	2221.17
411.78	2366.28
411.98	2279.68
412.17	2373.30
412.36	2363.94
412.55	2410.75
412.74	2361.60
412.93	2520.76
413.12	2340.54
413.31	2335.85
413.50	2452.88
413.69	2478.63
413.88	2443.52
414.07	2530.12
414.26	2532.46
414.45	2703.32
414.64	2651.83
414.83	2576.93
415.02	2609.70
415.22	2628.42
415.41	2780.56
415.60	2787.58
415.79	2700.98
415.98	2799.28
416.17	2909.29
416.36	2815.66
416.55	2864.82
416.74	2906.95
416.93	3000.57
417.12	2892.90
417.31	2820.35
417.50	2974.82
417.69	3054.40
417.88	3084.83
418.07	2923.33
418.26	3194.83
418.45	3131.64
418.64	3141.00
418.83	3035.67
419.02	3194.83
419.21	3208.87
419.39	3178.45
419.58	3129.30
419.77	3021.63
419.96	3159.72
420.15	3236.96
420.34	3286.11
420.53	3241.64
420.72	3421.86
420.91	3353.99
421.10	3323.56
421.29	3400.80
421.48	3314.20
421.67	3410.16
421.86	3279.09
422.05	3269.73
422.24	3414.84
422.43	3372.71
422.61	3382.07
422.80	3475.70
422.99	3557.61
423.18	3478.04
423.37	3433.57
423.56	3468.67
423.75	3496.76
423.94	3442.93
424.13	3199.51
424.32	3332.92
424.50	3566.98
424.69	3581.02
424.88	3627.83
425.07	3449.95
425.26	3466.33
425.45	3471.01
425.64	3550.59
425.83	3559.95
426.01	3559.95
426.20	3534.21
426.39	3459.31
426.58	3557.61
426.77	3632.51
426.96	3559.95
427.15	3508.46
427.33	3616.13
427.52	3543.57
427.71	3669.96
427.90	3641.87
428.09	3634.85
428.28	3740.18
428.46	3749.54
428.65	3850.18
428.84	3819.75
429.03	3948.48
429.22	3740.18
429.40	3714.43
429.59	3871.25
429.78	3658.26
429.97	3658.26
430.16	3665.28
430.34	3728.47
430.53	3836.14
430.72	3779.97
430.91	3878.27
431.10	3864.22
431.28	4173.18
431.47	4126.36
431.66	4184.88
431.85	4095.94
432.03	4070.19
432.22	4152.11
432.41	4121.68
432.60	4049.13
432.79	4243.39
432.97	4166.15
433.16	4109.98
433.35	4182.54
433.54	4077.21
433.72	4252.75
433.91	4245.73
434.10	4227.01
434.28	4156.79
434.47	4297.22
434.66	4395.53
434.85	4500.85
435.03	4390.84
435.22	4458.72
435.41	4496.17
435.59	4489.15
435.78	4493.83
435.97	4557.02
436.16	4421.27
436.34	4561.70
436.53	4498.51
436.72	4606.17
436.90	4559.36
437.09	4650.64
437.28	4550.00
437.46	4500.85
437.65	4505.53
437.84	4807.46
438.02	4643.62
438.21	4622.56
438.40	4615.54
438.58	4753.63
438.77	4798.10
438.96	4774.69
439.14	5018.11
439.33	4805.12
439.52	4959.60
439.70	5046.20
439.89	5069.60
440.08	5137.48
440.26	4938.53
440.45	5200.67
440.63	5235.78
440.82	5383.23
441.01	5500.26
441.19	5359.83
441.38	5327.06
441.57	5334.08
441.75	5502.60
441.94	5430.04
442.12	5650.05
442.31	5533.03
442.50	5509.62
442.68	5568.13
442.87	5561.11
443.05	5762.40
443.24	5715.59
443.43	5533.03
443.61	5783.46
443.80	5830.27
443.98	5514.30
444.17	5734.31
444.35	5689.84
444.54	5795.17
444.73	5776.44
444.91	5898.15
445.10	5678.14
445.28	5636.01
445.47	5860.70
445.65	5809.21
445.84	5928.58
446.02	5837.30
446.21	5727.29
446.39	5792.83
446.58	5851.34
446.77	5816.23
446.95	5792.83
447.14	5956.66
447.32	5856.02
447.51	5900.49
447.69	5937.94
447.88	5905.17
448.06	5919.21
448.25	5778.78
448.43	6064.33
448.62	5977.73
448.80	5884.11
448.99	6069.01
449.17	6024.54
449.36	5886.45
449.54	6099.44
449.73	6251.57
449.91	6209.44
450.10	6319.45
450.28	6214.12
450.46	6263.27
450.65	6377.96
450.83	6359.24
451.02	6225.82
451.20	6399.02
451.39	6448.18
451.57	6406.05
451.76	6232.85
451.94	6483.28
452.13	6361.58
452.31	6394.34
452.49	6382.64
452.68	6567.54
452.86	6279.66
453.05	6384.98
453.23	6576.91
453.42	6569.88
453.60	6473.92
453.78	6675.21
453.97	6366.26
454.15	6668.19
454.34	6553.50
454.52	6567.54
454.70	6637.76
454.89	6616.69
455.07	6803.94
455.26	6810.96
455.44	6949.05
455.62	6918.62
455.81	6911.60
455.99	7152.68
456.17	6761.81
456.36	6918.62
456.54	7068.42
456.73	7007.56
456.91	7089.48
457.09	7187.79
457.28	7438.22
457.46	7150.34
457.64	7166.72
457.83	7080.12
458.01	7035.65
458.19	7356.30
458.38	7372.69
458.56	7220.55
458.74	7260.34
458.93	7370.35
459.11	7524.82
459.29	7332.90
459.48	7335.24
459.66	7419.50
459.84	7384.39
460.03	7564.61
460.21	7482.69
460.39	7470.99
460.57	7688.66
460.76	7648.87
460.94	7662.91
461.12	7815.05
461.31	7681.64
461.49	7653.55
461.67	7585.68
461.85	7847.82
462.04	7719.09
462.22	8266.77
462.40	7934.42
462.59	7946.12
462.77	7782.28
462.95	8032.72
463.13	8119.32
463.32	7988.25
463.50	8116.98
463.68	7943.78
463.86	8112.30
464.05	8025.70
464.23	7943.78
464.41	8070.17
464.59	7946.12
464.78	8084.21
464.96	8079.53
465.14	8060.80
465.32	8234.00
465.50	8102.93
465.69	8257.41
465.87	8262.09
466.05	8215.28
466.23	8271.45
466.41	8145.06
466.60	8327.63
466.78	8367.42
466.96	8369.76
467.14	8252.73
467.32	8315.92
467.51	8329.97
467.69	8348.69
467.87	8351.03
468.05	8554.66
468.23	8271.45
468.41	8444.65
468.60	8524.23
468.78	8627.21
468.96	8601.47
469.14	8589.77
469.32	8828.50
469.50	8402.52
469.69	8479.76
469.87	8835.52
470.05	8980.64
470.23	8938.51
470.41	8807.44
470.59	9100.00
470.77	8762.97
470.95	8931.48
471.14	9195.96
471.32	8997.02
471.50	9057.87
471.68	9132.77
471.86	9139.79
472.04	9247.46
472.22	9362.14
472.40	9231.07
472.58	9394.91
472.77	9432.36
472.95	9291.93
473.13	9715.56
473.31	9413.63
473.49	9296.61
473.67	9308.31
473.85	9729.61
474.03	9865.36
474.21	9909.83
474.39	9811.53
474.57	9888.76
474.75	9949.62
474.93	9944.94
475.12	10015.15
475.30	10150.90
475.48	9951.96
475.66	10019.83
475.84	10129.84
476.02	10384.96
476.20	10253.89
476.38	10387.30
476.56	10651.78
476.74	10675.18
476.92	10604.97
477.10	10757.10
477.28	10902.22
477.46	10738.38
477.64	11023.92
477.82	10988.82
478.00	11215.85
478.18	11524.80
478.36	11267.34
478.54	11353.94
478.72	11433.52
478.90	11803.32
479.08	11754.17
479.26	11971.84
479.44	11822.05
479.62	11985.88
479.80	12030.35
479.98	11943.75
480.16	12224.62
480.34	12121.63
480.52	12374.41
480.70	12278.45
480.88	12138.02
481.06	12531.23
481.24	12617.83
481.41	12641.23
481.59	12734.85
481.77	12868.27
481.95	12798.05
482.13	13277.86
482.31	13305.95
482.49	13366.80
482.67	13446.38
482.85	13645.32
483.03	13650.00
483.21	13540.00
483.39	13862.99
483.57	13848.95
483.74	13968.32
483.92	14291.31
484.10	14001.08
484.28	14288.97
484.46	14696.22
484.64	14787.50
484.82	14380.25
485.00	14417.70
485.18	14808.57
485.35	15286.04
485.53	14810.91
485.71	14930.28
485.89	15166.67
486.07	15349.23
486.25	15227.53
486.43	15492.01
486.61	15365.62
486.78	15623.08
486.96	15934.37
487.14	16027.99
487.32	15962.45
487.50	16535.88
487.68	16369.71
487.85	16655.25
488.03	16753.55
488.21	17020.38
488.39	16659.93
488.57	17090.59
488.75	17121.02
488.92	17296.56
489.10	17640.62
489.28	17334.01
489.46	17907.44
489.64	17612.53
489.81	18420.02
489.99	18487.89
490.17	18277.24
490.35	18487.89
490.53	18464.49
490.70	18817.91
490.88	18398.95
491.06	18876.42
491.24	18991.11
491.41	18841.31
491.59	19009.83
491.77	19227.50
491.95	19386.66
492.13	19604.33
492.30	19810.29
492.48	19709.65
492.66	19810.29
492.84	19833.70
493.01	20123.93
493.19	20053.71
493.37	20184.78
493.54	20191.80
493.72	20463.30
493.90	20622.46
494.08	21001.63
494.25	21074.18
494.43	20858.85
494.61	21221.64
494.79	21013.33
494.96	21090.57
495.14	21163.12
495.32	21549.31
495.49	21546.97
495.67	21645.27
495.85	22087.64
496.02	22097.00
496.20	22230.41
496.38	22274.88
496.55	22522.98
496.73	22497.23
496.91	22377.86
497.09	22672.77
497.26	22698.52
497.44	22995.76
497.62	22822.56
497.79	23250.88
497.97	22771.07
498.14	23445.15
498.32	23307.05
498.50	23276.63
498.67	24013.90
498.85	23599.62
499.03	23772.82
499.20	23836.02
499.38	23796.23
499.56	24191.78
499.73	24393.06
499.91	24409.45
500.08	24615.41
500.26	24306.46
500.44	24465.62
500.61	24465.62
500.79	24535.84
500.97	25029.69
501.14	24868.19
501.32	24952.45
501.49	25020.33
501.67	24915.00
501.84	24980.54
502.02	25017.99
502.20	25525.88
502.37	25619.50
502.55	25504.82
502.72	25638.23
502.90	25902.71
503.07	25607.80
503.25	25640.57
503.43	25736.53
503.60	25998.67
503.78	26258.47
503.95	25933.14
504.13	26242.09
504.30	26045.48
504.48	26448.05
504.65	26499.55
504.83	26792.11
505.01	26993.40
505.18	26836.58
505.36	26890.41
505.53	26604.87
505.71	27274.26
505.88	27173.62
506.06	27555.13
506.23	27147.87
506.41	27124.47
506.58	27311.71
506.76	27395.97
506.93	27711.94
507.11	27782.16
507.28	27711.94
507.46	27569.17
507.63	27763.43
507.81	27896.85
507.98	27913.23
508.16	28416.44
508.33	28095.79
508.50	28374.31
508.68	28322.82
508.85	28591.98
509.03	28875.19
509.20	28491.34
509.38	28533.47
509.55	28835.40
509.73	28842.42
509.90	29205.20
510.08	28790.93
510.25	28994.56
510.42	29268.40
510.60	29420.53
510.77	29507.13
510.95	29369.04
511.12	29277.76
511.30	29443.94
511.47	30026.73
511.64	29649.91
511.82	29605.44
511.99	29923.75
512.17	29752.89
512.34	29762.25
512.51	30047.80
512.69	29977.58
512.86	30251.42
513.04	30555.69
513.21	30382.49
513.38	30302.92
513.56	30040.78
513.73	30529.95
513.90	30422.28
514.08	30960.61
514.25	30710.17
514.43	31033.16
514.60	30955.93
514.77	30902.09
514.95	30859.96
515.12	31021.46
515.29	30991.03
515.47	31470.84
515.64	31578.51
515.81	31075.29
515.99	31304.67
516.16	31363.18
516.33	31435.74
516.51	31644.04
516.68	31398.29
516.85	31295.30
517.03	31929.59
517.20	31316.37
517.37	31927.25
517.54	32044.27
517.72	32123.85
517.89	31627.66
518.06	32201.09
518.24	32128.53
518.41	32189.39
518.58	32343.86
518.75	32533.45
518.93	32622.39
519.10	32547.49
519.27	32861.12
519.45	32514.72
519.62	32442.17
519.79	32837.72
519.96	32903.25
520.14	33118.58
520.31	33029.64
520.48	33233.27
520.65	32793.25
520.83	33675.63
521.00	33406.47
521.17	33338.59
521.34	33659.24
521.52	33439.23
521.69	33577.33
521.86	33591.37
522.03	33722.44
522.20	33858.19
522.38	34092.24
522.55	33876.91
522.72	33989.26
522.89	34094.58
523.07	34338.00
523.24	34260.76
523.41	34125.01
523.58	34073.52
523.75	34232.68
523.92	34656.31
524.10	34752.27
524.27	34756.96
524.44	35093.99
524.61	35040.16
524.78	34892.71
524.96	34881.00
525.13	35042.50
525.30	35269.53
525.47	35594.87
525.64	35122.08
525.81	35145.48
525.98	35557.42
526.16	34639.93
526.33	35295.28
526.50	35557.42
526.67	35208.68
526.84	35124.42
527.01	35372.52
527.18	35477.84
527.36	35793.81
527.53	35688.49
527.70	35817.22
527.87	35793.81
528.04	36070.00
528.21	35992.76
528.38	35899.14
528.55	35871.05
528.72	36133.19
528.89	36306.39
529.07	36315.75
529.24	36121.49
529.41	36790.88
529.58	35938.93
529.75	36084.04
529.92	36636.41
530.09	36533.42
530.26	36493.63
530.43	36692.58
530.60	35964.67
530.77	36587.25
530.94	37317.50
531.11	37062.38
531.28	36891.52
531.46	37060.04
531.63	37212.18
531.80	37151.32
531.97	37233.24
532.14	37249.63
532.31	37598.37
532.48	37153.66
532.65	37352.61
532.82	37317.50
532.99	37556.24
533.16	37495.38
533.33	37338.57
533.50	37663.90
533.67	37376.01
533.84	37605.39
534.01	37537.51
534.18	37415.80
534.35	38223.29
534.52	37916.68
534.69	37500.06
534.86	38380.10
535.03	37890.93
535.20	37886.25
535.37	38431.60
535.54	38721.82
535.71	38082.86
535.88	38206.90
536.05	38061.79
536.22	38574.37
536.38	38464.36
536.55	38232.65
536.72	38499.47
536.89	38309.89
537.06	38209.25
537.23	38590.75
537.40	38239.67
537.57	38630.54
537.74	38515.86
537.91	39100.99
538.08	38885.66
538.25	38518.20
538.42	38752.25
538.59	38841.19
538.75	38342.66
538.92	39051.84
539.09	39321.00
539.26	38988.64
539.43	38888.00
539.60	39119.71
539.77	39363.13
539.94	39431.01
540.11	39143.12
540.28	39136.10
540.44	38902.04
540.61	39161.84
540.78	39124.40
540.95	38969.92
541.12	39253.12
541.29	39468.45
541.46	39629.95
541.62	39746.98
541.79	39473.13
541.96	39461.43
542.13	39580.80
542.30	39728.25
542.47	39709.53
542.63	39758.68
542.80	40156.57
542.97	40411.69
543.14	40144.87
543.31	40086.36
543.48	40011.46
543.64	40870.43
543.81	40495.95
543.98	40208.06
544.15	40282.96
544.32	40442.12
544.48	40685.53
544.65	40498.29
544.82	40620.00
544.99	40081.67
545.16	40514.67
545.32	40374.24
545.49	40762.77
545.66	41062.36
545.83	40673.83
546.00	40832.99
546.16	40865.75
546.33	40528.72
546.50	40620.00
546.67	40910.22
546.83	40182.32
547.00	41167.68
547.17	40877.46
547.34	41221.52
547.50	41273.01
547.67	41301.09
547.84	41200.45
548.00	41371.31
548.17	41443.87
548.34	41757.50
548.51	41422.80
548.67	41804.31
548.84	41792.61
549.01	41448.55
549.18	41385.35
549.34	41816.01
549.51	41860.48
549.68	41755.16
549.84	41659.20
550.01	41631.11
550.18	42160.07
550.34	41626.43
550.51	41642.81
550.68	41617.07
550.84	41476.63
551.01	41993.89
551.18	41759.84
551.34	41841.76
551.51	41596.00
551.68	41881.55
551.84	42050.06
552.01	42052.41
552.18	41797.29
552.34	41581.96
552.51	41979.85
552.68	42073.47
552.84	42525.19
553.01	42653.92
553.18	42246.67
553.34	41944.74
553.51	41652.17
553.67	42010.28
553.84	42518.17
554.01	42679.67
554.17	42314.55
554.34	43187.56
554.51	42604.77
554.67	42749.88
554.84	42520.51
555.00	42501.79
555.17	42597.75
555.33	42698.39
555.50	42639.88
555.67	42672.65
555.83	42696.05
556.00	43096.28
556.16	43110.33
556.33	42969.90
556.50	42679.67
556.66	42890.32
556.83	42700.73
556.99	43353.74
557.16	43257.78
557.32	43009.68
557.49	43154.80
557.65	43042.45
557.82	42665.63
557.98	42981.60
558.15	43255.44
558.32	43234.38
558.48	43044.79
558.65	43140.75
558.81	42745.20
558.98	43206.29
559.14	43257.78
559.31	43363.11
559.47	43089.26
559.64	43798.44
559.80	43604.18
559.97	42845.85
560.13	42899.68
560.30	43363.11
560.46	43522.26
560.63	43054.15
560.79	43641.63
560.96	43232.04
561.12	43510.56
561.29	43693.12
561.45	43414.60
561.61	43175.86
561.78	43562.05
561.94	43213.31
562.11	43524.60
562.27	43150.12
562.44	43281.19
562.60	43978.67
562.77	43793.76
562.93	43793.76
563.10	44093.35
563.26	43241.40
563.42	43395.87
563.59	43655.67
563.75	43395.87
563.92	43620.56
564.08	43611.20
564.24	44076.97
564.41	43548.01
564.57	43791.42
564.74	43901.43
564.90	43908.45
565.07	44175.27
565.23	43819.51
565.39	43342.04
565.56	44215.06
565.72	44107.40
565.88	43976.33
566.05	44018.46
566.21	43533.96
566.38	43775.04
566.54	43374.81
566.70	43913.13
566.87	44500.61
567.03	44271.23
567.19	44589.55
567.36	43894.41
567.52	43665.03
567.68	43878.02
567.85	43789.08
568.01	44201.02
568.17	44135.48
568.34	44135.48
568.50	43971.64
568.66	43503.54
568.83	44018.46
568.99	43749.29
569.15	44039.52
569.32	43971.64
569.48	44329.75
569.64	44257.19
569.81	44119.10
569.97	43639.29
570.13	44135.48
570.30	43447.36
570.46	44065.27
570.62	44081.65
570.78	44320.38
570.95	44245.49
571.11	44336.77
571.27	44289.96
571.43	44151.87
571.60	44243.15
571.76	44371.88
571.92	43889.73
572.09	43981.01
572.25	44289.96
572.41	44210.38
572.57	44168.25
572.74	44744.02
572.90	44107.40
573.06	44884.45
573.22	43868.66
573.38	44130.80
573.55	44151.87
573.71	44636.36
573.87	44554.44
574.03	44112.08
574.20	44519.33
574.36	44343.79
574.52	44189.31
574.68	44296.98
574.84	44465.50
575.01	44107.40
575.17	44575.50
575.33	44617.63
575.49	44341.45
575.65	44655.08
575.82	44708.91
575.98	44502.95
576.14	44746.36
576.30	44472.52
576.46	44086.33
576.62	44676.15
576.79	44383.58
576.95	43896.75
577.11	44573.16
577.27	44170.59
577.43	44580.18
577.59	44100.37
577.75	44156.55
577.92	43882.70
578.08	44013.77
578.24	43730.57
578.40	44414.01
578.56	44229.10
578.72	44474.86
578.88	44545.08
579.04	44570.82
579.21	44484.22
579.37	44334.43
579.53	44397.62
579.69	44238.47
579.85	44828.28
580.01	44435.07
580.17	44741.68
580.33	44858.71
580.49	44793.17
580.65	44182.29
580.82	44692.53
580.98	44332.09
581.14	44032.50
581.30	44516.99
581.46	44552.10
581.62	44488.90
581.78	44339.11
581.94	44961.69
582.10	44222.08
582.26	44898.50
582.42	44435.07
582.58	44500.61
582.74	44048.88
582.90	44683.17
583.06	44807.22
583.22	44641.04
583.38	44453.79
583.54	44828.28
583.70	44582.52
583.86	44266.55
584.02	44498.26
584.18	44683.17
584.34	44985.10
584.50	44664.44
584.66	44292.30
584.82	44460.82
584.98	44734.66
585.14	44559.12
585.30	44645.72
585.46	44332.09
585.62	44418.69
585.78	44304.00
585.94	44133.14
586.10	44748.70
586.26	44495.92
586.42	45024.89
586.58	44428.05
586.74	44603.59
586.90	44294.64
587.06	44781.47
587.22	44505.29
587.38	44280.60
587.54	44825.94
587.70	44851.69
587.86	44626.99
588.02	44788.49
588.18	45045.95
588.34	44315.70
588.49	44247.83
588.65	44278.25
588.81	44299.32
588.97	44320.38
589.13	44498.26
589.29	44842.32
589.45	44751.04
589.61	44547.42
589.77	44971.05
589.93	44575.50
590.08	44758.06
590.24	44711.25
590.40	44685.51
590.56	44760.40
590.72	44839.98
590.88	44378.90
591.04	44584.86
591.20	45059.99
591.35	45350.22
591.51	45088.08
591.67	45104.46
591.83	44610.61
591.99	44861.05
592.15	44917.22
592.31	45057.65
592.46	44699.55
592.62	45134.89
592.78	45027.23
592.94	45134.89
593.10	44715.93
593.26	44800.19
593.41	44573.16
593.57	44580.18
593.73	45151.27
593.89	44828.28
594.05	44839.98
594.20	44781.47
594.36	45490.65
594.52	44624.65
594.68	44844.66
594.84	44610.61
594.99	45219.15
595.15	45088.08
595.31	44903.18
595.47	45067.02
595.62	44933.60
595.78	45270.64
595.94	45071.70
596.10	45429.80
596.25	45078.72
596.41	45001.48
596.57	44697.21
596.73	45020.20
596.88	44851.69
597.04	44657.42
597.20	44935.95
597.36	44903.18
597.51	45310.43
597.67	45104.46
597.83	44921.90
597.99	45256.60
598.14	45184.04
598.30	44905.52
598.46	44502.95
598.61	45111.49
598.77	44545.08
598.93	44786.15
599.09	44921.90
599.24	45633.42
599.40	45118.51
599.56	45272.98
599.71	45312.77
599.87	45113.83
600.03	45221.49
600.18	45088.08
600.34	45104.46
600.50	44989.78
600.65	44804.88
600.81	45055.31
600.97	45336.18
601.12	45411.07
601.28	45174.68
601.44	45446.18
601.59	45029.57
601.75	44720.62
601.91	45305.75
602.06	44449.11
602.22	45074.04
602.37	44825.94
602.53	45067.02
602.69	45050.63
602.84	45076.38
603.00	45254.26
603.16	45003.82
603.31	44655.08
603.47	45010.84
603.62	44701.89
603.78	44949.99
603.94	44748.70
604.09	44676.15
604.25	45083.40
604.40	44933.60
604.56	44800.19
604.71	45041.27
604.87	44423.37
605.03	44928.92
605.18	44816.58
605.34	45319.79
605.49	44563.80
605.65	44722.96
605.80	44835.30
605.96	45226.17
606.12	45350.22
606.27	44900.84
606.43	44886.79
606.58	44935.95
606.74	44673.81
606.89	44959.35
607.05	44825.94
607.20	44741.68
607.36	44933.60
607.51	45198.09
607.67	45244.90
607.82	45078.72
607.98	44849.35
608.13	44765.09
608.29	44278.25
608.44	44535.71
608.60	44507.63
608.75	44421.03
608.91	44676.15
609.06	44465.50
609.22	45139.57
609.37	44339.11
609.53	44645.72
609.68	44638.70
609.84	44865.73
609.99	44753.38
610.15	44753.38
610.30	44804.88
610.46	43976.33
610.61	44201.02
610.76	44444.43
610.92	44814.24
611.07	44210.38
611.23	44442.09
611.38	44346.13
611.54	44266.55
611.69	44037.18
611.84	44238.47
612.00	44495.92
612.15	44292.30
612.31	44411.67
612.46	44671.46
612.62	44327.41
612.77	44208.04
612.92	44659.76
613.08	43983.35
613.23	43910.79
613.39	44198.68
613.54	43515.24
613.69	44268.89
613.85	44247.83
614.00	44545.08
614.15	44275.91
614.31	44432.73
614.46	44299.32
614.62	43978.67
614.77	43999.73
614.92	43847.60
615.08	44044.20
615.23	44076.97
615.38	43814.83
615.54	43863.98
615.69	44044.20
615.84	43246.08
616.00	43438.00
616.15	43669.72
616.30	44051.22
616.46	43491.83
616.61	43496.52
616.76	43906.11
616.92	43466.09
617.07	43475.45
617.22	44107.40
617.37	43615.88
617.53	44013.77
617.68	43831.21
617.83	43639.29
617.99	43569.07
618.14	43381.83
618.29	43014.37
618.45	43248.42
618.60	43461.41
618.75	43674.40
618.90	43700.14
619.06	43484.81
619.21	42993.30
619.36	43704.82
619.51	43477.79
619.67	43274.16
619.82	43683.76
619.97	43430.98
620.12	43220.33
620.28	42670.31
620.43	42721.80
620.58	43136.07
620.73	42969.90
620.89	42852.87
621.04	43342.04
621.19	42885.64
621.34	42862.23
621.49	43255.44
621.65	42930.11
621.80	43157.14
621.95	43091.60
622.10	42841.17
622.25	42937.13
622.41	42595.41
622.56	42539.24
622.71	43047.13
622.86	42700.73
623.01	42906.70
623.16	43173.52
623.32	42621.16
623.47	43105.65
623.62	43033.09
623.77	42660.94
623.92	42726.48
624.07	42843.51
624.23	42602.43
624.38	42403.49
624.53	42244.33
624.68	42794.36
624.83	42637.54
624.98	42085.17
625.13	42300.50
625.29	42436.25
625.44	42677.33
625.59	42602.43
625.74	41904.95
625.89	42031.34
626.04	41729.41
626.19	42050.06
626.34	42417.53
626.49	42139.00
626.65	42454.98
626.80	42628.18
626.95	42115.60
627.10	42050.06
627.25	41673.24
627.40	42139.00
627.55	41839.42
627.70	41186.41
627.85	41399.40
628.00	41677.92
628.15	42244.33
628.30	42038.36
628.45	41951.76
628.60	41757.50
628.76	42195.18
628.91	41949.42
629.06	41654.51
629.21	41530.47
629.36	41659.20
629.51	41471.95
629.66	41656.85
629.81	41380.67
629.96	41516.42
630.11	41315.14
630.26	41638.13
630.41	41617.07
630.56	41713.03
630.71	41614.72
630.86	41518.76
631.01	41673.24
631.16	41221.52
631.31	41368.97
631.46	40744.05
631.61	41544.51
631.76	40973.42
631.91	41338.54
632.06	41179.39
632.21	41418.12
632.36	41500.04
632.51	41153.64
632.66	41083.42
632.81	40535.74
632.96	41024.91
633.10	40552.12
633.25	40741.71
633.40	40931.29
633.55	41345.56
633.70	41240.24
633.85	40919.59
634.00	41027.25
634.15	40711.28
634.30	40931.29
634.45	40669.15
634.60	40687.87
634.75	40938.31
634.90	40891.50
635.05	40947.67
635.19	40634.04
635.34	41102.15
635.49	41085.76
635.64	40315.73
635.79	40425.73
635.94	40460.84
636.09	40938.31
636.24	40191.68
636.39	40046.57
636.53	40320.41
636.68	40198.70
636.83	40311.05
636.98	40392.97
637.13	39803.15
637.28	40018.48
637.43	40275.94
637.57	40720.64
637.72	40187.00
637.87	40423.39
638.02	40470.20
638.17	39805.49
638.32	40165.93
638.46	40238.49
638.61	40395.31
638.76	39718.89
638.91	40044.23
639.06	39653.36
639.20	39744.64
639.35	39938.90
639.50	39931.88
639.65	39831.24
639.80	40105.08
639.94	40259.55
640.09	39686.12
640.24	39533.99
640.39	39782.09
640.54	39859.32
640.68	40107.42
640.83	39730.59
640.98	39129.08
641.13	39599.52
641.27	39990.39
641.42	39426.32
641.57	39543.35
641.72	39515.26
641.86	39669.74
642.01	39475.48
642.16	39679.10
642.31	38983.96
642.45	39496.54
642.60	39442.71
642.75	39227.38
642.90	38944.17
643.04	39585.48
643.19	39438.03
643.34	39653.36
643.48	39395.90
643.63	39833.58
643.78	39229.72
643.93	39215.68
644.07	38756.93
644.22	39012.05
644.37	38724.16
644.51	39021.41
644.66	39150.14
644.81	39133.76
644.95	38993.32
645.10	39143.12
645.25	39426.32
645.39	38658.63
645.54	39033.11
645.69	38885.66
645.83	38529.90
645.98	38902.04
646.13	39255.46
646.27	39388.88
646.42	38813.10
646.57	38972.26
646.71	39014.39
646.86	38885.66
647.00	38513.52
647.15	38593.09
647.30	38995.67
647.44	38717.14
647.59	38459.68
647.74	38274.78
647.88	38597.77
648.03	38398.83
648.17	38073.49
648.32	38363.72
648.47	38396.49
648.61	38103.92
648.76	38909.07
648.90	38057.11
649.05	38234.99
649.20	38602.46
649.34	38274.78
649.49	38747.57
649.63	38337.98
649.78	38497.13
649.92	37993.92
650.07	38396.49
650.21	38239.67
650.36	38061.79
650.51	38024.34
650.65	38178.82
650.80	38733.53
650.94	38387.13
651.09	38078.18
651.23	38398.83
651.38	37806.67
651.52	37769.22
651.67	38026.68
651.81	38012.64
651.96	37858.17
652.10	38092.22
652.25	37874.55
652.39	37792.63
652.54	37764.54
652.68	38267.76
652.83	37684.97
652.97	37663.90
653.12	37509.43
653.26	37806.67
653.41	37598.37
653.55	37343.25
653.70	37315.16
653.84	37268.35
653.99	37354.95
654.13	37872.21
654.27	37509.43
654.42	37361.97
654.56	37366.65
654.71	37680.28
654.85	37324.52
655.00	37163.03
655.14	37170.05
655.29	37041.32
655.43	37118.56
655.57	36720.66
655.72	36835.35
655.86	36680.88
656.01	36835.35
656.15	36786.20
656.30	37308.14
656.44	37177.07
656.58	36877.48
656.73	36598.96
656.87	36769.82
657.01	36608.32
657.16	36659.81
657.30	36802.58
657.45	36411.71
657.59	36971.10
657.73	36313.41
657.88	36999.19
658.02	36467.89
658.16	36715.98
658.31	36931.31
658.45	36484.27
658.60	36257.24
658.74	36821.31
658.88	36357.88
659.03	36383.63
659.17	36233.83
659.31	36165.96
659.46	36304.05
659.60	36226.81
659.74	35929.56
659.89	35786.79
660.03	36385.97
660.17	36081.70
660.32	36257.24
660.46	36467.89
660.60	36458.52
660.74	36196.38
660.89	35892.12
661.03	35920.20
661.17	35892.12
661.32	35747.00
661.46	36006.80
661.60	35555.08
661.74	35548.06
661.89	35587.85
662.03	35278.89
662.17	35601.89
662.31	35360.81
662.46	35421.67
662.60	35599.55
662.74	35227.40
662.88	35498.91
663.03	35419.33
663.17	35271.87
663.31	34951.22
663.45	35302.30
663.60	35337.41
663.74	34986.33
663.88	35044.84
664.02	34923.13
664.17	35325.71
664.31	34656.31
664.45	34782.70
664.59	34873.98
664.73	34745.25
664.88	34958.24
665.02	34653.97
665.16	34455.03
665.30	34845.90
665.44	34209.27
665.59	34157.78
665.73	34127.35
665.87	34141.39
666.01	34396.51
666.15	34153.10
666.29	34218.63
666.44	34307.57
666.58	34127.35
666.72	34174.16
666.86	34160.12
667.00	34160.12
667.14	33743.50
667.28	33827.76
667.43	33205.18
667.57	34036.07
667.71	33706.05
667.85	33909.68
667.99	32994.53
668.13	33352.63
668.27	33163.05
668.41	33703.71
668.56	33207.52
668.70	33254.33
668.84	33104.54
668.98	33027.30
669.12	32882.19
669.26	33528.17
669.40	32788.56
669.54	32865.80
669.68	32940.70
669.82	33020.28
669.96	32416.42
670.10	32432.80
670.25	32893.89
670.39	32844.74
670.53	32826.01
670.67	32713.67
670.81	32563.87
670.95	32552.17
671.09	32718.35
671.23	32905.59
671.37	32643.45
671.51	32608.34
671.65	32187.05
671.79	31840.65
671.93	32158.96
672.07	32170.66
672.21	31962.36
672.35	31866.39
672.49	31447.44
672.63	31693.19
672.77	31728.30
672.91	31562.12
673.05	31445.10
673.19	31075.29
673.33	31421.69
673.47	31646.38
673.61	31328.07
673.75	31325.73
673.89	30590.80
674.03	30925.50
674.17	30895.07
674.31	30752.30
674.45	30506.54
674.59	30717.19
674.73	30981.67
674.87	31044.87
675.01	30768.68
675.15	30981.67
675.29	30373.13
675.43	30539.31
675.56	30480.80
675.70	30890.39
675.84	29996.31
675.98	29376.06
676.12	29996.31
676.26	30052.48
676.40	29703.74
676.54	29481.39
676.68	29668.63
676.82	29160.73
676.96	29390.11
677.10	29022.64
677.23	29228.61
677.37	29591.39
677.51	29486.07
677.65	29013.28
677.79	28573.26
677.93	28828.38
678.07	28961.79
678.21	28779.23
678.34	28423.47
678.48	28933.70
678.62	28599.01
678.76	28556.88
678.90	28706.67
679.04	28383.68
679.18	28507.72
679.31	27817.27
679.45	27950.68
679.59	27697.90
679.73	27950.68
679.87	27758.75
680.00	27597.26
680.14	27447.46
680.28	27477.89
680.42	27309.37
680.56	27349.16
680.70	27229.79
680.83	27248.52
680.97	26766.37
681.11	27241.50
681.25	26455.08
681.39	26897.44
681.52	26607.21
681.66	26448.05
681.80	26932.54
681.94	26576.78
682.07	26897.44
682.21	26141.44
682.35	26185.91
682.49	26274.85
682.62	26017.40
682.76	25975.27
682.90	25802.07
683.04	25937.82
683.17	26019.74
683.31	25525.88
683.45	25692.06
683.59	25727.17
683.72	25472.05
683.86	25289.49
684.00	25118.63
684.13	25195.87
684.27	25352.68
684.41	25163.10
684.55	25116.29
684.68	24629.46
684.82	24641.16
684.96	24879.89
685.09	24577.97
685.23	24313.48
685.37	24065.39
685.50	24975.86
685.64	24584.99
685.78	24233.91
685.91	24271.36
686.05	23859.42
686.19	23779.84
686.32	23976.45
686.46	23498.98
686.60	23372.59
686.73	23236.84
686.87	23391.31
687.01	22930.23
687.14	22995.76
687.28	22963.00
687.42	23152.58
687.55	22953.63
687.69	22857.67
687.82	22752.35
687.96	22848.31
688.10	22745.33
688.23	22537.02
688.37	22277.22
688.50	22204.66
688.64	22120.40
688.78	22279.56
688.91	22192.96
689.05	22146.15
689.18	22153.17
689.32	21701.45
689.46	22108.70
689.59	21722.51
689.73	22157.85
689.86	21659.32
690.00	21642.93
690.13	21869.97
690.27	21371.43
690.41	21556.33
690.54	21193.55
690.68	21261.43
690.81	21137.38
690.95	20858.85
691.08	20861.19
691.22	20781.62
691.35	20938.43
691.49	20833.11
691.62	20755.87
691.76	20856.51
691.89	20671.61
692.03	20236.27
692.16	20428.20
692.30	20442.24
692.43	20166.06
692.57	20334.57
692.70	20137.97
692.84	19831.36
692.97	19927.32
693.11	19688.59
693.24	19742.42
693.38	19733.06
693.51	19246.23
693.65	19445.17
693.78	19613.69
693.92	19136.22
694.05	19201.76
694.19	19393.68
694.32	18916.21
694.45	19096.43
694.59	19070.68
694.72	19204.10
694.86	18927.91
694.99	18721.95
695.13	18944.30
695.26	18689.18
695.39	18434.06
695.53	18111.07
695.66	18515.98
695.80	18204.69
695.93	18349.80
696.07	18160.22
696.20	18127.45
696.33	17816.16
696.47	18057.23
696.60	17980.00
696.73	17961.27
696.87	17729.56
697.00	17479.12
697.14	17631.26
697.27	17493.16
697.40	17427.63
697.54	17504.87
697.67	17160.81
697.80	16961.86
697.94	17109.32
698.07	16989.95
698.21	17022.72
698.34	17032.08
698.47	17020.38
698.61	16629.51
698.74	16524.18
698.87	16711.42
699.01	16528.86
699.14	16484.39
699.27	16329.92
699.40	16484.39
699.54	15939.05
699.67	16201.19
699.80	16166.08
699.94	16140.33
700.07	15915.64
700.20	15946.07
700.34	15784.57
700.47	15817.34
700.60	15763.51
700.73	15847.77
700.87	15613.71
701.00	15669.89
701.13	15534.14
701.26	15534.14
701.40	15648.82
701.53	15302.42
701.66	15070.71
701.79	15075.39
701.93	15300.08
702.06	14902.19
702.19	14752.40
702.32	14888.15
702.46	14808.57
702.59	14621.33
702.72	14768.78
702.85	15019.22
702.99	15016.88
703.12	14909.21
703.25	14780.48
703.38	14717.29
703.51	14588.56
703.65	14270.25
703.78	14256.20
703.91	14239.82
704.04	14155.56
704.17	14085.34
704.31	13837.25
704.44	13561.06
704.57	13530.64
704.70	13661.71
704.83	13886.40
704.96	13521.27
705.10	13565.74
705.23	13788.10
>>>>>End Processed Spectral Data<<<<<
