SpectraSuite Data File
++++++++++++++++++++++++++++++++++++
Date: Fri Oct 25 11:34:18 EDT 2013
User: price-jones
Dark Spectrum Present: No
Reference Spectrum Present: No
Number of Sampled Component Spectra: 1
Spectrometers: USB2+H05261
Integration Time (usec): 100000 (USB2+H05261)
Spectra Averaged: 1 (USB2+H05261)
Boxcar Smoothing: 0 (USB2+H05261)
Correct for Electrical Dark: No (USB2+H05261)
Strobe/Lamp Enabled: No (USB2+H05261)
Correct for Detector Non-linearity: No (USB2+H05261)
Correct for Stray Light: No (USB2+H05261)
Number of Pixels in Processed Spectrum: 2048
>>>>>Begin Processed Spectral Data<<<<<
365.73	294.91
365.92	294.91
366.12	294.91
366.32	299.59
366.52	168.52
366.72	194.26
366.91	234.05
367.11	147.45
367.31	105.32
367.51	182.56
367.70	212.99
367.90	142.77
368.10	121.71
368.30	180.22
368.49	147.45
368.69	184.90
368.89	159.16
369.09	201.29
369.28	203.63
369.48	220.01
369.68	248.10
369.87	250.44
370.07	280.86
370.27	287.89
370.47	320.65
370.66	454.06
370.86	425.98
371.06	521.94
371.25	587.47
371.45	571.09
371.65	489.17
371.84	547.69
372.04	573.43
372.24	580.45
372.44	552.37
372.63	568.75
372.83	589.82
373.03	582.79
373.22	528.96
373.42	620.24
373.62	592.16
373.81	655.35
374.01	617.90
374.21	585.13
374.40	571.09
374.60	692.80
374.79	643.65
374.99	641.31
375.19	596.84
375.38	685.78
375.58	643.65
375.78	770.04
375.97	634.29
376.17	662.37
376.37	720.88
376.56	627.26
376.76	624.92
376.95	695.14
377.15	760.67
377.35	725.57
377.54	641.31
377.74	692.80
377.93	615.56
378.13	653.01
378.33	636.63
378.52	704.50
378.72	681.10
378.91	655.35
379.11	610.88
379.31	706.84
379.50	641.31
379.70	777.06
379.89	650.67
380.09	758.33
380.28	753.65
380.48	690.46
380.68	638.97
380.87	709.18
381.07	730.25
381.26	788.76
381.46	746.63
381.65	730.25
381.85	753.65
382.04	711.52
382.24	812.17
382.43	791.10
382.63	741.95
382.83	746.63
383.02	812.17
383.22	807.48
383.41	777.06
383.61	767.70
383.80	795.78
384.00	734.93
384.19	777.06
384.39	819.19
384.58	823.87
384.78	816.85
384.97	830.89
385.17	760.67
385.36	774.72
385.56	866.00
385.75	844.93
385.95	774.72
386.14	858.98
386.34	744.29
386.53	887.06
386.72	842.59
386.92	809.83
387.11	798.12
387.31	915.15
387.50	875.36
387.70	812.17
387.89	861.32
388.09	861.32
388.28	821.53
388.48	954.94
388.67	954.94
388.86	973.66
389.06	922.17
389.25	961.96
389.45	891.74
389.64	800.46
389.84	940.90
390.03	978.34
390.22	1034.52
390.42	931.53
390.61	990.05
390.81	957.28
391.00	896.43
391.19	1078.99
391.39	947.92
391.58	940.90
391.78	915.15
391.97	1015.79
392.16	1032.18
392.36	1020.47
392.55	961.96
392.75	1022.81
392.94	1022.81
393.13	985.37
393.33	1036.86
393.52	1032.18
393.71	1069.62
393.91	1086.01
394.10	1018.13
394.29	1067.28
394.49	1025.15
394.68	1076.65
394.88	1102.39
395.07	1123.46
395.26	1004.09
395.46	1153.88
395.65	1086.01
395.84	1118.78
396.04	1170.27
396.23	1170.27
396.42	1109.41
396.62	1151.54
396.81	1245.16
397.00	1125.80
397.19	1247.51
397.39	1156.22
397.58	1252.19
397.77	1172.61
397.97	1228.78
398.16	1186.65
398.35	1294.32
398.55	1247.51
398.74	1259.21
398.93	1240.48
399.12	1359.85
399.32	1249.85
399.51	1303.68
399.70	1306.02
399.90	1252.19
400.09	1291.98
400.28	1394.96
400.47	1317.72
400.67	1406.66
400.86	1322.40
401.05	1320.06
401.24	1378.58
401.44	1409.00
401.63	1364.53
401.82	1390.28
402.01	1411.34
402.21	1458.15
402.40	1416.02
402.59	1516.67
402.78	1472.20
402.97	1500.28
403.17	1530.71
403.36	1432.41
403.55	1519.01
403.74	1589.22
403.93	1540.07
404.13	1563.48
404.32	1584.54
404.51	1572.84
404.70	1547.09
404.89	1607.95
405.09	1626.67
405.28	1631.35
405.47	1722.63
405.66	1626.67
405.85	1629.01
406.05	1710.93
406.24	1661.78
406.43	1671.14
406.62	1708.59
406.81	1856.04
407.00	1750.72
407.20	1755.40
407.39	1708.59
407.58	1755.40
407.77	1724.97
407.96	1823.28
408.15	1842.00
408.34	1846.68
408.54	1799.87
408.73	1849.02
408.92	1973.07
409.11	2045.63
409.30	1900.52
409.49	1893.49
409.68	1853.70
409.87	2015.20
410.07	1952.01
410.26	2076.06
410.45	1977.75
410.64	2001.16
410.83	2085.42
411.02	2001.16
411.21	2153.29
411.40	2087.76
411.59	2157.97
411.78	2127.55
411.98	2157.97
412.17	2172.02
412.36	2319.47
412.55	2305.43
412.74	2293.72
412.93	2441.18
413.12	2143.93
413.31	2401.39
413.50	2291.38
413.69	2340.54
413.88	2415.43
414.07	2415.43
414.26	2480.97
414.45	2490.33
414.64	2368.62
414.83	2464.58
415.02	2586.29
415.22	2541.82
415.41	2478.63
415.60	2506.71
415.79	2553.52
415.98	2612.04
416.17	2677.57
416.36	2609.70
416.55	2668.21
416.74	2785.24
416.93	2839.07
417.12	2693.96
417.31	2766.51
417.50	2827.37
417.69	2972.48
417.88	2888.22
418.07	2803.96
418.26	2810.98
418.45	2860.13
418.64	3019.29
418.83	3035.67
419.02	2970.14
419.21	2951.42
419.39	3096.53
419.58	3124.62
419.77	2885.88
419.96	3143.34
420.15	3052.06
420.34	3094.19
420.53	2981.84
420.72	3190.15
420.91	3122.27
421.10	3124.62
421.29	3192.49
421.48	3176.11
421.67	3220.58
421.86	3094.19
422.05	3080.14
422.24	3124.62
422.43	3199.51
422.61	3332.92
422.80	3421.86
422.99	3290.79
423.18	3265.05
423.37	3269.73
423.56	3398.46
423.75	3335.26
423.94	3314.20
424.13	3070.78
424.32	3208.87
424.50	3318.88
424.69	3368.03
424.88	3412.50
425.07	3337.60
425.26	3288.45
425.45	3361.01
425.64	3370.37
425.83	3267.39
426.01	3466.33
426.20	3309.52
426.39	3342.28
426.58	3417.18
426.77	3365.69
426.96	3421.86
427.15	3531.87
427.33	3543.57
427.52	3389.10
427.71	3466.33
427.90	3494.42
428.09	3510.80
428.28	3550.59
428.46	3538.89
428.65	3492.08
428.84	3618.47
429.03	3822.09
429.22	3691.02
429.40	3581.02
429.59	3702.73
429.78	3478.04
429.97	3550.59
430.16	3662.94
430.34	3768.26
430.53	3805.71
430.72	3772.94
430.91	3845.50
431.10	3737.84
431.28	3786.99
431.47	3868.91
431.66	3948.48
431.85	3875.93
432.03	3852.52
432.22	4035.08
432.41	3899.33
432.60	3985.93
432.79	3957.85
432.97	3960.19
433.16	3934.44
433.35	3896.99
433.54	4021.04
433.72	3978.91
433.91	4046.79
434.10	4109.98
434.28	4049.13
434.47	4105.30
434.66	4077.21
434.85	4112.32
435.03	4224.67
435.22	4109.98
435.41	4292.54
435.59	4222.33
435.78	4266.80
435.97	4227.01
436.16	4173.18
436.34	4245.73
436.53	4276.16
436.72	4402.55
436.90	4262.12
437.09	4447.02
437.28	4383.82
437.46	4442.34
437.65	4535.96
437.84	4533.62
438.02	4306.59
438.21	4461.06
438.40	4435.32
438.58	4547.66
438.77	4491.49
438.96	4601.49
439.14	4608.51
439.33	4669.37
439.52	4882.36
439.70	4718.52
439.89	4882.36
440.08	4868.31
440.26	4875.34
440.45	4910.44
440.63	5039.17
440.82	4936.19
441.01	4903.42
441.19	5018.11
441.38	4929.17
441.57	5022.79
441.75	5125.77
441.94	5195.99
442.12	5198.33
442.31	5376.21
442.50	5315.36
442.68	5352.81
442.87	5240.46
443.05	5366.85
443.24	5376.21
443.43	5413.66
443.61	5483.88
443.80	5533.03
443.98	5266.21
444.17	5123.43
444.35	5357.49
444.54	5572.82
444.73	5448.77
444.91	5313.02
445.10	5427.70
445.28	5462.81
445.47	5390.25
445.65	5465.15
445.84	5481.53
446.02	5741.33
446.21	5472.17
446.39	5547.07
446.58	5589.20
446.77	5565.79
446.95	5308.34
447.14	5668.78
447.32	5626.65
447.51	5607.92
447.69	5495.58
447.88	5507.28
448.06	5497.92
448.25	5764.74
448.43	5717.93
448.62	5514.30
448.80	5434.72
448.99	5722.61
449.17	5743.67
449.36	5619.63
449.54	5715.59
449.73	5844.32
449.91	6001.13
450.10	5841.98
450.28	5994.11
450.46	6141.57
450.65	6066.67
450.83	5844.32
451.02	5834.96
451.20	5989.43
451.39	6036.24
451.57	6005.81
451.76	5912.19
451.94	6076.03
452.13	6211.78
452.31	6047.94
452.49	6052.63
452.68	6146.25
452.86	6108.80
453.05	6167.31
453.23	6310.08
453.42	6179.01
453.60	6033.90
453.78	6197.74
453.97	6136.88
454.15	6253.91
454.34	6239.87
454.52	6342.85
454.70	6417.75
454.89	6415.41
455.07	6399.02
455.26	6523.07
455.44	6476.26
455.62	6492.65
455.81	6394.34
455.99	6530.09
456.17	6621.38
456.36	6644.78
456.54	6633.08
456.73	6635.42
456.91	6750.10
457.09	6970.12
457.28	6853.09
457.46	6869.47
457.64	6925.65
457.83	6810.96
458.01	6534.78
458.19	7030.97
458.38	6909.26
458.56	6815.64
458.74	7052.03
458.93	7091.82
459.11	7098.84
459.29	6925.65
459.48	7009.90
459.66	7049.69
459.84	6932.67
460.03	7286.09
460.21	7194.81
460.39	7162.04
460.57	7192.47
460.76	7180.76
460.94	7255.66
461.12	7487.37
461.31	7325.88
461.49	7241.62
461.67	7206.51
461.85	7510.78
462.04	7372.69
462.22	7723.77
462.40	7475.67
462.59	7534.18
462.77	7433.54
462.95	7461.63
463.13	7466.31
463.32	7609.08
463.50	7693.34
463.68	7702.70
463.86	7658.23
464.05	7658.23
464.23	7611.42
464.41	7831.43
464.59	7424.18
464.78	7817.39
464.96	7538.87
465.14	7648.87
465.32	7892.29
465.50	7777.60
465.69	7815.05
465.87	7803.35
466.05	7707.38
466.23	8006.97
466.41	7901.65
466.60	8016.33
466.78	7978.89
466.96	8016.33
467.14	7960.16
467.32	7983.57
467.51	8168.47
467.69	7889.95
467.87	7990.59
468.05	8037.40
468.23	8241.03
468.41	7971.86
468.60	8234.00
468.78	8264.43
468.96	7941.44
469.14	8372.10
469.32	8280.82
469.50	8133.36
469.69	8512.53
469.87	8470.40
470.05	8454.02
470.23	8582.74
470.41	8545.30
470.59	8446.99
470.77	8540.61
470.95	8636.58
471.14	8816.80
471.32	8201.24
471.50	8760.63
471.68	8816.80
471.86	8879.99
472.04	8905.74
472.22	9043.83
472.40	8936.17
472.58	8865.95
472.77	9078.94
472.95	9317.67
473.13	9397.25
473.31	9158.52
473.49	9100.00
473.67	9071.92
473.85	9362.14
474.03	9341.08
474.21	9268.52
474.39	9439.38
474.57	9497.89
474.75	9647.69
474.93	9825.57
475.12	9624.28
475.30	9769.40
475.48	9640.67
475.66	9664.07
475.84	9764.72
476.02	9886.42
476.20	9839.61
476.38	9893.44
476.56	10289.00
476.74	10289.00
476.92	10279.63
477.10	10003.45
477.28	10272.61
477.46	10321.76
477.64	10509.01
477.82	10551.14
478.00	10803.91
478.18	10794.55
478.36	10925.62
478.54	11073.07
478.72	11054.35
478.90	11037.97
479.08	11211.17
479.26	11286.06
479.44	11323.51
479.62	11389.05
479.80	11143.29
479.98	11707.36
480.16	11562.25
480.34	11932.05
480.52	11779.92
480.70	11864.18
480.88	11798.64
481.06	11969.50
481.24	12133.34
481.41	12065.46
481.59	12442.29
481.77	12306.54
481.95	12573.36
482.13	12430.59
482.31	12531.23
482.49	12854.22
482.67	12833.16
482.85	13207.64
483.03	13284.88
483.21	13228.71
483.39	13350.42
483.57	13434.68
483.74	13474.46
483.92	13479.15
484.10	13771.71
484.28	13785.76
484.46	14129.81
484.64	14183.65
484.82	14090.02
485.00	14284.29
485.18	14511.32
485.35	14300.67
485.53	14611.96
485.71	14583.88
485.89	15002.83
486.07	14867.08
486.25	15028.58
486.43	15225.18
486.61	15012.20
486.78	15112.84
486.96	15403.07
487.14	15466.26
487.32	15728.40
487.50	15723.72
487.68	15784.57
487.85	16091.18
488.03	16269.06
488.21	16468.01
488.39	16568.65
488.57	16767.60
488.75	16917.39
488.92	16734.83
489.10	17186.55
489.28	16812.07
489.46	17474.44
489.64	17011.01
489.81	17521.25
489.99	17441.67
490.17	17441.67
490.35	17631.26
490.53	17862.97
490.70	18008.08
490.88	17991.70
491.06	18185.96
491.24	18146.17
491.41	18253.84
491.59	18305.33
491.77	18630.66
491.95	18883.44
492.13	18429.38
492.30	19094.09
492.48	19005.15
492.66	19234.52
492.84	19456.87
493.01	19438.15
493.19	19414.74
493.37	19634.75
493.54	19852.42
493.72	20049.03
493.90	19974.13
494.08	20189.46
494.25	20290.10
494.43	19971.79
494.61	20477.35
494.79	20587.35
494.96	20596.71
495.14	20772.25
495.32	20877.58
495.49	21172.49
495.67	20908.01
495.85	21621.87
496.02	21682.72
496.20	21537.61
496.38	21720.17
496.55	21776.34
496.73	22094.66
496.91	21752.94
497.09	22185.94
497.26	22087.64
497.44	22274.88
497.62	22340.41
497.79	22572.13
497.97	22328.71
498.14	22927.89
498.32	23040.23
498.50	22958.31
498.67	23363.23
498.85	23002.78
499.03	23543.45
499.20	23300.03
499.38	23421.74
499.56	23651.11
499.73	23435.78
499.91	23917.93
500.08	24208.16
500.26	23997.51
500.44	23751.76
500.61	24215.18
500.79	24079.43
500.97	24329.87
501.14	24489.03
501.32	24465.62
501.49	24334.55
501.67	24584.99
501.84	24793.29
502.02	24603.71
502.20	24753.51
502.37	24849.47
502.55	25064.80
502.72	24931.39
502.90	24996.92
503.07	25238.00
503.25	25252.04
503.43	25310.55
503.60	25497.80
503.78	25563.33
503.95	25324.60
504.13	25181.82
504.30	25958.88
504.48	26059.52
504.65	26167.19
504.83	26132.08
505.01	25923.77
505.18	26438.69
505.36	26586.15
505.53	26431.67
505.71	26485.50
505.88	26539.33
506.06	26459.76
506.23	26993.40
506.41	26595.51
506.58	26792.11
506.76	26581.46
506.93	27412.35
507.11	27274.26
507.28	27882.80
507.46	27346.82
507.63	27700.24
507.81	27697.90
507.98	27044.89
508.16	27271.92
508.33	27775.14
508.50	27693.22
508.68	27541.08
508.85	27861.74
509.03	27997.49
509.20	27854.72
509.38	28283.03
509.55	28271.33
509.73	28554.54
509.90	28308.78
510.08	28051.32
510.25	28680.92
510.42	28435.17
510.60	29118.60
510.77	29008.60
510.95	28989.88
511.12	29039.03
511.30	28711.35
511.47	29125.63
511.64	29139.67
511.82	29170.10
511.99	29315.21
512.17	29383.09
512.34	29132.65
512.51	29792.68
512.69	29406.49
512.86	29827.79
513.04	29984.60
513.21	30129.72
513.38	30235.04
513.56	30136.74
513.73	30094.61
513.90	30160.14
514.08	30000.99
514.25	30775.70
514.43	30242.06
514.60	30967.63
514.77	30698.47
514.95	30909.11
515.12	30518.25
515.29	30642.29
515.47	31269.56
515.64	31189.98
515.81	31342.11
515.99	31126.78
516.16	31051.89
516.33	31407.65
516.51	31424.03
516.68	30953.58
516.85	31498.93
517.03	31740.00
517.20	31524.68
517.37	31634.68
517.54	31768.09
517.72	31737.66
517.89	31981.08
518.06	31960.02
518.24	31866.39
518.41	31885.12
518.58	31744.69
518.75	32004.49
518.93	32563.87
519.10	32308.76
519.27	32081.72
519.45	32360.25
519.62	32896.23
519.79	32275.99
519.96	32666.86
520.14	32755.80
520.31	32346.20
520.48	32854.10
520.65	33163.05
520.83	33177.09
521.00	33282.42
521.17	33017.94
521.34	33280.08
521.52	33240.29
521.69	33282.42
521.86	33394.76
522.03	33748.18
522.20	34075.86
522.38	34012.66
522.55	33937.77
522.72	33727.12
522.89	33937.77
523.07	34038.41
523.24	33970.54
523.41	33916.70
523.58	33874.57
523.75	34246.72
523.92	34110.97
524.10	34370.77
524.27	34707.80
524.44	34328.64
524.61	34696.10
524.78	34588.44
524.96	34712.49
525.13	34775.68
525.30	34998.03
525.47	35253.15
525.64	34735.89
525.81	35222.72
525.98	35147.82
526.16	34955.90
526.33	35009.73
526.50	35651.04
526.67	35063.57
526.84	35007.39
527.01	35115.06
527.18	35009.73
527.36	35428.69
527.53	35644.02
527.70	35845.30
527.87	36229.15
528.04	35398.26
528.21	35847.64
528.38	36051.27
528.55	36165.96
528.72	36362.56
528.89	36112.13
529.07	36224.47
529.24	35962.33
529.41	36236.17
529.58	36336.82
529.75	36465.55
529.92	36486.61
530.09	36411.71
530.26	36535.76
530.43	36753.43
530.60	36046.59
530.77	36608.32
530.94	36519.38
531.11	36945.36
531.28	37099.83
531.46	36519.38
531.63	36886.84
531.80	36797.90
531.97	37097.49
532.14	37008.55
532.31	36973.44
532.48	36833.01
532.65	37479.00
532.82	37111.53
532.99	37226.22
533.16	36975.78
533.33	37537.51
533.50	37195.79
533.67	37689.65
533.84	37436.87
534.01	37858.17
534.18	37371.33
534.35	37785.61
534.52	37385.38
534.69	38326.27
534.86	37986.89
535.03	38047.75
535.20	38141.37
535.37	37890.93
535.54	37984.55
535.71	37879.23
535.88	38103.92
536.05	38120.31
536.22	38265.42
536.38	38408.19
536.55	38099.24
536.72	38064.13
536.89	38223.29
537.06	38375.42
537.23	38672.67
537.40	38665.65
537.57	38225.63
537.74	38637.56
537.91	38836.51
538.08	39192.27
538.25	38389.47
538.42	38408.19
538.59	39304.62
538.75	39072.90
538.92	39426.32
539.09	39690.80
539.26	38698.42
539.43	39070.56
539.60	39388.88
539.77	39026.09
539.94	39402.92
540.11	39161.84
540.28	39496.54
540.44	39669.74
540.61	39969.33
540.78	39510.58
540.95	39381.85
541.12	39180.57
541.29	39620.59
541.46	39543.35
541.62	39868.69
541.79	40170.61
541.96	39445.05
542.13	39311.64
542.30	39936.56
542.47	39728.25
542.63	39819.53
542.80	40350.84
542.97	40486.59
543.14	40477.22
543.31	40219.77
543.48	40315.73
543.64	40765.11
543.81	40542.76
543.98	40540.42
544.15	40259.55
544.32	40407.01
544.48	40823.62
544.65	41144.28
544.82	41050.66
544.99	41003.85
545.16	40680.85
545.32	40863.41
545.49	41797.29
545.66	41305.77
545.83	41338.54
546.00	41179.39
546.16	41303.43
546.33	41153.64
546.50	41155.98
546.67	41455.57
546.83	40786.18
547.00	41029.59
547.17	40957.03
547.34	41184.07
547.50	41605.36
547.67	41691.96
547.84	41572.60
548.00	42204.54
548.17	41944.74
548.34	41731.75
548.51	41961.12
548.67	41869.84
548.84	41490.68
549.01	41755.16
549.18	41656.85
549.34	41748.14
549.51	41989.21
549.68	41825.37
549.84	42080.49
550.01	42005.59
550.18	41687.28
550.34	42160.07
550.51	42241.99
550.68	42314.55
550.84	42314.55
551.01	42293.48
551.18	42342.63
551.34	42354.33
551.51	42557.96
551.68	42803.72
551.84	42340.29
552.01	42181.13
552.18	42443.27
552.34	42384.76
552.51	42689.03
552.68	42529.87
552.84	42777.97
553.01	43100.97
553.18	42576.69
553.34	42878.61
553.51	42649.24
553.67	42789.67
553.84	43065.86
554.01	43077.56
554.17	42892.66
554.34	42794.36
554.51	42876.27
554.67	43562.05
554.84	43524.60
555.00	42925.42
555.17	43344.38
555.33	43161.82
555.50	43042.45
555.67	43384.17
555.83	43405.23
556.00	43482.47
556.16	43746.95
556.33	43758.66
556.50	43849.94
556.66	43068.20
556.83	43522.26
556.99	43826.53
557.16	43845.26
557.32	43473.11
557.49	44016.11
557.65	43487.15
557.82	43587.80
557.98	43962.28
558.15	43557.37
558.32	43849.94
558.48	43821.85
558.65	43922.49
558.81	43882.70
558.98	43622.90
559.14	43475.45
559.31	43281.19
559.47	44016.11
559.64	43950.58
559.80	43519.92
559.97	44140.16
560.13	43594.82
560.30	44023.14
560.46	44285.28
560.63	44381.24
560.79	44362.51
560.96	44280.60
561.12	44296.98
561.29	44123.78
561.45	44069.95
561.61	44154.21
561.78	44495.92
561.94	44507.63
562.11	44247.83
562.27	44198.68
562.44	44500.61
562.60	44938.29
562.77	44399.96
562.93	44147.18
563.10	44968.71
563.26	44566.14
563.42	44729.98
563.59	44650.40
563.75	44399.96
563.92	44268.89
564.08	44437.41
564.24	44687.85
564.41	44755.72
564.57	44158.89
564.74	44755.72
564.90	44442.09
565.07	44687.85
565.23	44786.15
565.39	44706.57
565.56	44966.37
565.72	44914.88
565.88	44896.16
566.05	44327.41
566.21	44346.13
566.38	44657.42
566.54	44999.14
566.70	44472.52
566.87	44643.38
567.03	44875.09
567.19	45022.54
567.36	44676.15
567.52	44818.92
567.68	45338.52
567.85	44996.80
568.01	44989.78
568.17	45001.48
568.34	44938.29
568.50	44823.60
568.66	44650.40
568.83	45113.83
568.99	45254.26
569.15	45359.58
569.32	44961.69
569.48	44828.28
569.64	45366.60
569.81	45244.90
569.97	45242.56
570.13	45361.92
570.30	44889.13
570.46	44863.39
570.62	45528.10
570.78	45319.79
570.95	45418.10
571.11	45553.85
571.27	45017.86
571.43	44933.60
571.60	45394.69
571.76	45221.49
571.92	44987.44
572.09	45198.09
572.25	44816.58
572.41	44870.41
572.57	45137.23
572.74	45532.78
572.90	45310.43
573.06	45422.78
573.22	45474.27
573.38	45511.72
573.55	45743.43
573.71	45455.54
573.87	45773.86
574.03	45242.56
574.20	45851.09
574.36	45612.36
574.52	45294.05
574.68	45488.31
574.84	45923.65
575.01	46054.72
575.17	45823.01
575.33	45434.48
575.49	45600.66
575.65	45694.28
575.82	45380.65
575.98	45666.19
576.14	45677.90
576.30	45858.12
576.46	45787.90
576.62	45638.11
576.79	45612.36
576.95	44968.71
577.11	45600.66
577.27	45727.05
577.43	45523.42
577.59	45659.17
577.75	45420.44
577.92	45209.79
578.08	45532.78
578.24	45457.88
578.40	45815.99
578.56	45956.42
578.72	45801.94
578.88	45951.74
579.04	45532.78
579.21	45474.27
579.37	45893.22
579.53	45933.01
579.69	45687.26
579.85	46127.28
580.01	45848.75
580.17	45553.85
580.33	45418.10
580.49	45818.33
580.65	45757.47
580.82	45867.48
580.98	45951.74
581.14	45642.79
581.30	45937.69
581.46	45574.91
581.62	45855.78
581.78	45879.18
581.94	45528.10
582.10	45631.08
582.26	45830.03
582.42	45603.00
582.58	46110.89
582.74	45654.49
582.90	45579.59
583.06	45925.99
583.22	45759.81
583.38	45900.25
583.54	45731.73
583.70	45865.14
583.86	45986.85
584.02	45610.02
584.18	46199.83
584.34	46064.08
584.50	46131.96
584.66	45844.07
584.82	46003.23
584.98	46064.08
585.14	46225.58
585.30	45694.28
585.46	46150.68
585.62	45853.44
585.78	46192.81
585.94	45422.78
586.10	46010.25
586.26	45495.33
586.42	46120.26
586.58	45771.52
586.74	45727.05
586.90	45785.56
587.06	45806.62
587.22	46071.10
587.38	45645.13
587.54	46014.93
587.70	46351.97
587.86	46237.28
588.02	45834.71
588.18	45848.75
588.34	45841.73
588.49	46452.61
588.65	45970.46
588.81	46094.51
588.97	46003.23
589.13	45680.24
589.29	46082.81
589.45	46099.19
589.61	46443.25
589.77	46300.48
589.93	46124.94
590.08	46326.22
590.24	46094.51
590.40	46335.59
590.56	46527.51
590.72	46588.36
590.88	46223.24
591.04	46155.36
591.20	46195.15
591.35	46710.07
591.51	46841.14
591.67	46326.22
591.83	46806.03
591.99	46469.00
592.15	46593.04
592.31	46300.48
592.46	46506.44
592.62	46424.53
592.78	46234.94
592.94	47016.68
593.10	46452.61
593.26	46763.90
593.41	47016.68
593.57	46260.69
593.73	46616.45
593.89	46887.95
594.05	46808.37
594.20	46794.33
594.36	46878.59
594.52	46396.44
594.68	46649.22
594.84	46703.05
594.99	47049.45
595.15	46759.22
595.31	46539.21
595.47	47103.28
595.62	46417.50
595.78	46700.71
595.94	46703.05
596.10	46724.11
596.25	46822.42
596.41	47019.02
596.57	46806.03
596.73	47075.19
596.88	46794.33
597.04	46920.72
597.20	46691.35
597.36	46866.89
597.51	47033.07
597.67	46590.70
597.83	46438.57
597.99	46995.62
598.14	46607.09
598.30	46700.71
598.46	46770.93
598.61	47224.99
598.77	46656.24
598.93	46925.40
599.09	46595.38
599.24	47203.92
599.40	46829.44
599.56	46799.01
599.71	47437.98
599.87	47543.30
600.03	46969.87
600.18	47129.03
600.34	47082.22
600.50	46766.24
600.65	46871.57
600.81	47129.03
600.97	47136.05
601.12	47040.09
601.28	46614.11
601.44	46628.15
601.59	46944.12
601.75	46632.83
601.91	47330.31
602.06	46820.08
602.22	47180.52
602.37	46869.23
602.53	47072.85
602.69	47234.35
602.84	46958.17
603.00	46923.06
603.16	46806.03
603.31	46934.76
603.47	46958.17
603.62	46946.47
603.78	47086.90
603.94	47072.85
604.09	46864.55
604.25	46876.25
604.40	46789.65
604.56	47007.32
604.71	47119.66
604.87	46873.91
605.03	46263.03
605.18	46639.86
605.34	46866.89
605.49	46485.38
605.65	46930.08
605.80	46550.91
605.96	46389.42
606.12	46504.10
606.27	46965.19
606.43	46637.51
606.58	46892.63
606.74	46836.46
606.89	46897.31
607.05	47110.30
607.20	46880.93
607.36	46560.28
607.51	46876.25
607.67	46457.29
607.82	46740.50
607.98	46689.01
608.13	46550.91
608.29	47012.00
608.44	46471.34
608.60	46174.09
608.75	46478.36
608.91	46993.28
609.06	46265.37
609.22	46546.23
609.37	46422.19
609.53	46731.14
609.68	46916.04
609.84	46504.10
609.99	46581.34
610.15	46667.94
610.30	46513.47
610.46	46593.04
610.61	46543.89
610.76	46859.87
610.92	46377.72
611.07	45954.08
611.23	46270.05
611.38	46246.65
611.54	46508.79
611.69	46436.23
611.84	46593.04
612.00	46497.08
612.15	46138.98
612.31	46642.20
612.46	46234.94
612.62	46143.66
612.77	46190.47
612.92	46822.42
613.08	45918.97
613.23	46251.33
613.39	46248.99
613.54	45731.73
613.69	46506.44
613.85	46550.91
614.00	46291.12
614.15	46391.76
614.31	46071.10
614.46	46323.88
614.62	45860.46
614.77	46103.87
614.92	46206.86
615.08	45834.71
615.23	46197.49
615.38	46014.93
615.54	45923.65
615.69	46248.99
615.84	46457.29
616.00	46253.67
616.15	45923.65
616.30	45872.16
616.46	45572.57
616.61	46026.63
616.76	46064.08
616.92	46138.98
617.07	45961.10
617.22	45654.49
617.37	45677.90
617.53	45996.21
617.68	45827.69
617.83	45799.60
617.99	45989.19
618.14	45956.42
618.29	45476.61
618.45	45689.60
618.60	45558.53
618.75	45167.66
618.90	45343.20
619.06	45729.39
619.21	46026.63
619.36	46057.06
619.51	45387.67
619.67	45324.47
619.82	45698.96
619.97	45404.05
620.12	45495.33
620.28	45392.35
620.43	45251.92
620.58	45544.48
620.73	45455.54
620.89	45876.84
621.04	45345.54
621.19	45457.88
621.34	45272.98
621.49	45558.53
621.65	45289.37
621.80	45691.94
621.95	45062.33
622.10	45406.39
622.25	44996.80
622.41	45083.40
622.56	45603.00
622.71	45099.78
622.86	45366.60
623.01	45404.05
623.16	45291.71
623.32	45265.96
623.47	44781.47
623.62	45312.77
623.77	45287.03
623.92	45123.19
624.07	45385.33
624.23	45200.43
624.38	45382.99
624.53	44734.66
624.68	45123.19
624.83	44580.18
624.98	44926.58
625.13	44650.40
625.29	44444.43
625.44	45092.76
625.59	44465.50
625.74	44612.95
625.89	44458.48
626.04	44273.57
626.19	44245.49
626.34	44697.21
626.49	44488.90
626.65	44055.90
626.80	44414.01
626.95	44573.16
627.10	44224.42
627.25	44336.77
627.40	44488.90
627.55	44673.81
627.70	44219.74
627.85	44402.30
628.00	44533.37
628.15	44673.81
628.30	44107.40
628.45	44282.94
628.60	43524.60
628.76	44095.69
628.91	44095.69
629.06	44102.71
629.21	44051.22
629.36	43709.50
629.51	44098.03
629.66	44184.63
629.81	43913.13
629.96	44421.03
630.11	43924.83
630.26	43871.00
630.41	43711.84
630.56	43721.21
630.71	44039.52
630.86	43793.76
631.01	43590.14
631.16	43440.34
631.31	43756.32
631.46	44194.00
631.61	43847.60
631.76	44058.24
631.91	43641.63
632.06	43819.51
632.21	44053.56
632.36	44198.68
632.51	43543.33
632.66	43819.51
632.81	43688.44
632.96	43831.21
633.10	43351.40
633.25	43473.11
633.40	43342.04
633.55	43863.98
633.70	43248.42
633.85	43234.38
634.00	43222.67
634.15	43461.41
634.30	43056.50
634.45	43150.12
634.60	43295.23
634.75	43241.40
634.90	43524.60
635.05	43529.28
635.19	43126.71
635.34	43217.99
635.49	43124.37
635.64	43187.56
635.79	43243.74
635.94	43119.69
636.09	43594.82
636.24	43126.71
636.39	43096.28
636.53	43412.26
636.68	42686.69
636.83	42546.26
636.98	42923.08
637.13	42590.73
637.28	42401.14
637.43	42564.98
637.57	43103.31
637.72	42497.11
637.87	42429.23
638.02	42885.64
638.17	42581.37
638.32	42679.67
638.46	42623.50
638.61	42274.76
638.76	42438.59
638.91	42108.58
639.06	42377.74
639.20	41830.05
639.35	42337.95
639.50	42148.37
639.65	42773.29
639.80	42892.66
639.94	42401.14
640.09	42323.91
640.24	42403.49
640.39	42019.64
640.54	42124.96
640.68	42319.23
640.83	42445.62
640.98	42351.99
641.13	41996.23
641.27	42710.10
641.42	41844.10
641.57	41965.81
641.72	42424.55
641.86	42047.72
642.01	41876.86
642.16	41647.49
642.31	41942.40
642.45	41897.93
642.60	41867.50
642.75	41570.25
642.90	42258.37
643.04	41635.79
643.19	41420.46
643.34	41642.81
643.48	41652.17
643.63	41446.21
643.78	42080.49
643.93	42066.45
644.07	42038.36
644.22	41851.12
644.37	41993.89
644.51	42199.86
644.66	41710.69
644.81	41490.68
644.95	41635.79
645.10	41717.71
645.25	41698.98
645.39	41345.56
645.54	41448.55
645.69	41214.49
645.83	41432.16
645.98	41130.23
646.13	41265.99
646.27	41350.24
646.42	40931.29
646.57	41074.06
646.71	41612.38
646.86	41518.76
647.00	41123.21
647.15	41446.21
647.30	41354.93
647.44	41652.17
647.59	41298.75
647.74	41221.52
647.88	41125.55
648.03	41366.63
648.17	41481.31
648.32	41125.55
648.47	41212.15
648.61	41090.44
648.76	40797.88
648.90	40622.34
649.05	41001.50
649.20	40825.96
649.34	40903.20
649.49	40788.52
649.63	40818.94
649.78	41001.50
649.92	40727.66
650.07	41207.47
650.21	41383.01
650.36	40940.65
650.51	40893.84
650.65	40706.60
650.80	40964.06
650.94	40914.90
651.09	40701.92
651.23	40339.13
651.38	40385.94
651.52	40542.76
651.67	40215.08
651.81	40734.68
651.96	40306.37
652.10	40191.68
652.25	39875.71
652.39	40638.72
652.54	40472.54
652.68	39791.45
652.83	40210.40
652.97	40587.23
653.12	40495.95
653.26	40374.24
653.41	40392.97
653.55	40266.58
653.70	40517.01
653.84	40411.69
653.99	40659.79
654.13	40301.68
654.27	39871.03
654.42	40067.63
654.56	39807.83
654.71	40329.77
654.85	40257.21
655.00	40210.40
655.14	40308.71
655.29	40182.32
655.43	40318.07
655.57	40053.59
655.72	39873.37
655.86	39388.88
656.01	39533.99
656.15	39587.82
656.30	39550.37
656.44	39840.60
656.58	39798.47
656.73	39615.91
656.87	39302.28
657.01	39152.48
657.16	40245.51
657.30	39889.75
657.45	39658.04
657.59	39318.66
657.73	39016.73
657.88	39264.83
658.02	39374.83
658.16	39901.45
658.31	39484.84
658.45	39157.16
658.60	39035.45
658.74	39185.25
658.88	39658.04
659.03	39115.03
659.17	38831.83
659.31	38455.00
659.46	38855.23
659.60	39210.99
659.74	39260.15
659.89	38204.56
660.03	38623.52
660.17	38773.31
660.32	38667.99
660.46	38672.67
660.60	38288.82
660.74	38850.55
660.89	38462.02
661.03	38167.12
661.17	38064.13
661.32	38092.22
661.46	38698.42
661.60	37818.38
661.74	38230.31
661.89	38110.94
662.03	38263.08
662.17	38216.27
662.31	38064.13
662.46	38405.85
662.60	37441.55
662.74	37696.67
662.88	37591.34
663.03	37493.04
663.17	37331.54
663.31	37294.10
663.45	37647.52
663.60	37689.65
663.74	37612.41
663.88	37895.61
664.02	37469.64
664.17	37677.94
664.31	37415.80
664.45	37111.53
664.59	37446.23
664.73	37315.16
664.88	37282.39
665.02	36671.51
665.16	36540.44
665.30	37188.77
665.44	37017.91
665.59	37116.22
665.73	36488.95
665.87	36650.45
666.01	37064.72
666.15	36758.11
666.29	36580.23
666.44	36748.75
666.58	36629.38
666.72	36584.91
666.86	35903.82
667.00	36519.38
667.14	35992.76
667.28	35967.01
667.43	36107.44
667.57	36411.71
667.71	35967.01
667.85	36109.78
667.99	36088.72
668.13	36147.23
668.27	35852.33
668.41	35948.29
668.56	35545.72
668.70	35133.78
668.84	35175.91
668.98	35306.98
669.12	35339.75
669.26	35150.17
669.40	35337.41
669.54	35688.49
669.68	35379.54
669.82	35115.06
669.96	35189.95
670.10	35112.72
670.25	35002.71
670.39	34834.19
670.53	35002.71
670.67	34991.01
670.81	35194.64
670.95	34841.21
671.09	34396.51
671.23	34520.56
671.37	34403.53
671.51	34281.83
671.65	34656.31
671.79	34052.45
671.93	34550.99
672.07	34864.62
672.21	34611.84
672.35	34171.82
672.49	33940.11
672.63	34436.30
672.77	33858.19
672.91	33963.51
673.05	33937.77
673.19	33802.02
673.33	33537.54
673.47	33551.58
673.61	33354.97
673.75	33525.83
673.89	33010.92
674.03	32968.79
674.17	32790.91
674.31	32921.98
674.45	32608.34
674.59	32943.04
674.73	32758.14
674.87	32531.11
675.01	32673.88
675.15	32261.94
675.29	32121.51
675.43	32283.01
675.56	32603.66
675.70	32156.62
675.84	31938.95
675.98	30984.01
676.12	31810.22
676.26	32025.55
676.40	31772.77
676.54	31316.37
676.68	31503.61
676.82	31000.40
676.96	31442.76
677.10	31718.94
677.23	31452.12
677.37	31094.02
677.51	31000.40
677.65	31222.75
677.79	30670.38
677.93	30967.63
678.07	30845.92
678.21	30263.13
678.34	30017.37
678.48	30244.40
678.62	30085.25
678.76	30099.29
678.90	30031.41
679.04	30569.74
679.18	30277.17
679.31	29542.24
679.45	29301.17
679.59	29198.18
679.73	29654.59
679.87	29315.21
680.00	29156.05
680.14	29462.66
680.28	29467.34
680.42	29111.58
680.56	29200.52
680.70	28669.22
680.83	28893.91
680.97	28613.05
681.11	28865.83
681.25	28645.82
681.39	28130.90
681.52	28418.78
681.66	28063.02
681.80	27711.94
681.94	27793.86
682.07	27630.02
682.21	27714.28
682.35	27311.71
682.49	27655.77
682.62	27358.52
682.76	27489.59
682.90	27648.75
683.04	26902.12
683.17	27182.98
683.31	27040.21
683.45	27112.77
683.59	26649.34
683.72	26429.33
683.86	26883.39
684.00	26721.90
684.13	26373.16
684.27	26321.66
684.41	26316.98
684.55	26412.95
684.68	26012.71
684.82	25975.27
684.96	25876.96
685.09	26195.28
685.23	26125.06
685.37	26003.35
685.50	25961.22
685.64	25694.40
685.78	25500.14
685.91	25654.61
686.05	25214.59
686.19	24891.60
686.32	24982.88
686.46	24938.41
686.60	24559.24
686.73	25113.95
686.87	24922.02
687.01	24690.31
687.14	24498.39
687.28	24264.33
687.42	24446.90
687.55	24346.25
687.69	24032.62
687.82	24159.01
687.96	24137.94
688.10	23796.23
688.23	23873.46
688.37	24088.79
688.50	24320.51
688.64	23800.91
688.78	23611.32
688.91	23484.94
689.05	23407.70
689.18	23117.47
689.32	22843.63
689.46	22806.18
689.59	22883.42
689.73	23393.65
689.86	23035.55
690.00	23119.81
690.13	22906.82
690.27	22991.08
690.41	22757.03
690.54	22216.36
690.68	22120.40
690.81	22122.74
690.95	22115.72
691.08	21612.51
691.22	21912.10
691.35	21788.05
691.49	22045.51
691.62	21694.43
691.76	21586.76
691.89	21371.43
692.03	21261.43
692.16	21193.55
692.30	20936.09
692.43	21455.69
692.57	20615.44
692.70	20479.69
692.84	20812.04
692.97	20470.33
693.11	20491.39
693.24	20617.78
693.38	20577.99
693.51	20140.31
693.65	20011.58
693.78	19796.25
693.92	19859.45
694.05	19791.57
694.19	19702.63
694.32	19793.91
694.45	19686.25
694.59	19693.27
694.72	20063.07
694.86	19506.02
694.99	19438.15
695.13	19077.71
695.26	19091.75
695.39	19154.94
695.53	19133.88
695.66	19098.77
695.80	18796.84
695.93	18862.38
696.07	18724.29
696.20	18647.05
696.33	17940.21
696.47	18216.39
696.60	18136.81
696.73	18466.83
696.87	18424.70
697.00	18244.48
697.14	18200.01
697.27	17729.56
697.40	18010.42
697.54	17839.56
697.67	17841.90
697.80	17895.74
697.94	17591.47
698.07	17710.83
698.21	17717.86
698.34	17338.69
698.47	17249.75
698.61	16702.06
698.74	16957.18
698.87	17043.78
699.01	16690.36
699.14	16910.37
699.27	16678.66
699.40	16727.81
699.54	16390.77
699.67	16512.48
699.80	16552.27
699.94	16444.60
700.07	16484.39
700.20	16329.92
700.34	15896.92
700.47	15971.82
700.60	16486.73
700.73	15983.52
700.87	15817.34
701.00	15754.15
701.13	15428.81
701.26	15583.29
701.40	15634.78
701.53	15421.79
701.66	15594.99
701.79	15307.10
701.93	14888.15
702.06	14932.62
702.19	15059.01
702.32	15082.41
702.46	15082.41
702.59	14934.96
702.72	15145.61
702.85	14956.02
702.99	14836.66
703.12	14668.14
703.25	14527.71
703.38	14413.02
703.51	14359.19
703.65	14363.87
703.78	13940.23
703.91	14061.94
704.04	13958.96
704.17	14071.30
704.31	13916.83
704.44	14026.83
704.57	13907.46
704.70	13823.20
704.83	13654.69
704.96	13556.38
705.10	13638.30
705.23	13291.90
>>>>>End Processed Spectral Data<<<<<
