SpectraSuite Data File
++++++++++++++++++++++++++++++++++++
Date: Fri Oct 25 10:44:31 EDT 2013
User: price-jones
Dark Spectrum Present: No
Reference Spectrum Present: No
Number of Sampled Component Spectra: 1
Spectrometers: USB2+H05261
Integration Time (usec): 100000 (USB2+H05261)
Spectra Averaged: 1 (USB2+H05261)
Boxcar Smoothing: 0 (USB2+H05261)
Correct for Electrical Dark: No (USB2+H05261)
Strobe/Lamp Enabled: No (USB2+H05261)
Correct for Detector Non-linearity: No (USB2+H05261)
Correct for Stray Light: No (USB2+H05261)
Number of Pixels in Processed Spectrum: 2048
>>>>>Begin Processed Spectral Data<<<<<
365.73	100.64
365.92	100.64
366.12	100.64
366.32	67.88
366.52	51.49
366.72	23.41
366.91	11.70
367.11	0.00
367.31	21.06
367.51	0.00
367.70	0.00
367.90	25.75
368.10	49.15
368.30	70.22
368.49	16.38
368.69	107.66
368.89	39.79
369.09	11.70
369.28	32.77
369.48	51.49
369.68	56.17
369.87	70.22
370.07	51.49
370.27	114.69
370.47	177.88
370.66	421.30
370.86	421.30
371.06	404.91
371.25	477.47
371.45	425.98
371.65	440.02
371.84	447.04
372.04	425.98
372.24	465.77
372.44	444.70
372.63	489.17
372.83	435.34
373.03	535.98
373.22	500.87
373.42	528.96
373.62	493.85
373.81	451.72
374.01	552.37
374.21	524.28
374.40	517.26
374.60	500.87
374.79	594.50
374.99	580.45
375.19	617.90
375.38	643.65
375.58	524.28
375.78	587.47
375.97	538.32
376.17	650.67
376.37	587.47
376.56	526.62
376.76	545.34
376.95	507.90
377.15	655.35
377.35	596.84
377.54	638.97
377.74	582.79
377.93	587.47
378.13	669.39
378.33	655.35
378.52	613.22
378.72	634.29
378.91	517.26
379.11	568.75
379.31	543.00
379.50	629.60
379.70	596.84
379.89	622.58
380.09	688.12
380.28	634.29
380.48	688.12
380.68	622.58
380.87	636.63
381.07	662.37
381.26	699.82
381.46	669.39
381.65	690.46
381.85	720.88
382.04	692.80
382.24	711.52
382.43	678.76
382.63	678.76
382.83	624.92
383.02	760.67
383.22	702.16
383.41	669.39
383.61	732.59
383.80	737.27
384.00	711.52
384.19	685.78
384.39	755.99
384.58	758.33
384.78	798.12
384.97	809.83
385.17	713.86
385.36	688.12
385.56	842.59
385.75	748.97
385.95	833.23
386.14	702.16
386.34	793.44
386.53	767.70
386.72	765.36
386.92	919.83
387.11	908.13
387.31	746.63
387.50	863.66
387.70	849.61
387.89	828.55
388.09	748.97
388.28	823.87
388.48	856.64
388.67	805.14
388.86	816.85
389.06	840.25
389.25	908.13
389.45	1004.09
389.64	971.32
389.84	968.98
390.03	976.00
390.22	947.92
390.42	945.58
390.61	954.94
390.81	983.02
391.00	919.83
391.19	936.21
391.39	964.30
391.58	980.68
391.78	954.94
391.97	1043.88
392.16	997.07
392.36	1078.99
392.55	945.58
392.75	931.53
392.94	880.04
393.13	961.96
393.33	1029.84
393.52	938.55
393.71	1064.94
393.91	1034.52
394.10	990.05
394.29	1142.18
394.49	1081.33
394.68	1165.59
394.88	1097.71
395.07	1076.65
395.26	1109.41
395.46	1048.56
395.65	1132.82
395.84	1114.10
396.04	1137.50
396.23	1121.12
396.42	1163.25
396.62	1149.20
396.81	1146.86
397.00	1088.35
397.19	1238.14
397.39	1137.50
397.58	1249.85
397.77	1322.40
397.97	1275.59
398.16	1301.34
398.35	1334.11
398.55	1341.13
398.74	1373.89
398.93	1540.07
399.12	1404.32
399.32	1282.61
399.51	1357.51
399.70	1453.47
399.90	1418.36
400.09	1521.35
400.28	1488.58
400.47	1465.18
400.67	1521.35
400.86	1474.54
401.05	1427.73
401.24	1593.90
401.44	1497.94
401.63	1549.43
401.82	1603.27
402.01	1533.05
402.21	1614.97
402.40	1570.50
402.59	1586.88
402.78	1551.78
402.97	1542.41
403.17	1589.22
403.36	1692.21
403.55	1657.10
403.74	1687.53
403.93	1760.08
404.13	1699.23
404.32	1715.61
404.51	1797.53
404.70	1797.53
404.89	1708.59
405.09	1783.49
405.28	1755.40
405.47	1764.76
405.66	1750.72
405.85	1902.86
406.05	1806.89
406.24	1830.30
406.43	1865.41
406.62	1940.30
406.81	1975.41
407.00	1926.26
407.20	1895.83
407.39	1977.75
407.58	1898.17
407.77	1998.82
407.96	2019.88
408.15	1907.54
408.34	2118.18
408.54	2136.91
408.73	1959.03
408.92	2134.57
409.11	2202.44
409.30	2157.97
409.49	2101.80
409.68	2010.52
409.87	2078.40
410.07	2193.08
410.26	2223.51
410.45	2211.81
410.64	2228.19
410.83	2424.80
411.02	2335.85
411.21	2312.45
411.40	2263.30
411.59	2389.69
411.78	2333.51
411.98	2410.75
412.17	2424.80
412.36	2527.78
412.55	2349.90
412.74	2576.93
412.93	2366.28
413.12	2441.18
413.31	2544.16
413.50	2541.82
413.69	2623.74
413.88	2724.38
414.07	2621.40
414.26	2651.83
414.45	2796.94
414.64	2731.41
414.83	2764.17
415.02	2862.48
415.22	2836.73
415.41	2906.95
415.60	2944.39
415.79	2902.26
415.98	3035.67
416.17	2956.10
416.36	2930.35
416.55	2998.23
416.74	3026.31
416.93	3040.36
417.12	3026.31
417.31	3023.97
417.50	3105.89
417.69	3148.02
417.88	3269.73
418.07	3068.44
418.26	3110.57
418.45	3213.56
418.64	3246.32
418.83	3190.15
419.02	3370.37
419.21	3370.37
419.39	3297.81
419.58	3274.41
419.77	3262.71
419.96	3260.37
420.15	3571.66
420.34	3447.61
420.53	3419.52
420.72	3566.98
420.91	3510.80
421.10	3559.95
421.29	3536.55
421.48	3513.14
421.67	3662.94
421.86	3552.93
422.05	3478.04
422.24	3552.93
422.43	3496.76
422.61	3494.42
422.80	3721.45
422.99	3634.85
423.18	3534.21
423.37	3749.54
423.56	3751.88
423.75	3550.59
423.94	3684.00
424.13	3471.01
424.32	3616.13
424.50	3524.85
424.69	3831.46
424.88	3749.54
425.07	3585.70
425.26	3473.36
425.45	3665.28
425.64	3595.06
425.83	3599.74
426.01	3744.86
426.20	3634.85
426.39	3845.50
426.58	3634.85
426.77	3684.00
426.96	3896.99
427.15	3714.43
427.33	3815.07
427.52	3819.75
427.71	3852.52
427.90	3861.88
428.09	3836.14
428.28	3850.18
428.46	4037.42
428.65	3845.50
428.84	4046.79
429.03	4102.96
429.22	4023.38
429.40	4025.72
429.59	3929.76
429.78	3726.13
429.97	3770.60
430.16	3784.65
430.34	3885.29
430.53	3880.61
430.72	3941.46
430.91	3922.74
431.10	4065.51
431.28	4189.56
431.47	4248.07
431.66	4236.37
431.85	4093.60
432.03	4325.31
432.22	4421.27
432.41	4259.78
432.60	4383.82
432.79	4287.86
432.97	4435.32
433.16	4358.08
433.35	4154.45
433.54	4437.66
433.72	4421.27
433.91	4327.65
434.10	4470.42
434.28	4526.60
434.47	4472.76
434.66	4660.01
434.85	4566.39
435.03	4542.98
435.22	4531.28
435.41	4805.12
435.59	4727.88
435.78	4720.86
435.97	4762.99
436.16	4711.50
436.34	4589.79
436.53	4702.14
436.72	4861.29
436.90	4720.86
437.09	4772.35
437.28	4791.08
437.46	4720.86
437.65	4751.29
437.84	4891.72
438.02	4856.61
438.21	4877.68
438.40	4772.35
438.58	4985.34
438.77	5011.09
438.96	5109.39
439.14	5217.05
439.33	5219.39
439.52	5341.10
439.70	5224.08
439.89	5284.93
440.08	5116.41
440.26	5193.65
440.45	5376.21
440.63	5350.46
440.82	5621.97
441.01	5467.49
441.19	5434.72
441.38	5734.31
441.57	5701.54
441.75	5605.58
441.94	5874.74
442.12	5844.32
442.31	5750.70
442.50	5935.60
442.68	5907.51
442.87	5825.59
443.05	5947.30
443.24	6061.99
443.43	5877.09
443.61	5987.09
443.80	6146.25
443.98	5944.96
444.17	5877.09
444.35	6061.99
444.54	6305.40
444.73	5982.41
444.91	6038.58
445.10	5959.00
445.28	6164.97
445.47	5963.68
445.65	5909.85
445.84	6155.61
446.02	6221.14
446.21	6085.39
446.39	6052.63
446.58	6136.88
446.77	6312.42
446.95	6132.20
447.14	6197.74
447.32	6225.82
447.51	6216.46
447.69	6232.85
447.88	6267.95
448.06	6204.76
448.25	6256.25
448.43	6366.26
448.62	6293.70
448.80	6188.38
448.99	6509.03
449.17	6375.62
449.36	6298.38
449.54	6356.90
449.73	6569.88
449.91	6532.44
450.10	6443.49
450.28	6743.08
450.46	6623.72
450.65	6490.31
450.83	6754.79
451.02	6712.66
451.20	6745.42
451.39	6670.53
451.57	6689.25
451.76	6502.01
451.94	6537.12
452.13	6846.07
452.31	6647.12
452.49	6504.35
452.68	6658.82
452.86	6691.59
453.05	6747.76
453.23	6717.34
453.42	6576.91
453.60	6857.77
453.78	6984.16
453.97	6857.77
454.15	6810.96
454.34	6916.28
454.52	6942.03
454.70	6916.28
454.89	6993.52
455.07	6923.30
455.26	7009.90
455.44	6963.09
455.62	7129.27
455.81	7016.93
455.99	7112.89
456.17	7344.60
456.36	7180.76
456.54	7346.94
456.73	7424.18
456.91	7445.24
457.09	7473.33
457.28	7655.89
457.46	7581.00
457.64	7524.82
457.83	7503.76
458.01	7461.63
458.19	7693.34
458.38	7557.59
458.56	7716.75
458.74	7543.55
458.93	7679.30
459.11	7749.51
459.29	7714.41
459.48	7424.18
459.66	7726.11
459.84	7592.70
460.03	7826.75
460.21	7777.60
460.39	7871.22
460.57	7934.42
460.76	8056.12
460.94	8074.85
461.12	8070.17
461.31	8102.93
461.49	7918.03
461.67	7946.12
461.85	8205.92
462.04	7985.91
462.22	8336.99
462.40	8313.58
462.59	8053.78
462.77	8369.76
462.95	8198.90
463.13	8318.26
463.32	8156.77
463.50	8510.19
463.68	8496.14
463.86	8360.39
464.05	8334.65
464.23	8383.80
464.41	8533.59
464.59	8294.86
464.78	8540.61
464.96	8397.84
465.14	8404.86
465.32	8421.25
465.50	8561.68
465.69	8709.13
465.87	8578.06
466.05	8594.45
466.23	8634.24
466.41	8540.61
466.60	8667.00
466.78	8641.26
466.96	8774.67
467.14	8681.05
467.32	8659.98
467.51	8685.73
467.69	8603.81
467.87	8683.39
468.05	8912.76
468.23	8781.69
468.41	8847.22
468.60	9015.74
468.78	8985.32
468.96	8882.33
469.14	8994.68
469.32	9067.24
469.50	9004.04
469.69	8990.00
469.87	9006.38
470.05	9043.83
470.23	8933.82
470.41	9097.66
470.59	9193.62
470.77	9291.93
470.95	9303.63
471.14	9483.85
471.32	9266.18
471.50	9490.87
471.68	9657.05
471.86	9750.67
472.04	9673.43
472.22	9958.98
472.40	9455.76
472.58	9563.43
472.77	9825.57
472.95	9781.10
473.13	10317.08
473.31	9710.88
473.49	9898.13
473.67	9839.61
473.85	10174.31
474.03	10289.00
474.21	10384.96
474.39	10289.00
474.57	10420.06
474.75	10202.40
474.93	10506.66
475.12	10387.30
475.30	10626.03
475.48	10216.44
475.66	10354.53
475.84	10399.00
476.02	10684.55
476.20	10972.43
476.38	10712.63
476.56	11012.22
476.74	11091.80
476.92	10944.34
477.10	10810.93
477.28	11311.81
477.46	11232.23
477.64	11302.45
477.82	11573.95
478.00	11910.99
478.18	11763.53
478.36	11674.59
478.54	11782.26
478.72	11819.71
478.90	11864.18
479.08	12051.42
479.26	12243.34
479.44	12231.64
479.62	12184.83
479.80	12386.12
479.98	12706.77
480.16	12638.89
480.34	12648.26
480.52	12837.84
480.70	12809.75
480.88	12685.70
481.06	12966.57
481.24	13142.11
481.41	13317.65
481.59	13439.36
481.77	13619.58
481.95	13523.62
482.13	13788.10
482.31	13668.73
482.49	13860.65
482.67	13619.58
482.85	14188.33
483.03	14244.50
483.21	14305.35
483.39	14223.44
483.57	14193.01
483.74	14464.51
483.92	14700.90
484.10	14621.33
484.28	14913.89
484.46	15262.63
484.64	15377.32
484.82	15028.58
485.00	15201.78
485.18	15531.80
485.35	15644.14
485.53	15063.69
485.71	15243.91
485.89	15632.44
486.07	15524.77
486.25	15843.09
486.43	16217.57
486.61	15943.73
486.78	16442.26
486.96	16149.70
487.14	16568.65
487.32	16631.85
487.50	16669.30
487.68	16905.69
487.85	17219.32
488.03	17177.19
488.21	17741.26
488.39	17511.89
488.57	17528.27
488.75	17654.66
488.92	17982.34
489.10	18176.60
489.28	18427.04
489.46	18630.66
489.64	18471.51
489.81	18651.73
489.99	18775.78
490.17	19143.24
490.35	19316.44
490.53	18934.93
490.70	19211.12
490.88	18998.13
491.06	19491.98
491.24	19681.56
491.41	19447.51
491.59	19611.35
491.77	19910.94
491.95	19697.95
492.13	20346.28
492.30	20409.47
492.48	20533.52
492.66	20577.99
492.84	20641.18
493.01	20762.89
493.19	20414.15
493.37	20879.92
493.54	20737.15
493.72	21219.30
493.90	21085.89
494.08	21610.17
494.25	21736.56
494.43	21743.58
494.61	22155.51
494.79	22483.19
494.96	21921.46
495.14	22132.11
495.32	22188.28
495.49	22202.32
495.67	22136.79
495.85	22527.66
496.02	22754.69
496.20	22726.60
496.38	23016.83
496.55	23220.45
496.73	23337.48
496.91	23204.07
497.09	23264.92
497.26	23852.40
497.44	23749.42
497.62	23594.94
497.79	24173.05
497.97	23515.36
498.14	24336.89
498.32	23882.83
498.50	24517.11
498.67	24350.93
498.85	24486.68
499.03	24683.29
499.20	24797.98
499.38	24620.10
499.56	24959.47
499.73	25146.72
499.91	24809.68
500.08	25142.03
500.26	24847.13
500.44	25331.62
500.61	25259.06
500.79	25223.95
500.97	25277.79
501.14	25692.06
501.32	26111.02
501.49	25680.36
501.67	26160.17
501.84	25816.11
502.02	25951.86
502.20	26064.21
502.37	26129.74
502.55	26274.85
502.72	26361.45
502.90	26609.55
503.07	26471.46
503.25	26714.87
503.43	26338.05
503.60	26717.22
503.78	26773.39
503.95	26752.32
504.13	27028.51
504.30	27154.90
504.48	26955.95
504.65	27318.73
504.83	27569.17
505.01	28245.58
505.18	27395.97
505.36	27917.91
505.53	27967.06
505.71	27892.16
505.88	28102.81
506.06	28201.11
506.23	27700.24
506.41	28070.04
506.58	28053.66
506.76	28357.93
506.93	28350.91
507.11	28493.68
507.28	28126.22
507.46	28177.71
507.63	28524.11
507.81	28634.11
507.98	28641.14
508.16	28826.04
508.33	29050.73
508.50	28980.51
508.68	29186.48
508.85	29420.53
509.03	29624.16
509.20	29460.32
509.38	29563.31
509.55	29673.31
509.73	29596.07
509.90	29640.54
510.08	29652.25
510.25	30103.97
510.42	30265.47
510.60	30249.08
510.77	29888.64
510.95	30654.00
511.12	30438.67
511.30	30206.95
511.47	30593.14
511.64	30834.22
511.82	30686.76
511.99	30639.95
512.17	30906.77
512.34	30691.44
512.51	30834.22
512.69	31220.41
512.86	31243.81
513.04	31541.06
513.21	31140.83
513.38	31445.10
513.56	31431.05
513.73	31035.50
513.90	31180.62
514.08	31419.35
514.25	31157.21
514.43	31180.62
514.60	31934.27
514.77	31763.41
514.95	32065.34
515.12	31887.46
515.29	31871.07
515.47	32608.34
515.64	32180.03
515.81	32231.52
515.99	32407.06
516.16	32388.33
516.33	32088.74
516.51	32203.43
516.68	31875.76
516.85	31948.31
517.03	32453.87
517.20	32353.23
517.37	32538.13
517.54	32858.78
517.72	32355.57
517.89	32563.87
518.06	32437.48
518.24	32594.30
518.41	33097.52
518.58	32606.00
518.75	33392.42
518.93	33331.57
519.10	33071.77
519.27	33177.09
519.45	33434.55
519.62	33399.44
519.79	33544.56
519.96	33399.44
520.14	33790.31
520.31	34015.01
520.48	33905.00
520.65	33638.18
520.83	34249.06
521.00	34483.11
521.17	34050.11
521.34	34347.36
521.52	34469.07
521.69	34576.73
521.86	34630.57
522.03	35072.93
522.20	34803.77
522.38	34689.08
522.55	34902.07
522.72	34761.64
522.89	35161.87
523.07	35379.54
523.24	34906.75
523.41	35101.01
523.58	35051.86
523.75	35723.60
523.92	35548.06
524.10	35388.90
524.27	35321.02
524.44	35927.22
524.61	35730.62
524.78	35906.16
524.96	35922.54
525.13	35997.44
525.30	36329.80
525.47	36411.71
525.64	35997.44
525.81	36177.66
525.98	36098.08
526.16	35969.35
526.33	35569.12
526.50	36067.66
526.67	35620.61
526.84	35618.27
527.01	36130.85
527.18	36446.82
527.36	36304.05
527.53	36666.83
527.70	36680.88
527.87	37347.93
528.04	36561.51
528.21	36671.51
528.38	36542.78
528.55	37251.97
528.72	37050.68
528.89	37486.02
529.07	36931.31
529.24	36760.45
529.41	37067.06
529.58	37001.53
529.75	37153.66
529.92	37436.87
530.09	37322.18
530.26	37471.98
530.43	37530.49
530.60	37434.53
530.77	37553.90
530.94	37656.88
531.11	37633.47
531.28	37930.72
531.46	37755.18
531.63	38134.35
531.80	37336.23
531.97	37612.41
532.14	37942.42
532.31	37523.47
532.48	37680.28
532.65	38211.59
532.82	37846.46
532.99	38300.53
533.16	38370.74
533.33	37986.89
533.50	38583.73
533.67	38265.42
533.84	38312.23
534.01	38270.10
534.18	38483.09
534.35	38403.51
534.52	38368.40
534.69	38389.47
534.86	38815.44
535.03	38562.67
535.20	38710.12
535.37	38990.98
535.54	39501.22
535.71	39082.27
535.88	38911.41
536.05	39096.31
536.22	39377.17
536.38	39325.68
536.55	39021.41
536.72	39100.99
536.89	39321.00
537.06	39583.14
537.23	39306.96
537.40	39454.41
537.57	39470.79
537.74	39398.24
537.91	39370.15
538.08	39679.10
538.25	39454.41
538.42	39512.92
538.59	39887.41
538.75	39672.08
538.92	39927.20
539.09	40154.23
539.26	39636.97
539.43	39974.01
539.60	39906.13
539.77	39676.76
539.94	39613.57
540.11	39772.72
540.28	40313.39
540.44	40273.60
540.61	40280.62
540.78	39959.97
540.95	40294.66
541.12	39931.88
541.29	39992.73
541.46	40091.04
541.62	40364.88
541.79	40542.76
541.96	40236.15
542.13	40278.28
542.30	40554.46
542.47	40201.04
542.63	40577.87
542.80	40348.50
542.97	41015.55
543.14	41116.19
543.31	41701.32
543.48	40966.40
543.64	41766.86
543.81	41535.15
543.98	41326.84
544.15	41041.29
544.32	41364.29
544.48	41703.67
544.65	41495.36
544.82	41453.23
544.99	41572.60
545.16	41205.13
545.32	41315.14
545.49	41560.89
545.66	42174.11
545.83	41949.42
546.00	41787.92
546.16	41797.29
546.33	41401.74
546.50	41155.98
546.67	41710.69
546.83	41518.76
547.00	41963.46
547.17	41670.90
547.34	41783.24
547.50	41801.97
547.67	41886.23
547.84	42134.32
548.00	42234.97
548.17	42363.70
548.34	42323.91
548.51	42677.33
548.67	42117.94
548.84	42103.90
549.01	41944.74
549.18	42569.66
549.34	42157.73
549.51	42726.48
549.68	42686.69
549.84	42260.71
550.01	42223.26
550.18	42447.96
550.34	42361.36
550.51	42829.46
550.68	42579.03
550.84	41954.10
551.01	42543.92
551.18	42508.81
551.34	42831.80
551.51	43021.39
551.68	42572.00
551.84	43049.47
552.01	42564.98
552.18	42445.62
552.34	42452.64
552.51	42941.81
552.68	42848.19
552.84	43243.74
553.01	43426.30
553.18	43079.90
553.34	42824.78
553.51	42784.99
553.67	42766.27
553.84	43213.31
554.01	43248.42
554.17	43372.47
554.34	43264.80
554.51	42965.21
554.67	43655.67
554.84	43297.57
555.00	43112.67
555.17	43100.97
555.33	43208.63
555.50	43571.41
555.67	43688.44
555.83	43161.82
556.00	43320.98
556.16	43873.34
556.33	43175.86
556.50	43810.15
556.66	43753.97
556.83	43440.34
556.99	43700.14
557.16	43445.02
557.32	43419.28
557.49	43496.52
557.65	43257.78
557.82	43386.51
557.98	43896.75
558.15	43793.76
558.32	43892.07
558.48	43512.90
558.65	43672.06
558.81	43510.56
558.98	43782.06
559.14	43878.02
559.31	43688.44
559.47	44229.10
559.64	44161.23
559.80	43927.17
559.97	44058.24
560.13	43845.26
560.30	43578.43
560.46	43845.26
560.63	44018.46
560.79	44158.89
560.96	44430.39
561.12	43995.05
561.29	43548.01
561.45	44098.03
561.61	44016.11
561.78	44133.14
561.94	44091.01
562.11	44191.65
562.27	44051.22
562.44	43995.05
562.60	44109.74
562.77	44222.08
562.93	44076.97
563.10	44353.15
563.26	44091.01
563.42	44477.20
563.59	44268.89
563.75	44095.69
563.92	43931.86
564.08	44664.44
564.24	44449.11
564.41	44308.68
564.57	44325.07
564.74	44296.98
564.90	43863.98
565.07	44509.97
565.23	43812.49
565.39	44044.20
565.56	44442.09
565.72	44053.56
565.88	44388.26
566.05	44177.61
566.21	44252.51
566.38	44320.38
566.54	44856.37
566.70	44636.36
566.87	44783.81
567.03	44715.93
567.19	45214.47
567.36	44875.09
567.52	44725.30
567.68	44563.80
567.85	44332.09
568.01	45162.98
568.17	44343.79
568.34	44467.84
568.50	44781.47
568.66	43915.47
568.83	44790.83
568.99	44416.35
569.15	43990.37
569.32	44708.91
569.48	44163.57
569.64	44903.18
569.81	44861.05
569.97	44985.10
570.13	44718.28
570.30	44591.89
570.46	44598.91
570.62	44568.48
570.78	44704.23
570.95	44065.27
571.11	44608.27
571.27	44236.12
571.43	44938.29
571.60	44027.82
571.76	44458.48
571.92	44587.21
572.09	44488.90
572.25	44879.77
572.41	44837.64
572.57	44636.36
572.74	45523.42
572.90	44774.45
573.06	44949.99
573.22	44949.99
573.38	45085.74
573.55	44538.05
573.71	45116.17
573.87	44533.37
574.03	44528.69
574.20	44748.70
574.36	44825.94
574.52	44910.20
574.68	44889.13
574.84	45083.40
575.01	44713.59
575.17	44575.50
575.33	44465.50
575.49	44645.72
575.65	45020.20
575.82	45237.87
575.98	44959.35
576.14	45230.85
576.30	45076.38
576.46	44821.26
576.62	44898.50
576.79	44814.24
576.95	44669.12
577.11	44903.18
577.27	44945.31
577.43	44622.31
577.59	44287.62
577.75	44776.79
577.92	44582.52
578.08	44133.14
578.24	44259.53
578.40	44741.68
578.56	44856.37
578.72	44619.97
578.88	45303.41
579.04	44884.45
579.21	44842.32
579.37	44926.58
579.53	44926.58
579.69	44722.96
579.85	45209.79
580.01	45415.76
580.17	44722.96
580.33	45345.54
580.49	44849.35
580.65	45294.05
580.82	45151.27
580.98	44425.71
581.14	45010.84
581.30	45090.42
581.46	45223.83
581.62	45116.17
581.78	44964.03
581.94	45352.56
582.10	44802.53
582.26	44704.23
582.42	44928.92
582.58	45184.04
582.74	44828.28
582.90	44985.10
583.06	45153.62
583.22	45141.91
583.38	45462.57
583.54	45233.19
583.70	44814.24
583.86	45340.86
584.02	44882.11
584.18	45092.76
584.34	45263.62
584.50	44477.20
584.66	44825.94
584.82	45146.59
584.98	45038.93
585.14	45055.31
585.30	45186.38
585.46	44879.77
585.62	44126.12
585.78	44816.58
585.94	45062.33
586.10	44879.77
586.26	44830.62
586.42	45495.33
586.58	45141.91
586.74	45064.67
586.90	44776.79
587.06	45029.57
587.22	45233.19
587.38	44884.45
587.54	45174.68
587.70	45495.33
587.86	45291.71
588.02	45272.98
588.18	45556.19
588.34	45209.79
588.49	44942.97
588.65	44680.83
588.81	44315.70
588.97	45015.52
589.13	44414.01
589.29	45294.05
589.45	45595.98
589.61	45193.40
589.77	45467.25
589.93	45322.13
590.08	45088.08
590.24	45361.92
590.40	45443.84
590.56	45432.14
590.72	45460.23
590.88	44582.52
591.04	45226.17
591.20	45570.23
591.35	45481.29
591.51	45755.13
591.67	45385.33
591.83	45031.91
591.99	45366.60
592.15	45605.34
592.31	45207.45
592.46	45048.29
592.62	45179.36
592.78	45507.04
592.94	45418.10
593.10	45303.41
593.26	45385.33
593.41	45553.85
593.57	44720.62
593.73	45406.39
593.89	45258.94
594.05	44879.77
594.20	45118.51
594.36	45448.52
594.52	45181.70
594.68	45516.40
594.84	45106.80
594.99	45464.91
595.15	45354.90
595.31	45347.88
595.47	45294.05
595.62	45542.14
595.78	45373.63
595.94	45375.97
596.10	45581.93
596.25	45567.89
596.41	45560.87
596.57	45134.89
596.73	45661.51
596.88	45663.85
597.04	45209.79
597.20	45724.71
597.36	45642.79
597.51	45680.24
597.67	45542.14
597.83	45397.03
597.99	45773.86
598.14	45720.02
598.30	45830.03
598.46	45364.26
598.61	45464.91
598.77	45195.74
598.93	45308.09
599.09	45368.94
599.24	45989.19
599.40	45584.27
599.56	45972.80
599.71	45490.65
599.87	45518.74
600.03	45581.93
600.18	45511.72
600.34	45422.78
600.50	45378.31
600.65	45385.33
600.81	45853.44
600.97	45673.21
601.12	45478.95
601.28	45450.86
601.44	45427.46
601.59	45331.50
601.75	45102.12
601.91	45172.34
602.06	45280.00
602.22	45584.27
602.37	45432.14
602.53	45191.06
602.69	45193.40
602.84	45198.09
603.00	45310.43
603.16	44959.35
603.31	45233.19
603.47	45207.45
603.62	45471.93
603.78	45724.71
603.94	45652.15
604.09	45549.17
604.25	45659.17
604.40	45663.85
604.56	45223.83
604.71	45605.34
604.87	44727.64
605.03	44912.54
605.18	44940.63
605.34	45141.91
605.49	44980.42
605.65	45268.30
605.80	45357.24
605.96	45289.37
606.12	45193.40
606.27	45301.07
606.43	44875.09
606.58	44968.71
606.74	44854.03
606.89	45216.81
607.05	44746.36
607.20	45209.79
607.36	44975.73
607.51	45771.52
607.67	45680.24
607.82	45270.64
607.98	44917.22
608.13	44889.13
608.29	44755.72
608.44	45064.67
608.60	44772.11
608.75	44502.95
608.91	44854.03
609.06	44566.14
609.22	44912.54
609.37	44397.62
609.53	45294.05
609.68	45090.42
609.84	44535.71
609.99	44769.77
610.15	44306.34
610.30	44854.03
610.46	44765.09
610.61	44261.87
610.76	44584.86
610.92	44886.79
611.07	44816.58
611.23	44783.81
611.38	44914.88
611.54	44734.66
611.69	44945.31
611.84	44467.84
612.00	44477.20
612.15	44809.56
612.31	44744.02
612.46	44828.28
612.62	44601.25
612.77	44872.75
612.92	44868.07
613.08	44406.98
613.23	44844.66
613.39	44542.74
613.54	44208.04
613.69	44378.90
613.85	44282.94
614.00	44678.49
614.15	45006.16
614.31	44751.04
614.46	44851.69
614.62	44676.15
614.77	44559.12
614.92	44514.65
615.08	43887.39
615.23	43863.98
615.38	44257.19
615.54	43725.89
615.69	44065.27
615.84	43981.01
616.00	44376.56
616.15	44011.43
616.30	43997.39
616.46	44254.85
616.61	43777.38
616.76	43999.73
616.92	43426.30
617.07	44013.77
617.22	43540.99
617.37	43545.67
617.53	43992.71
617.68	44018.46
617.83	43962.28
617.99	43873.34
618.14	44112.08
618.29	44161.23
618.45	43737.59
618.60	43484.81
618.75	43665.03
618.90	44034.84
619.06	43718.87
619.21	43973.98
619.36	43716.53
619.51	43786.74
619.67	43793.76
619.82	44044.20
619.97	44025.48
620.12	44161.23
620.28	43756.32
620.43	43440.34
620.58	43196.93
620.73	43646.31
620.89	43533.96
621.04	43337.36
621.19	43632.27
621.34	43569.07
621.49	43215.65
621.65	42845.85
621.80	43414.60
621.95	43215.65
622.10	43456.73
622.25	43075.22
622.41	42515.83
622.56	43019.05
622.71	42962.87
622.86	42728.82
623.01	43049.47
623.16	43129.05
623.32	42838.83
623.47	43215.65
623.62	42728.82
623.77	43058.84
623.92	42492.43
624.07	43131.39
624.23	42494.77
624.38	42782.65
624.53	42384.76
624.68	42099.22
624.83	42246.67
624.98	42569.66
625.13	41860.48
625.29	42588.39
625.44	42447.96
625.59	42499.45
625.74	42328.59
625.89	42073.47
626.04	42106.24
626.19	42644.56
626.34	42609.45
626.49	42473.70
626.65	42279.44
626.80	42462.00
626.95	42534.56
627.10	42356.67
627.25	42366.04
627.40	41975.17
627.55	41670.90
627.70	41525.78
627.85	41825.37
628.00	41446.21
628.15	41757.50
628.30	41968.15
628.45	42185.82
628.60	42075.81
628.76	41785.58
628.91	42117.94
629.06	42106.24
629.21	41682.60
629.36	42113.26
629.51	41844.10
629.66	41928.36
629.81	41453.23
629.96	41490.68
630.11	41584.30
630.26	41647.49
630.41	42141.35
630.56	41647.49
630.71	41422.80
630.86	41411.10
631.01	41448.55
631.16	41750.48
631.31	41830.05
631.46	41060.02
631.61	41617.07
631.76	41483.66
631.91	41542.17
632.06	41698.98
632.21	41563.23
632.36	41883.89
632.51	41352.58
632.66	41504.72
632.81	41385.35
632.96	41130.23
633.10	41013.21
633.25	40863.41
633.40	41373.65
633.55	41258.96
633.70	41223.86
633.85	40636.38
634.00	41364.29
634.15	40877.46
634.30	41034.27
634.45	41291.73
634.60	40828.30
634.75	40753.41
634.90	41109.17
635.05	40751.07
635.19	40788.52
635.34	41008.53
635.49	40919.59
635.64	40781.49
635.79	40844.69
635.94	40311.05
636.09	40849.37
636.24	40795.54
636.39	40268.92
636.53	40154.23
636.68	40594.25
636.83	40325.09
636.98	40617.66
637.13	40069.97
637.28	40432.75
637.43	40680.85
637.57	40629.36
637.72	40477.22
637.87	40451.48
638.02	40460.84
638.17	40517.01
638.32	40315.73
638.46	40004.44
638.61	40411.69
638.76	39927.20
638.91	40261.90
639.06	40491.27
639.20	40254.87
639.35	39842.94
639.50	40222.11
639.65	40383.60
639.80	40353.18
639.94	40179.98
640.09	39931.88
640.24	39587.82
640.39	39648.68
640.54	39756.34
640.68	39651.02
640.83	39985.71
640.98	39435.69
641.13	39819.53
641.27	39948.26
641.42	39723.57
641.57	39660.38
641.72	39826.56
641.86	39423.98
642.01	39522.29
642.16	39501.22
642.31	39089.29
642.45	39725.91
642.60	39377.17
642.75	39669.74
642.90	39828.90
643.04	39482.50
643.19	39768.04
643.34	39651.02
643.48	39203.97
643.63	39344.41
643.78	38960.56
643.93	38785.02
644.07	39072.90
644.22	39093.97
644.37	39030.77
644.51	38831.83
644.66	38909.07
644.81	39445.05
644.95	39744.64
645.10	39115.03
645.25	39428.66
645.39	39208.65
645.54	39395.90
645.69	39105.67
645.83	38876.30
645.98	39072.90
646.13	39271.85
646.27	38778.00
646.42	39438.03
646.57	39019.07
646.71	39129.08
646.86	39533.99
647.00	38974.60
647.15	39358.45
647.30	39131.42
647.44	38705.44
647.59	38745.23
647.74	38536.92
647.88	38492.45
648.03	38799.06
648.17	38417.55
648.32	38609.48
648.47	38464.36
648.61	38124.99
648.76	38536.92
648.90	38714.80
649.05	38146.05
649.20	38464.36
649.34	38307.55
649.49	38185.84
649.63	38183.50
649.78	38459.68
649.92	38330.95
650.07	38171.80
650.21	38052.43
650.36	38005.62
650.51	38258.40
650.65	38653.95
650.80	39115.03
650.94	38480.75
651.09	38309.89
651.23	38347.34
651.38	38206.90
651.52	38359.04
651.67	38480.75
651.81	37598.37
651.96	37991.58
652.10	37982.21
652.25	37523.47
652.39	37825.40
652.54	38190.52
652.68	37937.74
652.83	37919.02
652.97	37914.34
653.12	37682.62
653.26	37708.37
653.41	37766.88
653.55	37357.29
653.70	37530.49
653.84	37818.38
653.99	37916.68
654.13	37319.84
654.27	37619.43
654.42	37380.70
654.56	37446.23
654.71	37680.28
654.85	37247.29
655.00	37713.05
655.14	37057.70
655.29	37333.89
655.43	37525.81
655.57	37027.28
655.72	37195.79
655.86	37099.83
656.01	36495.97
656.15	36961.74
656.30	37083.45
656.44	37167.71
656.58	36790.88
656.73	36741.73
656.87	36989.83
657.01	36968.76
657.16	37132.60
657.30	36814.29
657.45	36856.42
657.59	36779.18
657.73	36748.75
657.88	36994.51
658.02	37120.90
658.16	37132.60
658.31	37319.84
658.45	37046.00
658.60	36446.82
658.74	36748.75
658.88	36318.09
659.03	36718.32
659.17	36673.85
659.31	36336.82
659.46	36037.23
659.60	36680.88
659.74	35929.56
659.89	36430.44
660.03	36194.04
660.17	36290.01
660.32	35880.41
660.46	36226.81
660.60	36423.42
660.74	36123.83
660.89	36257.24
661.03	36098.08
661.17	35957.65
661.32	35421.67
661.46	35541.03
661.60	35608.91
661.74	35864.03
661.89	35646.36
662.03	35447.41
662.17	35571.46
662.31	35669.76
662.46	35646.36
662.60	35817.22
662.74	35416.99
662.88	35510.61
663.03	34946.54
663.17	35063.57
663.31	34925.47
663.45	35447.41
663.60	35070.59
663.74	35063.57
663.88	35206.34
664.02	35037.82
664.17	35108.04
664.31	34794.40
664.45	34728.87
664.59	34885.68
664.73	34745.25
664.88	35262.51
665.02	34653.97
665.16	34611.84
665.30	34763.98
665.44	34520.56
665.59	34274.80
665.73	34553.33
665.87	34326.30
666.01	34410.56
666.15	34415.24
666.29	33991.60
666.44	34361.40
666.58	34309.91
666.72	34263.10
666.86	34253.74
667.00	34054.79
667.14	33741.16
667.28	33593.71
667.43	33663.93
667.57	33944.79
667.71	33591.37
667.85	33928.41
667.99	33413.49
668.13	33394.76
668.27	33500.09
668.41	33640.52
668.56	33441.57
668.70	33497.75
668.84	33256.67
668.98	33280.08
669.12	33090.49
669.26	33186.46
669.40	33134.96
669.54	32849.42
669.68	32732.39
669.82	32669.20
669.96	32374.29
670.10	32861.12
670.25	32708.99
670.39	32659.84
670.53	32561.53
670.67	32135.56
670.81	32587.28
670.95	32683.24
671.09	32470.25
671.23	32320.46
671.37	32346.20
671.51	32301.73
671.65	31976.40
671.79	31740.00
671.93	32065.34
672.07	32294.71
672.21	32135.56
672.35	31580.85
672.49	31941.29
672.63	32020.87
672.77	31545.74
672.91	31459.14
673.05	31438.08
673.19	31978.74
673.33	31143.17
673.47	31419.35
673.61	30958.27
673.75	31199.34
673.89	31241.47
674.03	30705.49
674.17	30848.26
674.31	30824.86
674.45	31040.18
674.59	30771.02
674.73	30773.36
674.87	30735.92
675.01	30759.32
675.15	30527.61
675.29	30267.81
675.43	30628.25
675.56	30459.73
675.70	30110.99
675.84	30452.71
675.98	29254.36
676.12	29921.41
676.26	30265.47
676.40	29853.53
676.54	30003.33
676.68	29912.05
676.82	29582.03
676.96	29858.21
677.10	29841.83
677.23	29467.34
677.37	29469.69
677.51	29043.71
677.65	29156.05
677.79	28664.54
677.93	28643.48
678.07	29106.90
678.21	28561.56
678.34	28320.48
678.48	28222.18
678.62	28261.97
678.76	27946.00
678.90	28027.92
679.04	27768.12
679.18	27976.42
679.31	27950.68
679.45	27641.73
679.59	27367.88
679.73	27618.32
679.87	27683.86
680.00	27407.67
680.14	27627.68
680.28	27215.75
680.42	27260.22
680.56	27257.88
680.70	27360.86
680.83	27363.20
680.97	27353.84
681.11	27473.21
681.25	26597.85
681.39	26803.82
681.52	27105.74
681.66	26478.48
681.80	26476.14
681.94	26637.64
682.07	26398.90
682.21	26452.73
682.35	26478.48
682.49	26307.62
682.62	26305.28
682.76	26103.99
682.90	25963.56
683.04	25750.57
683.17	25738.87
683.31	25511.84
683.45	25308.21
683.59	25635.89
683.72	25090.54
683.86	25329.28
684.00	25102.25
684.13	25172.46
684.27	25415.88
684.41	24910.32
684.55	24826.06
684.68	24959.47
684.82	24580.31
684.96	24687.97
685.09	24570.94
685.23	24439.87
685.37	24584.99
685.50	24430.51
685.64	24381.36
685.78	24390.72
685.91	24189.44
686.05	24006.87
686.19	23283.65
686.32	24025.60
686.46	23438.12
686.60	23372.59
686.73	23770.48
686.87	23215.77
687.01	22958.31
687.14	23138.54
687.28	23410.04
687.42	22867.03
687.55	22979.38
687.69	22801.50
687.82	23285.99
687.96	23007.47
688.10	22698.52
688.23	22408.29
688.37	22153.17
688.50	22352.12
688.64	22352.12
688.78	22429.35
688.91	22230.41
689.05	22214.02
689.18	22155.51
689.32	21776.34
689.46	22073.59
689.59	21717.83
689.73	22054.87
689.86	21546.97
690.00	21652.30
690.13	21818.47
690.27	21420.58
690.41	21397.18
690.54	21008.65
690.68	20882.26
690.81	21057.80
690.95	21212.28
691.08	20861.19
691.22	20898.64
691.35	20744.17
691.49	20847.15
691.62	21067.16
691.76	20751.19
691.89	20641.18
692.03	20472.67
692.16	20208.19
692.30	20130.95
692.43	19908.60
692.57	19908.60
692.70	20004.56
692.84	19688.59
692.97	19779.87
693.11	19875.83
693.24	19711.99
693.38	19524.75
693.51	19438.15
693.65	19501.34
693.78	19520.07
693.92	19534.11
694.05	19349.21
694.19	19105.79
694.32	19367.93
694.45	18909.19
694.59	18803.86
694.72	18499.59
694.86	18764.07
694.99	18607.26
695.13	18352.14
695.26	18424.70
695.39	18581.51
695.53	18625.98
695.66	18305.33
695.80	18375.55
695.93	18401.29
696.07	18118.09
696.20	18164.90
696.33	17703.81
696.47	18094.68
696.60	17848.93
696.73	17563.38
696.87	17795.09
697.00	17713.17
697.14	17521.25
697.27	17469.76
697.40	17455.72
697.54	17521.25
697.67	17282.52
697.80	16975.91
697.94	17245.07
698.07	16950.16
698.21	16662.27
698.34	16872.92
698.47	16964.20
698.61	16285.45
698.74	16407.16
698.87	16578.01
699.01	15805.64
699.14	16327.58
699.27	16430.56
699.40	16149.70
699.54	16126.29
699.67	16063.10
699.80	16063.10
699.94	16093.52
700.07	15810.32
700.20	15826.70
700.34	15716.70
700.47	15620.74
700.60	15983.52
700.73	16020.97
700.87	15510.73
701.00	15557.54
701.13	15606.69
701.26	15569.24
701.40	15428.81
701.53	15194.76
701.66	15454.56
701.79	14780.48
701.93	14937.30
702.06	14810.91
702.19	15019.22
702.32	15026.24
702.46	14705.59
702.59	14576.86
702.72	14785.16
702.85	14588.56
702.99	14686.86
703.12	14239.82
703.25	14207.05
703.38	14347.48
703.51	14141.52
703.65	14078.32
703.78	13958.96
703.91	14216.41
704.04	14153.22
704.17	14003.43
704.31	13984.70
704.44	13619.58
704.57	14026.83
704.70	13654.69
704.83	13460.42
704.96	13600.85
705.10	13736.60
705.23	13848.95
>>>>>End Processed Spectral Data<<<<<
