SpectraSuite Data File
++++++++++++++++++++++++++++++++++++
Date: Fri Oct 25 10:44:09 EDT 2013
User: price-jones
Dark Spectrum Present: No
Reference Spectrum Present: No
Number of Sampled Component Spectra: 1
Spectrometers: USB2+H05261
Integration Time (usec): 100000 (USB2+H05261)
Spectra Averaged: 1 (USB2+H05261)
Boxcar Smoothing: 0 (USB2+H05261)
Correct for Electrical Dark: No (USB2+H05261)
Strobe/Lamp Enabled: No (USB2+H05261)
Correct for Detector Non-linearity: No (USB2+H05261)
Correct for Stray Light: No (USB2+H05261)
Number of Pixels in Processed Spectrum: 2048
>>>>>Begin Processed Spectral Data<<<<<
365.73	208.31
365.92	208.31
366.12	208.31
366.32	18.72
366.52	88.94
366.72	42.13
366.91	2.34
367.11	0.00
367.31	56.17
367.51	77.24
367.70	102.98
367.90	25.75
368.10	0.00
368.30	11.70
368.49	0.00
368.69	44.47
368.89	9.36
369.09	37.45
369.28	37.45
369.48	102.98
369.68	95.96
369.87	53.83
370.07	67.88
370.27	133.41
370.47	210.65
370.66	374.49
370.86	416.62
371.06	489.17
371.25	435.34
371.45	463.43
371.65	442.36
371.84	456.40
372.04	454.06
372.24	505.56
372.44	491.51
372.63	503.22
372.83	547.69
373.03	491.51
373.22	505.56
373.42	510.24
373.62	477.47
373.81	582.79
374.01	559.39
374.21	547.69
374.40	540.66
374.60	596.84
374.79	613.22
374.99	613.22
375.19	599.18
375.38	608.54
375.58	540.66
375.78	643.65
375.97	622.58
376.17	592.16
376.37	552.37
376.56	580.45
376.76	580.45
376.95	566.41
377.15	664.71
377.35	746.63
377.54	676.41
377.74	620.24
377.93	645.99
378.13	608.54
378.33	697.48
378.52	662.37
378.72	643.65
378.91	620.24
379.11	648.33
379.31	692.80
379.50	617.90
379.70	627.26
379.89	669.39
380.09	713.86
380.28	624.92
380.48	664.71
380.68	678.76
380.87	709.18
381.07	697.48
381.26	802.80
381.46	753.65
381.65	713.86
381.85	734.93
382.04	692.80
382.24	678.76
382.43	737.27
382.63	692.80
382.83	734.93
383.02	781.74
383.22	723.23
383.41	695.14
383.61	716.20
383.80	751.31
384.00	748.97
384.19	772.38
384.39	723.23
384.58	751.31
384.78	812.17
384.97	777.06
385.17	819.19
385.36	779.40
385.56	711.52
385.75	774.72
385.95	767.70
386.14	875.36
386.34	880.04
386.53	821.53
386.72	753.65
386.92	833.23
387.11	861.32
387.31	858.98
387.50	840.25
387.70	870.68
387.89	837.91
388.09	891.74
388.28	870.68
388.48	950.26
388.67	903.45
388.86	971.32
389.06	1006.43
389.25	992.39
389.45	976.00
389.64	844.93
389.84	997.07
390.03	1001.75
390.22	952.60
390.42	929.19
390.61	1006.43
390.81	1076.65
391.00	985.37
391.19	1118.78
391.39	990.05
391.58	940.90
391.78	1018.13
391.97	1020.47
392.16	1034.52
392.36	1025.15
392.55	1125.80
392.75	1076.65
392.94	973.66
393.13	971.32
393.33	994.73
393.52	1041.54
393.71	1149.20
393.91	1128.14
394.10	1071.97
394.29	1100.05
394.49	1170.27
394.68	1277.93
394.88	1181.97
395.07	1240.48
395.26	1200.69
395.46	1252.19
395.65	1198.35
395.84	1224.10
396.04	1238.14
396.23	1109.41
396.42	1184.31
396.62	1146.86
396.81	1207.72
397.00	1128.14
397.19	1263.89
397.39	1270.91
397.58	1345.81
397.77	1291.98
397.97	1418.36
398.16	1430.07
398.35	1409.00
398.55	1409.00
398.74	1416.02
398.93	1458.15
399.12	1451.13
399.32	1516.67
399.51	1542.41
399.70	1551.78
399.90	1507.30
400.09	1486.24
400.28	1647.74
400.47	1596.25
400.67	1650.08
400.86	1596.25
401.05	1617.31
401.24	1612.63
401.44	1629.01
401.63	1652.42
401.82	1734.34
402.01	1631.35
402.21	1610.29
402.40	1708.59
402.59	1771.79
402.78	1790.51
402.97	1788.17
403.17	1760.08
403.36	1809.23
403.55	1785.83
403.74	1802.21
403.93	1771.79
404.13	1820.94
404.32	1785.83
404.51	1762.42
404.70	1935.62
404.89	1741.36
405.09	2036.27
405.28	2033.93
405.47	1849.02
405.66	1914.56
405.85	1905.20
406.05	2015.20
406.24	1998.82
406.43	1952.01
406.62	2033.93
406.81	2090.10
407.00	2017.54
407.20	2083.08
407.39	1963.71
407.58	2172.02
407.77	2258.62
407.96	2195.42
408.15	2279.68
408.34	2113.50
408.54	2197.76
408.73	2228.19
408.92	2246.91
409.11	2270.32
409.30	2314.79
409.49	2291.38
409.68	2296.07
409.87	2239.89
410.07	2275.00
410.26	2331.17
410.45	2406.07
410.64	2403.73
410.83	2544.16
411.02	2431.82
411.21	2541.82
411.40	2572.25
411.59	2670.55
411.78	2459.90
411.98	2597.99
412.17	2710.34
412.36	2719.70
412.55	2675.23
412.74	2623.74
412.93	2789.92
413.12	2642.46
413.31	2803.96
413.50	2738.43
413.69	2752.47
413.88	2850.77
414.07	2799.28
414.26	2906.95
414.45	2977.16
414.64	2883.54
414.83	3028.65
415.02	2885.88
415.22	3063.76
415.41	3185.47
415.60	3159.72
415.79	3159.72
415.98	3133.98
416.17	3232.28
416.36	3269.73
416.55	3185.47
416.74	3234.62
416.93	3241.64
417.12	3295.47
417.31	3229.94
417.50	3241.64
417.69	3330.58
417.88	3349.31
418.07	3501.44
418.26	3496.76
418.45	3515.48
418.64	3538.89
418.83	3646.55
419.02	3541.23
419.21	3684.00
419.39	3468.67
419.58	3489.74
419.77	3463.99
419.96	3648.90
420.15	3627.83
420.34	3719.11
420.53	3660.60
420.72	3625.49
420.91	3632.51
421.10	3934.44
421.29	3941.46
421.48	3765.92
421.67	4023.38
421.86	3763.58
422.05	3665.28
422.24	3779.97
422.43	3786.99
422.61	3784.65
422.80	3864.22
422.99	3941.46
423.18	3871.25
423.37	3985.93
423.56	3756.56
423.75	3889.97
423.94	3957.85
424.13	3634.85
424.32	3761.24
424.50	4072.53
424.69	3983.59
424.88	3929.76
425.07	3950.82
425.26	3889.97
425.45	3964.87
425.64	3887.63
425.83	3964.87
426.01	4030.40
426.20	3964.87
426.39	3985.93
426.58	4011.68
426.77	3875.93
426.96	3831.46
427.15	4077.21
427.33	3936.78
427.52	4011.68
427.71	4053.81
427.90	4126.36
428.09	4039.76
428.28	4250.41
428.46	4196.58
428.65	4140.41
428.84	4163.81
429.03	4264.46
429.22	4032.74
429.40	4124.02
429.59	4159.13
429.78	3868.91
429.97	3784.65
430.16	4011.68
430.34	4028.06
430.53	4196.58
430.72	4198.92
430.91	4205.94
431.10	4348.72
431.28	4512.55
431.47	4545.32
431.66	4498.51
431.85	4540.64
432.03	4627.24
432.22	4610.86
432.41	4571.07
432.60	4561.70
432.79	4613.20
432.97	4819.16
433.16	4603.83
433.35	4676.39
433.54	4753.63
433.72	4695.11
433.91	4723.20
434.10	4657.67
434.28	4744.27
434.47	4821.50
434.66	4795.76
434.85	4711.50
435.03	4896.40
435.22	4856.61
435.41	5043.85
435.59	5004.07
435.78	5027.47
435.97	5039.17
436.16	5090.67
436.34	5125.77
436.53	5032.15
436.72	5102.37
436.90	5100.03
437.09	5121.09
437.28	5083.64
437.46	5083.64
437.65	5081.30
437.84	5256.84
438.02	5130.45
438.21	5254.50
438.40	5163.22
438.58	5392.59
438.77	5427.70
438.96	5317.70
439.14	5526.00
439.33	5563.45
439.52	5673.46
439.70	5540.05
439.89	5441.75
440.08	5619.63
440.26	5682.82
440.45	5544.73
440.63	5820.91
440.82	5930.92
441.01	5813.89
441.19	5968.37
441.38	5954.32
441.57	6127.52
441.75	6256.25
441.94	6155.61
442.12	6251.57
442.31	6221.14
442.50	6347.53
442.68	6190.72
442.87	6228.17
443.05	6094.76
443.24	6485.62
443.43	6366.26
443.61	6216.46
443.80	6401.37
443.98	6120.50
444.17	6272.64
444.35	6319.45
444.54	6530.09
444.73	6406.05
444.91	6572.22
445.10	6525.41
445.28	6434.13
445.47	6310.08
445.65	6443.49
445.84	6366.26
446.02	6532.44
446.21	6319.45
446.39	6518.39
446.58	6693.93
446.77	6581.59
446.95	6473.92
447.14	6633.08
447.32	6799.26
447.51	6579.25
447.69	6801.60
447.88	6679.89
448.06	6656.48
448.25	6572.22
448.43	6633.08
448.62	6572.22
448.80	6616.69
448.99	6707.98
449.17	6743.08
449.36	6757.13
449.54	7075.44
449.73	6970.12
449.91	7098.84
450.10	7185.44
450.28	7206.51
450.46	7007.56
450.65	7087.14
450.83	7176.08
451.02	7021.61
451.20	7211.19
451.39	7262.68
451.57	7260.34
451.76	7087.14
451.94	7171.40
452.13	7314.17
452.31	7150.34
452.49	7089.48
452.68	7213.53
452.86	7248.64
453.05	7255.66
453.23	7286.09
453.42	7082.46
453.60	7260.34
453.78	7531.84
453.97	7056.72
454.15	7368.01
454.34	7293.11
454.52	7375.03
454.70	7452.27
454.89	7482.69
455.07	7482.69
455.26	7419.50
455.44	7648.87
455.62	7768.24
455.81	7784.62
455.99	7665.25
456.17	7669.94
456.36	7716.75
456.54	7852.50
456.73	7878.24
456.91	8049.10
457.09	8046.76
457.28	8234.00
457.46	7964.84
457.64	8222.30
457.83	7964.84
458.01	7985.91
458.19	8133.36
458.38	8053.78
458.56	8367.42
458.74	8119.32
458.93	8149.75
459.11	8133.36
459.29	8187.19
459.48	8320.60
459.66	8182.51
459.84	8276.13
460.03	8641.26
460.21	8278.47
460.39	8236.35
460.57	8449.33
460.76	8547.64
460.94	8533.59
461.12	8540.61
461.31	8514.87
461.49	8465.72
461.67	8461.04
461.85	8727.86
462.04	8592.11
462.22	9022.77
462.40	8954.89
462.59	8910.42
462.77	8931.48
462.95	8870.63
463.13	8800.41
463.32	8945.53
463.50	8922.12
463.68	8950.21
463.86	9027.45
464.05	9011.06
464.23	8755.94
464.41	9043.83
464.59	8805.10
464.78	9214.69
464.96	9116.39
465.14	9116.39
465.32	9153.84
465.50	9137.45
465.69	9235.75
465.87	9193.62
466.05	9090.64
466.23	9188.94
466.41	9076.60
466.60	9247.46
466.78	9205.33
466.96	9228.73
467.14	9446.40
467.32	9376.19
467.51	9430.02
467.69	9193.62
467.87	9163.20
468.05	9441.72
468.23	9301.29
468.41	9247.46
468.60	9458.10
468.78	9605.56
468.96	9451.08
469.14	9713.22
469.32	9769.40
469.50	9352.78
469.69	9762.37
469.87	9687.48
470.05	9802.16
470.23	10003.45
470.41	9748.33
470.59	9781.10
470.77	9722.59
470.95	9940.26
471.14	10078.35
471.32	10043.24
471.50	10181.33
471.68	10139.20
471.86	10153.24
472.04	10429.43
472.22	10478.58
472.40	10218.78
472.58	10399.00
472.77	10141.54
472.95	10633.05
473.13	10703.27
473.31	10523.05
473.49	10590.92
473.67	10513.69
473.85	10743.06
474.03	10902.22
474.21	10883.49
474.39	10743.06
474.57	11070.73
474.75	11194.78
474.93	11019.24
475.12	11154.99
475.30	10993.50
475.48	10993.50
475.66	11129.25
475.84	11272.02
476.02	11314.15
476.20	11386.71
476.38	11419.47
476.56	11770.55
476.74	11779.92
476.92	11791.62
477.10	11653.53
477.28	12020.99
477.46	12133.34
477.64	12217.60
477.82	12425.90
478.00	12400.16
478.18	12561.66
478.36	12699.75
478.54	12659.96
478.72	12585.06
478.90	12826.14
479.08	12940.82
479.26	13055.51
479.44	13095.30
479.62	13095.30
479.80	13212.32
479.98	13528.30
480.16	13682.77
480.34	13378.50
480.52	13797.46
480.70	13570.43
480.88	13446.38
481.06	13699.16
481.24	13685.11
481.41	14281.95
481.59	14253.86
481.77	14387.27
481.95	14422.38
482.13	14176.62
482.31	14310.04
482.49	14904.53
482.67	14757.08
482.85	14993.47
483.03	15166.67
483.21	15346.89
483.39	15159.65
483.57	15204.12
483.74	15360.94
483.92	15499.03
484.10	15098.80
484.28	15709.68
484.46	15880.53
484.64	16013.95
484.82	15896.92
485.00	15990.54
485.18	16397.79
485.35	16549.93
485.53	16116.93
485.71	16037.35
485.89	16547.59
486.07	16156.72
486.25	16692.70
486.43	16734.83
486.61	17090.59
486.78	17067.19
486.96	17118.68
487.14	17741.26
487.32	17549.34
487.50	17834.88
487.68	17926.16
487.85	18129.79
488.03	18183.62
488.21	18171.92
488.39	18602.58
488.57	18855.36
488.75	18883.44
488.92	19110.47
489.10	18855.36
489.28	19061.32
489.46	19590.28
489.64	19487.30
489.81	19997.54
489.99	20093.50
490.17	20093.50
490.35	20184.78
490.53	20245.63
490.70	20402.45
490.88	20498.41
491.06	20545.22
491.24	20446.92
491.41	20411.81
491.59	20437.56
491.77	20634.16
491.95	20989.92
492.13	21226.32
492.30	21472.07
492.48	21551.65
492.66	21645.27
492.84	21671.02
493.01	21706.13
493.19	21610.17
493.37	22335.73
493.54	22277.22
493.72	22464.46
493.90	22537.02
494.08	22473.82
494.25	22817.88
494.43	23035.55
494.61	23440.47
494.79	23220.45
494.96	23655.79
495.14	23608.98
495.32	23735.37
495.49	23594.94
495.67	23634.73
495.85	23768.14
496.02	23943.68
496.20	23995.17
496.38	24503.07
496.55	24519.45
496.73	25064.80
496.91	24559.24
497.09	24917.34
497.26	24973.52
497.44	24957.13
497.62	25186.50
497.79	25149.06
497.97	25380.77
498.14	24929.05
498.32	25362.04
498.50	25413.54
498.67	25790.36
498.85	25748.23
499.03	26012.71
499.20	26305.28
499.38	26150.81
499.56	26370.82
499.73	26274.85
499.91	26380.18
500.08	26534.65
500.26	26120.38
500.44	26555.72
500.61	26639.98
500.79	26279.54
500.97	26572.10
501.14	27077.66
501.32	26904.46
501.49	26869.35
501.67	26836.58
501.84	27218.09
502.02	27424.06
502.20	27489.59
502.37	27730.67
502.55	27604.28
502.72	27733.01
502.90	27857.06
503.07	27843.01
503.25	28130.90
503.43	28027.92
503.60	27751.73
503.78	27922.59
503.95	27885.14
504.13	28367.29
504.30	28767.52
504.48	28610.71
504.65	28634.11
504.83	29048.39
505.01	29177.12
505.18	29212.23
505.36	29177.12
505.53	29350.32
505.71	29670.97
505.88	29560.97
506.06	29453.30
506.23	29865.24
506.41	29039.03
506.58	29474.37
506.76	29776.30
506.93	30122.69
507.11	30115.67
507.28	30073.54
507.46	29844.17
507.63	30153.12
507.81	30363.77
507.98	30087.59
508.16	30106.31
508.33	30349.73
508.50	30794.43
508.68	30871.67
508.85	31016.78
509.03	30698.47
509.20	30799.11
509.38	31314.03
509.55	30859.96
509.73	31070.61
509.90	31683.83
510.08	31405.31
510.25	31323.39
510.42	31262.54
510.60	31601.91
510.77	31494.25
510.95	31667.45
511.12	31653.40
511.30	32133.21
511.47	32552.17
511.64	32121.51
511.82	32439.82
511.99	32301.73
512.17	32339.18
512.34	31974.06
512.51	32470.25
512.69	32683.24
512.86	32453.87
513.04	32851.76
513.21	32933.68
513.38	32313.44
513.56	32236.20
513.73	32758.14
513.90	33008.58
514.08	32739.41
514.25	33198.16
514.43	33195.82
514.60	33050.70
514.77	33008.58
514.95	33516.47
515.12	33390.08
515.29	33413.49
515.47	34047.77
515.64	33935.43
515.81	33717.76
515.99	33591.37
516.16	33427.53
516.33	33354.97
516.51	33422.85
516.68	33219.22
516.85	33455.62
517.03	33254.33
517.20	33551.58
517.37	34267.78
517.54	34031.39
517.72	34136.71
517.89	33696.69
518.06	33940.11
518.24	33998.62
518.41	33890.96
518.58	34103.95
518.75	34546.31
518.93	34455.03
519.10	34639.93
519.27	35070.59
519.45	34892.71
519.62	35023.78
519.79	35199.32
519.96	35220.38
520.14	35129.10
520.31	35098.67
520.48	35325.71
520.65	35360.81
520.83	35824.24
521.00	35903.82
521.17	35845.30
521.34	35620.61
521.52	35573.80
521.69	36378.95
521.86	35887.43
522.03	36488.95
522.20	36128.51
522.38	36481.93
522.55	36226.81
522.72	36030.21
522.89	36697.26
523.07	36727.69
523.24	36187.02
523.41	36751.09
523.58	36603.64
523.75	37366.65
523.92	36875.14
524.10	36905.57
524.27	36966.42
524.44	36971.10
524.61	37366.65
524.78	37450.91
524.96	37359.63
525.13	37748.16
525.30	37832.42
525.47	37867.53
525.64	37586.66
525.81	37343.25
525.98	37235.58
526.16	37305.80
526.33	37125.58
526.50	37525.81
526.67	37179.41
526.84	36830.67
527.01	37289.42
527.18	37904.98
527.36	37790.29
527.53	37893.27
527.70	38366.06
527.87	38085.20
528.04	37968.17
528.21	38445.64
528.38	38361.38
528.55	38586.07
528.72	38703.10
528.89	38930.13
529.07	38740.55
529.24	38593.09
529.41	38951.20
529.58	38944.17
529.75	38309.89
529.92	38909.07
530.09	38866.94
530.26	38789.70
530.43	39042.48
530.60	38852.89
530.77	39208.65
530.94	39360.79
531.11	39215.68
531.28	39864.00
531.46	39398.24
531.63	39332.70
531.80	39054.18
531.97	39543.35
532.14	39316.32
532.31	39019.07
532.48	39856.98
532.65	39475.48
532.82	39342.06
532.99	39435.69
533.16	39821.87
533.33	39817.19
533.50	39882.73
533.67	40067.63
533.84	39959.97
534.01	39798.47
534.18	39784.43
534.35	40215.08
534.52	39873.37
534.69	40467.86
534.86	40179.98
535.03	40325.09
535.20	40481.91
535.37	41120.87
535.54	40835.33
535.71	40631.70
535.88	40657.45
536.05	40334.45
536.22	40566.16
536.38	40196.36
536.55	40278.28
536.72	40854.05
536.89	40495.95
537.06	40685.53
537.23	40868.09
537.40	40739.36
537.57	40985.12
537.74	41497.70
537.91	41038.95
538.08	41172.36
538.25	41053.00
538.42	41165.34
538.59	41446.21
538.75	41462.59
538.92	40907.88
539.09	41549.19
539.26	41544.51
539.43	41434.50
539.60	41380.67
539.77	41038.95
539.94	41144.28
540.11	41500.04
540.28	41640.47
540.44	41558.55
540.61	41305.77
540.78	41474.29
540.95	41415.78
541.12	41455.57
541.29	41588.98
541.46	41682.60
541.62	41439.18
541.79	41928.36
541.96	41502.38
542.13	41759.84
542.30	42005.59
542.47	42073.47
542.63	41816.01
542.80	42080.49
542.97	42103.90
543.14	42504.13
543.31	42410.51
543.48	42216.24
543.64	42710.10
543.81	42808.40
543.98	42464.34
544.15	42609.45
544.32	43044.79
544.48	43016.71
544.65	42780.31
544.82	42983.94
544.99	42480.72
545.16	42962.87
545.32	42419.87
545.49	43414.60
545.66	43419.28
545.83	43552.69
546.00	43264.80
546.16	42946.49
546.33	42848.19
546.50	43070.54
546.67	43299.91
546.83	42993.30
547.00	42918.40
547.17	43100.97
547.34	43075.22
547.50	43306.93
547.67	43594.82
547.84	43201.61
548.00	43555.03
548.17	44002.07
548.34	43674.40
548.51	44102.71
548.67	43587.80
548.84	43473.11
549.01	43625.25
549.18	43416.94
549.34	44016.11
549.51	43749.29
549.68	43653.33
549.84	43643.97
550.01	43978.67
550.18	43604.18
550.34	44013.77
550.51	43681.42
550.68	44086.33
550.84	43650.99
551.01	44275.91
551.18	43952.92
551.34	44472.52
551.51	44018.46
551.68	44601.25
551.84	44458.48
552.01	44137.82
552.18	44271.23
552.34	44165.91
552.51	44002.07
552.68	43885.04
552.84	44376.56
553.01	44006.75
553.18	44081.65
553.34	44381.24
553.51	44598.91
553.67	44608.27
553.84	44886.79
554.01	44481.88
554.17	44634.02
554.34	44659.76
554.51	44823.60
554.67	44910.20
554.84	44905.52
555.00	44439.75
555.17	44453.79
555.33	44821.26
555.50	44568.48
555.67	44603.59
555.83	44985.10
556.00	44715.93
556.16	44889.13
556.33	44580.18
556.50	44603.59
556.66	44758.06
556.83	44612.95
556.99	45223.83
557.16	44931.26
557.32	44947.65
557.49	44900.84
557.65	44755.72
557.82	45223.83
557.98	44774.45
558.15	45216.81
558.32	45041.27
558.48	45153.62
558.65	44783.81
558.81	44615.29
558.98	44507.63
559.14	45067.02
559.31	44893.82
559.47	44980.42
559.64	45078.72
559.80	45322.13
559.97	44905.52
560.13	45085.74
560.30	45010.84
560.46	45167.66
560.63	45195.74
560.79	45247.24
560.96	45614.70
561.12	45205.11
561.29	45607.68
561.45	45481.29
561.61	45270.64
561.78	45296.39
561.94	45586.61
562.11	44945.31
562.27	45242.56
562.44	45544.48
562.60	45216.81
562.77	45528.10
562.93	45787.90
563.10	45574.91
563.26	45127.87
563.42	45375.97
563.59	45612.36
563.75	45492.99
563.92	45914.29
564.08	45780.88
564.24	45488.31
564.41	45666.19
564.57	45595.98
564.74	45406.39
564.90	45975.14
565.07	45078.72
565.23	45677.90
565.39	45617.04
565.56	46120.26
565.72	45350.22
565.88	45502.35
566.05	45483.63
566.21	45329.16
566.38	45736.41
566.54	45492.99
566.70	45979.82
566.87	45986.85
567.03	45940.04
567.19	46347.29
567.36	46302.82
567.52	45811.31
567.68	45970.46
567.85	45893.22
568.01	45642.79
568.17	45603.00
568.34	45935.35
568.50	46160.05
568.66	45598.32
568.83	45600.66
568.99	45638.11
569.15	45703.64
569.32	45851.09
569.48	45614.70
569.64	46377.72
569.81	45806.62
569.97	46232.60
570.13	46253.67
570.30	45942.38
570.46	45869.82
570.62	45684.92
570.78	45565.55
570.95	45490.65
571.11	45603.00
571.27	46136.64
571.43	45855.78
571.60	45975.14
571.76	45860.46
571.92	45975.14
572.09	45844.07
572.25	45333.84
572.41	45797.26
572.57	46190.47
572.74	46099.19
572.90	45748.11
573.06	46157.70
573.22	45855.78
573.38	46117.92
573.55	45949.40
573.71	46300.48
573.87	45710.66
574.03	45785.56
574.20	46092.17
574.36	45900.25
574.52	45881.52
574.68	45766.84
574.84	46033.66
575.01	46153.02
575.17	45851.09
575.33	46059.40
575.49	45815.99
575.65	46347.29
575.82	46307.50
575.98	45823.01
576.14	46326.22
576.30	46129.62
576.46	46232.60
576.62	46066.42
576.79	45724.71
576.95	45862.80
577.11	45867.48
577.27	46021.95
577.43	45897.91
577.59	46564.96
577.75	45577.25
577.92	45921.31
578.08	45247.24
578.24	45350.22
578.40	45958.76
578.56	46014.93
578.72	46010.25
578.88	46148.34
579.04	46190.47
579.21	45764.49
579.37	46045.36
579.53	45968.12
579.69	46106.21
579.85	46031.32
580.01	46204.52
580.17	46204.52
580.33	46337.93
580.49	45677.90
580.65	46361.33
580.82	46127.28
580.98	46073.45
581.14	46078.13
581.30	46649.22
581.46	46499.42
581.62	46167.07
581.78	46321.54
581.94	46672.62
582.10	45965.78
582.26	46471.34
582.42	45902.59
582.58	45837.05
582.74	46272.39
582.90	46248.99
583.06	46326.22
583.22	46298.14
583.38	46349.63
583.54	46543.89
583.70	46153.02
583.86	46370.69
584.02	45750.45
584.18	46394.10
584.34	46174.09
584.50	46300.48
584.66	46293.46
584.82	46293.46
584.98	46277.07
585.14	46485.38
585.30	46059.40
585.46	46253.67
585.62	45790.24
585.78	45925.99
585.94	45734.07
586.10	45977.48
586.26	45736.41
586.42	46108.55
586.58	46375.37
586.74	46199.83
586.90	45834.71
587.06	46136.64
587.22	45904.93
587.38	46092.17
587.54	46059.40
587.70	46066.42
587.86	46422.19
588.02	46031.32
588.18	46644.54
588.34	45902.59
588.49	45823.01
588.65	45790.24
588.81	45125.53
588.97	46143.66
589.13	45858.12
589.29	45883.86
589.45	46141.32
589.61	46052.38
589.77	46211.54
589.93	46480.70
590.08	46452.61
590.24	46710.07
590.40	46415.16
590.56	46483.04
590.72	46745.18
590.88	46272.39
591.04	46351.97
591.20	46681.98
591.35	46064.08
591.51	46756.88
591.67	46749.86
591.83	46052.38
591.99	46487.72
592.15	46375.37
592.31	46506.44
592.46	46021.95
592.62	46696.03
592.78	46822.42
592.94	46440.91
593.10	46328.56
593.26	46277.07
593.41	46546.23
593.57	46199.83
593.73	46349.63
593.89	45986.85
594.05	46312.18
594.20	46391.76
594.36	46401.12
594.52	46298.14
594.68	46103.87
594.84	46178.77
594.99	46450.27
595.15	46424.53
595.31	46553.26
595.47	46220.90
595.62	46801.35
595.78	46696.03
595.94	46401.12
596.10	46485.38
596.25	46644.54
596.41	46761.56
596.57	46213.88
596.73	46913.70
596.88	46459.63
597.04	46106.21
597.20	46284.09
597.36	46298.14
597.51	47054.13
597.67	46667.94
597.83	46342.61
597.99	46473.68
598.14	46513.47
598.30	46440.91
598.46	46054.72
598.61	46127.28
598.77	46216.22
598.93	46644.54
599.09	46356.65
599.24	46904.34
599.40	46653.90
599.56	46941.78
599.71	46227.92
599.87	46642.20
600.03	46586.02
600.18	46248.99
600.34	46478.36
600.50	46508.79
600.65	46349.63
600.81	46375.37
600.97	46609.43
601.12	46525.17
601.28	46277.07
601.44	46323.88
601.59	46337.93
601.75	46155.36
601.91	46380.06
602.06	46323.88
602.22	46422.19
602.37	46181.11
602.53	46417.50
602.69	46808.37
602.84	46115.58
603.00	46155.36
603.16	46138.98
603.31	46653.90
603.47	46267.71
603.62	46387.08
603.78	46405.80
603.94	46307.50
604.09	46447.93
604.25	46539.21
604.40	46216.22
604.56	46162.39
604.71	46150.68
604.87	46122.60
605.03	46148.34
605.18	46120.26
605.34	46321.54
605.49	46571.98
605.65	46274.73
605.80	46658.58
605.96	46279.41
606.12	46354.31
606.27	46480.70
606.43	46335.59
606.58	46216.22
606.74	46171.75
606.89	46190.47
607.05	46281.75
607.20	46155.36
607.36	46129.62
607.51	46487.72
607.67	46017.27
607.82	46061.74
607.98	45965.78
608.13	46040.68
608.29	45691.94
608.44	45628.74
608.60	45785.56
608.75	45977.48
608.91	45883.86
609.06	45642.79
609.22	46380.06
609.37	46080.47
609.53	46178.77
609.68	45771.52
609.84	45729.39
609.99	45886.20
610.15	45497.67
610.30	45478.95
610.46	45373.63
610.61	45713.00
610.76	45720.02
610.92	45895.56
611.07	45944.72
611.23	45647.47
611.38	45694.28
611.54	45439.16
611.69	45933.01
611.84	45617.04
612.00	45937.69
612.15	45078.72
612.31	45708.32
612.46	45390.01
612.62	45399.37
612.77	45500.01
612.92	45738.75
613.08	45511.72
613.23	45268.30
613.39	45357.24
613.54	45024.89
613.69	44959.35
613.85	44926.58
614.00	45296.39
614.15	45553.85
614.31	45572.57
614.46	45773.86
614.62	45621.72
614.77	45518.74
614.92	45221.49
615.08	45397.03
615.23	45001.48
615.38	45113.83
615.54	44711.25
615.69	44900.84
615.84	44542.74
616.00	44954.67
616.15	44615.29
616.30	44987.44
616.46	44875.09
616.61	44615.29
616.76	44751.04
616.92	44493.58
617.07	44671.46
617.22	44524.01
617.37	44430.39
617.53	44816.58
617.68	44926.58
617.83	45132.55
617.99	45022.54
618.14	45202.77
618.29	45116.17
618.45	44481.88
618.60	44538.05
618.75	44308.68
618.90	44184.63
619.06	44734.66
619.21	44762.75
619.36	44844.66
619.51	44706.57
619.67	44252.51
619.82	44236.12
619.97	44449.11
620.12	44119.10
620.28	43789.08
620.43	44409.32
620.58	44350.81
620.73	44182.29
620.89	44287.62
621.04	44346.13
621.19	44011.43
621.34	44313.36
621.49	43868.66
621.65	44280.60
621.80	44151.87
621.95	43840.57
622.10	44046.54
622.25	43992.71
622.41	43721.21
622.56	44072.29
622.71	44226.76
622.86	43896.75
623.01	44442.09
623.16	43756.32
623.32	43711.84
623.47	43599.50
623.62	43800.79
623.77	44013.77
623.92	44184.63
624.07	43618.22
624.23	43566.73
624.38	43601.84
624.53	43262.46
624.68	43718.87
624.83	43323.32
624.98	43232.04
625.13	43213.31
625.29	43346.72
625.44	43295.23
625.59	43077.56
625.74	42815.42
625.89	42941.81
626.04	42834.14
626.19	43379.49
626.34	42869.25
626.49	43667.37
626.65	43606.52
626.80	43248.42
626.95	42974.58
627.10	42859.89
627.25	43056.50
627.40	42745.20
627.55	42529.87
627.70	42555.62
627.85	42810.74
628.00	42384.76
628.15	42679.67
628.30	42749.88
628.45	43016.71
628.60	42920.74
628.76	43580.78
628.91	42756.91
629.06	42375.40
629.21	42471.36
629.36	42359.02
629.51	42841.17
629.66	42490.09
629.81	41926.02
629.96	42466.68
630.11	42564.98
630.26	42412.85
630.41	42710.10
630.56	42054.75
630.71	42698.39
630.86	41970.49
631.01	42286.46
631.16	42127.30
631.31	42106.24
631.46	42052.41
631.61	42007.94
631.76	42234.97
631.91	42431.57
632.06	42124.96
632.21	41977.51
632.36	42469.02
632.51	41993.89
632.66	42139.00
632.81	41607.70
632.96	42237.31
633.10	42029.00
633.25	41956.44
633.40	41888.57
633.55	42251.35
633.70	41837.08
633.85	41710.69
634.00	41801.97
634.15	41734.09
634.30	41724.73
634.45	41715.37
634.60	41619.41
634.75	41743.45
634.90	41848.78
635.05	41684.94
635.19	41415.78
635.34	41731.75
635.49	41825.37
635.64	41282.37
635.79	41691.96
635.94	41598.34
636.09	41963.46
636.24	41574.94
636.39	41165.34
636.53	41289.39
636.68	41326.84
636.83	41429.82
636.98	41567.91
637.13	41504.72
637.28	40863.41
637.43	41230.88
637.57	41565.57
637.72	41043.63
637.87	41134.92
638.02	41298.75
638.17	40914.90
638.32	41226.20
638.46	41237.90
638.61	41076.40
638.76	40999.16
638.91	41099.81
639.06	40678.51
639.20	40870.43
639.35	41401.74
639.50	40884.48
639.65	40666.81
639.80	41006.19
639.94	40540.42
640.09	41095.13
640.24	40722.98
640.39	40664.47
640.54	40596.59
640.68	40388.28
640.83	40257.21
640.98	40266.58
641.13	40535.74
641.27	40987.46
641.42	40502.97
641.57	40147.21
641.72	40495.95
641.86	40030.18
642.01	39725.91
642.16	40205.72
642.31	40016.14
642.45	40329.77
642.60	39981.03
642.75	40425.73
642.90	39711.87
643.04	39793.79
643.19	39962.31
643.34	40245.51
643.48	39557.39
643.63	39833.58
643.78	40109.76
643.93	39873.37
644.07	39999.76
644.22	39466.11
644.37	39529.31
644.51	39952.94
644.66	40194.02
644.81	40105.08
644.95	40507.65
645.10	39990.39
645.25	39878.05
645.39	40006.78
645.54	39768.04
645.69	39559.73
645.83	39566.76
645.98	39501.22
646.13	40088.70
646.27	39810.17
646.42	39681.44
646.57	39276.53
646.71	39374.83
646.86	39681.44
647.00	39440.37
647.15	39754.00
647.30	39725.91
647.44	39337.38
647.59	38710.12
647.74	39105.67
647.88	39161.84
648.03	39831.24
648.17	39147.80
648.32	38855.23
648.47	39721.23
648.61	39021.41
648.76	39236.74
648.90	38909.07
649.05	39253.12
649.20	39274.19
649.34	38494.79
649.49	38665.65
649.63	38707.78
649.78	38937.15
649.92	39206.31
650.07	39475.48
650.21	38639.90
650.36	39180.57
650.51	38892.68
650.65	39643.99
650.80	39332.70
650.94	39042.48
651.09	39054.18
651.23	38337.98
651.38	38983.96
651.52	38696.08
651.67	38710.12
651.81	38721.82
651.96	38522.88
652.10	38836.51
652.25	38279.46
652.39	38557.99
652.54	38412.87
652.68	38501.81
652.83	38803.74
652.97	38621.18
653.12	38588.41
653.26	38345.00
653.41	38455.00
653.55	38288.82
653.70	38345.00
653.84	37879.23
653.99	38256.06
654.13	38260.74
654.27	38185.84
654.42	37935.40
654.56	37654.54
654.71	38047.75
654.85	38146.05
655.00	37682.62
655.14	37904.98
655.29	37853.48
655.43	37748.16
655.57	37593.68
655.72	37771.57
655.86	36980.46
656.01	37233.24
656.15	37476.66
656.30	37277.71
656.44	37544.53
656.58	37659.22
656.73	37876.89
656.87	37619.43
657.01	37734.12
657.16	37340.91
657.30	37099.83
657.45	37102.17
657.59	37008.55
657.73	37331.54
657.88	37350.27
658.02	37453.25
658.16	37649.86
658.31	37450.91
658.45	37233.24
658.60	36957.06
658.74	36980.46
658.88	37537.51
659.03	37102.17
659.17	36858.76
659.31	37041.32
659.46	37003.87
659.60	36870.46
659.74	37486.02
659.89	36589.59
660.03	36779.18
660.17	37144.30
660.32	36854.08
660.46	36570.87
660.60	36577.89
660.74	37104.51
660.89	36814.29
661.03	36128.51
661.17	36006.80
661.32	36217.45
661.46	36542.78
661.60	36168.30
661.74	36142.55
661.89	36456.18
662.03	36261.92
662.17	36023.19
662.31	35959.99
662.46	36105.10
662.60	36392.99
662.74	35941.27
662.88	36046.59
663.03	36032.55
663.17	35660.40
663.31	35777.43
663.45	35569.12
663.60	35494.22
663.74	35531.67
663.88	35555.08
664.02	35517.63
664.17	35644.02
664.31	34925.47
664.45	35419.33
664.59	35426.35
664.73	35314.00
664.88	35512.95
665.02	35220.38
665.16	35318.68
665.30	35072.93
665.44	35019.10
665.59	35101.01
665.73	34920.79
665.87	34792.06
666.01	35112.72
666.15	34799.08
666.29	34932.50
666.44	34920.79
666.58	34934.84
666.72	35009.73
666.86	34726.53
667.00	34562.69
667.14	34312.25
667.28	34462.05
667.43	34550.99
667.57	34230.33
667.71	34251.40
667.85	34136.71
667.99	34345.02
668.13	34227.99
668.27	33872.23
668.41	34419.92
668.56	33729.46
668.70	34408.22
668.84	34129.69
668.98	33518.81
669.12	33556.26
669.26	33572.64
669.40	33996.28
669.54	33677.97
669.68	33336.25
669.82	33301.14
669.96	32968.79
670.10	33172.41
670.25	33434.55
670.39	33160.71
670.53	32699.62
670.67	33092.83
670.81	32886.87
670.95	33170.07
671.09	32739.41
671.23	33031.98
671.37	32919.63
671.51	32423.44
671.65	32669.20
671.79	32510.04
671.93	32280.67
672.07	32699.62
672.21	32481.95
672.35	32650.47
672.49	32652.81
672.63	32397.70
672.77	32002.14
672.91	32472.59
673.05	32388.33
673.19	32051.30
673.33	32367.27
673.47	31615.96
673.61	31681.49
673.75	31438.08
673.89	31812.56
674.03	31274.24
674.17	31449.78
674.31	31538.72
674.45	31637.02
674.59	31391.26
674.73	31854.69
674.87	31140.83
675.01	31089.34
675.15	31323.39
675.29	31180.62
675.43	30890.39
675.56	30960.61
675.70	31189.98
675.84	30768.68
675.98	30064.18
676.12	30904.43
676.26	30597.82
676.40	30756.98
676.54	30899.75
676.68	30314.62
676.82	29905.02
676.96	30265.47
677.10	29944.81
677.23	30110.99
677.37	29886.30
677.51	29607.78
677.65	29476.71
677.79	29256.70
677.93	29495.43
678.07	29296.49
678.21	29099.88
678.34	29120.95
678.48	28786.25
678.62	28737.10
678.76	28753.48
678.90	28507.72
679.04	28465.60
679.18	28645.82
679.31	28266.65
679.45	27969.40
679.59	27971.74
679.73	27861.74
679.87	27850.03
680.00	27718.96
680.14	28098.13
680.28	28219.84
680.42	27817.27
680.56	27962.38
680.70	27648.75
680.83	27697.90
680.97	27658.11
681.11	27475.55
681.25	27360.86
681.39	27215.75
681.52	27290.65
681.66	27082.34
681.80	27054.25
681.94	27105.74
682.07	26724.24
682.21	26864.67
682.35	26724.24
682.49	26717.22
682.62	26745.30
682.76	26448.05
682.90	26513.59
683.04	26335.71
683.17	25895.69
683.31	25797.38
683.45	25984.63
683.59	25954.20
683.72	25757.60
683.86	25296.51
684.00	25830.15
684.13	25724.83
684.27	25450.99
684.41	25268.42
684.55	25109.27
684.68	25343.32
684.82	25245.02
684.96	25006.28
685.09	25242.68
685.23	24643.50
685.37	24961.81
685.50	24915.00
685.64	24582.65
685.78	24453.92
685.91	24634.14
686.05	24573.28
686.19	23988.15
686.32	23927.30
686.46	23222.80
686.60	23452.17
686.73	23616.01
686.87	23400.68
687.01	23548.13
687.14	23435.78
687.28	23101.09
687.42	23264.92
687.55	23220.45
687.69	23529.41
687.82	23143.22
687.96	23283.65
688.10	22815.54
688.23	22852.99
688.37	22583.83
688.50	22462.12
688.64	22300.62
688.78	22387.22
688.91	22417.65
689.05	22668.09
689.18	22417.65
689.32	21989.33
689.46	22162.53
689.59	22204.66
689.73	22235.09
689.86	21656.98
690.00	21958.91
690.13	21855.92
690.27	21715.49
690.41	21565.70
690.54	21563.36
690.68	21240.36
690.81	20964.18
690.95	21319.94
691.08	21165.46
691.22	21120.99
691.35	21226.32
691.49	21343.35
691.62	21172.49
691.76	20741.83
691.89	21106.95
692.03	20917.37
692.16	20547.56
692.30	20453.94
692.43	20114.56
692.57	20126.27
692.70	20538.20
692.84	20304.15
692.97	20039.67
693.11	19709.65
693.24	19969.45
693.38	19627.73
693.51	19697.95
693.65	19630.07
693.78	19618.37
693.92	19653.48
694.05	19639.44
694.19	19286.01
694.32	19267.29
694.45	18855.36
694.59	19063.66
694.72	19264.95
694.86	19061.32
694.99	18609.60
695.13	18878.76
695.26	18754.71
695.39	18663.43
695.53	18707.90
695.66	18890.46
695.80	18244.48
695.93	18200.01
696.07	18469.17
696.20	18258.52
696.33	18195.32
696.47	18040.85
696.60	18047.87
696.73	17818.50
696.87	17699.13
697.00	17951.91
697.14	17790.41
697.27	17767.01
697.40	17795.09
697.54	17549.34
697.67	17245.07
697.80	17448.69
697.94	17109.32
698.07	16922.07
698.21	16856.54
698.34	17179.53
698.47	16905.69
698.61	16875.26
698.74	16872.92
698.87	16613.12
699.01	16468.01
699.14	16334.60
699.27	16292.47
699.40	16311.19
699.54	16500.78
699.67	16451.63
699.80	16224.59
699.94	16219.91
700.07	16137.99
700.20	16039.69
700.34	16025.65
700.47	16049.05
700.60	16030.33
700.73	16053.73
700.87	16035.01
701.00	15681.59
701.13	15543.50
701.26	15562.22
701.40	15272.00
701.53	15494.35
701.66	15606.69
701.79	15206.46
701.93	15129.22
702.06	14904.53
702.19	14834.32
702.32	14803.89
702.46	14864.74
702.59	15075.39
702.72	15122.20
702.85	14801.55
702.99	15105.82
703.12	14771.12
703.25	14520.68
703.38	14452.81
703.51	14391.95
703.65	14546.43
703.78	14413.02
703.91	14026.83
704.04	14197.69
704.17	14197.69
704.31	14132.15
704.44	14249.18
704.57	14090.02
704.70	14008.11
704.83	13762.35
704.96	14118.11
705.10	13717.88
705.23	13851.29
>>>>>End Processed Spectral Data<<<<<
