SpectraSuite Data File
++++++++++++++++++++++++++++++++++++
Date: Fri Oct 25 11:34:05 EDT 2013
User: price-jones
Dark Spectrum Present: No
Reference Spectrum Present: No
Number of Sampled Component Spectra: 1
Spectrometers: USB2+H05261
Integration Time (usec): 100000 (USB2+H05261)
Spectra Averaged: 1 (USB2+H05261)
Boxcar Smoothing: 0 (USB2+H05261)
Correct for Electrical Dark: No (USB2+H05261)
Strobe/Lamp Enabled: No (USB2+H05261)
Correct for Detector Non-linearity: No (USB2+H05261)
Correct for Stray Light: No (USB2+H05261)
Number of Pixels in Processed Spectrum: 2048
>>>>>Begin Processed Spectral Data<<<<<
365.73	276.18
365.92	276.18
366.12	276.18
366.32	210.65
366.52	173.20
366.72	217.67
366.91	154.48
367.11	212.99
367.31	175.54
367.51	170.86
367.70	159.16
367.90	191.92
368.10	163.84
368.30	189.58
368.49	194.26
368.69	234.05
368.89	189.58
369.09	149.79
369.28	276.18
369.48	215.33
369.68	201.29
369.87	280.86
370.07	241.08
370.27	271.50
370.47	325.33
370.66	512.58
370.86	561.73
371.06	547.69
371.25	524.28
371.45	561.73
371.65	585.13
371.84	559.39
372.04	550.03
372.24	589.82
372.44	601.52
372.63	641.31
372.83	603.86
373.03	629.60
373.22	594.50
373.42	557.05
373.62	617.90
373.81	622.58
374.01	734.93
374.21	617.90
374.40	617.90
374.60	657.69
374.79	631.94
374.99	587.47
375.19	596.84
375.38	643.65
375.58	737.27
375.78	706.84
375.97	688.12
376.17	725.57
376.37	671.73
376.56	690.46
376.76	660.03
376.95	688.12
377.15	706.84
377.35	660.03
377.54	695.14
377.74	667.05
377.93	620.24
378.13	704.50
378.33	711.52
378.52	664.71
378.72	683.44
378.91	704.50
379.11	697.48
379.31	692.80
379.50	685.78
379.70	660.03
379.89	880.04
380.09	748.97
380.28	751.31
380.48	702.16
380.68	704.50
380.87	711.52
381.07	730.25
381.26	784.08
381.46	844.93
381.65	788.76
381.85	795.78
382.04	784.08
382.24	753.65
382.43	697.48
382.63	746.63
382.83	791.10
383.02	802.80
383.22	788.76
383.41	814.51
383.61	875.36
383.80	870.68
384.00	819.19
384.19	758.33
384.39	877.70
384.58	791.10
384.78	840.25
384.97	823.87
385.17	805.14
385.36	821.53
385.56	875.36
385.75	798.12
385.95	849.61
386.14	858.98
386.34	861.32
386.53	849.61
386.72	844.93
386.92	933.87
387.11	924.51
387.31	877.70
387.50	828.55
387.70	884.72
387.89	912.81
388.09	844.93
388.28	854.30
388.48	760.67
388.67	905.79
388.86	912.81
389.06	999.41
389.25	973.66
389.45	884.72
389.64	959.62
389.84	926.85
390.03	947.92
390.22	929.19
390.42	952.60
390.61	966.64
390.81	926.85
391.00	884.72
391.19	997.07
391.39	919.83
391.58	880.04
391.78	938.55
391.97	1097.71
392.16	1020.47
392.36	1025.15
392.55	1125.80
392.75	1055.58
392.94	990.05
393.13	1001.75
393.33	1081.33
393.52	1067.28
393.71	1069.62
393.91	1118.78
394.10	1034.52
394.29	1046.22
394.49	1111.75
394.68	1137.50
394.88	1196.01
395.07	1221.76
395.26	1181.97
395.46	1093.03
395.65	1067.28
395.84	1240.48
396.04	1174.95
396.23	1191.33
396.42	1217.08
396.62	1235.80
396.81	1238.14
397.00	1210.06
397.19	1121.12
397.39	1291.98
397.58	1235.80
397.77	1224.10
397.97	1331.76
398.16	1266.23
398.35	1261.55
398.55	1303.68
398.74	1151.54
398.93	1275.59
399.12	1343.47
399.32	1355.17
399.51	1320.06
399.70	1409.00
399.90	1324.74
400.09	1289.64
400.28	1383.26
400.47	1350.49
400.67	1378.58
400.86	1401.98
401.05	1366.87
401.24	1383.26
401.44	1418.36
401.63	1380.92
401.82	1453.47
402.01	1455.81
402.21	1397.30
402.40	1423.05
402.59	1526.03
402.78	1446.45
402.97	1413.68
403.17	1465.18
403.36	1504.96
403.55	1523.69
403.74	1528.37
403.93	1600.93
404.13	1614.97
404.32	1645.40
404.51	1666.46
404.70	1629.01
404.89	1563.48
405.09	1746.04
405.28	1659.44
405.47	1652.42
405.66	1643.06
405.85	1654.76
406.05	1617.31
406.24	1776.47
406.43	1795.19
406.62	1757.74
406.81	1748.38
407.00	1732.00
407.20	1736.68
407.39	1806.89
407.58	1865.41
407.77	1818.60
407.96	1764.76
408.15	1898.17
408.34	1795.19
408.54	1912.22
408.73	1799.87
408.92	1867.75
409.11	1912.22
409.30	1933.28
409.49	1968.39
409.68	1930.94
409.87	1907.54
410.07	2022.22
410.26	2125.21
410.45	1980.09
410.64	2003.50
410.83	2127.55
411.02	2106.48
411.21	2204.78
411.40	2015.20
411.59	2120.53
411.78	2174.36
411.98	2209.47
412.17	2172.02
412.36	2263.30
412.55	2272.66
412.74	2361.60
412.93	2387.35
413.12	2237.55
413.31	2396.71
413.50	2331.17
413.69	2396.71
413.88	2417.77
414.07	2399.05
414.26	2506.71
414.45	2506.71
414.64	2497.35
414.83	2633.10
415.02	2490.33
415.22	2602.68
415.41	2616.72
415.60	2651.83
415.79	2771.19
415.98	2708.00
416.17	2729.06
416.36	2658.85
416.55	2656.51
416.74	2719.70
416.93	2843.75
417.12	2593.31
417.31	2881.20
417.50	2944.39
417.69	2813.32
417.88	2911.63
418.07	2897.58
418.26	2843.75
418.45	2920.99
418.64	3019.29
418.83	3131.64
419.02	3026.31
419.21	3068.44
419.39	3005.25
419.58	2958.44
419.77	3047.38
419.96	3236.96
420.15	3150.36
420.34	3070.78
420.53	3269.73
420.72	3117.59
420.91	3246.32
421.10	3241.64
421.29	3323.56
421.48	3178.45
421.67	3269.73
421.86	3159.72
422.05	3208.87
422.24	3295.47
422.43	3251.00
422.61	3452.29
422.80	3412.50
422.99	3356.33
423.18	3300.16
423.37	3396.12
423.56	3382.07
423.75	3295.47
423.94	3255.69
424.13	3110.57
424.32	3124.62
424.50	3323.56
424.69	3602.08
424.88	3368.03
425.07	3377.39
425.26	3339.94
425.45	3445.27
425.64	3424.20
425.83	3314.20
426.01	3578.68
426.20	3382.07
426.39	3356.33
426.58	3421.86
426.77	3375.05
426.96	3473.36
427.15	3583.36
427.33	3499.10
427.52	3468.67
427.71	3581.02
427.90	3588.04
428.09	3578.68
428.28	3609.11
428.46	3637.19
428.65	3721.45
428.84	3761.24
429.03	3765.92
429.22	3632.51
429.40	3548.25
429.59	3747.20
429.78	3674.64
429.97	3595.06
430.16	3716.77
430.34	3798.69
430.53	3707.41
430.72	3782.31
430.91	3782.31
431.10	3691.02
431.28	3878.27
431.47	3932.10
431.66	3901.67
431.85	3836.14
432.03	4035.08
432.22	4039.76
432.41	3866.56
432.60	4067.85
432.79	4002.32
432.97	3894.65
433.16	4091.26
433.35	4063.17
433.54	4109.98
433.72	4074.87
433.91	4173.18
434.10	3934.44
434.28	4044.45
434.47	4147.43
434.66	4128.70
434.85	4159.13
435.03	4320.63
435.22	4273.82
435.41	4390.84
435.59	4287.86
435.78	4252.75
435.97	4283.18
436.16	4425.95
436.34	4339.35
436.53	4400.21
436.72	4531.28
436.90	4388.50
437.09	4512.55
437.28	4416.59
437.46	4477.44
437.65	4496.17
437.84	4484.47
438.02	4435.32
438.21	4568.73
438.40	4463.40
438.58	4816.82
438.77	4870.65
438.96	4507.87
439.14	4851.93
439.33	4739.58
439.52	4784.06
439.70	4842.57
439.89	4947.89
440.08	4856.61
440.26	4849.59
440.45	4882.36
440.63	5069.60
440.82	5043.85
441.01	4997.04
441.19	5135.14
441.38	5071.94
441.57	5158.54
441.75	5158.54
441.94	5228.76
442.12	5289.61
442.31	5392.59
442.50	5362.17
442.68	5289.61
442.87	5343.44
443.05	5455.79
443.24	5521.32
443.43	5425.36
443.61	5448.77
443.80	5619.63
443.98	5390.25
444.17	5289.61
444.35	5474.51
444.54	5614.95
444.73	5540.05
444.91	5540.05
445.10	5394.93
445.28	5598.56
445.47	5390.25
445.65	5636.01
445.84	5682.82
446.02	5650.05
446.21	5626.65
446.39	5708.57
446.58	5596.22
446.77	5605.58
446.95	5579.84
447.14	5689.84
447.32	5774.10
447.51	5694.52
447.69	5708.57
447.88	5774.10
448.06	5636.01
448.25	5717.93
448.43	5593.88
448.62	5591.54
448.80	5741.33
448.99	5856.02
449.17	5900.49
449.36	5783.46
449.54	5865.38
449.73	6092.41
449.91	6054.97
450.10	6038.58
450.28	6003.47
450.46	6069.01
450.65	5994.11
450.83	6106.46
451.02	5984.75
451.20	6029.22
451.39	6083.05
451.57	6174.33
451.76	5841.98
451.94	6029.22
452.13	6111.14
452.31	6263.27
452.49	6101.78
452.68	6179.01
452.86	6174.33
453.05	6174.33
453.23	6347.53
453.42	6174.33
453.60	6218.80
453.78	6214.12
453.97	6256.25
454.15	6406.05
454.34	6235.19
454.52	6476.26
454.70	6422.43
454.89	6417.75
455.07	6445.84
455.26	6506.69
455.44	6661.16
455.62	6670.53
455.81	6466.90
455.99	6630.74
456.17	6661.16
456.36	6555.84
456.54	6799.26
456.73	6722.02
456.91	6913.94
457.09	6916.28
457.28	7124.59
457.46	6841.39
457.64	6883.52
457.83	6864.79
458.01	6869.47
458.19	7117.57
458.38	7070.76
458.56	7028.63
458.74	7016.93
458.93	6998.20
459.11	6967.77
459.29	7037.99
459.48	7169.06
459.66	7096.50
459.84	7035.65
460.03	7269.70
460.21	7370.35
460.39	7199.49
460.57	7391.41
460.76	7218.21
460.94	7485.03
461.12	7433.54
461.31	7398.43
461.49	7307.15
461.67	7227.57
461.85	7555.25
462.04	7461.63
462.22	7850.16
462.40	7648.87
462.59	7602.06
462.77	7508.44
462.95	7688.66
463.13	7700.36
463.32	7660.57
463.50	7737.81
463.68	7709.72
463.86	7761.22
464.05	7836.11
464.23	7908.67
464.41	8013.99
464.59	7782.28
464.78	7857.18
464.96	7779.94
465.14	7873.56
465.32	7829.09
465.50	8065.49
465.69	8011.65
465.87	8088.89
466.05	7784.62
466.23	7812.71
466.41	8065.49
466.60	8294.86
466.78	7962.50
466.96	8067.83
467.14	8184.85
467.32	8037.40
467.51	8266.77
467.69	8065.49
467.87	8184.85
468.05	8182.51
468.23	8156.77
468.41	8194.22
468.60	8222.30
468.78	8360.39
468.96	8301.88
469.14	8248.05
469.32	8458.70
469.50	8238.69
469.69	8472.74
469.87	8547.64
470.05	8388.48
470.23	8592.11
470.41	8674.03
470.59	8624.87
470.77	8521.89
470.95	8531.25
471.14	8788.71
471.32	8699.77
471.50	8938.51
471.68	8858.93
471.86	9020.42
472.04	9057.87
472.22	9195.96
472.40	9177.24
472.58	8840.20
472.77	9240.44
472.95	9341.08
473.13	9439.38
473.31	9142.13
473.49	9390.23
473.67	9359.80
473.85	9247.46
474.03	9476.83
474.21	9638.33
474.39	9584.49
474.57	9467.47
474.75	9591.52
474.93	9720.24
475.12	9806.84
475.30	9846.63
475.48	9760.03
475.66	9795.14
475.84	9968.34
476.02	10167.29
476.20	10045.58
476.38	10204.74
476.56	10321.76
476.74	10324.10
476.92	10136.86
477.10	10122.82
477.28	10469.22
477.46	10560.50
477.64	10717.31
477.82	10576.88
478.00	11063.71
478.18	10963.07
478.36	10824.98
478.54	11375.00
478.72	11253.30
478.90	11234.57
479.08	11344.58
479.26	11187.76
479.44	11562.25
479.62	11440.54
479.80	11613.74
479.98	11824.39
480.16	11786.94
480.34	11791.62
480.52	12109.93
480.70	11819.71
480.88	12070.14
481.06	12203.55
481.24	12109.93
481.41	12472.71
481.59	12531.23
481.77	12638.89
481.95	12542.93
482.13	12528.89
482.31	12868.27
482.49	13259.13
482.67	13081.25
482.85	13188.92
483.03	13277.86
483.21	13294.24
483.39	13596.17
483.57	13284.88
483.74	13664.05
483.92	14026.83
484.10	13832.57
484.28	14211.73
484.46	14373.23
484.64	14487.92
484.82	14132.15
485.00	14490.26
485.18	14710.27
485.35	14799.21
485.53	14555.79
485.71	15021.56
485.89	15201.78
486.07	15171.35
486.25	15316.47
486.43	15274.34
486.61	15337.53
486.78	15342.21
486.96	15410.09
487.14	15728.40
487.32	16245.66
487.50	16114.59
487.68	15978.84
487.85	16177.78
488.03	16695.04
488.21	16697.38
488.39	16428.22
488.57	16901.01
488.75	16879.94
488.92	16959.52
489.10	17172.51
489.28	17338.69
489.46	17355.07
489.64	17062.51
489.81	17701.47
489.99	17954.25
490.17	17610.19
490.35	18274.90
490.53	17916.80
490.70	18265.54
490.88	18258.52
491.06	18326.39
491.24	18576.83
491.41	18745.35
491.59	18766.42
491.77	18719.60
491.95	18902.17
492.13	18700.88
492.30	19108.13
492.48	19339.85
492.66	19499.00
492.84	19604.33
493.01	19716.67
493.19	19901.58
493.37	20081.80
493.54	20067.75
493.72	20205.84
493.90	20421.17
494.08	20402.45
494.25	20645.87
494.43	20748.85
494.61	20833.11
494.79	20793.32
494.96	20683.31
495.14	20828.43
495.32	21329.30
495.49	21268.45
495.67	21261.43
495.85	21308.24
496.02	21748.26
496.20	22106.36
496.38	22005.72
496.55	22029.12
496.73	22576.81
496.91	22202.32
497.09	22092.32
497.26	22663.41
497.44	22157.85
497.62	22618.94
497.79	22852.99
497.97	22742.99
498.14	23332.80
498.32	23068.32
498.50	23475.57
498.67	23527.06
498.85	23356.21
499.03	23494.30
499.20	24011.56
499.38	23761.12
499.56	23812.61
499.73	24182.42
499.91	24109.86
500.08	24177.73
500.26	24030.28
500.44	24236.25
500.61	24140.29
500.79	24180.07
500.97	24900.96
501.14	24596.69
501.32	24840.11
501.49	24629.46
501.67	24739.46
501.84	25338.64
502.02	25001.60
502.20	25511.84
502.37	25006.28
502.55	25177.14
502.72	25411.20
502.90	25397.15
503.07	25694.40
503.25	25839.51
503.43	25460.35
503.60	25689.72
503.78	25937.82
503.95	26010.37
504.13	26057.18
504.30	26082.93
504.48	26033.78
504.65	26295.92
504.83	26735.94
505.01	26909.14
505.18	26621.25
505.36	26761.69
505.53	26625.93
505.71	26820.20
505.88	27005.10
506.06	26897.44
506.23	26977.01
506.41	26726.58
506.58	27005.10
506.76	27225.11
506.93	27550.45
507.11	27386.61
507.28	27503.64
507.46	27452.14
507.63	27831.31
507.81	27681.52
507.98	28074.73
508.16	27929.61
508.33	28046.64
508.50	27812.59
508.68	28257.29
508.85	28425.81
509.03	28051.32
509.20	28259.63
509.38	28999.24
509.55	28912.64
509.73	28868.17
509.90	28940.72
510.08	28577.94
510.25	28959.45
510.42	28910.30
510.60	29399.47
510.77	29149.03
510.95	29474.37
511.12	29303.51
511.30	29092.86
511.47	29865.24
511.64	29465.00
511.82	29497.77
511.99	29369.04
512.17	29582.03
512.34	30000.99
512.51	30043.12
512.69	30335.68
512.86	30274.83
513.04	30213.98
513.21	29930.77
513.38	30373.13
513.56	30567.40
513.73	30672.72
513.90	30443.35
514.08	30604.84
514.25	30845.92
514.43	31211.04
514.60	31192.32
514.77	30958.27
514.95	31295.30
515.12	31152.53
515.29	31192.32
515.47	31248.49
515.64	31482.55
515.81	31009.76
515.99	31653.40
516.16	31580.85
516.33	31447.44
516.51	32058.32
516.68	31618.30
516.85	31938.95
517.03	32044.27
517.20	32236.20
517.37	31857.03
517.54	32212.79
517.72	32231.52
517.89	32378.97
518.06	32451.53
518.24	32432.80
518.41	32716.01
518.58	32259.60
518.75	32009.17
518.93	32699.62
519.10	32594.30
519.27	32877.51
519.45	33125.60
519.62	33017.94
519.79	32804.95
519.96	33076.45
520.14	33083.47
520.31	32790.91
520.48	33261.35
520.65	33305.82
520.83	33635.84
521.00	33539.88
521.17	33591.37
521.34	33661.58
521.52	33802.02
521.69	33668.61
521.86	33914.36
522.03	33926.07
522.20	33977.56
522.38	34553.33
522.55	34291.19
522.72	34206.93
522.89	34237.36
523.07	34581.42
523.24	34356.72
523.41	34558.01
523.58	34672.70
523.75	35040.16
523.92	34586.10
524.10	35028.46
524.27	34426.94
524.44	35178.25
524.61	35288.26
524.78	35075.27
524.96	35234.42
525.13	35655.72
525.30	35178.25
525.47	35517.63
525.64	35365.49
525.81	35622.95
525.98	35971.69
526.16	35613.59
526.33	35480.18
526.50	35859.35
526.67	35880.41
526.84	36224.47
527.01	35716.58
527.18	35915.52
527.36	36479.59
527.53	36013.82
527.70	36294.69
527.87	36187.02
528.04	36383.63
528.21	36306.39
528.38	36297.03
528.55	36407.03
528.72	36577.89
528.89	36322.77
529.07	36261.92
529.24	36465.55
529.41	37024.93
529.58	36620.02
529.75	36818.97
529.92	37067.06
530.09	36980.46
530.26	37125.58
530.43	36786.20
530.60	37153.66
530.77	36856.42
530.94	37420.48
531.11	36823.65
531.28	37343.25
531.46	37633.47
531.63	37474.32
531.80	37720.07
531.97	37813.70
532.14	37074.09
532.31	37574.96
532.48	37556.24
532.65	37757.52
532.82	37631.13
532.99	38019.66
533.16	37813.70
533.33	37724.75
533.50	37862.85
533.67	38244.35
533.84	38251.38
534.01	37780.93
534.18	38232.65
534.35	38169.46
534.52	38529.90
534.69	38785.02
534.86	38557.99
535.03	38513.52
535.20	38986.30
535.37	38506.49
535.54	39093.97
535.71	38609.48
535.88	38911.41
536.05	38567.35
536.22	38911.41
536.38	38382.45
536.55	39168.87
536.72	38878.64
536.89	38897.36
537.06	38878.64
537.23	39351.43
537.40	39267.17
537.57	38962.90
537.74	38895.02
537.91	39285.89
538.08	39388.88
538.25	39112.69
538.42	39433.35
538.59	39318.66
538.75	39580.80
538.92	39854.64
539.09	39730.59
539.26	39473.13
539.43	39831.24
539.60	39892.09
539.77	39686.12
539.94	39999.76
540.11	39981.03
540.28	39931.88
540.44	39941.24
540.61	39798.47
540.78	40273.60
540.95	40161.25
541.12	40086.36
541.29	40161.25
541.46	40126.14
541.62	40299.34
541.79	40615.32
541.96	40016.14
542.13	39842.94
542.30	40467.86
542.47	40790.86
542.63	40676.17
542.80	40746.39
542.97	41184.07
543.14	40968.74
543.31	40428.07
543.48	40924.27
543.64	41467.27
543.81	41453.23
543.98	41006.19
544.15	41177.04
544.32	41291.73
544.48	41741.11
544.65	41219.17
544.82	41565.57
544.99	41256.62
545.16	41366.63
545.32	41422.80
545.49	41986.87
545.66	41869.84
545.83	41881.55
546.00	41998.57
546.16	41659.20
546.33	41612.38
546.50	41354.93
546.67	42033.68
546.83	41368.97
547.00	41710.69
547.17	41876.86
547.34	41853.46
547.50	41893.25
547.67	42464.34
547.84	42389.44
548.00	42223.26
548.17	42820.10
548.34	42717.12
548.51	42309.86
548.67	42597.75
548.84	42351.99
549.01	42775.63
549.18	42710.10
549.34	42656.26
549.51	42902.02
549.68	42513.49
549.84	42586.05
550.01	42663.28
550.18	42665.63
550.34	42579.03
550.51	42770.95
550.68	42438.59
550.84	42157.73
551.01	42951.17
551.18	42979.26
551.34	42614.13
551.51	42995.64
551.68	42892.66
551.84	43372.47
552.01	42754.57
552.18	42983.94
552.34	42820.10
552.51	43309.27
552.68	43077.56
552.84	43159.48
553.01	43477.79
553.18	43246.08
553.34	43356.08
553.51	43124.37
553.67	43566.73
553.84	43407.58
554.01	43629.93
554.17	43452.05
554.34	43557.37
554.51	43536.30
554.67	44179.95
554.84	43758.66
555.00	43402.89
555.17	43744.61
555.33	44023.14
555.50	43536.30
555.67	44177.61
555.83	43643.97
556.00	43922.49
556.16	44142.50
556.33	44025.48
556.50	44186.97
556.66	44467.84
556.83	43983.35
556.99	44458.48
557.16	44896.16
557.32	44292.30
557.49	44238.47
557.65	43765.68
557.82	44458.48
557.98	44011.43
558.15	44289.96
558.32	44289.96
558.48	44751.04
558.65	44598.91
558.81	44456.14
558.98	44023.14
559.14	44329.75
559.31	43976.33
559.47	44978.07
559.64	44662.10
559.80	44800.19
559.97	44612.95
560.13	44355.49
560.30	44406.98
560.46	45284.68
560.63	44844.66
560.79	44973.39
560.96	44999.14
561.12	44776.79
561.29	44973.39
561.45	44821.26
561.61	44821.26
561.78	44765.09
561.94	44381.24
562.11	45200.43
562.27	44818.92
562.44	45202.77
562.60	44818.92
562.77	44720.62
562.93	44652.74
563.10	45116.17
563.26	44739.34
563.42	44992.12
563.59	44524.01
563.75	44870.41
563.92	44872.75
564.08	44926.58
564.24	45181.70
564.41	45088.08
564.57	45338.52
564.74	45509.38
564.90	45118.51
565.07	45462.57
565.23	45191.06
565.39	45317.45
565.56	45846.41
565.72	45251.92
565.88	45448.52
566.05	45614.70
566.21	45628.74
566.38	45177.02
566.54	45223.83
566.70	45481.29
566.87	45336.18
567.03	45181.70
567.19	45598.32
567.36	45357.24
567.52	45614.70
567.68	45478.95
567.85	45635.77
568.01	45418.10
568.17	45165.32
568.34	45556.19
568.50	45815.99
568.66	44952.33
568.83	45752.79
568.99	45944.72
569.15	45757.47
569.32	45766.84
569.48	45085.74
569.64	46014.93
569.81	45715.34
569.97	46050.04
570.13	46082.81
570.30	45584.27
570.46	45755.13
570.62	46005.57
570.78	45965.78
570.95	45825.35
571.11	45841.73
571.27	45680.24
571.43	45675.55
571.60	45635.77
571.76	45790.24
571.92	45488.31
572.09	46021.95
572.25	45375.97
572.41	46131.96
572.57	45872.16
572.74	46000.89
572.90	46106.21
573.06	46225.58
573.22	45930.67
573.38	46160.05
573.55	45907.27
573.71	46237.28
573.87	46131.96
574.03	45925.99
574.20	46227.92
574.36	46176.43
574.52	46031.32
574.68	46211.54
574.84	46068.76
575.01	46244.30
575.17	46078.13
575.33	46284.09
575.49	45881.52
575.65	46230.26
575.82	46731.14
575.98	46171.75
576.14	46494.74
576.30	46719.43
576.46	46131.96
576.62	46059.40
576.79	46340.27
576.95	46012.59
577.11	46497.08
577.27	46553.26
577.43	45947.06
577.59	46396.44
577.75	45851.09
577.92	45942.38
578.08	46256.01
578.24	46195.15
578.40	46124.94
578.56	46153.02
578.72	46632.83
578.88	46291.12
579.04	46176.43
579.21	46043.02
579.37	46256.01
579.53	46571.98
579.69	46204.52
579.85	46253.67
580.01	46314.52
580.17	45954.08
580.33	46696.03
580.49	46363.67
580.65	46347.29
580.82	46515.81
580.98	46248.99
581.14	46272.39
581.30	46377.72
581.46	46012.59
581.62	45923.65
581.78	46248.99
581.94	46473.68
582.10	46178.77
582.26	46719.43
582.42	46513.47
582.58	46225.58
582.74	46464.32
582.90	46127.28
583.06	46445.59
583.22	46560.28
583.38	46679.64
583.54	46560.28
583.70	46504.10
583.86	46440.91
584.02	46382.40
584.18	46754.54
584.34	46548.57
584.50	46906.68
584.66	46993.28
584.82	46227.92
584.98	46780.29
585.14	46663.26
585.30	46239.62
585.46	46836.46
585.62	46611.77
585.78	46841.14
585.94	45942.38
586.10	46466.66
586.26	46286.43
586.42	46354.31
586.58	46864.55
586.74	46368.35
586.90	46466.66
587.06	46600.07
587.22	46721.77
587.38	46782.63
587.54	46815.40
587.70	46890.29
587.86	46602.41
588.02	46607.09
588.18	46333.24
588.34	46375.37
588.49	46817.74
588.65	46483.04
588.81	46490.06
588.97	46763.90
589.13	46777.95
589.29	46983.91
589.45	46749.86
589.61	46857.52
589.77	46979.23
589.93	46506.44
590.08	46972.21
590.24	46763.90
590.40	47309.25
590.56	46930.08
590.72	47096.26
590.88	46990.94
591.04	46520.49
591.20	47133.71
591.35	47124.35
591.51	47098.60
591.67	47213.29
591.83	47358.40
591.99	46827.10
592.15	46965.19
592.31	47243.71
592.46	46988.60
592.62	47072.85
592.78	47147.75
592.94	47803.10
593.10	47334.99
593.26	47592.45
593.41	47475.43
593.57	46904.34
593.73	46976.89
593.89	47842.89
594.05	47604.16
594.20	47337.33
594.36	47468.40
594.52	47564.37
594.68	47264.78
594.84	47391.17
594.99	47220.31
595.15	47290.52
595.31	47437.98
595.47	47445.00
595.62	47241.37
595.78	47100.94
595.94	47154.77
596.10	47189.88
596.25	47306.91
596.41	47782.04
596.57	47304.57
596.73	47407.55
596.88	47496.49
597.04	47131.37
597.20	47515.22
597.36	46841.14
597.51	47599.47
597.67	47327.97
597.83	47243.71
597.99	47264.78
598.14	47215.63
598.30	47592.45
598.46	47194.56
598.61	47547.98
598.77	47143.07
598.93	47391.17
599.09	47686.07
599.24	48102.69
599.40	47377.12
599.56	47922.47
599.71	47824.17
599.87	47835.87
600.03	48083.97
600.18	47538.62
600.34	47840.55
600.50	47302.23
600.65	47503.51
600.81	47856.93
600.97	47849.91
601.12	48027.79
601.28	47260.10
601.44	47569.05
601.59	47180.52
601.75	47758.63
601.91	47388.83
602.06	47475.43
602.22	47590.11
602.37	47327.97
602.53	47210.95
602.69	47374.78
602.84	47316.27
603.00	47112.64
603.16	47674.37
603.31	47887.36
603.47	47702.46
603.62	47601.82
603.78	47868.64
603.94	47122.01
604.09	47524.58
604.25	47395.85
604.40	47454.36
604.56	47714.16
604.71	47564.37
604.87	47253.08
605.03	46885.61
605.18	47234.35
605.34	47679.05
605.49	47297.55
605.65	47676.71
605.80	47264.78
605.96	46988.60
606.12	47496.49
606.27	47285.84
606.43	47515.22
606.58	47629.90
606.74	47215.63
606.89	47545.64
607.05	47683.73
607.20	47278.82
607.36	47320.95
607.51	47428.62
607.67	47044.77
607.82	47199.24
607.98	47487.13
608.13	47105.62
608.29	46806.03
608.44	47407.55
608.60	47206.26
608.75	47164.14
608.91	47356.06
609.06	47079.88
609.22	47503.51
609.37	47342.02
609.53	47299.89
609.68	47456.70
609.84	47430.96
609.99	46955.83
610.15	47000.30
610.30	47412.23
610.46	47054.13
610.61	46703.05
610.76	47215.63
610.92	46693.69
611.07	46759.22
611.23	47035.41
611.38	46850.50
611.54	47110.30
611.69	47199.24
611.84	47435.64
612.00	46824.76
612.15	46782.63
612.31	47297.55
612.46	46728.80
612.62	47330.31
612.77	47260.10
612.92	47342.02
613.08	46656.24
613.23	47026.04
613.39	46674.96
613.54	46579.00
613.69	46677.30
613.85	47070.51
614.00	46894.97
614.15	47143.07
614.31	46506.44
614.46	46834.12
614.62	46508.79
614.77	47063.49
614.92	46941.78
615.08	46883.27
615.23	46710.07
615.38	47180.52
615.54	46768.58
615.69	46557.94
615.84	46885.61
616.00	46934.76
616.15	46658.58
616.30	46665.60
616.46	46707.73
616.61	46728.80
616.76	46684.33
616.92	46237.28
617.07	46904.34
617.22	46258.35
617.37	46382.40
617.53	46646.88
617.68	46813.05
617.83	46443.25
617.99	46831.78
618.14	46855.18
618.29	46363.67
618.45	46398.78
618.60	46260.69
618.75	46054.72
618.90	46199.83
619.06	46454.95
619.21	46263.03
619.36	46054.72
619.51	46031.32
619.67	46012.59
619.82	45998.55
619.97	46181.11
620.12	46464.32
620.28	46171.75
620.43	46141.32
620.58	46099.19
620.73	46288.77
620.89	46511.13
621.04	45883.86
621.19	46131.96
621.34	46033.66
621.49	46036.00
621.65	46033.66
621.80	46307.50
621.95	46155.36
622.10	45909.61
622.25	45727.05
622.41	45783.22
622.56	45977.48
622.71	46279.41
622.86	45937.69
623.01	46089.83
623.16	45673.21
623.32	45801.94
623.47	45698.96
623.62	45907.27
623.77	45635.77
623.92	45518.74
624.07	45521.08
624.23	45860.46
624.38	45801.94
624.53	45666.19
624.68	45263.62
624.83	45635.77
624.98	45476.61
625.13	44708.91
625.29	45111.49
625.44	45846.41
625.59	45216.81
625.74	45429.80
625.89	45146.59
626.04	45109.14
626.19	45469.59
626.34	45233.19
626.49	44996.80
626.65	45230.85
626.80	44903.18
626.95	44575.50
627.10	44751.04
627.25	45425.12
627.40	44818.92
627.55	45160.64
627.70	44877.43
627.85	45322.13
628.00	45294.05
628.15	44891.48
628.30	44446.77
628.45	44807.22
628.60	44322.72
628.76	44645.72
628.91	44577.84
629.06	44369.54
629.21	44311.02
629.36	44835.30
629.51	44729.98
629.66	44971.05
629.81	44580.18
629.96	44584.86
630.11	44364.85
630.26	44580.18
630.41	44622.31
630.56	44439.75
630.71	44542.74
630.86	44289.96
631.01	44442.09
631.16	44179.95
631.31	44339.11
631.46	44369.54
631.61	44549.76
631.76	44982.76
631.91	44456.14
632.06	44814.24
632.21	44404.64
632.36	44662.10
632.51	44533.37
632.66	44692.53
632.81	44163.57
632.96	44404.64
633.10	43789.08
633.25	44322.72
633.40	44044.20
633.55	44086.33
633.70	44519.33
633.85	43721.21
634.00	43936.54
634.15	44308.68
634.30	44191.65
634.45	43756.32
634.60	44114.42
634.75	44058.24
634.90	43716.53
635.05	44280.60
635.19	44083.99
635.34	43782.06
635.49	43529.28
635.64	43555.03
635.79	43779.72
635.94	43976.33
636.09	43810.15
636.24	43728.23
636.39	43997.39
636.53	44032.50
636.68	43536.30
636.83	43566.73
636.98	43466.09
637.13	43491.83
637.28	43257.78
637.43	43302.25
637.57	43744.61
637.72	43393.53
637.87	43398.21
638.02	43878.02
638.17	43150.12
638.32	42988.62
638.46	43007.34
638.61	42953.51
638.76	42759.25
638.91	43564.39
639.06	42632.86
639.20	43208.63
639.35	42766.27
639.50	42777.97
639.65	42813.08
639.80	43203.95
639.94	43306.93
640.09	43278.85
640.24	43075.22
640.39	42892.66
640.54	42344.97
640.68	43026.07
640.83	43124.37
640.98	42726.48
641.13	42677.33
641.27	43157.14
641.42	42834.14
641.57	42749.88
641.72	42866.91
641.86	42873.93
642.01	42740.52
642.16	42838.83
642.31	42246.67
642.45	42831.80
642.60	42089.85
642.75	42586.05
642.90	42976.92
643.04	42440.93
643.19	42522.85
643.34	42080.49
643.48	42305.18
643.63	42356.67
643.78	42356.67
643.93	42518.17
644.07	42356.67
644.22	42328.59
644.37	41933.04
644.51	42665.63
644.66	42377.74
644.81	42153.05
644.95	41977.51
645.10	42012.62
645.25	42185.82
645.39	41837.08
645.54	42024.32
645.69	41794.95
645.83	41816.01
645.98	41771.54
646.13	41897.93
646.27	42047.72
646.42	41570.25
646.57	42064.11
646.71	42089.85
646.86	42543.92
647.00	42064.11
647.15	41528.13
647.30	42398.80
647.44	41635.79
647.59	41701.32
647.74	41523.44
647.88	41605.36
648.03	42192.84
648.17	42176.45
648.32	41675.58
648.47	41904.95
648.61	41928.36
648.76	41291.73
648.90	41469.61
649.05	41558.55
649.20	41682.60
649.34	41816.01
649.49	41525.78
649.63	41619.41
649.78	41691.96
649.92	41567.91
650.07	42227.95
650.21	41944.74
650.36	41860.48
650.51	41387.69
650.65	41628.77
650.80	41521.10
650.94	41596.00
651.09	41453.23
651.23	41291.73
651.38	40992.14
651.52	40559.14
651.67	41097.47
651.81	40802.56
651.96	40762.77
652.10	40701.92
652.25	41027.25
652.39	41158.32
652.54	41244.92
652.68	41118.53
652.83	40816.60
652.97	41361.95
653.12	40807.24
653.26	40987.46
653.41	40832.99
653.55	40994.48
653.70	40947.67
653.84	41083.42
653.99	40840.01
654.13	40329.77
654.27	40432.75
654.42	40666.81
654.56	40772.13
654.71	40701.92
654.85	40577.87
655.00	40549.78
655.14	40357.86
655.29	40591.91
655.43	40828.30
655.57	40549.78
655.72	40212.74
655.86	40538.08
656.01	40357.86
656.15	40306.37
656.30	40357.86
656.44	40835.33
656.58	40327.43
656.73	40067.63
656.87	39922.52
657.01	39782.09
657.16	40397.65
657.30	40245.51
657.45	39864.00
657.59	39908.47
657.73	40023.16
657.88	39854.64
658.02	40142.53
658.16	40402.33
658.31	40177.64
658.45	39866.34
658.60	39690.80
658.74	40051.25
658.88	39550.37
659.03	39557.39
659.17	39667.40
659.31	39267.17
659.46	39278.87
659.60	39187.59
659.74	39796.13
659.89	39239.08
660.03	39126.74
660.17	39550.37
660.32	38983.96
660.46	39246.10
660.60	38820.13
660.74	38927.79
660.89	39227.38
661.03	38979.28
661.17	38403.51
661.32	38864.60
661.46	38988.64
661.60	38742.89
661.74	38953.54
661.89	38546.28
662.03	39086.95
662.17	38466.70
662.31	38923.11
662.46	38689.06
662.60	38216.27
662.74	38337.98
662.88	38216.27
663.03	38139.03
663.17	38003.28
663.31	37869.87
663.45	38323.93
663.60	38452.66
663.74	38195.20
663.88	38340.32
664.02	37848.80
664.17	38150.73
664.31	37741.14
664.45	37289.42
664.59	37488.36
664.73	37844.12
664.88	37699.01
665.02	38005.62
665.16	37600.71
665.30	37813.70
665.44	37549.21
665.59	37546.87
665.73	37273.03
665.87	37055.36
666.01	36877.48
666.15	36814.29
666.29	37041.32
666.44	37404.10
666.58	37289.42
666.72	36715.98
666.86	37191.11
667.00	36898.55
667.14	36725.35
667.28	36828.33
667.43	36566.19
667.57	37273.03
667.71	36978.12
667.85	36973.44
667.99	36706.62
668.13	36376.61
668.27	36371.92
668.41	36065.31
668.56	35899.14
668.70	35707.21
668.84	35725.94
668.98	36006.80
669.12	35988.08
669.26	36247.88
669.40	36250.22
669.54	36212.77
669.68	36067.66
669.82	35997.44
669.96	35302.30
670.10	35196.98
670.25	35548.06
670.39	35620.61
670.53	35758.70
670.67	35620.61
670.81	35763.39
670.95	35517.63
671.09	35377.20
671.23	35367.84
671.37	35325.71
671.51	35042.50
671.65	34546.31
671.79	34869.30
671.93	34923.13
672.07	35037.82
672.21	34843.56
672.35	34766.32
672.49	34834.19
672.63	34501.84
672.77	34426.94
672.91	34139.05
673.05	34092.24
673.19	34106.29
673.33	34036.07
673.47	33827.76
673.61	33612.43
673.75	33558.60
673.89	33434.55
674.03	33242.63
674.17	33614.77
674.31	33521.15
674.45	33408.81
674.59	33392.42
674.73	33249.65
674.87	33106.88
675.01	32708.99
675.15	32790.91
675.29	32655.15
675.43	32769.84
675.56	32978.15
675.70	32407.06
675.84	32416.42
675.98	31812.56
676.12	32449.19
676.26	32865.80
676.40	32212.79
676.54	31906.18
676.68	32135.56
676.82	31395.95
676.96	31936.61
677.10	32233.86
677.23	31653.40
677.37	31892.14
677.51	31644.04
677.65	31379.56
677.79	31108.06
677.93	31564.46
678.07	31133.81
678.21	30939.54
678.34	30892.73
678.48	30551.01
678.62	30644.63
678.76	30401.22
678.90	30569.74
679.04	30717.19
679.18	31243.81
679.31	30225.68
679.45	30288.87
679.59	30115.67
679.73	30352.07
679.87	30157.80
680.00	30209.29
680.14	29743.53
680.28	29731.83
680.42	29661.61
680.56	29626.50
680.70	29350.32
680.83	29291.80
680.97	29406.49
681.11	29579.69
681.25	28622.41
681.39	28690.29
681.52	28900.94
681.66	28374.31
681.80	28514.75
681.94	28205.80
682.07	28128.56
682.21	27866.42
682.35	28276.01
682.49	27765.78
682.62	27913.23
682.76	28037.28
682.90	28126.22
683.04	27388.95
683.17	27985.79
683.31	27536.40
683.45	27494.27
683.59	27145.53
683.72	27353.84
683.86	27267.24
684.00	27292.99
684.13	27166.60
684.27	26661.04
684.41	26663.38
684.55	26483.16
684.68	26836.58
684.82	26237.41
684.96	26462.10
685.09	26401.24
685.23	26562.74
685.37	26775.73
685.50	26642.32
685.64	26295.92
685.78	25900.37
685.91	25584.40
686.05	25619.50
686.19	25495.46
686.32	25329.28
686.46	25319.92
686.60	24954.79
686.73	25532.90
686.87	25027.35
687.01	25095.22
687.14	24706.70
687.28	24989.90
687.42	24980.54
687.55	24975.86
687.69	24753.51
687.82	24613.07
687.96	24631.80
688.10	24828.40
688.23	24346.25
688.37	24308.80
688.50	24348.59
688.64	24180.07
688.78	24079.43
688.91	24236.25
689.05	23704.95
689.18	23438.12
689.32	23372.59
689.46	23220.45
689.59	23033.21
689.73	23349.18
689.86	23353.87
690.00	23260.24
690.13	23058.96
690.27	22963.00
690.41	22988.74
690.54	22860.01
690.68	22396.59
690.81	22558.08
690.95	22270.20
691.08	22216.36
691.22	22125.08
691.35	22204.66
691.49	22263.18
691.62	22263.18
691.76	22003.38
691.89	21710.81
692.03	21425.26
692.16	21418.24
692.30	21376.11
692.43	21553.99
692.57	21160.78
692.70	21123.33
692.84	21060.14
692.97	20814.38
693.11	20718.42
693.24	20594.37
693.38	20535.86
693.51	20662.25
693.65	20470.33
693.78	20304.15
693.92	20229.25
694.05	20507.77
694.19	20222.23
694.32	20072.43
694.45	19955.41
694.59	20161.37
694.72	20072.43
694.86	19573.90
694.99	19611.35
695.13	19491.98
695.26	19356.23
695.39	19262.61
695.53	19274.31
695.66	19435.81
695.80	19087.07
695.93	19293.04
696.07	18958.34
696.20	18717.26
696.33	18539.38
696.47	18546.40
696.60	18480.87
696.73	18298.31
696.87	18764.07
697.00	18558.11
697.14	18279.58
697.27	18291.29
697.40	18087.66
697.54	18099.36
697.67	18022.12
697.80	18244.48
697.94	18008.08
698.07	17830.20
698.21	17575.08
698.34	17563.38
698.47	17301.24
698.61	17160.81
698.74	17401.88
698.87	17046.12
699.01	17163.15
699.14	16903.35
699.27	16959.52
699.40	17095.27
699.54	16741.85
699.67	16978.25
699.80	16861.22
699.94	16826.11
700.07	16791.00
700.20	16423.54
700.34	16273.74
700.47	16322.90
700.60	16596.74
700.73	16311.19
700.87	16105.23
701.00	15962.45
701.13	15665.21
701.26	15878.19
701.40	15838.41
701.53	15681.59
701.66	15456.90
701.79	15742.44
701.93	15468.60
702.06	15417.11
702.19	15246.25
702.32	15356.25
702.46	15255.61
702.59	15159.65
702.72	15283.70
702.85	15410.09
702.99	15342.21
703.12	15166.67
703.25	14778.14
703.38	14829.63
703.51	14834.32
703.65	14420.04
703.78	14118.11
703.91	14249.18
704.04	14368.55
704.17	14251.52
704.31	14307.69
704.44	14263.22
704.57	14148.54
704.70	13947.25
704.83	13912.14
704.96	13919.17
705.10	13776.39
705.23	13694.47
>>>>>End Processed Spectral Data<<<<<
