SpectraSuite Data File
++++++++++++++++++++++++++++++++++++
Date: Fri Oct 25 11:33:44 EDT 2013
User: price-jones
Dark Spectrum Present: No
Reference Spectrum Present: No
Number of Sampled Component Spectra: 1
Spectrometers: USB2+H05261
Integration Time (usec): 100000 (USB2+H05261)
Spectra Averaged: 1 (USB2+H05261)
Boxcar Smoothing: 0 (USB2+H05261)
Correct for Electrical Dark: No (USB2+H05261)
Strobe/Lamp Enabled: No (USB2+H05261)
Correct for Detector Non-linearity: No (USB2+H05261)
Correct for Stray Light: No (USB2+H05261)
Number of Pixels in Processed Spectrum: 2048
>>>>>Begin Processed Spectral Data<<<<<
365.73	299.59
365.92	299.59
366.12	299.59
366.32	147.45
366.52	187.24
366.72	194.26
366.91	166.18
367.11	168.52
367.31	173.20
367.51	210.65
367.70	203.63
367.90	203.63
368.10	175.54
368.30	212.99
368.49	117.03
368.69	187.24
368.89	159.16
369.09	248.10
369.28	264.48
369.48	252.78
369.68	264.48
369.87	215.33
370.07	264.48
370.27	217.67
370.47	294.91
370.66	465.77
370.86	479.81
371.06	524.28
371.25	554.71
371.45	552.37
371.65	543.00
371.84	465.77
372.04	561.73
372.24	545.34
372.44	631.94
372.63	575.77
372.83	552.37
373.03	660.03
373.22	601.52
373.42	587.47
373.62	603.86
373.81	582.79
374.01	636.63
374.21	636.63
374.40	585.13
374.60	678.76
374.79	660.03
374.99	667.05
375.19	629.60
375.38	699.82
375.58	697.48
375.78	767.70
375.97	720.88
376.17	727.91
376.37	753.65
376.56	688.12
376.76	692.80
376.95	664.71
377.15	678.76
377.35	650.67
377.54	671.73
377.74	734.93
377.93	624.92
378.13	685.78
378.33	706.84
378.52	667.05
378.72	681.10
378.91	709.18
379.11	737.27
379.31	730.25
379.50	667.05
379.70	814.51
379.89	678.76
380.09	711.52
380.28	683.44
380.48	800.46
380.68	713.86
380.87	723.23
381.07	753.65
381.26	800.46
381.46	741.95
381.65	781.74
381.85	716.20
382.04	770.04
382.24	772.38
382.43	887.06
382.63	814.51
382.83	758.33
383.02	805.14
383.22	807.48
383.41	784.08
383.61	763.01
383.80	767.70
384.00	849.61
384.19	877.70
384.39	805.14
384.58	856.64
384.78	805.14
384.97	767.70
385.17	819.19
385.36	807.48
385.56	877.70
385.75	798.12
385.95	809.83
386.14	922.17
386.34	901.11
386.53	835.57
386.72	826.21
386.92	961.96
387.11	814.51
387.31	922.17
387.50	905.79
387.70	866.00
387.89	880.04
388.09	880.04
388.28	947.92
388.48	898.77
388.67	940.90
388.86	861.32
389.06	880.04
389.25	931.53
389.45	978.34
389.64	947.92
389.84	1053.24
390.03	1029.84
390.22	1071.97
390.42	992.39
390.61	985.37
390.81	976.00
391.00	997.07
391.19	1036.86
391.39	1008.77
391.58	999.41
391.78	952.60
391.97	1043.88
392.16	971.32
392.36	1041.54
392.55	1032.18
392.75	1076.65
392.94	1069.62
393.13	1137.50
393.33	1064.94
393.52	1078.99
393.71	1050.90
393.91	1050.90
394.10	1109.41
394.29	1116.44
394.49	1097.71
394.68	1121.12
394.88	1064.94
395.07	1144.52
395.26	1151.54
395.46	1160.91
395.65	1181.97
395.84	1184.31
396.04	1226.44
396.23	1249.85
396.42	1135.16
396.62	1191.33
396.81	1226.44
397.00	1231.12
397.19	1153.88
397.39	1224.10
397.58	1249.85
397.77	1184.31
397.97	1203.04
398.16	1210.06
398.35	1284.95
398.55	1341.13
398.74	1249.85
398.93	1263.89
399.12	1306.02
399.32	1348.15
399.51	1378.58
399.70	1376.24
399.90	1345.81
400.09	1334.11
400.28	1301.34
400.47	1446.45
400.67	1350.49
400.86	1331.76
401.05	1437.09
401.24	1479.22
401.44	1364.53
401.63	1502.62
401.82	1460.49
402.01	1418.36
402.21	1369.21
402.40	1394.96
402.59	1481.56
402.78	1521.35
402.97	1509.65
403.17	1455.81
403.36	1427.73
403.55	1462.83
403.74	1533.05
403.93	1629.01
404.13	1659.44
404.32	1582.20
404.51	1521.35
404.70	1668.80
404.89	1694.55
405.09	1621.99
405.28	1692.21
405.47	1675.82
405.66	1788.17
405.85	1724.97
406.05	1834.98
406.24	1830.30
406.43	1715.61
406.62	1844.34
406.81	1893.49
407.00	1734.34
407.20	1760.08
407.39	1769.44
407.58	1860.73
407.77	1858.39
407.96	1856.04
408.15	1832.64
408.34	1900.52
408.54	1895.83
408.73	1842.00
408.92	1921.58
409.11	1944.99
409.30	2017.54
409.49	1949.67
409.68	2033.93
409.87	2040.95
410.07	1996.48
410.26	2038.61
410.45	2008.18
410.64	2097.12
410.83	2134.57
411.02	2209.47
411.21	2235.21
411.40	2097.12
411.59	2167.34
411.78	2195.42
411.98	2132.23
412.17	2146.27
412.36	2342.88
412.55	2235.21
412.74	2317.13
412.93	2361.60
413.12	2366.28
413.31	2431.82
413.50	2296.07
413.69	2403.73
413.88	2513.74
414.07	2485.65
414.26	2434.16
414.45	2548.84
414.64	2546.50
414.83	2562.89
415.02	2586.29
415.22	2792.26
415.41	2708.00
415.60	2628.42
415.79	2682.25
415.98	2679.91
416.17	2668.21
416.36	2796.94
416.55	2801.62
416.74	2752.47
416.93	2705.66
417.12	2892.90
417.31	2839.07
417.50	2946.73
417.69	2860.13
417.88	2991.20
418.07	2874.18
418.26	2881.20
418.45	2991.20
418.64	2930.35
418.83	3019.29
419.02	2991.20
419.21	3105.89
419.39	3234.62
419.58	3066.10
419.77	3108.23
419.96	3255.69
420.15	3129.30
420.34	3145.68
420.53	3173.77
420.72	3307.18
420.91	3183.13
421.10	3173.77
421.29	3295.47
421.48	3246.32
421.67	3459.31
421.86	3328.24
422.05	3318.88
422.24	3414.84
422.43	3417.18
422.61	3302.50
422.80	3344.63
422.99	3419.52
423.18	3454.63
423.37	3485.06
423.56	3541.23
423.75	3290.79
423.94	3318.88
424.13	3141.00
424.32	3295.47
424.50	3463.99
424.69	3524.85
424.88	3419.52
425.07	3513.14
425.26	3337.60
425.45	3353.99
425.64	3379.73
425.83	3426.54
426.01	3545.91
426.20	3442.93
426.39	3623.15
426.58	3548.25
426.77	3471.01
426.96	3492.08
427.15	3370.37
427.33	3588.04
427.52	3566.98
427.71	3630.17
427.90	3627.83
428.09	3566.98
428.28	3562.30
428.46	3700.39
428.65	3747.20
428.84	3859.54
429.03	3801.03
429.22	3735.50
429.40	3693.37
429.59	3854.86
429.78	3595.06
429.97	3522.51
430.16	3852.52
430.34	3840.82
430.53	3899.33
430.72	3840.82
430.91	3756.56
431.10	3871.25
431.28	3889.97
431.47	4018.70
431.66	3943.80
431.85	3875.93
432.03	3962.53
432.22	4056.15
432.41	3983.59
432.60	4163.81
432.79	4065.51
432.97	4152.11
433.16	4058.49
433.35	4175.52
433.54	4203.60
433.72	4210.62
433.91	4215.30
434.10	4255.09
434.28	4231.69
434.47	4264.46
434.66	4311.27
434.85	4306.59
435.03	4311.27
435.22	4337.01
435.41	4482.13
435.59	4428.29
435.78	4463.40
435.97	4304.25
436.16	4294.88
436.34	4351.06
436.53	4374.46
436.72	4458.72
436.90	4547.66
437.09	4411.91
437.28	4458.72
437.46	4566.39
437.65	4568.73
437.84	4594.47
438.02	4475.10
438.21	4727.88
438.40	4599.15
438.58	4755.97
438.77	4835.55
438.96	4833.21
439.14	4889.38
439.33	4887.04
439.52	4821.50
439.70	4840.23
439.89	5093.01
440.08	5118.75
440.26	5095.35
440.45	4950.23
440.63	4954.91
440.82	5132.79
441.01	5053.22
441.19	5193.65
441.38	5268.55
441.57	5256.84
441.75	5315.36
441.94	5453.45
442.12	5327.06
442.31	5516.64
442.50	5434.72
442.68	5537.71
442.87	5607.92
443.05	5486.22
443.24	5591.54
443.43	5495.58
443.61	5537.71
443.80	5647.71
443.98	5521.32
444.17	5465.15
444.35	5586.86
444.54	5549.41
444.73	5528.35
444.91	5526.00
445.10	5771.76
445.28	5673.46
445.47	5701.54
445.65	5612.60
445.84	5631.33
446.02	5722.61
446.21	5678.14
446.39	5607.92
446.58	5825.59
446.77	5820.91
446.95	5589.20
447.14	5617.29
447.32	5806.87
447.51	5870.06
447.69	5631.33
447.88	5825.59
448.06	5788.14
448.25	5788.14
448.43	5900.49
448.62	5844.32
448.80	5837.30
448.99	5921.56
449.17	5930.92
449.36	5865.38
449.54	5853.68
449.73	6132.20
449.91	6188.38
450.10	6064.33
450.28	6181.35
450.46	6160.29
450.65	6169.65
450.83	6069.01
451.02	6125.18
451.20	6190.72
451.39	6298.38
451.57	6094.76
451.76	6108.80
451.94	6403.71
452.13	6331.15
452.31	6277.32
452.49	6237.53
452.68	6338.17
452.86	6424.77
453.05	6406.05
453.23	6436.47
453.42	6384.98
453.60	6466.90
453.78	6406.05
453.97	6366.26
454.15	6326.47
454.34	6356.90
454.52	6506.69
454.70	6558.18
454.89	6506.69
455.07	6710.32
455.26	6604.99
455.44	6815.64
455.62	6647.12
455.81	6684.57
455.99	6829.68
456.17	6822.66
456.36	6792.23
456.54	6766.49
456.73	6834.36
456.91	7073.10
457.09	7077.78
457.28	7021.61
457.46	7033.31
457.64	7019.27
457.83	7281.41
458.01	7021.61
458.19	7335.24
458.38	7084.80
458.56	7187.79
458.74	7218.21
458.93	7171.40
459.11	7417.16
459.29	7234.60
459.48	7225.23
459.66	7122.25
459.84	7288.43
460.03	7522.48
460.21	7485.03
460.39	7279.07
460.57	7517.80
460.76	7534.18
460.94	7531.84
461.12	7531.84
461.31	7396.09
461.49	7632.49
461.67	7648.87
461.85	7632.49
462.04	7627.81
462.22	8049.10
462.40	7742.49
462.59	7749.51
462.77	7686.32
462.95	7826.75
463.13	7892.29
463.32	7768.24
463.50	7719.09
463.68	7939.10
463.86	7939.10
464.05	7929.74
464.23	7983.57
464.41	7990.59
464.59	7901.65
464.78	8002.29
464.96	7976.55
465.14	7845.48
465.32	8025.70
465.50	8030.38
465.69	8126.34
465.87	8004.63
466.05	8194.22
466.23	8098.25
466.41	8234.00
466.60	8306.56
466.78	8222.30
466.96	8287.84
467.14	8224.64
467.32	8416.57
467.51	8355.71
467.69	8210.60
467.87	8383.80
468.05	8540.61
468.23	8287.84
468.41	8454.02
468.60	8547.64
468.78	8503.17
468.96	8491.46
469.14	8465.72
469.32	8652.96
469.50	8486.78
469.69	8690.41
469.87	8711.47
470.05	8716.16
470.23	8702.11
470.41	8809.78
470.59	8901.06
470.77	8915.10
470.95	8795.73
471.14	9036.81
471.32	8898.72
471.50	8901.06
471.68	9195.96
471.86	9032.13
472.04	9114.05
472.22	9324.69
472.40	9160.86
472.58	9200.65
472.77	9338.74
472.95	9376.19
473.13	9675.77
473.31	9488.53
473.49	9483.85
473.67	9469.81
473.85	9584.49
474.03	9654.71
474.21	9781.10
474.39	9685.14
474.57	9956.64
474.75	9792.80
474.93	9994.09
475.12	10019.83
475.30	10228.14
475.48	10066.64
475.66	10279.63
475.84	9944.94
476.02	10214.10
476.20	10223.46
476.38	10230.48
476.56	10895.19
476.74	10579.22
476.92	10658.80
477.10	10494.96
477.28	10775.83
477.46	10963.07
477.64	10768.80
477.82	10836.68
478.00	11129.25
478.18	11370.32
478.36	11173.72
478.54	11442.88
478.72	11431.18
478.90	11571.61
479.08	11543.52
479.26	11751.83
479.44	11618.42
479.62	11707.36
479.80	11857.15
479.98	11850.13
480.16	12250.36
480.34	12147.38
480.52	12351.01
480.70	12292.49
480.88	12194.19
481.06	12238.66
481.24	12367.39
481.41	12493.78
481.59	12587.40
481.77	12863.58
481.95	12662.30
482.13	13221.69
482.31	12929.12
482.49	13200.62
482.67	13174.88
482.85	13294.24
483.03	13558.72
483.21	13703.84
483.39	13738.94
483.57	13591.49
483.74	14108.75
483.92	14253.86
484.10	14050.24
484.28	14193.01
484.46	14244.50
484.64	14794.53
484.82	14452.81
485.00	14677.50
485.18	14661.12
485.35	15187.74
485.53	15089.43
485.71	15117.52
485.89	15501.37
486.07	15274.34
486.25	15417.11
486.43	15499.03
486.61	15709.68
486.78	16023.31
486.96	15950.75
487.14	16339.28
487.32	16266.72
487.50	16180.12
487.68	16278.43
487.85	16648.23
488.03	16435.24
488.21	17242.73
488.39	17259.11
488.57	17013.35
488.75	17270.81
488.92	17397.20
489.10	17659.34
489.28	17551.68
489.46	17984.68
489.64	17467.42
489.81	18120.43
489.99	18019.78
490.17	18438.74
490.35	18523.00
490.53	18546.40
490.70	18368.52
490.88	18719.60
491.06	19166.65
491.24	18995.79
491.41	19300.06
491.59	19449.85
491.77	18988.77
491.95	19573.90
492.13	19627.73
492.30	19742.42
492.48	19524.75
492.66	19983.49
492.84	20051.37
493.01	20210.53
493.19	20154.35
493.37	20042.01
493.54	20304.15
493.72	20561.61
493.90	20680.97
494.08	20627.14
494.25	21046.10
494.43	20870.56
494.61	21228.66
494.79	21050.78
494.96	21160.78
495.14	21490.80
495.32	21446.33
495.49	21809.11
495.67	21916.78
495.85	22242.11
496.02	22120.40
496.20	22242.11
496.38	22670.43
496.55	22270.20
496.73	23129.17
496.91	22607.23
497.09	22951.29
497.26	22881.08
497.44	22735.96
497.62	23115.13
497.79	23384.29
497.97	23309.40
498.14	23751.76
498.32	23707.29
498.50	23747.08
498.67	24086.45
498.85	23803.25
499.03	23988.15
499.20	24130.92
499.38	24166.03
499.56	24528.81
499.73	24545.20
499.91	24311.14
500.08	24746.48
500.26	24711.38
500.44	24858.83
500.61	24704.35
500.79	24718.40
500.97	24973.52
501.14	25284.81
501.32	25350.34
501.49	25448.64
501.67	25448.64
501.84	25572.69
502.02	25443.96
502.20	25638.23
502.37	25731.85
502.55	25621.84
502.72	25979.95
502.90	25596.10
503.07	26326.35
503.25	25762.28
503.43	26169.53
503.60	26295.92
503.78	26476.14
503.95	26284.22
504.13	26679.77
504.30	26679.77
504.48	26604.87
504.65	26668.06
504.83	26773.39
505.01	27309.37
505.18	26927.86
505.36	27672.15
505.53	27138.51
505.71	27208.73
505.88	27517.68
506.06	26817.86
506.23	27618.32
506.41	27730.67
506.58	27843.01
506.76	27997.49
506.93	28037.28
507.11	28297.08
507.28	28100.47
507.46	28250.27
507.63	28313.46
507.81	28306.44
507.98	28379.00
508.16	28687.95
508.33	28652.84
508.50	29261.38
508.68	28570.92
508.85	29284.78
509.03	28938.38
509.20	28816.68
509.38	29397.13
509.55	29109.24
509.73	29570.33
509.90	29172.44
510.08	29766.93
510.25	29654.59
510.42	29694.38
510.60	29986.94
510.77	29855.87
510.95	30412.92
511.12	29642.88
511.30	30125.04
511.47	30143.76
511.64	30288.87
511.82	30314.62
511.99	30464.41
512.17	30408.24
512.34	30705.49
512.51	30871.67
512.69	31054.23
512.86	30724.21
513.04	30705.49
513.21	30923.16
513.38	31105.72
513.56	31037.84
513.73	31239.13
513.90	31304.67
514.08	30953.58
514.25	31627.66
514.43	31304.67
514.60	31693.19
514.77	31557.44
514.95	32154.28
515.12	31723.62
515.29	31440.42
515.47	32098.11
515.64	32449.19
515.81	31679.15
515.99	32114.49
516.16	32608.34
516.33	32486.64
516.51	32617.71
516.68	32224.50
516.85	32465.57
517.03	33046.02
517.20	32858.78
517.37	32741.75
517.54	32699.62
517.72	33085.81
517.89	32933.68
518.06	33120.92
518.24	33120.92
518.41	32746.44
518.58	33134.96
518.75	32851.76
518.93	33448.60
519.10	33572.64
519.27	33523.49
519.45	33144.33
519.62	33383.06
519.79	33394.76
519.96	34108.63
520.14	33542.22
520.31	34005.64
520.48	34253.74
520.65	34291.19
520.83	34218.63
521.00	34370.77
521.17	33783.29
521.34	34581.42
521.52	34820.15
521.69	34340.34
521.86	34679.72
522.03	34836.53
522.20	34885.68
522.38	35119.74
522.55	34906.75
522.72	34944.20
522.89	34843.56
523.07	35133.78
523.24	35049.52
523.41	35335.07
523.58	35316.34
523.75	35283.58
523.92	35667.42
524.10	35573.80
524.27	35660.40
524.44	35550.40
524.61	35571.46
524.78	35803.17
524.96	35913.18
525.13	35988.08
525.30	36531.08
525.47	36163.62
525.64	35702.53
525.81	36479.59
525.98	36339.16
526.16	36439.80
526.33	36615.34
526.50	36748.75
526.67	36795.56
526.84	36774.50
527.01	36510.02
527.18	37015.57
527.36	37034.30
527.53	37022.59
527.70	37378.36
527.87	37647.52
528.04	37003.87
528.21	36795.56
528.38	36776.84
528.55	37621.77
528.72	37158.34
528.89	37170.05
529.07	36982.80
529.24	37200.47
529.41	37528.15
529.58	37333.89
529.75	37521.13
529.92	37565.60
530.09	37804.33
530.26	37713.05
530.43	37972.85
530.60	37787.95
530.77	37755.18
530.94	37682.62
531.11	37890.93
531.28	38141.37
531.46	38026.68
531.63	38148.39
531.80	38230.31
531.97	38216.27
532.14	38565.01
532.31	38211.59
532.48	38761.61
532.65	38801.40
532.82	38637.56
532.99	38518.20
533.16	38316.91
533.33	39351.43
533.50	38775.66
533.67	38698.42
533.84	38836.51
534.01	38948.85
534.18	38939.49
534.35	39473.13
534.52	39072.90
534.69	39529.31
534.86	39655.70
535.03	39529.31
535.20	39194.61
535.37	39292.91
535.54	39777.40
535.71	39206.31
535.88	39569.10
536.05	39938.90
536.22	39835.92
536.38	39501.22
536.55	39910.82
536.72	39714.21
536.89	39824.22
537.06	40191.68
537.23	40294.66
537.40	39812.51
537.57	39913.16
537.74	39578.46
537.91	40547.44
538.08	40215.08
538.25	39976.35
538.42	40163.59
538.59	40414.03
538.75	40072.31
538.92	40615.32
539.09	40308.71
539.26	40760.43
539.43	40615.32
539.60	40776.81
539.77	40776.81
539.94	40912.56
540.11	40498.29
540.28	40811.92
540.44	40825.96
540.61	40896.18
540.78	40865.75
540.95	40863.41
541.12	40545.10
541.29	40938.31
541.46	41097.47
541.62	40961.72
541.79	41404.08
541.96	40542.76
542.13	41249.60
542.30	41242.58
542.47	40921.93
542.63	41848.78
542.80	41214.49
542.97	42075.81
543.14	41958.78
543.31	41916.65
543.48	41853.46
543.64	41968.15
543.81	42087.51
543.98	42031.34
544.15	42010.28
544.32	42426.89
544.48	42363.70
544.65	42340.29
544.82	42347.31
544.99	41933.04
545.16	42415.19
545.32	42609.45
545.49	42700.73
545.66	42838.83
545.83	42930.11
546.00	42667.97
546.16	42658.60
546.33	42576.69
546.50	42490.09
546.67	42852.87
546.83	42501.79
547.00	42646.90
547.17	43051.81
547.34	42731.16
547.50	43103.31
547.67	43091.60
547.84	42983.94
548.00	43316.29
548.17	43643.97
548.34	43185.22
548.51	43356.08
548.67	43349.06
548.84	43152.46
549.01	43210.97
549.18	43508.22
549.34	43805.47
549.51	43356.08
549.68	43445.02
549.84	43192.25
550.01	43559.71
550.18	43449.70
550.34	43311.61
550.51	43938.88
550.68	43423.96
550.84	43213.31
551.01	44086.33
551.18	43807.81
551.34	43627.59
551.51	43643.97
551.68	43599.50
551.84	43971.64
552.01	43660.35
552.18	43920.15
552.34	43913.13
552.51	44119.10
552.68	43859.30
552.84	44322.72
553.01	44119.10
553.18	44236.12
553.34	44484.22
553.51	44109.74
553.67	44341.45
553.84	44547.42
554.01	43997.39
554.17	44390.60
554.34	44208.04
554.51	44641.04
554.67	44847.00
554.84	44865.73
555.00	44935.95
555.17	44212.72
555.33	44514.65
555.50	44734.66
555.67	44645.72
555.83	44528.69
556.00	44608.27
556.16	45319.79
556.33	45043.61
556.50	44786.15
556.66	44938.29
556.83	44292.30
556.99	45092.76
557.16	44762.75
557.32	45610.02
557.49	45251.92
557.65	45113.83
557.82	45132.55
557.98	45118.51
558.15	44882.11
558.32	45134.89
558.48	44907.86
558.65	45308.09
558.81	45453.20
558.98	45006.16
559.14	45429.80
559.31	45146.59
559.47	45235.53
559.64	45607.68
559.80	45237.87
559.97	45406.39
560.13	45041.27
560.30	45645.13
560.46	45710.66
560.63	45476.61
560.79	45876.84
560.96	45722.37
561.12	46057.06
561.29	45404.05
561.45	45921.31
561.61	45425.12
561.78	45806.62
561.94	45705.98
562.11	45624.06
562.27	45535.12
562.44	45352.56
562.60	46012.59
562.77	45895.56
562.93	45989.19
563.10	46307.50
563.26	45659.17
563.42	46014.93
563.59	45588.95
563.75	45556.19
563.92	46094.51
564.08	45963.44
564.24	46546.23
564.41	46012.59
564.57	46033.66
564.74	46146.00
564.90	45918.97
565.07	46373.03
565.23	45986.85
565.39	45991.53
565.56	46138.98
565.72	46033.66
565.88	46188.13
566.05	46108.55
566.21	46103.87
566.38	46099.19
566.54	46384.74
566.70	46473.68
566.87	46253.67
567.03	46511.13
567.19	46513.47
567.36	46454.95
567.52	46394.10
567.68	46965.19
567.85	46218.56
568.01	46691.35
568.17	46286.43
568.34	46911.36
568.50	46604.75
568.66	46380.06
568.83	46302.82
568.99	46377.72
569.15	46398.78
569.32	46143.66
569.48	46424.53
569.64	46747.52
569.81	46651.56
569.97	46969.87
570.13	46965.19
570.30	46681.98
570.46	46887.95
570.62	46862.21
570.78	46731.14
570.95	46513.47
571.11	47004.98
571.27	46543.89
571.43	46344.95
571.60	46452.61
571.76	46920.72
571.92	46953.49
572.09	46600.07
572.25	46754.54
572.41	46312.18
572.57	46754.54
572.74	46831.78
572.90	46820.08
573.06	46789.65
573.22	46820.08
573.38	47124.35
573.55	46808.37
573.71	47461.38
573.87	46979.23
574.03	46986.25
574.20	47447.34
574.36	47065.83
574.52	47079.88
574.68	47222.65
574.84	47012.00
575.01	46965.19
575.17	47049.45
575.33	47140.73
575.49	47203.92
575.65	47096.26
575.82	47655.65
575.98	46656.24
576.14	47419.25
576.30	47243.71
576.46	46759.22
576.62	46911.36
576.79	47056.47
576.95	46618.79
577.11	46698.37
577.27	47255.42
577.43	46988.60
577.59	47150.09
577.75	46712.41
577.92	46550.91
578.08	46885.61
578.24	47473.09
578.40	47480.11
578.56	47309.25
578.72	47384.15
578.88	47580.75
579.04	47037.75
579.21	47131.37
579.37	47091.58
579.53	47098.60
579.69	46761.56
579.85	47079.88
580.01	47517.56
580.17	47407.55
580.33	47503.51
580.49	47515.22
580.65	47217.97
580.82	46965.19
580.98	47054.13
581.14	47220.31
581.30	47409.89
581.46	47009.66
581.62	47082.22
581.78	46745.18
581.94	47180.52
582.10	46862.21
582.26	47136.05
582.42	47192.22
582.58	47082.22
582.74	47482.45
582.90	47159.45
583.06	47695.44
583.22	47510.53
583.38	47196.90
583.54	47365.42
583.70	47327.97
583.86	47262.44
584.02	47421.59
584.18	47852.25
584.34	47386.49
584.50	47889.70
584.66	47437.98
584.82	47704.80
584.98	47625.22
585.14	47775.02
585.30	47440.32
585.46	47360.74
585.62	47489.47
585.78	47700.12
585.94	46852.84
586.10	47386.49
586.26	47267.12
586.42	47009.66
586.58	47199.24
586.74	47578.41
586.90	47590.11
587.06	47353.72
587.22	47452.02
587.38	47344.36
587.54	47683.73
587.70	47622.88
587.86	47461.38
588.02	47241.37
588.18	47756.29
588.34	47629.90
588.49	47248.39
588.65	47555.00
588.81	47681.39
588.97	48039.50
589.13	47508.19
589.29	47608.84
589.45	47966.94
589.61	47667.35
589.77	47636.92
589.93	47583.09
590.08	47793.74
590.24	47920.13
590.40	47723.52
590.56	48175.25
590.72	48268.87
590.88	47746.93
591.04	47377.12
591.20	47906.08
591.35	48072.26
591.51	48151.84
591.67	48041.84
591.83	47957.58
591.99	47686.07
592.15	47690.76
592.31	48060.56
592.46	47875.66
592.62	48083.97
592.78	47807.78
592.94	48006.73
593.10	48051.20
593.26	48037.16
593.41	48203.33
593.57	48243.12
593.73	47854.59
593.89	48741.66
594.05	48406.96
594.20	48191.63
594.36	48552.07
594.52	48062.90
594.68	48294.61
594.84	48027.79
594.99	48226.74
595.15	48306.32
595.31	48711.23
595.47	48142.48
595.62	48182.27
595.78	48109.71
595.94	48392.92
596.10	48184.61
596.25	47948.21
596.41	48343.77
596.57	48018.43
596.73	48666.76
596.88	48542.71
597.04	48161.20
597.20	48528.67
597.36	48137.80
597.51	48409.30
597.67	48018.43
597.83	47863.96
597.99	48470.15
598.14	48252.48
598.30	48308.66
598.46	48315.68
598.61	48467.81
598.77	48385.89
598.93	48154.18
599.09	48100.35
599.24	48596.54
599.40	48224.40
599.56	48280.57
599.71	48566.12
599.87	48975.71
600.03	48725.27
600.18	48336.74
600.34	48308.66
600.50	48626.97
600.65	48629.31
600.81	48889.11
600.97	48538.03
601.12	48318.02
601.28	48395.26
601.44	48175.25
601.59	48339.08
601.75	48095.67
601.91	48858.68
602.06	48079.28
602.22	48516.96
602.37	48247.80
602.53	48353.13
602.69	48584.84
602.84	48156.52
603.00	48144.82
603.16	48561.44
603.31	48418.66
603.47	48484.20
603.62	48322.70
603.78	48444.41
603.94	48399.94
604.09	48676.12
604.25	48240.78
604.40	48165.88
604.56	48371.85
604.71	48608.25
604.87	47948.21
605.03	48219.72
605.18	48250.14
605.34	48570.80
605.49	47814.80
605.65	48156.52
605.80	48112.05
605.96	48240.78
606.12	48011.41
606.27	48006.73
606.43	47941.19
606.58	48540.37
606.74	48044.18
606.89	48137.80
607.05	48802.51
607.20	48409.30
607.36	48182.27
607.51	48378.87
607.67	48254.82
607.82	47896.72
607.98	47957.58
608.13	48212.70
608.29	47995.03
608.44	48175.25
608.60	48098.01
608.75	48016.09
608.91	48308.66
609.06	47990.34
609.22	48119.07
609.37	48179.93
609.53	47988.00
609.68	48002.05
609.84	48205.67
609.99	48474.84
610.15	47725.86
610.30	47941.19
610.46	47704.80
610.61	48479.52
610.76	48280.57
610.92	47498.83
611.07	47585.43
611.23	47779.70
611.38	47878.00
611.54	47601.82
611.69	47681.39
611.84	48175.25
612.00	48083.97
612.15	47976.30
612.31	48348.45
612.46	47533.94
612.62	47557.35
612.77	47978.64
612.92	47948.21
613.08	47662.67
613.23	47786.72
613.39	47536.28
613.54	47547.98
613.69	47798.42
613.85	47929.49
614.00	47639.26
614.15	47856.93
614.31	47288.18
614.46	47735.23
614.62	47817.14
614.77	47838.21
614.92	47150.09
615.08	47592.45
615.23	47936.51
615.38	47964.60
615.54	47803.10
615.69	47552.66
615.84	47110.30
616.00	47657.99
616.15	47374.78
616.30	47114.98
616.46	47243.71
616.61	47641.60
616.76	47580.75
616.92	47531.60
617.07	47302.23
617.22	47281.16
617.37	47290.52
617.53	47112.64
617.68	47285.84
617.83	47306.91
617.99	47557.35
618.14	47590.11
618.29	47288.18
618.45	47344.36
618.60	47173.50
618.75	46728.80
618.90	47229.67
619.06	46972.21
619.21	46902.00
619.36	47327.97
619.51	46906.68
619.67	46681.98
619.82	47119.66
619.97	47276.48
620.12	46934.76
620.28	46883.27
620.43	47281.16
620.58	46981.57
620.73	47346.70
620.89	47168.82
621.04	46983.91
621.19	46796.67
621.34	46763.90
621.49	46574.32
621.65	46548.57
621.80	47337.33
621.95	46965.19
622.10	47075.19
622.25	46689.01
622.41	46653.90
622.56	46476.02
622.71	46822.42
622.86	46674.96
623.01	46838.80
623.16	46490.06
623.32	46607.09
623.47	46859.87
623.62	46838.80
623.77	46679.64
623.92	46761.56
624.07	46894.97
624.23	46623.47
624.38	46600.07
624.53	46611.77
624.68	46403.46
624.83	46220.90
624.98	46527.51
625.13	46089.83
625.29	46312.18
625.44	46504.10
625.59	46246.65
625.74	46452.61
625.89	46164.73
626.04	46099.19
626.19	46305.16
626.34	45865.14
626.49	45876.84
626.65	45933.01
626.80	46134.30
626.95	45792.58
627.10	45904.93
627.25	46454.95
627.40	46108.55
627.55	45972.80
627.70	45944.72
627.85	46054.72
628.00	46146.00
628.15	46326.22
628.30	45347.88
628.45	45652.15
628.60	45792.58
628.76	45603.00
628.91	45567.89
629.06	45106.80
629.21	45270.64
629.36	45656.83
629.51	45521.08
629.66	46092.17
629.81	45717.68
629.96	45677.90
630.11	45502.35
630.26	45565.55
630.41	45951.74
630.56	45041.27
630.71	45207.45
630.86	45310.43
631.01	45254.26
631.16	45521.08
631.31	45455.54
631.46	45406.39
631.61	45436.82
631.76	45500.01
631.91	45432.14
632.06	45617.04
632.21	45801.94
632.36	45710.66
632.51	44844.66
632.66	45083.40
632.81	44856.37
632.96	45565.55
633.10	44816.58
633.25	45617.04
633.40	44994.46
633.55	45523.42
633.70	45036.59
633.85	44238.47
634.00	44701.89
634.15	44603.59
634.30	44919.56
634.45	44594.23
634.60	44870.41
634.75	45141.91
634.90	44957.01
635.05	44968.71
635.19	44608.27
635.34	45132.55
635.49	44657.42
635.64	44732.32
635.79	45277.66
635.94	44882.11
636.09	44849.35
636.24	44507.63
636.39	44542.74
636.53	44722.96
636.68	44240.81
636.83	44325.07
636.98	44397.62
637.13	43826.53
637.28	44135.48
637.43	44514.65
637.57	44205.70
637.72	43992.71
637.87	44114.42
638.02	44069.95
638.17	44002.07
638.32	44402.30
638.46	43878.02
638.61	43686.10
638.76	44034.84
638.91	44278.25
639.06	44053.56
639.20	44210.38
639.35	43922.49
639.50	43569.07
639.65	44196.34
639.80	44287.62
639.94	44561.46
640.09	44016.11
640.24	44194.00
640.39	43842.92
640.54	43636.95
640.68	43798.44
640.83	44158.89
640.98	43613.54
641.13	43695.46
641.27	43814.83
641.42	43634.61
641.57	43274.16
641.72	43763.34
641.86	43461.41
642.01	43615.88
642.16	43203.95
642.31	43269.48
642.45	43840.57
642.60	43260.12
642.75	43049.47
642.90	43405.23
643.04	43721.21
643.19	42962.87
643.34	43110.33
643.48	42911.38
643.63	43498.86
643.78	42918.40
643.93	43318.64
644.07	43639.29
644.22	43215.65
644.37	42696.05
644.51	43629.93
644.66	43110.33
644.81	43405.23
644.95	42469.02
645.10	43021.39
645.25	42759.25
645.39	42866.91
645.54	42600.09
645.69	42560.30
645.83	43049.47
645.98	42527.53
646.13	42667.97
646.27	43044.79
646.42	42054.75
646.57	42962.87
646.71	43026.07
646.86	43533.96
647.00	43234.38
647.15	42569.66
647.30	42691.37
647.44	42185.82
647.59	42693.71
647.74	42806.06
647.88	43035.43
648.03	42513.49
648.17	42789.67
648.32	42504.13
648.47	42735.84
648.61	42422.21
648.76	42597.75
648.90	42422.21
649.05	42972.24
649.20	42644.56
649.34	42710.10
649.49	42361.36
649.63	42597.75
649.78	42703.07
649.92	42422.21
650.07	42630.52
650.21	42635.20
650.36	42396.46
650.51	42424.55
650.65	42644.56
650.80	42241.99
650.94	42401.14
651.09	41991.55
651.23	41703.67
651.38	42302.84
651.52	41493.02
651.67	42005.59
651.81	41984.53
651.96	41776.22
652.10	41654.51
652.25	41579.62
652.39	42029.00
652.54	41677.92
652.68	41860.48
652.83	41956.44
652.97	42014.96
653.12	41708.35
653.26	41827.71
653.41	41509.40
653.55	41717.71
653.70	41757.50
653.84	42047.72
653.99	41687.28
654.13	41619.41
654.27	41603.02
654.42	41312.80
654.56	41322.16
654.71	41523.44
654.85	41390.03
655.00	41743.45
655.14	41612.38
655.29	41874.52
655.43	41694.30
655.57	41324.50
655.72	41041.29
655.86	40980.44
656.01	41319.82
656.15	41158.32
656.30	41471.95
656.44	41298.75
656.58	41256.62
656.73	41069.38
656.87	40507.65
657.01	40896.18
657.16	40978.10
657.30	41177.04
657.45	40935.97
657.59	40760.43
657.73	40524.04
657.88	40985.12
658.02	41228.54
658.16	40856.39
658.31	40879.80
658.45	40524.04
658.60	40928.95
658.74	40830.65
658.88	41104.49
659.03	40559.14
659.17	40329.77
659.31	40348.50
659.46	40442.12
659.60	40531.06
659.74	40273.60
659.89	40149.55
660.03	39856.98
660.17	40776.81
660.32	40069.97
660.46	40154.23
660.60	39590.16
660.74	39899.11
660.89	40425.73
661.03	40030.18
661.17	39667.40
661.32	39686.12
661.46	39913.16
661.60	39604.20
661.74	39501.22
661.89	39997.41
662.03	39915.50
662.17	39489.52
662.31	39648.68
662.46	39512.92
662.60	39459.09
662.74	39428.66
662.88	38857.57
663.03	38487.77
663.17	39232.06
663.31	38588.41
663.45	39395.90
663.60	39384.19
663.74	39138.44
663.88	38932.47
664.02	39002.69
664.17	39026.09
664.31	38916.09
664.45	38520.54
664.59	38565.01
664.73	38611.82
664.88	38450.32
665.02	38216.27
665.16	38387.13
665.30	38656.29
665.44	38321.59
665.59	37954.13
665.73	38333.29
665.87	37832.42
666.01	38120.31
666.15	38604.80
666.29	37919.02
666.44	37933.06
666.58	38075.84
666.72	37504.74
666.86	37764.54
667.00	38017.32
667.14	37832.42
667.28	37762.20
667.43	37626.45
667.57	37867.53
667.71	37656.88
667.85	37467.30
667.99	37743.48
668.13	37237.92
668.27	37060.04
668.41	36903.23
668.56	36545.12
668.70	36966.42
668.84	36460.87
668.98	36552.15
669.12	36835.35
669.26	36905.57
669.40	36825.99
669.54	36924.29
669.68	37186.43
669.82	36479.59
669.96	36128.51
670.10	36161.28
670.25	36163.62
670.39	36196.38
670.53	36009.14
670.67	36067.66
670.81	36086.38
670.95	36348.52
671.09	35714.23
671.23	35665.08
671.37	36041.91
671.51	35662.74
671.65	35782.11
671.79	35438.05
671.93	36151.91
672.07	35545.72
672.21	35580.82
672.35	35358.47
672.49	35388.90
672.63	35466.14
672.77	35150.17
672.91	35124.42
673.05	35306.98
673.19	34852.92
673.33	34799.08
673.47	34733.55
673.61	34195.23
673.75	34295.87
673.89	34440.98
674.03	34054.79
674.17	34115.65
674.31	33872.23
674.45	34223.31
674.59	34132.03
674.73	33944.79
674.87	34007.98
675.01	33584.35
675.15	33530.51
675.29	33706.05
675.43	33729.46
675.56	33862.87
675.70	33591.37
675.84	33413.49
675.98	32573.24
676.12	33017.94
676.26	33141.99
676.40	32966.45
676.54	32584.94
676.68	32889.21
676.82	32554.51
676.96	32566.21
677.10	32987.51
677.23	32556.85
677.37	32570.90
677.51	32514.72
677.65	32561.53
677.79	32088.74
677.93	31969.38
678.07	31910.86
678.21	31601.91
678.34	31805.54
678.48	31658.09
678.62	31400.63
678.76	31124.44
678.90	31147.85
679.04	31194.66
679.18	31433.39
679.31	31211.04
679.45	30871.67
679.59	30553.35
679.73	30967.63
679.87	30567.40
680.00	30338.02
680.14	30644.63
680.28	30909.11
680.42	30480.80
680.56	29944.81
680.70	30110.99
680.83	29937.79
680.97	29816.08
681.11	29937.79
681.25	29804.38
681.39	29350.32
681.52	29530.54
681.66	28959.45
681.80	28858.81
681.94	28856.46
682.07	29151.37
682.21	28772.21
682.35	28896.25
682.49	28709.01
682.62	28996.90
682.76	28758.16
682.90	28741.78
683.04	28496.02
683.17	28489.00
683.31	28313.46
683.45	28095.79
683.59	27899.19
683.72	27819.61
683.86	27562.15
684.00	27835.99
684.13	27653.43
684.27	27372.57
684.41	27646.41
684.55	27550.45
684.68	26923.18
684.82	27267.24
684.96	27058.93
685.09	26852.97
685.23	26986.38
685.37	27072.98
685.50	27131.49
685.64	27033.19
685.78	27021.48
685.91	26295.92
686.05	26160.17
686.19	25605.46
686.32	25895.69
686.46	25579.71
686.60	25539.93
686.73	25872.28
686.87	25778.66
687.01	25820.79
687.14	25785.68
687.28	25329.28
687.42	25336.30
687.55	25090.54
687.69	24985.22
687.82	24767.55
687.96	24903.30
688.10	25465.03
688.23	25102.25
688.37	25195.87
688.50	25212.25
688.64	24732.44
688.78	24830.74
688.91	24835.42
689.05	24067.73
689.18	23697.92
689.32	23744.73
689.46	23936.66
689.59	23953.04
689.73	24259.65
689.86	24032.62
690.00	23655.79
690.13	23826.65
690.27	23302.37
690.41	23220.45
690.54	23133.86
690.68	22829.59
690.81	23241.52
690.95	22771.07
691.08	22611.92
691.22	22698.52
691.35	22389.56
691.49	22855.33
691.62	22621.28
691.76	22738.30
691.89	22214.02
692.03	21970.61
692.16	21860.60
692.30	22043.17
692.43	21898.05
692.57	21743.58
692.70	21696.77
692.84	21561.02
692.97	21050.78
693.11	21198.23
693.24	21448.67
693.38	20973.54
693.51	21249.72
693.65	20762.89
693.78	20814.38
693.92	20938.43
694.05	20952.48
694.19	20657.57
694.32	21062.48
694.45	20739.49
694.59	20514.80
694.72	20723.10
694.86	20123.93
694.99	20065.41
695.13	20273.72
695.26	20004.56
695.39	19522.41
695.53	19777.53
695.66	19740.08
695.80	19459.21
695.93	19566.88
696.07	19248.57
696.20	19346.87
696.33	19115.16
696.47	19002.81
696.60	19005.15
696.73	19426.45
696.87	19119.84
697.00	18869.40
697.14	18654.07
697.27	18389.59
697.40	18764.07
697.54	18508.96
697.67	18590.88
697.80	18225.75
697.94	18274.90
698.07	18221.07
698.21	18010.42
698.34	17881.69
698.47	17781.05
698.61	17481.46
698.74	17750.62
698.87	17666.36
699.01	17322.30
699.14	17142.08
699.27	17425.29
699.40	17390.18
699.54	17195.92
699.67	17226.34
699.80	17146.76
699.94	16898.67
700.07	16919.73
700.20	16966.54
700.34	16746.53
700.47	16823.77
700.60	17085.91
700.73	16774.62
700.87	16634.19
701.00	16482.05
701.13	16414.18
701.26	16184.80
701.40	16182.46
701.53	15927.35
701.66	16065.44
701.79	15826.70
701.93	15913.30
702.06	15700.31
702.19	15815.00
702.32	15585.63
702.46	15637.12
702.59	15559.88
702.72	15627.76
702.85	15503.71
702.99	15248.59
703.12	15019.22
703.25	15276.68
703.38	14867.08
703.51	14995.81
703.65	14684.52
703.78	14644.73
703.91	14787.50
704.04	14548.77
704.17	14487.92
704.31	14487.92
704.44	14284.29
704.57	14588.56
704.70	14422.38
704.83	14324.08
704.96	14120.45
705.10	14314.72
705.23	13987.04
>>>>>End Processed Spectral Data<<<<<
