SpectraSuite Data File
++++++++++++++++++++++++++++++++++++
Date: Fri Oct 25 10:44:05 EDT 2013
User: price-jones
Dark Spectrum Present: No
Reference Spectrum Present: No
Number of Sampled Component Spectra: 1
Spectrometers: USB2+H05261
Integration Time (usec): 100000 (USB2+H05261)
Spectra Averaged: 1 (USB2+H05261)
Boxcar Smoothing: 0 (USB2+H05261)
Correct for Electrical Dark: No (USB2+H05261)
Strobe/Lamp Enabled: No (USB2+H05261)
Correct for Detector Non-linearity: No (USB2+H05261)
Correct for Stray Light: No (USB2+H05261)
Number of Pixels in Processed Spectrum: 2048
>>>>>Begin Processed Spectral Data<<<<<
365.73	166.18
365.92	166.18
366.12	166.18
366.32	42.13
366.52	51.49
366.72	81.92
366.91	7.02
367.11	0.00
367.31	56.17
367.51	65.54
367.70	46.81
367.90	0.00
368.10	9.36
368.30	86.60
368.49	81.92
368.69	21.06
368.89	65.54
369.09	63.19
369.28	30.43
369.48	0.00
369.68	11.70
369.87	63.19
370.07	107.66
370.27	142.77
370.47	187.24
370.66	346.40
370.86	411.93
371.06	514.92
371.25	521.94
371.45	404.91
371.65	463.43
371.84	411.93
372.04	475.13
372.24	538.32
372.44	477.47
372.63	477.47
372.83	486.83
373.03	594.50
373.22	547.69
373.42	554.71
373.62	433.00
373.81	505.56
374.01	571.09
374.21	688.12
374.40	585.13
374.60	564.07
374.79	575.77
374.99	568.75
375.19	592.16
375.38	601.52
375.58	648.33
375.78	547.69
375.97	599.18
376.17	667.05
376.37	552.37
376.56	706.84
376.76	648.33
376.95	627.26
377.15	629.60
377.35	613.22
377.54	636.63
377.74	753.65
377.93	709.18
378.13	624.92
378.33	737.27
378.52	737.27
378.72	737.27
378.91	645.99
379.11	660.03
379.31	676.41
379.50	650.67
379.70	662.37
379.89	744.29
380.09	678.76
380.28	653.01
380.48	751.31
380.68	674.07
380.87	748.97
381.07	753.65
381.26	697.48
381.46	741.95
381.65	802.80
381.85	758.33
382.04	702.16
382.24	706.84
382.43	685.78
382.63	739.61
382.83	688.12
383.02	760.67
383.22	809.83
383.41	655.35
383.61	765.36
383.80	812.17
384.00	823.87
384.19	737.27
384.39	819.19
384.58	791.10
384.78	779.40
384.97	828.55
385.17	819.19
385.36	784.08
385.56	802.80
385.75	795.78
385.95	863.66
386.14	833.23
386.34	863.66
386.53	863.66
386.72	823.87
386.92	898.77
387.11	877.70
387.31	887.06
387.50	931.53
387.70	887.06
387.89	880.04
388.09	887.06
388.28	898.77
388.48	978.34
388.67	908.13
388.86	947.92
389.06	966.64
389.25	959.62
389.45	971.32
389.64	919.83
389.84	1022.81
390.03	976.00
390.22	1100.05
390.42	997.07
390.61	1025.15
390.81	1074.31
391.00	1081.33
391.19	1097.71
391.39	1095.37
391.58	959.62
391.78	1004.09
391.97	999.41
392.16	1069.62
392.36	1001.75
392.55	1048.56
392.75	1008.77
392.94	954.94
393.13	1027.50
393.33	1160.91
393.52	1032.18
393.71	1128.14
393.91	1198.35
394.10	1160.91
394.29	1146.86
394.49	1144.52
394.68	1186.65
394.88	1186.65
395.07	1282.61
395.26	1231.12
395.46	1212.40
395.65	1261.55
395.84	1221.76
396.04	1324.74
396.23	1100.05
396.42	1200.69
396.62	1214.74
396.81	1214.74
397.00	1263.89
397.19	1310.70
397.39	1371.55
397.58	1451.13
397.77	1423.05
397.97	1425.39
398.16	1526.03
398.35	1591.56
398.55	1432.41
398.74	1570.50
398.93	1558.80
399.12	1549.43
399.32	1577.52
399.51	1504.96
399.70	1544.75
399.90	1584.54
400.09	1654.76
400.28	1689.87
400.47	1570.50
400.67	1710.93
400.86	1694.55
401.05	1720.29
401.24	1713.27
401.44	1657.10
401.63	1694.55
401.82	1715.61
402.01	1739.02
402.21	1804.55
402.40	1884.13
402.59	1741.36
402.78	1844.34
402.97	1884.13
403.17	1858.39
403.36	1823.28
403.55	1867.75
403.74	1987.11
403.93	1919.24
404.13	1860.73
404.32	1827.96
404.51	1970.73
404.70	1898.17
404.89	1952.01
405.09	1956.69
405.28	1968.39
405.47	1944.99
405.66	2047.97
405.85	1996.48
406.05	1987.11
406.24	2092.44
406.43	1991.80
406.62	2050.31
406.81	2162.66
407.00	2057.33
407.20	1900.52
407.39	2026.90
407.58	2270.32
407.77	2267.98
407.96	2211.81
408.15	2249.25
408.34	2279.68
408.54	2251.60
408.73	2256.28
408.92	2380.32
409.11	2434.16
409.30	2338.20
409.49	2370.96
409.68	2349.90
409.87	2408.41
410.07	2415.43
410.26	2452.88
410.45	2401.39
410.64	2436.50
410.83	2485.65
411.02	2588.63
411.21	2637.78
411.40	2700.98
411.59	2560.55
411.78	2590.97
411.98	2551.18
412.17	2658.85
412.36	2754.81
412.55	2761.83
412.74	2759.49
412.93	2722.04
413.12	2864.82
413.31	2909.29
413.50	2960.78
413.69	2881.20
413.88	2937.37
414.07	3084.83
414.26	3070.78
414.45	2972.48
414.64	2963.12
414.83	3105.89
415.02	3094.19
415.22	3166.74
415.41	3157.38
415.60	3201.85
415.79	3101.21
415.98	3225.26
416.17	3386.76
416.36	3288.45
416.55	3302.50
416.74	3426.54
416.93	3253.34
417.12	3286.11
417.31	3363.35
417.50	3370.37
417.69	3363.35
417.88	3438.25
418.07	3382.07
418.26	3531.87
418.45	3524.85
418.64	3674.64
418.83	3648.90
419.02	3665.28
419.21	3868.91
419.39	3613.79
419.58	3597.40
419.77	3632.51
419.96	3686.34
420.15	3810.39
420.34	3735.50
420.53	3702.73
420.72	3829.12
420.91	3918.06
421.10	3805.71
421.29	3894.65
421.48	3819.75
421.67	3988.27
421.86	3817.41
422.05	3873.59
422.24	3740.18
422.43	3798.69
422.61	3880.61
422.80	4018.70
422.99	3929.76
423.18	3920.40
423.37	4065.51
423.56	3939.12
423.75	3999.98
423.94	3962.53
424.13	3733.15
424.32	3857.20
424.50	4037.42
424.69	4119.34
424.88	4166.15
425.07	4058.49
425.26	3918.06
425.45	4021.04
425.64	4007.00
425.83	4079.55
426.01	4133.39
426.20	3955.51
426.39	4046.79
426.58	4063.17
426.77	4018.70
426.96	3936.78
427.15	4124.02
427.33	4084.23
427.52	4060.83
427.71	4285.52
427.90	4175.52
428.09	4135.73
428.28	4212.96
428.46	4191.90
428.65	4241.05
428.84	4266.80
429.03	4362.76
429.22	4227.01
429.40	4173.18
429.59	4175.52
429.78	3962.53
429.97	3908.69
430.16	4072.53
430.34	4133.39
430.53	4234.03
430.72	4358.08
430.91	4322.97
431.10	4484.47
431.28	4491.49
431.47	4741.93
431.66	4779.37
431.85	4491.49
432.03	4695.11
432.22	4713.84
432.41	4519.57
432.60	4856.61
432.79	4788.74
432.97	4884.70
433.16	4737.24
433.35	4681.07
433.54	4690.43
433.72	4770.01
433.91	4648.30
434.10	4847.25
434.28	4760.65
434.47	4936.19
434.66	4973.64
434.85	5034.49
435.03	5032.15
435.22	5032.15
435.41	5322.38
435.59	5177.26
435.78	5252.16
435.97	5153.86
436.16	5146.84
436.34	4997.04
436.53	5308.34
436.72	5401.96
436.90	5041.51
437.09	5184.29
437.28	5088.32
437.46	5198.33
437.65	5331.74
437.84	5195.99
438.02	5301.31
438.21	5177.26
438.40	5132.79
438.58	5455.79
438.77	5434.72
438.96	5441.75
439.14	5659.42
439.33	5856.02
439.52	5640.69
439.70	5856.02
439.89	5769.42
440.08	5678.14
440.26	5799.85
440.45	5839.64
440.63	5937.94
440.82	6066.67
441.01	5930.92
441.19	6061.99
441.38	6190.72
441.57	6108.80
441.75	6408.39
441.94	6492.65
442.12	6389.66
442.31	6452.86
442.50	6448.18
442.68	6312.42
442.87	6492.65
443.05	6473.92
443.24	6448.18
443.43	6520.73
443.61	6574.56
443.80	6829.68
443.98	6431.79
444.17	6408.39
444.35	6686.91
444.54	6703.29
444.73	6803.94
444.91	6586.27
445.10	6525.41
445.28	6614.35
445.47	6403.71
445.65	6373.28
445.84	6644.78
446.02	6630.74
446.21	6782.87
446.39	6619.04
446.58	6773.51
446.77	6923.30
446.95	6637.76
447.14	6766.49
447.32	6839.05
447.51	6609.67
447.69	6944.37
447.88	6768.83
448.06	6775.85
448.25	6822.66
448.43	6848.41
448.62	6780.53
448.80	6689.25
448.99	6906.92
449.17	6939.69
449.36	7028.63
449.54	7103.53
449.73	7073.10
449.91	7323.54
450.10	7243.96
450.28	7241.62
450.46	7314.17
450.65	7431.20
450.83	7433.54
451.02	7316.51
451.20	7407.80
451.39	7414.82
451.57	7309.49
451.76	7389.07
451.94	7232.26
452.13	7339.92
452.31	7309.49
452.49	7098.84
452.68	7424.18
452.86	7255.66
453.05	7438.22
453.23	7529.50
453.42	7407.80
453.60	7431.20
453.78	7548.23
453.97	7452.27
454.15	7459.29
454.34	7375.03
454.52	7655.89
454.70	7400.77
454.89	7747.17
455.07	7770.58
455.26	7784.62
455.44	7847.82
455.62	7730.79
455.81	8065.49
455.99	8011.65
456.17	7925.05
456.36	7934.42
456.54	8098.25
456.73	8154.43
456.91	8320.60
457.09	8379.12
457.28	8409.54
457.46	8215.28
457.64	8313.58
457.83	8231.66
458.01	8182.51
458.19	8395.50
458.38	8175.49
458.56	8311.24
458.74	8397.84
458.93	8318.26
459.11	8545.30
459.29	8175.49
459.48	8507.85
459.66	8416.57
459.84	8624.87
460.03	8706.79
460.21	8685.73
460.39	8603.81
460.57	8791.05
460.76	8826.16
460.94	8922.12
461.12	8760.63
461.31	8791.05
461.49	8840.20
461.67	8891.70
461.85	9130.43
462.04	8667.00
462.22	9535.34
462.40	9090.64
462.59	8784.03
462.77	8861.27
462.95	8950.21
463.13	8997.02
463.32	8975.95
463.50	9022.77
463.68	9137.45
463.86	9210.01
464.05	9064.89
464.23	8856.59
464.41	9277.88
464.59	8959.57
464.78	9202.99
464.96	9294.27
465.14	9179.58
465.32	9270.86
465.50	9572.79
465.69	9528.32
465.87	9277.88
466.05	9441.72
466.23	9240.44
466.41	9291.93
466.60	9638.33
466.78	9067.24
466.96	9437.04
467.14	9418.32
467.32	9528.32
467.51	9692.16
467.69	9462.79
467.87	9577.47
468.05	9572.79
468.23	9392.57
468.41	9582.15
468.60	9689.82
468.78	9781.10
468.96	9554.07
469.14	10064.30
469.32	9958.98
469.50	9654.71
469.69	9638.33
469.87	9996.43
470.05	9961.32
470.23	10033.88
470.41	10078.35
470.59	10167.29
470.77	10127.50
470.95	10127.50
471.14	10162.61
471.32	10024.51
471.50	10333.47
471.68	10494.96
471.86	10672.84
472.04	10539.43
472.22	10621.35
472.40	10258.57
472.58	10696.25
472.77	10633.05
472.95	10682.20
473.13	10895.19
473.31	10721.99
473.49	10824.98
473.67	10743.06
473.85	10981.79
474.03	11152.65
474.21	11272.02
474.39	11276.70
474.57	11197.12
474.75	11150.31
474.93	11396.07
475.12	11468.62
475.30	11496.71
475.48	11321.17
475.66	11459.26
475.84	11592.67
476.02	11737.79
476.20	11447.56
476.38	11651.19
476.56	11950.78
476.74	12025.67
476.92	12074.82
477.10	11908.65
477.28	12278.45
477.46	12318.24
477.64	12327.60
477.82	12449.31
478.00	12849.54
478.18	12753.58
478.36	12915.08
478.54	12908.05
478.72	13078.91
478.90	13060.19
479.08	13109.34
479.26	13380.84
479.44	13380.84
479.62	13633.62
479.80	13570.43
479.98	13600.85
480.16	14061.94
480.34	13741.29
480.52	13902.78
480.70	14099.39
480.88	13951.93
481.06	14169.60
481.24	14326.42
481.41	14485.58
481.59	14768.78
481.77	14504.30
481.95	14572.18
482.13	14913.89
482.31	14675.16
482.49	15255.61
482.67	15239.23
482.85	15033.26
483.03	15496.69
483.21	15641.80
483.39	15644.14
483.57	15744.78
483.74	15758.83
483.92	15903.94
484.10	15538.82
484.28	16051.39
484.46	16402.47
484.64	16517.16
484.82	16400.13
485.00	16517.16
485.18	16507.80
485.35	16643.55
485.53	16140.33
485.71	16578.01
485.89	16238.64
486.07	16568.65
486.25	16863.56
486.43	17191.23
486.61	17275.49
486.78	17537.63
486.96	17635.94
487.14	17743.60
487.32	17759.98
487.50	18162.56
487.68	18546.40
487.85	18569.81
488.03	18707.90
488.21	18857.70
488.39	18827.27
488.57	18939.62
488.75	19269.63
488.92	19225.16
489.10	19786.89
489.28	19625.39
489.46	20109.88
489.64	19927.32
489.81	20437.56
489.99	20634.16
490.17	20568.63
490.35	20695.02
490.53	20772.25
490.70	20830.77
490.88	20622.46
491.06	21013.33
491.24	20692.68
491.41	20968.86
491.59	21369.09
491.77	21149.08
491.95	21612.51
492.13	21652.30
492.30	21977.63
492.48	22174.24
492.66	21745.92
492.84	22150.83
493.01	22490.21
493.19	22050.19
493.37	22541.70
493.54	22553.40
493.72	22911.50
493.90	23126.83
494.08	23431.10
494.25	23517.70
494.43	23613.66
494.61	23381.95
494.79	23522.38
494.96	23934.32
495.14	23608.98
495.32	24009.22
495.49	24212.84
495.67	24479.66
495.85	23828.99
496.02	24657.54
496.20	24783.93
496.38	24594.35
496.55	24989.90
496.73	25362.04
496.91	25387.79
497.09	25467.37
497.26	25642.91
497.44	25254.38
497.62	25287.15
497.79	25680.36
497.97	25717.81
498.14	25617.16
498.32	25942.50
498.50	26017.40
498.67	26277.19
498.85	26452.73
499.03	26747.64
499.20	26319.32
499.38	26525.29
499.56	26377.84
499.73	26808.50
499.91	26972.33
500.08	26731.26
500.26	26616.57
500.44	27152.55
500.61	27147.87
500.79	27150.21
500.97	27655.77
501.14	27674.49
501.32	27587.89
501.49	27480.23
501.67	27527.04
501.84	27901.53
502.02	28002.17
502.20	28060.68
502.37	28100.47
502.55	27988.13
502.72	28086.43
502.90	28357.93
503.07	28322.82
503.25	28943.06
503.43	28243.24
503.60	28610.71
503.78	28449.21
503.95	28388.36
504.13	29130.31
504.30	29228.61
504.48	28973.49
504.65	29659.27
504.83	29200.52
505.01	29675.65
505.18	29656.93
505.36	29827.79
505.53	30003.33
505.71	30181.21
505.88	29867.58
506.06	29514.16
506.23	30029.07
506.41	30054.82
506.58	30024.39
506.76	30125.04
506.93	30560.37
507.11	30656.34
507.28	30195.25
507.46	30239.72
507.63	30663.36
507.81	30546.33
507.98	30515.90
508.16	30672.72
508.33	31026.14
508.50	31103.38
508.68	31585.53
508.85	31372.54
509.03	31103.38
509.20	31391.26
509.38	31852.35
509.55	31798.52
509.73	31929.59
509.90	31842.99
510.08	32004.49
510.25	31772.77
510.42	32055.98
510.60	32514.72
510.77	32053.64
510.95	32329.82
511.12	32130.87
511.30	32275.99
511.47	32863.46
511.64	33067.09
511.82	33015.60
511.99	32975.81
512.17	32994.53
512.34	32723.03
512.51	33013.26
512.69	33221.56
512.86	33441.57
513.04	33504.77
513.21	33362.00
513.38	32992.19
513.56	33039.00
513.73	33060.07
513.90	33483.70
514.08	33310.50
514.25	33696.69
514.43	33853.51
514.60	33523.49
514.77	33273.06
514.95	34181.18
515.12	33638.18
515.29	34115.65
515.47	34492.47
515.64	34478.43
515.81	34485.45
515.99	34225.65
516.16	34274.80
516.33	34087.56
516.51	33912.02
516.68	33710.74
516.85	33874.57
517.03	33834.78
517.20	34316.93
517.37	34497.16
517.54	34859.94
517.72	34693.76
517.89	34642.27
518.06	34277.15
518.24	34600.14
518.41	34803.77
518.58	35112.72
518.75	35061.22
518.93	35536.35
519.10	35185.27
519.27	35608.91
519.45	35438.05
519.62	35894.46
519.79	35894.46
519.96	35592.53
520.14	35835.94
520.31	35299.96
520.48	35775.09
520.65	35789.13
520.83	36175.32
521.00	36437.46
521.17	36503.00
521.34	36329.80
521.52	36587.25
521.69	36573.21
521.86	36587.25
522.03	36758.11
522.20	36828.33
522.38	37139.62
522.55	37247.29
522.72	36751.09
522.89	36879.82
523.07	36978.12
523.24	36975.78
523.41	37579.64
523.58	37055.36
523.75	37975.19
523.92	37392.40
524.10	37549.21
524.27	37963.49
524.44	37743.48
524.61	38052.43
524.78	37968.17
524.96	38026.68
525.13	38146.05
525.30	38110.94
525.47	38174.14
525.64	38181.16
525.81	37778.59
525.98	37752.84
526.16	37591.34
526.33	37612.41
526.50	37776.25
526.67	37268.35
526.84	37844.12
527.01	37867.53
527.18	38178.82
527.36	38672.67
527.53	38871.62
527.70	38995.67
527.87	38508.83
528.04	39150.14
528.21	38885.66
528.38	38923.11
528.55	39421.64
528.72	39400.58
528.89	39063.54
529.07	39271.85
529.24	39168.87
529.41	39318.66
529.58	39218.02
529.75	39285.89
529.92	39583.14
530.09	39861.66
530.26	39737.62
530.43	39896.77
530.60	39342.06
530.77	39510.58
530.94	39847.62
531.11	39878.05
531.28	40257.21
531.46	40392.97
531.63	40210.40
531.80	39709.53
531.97	39742.30
532.14	39845.28
532.31	39625.27
532.48	39894.43
532.65	40205.72
532.82	39983.37
532.99	40016.14
533.16	40210.40
533.33	40526.38
533.50	40879.80
533.67	40109.76
533.84	40327.43
534.01	40641.06
534.18	40479.57
534.35	40982.78
534.52	40849.37
534.69	41226.20
534.86	41261.30
535.03	40786.18
535.20	41556.21
535.37	41535.15
535.54	41385.35
535.71	41160.66
535.88	40840.01
536.05	41312.80
536.22	41013.21
536.38	41340.88
536.55	40863.41
536.72	41251.94
536.89	41319.82
537.06	41254.28
537.23	40907.88
537.40	41455.57
537.57	41670.90
537.74	41656.85
537.91	41703.67
538.08	41780.90
538.25	41329.18
538.42	42010.28
538.59	41495.36
538.75	41532.81
538.92	41638.13
539.09	41890.91
539.26	42071.13
539.43	41757.50
539.60	41214.49
539.77	41930.70
539.94	41539.83
540.11	41837.08
540.28	42029.00
540.44	41940.06
540.61	42075.81
540.78	41729.41
540.95	41694.30
541.12	42066.45
541.29	42216.24
541.46	42181.13
541.62	42202.20
541.79	42583.71
541.96	42157.73
542.13	42508.81
542.30	42377.74
542.47	42637.54
542.63	42216.24
542.80	42370.72
542.97	42892.66
543.14	43583.12
543.31	42782.65
543.48	43154.80
543.64	43304.59
543.81	43239.06
543.98	43215.65
544.15	43278.85
544.32	43571.41
544.48	43555.03
544.65	43445.02
544.82	43688.44
544.99	43051.81
545.16	43590.14
545.32	43150.12
545.49	43924.83
545.66	43646.31
545.83	44018.46
546.00	44147.18
546.16	43613.54
546.33	43452.05
546.50	43777.38
546.67	43852.28
546.83	43526.94
547.00	43936.54
547.17	43522.26
547.34	43505.88
547.50	43674.40
547.67	44210.38
547.84	44004.41
548.00	44177.61
548.17	44027.82
548.34	44236.12
548.51	44676.15
548.67	43948.24
548.84	44189.31
549.01	43756.32
549.18	44362.51
549.34	44226.76
549.51	44493.58
549.68	44610.61
549.84	43950.58
550.01	44296.98
550.18	44018.46
550.34	43700.14
550.51	44353.15
550.68	44212.72
550.84	43688.44
551.01	44685.51
551.18	44732.32
551.34	44486.56
551.51	44648.06
551.68	44687.85
551.84	44666.78
552.01	44704.23
552.18	45043.61
552.34	44481.88
552.51	44528.69
552.68	44732.32
552.84	44949.99
553.01	44502.95
553.18	44821.26
553.34	44631.68
553.51	44643.38
553.67	44863.39
553.84	45556.19
554.01	45251.92
554.17	45249.58
554.34	45200.43
554.51	45462.57
554.67	45008.50
554.84	45649.81
555.00	45408.73
555.17	45235.53
555.33	45478.95
555.50	45460.23
555.67	45261.28
555.83	45214.47
556.00	45399.37
556.16	45713.00
556.33	45265.96
556.50	45640.45
556.66	45460.23
556.83	45106.80
556.99	45565.55
557.16	45673.21
557.32	45663.85
557.49	45918.97
557.65	45223.83
557.82	45439.16
557.98	45949.40
558.15	45340.86
558.32	45794.92
558.48	45542.14
558.65	45476.61
558.81	45298.73
558.98	45315.11
559.14	45729.39
559.31	45717.68
559.47	45949.40
559.64	45811.31
559.80	45986.85
559.97	45830.03
560.13	45579.59
560.30	45191.06
560.46	45521.08
560.63	45652.15
560.79	45853.44
560.96	46185.79
561.12	45771.52
561.29	45888.54
561.45	45701.30
561.61	46417.50
561.78	45827.69
561.94	45642.79
562.11	45713.00
562.27	46131.96
562.44	46267.71
562.60	46298.14
562.77	45918.97
562.93	46150.68
563.10	46141.32
563.26	46007.91
563.42	46136.64
563.59	45909.61
563.75	45839.39
563.92	45979.82
564.08	45769.18
564.24	46148.34
564.41	46284.09
564.57	46017.27
564.74	46185.79
564.90	46007.91
565.07	46061.74
565.23	45902.59
565.39	46227.92
565.56	46075.79
565.72	46143.66
565.88	45928.33
566.05	46286.43
566.21	46473.68
566.38	46106.21
566.54	46237.28
566.70	46021.95
566.87	46700.71
567.03	46321.54
567.19	46869.23
567.36	46466.66
567.52	46164.73
567.68	46653.90
567.85	46043.02
568.01	46052.38
568.17	46309.84
568.34	46754.54
568.50	46045.36
568.66	45954.08
568.83	46223.24
568.99	46190.47
569.15	46230.26
569.32	45595.98
569.48	45729.39
569.64	46286.43
569.81	46286.43
569.97	46146.00
570.13	46490.06
570.30	45806.62
570.46	45890.88
570.62	45495.33
570.78	45649.81
570.95	46555.60
571.11	46284.09
571.27	46059.40
571.43	46188.13
571.60	46417.50
571.76	46169.41
571.92	46284.09
572.09	46415.16
572.25	46204.52
572.41	46452.61
572.57	46450.27
572.74	46813.05
572.90	46225.58
573.06	46579.00
573.22	46501.76
573.38	46368.35
573.55	46167.07
573.71	46302.82
573.87	46080.47
574.03	46567.30
574.20	46506.44
574.36	46185.79
574.52	46433.89
574.68	46319.20
574.84	46520.49
575.01	46305.16
575.17	46527.51
575.33	46185.79
575.49	46150.68
575.65	46932.42
575.82	46536.87
575.98	46639.86
576.14	46789.65
576.30	46628.15
576.46	46394.10
576.62	46281.75
576.79	46557.94
576.95	46230.26
577.11	46721.77
577.27	46665.60
577.43	46541.55
577.59	46520.49
577.75	46515.81
577.92	46298.14
578.08	46553.26
578.24	46267.71
578.40	46279.41
578.56	46504.10
578.72	46239.62
578.88	46382.40
579.04	46583.68
579.21	46363.67
579.37	46567.30
579.53	46515.81
579.69	45991.53
579.85	46239.62
580.01	46571.98
580.17	46464.32
580.33	46347.29
580.49	46443.25
580.65	46667.94
580.82	46574.32
580.98	46700.71
581.14	46199.83
581.30	46630.49
581.46	46642.20
581.62	46672.62
581.78	46707.73
581.94	46990.94
582.10	46911.36
582.26	46756.88
582.42	46333.24
582.58	46539.21
582.74	46630.49
582.90	46930.08
583.06	46752.20
583.22	46628.15
583.38	46883.27
583.54	46967.53
583.70	46848.16
583.86	47021.36
584.02	46571.98
584.18	46660.92
584.34	46553.26
584.50	46663.26
584.66	45844.07
584.82	46312.18
584.98	46443.25
585.14	46686.67
585.30	46209.20
585.46	46323.88
585.62	46628.15
585.78	46810.71
585.94	46494.74
586.10	46738.16
586.26	46525.17
586.42	46712.41
586.58	47058.81
586.74	46497.08
586.90	46810.71
587.06	46356.65
587.22	46894.97
587.38	46714.75
587.54	46834.12
587.70	46794.33
587.86	46653.90
588.02	46660.92
588.18	46569.64
588.34	46277.07
588.49	46134.30
588.65	46028.98
588.81	46143.66
588.97	46052.38
589.13	46115.58
589.29	46321.54
589.45	46473.68
589.61	46679.64
589.77	46740.50
589.93	46469.00
590.08	46625.81
590.24	46979.23
590.40	47246.05
590.56	46768.58
590.72	46899.65
590.88	46436.23
591.04	46295.80
591.20	47267.12
591.35	46862.21
591.51	47126.69
591.67	46705.39
591.83	46906.68
591.99	46490.06
592.15	46749.86
592.31	46850.50
592.46	46602.41
592.62	46894.97
592.78	46813.05
592.94	47054.13
593.10	46410.48
593.26	47189.88
593.41	46756.88
593.57	46513.47
593.73	46752.20
593.89	46672.62
594.05	46712.41
594.20	46520.49
594.36	46721.77
594.52	46382.40
594.68	46887.95
594.84	46672.62
594.99	46958.17
595.15	46487.72
595.31	46635.17
595.47	46784.97
595.62	46651.56
595.78	46934.76
595.94	47054.13
596.10	46916.04
596.25	46925.40
596.41	46738.16
596.57	46717.09
596.73	47051.79
596.88	46454.95
597.04	46775.61
597.20	46698.37
597.36	47171.16
597.51	46939.44
597.67	47138.39
597.83	46485.38
597.99	47344.36
598.14	46965.19
598.30	46934.76
598.46	46644.54
598.61	46871.57
598.77	46396.44
598.93	46450.27
599.09	46560.28
599.24	47716.50
599.40	46735.82
599.56	46724.11
599.71	46539.21
599.87	47206.26
600.03	46677.30
600.18	46705.39
600.34	46897.31
600.50	46607.09
600.65	46712.41
600.81	47140.73
600.97	46740.50
601.12	46871.57
601.28	46742.84
601.44	46806.03
601.59	46326.22
601.75	46443.25
601.91	46499.42
602.06	46625.81
602.22	46731.14
602.37	46595.38
602.53	46546.23
602.69	46972.21
602.84	46843.48
603.00	46677.30
603.16	46806.03
603.31	46511.13
603.47	46522.83
603.62	46593.04
603.78	47016.68
603.94	46373.03
604.09	47126.69
604.25	46464.32
604.40	46855.18
604.56	46501.76
604.71	47040.09
604.87	46422.19
605.03	47028.38
605.18	46368.35
605.34	46866.89
605.49	46536.87
605.65	47037.75
605.80	46616.45
605.96	46614.11
606.12	46562.62
606.27	46815.40
606.43	46579.00
606.58	46497.08
606.74	46424.53
606.89	46461.97
607.05	46461.97
607.20	47004.98
607.36	46560.28
607.51	46361.33
607.67	46260.69
607.82	46564.96
607.98	46501.76
608.13	46380.06
608.29	46478.36
608.44	45827.69
608.60	46490.06
608.75	46113.23
608.91	46494.74
609.06	45928.33
609.22	46342.61
609.37	45879.18
609.53	46586.02
609.68	46286.43
609.84	46199.83
609.99	46078.13
610.15	45886.20
610.30	46087.49
610.46	45654.49
610.61	46082.81
610.76	46263.03
610.92	46089.83
611.07	46349.63
611.23	46454.95
611.38	45647.47
611.54	45984.51
611.69	45820.67
611.84	45511.72
612.00	45446.18
612.15	46110.89
612.31	45858.12
612.46	45656.83
612.62	45780.88
612.77	45331.50
612.92	46295.80
613.08	45661.51
613.23	45958.76
613.39	45509.38
613.54	45392.35
613.69	45904.93
613.85	45256.60
614.00	45649.81
614.15	46129.62
614.31	46127.28
614.46	46124.94
614.62	45879.18
614.77	45661.51
614.92	45455.54
615.08	45411.07
615.23	45205.11
615.38	45483.63
615.54	45083.40
615.69	45432.14
615.84	45315.11
616.00	45532.78
616.15	45162.98
616.30	45425.12
616.46	45127.87
616.61	44797.85
616.76	45125.53
616.92	45092.76
617.07	44746.36
617.22	45059.99
617.37	45205.11
617.53	45483.63
617.68	45724.71
617.83	44952.33
617.99	45378.31
618.14	44968.71
618.29	45258.94
618.45	44942.97
618.60	44685.51
618.75	44467.84
618.90	44390.60
619.06	45071.70
619.21	44861.05
619.36	45345.54
619.51	45146.59
619.67	44718.28
619.82	45209.79
619.97	45202.77
620.12	44912.54
620.28	44135.48
620.43	44360.17
620.58	44921.90
620.73	44910.20
620.89	44402.30
621.04	44605.93
621.19	44603.59
621.34	44776.79
621.49	44336.77
621.65	44650.40
621.80	44418.69
621.95	44287.62
622.10	44554.44
622.25	44196.34
622.41	44219.74
622.56	44119.10
622.71	44507.63
622.86	44339.11
623.01	44203.36
623.16	44116.76
623.32	44062.93
623.47	44676.15
623.62	44121.44
623.77	43868.66
623.92	43875.68
624.07	43950.58
624.23	43901.43
624.38	43515.24
624.53	43814.83
624.68	43896.75
624.83	43693.12
624.98	44126.12
625.13	43299.91
625.29	44034.84
625.44	43414.60
625.59	43126.71
625.74	43597.16
625.89	43416.94
626.04	43274.16
626.19	43358.42
626.34	43552.69
626.49	43903.77
626.65	43936.54
626.80	44133.14
626.95	43498.86
627.10	43489.49
627.25	43124.37
627.40	43115.01
627.55	43236.72
627.70	42323.91
627.85	42895.00
628.00	43166.50
628.15	43215.65
628.30	43051.81
628.45	42857.55
628.60	42899.68
628.76	42927.77
628.91	43203.95
629.06	42930.11
629.21	42784.99
629.36	42909.04
629.51	42939.47
629.66	42546.26
629.81	42623.50
629.96	42717.12
630.11	43126.71
630.26	43002.66
630.41	43313.95
630.56	42967.55
630.71	42721.80
630.86	42174.11
631.01	42581.37
631.16	42583.71
631.31	42319.23
631.46	42557.96
631.61	42405.83
631.76	42057.09
631.91	42469.02
632.06	42588.39
632.21	42738.18
632.36	42775.63
632.51	42213.90
632.66	42213.90
632.81	42209.22
632.96	42274.76
633.10	41970.49
633.25	42469.02
633.40	42368.38
633.55	42251.35
633.70	42190.50
633.85	42246.67
634.00	42277.10
634.15	42377.74
634.30	42038.36
634.45	42244.33
634.60	42036.02
634.75	42572.00
634.90	42014.96
635.05	41979.85
635.19	41787.92
635.34	42019.64
635.49	41628.77
635.64	41975.17
635.79	42019.64
635.94	41715.37
636.09	41422.80
636.24	41366.63
636.39	41766.86
636.53	41752.82
636.68	41684.94
636.83	41518.76
636.98	41570.25
637.13	41691.96
637.28	42108.58
637.43	41832.39
637.57	41855.80
637.72	41303.43
637.87	41698.98
638.02	41345.56
638.17	41076.40
638.32	41155.98
638.46	41752.82
638.61	41083.42
638.76	41317.48
638.91	41488.34
639.06	41158.32
639.20	41361.95
639.35	41289.39
639.50	41394.71
639.65	41273.01
639.80	41338.54
639.94	41301.09
640.09	40624.68
640.24	40957.03
640.39	40570.85
640.54	40568.51
640.68	40877.46
640.83	40495.95
640.98	40514.67
641.13	40505.31
641.27	40978.10
641.42	40788.52
641.57	40715.96
641.72	40837.67
641.86	40657.45
642.01	40575.53
642.16	40561.48
642.31	40343.81
642.45	40407.01
642.60	40285.30
642.75	40289.98
642.90	40264.24
643.04	40512.33
643.19	40383.60
643.34	40297.00
643.48	40023.16
643.63	40444.46
643.78	40060.61
643.93	40367.22
644.07	40399.99
644.22	40301.68
644.37	40282.96
644.51	40273.60
644.66	39929.54
644.81	40154.23
644.95	40304.02
645.10	40289.98
645.25	40282.96
645.39	40360.20
645.54	40067.63
645.69	39995.07
645.83	40062.95
645.98	39840.60
646.13	39910.82
646.27	40215.08
646.42	39447.39
646.57	39952.94
646.71	39676.76
646.86	39431.01
647.00	39847.62
647.15	40091.04
647.30	39948.26
647.44	39358.45
647.59	39634.63
647.74	39627.61
647.88	39587.82
648.03	39962.31
648.17	39805.49
648.32	39611.23
648.47	39526.97
648.61	39037.80
648.76	39473.13
648.90	39330.36
649.05	39526.97
649.20	39463.77
649.34	39285.89
649.49	38747.57
649.63	39028.43
649.78	39084.61
649.92	39704.85
650.07	39164.18
650.21	39079.92
650.36	39023.75
650.51	39304.62
650.65	39318.66
650.80	39496.54
650.94	39536.33
651.09	39182.91
651.23	38983.96
651.38	39023.75
651.52	38506.49
651.67	38513.52
651.81	38462.02
651.96	38328.61
652.10	38471.39
652.25	38920.77
652.39	38677.35
652.54	38810.76
652.68	39138.44
652.83	38918.43
652.97	39040.14
653.12	38616.50
653.26	38345.00
653.41	38590.75
653.55	38419.89
653.70	38115.62
653.84	38719.48
653.99	38188.18
654.13	38557.99
654.27	38223.29
654.42	38422.23
654.56	38019.66
654.71	38581.39
654.85	38373.08
655.00	37937.74
655.14	38073.49
655.29	37780.93
655.43	37834.76
655.57	37851.14
655.72	37591.34
655.86	38024.34
656.01	37722.41
656.15	37420.48
656.30	37605.39
656.44	37635.81
656.58	37240.26
656.73	37549.21
656.87	37736.46
657.01	37703.69
657.16	37961.15
657.30	37467.30
657.45	37729.44
657.59	37560.92
657.73	37628.79
657.88	37926.04
658.02	37759.86
658.16	37972.85
658.31	37778.59
658.45	37516.45
658.60	37500.06
658.74	37532.83
658.88	37752.84
659.03	37069.40
659.17	37392.40
659.31	37088.13
659.46	37071.75
659.60	37240.26
659.74	37476.66
659.89	37006.21
660.03	36910.25
660.17	37338.57
660.32	36802.58
660.46	36964.08
660.60	36980.46
660.74	37083.45
660.89	37038.98
661.03	36692.58
661.17	36730.03
661.32	36697.26
661.46	36816.63
661.60	36882.16
661.74	36168.30
661.89	36507.68
662.03	36112.13
662.17	35859.35
662.31	36121.49
662.46	36737.05
662.60	36432.78
662.74	36254.90
662.88	36147.23
663.03	36074.68
663.17	35931.90
663.31	35559.76
663.45	36053.61
663.60	36172.98
663.74	36016.16
663.88	35941.27
664.02	35730.62
664.17	35517.63
664.31	35424.01
664.45	35789.13
664.59	35414.65
664.73	35318.68
664.88	36053.61
665.02	35599.55
665.16	35262.51
665.30	35419.33
665.44	35398.26
665.59	34925.47
665.73	35122.08
665.87	35014.41
666.01	35105.70
666.15	35049.52
666.29	34913.77
666.44	35117.40
666.58	34827.17
666.72	34623.54
666.86	34822.49
667.00	34424.60
667.14	34457.37
667.28	34506.52
667.43	34033.73
667.57	34829.51
667.71	34876.32
667.85	34558.01
667.99	34338.00
668.13	34480.77
668.27	34359.06
668.41	34600.14
668.56	34213.95
668.70	34438.64
668.84	34160.12
668.98	33612.43
669.12	33570.30
669.26	33799.68
669.40	33490.73
669.54	33572.64
669.68	33741.16
669.82	33457.96
669.96	33331.57
670.10	33656.90
670.25	33486.04
670.39	32959.42
670.53	32870.48
670.67	33593.71
670.81	33443.91
670.95	33130.28
671.09	33247.31
671.23	33029.64
671.37	32985.17
671.51	32711.33
671.65	33071.77
671.79	32734.73
671.93	32701.96
672.07	32760.48
672.21	32716.01
672.35	32442.17
672.49	32538.13
672.63	32811.97
672.77	32563.87
672.91	32491.32
673.05	32322.80
673.19	32257.26
673.33	32018.53
673.47	31732.98
673.61	31887.46
673.75	31695.53
673.89	31398.29
674.03	31674.47
674.17	31442.76
674.31	31594.89
674.45	31915.54
674.59	31632.34
674.73	31339.77
674.87	31068.27
675.01	31625.32
675.15	31218.07
675.29	31412.33
675.43	30843.58
675.56	30962.95
675.70	30930.18
675.84	30583.78
675.98	30162.48
676.12	30644.63
676.26	30792.09
676.40	30749.96
676.54	30909.11
676.68	30703.15
676.82	29710.76
676.96	30642.29
677.10	30260.79
677.23	30155.46
677.37	29940.13
677.51	30052.48
677.65	30080.56
677.79	29411.17
677.93	29296.49
678.07	29722.46
678.21	29032.00
678.34	29230.95
678.48	29113.92
678.62	29060.09
678.76	28767.52
678.90	28659.86
679.04	28800.29
679.18	28903.28
679.31	28528.79
679.45	28325.16
679.59	28662.20
679.73	28311.12
679.87	28381.34
680.00	28320.48
680.14	28493.68
680.28	28493.68
680.42	27648.75
680.56	27938.97
680.70	27580.87
680.83	27730.67
680.97	27821.95
681.11	27929.61
681.25	27356.18
681.39	27641.73
681.52	27105.74
681.66	27667.47
681.80	27182.98
681.94	26913.82
682.07	26934.88
682.21	27166.60
682.35	26883.39
682.49	27044.89
682.62	26740.62
682.76	26813.18
682.90	26574.44
683.04	26429.33
683.17	26047.82
683.31	25998.67
683.45	26221.02
683.59	26033.78
683.72	26047.82
683.86	25905.05
684.00	25839.51
684.13	25666.31
684.27	25507.16
684.41	25706.10
684.55	25329.28
684.68	25448.64
684.82	25460.35
684.96	25315.23
685.09	24805.00
685.23	24926.71
685.37	24879.89
685.50	24917.34
685.64	24629.46
685.78	24500.73
685.91	24713.72
686.05	24386.04
686.19	23695.58
686.32	24100.50
686.46	23903.89
686.60	23442.81
686.73	23274.29
686.87	23459.19
687.01	23117.47
687.14	23005.13
687.28	23325.78
687.42	23370.25
687.55	23487.28
687.69	23433.44
687.82	22757.03
687.96	23150.24
688.10	22888.10
688.23	22745.33
688.37	22642.34
688.50	22637.66
688.64	22757.03
688.78	23049.60
688.91	22232.75
689.05	22476.16
689.18	22431.69
689.32	22380.20
689.46	22218.71
689.59	22394.25
689.73	22307.65
689.86	21975.29
690.00	21624.21
690.13	21900.39
690.27	21792.73
690.41	21790.39
690.54	21322.28
690.68	21385.47
690.81	21722.51
690.95	21338.66
691.08	21345.69
691.22	21106.95
691.35	21364.41
691.49	21404.20
691.62	21188.87
691.76	20767.57
691.89	21092.91
692.03	20805.02
692.16	20685.65
692.30	20685.65
692.43	20580.33
692.57	20240.95
692.70	20287.76
692.84	20350.96
692.97	20109.88
693.11	20224.57
693.24	19726.04
693.38	19719.01
693.51	20051.37
693.65	20006.90
693.78	19934.34
693.92	19496.66
694.05	19489.64
694.19	19370.27
694.32	19281.33
694.45	19293.04
694.59	19353.89
694.72	19267.29
694.86	19105.79
694.99	19157.28
695.13	18916.21
695.26	18965.36
695.39	18897.49
695.53	19051.96
695.66	19082.39
695.80	18801.52
695.93	18588.53
696.07	18487.89
696.20	18551.09
696.33	18288.95
696.47	18288.95
696.60	18150.85
696.73	18235.11
696.87	18176.60
697.00	17729.56
697.14	18015.10
697.27	17518.91
697.40	17722.54
697.54	17563.38
697.67	17556.36
697.80	17638.28
697.94	16982.93
698.07	17069.53
698.21	16912.71
698.34	17200.60
698.47	17181.87
698.61	17062.51
698.74	16702.06
698.87	16816.75
699.01	16327.58
699.14	16760.58
699.27	16589.72
699.40	16264.38
699.54	16402.47
699.67	16533.54
699.80	16451.63
699.94	16107.57
700.07	16212.89
700.20	16332.26
700.34	16301.83
700.47	16042.03
700.60	16072.46
700.73	16269.06
700.87	15896.92
701.00	15594.99
701.13	15473.28
701.26	15648.82
701.40	15522.43
701.53	15435.83
701.66	15482.64
701.79	15309.44
701.93	15213.48
702.06	14963.04
702.19	15009.86
702.32	15080.07
702.46	14995.81
702.59	14913.89
702.72	15070.71
702.85	14951.34
702.99	14785.16
703.12	14778.14
703.25	14979.43
703.38	14417.70
703.51	14406.00
703.65	14626.01
703.78	14558.13
703.91	14097.05
704.04	14036.19
704.17	14019.81
704.31	13928.53
704.44	14064.28
704.57	14015.13
704.70	13888.74
704.83	14087.68
704.96	13870.01
705.10	13944.91
705.23	13598.51
>>>>>End Processed Spectral Data<<<<<
