SpectraSuite Data File
++++++++++++++++++++++++++++++++++++
Date: Fri Oct 25 10:44:27 EDT 2013
User: price-jones
Dark Spectrum Present: No
Reference Spectrum Present: No
Number of Sampled Component Spectra: 1
Spectrometers: USB2+H05261
Integration Time (usec): 100000 (USB2+H05261)
Spectra Averaged: 1 (USB2+H05261)
Boxcar Smoothing: 0 (USB2+H05261)
Correct for Electrical Dark: No (USB2+H05261)
Strobe/Lamp Enabled: No (USB2+H05261)
Correct for Detector Non-linearity: No (USB2+H05261)
Correct for Stray Light: No (USB2+H05261)
Number of Pixels in Processed Spectrum: 2048
>>>>>Begin Processed Spectral Data<<<<<
365.73	191.92
365.92	191.92
366.12	191.92
366.32	65.54
366.52	32.77
366.72	37.45
366.91	60.85
367.11	0.00
367.31	30.43
367.51	79.58
367.70	0.00
367.90	70.22
368.10	93.62
368.30	11.70
368.49	18.72
368.69	102.98
368.89	14.04
369.09	9.36
369.28	9.36
369.48	67.88
369.68	131.07
369.87	53.83
370.07	93.62
370.27	147.45
370.47	215.33
370.66	360.44
370.86	482.15
371.06	510.24
371.25	557.05
371.45	514.92
371.65	437.68
371.84	449.38
372.04	440.02
372.24	416.62
372.44	580.45
372.63	545.34
372.83	521.94
373.03	552.37
373.22	475.13
373.42	458.74
373.62	540.66
373.81	540.66
374.01	540.66
374.21	599.18
374.40	564.07
374.60	526.62
374.79	573.43
374.99	580.45
375.19	624.92
375.38	620.24
375.58	653.01
375.78	732.59
375.97	648.33
376.17	601.52
376.37	575.77
376.56	582.79
376.76	678.76
376.95	575.77
377.15	737.27
377.35	723.23
377.54	650.67
377.74	568.75
377.93	697.48
378.13	650.67
378.33	664.71
378.52	683.44
378.72	674.07
378.91	622.58
379.11	645.99
379.31	664.71
379.50	615.56
379.70	648.33
379.89	737.27
380.09	690.46
380.28	739.61
380.48	622.58
380.68	697.48
380.87	664.71
381.07	720.88
381.26	739.61
381.46	793.44
381.65	798.12
381.85	734.93
382.04	795.78
382.24	772.38
382.43	692.80
382.63	746.63
382.83	662.37
383.02	765.36
383.22	760.67
383.41	730.25
383.61	784.08
383.80	840.25
384.00	758.33
384.19	748.97
384.39	856.64
384.58	875.36
384.78	861.32
384.97	919.83
385.17	851.96
385.36	770.04
385.56	809.83
385.75	767.70
385.95	868.34
386.14	889.40
386.34	858.98
386.53	882.38
386.72	849.61
386.92	849.61
387.11	901.11
387.31	901.11
387.50	758.33
387.70	849.61
387.89	894.08
388.09	938.55
388.28	887.06
388.48	961.96
388.67	936.21
388.86	926.85
389.06	884.72
389.25	954.94
389.45	945.58
389.64	1057.92
389.84	1022.81
390.03	1053.24
390.22	1048.56
390.42	1036.86
390.61	1022.81
390.81	1093.03
391.00	1048.56
391.19	1081.33
391.39	1050.90
391.58	1128.14
391.78	1135.16
391.97	1142.18
392.16	1067.28
392.36	1086.01
392.55	1013.45
392.75	1041.54
392.94	1004.09
393.13	978.34
393.33	1048.56
393.52	1055.58
393.71	1132.82
393.91	1188.99
394.10	1170.27
394.29	1193.67
394.49	1226.44
394.68	1210.06
394.88	1299.00
395.07	1224.10
395.26	1198.35
395.46	1294.32
395.65	1320.06
395.84	1275.59
396.04	1266.23
396.23	1217.08
396.42	1233.46
396.62	1179.63
396.81	1188.99
397.00	1191.33
397.19	1371.55
397.39	1357.51
397.58	1495.60
397.77	1409.00
397.97	1519.01
398.16	1474.54
398.35	1535.39
398.55	1500.28
398.74	1511.99
398.93	1514.33
399.12	1570.50
399.32	1544.75
399.51	1526.03
399.70	1570.50
399.90	1617.31
400.09	1757.74
400.28	1645.40
400.47	1537.73
400.67	1746.04
400.86	1734.34
401.05	1760.08
401.24	1729.66
401.44	1804.55
401.63	1818.60
401.82	1825.62
402.01	1678.16
402.21	1860.73
402.40	1785.83
402.59	1823.28
402.78	1788.17
402.97	1937.96
403.17	1849.02
403.36	1844.34
403.55	1760.08
403.74	2003.50
403.93	1874.77
404.13	1863.07
404.32	1851.36
404.51	1926.26
404.70	1977.75
404.89	1947.33
405.09	2043.29
405.28	1956.69
405.47	1975.41
405.66	2001.16
405.85	2029.24
406.05	2043.29
406.24	2005.84
406.43	2019.88
406.62	2099.46
406.81	2085.42
407.00	2052.65
407.20	2033.93
407.39	2094.78
407.58	2216.49
407.77	2284.36
407.96	2335.85
408.15	2305.43
408.34	2298.41
408.54	2286.70
408.73	2347.56
408.92	2399.05
409.11	2300.75
409.30	2303.09
409.49	2284.36
409.68	2286.70
409.87	2319.47
410.07	2347.56
410.26	2532.46
410.45	2473.95
410.64	2530.12
410.83	2558.21
411.02	2656.51
411.21	2658.85
411.40	2609.70
411.59	2724.38
411.78	2750.13
411.98	2621.40
412.17	2724.38
412.36	2761.83
412.55	2689.28
412.74	2815.66
412.93	2885.88
413.12	2885.88
413.31	2995.89
413.50	2794.60
413.69	2848.43
413.88	2942.05
414.07	2925.67
414.26	2958.44
414.45	2911.63
414.64	3112.91
414.83	3077.80
415.02	3077.80
415.22	3035.67
415.41	3246.32
415.60	3215.90
415.79	3269.73
415.98	3332.92
416.17	3382.07
416.36	3435.91
416.55	3234.62
416.74	3236.96
416.93	3393.78
417.12	3304.84
417.31	3431.23
417.50	3510.80
417.69	3466.33
417.88	3588.04
418.07	3545.91
418.26	3574.00
418.45	3510.80
418.64	3779.97
418.83	3728.47
419.02	3789.33
419.21	3707.41
419.39	3749.54
419.58	3623.15
419.77	3637.19
419.96	3838.48
420.15	3775.28
420.34	3829.12
420.53	3772.94
420.72	3777.62
420.91	3964.87
421.10	3946.14
421.29	3925.08
421.48	3997.64
421.67	3913.38
421.86	3843.16
422.05	3836.14
422.24	3833.80
422.43	3784.65
422.61	3866.56
422.80	3953.16
422.99	4007.00
423.18	4102.96
423.37	4107.64
423.56	4086.58
423.75	3922.74
423.94	3941.46
424.13	3817.41
424.32	3864.22
424.50	4161.47
424.69	4219.99
424.88	4081.89
425.07	4065.51
425.26	3918.06
425.45	4049.13
425.64	3927.42
425.83	4056.15
426.01	4112.32
426.20	4126.36
426.39	4091.26
426.58	4112.32
426.77	4051.47
426.96	4117.00
427.15	4065.51
427.33	4189.56
427.52	4184.88
427.71	4383.82
427.90	4191.90
428.09	4425.95
428.28	4264.46
428.46	4231.69
428.65	4344.03
428.84	4285.52
429.03	4397.87
429.22	4217.65
429.40	4280.84
429.59	4180.20
429.78	4049.13
429.97	4060.83
430.16	4109.98
430.34	4189.56
430.53	4128.70
430.72	4184.88
430.91	4353.40
431.10	4451.70
431.28	4550.00
431.47	4699.80
431.66	4685.75
431.85	4587.45
432.03	4631.92
432.22	4910.44
432.41	4828.53
432.60	4774.69
432.79	4952.57
432.97	4985.34
433.16	4905.76
433.35	4727.88
433.54	4723.20
433.72	4781.71
433.91	4641.28
434.10	4856.61
434.28	4751.29
434.47	5004.07
434.66	5060.24
434.85	5097.69
435.03	4910.44
435.22	4882.36
435.41	5167.90
435.59	5111.73
435.78	5247.48
435.97	5097.69
436.16	5078.96
436.34	5221.74
436.53	5334.08
436.72	5469.83
436.90	5163.22
437.09	5130.45
437.28	5238.12
437.46	5322.38
437.65	5273.23
437.84	5462.81
438.02	5373.87
438.21	5451.11
438.40	5313.02
438.58	5626.65
438.77	5650.05
438.96	5387.91
439.14	5666.44
439.33	5778.78
439.52	5841.98
439.70	5741.33
439.89	5898.15
440.08	5891.13
440.26	6033.90
440.45	5853.68
440.63	6066.67
440.82	6061.99
441.01	6008.16
441.19	6078.37
441.38	6300.72
441.57	6183.70
441.75	6239.87
441.94	6193.06
442.12	6436.47
442.31	6420.09
442.50	6562.86
442.68	6384.98
442.87	6204.76
443.05	6602.65
443.24	6729.04
443.43	6644.78
443.61	6499.67
443.80	6693.93
443.98	6483.28
444.17	6455.20
444.35	6642.44
444.54	6757.13
444.73	6640.10
444.91	6722.02
445.10	6368.60
445.28	6597.97
445.47	6504.35
445.65	6686.91
445.84	6612.01
446.02	6537.12
446.21	6726.70
446.39	6698.61
446.58	6817.98
446.77	6885.86
446.95	6651.80
447.14	6883.52
447.32	6977.14
447.51	6778.19
447.69	6640.10
447.88	6984.16
448.06	6878.83
448.25	6743.08
448.43	6998.20
448.62	6995.86
448.80	6813.30
448.99	6820.32
449.17	7155.02
449.36	6923.30
449.54	7162.04
449.73	7023.95
449.91	7379.71
450.10	7314.17
450.28	7412.48
450.46	7234.60
450.65	7424.18
450.83	7442.90
451.02	7344.60
451.20	7330.56
451.39	7403.11
451.57	7382.05
451.76	7372.69
451.94	7403.11
452.13	7424.18
452.31	7386.73
452.49	7129.27
452.68	7295.45
452.86	7258.00
453.05	7452.27
453.23	7562.27
453.42	7482.69
453.60	7419.50
453.78	7660.57
453.97	7426.52
454.15	7606.74
454.34	7573.97
454.52	7585.68
454.70	7604.40
454.89	7527.16
455.07	7676.96
455.26	7662.91
455.44	7936.76
455.62	8016.33
455.81	8063.15
455.99	8140.38
456.17	8025.70
456.36	7796.32
456.54	7995.27
456.73	8184.85
456.91	8327.63
457.09	8271.45
457.28	8430.61
457.46	7997.61
457.64	8226.98
457.83	8297.20
458.01	8070.17
458.19	8222.30
458.38	8348.69
458.56	8393.16
458.74	8540.61
458.93	8362.73
459.11	8435.29
459.29	8648.28
459.48	8437.63
459.66	8355.71
459.84	8451.67
460.03	8847.22
460.21	8615.51
460.39	8830.84
460.57	8683.39
460.76	8695.09
460.94	8781.69
461.12	8912.76
461.31	8762.97
461.49	8842.54
461.67	8950.21
461.85	9238.09
462.04	8847.22
462.22	9158.52
462.40	9128.09
462.59	9013.40
462.77	9296.61
462.95	9149.15
463.13	9015.74
463.32	9228.73
463.50	9137.45
463.68	9263.84
463.86	9207.67
464.05	9228.73
464.23	9254.48
464.41	9252.14
464.59	9015.74
464.78	9142.13
464.96	9334.06
465.14	9312.99
465.32	9277.88
465.50	9493.21
465.69	9554.07
465.87	9317.67
466.05	9418.32
466.23	9366.82
466.41	9226.39
466.60	9612.58
466.78	9294.27
466.96	9348.10
467.14	9469.81
467.32	9497.89
467.51	9598.54
467.69	9415.98
467.87	9462.79
468.05	9771.74
468.23	9451.08
468.41	9549.39
468.60	9598.54
468.78	9919.19
468.96	9790.46
469.14	10029.20
469.32	9982.38
469.50	9795.14
469.69	9769.40
469.87	10054.94
470.05	10066.64
470.23	10003.45
470.41	10015.15
470.59	10242.18
470.77	10270.27
470.95	10148.56
471.14	10188.35
471.32	10370.91
471.50	10597.95
471.68	10377.94
471.86	10736.04
472.04	10518.37
472.22	10841.36
472.40	10471.56
472.58	10410.70
472.77	10604.97
472.95	10925.62
473.13	11052.01
473.31	10630.71
473.49	10834.34
473.67	10977.11
473.85	10839.02
474.03	11098.82
474.21	10970.09
474.39	11159.67
474.57	11468.62
474.75	11513.10
474.93	11452.24
475.12	11396.07
475.30	11510.75
475.48	11482.67
475.66	11709.70
475.84	11435.86
476.02	11494.37
476.20	11716.72
476.38	12056.10
476.56	12131.00
476.74	12032.69
476.92	12009.29
477.10	12163.76
477.28	12355.69
477.46	12334.62
477.64	12294.83
477.82	12519.53
478.00	12872.95
478.18	12603.78
478.36	12830.82
478.54	12851.88
478.72	12924.44
478.90	13280.20
479.08	13233.39
479.26	13561.06
479.44	13591.49
479.62	13420.63
479.80	13486.17
479.98	13373.82
480.16	13958.96
480.34	13790.44
480.52	13991.72
480.70	13958.96
480.88	13855.97
481.06	14099.39
481.24	14153.22
481.41	14391.95
481.59	14572.18
481.77	14616.65
481.95	14637.71
482.13	14946.66
482.31	15016.88
482.49	15145.61
482.67	15145.61
482.85	15452.22
483.03	15157.31
483.21	15667.55
483.39	15744.78
483.57	15822.02
483.74	15878.19
483.92	16063.10
484.10	15667.55
484.28	16051.39
484.46	16334.60
484.64	16566.31
484.82	16755.90
485.00	16620.14
485.18	16662.27
485.35	16819.09
485.53	16273.74
485.71	16308.85
485.89	16723.13
486.07	16755.90
486.25	17043.78
486.43	17366.78
486.61	17345.71
486.78	17500.19
486.96	17633.60
487.14	18185.96
487.32	18284.26
487.50	18469.17
487.68	18721.95
487.85	18691.52
488.03	18593.22
488.21	19030.90
488.39	18885.78
488.57	19199.41
488.75	18998.13
488.92	19290.70
489.10	19779.87
489.28	20093.50
489.46	20100.52
489.64	19765.82
489.81	20397.77
489.99	20269.04
490.17	20407.13
490.35	20648.21
490.53	20758.21
490.70	21083.55
490.88	20996.95
491.06	21376.11
491.24	21214.62
491.41	21261.43
491.59	21156.10
491.77	21142.06
491.95	21366.75
492.13	21628.89
492.30	22111.04
492.48	21909.75
492.66	22478.50
492.84	22471.48
493.01	22494.89
493.19	22253.81
493.37	22644.68
493.54	22752.35
493.72	22993.42
493.90	22876.40
494.08	23391.31
494.25	23580.90
494.43	23892.19
494.61	24081.77
494.79	24063.05
494.96	23889.85
495.14	23943.68
495.32	24299.44
495.49	24079.43
495.67	24580.31
495.85	24577.97
496.02	24652.86
496.20	24875.21
496.38	25078.84
496.55	24844.79
496.73	25652.27
496.91	25448.64
497.09	25731.85
497.26	25633.55
497.44	25282.47
497.62	25612.48
497.79	25769.30
497.97	25315.23
498.14	25921.43
498.32	26134.42
498.50	26279.54
498.67	26448.05
498.85	26555.72
499.03	26525.29
499.20	26658.70
499.38	26679.77
499.56	26815.52
499.73	27164.26
499.91	26850.63
500.08	26955.95
500.26	26735.94
500.44	26969.99
500.61	27194.68
500.79	27145.53
500.97	27482.57
501.14	27449.80
501.32	27534.06
501.49	27658.11
501.67	27669.81
501.84	27908.55
502.02	28140.26
502.20	27985.79
502.37	28379.00
502.55	28215.16
502.72	28357.93
502.90	28280.69
503.07	28624.75
503.25	28622.41
503.43	28617.73
503.60	28734.76
503.78	28753.48
503.95	28804.97
504.13	28931.36
504.30	29230.95
504.48	29139.67
504.65	29612.46
504.83	29617.14
505.01	30132.06
505.18	29855.87
505.36	30176.53
505.53	29968.22
505.71	30188.23
505.88	30426.96
506.06	30281.85
506.23	30625.91
506.41	30223.34
506.58	30010.35
506.76	30260.79
506.93	30890.39
507.11	30312.28
507.28	30096.95
507.46	30403.56
507.63	30574.42
507.81	30518.25
507.98	30808.47
508.16	31012.10
508.33	30972.31
508.50	31438.08
508.68	31288.28
508.85	31573.83
509.03	31496.59
509.20	31669.79
509.38	31880.44
509.55	31866.39
509.73	31681.49
509.90	31854.69
510.08	31880.44
510.25	31957.67
510.42	31999.80
510.60	32283.01
510.77	32376.63
510.95	32718.35
511.12	32685.58
511.30	33125.60
511.47	33113.90
511.64	33149.01
511.82	32804.95
511.99	32627.07
512.17	33118.58
512.34	33027.30
512.51	33296.46
512.69	33385.40
512.86	33078.79
513.04	33404.13
513.21	33280.08
513.38	33467.32
513.56	33406.47
513.73	33352.63
513.90	33757.55
514.08	33584.35
514.25	33661.58
514.43	33553.92
514.60	34087.56
514.77	33902.66
514.95	34249.06
515.12	34232.68
515.29	34047.77
515.47	34834.19
515.64	34078.20
515.81	34272.46
515.99	34911.43
516.16	34352.04
516.33	33928.41
516.51	34265.44
516.68	33773.93
516.85	33867.55
517.03	33914.36
517.20	34300.55
517.37	34457.37
517.54	34920.79
517.72	34672.70
517.89	34539.29
518.06	34284.17
518.24	34670.36
518.41	34916.11
518.58	35213.36
518.75	35204.00
518.93	35407.62
519.10	35482.52
519.27	35393.58
519.45	35409.96
519.62	35700.19
519.79	35744.66
519.96	36290.01
520.14	36177.66
520.31	35667.42
520.48	36032.55
520.65	36538.10
520.83	36428.10
521.00	36779.18
521.17	36268.94
521.34	36615.34
521.52	36975.78
521.69	36973.44
521.86	36540.44
522.03	36659.81
522.20	37031.96
522.38	37289.42
522.55	36833.01
522.72	36783.86
522.89	36917.27
523.07	37277.71
523.24	37099.83
523.41	37614.75
523.58	37202.82
523.75	38225.63
523.92	38057.11
524.10	37886.25
524.27	38120.31
524.44	37874.55
524.61	38082.86
524.78	38197.54
524.96	38316.91
525.13	38373.08
525.30	38494.79
525.47	38864.60
525.64	38398.83
525.81	38153.07
525.98	38057.11
526.16	38143.71
526.33	37801.99
526.50	38408.19
526.67	37766.88
526.84	38312.23
527.01	37923.70
527.18	38330.95
527.36	39026.09
527.53	38946.51
527.70	38988.64
527.87	39037.80
528.04	38904.38
528.21	39061.20
528.38	39182.91
528.55	39438.03
528.72	39414.62
528.89	39431.01
529.07	39501.22
529.24	39119.71
529.41	39772.72
529.58	39449.73
529.75	39316.32
529.92	39845.28
530.09	39311.64
530.26	40048.91
530.43	39433.35
530.60	39737.62
530.77	40128.48
530.94	40091.04
531.11	39819.53
531.28	39838.26
531.46	39995.07
531.63	40449.14
531.80	40011.46
531.97	40020.82
532.14	39901.45
532.31	40058.27
532.48	40034.86
532.65	40474.88
532.82	40023.16
532.99	40907.88
533.16	40058.27
533.33	40648.08
533.50	40952.35
533.67	41010.87
533.84	40800.22
534.01	40741.71
534.18	41120.87
534.35	40821.28
534.52	41083.42
534.69	41478.97
534.86	41301.09
535.03	40926.61
535.20	41668.56
535.37	41691.96
535.54	41560.89
535.71	41397.06
535.88	41361.95
536.05	41336.20
536.22	41464.93
536.38	41441.53
536.55	41261.30
536.72	41179.39
536.89	40957.03
537.06	41436.84
537.23	41598.34
537.40	41797.29
537.57	41801.97
537.74	41511.74
537.91	41806.65
538.08	41773.88
538.25	41975.17
538.42	41813.67
538.59	42351.99
538.75	41514.08
538.92	42134.32
539.09	41921.34
539.26	42045.38
539.43	41727.07
539.60	42061.77
539.77	41858.14
539.94	41975.17
540.11	41909.63
540.28	42602.43
540.44	42305.18
540.61	42108.58
540.78	42014.96
540.95	42265.39
541.12	42073.47
541.29	42658.60
541.46	42714.78
541.62	42761.59
541.79	42817.76
541.96	42361.36
542.13	42522.85
542.30	42543.92
542.47	42955.85
542.63	42873.93
542.80	42705.41
542.97	43077.56
543.14	43409.92
543.31	43065.86
543.48	43136.07
543.64	43931.86
543.81	43557.37
543.98	43878.02
544.15	43559.71
544.32	43658.01
544.48	43777.38
544.65	43461.41
544.82	43672.06
544.99	43349.06
545.16	43917.81
545.32	43643.97
545.49	44065.27
545.66	43896.75
545.83	43985.69
546.00	43793.76
546.16	43791.42
546.33	43592.48
546.50	43695.46
546.67	43889.73
546.83	43562.05
547.00	43714.19
547.17	43936.54
547.34	43819.51
547.50	44133.14
547.67	43927.17
547.84	43887.39
548.00	44512.31
548.17	44423.37
548.34	44608.27
548.51	44243.15
548.67	44563.80
548.84	44116.76
549.01	44549.76
549.18	44055.90
549.34	44648.06
549.51	44465.50
549.68	44617.63
549.84	44863.39
550.01	45092.76
550.18	44678.49
550.34	44685.51
550.51	44751.04
550.68	44282.94
550.84	44203.36
551.01	44818.92
551.18	44851.69
551.34	44884.45
551.51	44968.71
551.68	44854.03
551.84	44954.67
552.01	44863.39
552.18	44430.39
552.34	44479.54
552.51	44938.29
552.68	44732.32
552.84	45027.23
553.01	45462.57
553.18	45144.25
553.34	44949.99
553.51	44898.50
553.67	45324.47
553.84	45839.39
554.01	45375.97
554.17	45598.32
554.34	45322.13
554.51	45415.76
554.67	45301.07
554.84	45528.10
555.00	45713.00
555.17	45574.91
555.33	45441.50
555.50	45277.66
555.67	45247.24
555.83	45045.95
556.00	45563.21
556.16	45687.26
556.33	45595.98
556.50	45710.66
556.66	45591.30
556.83	45277.66
556.99	45661.51
557.16	45785.56
557.32	45647.47
557.49	45600.66
557.65	45485.97
557.82	45621.72
557.98	45628.74
558.15	45715.34
558.32	45818.33
558.48	45549.17
558.65	45628.74
558.81	45846.41
558.98	45567.89
559.14	45701.30
559.31	45640.45
559.47	45514.06
559.64	45949.40
559.80	46129.62
559.97	46253.67
560.13	45574.91
560.30	45677.90
560.46	45773.86
560.63	45684.92
560.79	46536.87
560.96	46286.43
561.12	46330.90
561.29	45771.52
561.45	45806.62
561.61	46028.98
561.78	46082.81
561.94	45734.07
562.11	46117.92
562.27	45942.38
562.44	45799.60
562.60	46211.54
562.77	46799.01
562.93	45645.13
563.10	46527.51
563.26	46115.58
563.42	46539.21
563.59	45837.05
563.75	45495.33
563.92	46216.22
564.08	46504.10
564.24	46483.04
564.41	46777.95
564.57	46087.49
564.74	46043.02
564.90	46232.60
565.07	46185.79
565.23	46298.14
565.39	46248.99
565.56	46284.09
565.72	46281.75
565.88	46146.00
566.05	46440.91
566.21	46501.76
566.38	46366.01
566.54	46401.12
566.70	46422.19
566.87	46731.14
567.03	46377.72
567.19	46597.73
567.36	46703.05
567.52	46918.38
567.68	46539.21
567.85	46457.29
568.01	46471.34
568.17	46288.77
568.34	46494.74
568.50	46129.62
568.66	46277.07
568.83	46429.21
568.99	46220.90
569.15	46155.36
569.32	46504.10
569.48	46335.59
569.64	46124.94
569.81	46902.00
569.97	46375.37
570.13	46583.68
570.30	46351.97
570.46	46216.22
570.62	46014.93
570.78	45982.16
570.95	46347.29
571.11	46705.39
571.27	46398.78
571.43	46536.87
571.60	46363.67
571.76	46562.62
571.92	46663.26
572.09	46583.68
572.25	46293.46
572.41	46260.69
572.57	46314.52
572.74	46625.81
572.90	46480.70
573.06	46394.10
573.22	46555.60
573.38	46337.93
573.55	46326.22
573.71	46717.09
573.87	46920.72
574.03	46693.69
574.20	46590.70
574.36	46284.09
574.52	46630.49
574.68	46581.34
574.84	46726.46
575.01	46129.62
575.17	46597.73
575.33	46674.96
575.49	46328.56
575.65	46787.31
575.82	46424.53
575.98	46380.06
576.14	46679.64
576.30	46546.23
576.46	46485.38
576.62	46539.21
576.79	46513.47
576.95	46396.44
577.11	46330.90
577.27	46623.47
577.43	46660.92
577.59	46501.76
577.75	46866.89
577.92	46138.98
578.08	46443.25
578.24	46080.47
578.40	46382.40
578.56	46347.29
578.72	46754.54
578.88	46513.47
579.04	46927.74
579.21	46490.06
579.37	47304.57
579.53	46270.05
579.69	46426.87
579.85	46728.80
580.01	46897.31
580.17	46857.52
580.33	46983.91
580.49	46838.80
580.65	47033.07
580.82	47000.30
580.98	47016.68
581.14	46719.43
581.30	46642.20
581.46	46869.23
581.62	46906.68
581.78	47047.11
581.94	46894.97
582.10	46754.54
582.26	46646.88
582.42	47185.20
582.58	46557.94
582.74	46843.48
582.90	46878.59
583.06	46775.61
583.22	47086.90
583.38	47086.90
583.54	47000.30
583.70	46969.87
583.86	46965.19
584.02	46347.29
584.18	46871.57
584.34	47065.83
584.50	46377.72
584.66	46628.15
584.82	46564.96
584.98	46419.84
585.14	46913.70
585.30	46672.62
585.46	46850.50
585.62	46719.43
585.78	46534.53
585.94	46747.52
586.10	46337.93
586.26	46562.62
586.42	46923.06
586.58	46836.46
586.74	46787.31
586.90	46862.21
587.06	46775.61
587.22	47189.88
587.38	46911.36
587.54	46614.11
587.70	46759.22
587.86	47129.03
588.02	46918.38
588.18	47281.16
588.34	46401.12
588.49	46454.95
588.65	45846.41
588.81	46370.69
588.97	46356.65
589.13	46150.68
589.29	46457.29
589.45	46253.67
589.61	46464.32
589.77	46768.58
589.93	46728.80
590.08	46782.63
590.24	47056.47
590.40	47126.69
590.56	47028.38
590.72	47079.88
590.88	46930.08
591.04	46686.67
591.20	47098.60
591.35	47246.05
591.51	47168.82
591.67	46822.42
591.83	46780.29
591.99	46642.20
592.15	46990.94
592.31	46962.85
592.46	46642.20
592.62	47119.66
592.78	46997.96
592.94	47407.55
593.10	46885.61
593.26	47007.32
593.41	46939.44
593.57	46801.35
593.73	46731.14
593.89	47255.42
594.05	46916.04
594.20	46564.96
594.36	47016.68
594.52	46934.76
594.68	46761.56
594.84	46880.93
594.99	47440.32
595.15	47051.79
595.31	47454.36
595.47	46646.88
595.62	47058.81
595.78	46763.90
595.94	46972.21
596.10	47241.37
596.25	47594.79
596.41	47337.33
596.57	46918.38
596.73	47421.59
596.88	47131.37
597.04	46960.51
597.20	47159.45
597.36	46859.87
597.51	46796.67
597.67	47510.53
597.83	47051.79
597.99	46829.44
598.14	47056.47
598.30	47365.42
598.46	46974.55
598.61	47040.09
598.77	47042.43
598.93	46703.05
599.09	46754.54
599.24	47445.00
599.40	47267.12
599.56	47540.96
599.71	46946.47
599.87	46791.99
600.03	46806.03
600.18	47012.00
600.34	47044.77
600.50	47023.70
600.65	46656.24
600.81	47061.15
600.97	47306.91
601.12	46880.93
601.28	47271.80
601.44	47159.45
601.59	46969.87
601.75	46946.47
601.91	46595.38
602.06	46930.08
602.22	47000.30
602.37	46813.05
602.53	46740.50
602.69	47318.61
602.84	46382.40
603.00	46932.42
603.16	46593.04
603.31	46986.25
603.47	47033.07
603.62	46623.47
603.78	47070.51
603.94	47302.23
604.09	47339.68
604.25	47063.49
604.40	46899.65
604.56	46981.57
604.71	46953.49
604.87	46635.17
605.03	46579.00
605.18	46717.09
605.34	46784.97
605.49	46225.58
605.65	46639.86
605.80	46653.90
605.96	46799.01
606.12	47051.79
606.27	47274.14
606.43	46834.12
606.58	46887.95
606.74	46775.61
606.89	46885.61
607.05	46857.52
607.20	46824.76
607.36	46375.37
607.51	46667.94
607.67	46602.41
607.82	46862.21
607.98	46515.81
608.13	46543.89
608.29	46253.67
608.44	45984.51
608.60	46045.36
608.75	46253.67
608.91	46256.01
609.06	46211.54
609.22	46263.03
609.37	46307.50
609.53	46230.26
609.68	46506.44
609.84	46167.07
609.99	46012.59
610.15	46326.22
610.30	46225.58
610.46	46253.67
610.61	45975.14
610.76	46478.36
610.92	46223.24
611.07	46330.90
611.23	46204.52
611.38	46211.54
611.54	45996.21
611.69	46384.74
611.84	46284.09
612.00	46419.84
612.15	45928.33
612.31	45797.26
612.46	45605.34
612.62	45853.44
612.77	45940.04
612.92	46096.85
613.08	46050.04
613.23	45923.65
613.39	45750.45
613.54	45350.22
613.69	45642.79
613.85	45708.32
614.00	45865.14
614.15	46298.14
614.31	45818.33
614.46	45954.08
614.62	46185.79
614.77	45752.79
614.92	45792.58
615.08	45820.67
615.23	45240.21
615.38	45771.52
615.54	44980.42
615.69	45343.20
615.84	45626.40
616.00	45748.11
616.15	45595.98
616.30	45525.76
616.46	45186.38
616.61	45277.66
616.76	45640.45
616.92	45118.51
617.07	45198.09
617.22	45043.61
617.37	44875.09
617.53	45364.26
617.68	45322.13
617.83	45647.47
617.99	45230.85
618.14	45116.17
618.29	45415.76
618.45	44854.03
618.60	44863.39
618.75	44987.44
618.90	44973.39
619.06	45317.45
619.21	44825.94
619.36	45352.56
619.51	44968.71
619.67	44687.85
619.82	45038.93
619.97	45090.42
620.12	45345.54
620.28	44484.22
620.43	44720.62
620.58	44605.93
620.73	44706.57
620.89	44619.97
621.04	44872.75
621.19	44746.36
621.34	45064.67
621.49	44533.37
621.65	44669.12
621.80	44322.72
621.95	44556.78
622.10	44591.89
622.25	43962.28
622.41	44252.51
622.56	44147.18
622.71	44521.67
622.86	44765.09
623.01	44322.72
623.16	44222.08
623.32	44292.30
623.47	44318.04
623.62	44568.48
623.77	43789.08
623.92	44498.26
624.07	44172.93
624.23	44355.49
624.38	43945.90
624.53	44011.43
624.68	43882.70
624.83	44212.72
624.98	43856.96
625.13	43646.31
625.29	44179.95
625.44	43753.97
625.59	43370.13
625.74	43283.53
625.89	43758.66
626.04	43253.10
626.19	43461.41
626.34	43421.62
626.49	43929.51
626.65	43955.26
626.80	44140.16
626.95	43592.48
627.10	43749.29
627.25	43154.80
627.40	43098.62
627.55	42967.55
627.70	42536.90
627.85	43086.92
628.00	43299.91
628.15	42960.53
628.30	43145.44
628.45	43262.46
628.60	43665.03
628.76	43023.73
628.91	43285.87
629.06	43129.05
629.21	43564.39
629.36	42906.70
629.51	43201.61
629.66	42794.36
629.81	42553.28
629.96	43037.77
630.11	42988.62
630.26	42988.62
630.41	43379.49
630.56	42518.17
630.71	42583.71
630.86	42506.47
631.01	42609.45
631.16	42782.65
631.31	42377.74
631.46	42188.16
631.61	42649.24
631.76	42756.91
631.91	42738.18
632.06	43119.69
632.21	42866.91
632.36	42569.66
632.51	42347.31
632.66	42101.56
632.81	42363.70
632.96	42176.45
633.10	42621.16
633.25	42525.19
633.40	42644.56
633.55	42754.57
633.70	42279.44
633.85	41837.08
634.00	41897.93
634.15	42614.13
634.30	42094.53
634.45	42038.36
634.60	41998.57
634.75	41708.35
634.90	42155.39
635.05	41900.27
635.19	41663.88
635.34	42171.77
635.49	41816.01
635.64	41935.38
635.79	42092.19
635.94	42181.13
636.09	42014.96
636.24	41584.30
636.39	41797.29
636.53	41457.91
636.68	41635.79
636.83	42033.68
636.98	42096.88
637.13	41736.43
637.28	42036.02
637.43	41710.69
637.57	41816.01
637.72	42136.66
637.87	41832.39
638.02	41574.94
638.17	41862.82
638.32	41280.03
638.46	41331.52
638.61	41195.77
638.76	41368.97
638.91	41670.90
639.06	41343.22
639.20	41287.05
639.35	41778.56
639.50	41371.31
639.65	41759.84
639.80	41600.68
639.94	40999.16
640.09	40793.20
640.24	40968.74
640.39	40893.84
640.54	41301.09
640.68	40933.63
640.83	41226.20
640.98	40748.73
641.13	40896.18
641.27	41146.62
641.42	40947.67
641.57	40727.66
641.72	40832.99
641.86	40928.95
642.01	40645.74
642.16	41029.59
642.31	40240.83
642.45	40708.94
642.60	40746.39
642.75	40755.75
642.90	41060.02
643.04	40776.81
643.19	40238.49
643.34	40484.25
643.48	39997.41
643.63	40184.66
643.78	40486.59
643.93	40334.45
644.07	40273.60
644.22	40577.87
644.37	40177.64
644.51	40184.66
644.66	40612.98
644.81	40467.86
644.95	40737.02
645.10	40535.74
645.25	40554.46
645.39	40397.65
645.54	40304.02
645.69	40133.17
645.83	39765.70
645.98	39810.17
646.13	40479.57
646.27	39681.44
646.42	40112.10
646.57	40210.40
646.71	39873.37
646.86	40233.81
647.00	40137.85
647.15	40210.40
647.30	39697.83
647.44	39854.64
647.59	40327.43
647.74	39704.85
647.88	39611.23
648.03	39688.46
648.17	39548.03
648.32	40037.20
648.47	39662.72
648.61	39337.38
648.76	39842.94
648.90	39569.10
649.05	39938.90
649.20	39491.86
649.34	39543.35
649.49	39203.97
649.63	39119.71
649.78	39606.55
649.92	39178.23
650.07	39648.68
650.21	39147.80
650.36	39234.40
650.51	39168.87
650.65	39379.51
650.80	39929.54
650.94	39599.52
651.09	39702.51
651.23	39328.02
651.38	39126.74
651.52	38953.54
651.67	39054.18
651.81	38827.15
651.96	38754.59
652.10	38834.17
652.25	38848.21
652.39	39182.91
652.54	39241.42
652.68	38689.06
652.83	39215.68
652.97	39372.49
653.12	39068.22
653.26	38483.09
653.41	38930.13
653.55	38452.66
653.70	38527.56
653.84	38642.24
653.99	38560.33
654.13	38719.48
654.27	38403.51
654.42	38307.55
654.56	38045.41
654.71	38359.04
654.85	38426.92
655.00	38429.26
655.14	38253.72
655.29	38220.95
655.43	38206.90
655.57	38274.78
655.72	37811.35
655.86	37322.18
656.01	37666.24
656.15	37542.19
656.30	37738.80
656.44	37429.85
656.58	37310.48
656.73	37680.28
656.87	38155.41
657.01	37954.13
657.16	37928.38
657.30	37776.25
657.45	37809.01
657.59	37621.77
657.73	37806.67
657.88	37991.58
658.02	37984.55
658.16	37904.98
658.31	38033.71
658.45	37965.83
658.60	37607.73
658.74	37844.12
658.88	37834.76
659.03	37649.86
659.17	37425.17
659.31	37387.72
659.46	37502.40
659.60	37392.40
659.74	36914.93
659.89	37235.58
660.03	36992.17
660.17	37109.19
660.32	37024.93
660.46	37490.70
660.60	36830.67
660.74	37071.75
660.89	37273.03
661.03	36964.08
661.17	36517.04
661.32	36718.32
661.46	36856.42
661.60	36844.71
661.74	36652.79
661.89	37031.96
662.03	36573.21
662.17	36659.81
662.31	36533.42
662.46	36540.44
662.60	36837.69
662.74	36587.25
662.88	36175.32
663.03	35812.54
663.17	35644.02
663.31	35917.86
663.45	35688.49
663.60	35866.37
663.74	36100.42
663.88	36299.37
664.02	36100.42
664.17	36212.77
664.31	35669.76
664.45	35800.83
664.59	36004.46
664.73	35845.30
664.88	35969.35
665.02	35505.93
665.16	35545.72
665.30	35786.79
665.44	35147.82
665.59	35225.06
665.73	35274.21
665.87	35161.87
666.01	35445.07
666.15	34958.24
666.29	34962.92
666.44	35498.91
666.58	35002.71
666.72	34763.98
666.86	35131.44
667.00	35012.07
667.14	34948.88
667.28	34478.43
667.43	34597.80
667.57	34902.07
667.71	34373.11
667.85	34492.47
667.99	34567.37
668.13	34227.99
668.27	34698.44
668.41	34220.97
668.56	33905.00
668.70	34682.06
668.84	34031.39
668.98	33993.94
669.12	33710.74
669.26	34019.69
669.40	33497.75
669.54	33521.15
669.68	34068.84
669.82	33811.38
669.96	33509.45
670.10	33809.04
670.25	34246.72
670.39	33905.00
670.53	33303.48
670.67	33455.62
670.81	33670.95
670.95	33144.33
671.09	33209.86
671.23	33682.65
671.37	33001.55
671.51	33146.67
671.65	33177.09
671.79	33067.09
671.93	32503.02
672.07	33060.07
672.21	32999.21
672.35	32964.10
672.49	32809.63
672.63	32659.84
672.77	32285.35
672.91	32418.76
673.05	32308.76
673.19	32102.79
673.33	32123.85
673.47	32044.27
673.61	31740.00
673.75	31866.39
673.89	31744.69
674.03	31969.38
674.17	32058.32
674.31	31798.52
674.45	31882.78
674.59	31796.18
674.73	31981.08
674.87	31936.61
675.01	31208.70
675.15	31414.67
675.29	31615.96
675.43	31386.58
675.56	30925.50
675.70	31236.79
675.84	31374.88
675.98	30338.02
676.12	30944.22
676.26	30663.36
676.40	30927.84
676.54	30827.20
676.68	30438.67
676.82	29886.30
676.96	30532.29
677.10	30251.42
677.23	29816.08
677.37	30146.10
677.51	30157.80
677.65	30003.33
677.79	29497.77
677.93	30103.97
678.07	29668.63
678.21	29280.10
678.34	29694.38
678.48	29055.41
678.62	29071.79
678.76	28755.82
678.90	28858.81
679.04	28624.75
679.18	28987.53
679.31	28823.70
679.45	28348.57
679.59	28030.26
679.73	28453.89
679.87	28315.80
680.00	28177.71
680.14	27896.85
680.28	28276.01
680.42	27882.80
680.56	28133.24
680.70	27948.34
680.83	27976.42
680.97	27920.25
681.11	27950.68
681.25	27655.77
681.39	27075.32
681.52	27690.88
681.66	27234.47
681.80	27372.57
681.94	27321.07
682.07	27360.86
682.21	27056.59
682.35	27129.15
682.49	26981.70
682.62	26885.73
682.76	26642.32
682.90	26644.66
683.04	26649.34
683.17	26375.50
683.31	26363.79
683.45	26604.87
683.59	25738.87
683.72	25830.15
683.86	25741.21
684.00	25839.51
684.13	26125.06
684.27	26043.14
684.41	25982.29
684.55	25163.10
684.68	25352.68
684.82	25575.03
684.96	25516.52
685.09	25556.31
685.23	25242.68
685.37	25006.28
685.50	25113.95
685.64	24657.54
685.78	24535.84
685.91	24737.12
686.05	24587.33
686.19	24170.71
686.32	24189.44
686.46	24173.05
686.60	23744.73
686.73	23700.26
686.87	23618.35
687.01	23569.19
687.14	23613.66
687.28	23456.85
687.42	23222.80
687.55	23276.63
687.69	23695.58
687.82	23271.95
687.96	23489.62
688.10	23435.78
688.23	22778.09
688.37	22691.49
688.50	22665.75
688.64	23082.36
688.78	22892.78
688.91	22541.70
689.05	22537.02
689.18	22693.83
689.32	22267.86
689.46	22487.87
689.59	22382.54
689.73	22270.20
689.86	22324.03
690.00	22579.15
690.13	22064.23
690.27	22064.23
690.41	21624.21
690.54	21879.33
690.68	21509.52
690.81	21420.58
690.95	21553.99
691.08	21420.58
691.22	21575.06
691.35	21462.71
691.49	21488.46
691.62	21195.89
691.76	21018.01
691.89	21228.66
692.03	20908.01
692.16	20732.47
692.30	20577.99
692.43	20484.37
692.57	20645.87
692.70	20559.27
692.84	20606.08
692.97	20142.65
693.11	20327.55
693.24	20098.18
693.38	19782.21
693.51	19901.58
693.65	19829.02
693.78	20226.91
693.92	20023.28
694.05	19852.42
694.19	19482.62
694.32	19484.96
694.45	19300.06
694.59	19105.79
694.72	19300.06
694.86	19384.32
694.99	19014.51
695.13	19009.83
695.26	19051.96
695.39	18682.16
695.53	18703.22
695.66	18838.97
695.80	18853.02
695.93	18771.10
696.07	18686.84
696.20	18373.21
696.33	18391.93
696.47	18551.09
696.60	18033.83
696.73	18382.57
696.87	17930.84
697.00	18005.74
697.14	18059.57
697.27	17738.92
697.40	17582.10
697.54	17802.11
697.67	17621.89
697.80	17865.31
697.94	17570.40
698.07	17022.72
698.21	17273.15
698.34	17523.59
698.47	17238.05
698.61	16809.73
698.74	16840.15
698.87	16872.92
699.01	16458.65
699.14	16381.41
699.27	16542.91
699.40	16369.71
699.54	16325.24
699.67	16231.62
699.80	16521.84
699.94	16409.50
700.07	16484.39
700.20	16231.62
700.34	16100.55
700.47	16042.03
700.60	16187.14
700.73	16177.78
700.87	15988.20
701.00	15913.30
701.13	15566.90
701.26	15878.19
701.40	15740.10
701.53	15534.14
701.66	15477.96
701.79	15370.30
701.93	15499.03
702.06	15178.37
702.19	15033.26
702.32	15119.86
702.46	15154.97
702.59	14930.28
702.72	15040.28
702.85	15005.17
702.99	15213.48
703.12	14881.13
703.25	14375.57
703.38	14581.54
703.51	14548.77
703.65	14415.36
703.78	14403.66
703.91	14281.95
704.04	14415.36
704.17	14457.49
704.31	14457.49
704.44	14171.94
704.57	14298.33
704.70	13998.74
704.83	14136.84
704.96	13851.29
705.10	13965.98
705.23	13867.67
>>>>>End Processed Spectral Data<<<<<
