SpectraSuite Data File
++++++++++++++++++++++++++++++++++++
Date: Fri Oct 25 10:44:02 EDT 2013
User: price-jones
Dark Spectrum Present: No
Reference Spectrum Present: No
Number of Sampled Component Spectra: 1
Spectrometers: USB2+H05261
Integration Time (usec): 100000 (USB2+H05261)
Spectra Averaged: 1 (USB2+H05261)
Boxcar Smoothing: 0 (USB2+H05261)
Correct for Electrical Dark: No (USB2+H05261)
Strobe/Lamp Enabled: No (USB2+H05261)
Correct for Detector Non-linearity: No (USB2+H05261)
Correct for Stray Light: No (USB2+H05261)
Number of Pixels in Processed Spectrum: 2048
>>>>>Begin Processed Spectral Data<<<<<
365.73	128.73
365.92	128.73
366.12	128.73
366.32	60.85
366.52	25.75
366.72	14.04
366.91	37.45
367.11	18.72
367.31	23.41
367.51	21.06
367.70	11.70
367.90	60.85
368.10	60.85
368.30	67.88
368.49	0.00
368.69	0.00
368.89	11.70
369.09	11.70
369.28	30.43
369.48	67.88
369.68	77.24
369.87	95.96
370.07	81.92
370.27	140.43
370.47	138.09
370.66	278.52
370.86	379.17
371.06	472.79
371.25	526.62
371.45	465.77
371.65	510.24
371.84	519.60
372.04	444.70
372.24	596.84
372.44	477.47
372.63	535.98
372.83	512.58
373.03	463.43
373.22	472.79
373.42	559.39
373.62	526.62
373.81	559.39
374.01	550.03
374.21	599.18
374.40	580.45
374.60	578.11
374.79	596.84
374.99	585.13
375.19	690.46
375.38	634.29
375.58	603.86
375.78	645.99
375.97	662.37
376.17	636.63
376.37	550.03
376.56	660.03
376.76	657.69
376.95	615.56
377.15	657.69
377.35	631.94
377.54	727.91
377.74	624.92
377.93	737.27
378.13	716.20
378.33	690.46
378.52	580.45
378.72	660.03
378.91	582.79
379.11	648.33
379.31	650.67
379.50	674.07
379.70	718.54
379.89	641.31
380.09	678.76
380.28	772.38
380.48	702.16
380.68	690.46
380.87	702.16
381.07	734.93
381.26	711.52
381.46	669.39
381.65	772.38
381.85	711.52
382.04	753.65
382.24	760.67
382.43	732.59
382.63	667.05
382.83	709.18
383.02	704.50
383.22	727.91
383.41	697.48
383.61	798.12
383.80	837.91
384.00	788.76
384.19	798.12
384.39	772.38
384.58	866.00
384.78	765.36
384.97	786.42
385.17	835.57
385.36	781.74
385.56	760.67
385.75	828.55
385.95	800.46
386.14	866.00
386.34	826.21
386.53	875.36
386.72	816.85
386.92	837.91
387.11	889.40
387.31	891.74
387.50	903.45
387.70	910.47
387.89	866.00
388.09	936.21
388.28	849.61
388.48	898.77
388.67	973.66
388.86	910.47
389.06	978.34
389.25	940.90
389.45	983.02
389.64	1053.24
389.84	1069.62
390.03	1036.86
390.22	1086.01
390.42	1118.78
390.61	1004.09
390.81	1071.97
391.00	1050.90
391.19	1060.26
391.39	1069.62
391.58	1114.10
391.78	1064.94
391.97	1029.84
392.16	1139.84
392.36	1149.20
392.55	1121.12
392.75	1036.86
392.94	994.73
393.13	1039.20
393.33	1004.09
393.52	1107.07
393.71	1046.22
393.91	1149.20
394.10	1135.16
394.29	1144.52
394.49	1289.64
394.68	1275.59
394.88	1177.29
395.07	1294.32
395.26	1235.80
395.46	1331.76
395.65	1294.32
395.84	1289.64
396.04	1200.69
396.23	1266.23
396.42	1090.69
396.62	1242.82
396.81	1181.97
397.00	1212.40
397.19	1254.53
397.39	1315.38
397.58	1359.85
397.77	1444.11
397.97	1479.22
398.16	1472.20
398.35	1533.05
398.55	1465.18
398.74	1586.88
398.93	1633.69
399.12	1500.28
399.32	1586.88
399.51	1533.05
399.70	1624.33
399.90	1647.74
400.09	1619.65
400.28	1682.85
400.47	1694.55
400.67	1715.61
400.86	1703.91
401.05	1825.62
401.24	1706.25
401.44	1818.60
401.63	1813.92
401.82	1769.44
402.01	1720.29
402.21	1888.81
402.40	1783.49
402.59	1867.75
402.78	1785.83
402.97	1764.76
403.17	1984.77
403.36	1909.88
403.55	1891.15
403.74	2047.97
403.93	1940.30
404.13	1963.71
404.32	2052.65
404.51	1909.88
404.70	2113.50
404.89	2186.06
405.09	1994.14
405.28	2012.86
405.47	1982.43
405.66	2085.42
405.85	2076.06
406.05	2090.10
406.24	2160.31
406.43	2101.80
406.62	2115.84
406.81	2108.82
407.00	2228.19
407.20	2069.03
407.39	2225.85
407.58	2179.04
407.77	2277.34
407.96	2286.70
408.15	2279.68
408.34	2225.85
408.54	2427.14
408.73	2389.69
408.92	2410.75
409.11	2347.56
409.30	2352.24
409.49	2399.05
409.68	2406.07
409.87	2392.03
410.07	2431.82
410.26	2349.90
410.45	2492.67
410.64	2466.92
410.83	2562.89
411.02	2715.02
411.21	2532.46
411.40	2682.25
411.59	2649.49
411.78	2834.39
411.98	2822.69
412.17	2729.06
412.36	2778.22
412.55	2736.09
412.74	2932.69
412.93	2820.35
413.12	2871.84
413.31	2995.89
413.50	2857.79
413.69	2963.12
413.88	2925.67
414.07	3077.80
414.26	2986.52
414.45	3145.68
414.64	3145.68
414.83	3171.43
415.02	3145.68
415.22	3318.88
415.41	3225.26
415.60	3321.22
415.79	3342.28
415.98	3349.31
416.17	3501.44
416.36	3234.62
416.55	3321.22
416.74	3393.78
416.93	3456.97
417.12	3506.12
417.31	3515.48
417.50	3590.38
417.69	3674.64
417.88	3634.85
418.07	3599.74
418.26	3604.42
418.45	3602.08
418.64	3648.90
418.83	3763.58
419.02	3672.30
419.21	3648.90
419.39	3693.37
419.58	3632.51
419.77	3789.33
419.96	3838.48
420.15	3810.39
420.34	3829.12
420.53	3840.82
420.72	3948.48
420.91	3922.74
421.10	4095.94
421.29	4007.00
421.48	4009.34
421.67	4126.36
421.86	3932.10
422.05	3983.59
422.24	3791.67
422.43	3962.53
422.61	4042.11
422.80	4035.08
422.99	4023.38
423.18	3995.29
423.37	4154.45
423.56	4086.58
423.75	4173.18
423.94	3962.53
424.13	3798.69
424.32	3927.42
424.50	4126.36
424.69	4105.30
424.88	4187.22
425.07	4023.38
425.26	4067.85
425.45	4119.34
425.64	4163.81
425.83	4051.47
426.01	4292.54
426.20	4140.41
426.39	4241.05
426.58	4021.04
426.77	4081.89
426.96	3955.51
427.15	4121.68
427.33	4105.30
427.52	4231.69
427.71	4348.72
427.90	4311.27
428.09	4166.15
428.28	4287.86
428.46	4287.86
428.65	4404.89
428.84	4297.22
429.03	4301.90
429.22	4168.49
429.40	4325.31
429.59	4381.48
429.78	4107.64
429.97	3911.04
430.16	4156.79
430.34	4290.20
430.53	4259.78
430.72	4159.13
430.91	4418.93
431.10	4386.16
431.28	4711.50
431.47	4723.20
431.66	4849.59
431.85	4716.18
432.03	4779.37
432.22	4730.22
432.41	4760.65
432.60	4877.68
432.79	4772.35
432.97	4966.62
433.16	4952.57
433.35	4877.68
433.54	4636.60
433.72	4671.71
433.91	4861.29
434.10	4870.65
434.28	4964.28
434.47	4961.94
434.66	5102.37
434.85	5242.80
435.03	5214.71
435.22	5100.03
435.41	5303.65
435.59	5313.02
435.78	5172.58
435.97	5282.59
436.16	5301.31
436.34	5102.37
436.53	5357.49
436.72	5460.47
436.90	5191.31
437.09	5291.95
437.28	5261.52
437.46	5369.19
437.65	5432.38
437.84	5439.40
438.02	5268.55
438.21	5231.10
438.40	5280.25
438.58	5486.22
438.77	5668.78
438.96	5584.52
439.14	5764.74
439.33	5774.10
439.52	5827.93
439.70	5884.11
439.89	5921.56
440.08	5830.27
440.26	5902.83
440.45	5846.66
440.63	5879.43
440.82	6204.76
441.01	6155.61
441.19	6272.64
441.38	6434.13
441.57	6237.53
441.75	6279.66
441.94	6490.31
442.12	6553.50
442.31	6637.76
442.50	6703.29
442.68	6581.59
442.87	6600.31
443.05	6590.95
443.24	6878.83
443.43	6787.55
443.61	6745.42
443.80	6862.45
443.98	6661.16
444.17	6555.84
444.35	6656.48
444.54	6825.00
444.73	6820.32
444.91	6787.55
445.10	6682.23
445.28	6754.79
445.47	6689.25
445.65	6604.99
445.84	6672.87
446.02	6890.54
446.21	6750.10
446.39	6773.51
446.58	6956.07
446.77	7073.10
446.95	6881.18
447.14	6935.01
447.32	6899.90
447.51	6920.96
447.69	6740.74
447.88	6848.41
448.06	6876.49
448.25	6925.65
448.43	7070.76
448.62	7033.31
448.80	6925.65
448.99	7033.31
449.17	7222.89
449.36	7094.16
449.54	7279.07
449.73	7236.94
449.91	7459.29
450.10	7503.76
450.28	7386.73
450.46	7581.00
450.65	7492.05
450.83	7536.52
451.02	7489.71
451.20	7679.30
451.39	7517.80
451.57	7758.88
451.76	7492.05
451.94	7653.55
452.13	7644.19
452.31	7531.84
452.49	7382.05
452.68	7494.40
452.86	7538.87
453.05	7417.16
453.23	7758.88
453.42	7630.15
453.60	7375.03
453.78	7655.89
453.97	7646.53
454.15	7442.90
454.34	7531.84
454.52	7803.35
454.70	7782.28
454.89	7880.58
455.07	7955.48
455.26	7927.39
455.44	7967.18
455.62	8018.68
455.81	8133.36
455.99	8065.49
456.17	8102.93
456.36	8077.19
456.54	8294.86
456.73	8341.67
456.91	8606.15
457.09	8243.37
457.28	8706.79
457.46	8283.16
457.64	8367.42
457.83	8341.67
458.01	8292.52
458.19	8521.89
458.38	8517.21
458.56	8393.16
458.74	8564.02
458.93	8465.72
459.11	8526.57
459.29	8624.87
459.48	8758.28
459.66	8587.43
459.84	8655.30
460.03	8765.31
460.21	9097.66
460.39	8894.04
460.57	8854.25
460.76	8868.29
460.94	9034.47
461.12	8830.84
461.31	9013.40
461.49	8863.61
461.67	8905.74
461.85	9167.88
462.04	9053.19
462.22	9481.51
462.40	9305.97
462.59	9406.61
462.77	9207.67
462.95	9490.87
463.13	9228.73
463.32	9582.15
463.50	9334.06
463.68	9249.80
463.86	9266.18
464.05	9081.28
464.23	9317.67
464.41	9252.14
464.59	9219.37
464.78	9500.23
464.96	9357.46
465.14	9275.54
465.32	9465.13
465.50	9650.03
465.69	9682.80
465.87	9518.96
466.05	9458.10
466.23	9376.19
466.41	9479.17
466.60	9778.76
466.78	9448.74
466.96	9614.92
467.14	9689.82
467.32	9729.61
467.51	9860.68
467.69	9647.69
467.87	9731.95
468.05	9923.87
468.23	9909.83
468.41	9760.03
468.60	9963.66
468.78	9966.00
468.96	9963.66
469.14	9900.47
469.32	9930.89
469.50	9774.08
469.69	10024.51
469.87	10118.14
470.05	10083.03
470.23	10265.59
470.41	10143.88
470.59	10380.28
470.77	10148.56
470.95	10270.27
471.14	10408.36
471.32	10551.14
471.50	10691.57
471.68	10785.19
471.86	10878.81
472.04	10651.78
472.22	10656.46
472.40	10609.65
472.58	10544.11
472.77	10768.80
472.95	10977.11
473.13	11059.03
473.31	10862.43
473.49	10775.83
473.67	10953.71
473.85	10782.85
474.03	11145.63
474.21	11185.42
474.39	11393.73
474.57	11293.08
474.75	11487.35
474.93	11606.72
475.12	11637.14
475.30	11609.06
475.48	11473.31
475.66	11786.94
475.84	11534.16
476.02	11892.26
476.20	11915.67
476.38	11936.73
476.56	12201.21
476.74	12498.46
476.92	12170.79
477.10	12215.26
477.28	12430.59
477.46	12439.95
477.64	12685.70
477.82	12781.67
478.00	13090.62
478.18	12863.58
478.36	12861.24
478.54	13200.62
478.72	13099.98
478.90	13427.65
479.08	13483.83
479.26	13516.59
479.44	13479.15
479.62	13724.90
479.80	13764.69
479.98	13804.48
480.16	14300.67
480.34	13893.42
480.52	14139.18
480.70	14057.26
480.88	14122.79
481.06	14469.19
481.24	14768.78
481.41	14853.04
481.59	14836.66
481.77	14836.66
481.95	14867.08
482.13	15140.93
482.31	15026.24
482.49	15328.17
482.67	15370.30
482.85	15611.37
483.03	15564.56
483.21	15999.90
483.39	16011.60
483.57	16065.44
483.74	15955.43
483.92	16142.67
484.10	16011.60
484.28	16493.76
484.46	16732.49
484.64	16858.88
484.82	16460.99
485.00	16821.43
485.18	17200.60
485.35	17121.02
485.53	16573.33
485.71	16545.25
485.89	16912.71
486.07	17177.19
486.25	17013.35
486.43	17413.59
486.61	17305.92
486.78	17830.20
486.96	18087.66
487.14	18174.26
487.32	18354.48
487.50	18548.75
487.68	18787.48
487.85	18686.84
488.03	18930.25
488.21	19227.50
488.39	19091.75
488.57	19253.25
488.75	19241.54
488.92	19386.66
489.10	19885.19
489.28	19838.38
489.46	20245.63
489.64	20311.17
489.81	20692.68
489.99	20828.43
490.17	20854.17
490.35	21003.97
490.53	20842.47
490.70	21376.11
490.88	21214.62
491.06	21385.47
491.24	21514.20
491.41	21425.26
491.59	21614.85
491.77	21345.69
491.95	21722.51
492.13	22008.06
492.30	22242.11
492.48	22490.21
492.66	22429.35
492.84	22387.22
493.01	22829.59
493.19	22665.75
493.37	22932.57
493.54	22977.04
493.72	23243.86
493.90	23321.10
494.08	23723.67
494.25	23683.88
494.43	23878.15
494.61	24142.63
494.79	24294.76
494.96	23941.34
495.14	24306.46
495.32	24449.24
495.49	24687.97
495.67	24760.53
495.85	24917.34
496.02	24573.28
496.20	25315.23
496.38	25298.85
496.55	25624.18
496.73	25727.17
496.91	25659.29
497.09	25713.13
497.26	26008.03
497.44	25867.60
497.62	25919.09
497.79	26384.86
497.97	25715.47
498.14	26003.35
498.32	26331.03
498.50	26148.46
498.67	26855.31
498.85	26625.93
499.03	26995.74
499.20	27166.60
499.38	27159.58
499.56	26923.18
499.73	27391.29
499.91	27384.27
500.08	27360.86
500.26	27131.49
500.44	27330.44
500.61	27557.47
500.79	27459.16
500.97	27503.64
501.14	27765.78
501.32	27910.89
501.49	27779.82
501.67	28020.89
501.84	28233.88
502.02	28142.60
502.20	28912.64
502.37	28442.19
502.55	28411.76
502.72	28907.96
502.90	28811.99
503.07	29069.45
503.25	28959.45
503.43	28755.82
503.60	29081.16
503.78	28807.31
503.95	28568.58
504.13	29039.03
504.30	29722.46
504.48	29308.19
504.65	29956.52
504.83	29757.57
505.01	30064.18
505.18	30153.12
505.36	30270.15
505.53	30473.78
505.71	30588.46
505.88	30595.48
506.06	30408.24
506.23	30572.08
506.41	30391.86
506.58	30527.61
506.76	30953.58
506.93	30895.07
507.11	30728.89
507.28	31044.87
507.46	30628.25
507.63	30892.73
507.81	30962.95
507.98	30609.53
508.16	31283.60
508.33	31510.63
508.50	31527.02
508.68	31908.52
508.85	32126.19
509.03	32011.51
509.20	31955.33
509.38	32498.34
509.55	32140.24
509.73	32212.79
509.90	32233.86
510.08	32414.08
510.25	31929.59
510.42	32299.39
510.60	32638.77
510.77	32760.48
510.95	32987.51
511.12	32900.91
511.30	33158.37
511.47	33127.94
511.64	33383.06
511.82	33399.44
511.99	32999.21
512.17	33539.88
512.34	32872.82
512.51	33443.91
512.69	33347.95
512.86	33823.08
513.04	34127.35
513.21	33682.65
513.38	33226.24
513.56	33558.60
513.73	33933.09
513.90	33708.40
514.08	33759.89
514.25	34026.71
514.43	34157.78
514.60	34279.49
514.77	34127.35
514.95	34541.63
515.12	34553.33
515.29	34623.54
515.47	34632.91
515.64	34707.80
515.81	34890.37
515.99	34766.32
516.16	34918.45
516.33	34368.43
516.51	34686.74
516.68	34206.93
516.85	34260.76
517.03	34569.71
517.20	34855.26
517.37	35641.68
517.54	35314.00
517.72	35253.15
517.89	34763.98
518.06	34768.66
518.24	34572.05
518.41	34881.00
518.58	35618.27
518.75	35590.19
518.93	35288.26
519.10	35627.63
519.27	35871.05
519.45	35819.56
519.62	36081.70
519.79	36205.75
519.96	36229.15
520.14	36566.19
520.31	36198.73
520.48	36371.92
520.65	36219.79
520.83	36903.23
521.00	37282.39
521.17	36856.42
521.34	36966.42
521.52	36591.94
521.69	37029.62
521.86	37399.42
522.03	36924.29
522.20	37347.93
522.38	37184.09
522.55	37148.98
522.72	37343.25
522.89	37570.28
523.07	37771.57
523.24	37368.99
523.41	37743.48
523.58	37986.89
523.75	38363.72
523.92	38356.70
524.10	38403.51
524.27	38436.28
524.44	38513.52
524.61	38368.40
524.78	38394.15
524.96	38415.21
525.13	38588.41
525.30	38415.21
525.47	38588.41
525.64	38455.00
525.81	38923.11
525.98	38518.20
526.16	38335.63
526.33	38124.99
526.50	38396.49
526.67	38068.81
526.84	38167.12
527.01	38293.50
527.18	38227.97
527.36	39412.28
527.53	39313.98
527.70	39257.81
527.87	39269.51
528.04	39400.58
528.21	39583.14
528.38	39592.50
528.55	40032.52
528.72	39770.38
528.89	39871.03
529.07	40004.44
529.24	39452.07
529.41	39711.87
529.58	39920.18
529.75	39564.42
529.92	39913.16
530.09	39856.98
530.26	40308.71
530.43	40034.86
530.60	40259.55
530.77	40397.65
530.94	40140.19
531.11	40655.11
531.28	40538.08
531.46	40329.77
531.63	40297.00
531.80	40404.67
531.97	40425.73
532.14	40133.17
532.31	40055.93
532.48	40446.80
532.65	40741.71
532.82	40627.02
532.99	40465.52
533.16	40470.20
533.33	41163.00
533.50	41067.04
533.67	41060.02
533.84	40811.92
534.01	40879.80
534.18	40858.73
534.35	41041.29
534.52	41237.90
534.69	41200.45
534.86	41383.01
535.03	41865.16
535.20	41462.59
535.37	42150.71
535.54	41846.44
535.71	41701.32
535.88	41816.01
536.05	41626.43
536.22	41691.96
536.38	41921.34
536.55	41654.51
536.72	41694.30
536.89	41148.96
537.06	41237.90
537.23	42066.45
537.40	42525.19
537.57	41834.74
537.74	41965.81
537.91	42422.21
538.08	41895.59
538.25	42082.83
538.42	42363.70
538.59	42153.05
538.75	42223.26
538.92	41886.23
539.09	42359.02
539.26	42120.28
539.43	42344.97
539.60	42188.16
539.77	41991.55
539.94	42359.02
540.11	42176.45
540.28	42260.71
540.44	42036.02
540.61	42450.30
540.78	42108.58
540.95	42375.40
541.12	42291.14
541.29	42246.67
541.46	42511.15
541.62	42782.65
541.79	43063.52
541.96	42557.96
542.13	42897.34
542.30	42969.90
542.47	43126.71
542.63	42700.73
542.80	42707.76
542.97	43332.68
543.14	43306.93
543.31	43646.31
543.48	43700.14
543.64	43976.33
543.81	43646.31
543.98	43992.71
544.15	43662.69
544.32	43650.99
544.48	44030.16
544.65	44184.63
544.82	43913.13
544.99	43522.26
545.16	43983.35
545.32	43929.51
545.49	44289.96
545.66	44587.21
545.83	44130.80
546.00	44383.58
546.16	43817.17
546.33	44528.69
546.50	43845.26
546.67	44126.12
546.83	43901.43
547.00	43899.09
547.17	44257.19
547.34	44432.73
547.50	43901.43
547.67	44156.55
547.84	44465.50
548.00	44884.45
548.17	44767.43
548.34	44868.07
548.51	44657.42
548.67	44786.15
548.84	44680.83
549.01	44498.26
549.18	44568.48
549.34	44811.90
549.51	44783.81
549.68	44788.49
549.84	44847.00
550.01	44933.60
550.18	45045.95
550.34	44973.39
550.51	45010.84
550.68	44605.93
550.84	44692.53
551.01	44694.87
551.18	45127.87
551.34	44662.10
551.51	45228.51
551.68	45198.09
551.84	45350.22
552.01	45127.87
552.18	45354.90
552.34	44872.75
552.51	45207.45
552.68	45427.46
552.84	45064.67
553.01	45436.82
553.18	45553.85
553.34	45347.88
553.51	44924.24
553.67	45352.56
553.84	46129.62
554.01	45909.61
554.17	45722.37
554.34	46087.49
554.51	45511.72
554.67	45469.59
554.84	45881.52
555.00	45244.90
555.17	45329.16
555.33	45471.93
555.50	45521.08
555.67	45769.18
555.83	45724.71
556.00	45478.95
556.16	46120.26
556.33	45776.20
556.50	45743.43
556.66	45848.75
556.83	45492.99
556.99	45925.99
557.16	46188.13
557.32	46012.59
557.49	46375.37
557.65	45668.53
557.82	46005.57
557.98	46234.94
558.15	46036.00
558.32	46007.91
558.48	45542.14
558.65	45696.62
558.81	45429.80
558.98	45677.90
559.14	46064.08
559.31	45984.51
559.47	45837.05
559.64	46478.36
559.80	46237.28
559.97	46267.71
560.13	45790.24
560.30	46136.64
560.46	46143.66
560.63	46143.66
560.79	46279.41
560.96	46469.00
561.12	46431.55
561.29	46234.94
561.45	46258.35
561.61	46309.84
561.78	45989.19
561.94	46192.81
562.11	46101.53
562.27	46258.35
562.44	46218.56
562.60	46651.56
562.77	46663.26
562.93	46422.19
563.10	46892.63
563.26	46197.49
563.42	46768.58
563.59	45982.16
563.75	46014.93
563.92	46284.09
564.08	46520.49
564.24	46569.64
564.41	46424.53
564.57	46644.54
564.74	46106.21
564.90	46410.48
565.07	46478.36
565.23	46700.71
565.39	46349.63
565.56	46410.48
565.72	46279.41
565.88	46040.68
566.05	46700.71
566.21	46366.01
566.38	46160.05
566.54	46260.69
566.70	46897.31
566.87	46873.91
567.03	46684.33
567.19	47028.38
567.36	46649.22
567.52	46454.95
567.68	46429.21
567.85	46501.76
568.01	46541.55
568.17	46972.21
568.34	46670.28
568.50	46515.81
568.66	46670.28
568.83	46546.23
568.99	46454.95
569.15	46602.41
569.32	46476.02
569.48	46670.28
569.64	46579.00
569.81	46770.93
569.97	46452.61
570.13	46625.81
570.30	46527.51
570.46	46373.03
570.62	46436.23
570.78	46176.43
570.95	46319.20
571.11	46557.94
571.27	46319.20
571.43	46529.85
571.60	46820.08
571.76	46726.46
571.92	46586.02
572.09	46576.66
572.25	46611.77
572.41	46569.64
572.57	46869.23
572.74	47356.06
572.90	46918.38
573.06	47269.46
573.22	46817.74
573.38	47056.47
573.55	46960.51
573.71	46492.40
573.87	46787.31
574.03	46887.95
574.20	47056.47
574.36	46920.72
574.52	46607.09
574.68	47009.66
574.84	46885.61
575.01	46845.82
575.17	46728.80
575.33	46864.55
575.49	46649.22
575.65	47203.92
575.82	46436.23
575.98	46590.70
576.14	46878.59
576.30	47150.09
576.46	46976.89
576.62	46700.71
576.79	46927.74
576.95	46384.74
577.11	46831.78
577.27	47161.79
577.43	46906.68
577.59	46586.02
577.75	46536.87
577.92	46738.16
578.08	46258.35
578.24	46239.62
578.40	46714.75
578.56	46789.65
578.72	46719.43
578.88	47016.68
579.04	46749.86
579.21	46693.69
579.37	46653.90
579.53	47079.88
579.69	46791.99
579.85	46726.46
580.01	46995.62
580.17	46958.17
580.33	46583.68
580.49	46997.96
580.65	47072.85
580.82	46953.49
580.98	46801.35
581.14	46674.96
581.30	47234.35
581.46	47098.60
581.62	46979.23
581.78	47021.36
581.94	46869.23
582.10	46787.31
582.26	46707.73
582.42	47309.25
582.58	47356.06
582.74	47063.49
582.90	47009.66
583.06	47159.45
583.22	47159.45
583.38	47323.29
583.54	47304.57
583.70	47154.77
583.86	47133.71
584.02	47049.45
584.18	47044.77
584.34	46937.10
584.50	47154.77
584.66	46864.55
584.82	46958.17
584.98	47402.87
585.14	47445.00
585.30	46894.97
585.46	47093.92
585.62	46700.71
585.78	46546.23
585.94	46555.60
586.10	46574.32
586.26	46784.97
586.42	47470.75
586.58	47269.46
586.74	47105.62
586.90	46759.22
587.06	46773.27
587.22	46937.10
587.38	46979.23
587.54	47147.75
587.70	46745.18
587.86	47337.33
588.02	47047.11
588.18	46979.23
588.34	46621.13
588.49	46623.47
588.65	46078.13
588.81	46260.69
588.97	46443.25
589.13	46445.59
589.29	46829.44
589.45	46850.50
589.61	46745.18
589.77	47157.11
589.93	47164.14
590.08	46941.78
590.24	46930.08
590.40	47164.14
590.56	47526.92
590.72	47360.74
590.88	47164.14
591.04	46777.95
591.20	47334.99
591.35	47007.32
591.51	47283.50
591.67	47089.24
591.83	46958.17
591.99	47105.62
592.15	46852.84
592.31	47395.85
592.46	46876.25
592.62	46862.21
592.78	47327.97
592.94	47391.17
593.10	46918.38
593.26	47140.73
593.41	46684.33
593.57	47019.02
593.73	46649.22
593.89	47150.09
594.05	47129.03
594.20	47185.20
594.36	47220.31
594.52	46972.21
594.68	46520.49
594.84	47089.24
594.99	47351.38
595.15	46955.83
595.31	47405.21
595.47	47246.05
595.62	47021.36
595.78	47040.09
595.94	47480.11
596.10	47054.13
596.25	47384.15
596.41	47173.50
596.57	47114.98
596.73	47227.33
596.88	46707.73
597.04	47026.04
597.20	47023.70
597.36	47093.92
597.51	47510.53
597.67	47140.73
597.83	47327.97
597.99	47140.73
598.14	47203.92
598.30	47283.50
598.46	46953.49
598.61	47222.65
598.77	46913.70
598.93	47105.62
599.09	46979.23
599.24	47899.06
599.40	47327.97
599.56	47040.09
599.71	46897.31
599.87	47316.27
600.03	47007.32
600.18	47299.89
600.34	47084.56
600.50	47208.61
600.65	47288.18
600.81	47058.81
600.97	47103.28
601.12	47168.82
601.28	46993.28
601.44	46960.51
601.59	47309.25
601.75	46885.61
601.91	46747.52
602.06	47210.95
602.22	47419.25
602.37	46581.34
602.53	47430.96
602.69	47026.04
602.84	47107.96
603.00	47051.79
603.16	47185.20
603.31	46810.71
603.47	46885.61
603.62	46918.38
603.78	47051.79
603.94	47234.35
604.09	47735.23
604.25	46773.27
604.40	46773.27
604.56	47210.95
604.71	46906.68
604.87	47157.11
605.03	46560.28
605.18	46740.50
605.34	46279.41
605.49	46726.46
605.65	46960.51
605.80	46707.73
605.96	46712.41
606.12	47021.36
606.27	47098.60
606.43	46930.08
606.58	47138.39
606.74	46974.55
606.89	46794.33
607.05	46876.25
607.20	46850.50
607.36	46747.52
607.51	46773.27
607.67	46990.94
607.82	46382.40
607.98	46855.18
608.13	46461.97
608.29	46698.37
608.44	46511.13
608.60	46398.78
608.75	46689.01
608.91	46541.55
609.06	46775.61
609.22	46564.96
609.37	46604.75
609.53	46733.48
609.68	46478.36
609.84	46405.80
609.99	46602.41
610.15	46621.13
610.30	46281.75
610.46	46131.96
610.61	46164.73
610.76	46660.92
610.92	46445.59
611.07	46822.42
611.23	46548.57
611.38	46658.58
611.54	45972.80
611.69	45731.73
611.84	46202.18
612.00	46410.48
612.15	46171.75
612.31	46405.80
612.46	46155.36
612.62	46426.87
612.77	46014.93
612.92	46153.02
613.08	46237.28
613.23	46078.13
613.39	45787.90
613.54	45453.20
613.69	46078.13
613.85	45661.51
614.00	45986.85
614.15	46190.47
614.31	45972.80
614.46	46253.67
614.62	46136.64
614.77	46094.51
614.92	45755.13
615.08	45832.37
615.23	45909.61
615.38	45666.19
615.54	45380.65
615.69	45656.83
615.84	45354.90
616.00	45277.66
616.15	45390.01
616.30	45546.82
616.46	45570.23
616.61	45226.17
616.76	45125.53
616.92	45324.47
617.07	45151.27
617.22	45076.38
617.37	45174.68
617.53	45820.67
617.68	45595.98
617.83	45528.10
617.99	45827.69
618.14	44807.22
618.29	45230.85
618.45	45216.81
618.60	45338.52
618.75	44924.24
618.90	45247.24
619.06	45617.04
619.21	45287.03
619.36	45574.91
619.51	45490.65
619.67	45261.28
619.82	45448.52
619.97	44971.05
620.12	44949.99
620.28	44687.85
620.43	45027.23
620.58	45160.64
620.73	45052.97
620.89	45118.51
621.04	45158.30
621.19	44854.03
621.34	44992.12
621.49	44891.48
621.65	44837.64
621.80	44957.01
621.95	44882.11
622.10	44973.39
622.25	43981.01
622.41	44315.70
622.56	44467.84
622.71	44732.32
622.86	44336.77
623.01	44776.79
623.16	44369.54
623.32	44383.58
623.47	44570.82
623.62	44467.84
623.77	44304.00
623.92	44336.77
624.07	44332.09
624.23	44252.51
624.38	44198.68
624.53	43941.22
624.68	44098.03
624.83	44034.84
624.98	44182.29
625.13	43681.42
625.29	43922.49
625.44	43927.17
625.59	43660.35
625.74	43540.99
625.89	43786.74
626.04	43641.63
626.19	43934.20
626.34	43611.20
626.49	44041.86
626.65	44261.87
626.80	44032.50
626.95	43772.70
627.10	43629.93
627.25	43580.78
627.40	43388.85
627.55	43208.63
627.70	42979.26
627.85	43512.90
628.00	43140.75
628.15	43569.07
628.30	42974.58
628.45	43826.53
628.60	43618.22
628.76	43363.11
628.91	43489.49
629.06	43030.75
629.21	42792.01
629.36	43540.99
629.51	42944.15
629.66	42932.45
629.81	42890.32
629.96	42721.80
630.11	42796.70
630.26	43217.99
630.41	43180.54
630.56	42576.69
630.71	42541.58
630.86	42824.78
631.01	42829.46
631.16	42885.64
631.31	42829.46
631.46	42316.89
631.61	42637.54
631.76	42878.61
631.91	42820.10
632.06	42934.79
632.21	42623.50
632.36	43138.41
632.51	42426.89
632.66	42225.60
632.81	42380.08
632.96	42440.93
633.10	42595.41
633.25	42586.05
633.40	42375.40
633.55	42532.22
633.70	42417.53
633.85	42150.71
634.00	42129.64
634.15	42988.62
634.30	42115.60
634.45	42478.38
634.60	42082.83
634.75	41888.57
634.90	42422.21
635.05	42183.48
635.19	42066.45
635.34	42021.98
635.49	41727.07
635.64	42349.65
635.79	42136.66
635.94	41989.21
636.09	41881.55
636.24	41677.92
636.39	41418.12
636.53	41893.25
636.68	42031.34
636.83	41834.74
636.98	41633.45
637.13	41830.05
637.28	41862.82
637.43	41918.99
637.57	41593.66
637.72	41387.69
637.87	41579.62
638.02	41593.66
638.17	42005.59
638.32	41965.81
638.46	41738.77
638.61	41448.55
638.76	41488.34
638.91	41486.00
639.06	41340.88
639.20	41794.95
639.35	41715.37
639.50	41624.09
639.65	41462.59
639.80	41242.58
639.94	41284.71
640.09	41404.08
640.24	41148.96
640.39	41088.10
640.54	41001.50
640.68	41092.79
640.83	41029.59
640.98	40966.40
641.13	40837.67
641.27	41069.38
641.42	41294.07
641.57	40535.74
641.72	40886.82
641.86	40666.81
642.01	40107.42
642.16	40896.18
642.31	40884.48
642.45	40837.67
642.60	40435.10
642.75	40563.82
642.90	41109.17
643.04	40748.73
643.19	40587.23
643.34	40481.91
643.48	40697.24
643.63	40549.78
643.78	40226.79
643.93	40620.00
644.07	40271.26
644.22	40664.47
644.37	40212.74
644.51	40474.88
644.66	40226.79
644.81	40598.93
644.95	40460.84
645.10	40297.00
645.25	40470.20
645.39	40336.79
645.54	39983.37
645.69	40350.84
645.83	40034.86
645.98	40142.53
646.13	40126.14
646.27	40570.85
646.42	40044.23
646.57	39714.21
646.71	39887.41
646.86	39838.26
647.00	40453.82
647.15	40074.65
647.30	39784.43
647.44	39618.25
647.59	39868.69
647.74	39342.06
647.88	39571.44
648.03	39842.94
648.17	40154.23
648.32	39384.19
648.47	39955.29
648.61	39447.39
648.76	39828.90
648.90	39473.13
649.05	39421.64
649.20	39367.81
649.34	39651.02
649.49	39655.70
649.63	39522.29
649.78	39463.77
649.92	39442.71
650.07	39597.18
650.21	39477.82
650.36	39473.13
650.51	39423.98
650.65	39868.69
650.80	39758.68
650.94	39433.35
651.09	39349.09
651.23	39517.60
651.38	39140.78
651.52	39267.17
651.67	39185.25
651.81	38962.90
651.96	39079.92
652.10	39143.12
652.25	39145.46
652.39	39192.27
652.54	38897.36
652.68	38885.66
652.83	38759.27
652.97	39145.46
653.12	38904.38
653.26	38845.87
653.41	38801.40
653.55	38457.34
653.70	38754.59
653.84	38728.84
653.99	38670.33
654.13	38899.70
654.27	37837.10
654.42	38494.79
654.56	38515.86
654.71	38892.68
654.85	38504.15
655.00	38698.42
655.14	38293.50
655.29	38237.33
655.43	38459.68
655.57	37972.85
655.72	38071.15
655.86	37722.41
656.01	37729.44
656.15	37839.44
656.30	37624.11
656.44	37879.23
656.58	37752.84
656.73	37471.98
656.87	38005.62
657.01	37874.55
657.16	37851.14
657.30	37596.03
657.45	37956.47
657.59	37708.37
657.73	37591.34
657.88	37963.49
658.02	37872.21
658.16	38300.53
658.31	37982.21
658.45	37703.69
658.60	37771.57
658.74	37645.18
658.88	37525.81
659.03	37092.81
659.17	37500.06
659.31	37277.71
659.46	36964.08
659.60	37359.63
659.74	37441.55
659.89	37270.69
660.03	37001.53
660.17	37457.93
660.32	37455.59
660.46	37638.15
660.60	37006.21
660.74	37111.53
660.89	37294.10
661.03	36587.25
661.17	36893.86
661.32	37085.79
661.46	37146.64
661.60	37001.53
661.74	36552.15
661.89	36669.17
662.03	36783.86
662.17	36395.33
662.31	36613.00
662.46	36748.75
662.60	36545.12
662.74	36701.94
662.88	36046.59
663.03	36149.57
663.17	36322.77
663.31	36205.75
663.45	36308.73
663.60	35852.33
663.74	36297.03
663.88	35840.62
664.02	35943.61
664.17	36074.68
664.31	35927.22
664.45	35372.52
664.59	35491.88
664.73	35814.88
664.88	35468.48
665.02	35356.13
665.16	35571.46
665.30	35442.73
665.44	35316.34
665.59	35189.95
665.73	35431.03
665.87	35299.96
666.01	35831.26
666.15	34991.01
666.29	35372.52
666.44	35424.01
666.58	34714.83
666.72	34981.65
666.86	35086.97
667.00	34773.34
667.14	34529.92
667.28	34932.50
667.43	34604.82
667.57	34672.70
667.71	34621.20
667.85	35124.42
667.99	34148.42
668.13	34323.96
668.27	34323.96
668.41	34398.85
668.56	34050.11
668.70	34103.95
668.84	34326.30
668.98	33673.29
669.12	34115.65
669.26	33584.35
669.40	33956.49
669.54	33970.54
669.68	33954.15
669.82	33448.60
669.96	33612.43
670.10	33387.74
670.25	33699.03
670.39	33565.62
670.53	33118.58
670.67	33312.84
670.81	33350.29
670.95	33457.96
671.09	33677.97
671.23	33090.49
671.37	32966.45
671.51	32793.25
671.65	33139.65
671.79	32542.81
671.93	32746.44
672.07	33216.88
672.21	33106.88
672.35	32629.41
672.49	33174.75
672.63	32762.82
672.77	32701.96
672.91	32980.49
673.05	32552.17
673.19	32411.74
673.33	32250.24
673.47	32105.13
673.61	31920.23
673.75	31637.02
673.89	31604.25
674.03	31817.24
674.17	31676.81
674.31	31639.36
674.45	31662.77
674.59	31585.53
674.73	32072.36
674.87	31758.73
675.01	31651.06
675.15	31199.34
675.29	31515.31
675.43	31264.88
675.56	31007.42
675.70	31131.47
675.84	30941.88
675.98	30082.91
676.12	31264.88
676.26	30995.71
676.40	30920.82
676.54	30773.36
676.68	30754.64
676.82	30157.80
676.96	30628.25
677.10	29944.81
677.23	30419.94
677.37	29991.62
677.51	29937.79
677.65	29820.77
677.79	29450.96
677.93	29844.17
678.07	29521.18
678.21	29266.06
678.34	28985.19
678.48	28912.64
678.62	28851.78
678.76	29001.58
678.90	28851.78
679.04	28849.44
679.18	28868.17
679.31	28577.94
679.45	28283.03
679.59	28388.36
679.73	28512.41
679.87	28603.69
680.00	28357.93
680.14	28058.34
680.28	28189.41
680.42	28247.93
680.56	28311.12
680.70	28123.88
680.83	28266.65
680.97	27906.21
681.11	27370.22
681.25	27339.80
681.39	27723.65
681.52	27674.49
681.66	27454.48
681.80	27405.33
681.94	27145.53
682.07	27143.19
682.21	26834.24
682.35	27030.85
682.49	27009.78
682.62	27061.27
682.76	26621.25
682.90	26558.06
683.04	26206.98
683.17	26356.77
683.31	26471.46
683.45	26120.38
683.59	26078.25
683.72	26115.70
683.86	26270.17
684.00	26073.57
684.13	26008.03
684.27	25652.27
684.41	25654.61
684.55	25603.12
684.68	25369.07
684.82	25259.06
684.96	25427.58
685.09	25158.42
685.23	25238.00
685.37	25015.65
685.50	24975.86
685.64	24819.04
685.78	24954.79
685.91	24599.03
686.05	24322.85
686.19	24034.96
686.32	24100.50
686.46	23784.52
686.60	23742.39
686.73	23559.83
686.87	23627.71
687.01	23192.37
687.14	23358.55
687.28	23728.35
687.42	23428.76
687.55	23183.01
687.69	23599.62
687.82	23213.43
687.96	23073.00
688.10	23274.29
688.23	22925.55
688.37	22824.90
688.50	22686.81
688.64	22707.88
688.78	22401.27
688.91	22654.05
689.05	22808.52
689.18	22387.22
689.32	22314.67
689.46	22417.65
689.59	22331.05
689.73	22567.45
689.86	22022.10
690.00	22057.21
690.13	22022.10
690.27	22331.05
690.41	21867.63
690.54	21231.00
690.68	21607.83
690.81	21439.31
690.95	21553.99
691.08	21481.44
691.22	21146.74
691.35	21280.15
691.49	21198.23
691.62	21341.00
691.76	21179.51
691.89	21083.55
692.03	21177.17
692.16	20683.31
692.30	20877.58
692.43	20442.24
692.57	20245.63
692.70	20519.48
692.84	20339.26
692.97	20098.18
693.11	20161.37
693.24	20376.70
693.38	19868.81
693.51	20119.24
693.65	20086.48
693.78	19992.86
693.92	19800.93
694.05	19548.15
694.19	19681.56
694.32	19475.60
694.45	19623.05
694.59	19297.72
694.72	19101.11
694.86	19047.28
694.99	19110.47
695.13	18991.11
695.26	18944.30
695.39	18838.97
695.53	18820.25
695.66	18838.97
695.80	18670.45
695.93	18658.75
696.07	18375.55
696.20	18544.06
696.33	18370.86
696.47	18436.40
696.60	18494.91
696.73	18019.78
696.87	18008.08
697.00	17851.27
697.14	17577.42
697.27	17816.16
697.40	17989.36
697.54	17511.89
697.67	17675.73
697.80	17483.80
697.94	17528.27
698.07	17319.96
698.21	17408.90
698.34	17123.36
698.47	17032.08
698.61	17011.01
698.74	17179.53
698.87	17020.38
699.01	16547.59
699.14	16491.41
699.27	16538.23
699.40	16489.07
699.54	16182.46
699.67	16255.02
699.80	16123.95
699.94	16402.47
700.07	16215.23
700.20	16002.24
700.34	16156.72
700.47	16072.46
700.60	16112.25
700.73	16257.36
700.87	15819.68
701.00	15803.30
701.13	15726.06
701.26	15576.27
701.40	15351.57
701.53	15527.11
701.66	15772.87
701.79	15524.77
701.93	15367.96
702.06	14944.32
702.19	14869.42
702.32	15044.96
702.46	14782.82
702.59	15236.89
702.72	14974.75
702.85	15021.56
702.99	14881.13
703.12	14925.60
703.25	14471.53
703.38	14368.55
703.51	14628.35
703.65	14494.94
703.78	14340.46
703.91	14553.45
704.04	14214.07
704.17	14228.12
704.31	14225.78
704.44	14335.78
704.57	14073.64
704.70	13865.33
704.83	13877.04
704.96	13855.97
705.10	13951.93
705.23	14228.12
>>>>>End Processed Spectral Data<<<<<
