SpectraSuite Data File
++++++++++++++++++++++++++++++++++++
Date: Fri Oct 25 10:43:29 EDT 2013
User: price-jones
Dark Spectrum Present: No
Reference Spectrum Present: No
Number of Sampled Component Spectra: 1
Spectrometers: USB2+H05261
Integration Time (usec): 100000 (USB2+H05261)
Spectra Averaged: 1 (USB2+H05261)
Boxcar Smoothing: 0 (USB2+H05261)
Correct for Electrical Dark: No (USB2+H05261)
Strobe/Lamp Enabled: No (USB2+H05261)
Correct for Detector Non-linearity: No (USB2+H05261)
Correct for Stray Light: No (USB2+H05261)
Number of Pixels in Processed Spectrum: 2048
>>>>>Begin Processed Spectral Data<<<<<
365.73	131.07
365.92	131.07
366.12	131.07
366.32	51.49
366.52	0.00
366.72	63.19
366.91	14.04
367.11	30.43
367.31	23.41
367.51	25.75
367.70	18.72
367.90	0.00
368.10	18.72
368.30	35.11
368.49	2.34
368.69	63.19
368.89	32.77
369.09	30.43
369.28	49.15
369.48	70.22
369.68	44.47
369.87	112.35
370.07	74.90
370.27	126.39
370.47	135.75
370.66	334.70
370.86	430.66
371.06	416.62
371.25	463.43
371.45	393.21
371.65	442.36
371.84	442.36
372.04	463.43
372.24	449.38
372.44	449.38
372.63	444.70
372.83	447.04
373.03	388.53
373.22	559.39
373.42	489.17
373.62	533.64
373.81	559.39
374.01	585.13
374.21	519.60
374.40	547.69
374.60	496.19
374.79	533.64
374.99	505.56
375.19	573.43
375.38	561.73
375.58	582.79
375.78	568.75
375.97	538.32
376.17	610.88
376.37	566.41
376.56	688.12
376.76	538.32
376.95	582.79
377.15	624.92
377.35	580.45
377.54	662.37
377.74	568.75
377.93	662.37
378.13	624.92
378.33	603.86
378.52	622.58
378.72	613.22
378.91	643.65
379.11	629.60
379.31	643.65
379.50	631.94
379.70	645.99
379.89	627.26
380.09	603.86
380.28	627.26
380.48	755.99
380.68	695.14
380.87	643.65
381.07	678.76
381.26	706.84
381.46	678.76
381.65	676.41
381.85	638.97
382.04	739.61
382.24	718.54
382.43	610.88
382.63	624.92
382.83	678.76
383.02	777.06
383.22	702.16
383.41	681.10
383.61	744.29
383.80	746.63
384.00	709.18
384.19	758.33
384.39	830.89
384.58	807.48
384.78	748.97
384.97	777.06
385.17	798.12
385.36	861.32
385.56	809.83
385.75	795.78
385.95	840.25
386.14	798.12
386.34	781.74
386.53	903.45
386.72	784.08
386.92	873.02
387.11	847.27
387.31	795.78
387.50	875.36
387.70	880.04
387.89	828.55
388.09	894.08
388.28	880.04
388.48	915.15
388.67	931.53
388.86	985.37
389.06	966.64
389.25	875.36
389.45	950.26
389.64	992.39
389.84	1013.45
390.03	1025.15
390.22	1048.56
390.42	945.58
390.61	997.07
390.81	994.73
391.00	1046.22
391.19	990.05
391.39	1013.45
391.58	1074.31
391.78	1050.90
391.97	1043.88
392.16	971.32
392.36	1067.28
392.55	1062.60
392.75	917.49
392.94	915.15
393.13	1057.92
393.33	912.81
393.52	1043.88
393.71	1104.73
393.91	1076.65
394.10	1142.18
394.29	1074.31
394.49	1067.28
394.68	1153.88
394.88	1228.78
395.07	1245.16
395.26	1200.69
395.46	1184.31
395.65	1181.97
395.84	1177.29
396.04	1238.14
396.23	1270.91
396.42	1135.16
396.62	1259.21
396.81	1132.82
397.00	1273.25
397.19	1172.61
397.39	1280.27
397.58	1364.53
397.77	1343.47
397.97	1476.88
398.16	1350.49
398.35	1453.47
398.55	1439.43
398.74	1453.47
398.93	1465.18
399.12	1469.86
399.32	1392.62
399.51	1547.09
399.70	1528.37
399.90	1483.90
400.09	1540.07
400.28	1439.43
400.47	1565.82
400.67	1624.33
400.86	1511.99
401.05	1603.27
401.24	1624.33
401.44	1734.34
401.63	1675.82
401.82	1713.27
402.01	1577.52
402.21	1739.02
402.40	1774.13
402.59	1746.04
402.78	1734.34
402.97	1743.70
403.17	1825.62
403.36	1715.61
403.55	1834.98
403.74	1926.26
403.93	1727.32
404.13	1834.98
404.32	1940.30
404.51	1949.67
404.70	1937.96
404.89	1884.13
405.09	1977.75
405.28	1937.96
405.47	1926.26
405.66	1973.07
405.85	1874.77
406.05	1987.11
406.24	1961.37
406.43	1886.47
406.62	2005.84
406.81	2148.61
407.00	2080.74
407.20	2085.42
407.39	2139.25
407.58	2120.53
407.77	2207.13
407.96	2167.34
408.15	2267.98
408.34	2176.70
408.54	2291.38
408.73	2289.04
408.92	2174.36
409.11	2331.17
409.30	2331.17
409.49	2305.43
409.68	2279.68
409.87	2256.28
410.07	2352.24
410.26	2345.22
410.45	2347.56
410.64	2427.14
410.83	2487.99
411.02	2518.42
411.21	2600.34
411.40	2438.84
411.59	2628.42
411.78	2654.17
411.98	2574.59
412.17	2502.03
412.36	2583.95
412.55	2612.04
412.74	2789.92
412.93	2712.68
413.12	2778.22
413.31	2820.35
413.50	2881.20
413.69	2747.79
413.88	2736.09
414.07	2911.63
414.26	3023.97
414.45	3014.61
414.64	3052.06
414.83	2984.18
415.02	3077.80
415.22	3019.29
415.41	3103.55
415.60	3080.14
415.79	3075.46
415.98	3204.19
416.17	3236.96
416.36	3218.24
416.55	3063.76
416.74	3133.98
416.93	3248.66
417.12	3311.86
417.31	3365.69
417.50	3403.14
417.69	3417.18
417.88	3410.16
418.07	3358.67
418.26	3412.50
418.45	3499.10
418.64	3538.89
418.83	3492.08
419.02	3480.38
419.21	3499.10
419.39	3569.32
419.58	3478.04
419.77	3550.59
419.96	3520.17
420.15	3604.42
420.34	3566.98
420.53	3763.58
420.72	3880.61
420.91	3796.35
421.10	3784.65
421.29	3836.14
421.48	3803.37
421.67	3864.22
421.86	3648.90
422.05	3747.20
422.24	3854.86
422.43	3815.07
422.61	3623.15
422.80	3889.97
422.99	3758.90
423.18	3936.78
423.37	3983.59
423.56	3831.46
423.75	3911.04
423.94	3978.91
424.13	3744.86
424.32	3669.96
424.50	3925.08
424.69	3920.40
424.88	4135.73
425.07	3953.16
425.26	3819.75
425.45	3927.42
425.64	3803.37
425.83	3967.21
426.01	3915.72
426.20	3974.23
426.39	3852.52
426.58	3843.16
426.77	3744.86
426.96	3920.40
427.15	3880.61
427.33	4002.32
427.52	3985.93
427.71	4077.21
427.90	4065.51
428.09	4159.13
428.28	4126.36
428.46	4194.24
428.65	4219.99
428.84	4255.09
429.03	4306.59
429.22	4051.47
429.40	4161.47
429.59	4191.90
429.78	3833.80
429.97	3906.35
430.16	3976.57
430.34	4152.11
430.53	4224.67
430.72	4184.88
430.91	4264.46
431.10	4386.16
431.28	4360.42
431.47	4442.34
431.66	4596.81
431.85	4496.17
432.03	4540.64
432.22	4580.43
432.41	4568.73
432.60	4606.17
432.79	4615.54
432.97	4791.08
433.16	4557.02
433.35	4519.57
433.54	4510.21
433.72	4681.07
433.91	4587.45
434.10	4723.20
434.28	4683.41
434.47	4823.84
434.66	4849.59
434.85	4854.27
435.03	4901.08
435.22	4870.65
435.41	5076.62
435.59	4983.00
435.78	4947.89
435.97	5156.20
436.16	5060.24
436.34	5118.75
436.53	4968.96
436.72	5259.18
436.90	5078.96
437.09	5109.39
437.28	5018.11
437.46	5130.45
437.65	4978.32
437.84	5118.75
438.02	5263.86
438.21	5280.25
438.40	5114.07
438.58	5322.38
438.77	5301.31
438.96	5469.83
439.14	5355.15
439.33	5444.09
439.52	5678.14
439.70	5540.05
439.89	5479.19
440.08	5612.60
440.26	5636.01
440.45	5540.05
440.63	5783.46
440.82	5823.25
441.01	5816.23
441.19	5966.03
441.38	6066.67
441.57	5980.07
441.75	6160.29
441.94	6195.40
442.12	6209.44
442.31	6228.17
442.50	6340.51
442.68	6230.51
442.87	6153.27
443.05	6211.78
443.24	6368.60
443.43	6516.05
443.61	6469.24
443.80	6576.91
443.98	6445.84
444.17	6148.59
444.35	6401.37
444.54	6551.16
444.73	6595.63
444.91	6354.55
445.10	6375.62
445.28	6506.69
445.47	6279.66
445.65	6485.62
445.84	6562.86
446.02	6415.41
446.21	6544.14
446.39	6438.81
446.58	6595.63
446.77	6703.29
446.95	6633.08
447.14	6576.91
447.32	6675.21
447.51	6597.97
447.69	6576.91
447.88	6548.82
448.06	6558.18
448.25	6619.04
448.43	6553.50
448.62	6841.39
448.80	6593.29
448.99	6843.73
449.17	6743.08
449.36	6750.10
449.54	6904.58
449.73	6970.12
449.91	7009.90
450.10	6949.05
450.28	7178.42
450.46	7337.58
450.65	7026.29
450.83	7232.26
451.02	7000.54
451.20	7300.13
451.39	7162.04
451.57	7138.63
451.76	7178.42
451.94	7155.02
452.13	7185.44
452.31	6974.80
452.49	6946.71
452.68	7014.59
452.86	7339.92
453.05	7204.17
453.23	7358.64
453.42	7169.06
453.60	7398.43
453.78	7297.79
453.97	7222.89
454.15	7248.64
454.34	7449.93
454.52	7550.57
454.70	7318.86
454.89	7499.08
455.07	7520.14
455.26	7566.95
455.44	7918.03
455.62	7700.36
455.81	7798.66
455.99	7683.98
456.17	7707.38
456.36	8009.31
456.54	7845.48
456.73	7833.77
456.91	7985.91
457.09	8081.87
457.28	8159.11
457.46	7878.24
457.64	8231.66
457.83	7967.18
458.01	7929.74
458.19	8336.99
458.38	7939.10
458.56	8283.16
458.74	8248.05
458.93	8112.30
459.11	8262.09
459.29	8187.19
459.48	8248.05
459.66	8411.89
459.84	8259.75
460.03	8538.27
460.21	8425.93
460.39	8271.45
460.57	8402.52
460.76	8636.58
460.94	8423.59
461.12	8542.96
461.31	8491.46
461.49	8526.57
461.67	8535.93
461.85	8809.78
462.04	8730.20
462.22	9427.68
462.40	8769.99
462.59	8943.19
462.77	8793.39
462.95	8870.63
463.13	8858.93
463.32	8774.67
463.50	8912.76
463.68	8964.25
463.86	8786.37
464.05	8938.51
464.23	8842.54
464.41	8835.52
464.59	8961.91
464.78	8865.95
464.96	9027.45
465.14	8858.93
465.32	9205.33
465.50	9118.73
465.69	9151.49
465.87	9334.06
466.05	9179.58
466.23	9034.47
466.41	9231.07
466.60	9287.25
466.78	9020.42
466.96	8938.51
467.14	9202.99
467.32	9212.35
467.51	9415.98
467.69	9137.45
467.87	9228.73
468.05	9282.56
468.23	9107.02
468.41	9247.46
468.60	9540.02
468.78	9455.76
468.96	9462.79
469.14	9647.69
469.32	9652.37
469.50	9280.22
469.69	9554.07
469.87	9673.43
470.05	9806.84
470.23	9741.31
470.41	9643.01
470.59	9813.87
470.77	9750.67
470.95	9877.06
471.14	9958.98
471.32	9844.29
471.50	10171.97
471.68	10237.50
471.86	10127.50
472.04	10263.25
472.22	10406.02
472.40	10160.27
472.58	10406.02
472.77	10354.53
472.95	10611.99
473.13	10899.87
473.31	10368.57
473.49	10387.30
473.67	10485.60
473.85	10644.76
474.03	10525.39
474.21	10956.05
474.39	11124.57
474.57	10846.04
474.75	10979.45
474.93	11054.35
475.12	11096.48
475.30	11229.89
475.48	11112.86
475.66	11133.93
475.84	11166.70
476.02	11248.61
476.20	11262.66
476.38	11473.31
476.56	11885.24
476.74	11763.53
476.92	11700.34
477.10	11693.32
477.28	12142.70
477.46	11873.54
477.64	11953.12
477.82	12166.10
478.00	12620.17
478.18	12458.67
478.36	12435.27
478.54	12678.68
478.72	12718.47
478.90	12802.73
479.08	13114.02
479.26	13125.72
479.44	13121.04
479.62	13053.17
479.80	13238.07
479.98	13399.57
480.16	13490.85
480.34	13570.43
480.52	13554.04
480.70	13451.06
480.88	13645.32
481.06	13699.16
481.24	13844.27
481.41	13968.32
481.59	14157.90
481.77	14228.12
481.95	14167.26
482.13	14434.08
482.31	14539.41
482.49	14714.95
482.67	14792.19
482.85	14888.15
483.03	14895.17
483.21	15470.94
483.39	15225.18
483.57	14911.55
483.74	15522.43
483.92	15438.17
484.10	15414.77
484.28	15824.36
484.46	15840.75
484.64	16374.39
484.82	15971.82
485.00	16217.57
485.18	16046.71
485.35	16255.02
485.53	16105.23
485.71	16121.61
485.89	16070.12
486.07	16240.98
486.25	16631.85
486.43	16690.36
486.61	16737.17
486.78	16823.77
486.96	17060.16
487.14	17458.06
487.32	17769.35
487.50	17628.92
487.68	18118.09
487.85	18171.92
488.03	18106.38
488.21	18436.40
488.39	18312.35
488.57	18960.68
488.75	18492.57
488.92	18853.02
489.10	19185.37
489.28	19339.85
489.46	19185.37
489.64	19566.88
489.81	19913.28
489.99	19768.16
490.17	20568.63
490.35	20327.55
490.53	19932.00
490.70	20240.95
490.88	20044.35
491.06	20666.93
491.24	20386.07
491.41	20510.11
491.59	20624.80
491.77	20423.51
491.95	20858.85
492.13	21277.81
492.30	21441.65
492.48	21556.33
492.66	21497.82
492.84	21769.32
493.01	21947.20
493.19	21579.74
493.37	22047.85
493.54	21930.82
493.72	22298.28
493.90	22408.29
494.08	22539.36
494.25	23105.77
494.43	22960.66
494.61	23154.92
494.79	23096.41
494.96	23484.94
495.14	23234.50
495.32	23124.49
495.49	23388.97
495.67	23536.43
495.85	23854.74
496.02	23754.10
496.20	24070.07
496.38	24093.47
496.55	24533.50
496.73	24718.40
496.91	24290.08
497.09	24783.93
497.26	25055.43
497.44	24797.98
497.62	24968.84
497.79	25200.55
497.97	25207.57
498.14	25415.88
498.32	25249.70
498.50	25287.15
498.67	25551.63
498.85	25748.23
499.03	25860.58
499.20	25710.78
499.38	26508.91
499.56	26216.34
499.73	26345.07
499.91	26078.25
500.08	26331.03
500.26	26120.38
500.44	26284.22
500.61	26857.65
500.79	26375.50
500.97	26544.02
501.14	27154.90
501.32	26719.56
501.49	26738.28
501.67	27070.64
501.84	27417.04
502.02	27257.88
502.20	27133.83
502.37	27468.53
502.55	27463.85
502.72	27658.11
502.90	27749.39
503.07	27655.77
503.25	27833.65
503.43	27718.96
503.60	28020.89
503.78	27658.11
503.95	28095.79
504.13	27950.68
504.30	28191.75
504.48	28559.22
504.65	28467.94
504.83	28559.22
505.01	28973.49
505.18	28807.31
505.36	29514.16
505.53	29167.76
505.71	29333.93
505.88	29675.65
506.06	28975.83
506.23	29331.59
506.41	29486.07
506.58	29713.10
506.76	29642.88
506.93	29713.10
507.11	29647.57
507.28	29582.03
507.46	29624.16
507.63	29504.79
507.81	30089.93
507.98	29799.70
508.16	30171.85
508.33	30333.34
508.50	30476.12
508.68	30618.89
508.85	30789.75
509.03	30773.36
509.20	30967.63
509.38	30682.08
509.55	31255.51
509.73	31133.81
509.90	30923.16
510.08	30916.14
510.25	30930.18
510.42	31367.86
510.60	31400.63
510.77	31566.81
510.95	31786.82
511.12	31466.16
511.30	31723.62
511.47	31887.46
511.64	31620.64
511.82	32144.92
511.99	31955.33
512.17	31896.82
512.34	31964.70
512.51	31983.42
512.69	32512.38
512.86	32128.53
513.04	32547.49
513.21	32673.88
513.38	32687.92
513.56	32669.20
513.73	32568.55
513.90	32514.72
514.08	32849.42
514.25	33013.26
514.43	32545.15
514.60	32552.17
514.77	32870.48
514.95	32980.49
515.12	33237.95
515.29	33476.68
515.47	33542.22
515.64	33933.09
515.81	33439.23
515.99	33380.72
516.16	33591.37
516.33	33109.22
516.51	33626.48
516.68	32868.14
516.85	33050.70
517.03	33184.12
517.20	33537.54
517.37	33961.17
517.54	34359.06
517.72	33979.90
517.89	33425.19
518.06	33549.24
518.24	33914.36
518.41	34171.82
518.58	34267.78
518.75	34157.78
518.93	34469.07
519.10	34480.77
519.27	34787.38
519.45	34747.59
519.62	35068.25
519.79	35274.21
519.96	34960.58
520.14	35316.34
520.31	34885.68
520.48	35660.40
520.65	35295.28
520.83	35370.18
521.00	35239.11
521.17	35676.79
521.34	35857.01
521.52	35599.55
521.69	35812.54
521.86	35889.77
522.03	35569.12
522.20	35901.48
522.38	36219.79
522.55	35756.36
522.72	36006.80
522.89	36348.52
523.07	36219.79
523.24	35990.42
523.41	36734.71
523.58	36683.22
523.75	36823.65
523.92	36795.56
524.10	37200.47
524.27	36961.74
524.44	36584.91
524.61	37024.93
524.78	36896.20
524.96	37326.86
525.13	36973.44
525.30	37661.56
525.47	37450.91
525.64	37013.23
525.81	37205.16
525.98	37312.82
526.16	36790.88
526.33	37062.38
526.50	37329.20
526.67	36879.82
526.84	36884.50
527.01	37275.37
527.18	37385.38
527.36	37387.72
527.53	37589.00
527.70	38059.45
527.87	38068.81
528.04	37951.79
528.21	37991.58
528.38	38457.34
528.55	38314.57
528.72	38630.54
528.89	38665.65
529.07	38808.42
529.24	38319.25
529.41	38911.41
529.58	38803.74
529.75	38494.79
529.92	38705.44
530.09	38742.89
530.26	38806.08
530.43	38995.67
530.60	38660.97
530.77	39086.95
530.94	39805.49
531.11	39009.71
531.28	39077.58
531.46	39110.35
531.63	38869.28
531.80	39061.20
531.97	39241.42
532.14	39021.41
532.31	38857.57
532.48	38579.05
532.65	39213.34
532.82	39255.46
532.99	39377.17
533.16	38972.26
533.33	39810.17
533.50	39819.53
533.67	39313.98
533.84	39290.57
534.01	39220.36
534.18	39934.22
534.35	39828.90
534.52	39892.09
534.69	39924.86
534.86	40009.12
535.03	39952.94
535.20	40130.83
535.37	40392.97
535.54	40407.01
535.71	40540.42
535.88	40559.14
536.05	39957.63
536.22	40238.49
536.38	40189.34
536.55	40271.26
536.72	40137.85
536.89	40278.28
537.06	40355.52
537.23	40304.02
537.40	40950.01
537.57	40570.85
537.74	40823.62
537.91	40821.28
538.08	40884.48
538.25	40217.43
538.42	40732.34
538.59	41153.64
538.75	40374.24
538.92	40896.18
539.09	41191.09
539.26	40837.67
539.43	40741.71
539.60	41092.79
539.77	41020.23
539.94	40964.06
540.11	41361.95
540.28	41083.42
540.44	41015.55
540.61	41104.49
540.78	40832.99
540.95	41371.31
541.12	40699.58
541.29	41242.58
541.46	41085.76
541.62	41528.13
541.79	41794.95
541.96	41053.00
542.13	41598.34
542.30	41507.06
542.47	41677.92
542.63	41542.17
542.80	41717.71
542.97	42330.93
543.14	42190.50
543.31	41748.14
543.48	41890.91
543.64	42469.02
543.81	42431.57
543.98	42438.59
544.15	42501.79
544.32	42188.16
544.48	42768.61
544.65	42454.98
544.82	42721.80
544.99	42265.39
545.16	42412.85
545.32	41989.21
545.49	42515.83
545.66	42689.03
545.83	42452.64
546.00	42686.69
546.16	42703.07
546.33	42616.47
546.50	42288.80
546.67	43049.47
546.83	41916.65
547.00	42803.72
547.17	42752.23
547.34	42588.39
547.50	42845.85
547.67	43505.88
547.84	42962.87
548.00	43243.74
548.17	43267.14
548.34	42969.90
548.51	43697.80
548.67	44210.38
548.84	43508.22
549.01	43332.68
549.18	42831.80
549.34	43803.13
549.51	43615.88
549.68	43484.81
549.84	43636.95
550.01	43650.99
550.18	43515.24
550.34	43613.54
550.51	43597.16
550.68	43185.22
550.84	43405.23
551.01	43866.32
551.18	43613.54
551.34	43445.02
551.51	43995.05
551.68	43922.49
551.84	43660.35
552.01	43597.16
552.18	43646.31
552.34	43512.90
552.51	43978.67
552.68	44137.82
552.84	44238.47
553.01	44083.99
553.18	43856.96
553.34	43805.47
553.51	44137.82
553.67	44233.78
553.84	44154.21
554.01	44210.38
554.17	44374.22
554.34	44397.62
554.51	44135.48
554.67	44304.00
554.84	44488.90
555.00	43992.71
555.17	44147.18
555.33	43917.81
555.50	44821.26
555.67	44505.29
555.83	44435.07
556.00	44509.97
556.16	44727.64
556.33	44091.01
556.50	44622.31
556.66	44669.12
556.83	44325.07
556.99	44587.21
557.16	44671.46
557.32	44746.36
557.49	44825.94
557.65	44367.20
557.82	44849.35
557.98	44891.48
558.15	44701.89
558.32	44842.32
558.48	44538.05
558.65	44821.26
558.81	44488.90
558.98	44718.28
559.14	44926.58
559.31	44533.37
559.47	44692.53
559.64	44994.46
559.80	44889.13
559.97	44830.62
560.13	44154.21
560.30	44634.02
560.46	44921.90
560.63	45141.91
560.79	45249.58
560.96	45207.45
561.12	44732.32
561.29	44669.12
561.45	44732.32
561.61	44928.92
561.78	44872.75
561.94	44966.37
562.11	45172.34
562.27	44912.54
562.44	45113.83
562.60	45277.66
562.77	45125.53
562.93	45088.08
563.10	45607.68
563.26	44720.62
563.42	45551.51
563.59	45010.84
563.75	45097.44
563.92	45837.05
564.08	45130.21
564.24	45647.47
564.41	44973.39
564.57	45242.56
564.74	45221.49
564.90	44992.12
565.07	45134.89
565.23	45469.59
565.39	45296.39
565.56	45083.40
565.72	44783.81
565.88	45237.87
566.05	45078.72
566.21	45041.27
566.38	45251.92
566.54	45450.86
566.70	45221.49
566.87	45759.81
567.03	45687.26
567.19	45848.75
567.36	45577.25
567.52	45425.12
567.68	45504.70
567.85	45186.38
568.01	45017.86
568.17	45216.81
568.34	45467.25
568.50	45500.01
568.66	45345.54
568.83	45244.90
568.99	45146.59
569.15	45467.25
569.32	45329.16
569.48	45174.68
569.64	45535.12
569.81	45364.26
569.97	45694.28
570.13	45759.81
570.30	45455.54
570.46	45603.00
570.62	44884.45
570.78	45219.15
570.95	45059.99
571.11	45340.86
571.27	44924.24
571.43	45497.67
571.60	45731.73
571.76	45528.10
571.92	45647.47
572.09	45439.16
572.25	45598.32
572.41	45504.70
572.57	45888.54
572.74	46244.30
572.90	45762.15
573.06	45797.26
573.22	45743.43
573.38	45343.20
573.55	45343.20
573.71	45514.06
573.87	45858.12
574.03	45642.79
574.20	45324.47
574.36	45413.41
574.52	45705.98
574.68	45504.70
574.84	45556.19
575.01	45720.02
575.17	45855.78
575.33	45612.36
575.49	45670.87
575.65	45413.41
575.82	45687.26
575.98	45413.41
576.14	45839.39
576.30	45661.51
576.46	45626.40
576.62	45544.48
576.79	45158.30
576.95	45823.01
577.11	45450.86
577.27	45785.56
577.43	45654.49
577.59	45354.90
577.75	45642.79
577.92	45151.27
578.08	45455.54
578.24	45488.31
578.40	45544.48
578.56	45633.42
578.72	45595.98
578.88	45642.79
579.04	45874.50
579.21	45975.14
579.37	45401.71
579.53	45610.02
579.69	45413.41
579.85	45427.46
580.01	45670.87
580.17	45811.31
580.33	45399.37
580.49	45886.20
580.65	45668.53
580.82	45958.76
580.98	45628.74
581.14	45439.16
581.30	45883.86
581.46	45296.39
581.62	45897.91
581.78	45382.99
581.94	46146.00
582.10	45783.22
582.26	45881.52
582.42	45633.42
582.58	45621.72
582.74	45553.85
582.90	45872.16
583.06	46122.60
583.22	45984.51
583.38	46019.61
583.54	46005.57
583.70	46113.23
583.86	46246.65
584.02	45844.07
584.18	45818.33
584.34	45851.09
584.50	45724.71
584.66	45546.82
584.82	45359.58
584.98	46342.61
585.14	46120.26
585.30	45797.26
585.46	45993.87
585.62	45280.00
585.78	45640.45
585.94	46028.98
586.10	46017.27
586.26	45420.44
586.42	46066.42
586.58	45925.99
586.74	46040.68
586.90	45275.32
587.06	45687.26
587.22	45937.69
587.38	45691.94
587.54	45249.58
587.70	45710.66
587.86	45825.35
588.02	45818.33
588.18	45858.12
588.34	45558.53
588.49	45333.84
588.65	45450.86
588.81	45329.16
588.97	45516.40
589.13	45635.77
589.29	45462.57
589.45	45874.50
589.61	45694.28
589.77	45771.52
589.93	45963.44
590.08	45925.99
590.24	46108.55
590.40	45656.83
590.56	46220.90
590.72	46085.15
590.88	45996.21
591.04	45841.73
591.20	46312.18
591.35	45883.86
591.51	46639.86
591.67	45787.90
591.83	45954.08
591.99	45773.86
592.15	45471.93
592.31	46124.94
592.46	45708.32
592.62	45778.54
592.78	45982.16
592.94	46073.45
593.10	46064.08
593.26	46251.33
593.41	46127.28
593.57	45408.73
593.73	45427.46
593.89	45792.58
594.05	46134.30
594.20	46012.59
594.36	46080.47
594.52	45820.67
594.68	45907.27
594.84	45485.97
594.99	45933.01
595.15	45883.86
595.31	45963.44
595.47	46347.29
595.62	46019.61
595.78	46028.98
595.94	46253.67
596.10	46260.69
596.25	45462.57
596.41	45925.99
596.57	45986.85
596.73	45979.82
596.88	46188.13
597.04	46059.40
597.20	45958.76
597.36	45977.48
597.51	45979.82
597.67	45883.86
597.83	46265.37
597.99	45921.31
598.14	45806.62
598.30	45762.15
598.46	46253.67
598.61	45876.84
598.77	45703.64
598.93	45963.44
599.09	46206.86
599.24	46373.03
599.40	46349.63
599.56	46358.99
599.71	45680.24
599.87	46068.76
600.03	46384.74
600.18	45923.65
600.34	45813.65
600.50	45890.88
600.65	45785.56
600.81	46347.29
600.97	46101.53
601.12	46178.77
601.28	45844.07
601.44	45787.90
601.59	45921.31
601.75	45979.82
601.91	45890.88
602.06	45640.45
602.22	46188.13
602.37	46066.42
602.53	45883.86
602.69	46190.47
602.84	46202.18
603.00	45581.93
603.16	45914.29
603.31	45900.25
603.47	45668.53
603.62	45743.43
603.78	45935.35
603.94	45970.46
604.09	46237.28
604.25	45729.39
604.40	46108.55
604.56	45930.67
604.71	46071.10
604.87	46115.58
605.03	45783.22
605.18	45532.78
605.34	45750.45
605.49	45497.67
605.65	45415.76
605.80	45759.81
605.96	45621.72
606.12	46291.12
606.27	46129.62
606.43	45464.91
606.58	45588.95
606.74	45614.70
606.89	45771.52
607.05	45970.46
607.20	45825.35
607.36	45778.54
607.51	46213.88
607.67	45944.72
607.82	45720.02
607.98	45591.30
608.13	45584.27
608.29	45378.31
608.44	45031.91
608.60	45350.22
608.75	45172.34
608.91	45694.28
609.06	45661.51
609.22	45764.49
609.37	45228.51
609.53	45675.55
609.68	45345.54
609.84	45247.24
609.99	45382.99
610.15	45001.48
610.30	45010.84
610.46	45233.19
610.61	45015.52
610.76	45326.81
610.92	45565.55
611.07	45301.07
611.23	45427.46
611.38	45462.57
611.54	45364.26
611.69	44994.46
611.84	45139.57
612.00	44760.40
612.15	44828.28
612.31	45640.45
612.46	44945.31
612.62	45139.57
612.77	44987.44
612.92	45361.92
613.08	45179.36
613.23	45256.60
613.39	44722.96
613.54	44814.24
613.69	44631.68
613.85	44664.44
614.00	44856.37
614.15	44727.64
614.31	44872.75
614.46	44933.60
614.62	44690.19
614.77	44767.43
614.92	44722.96
615.08	44858.71
615.23	44493.58
615.38	44296.98
615.54	44779.13
615.69	44641.04
615.84	44552.10
616.00	44715.93
616.15	44444.43
616.30	45111.49
616.46	44680.83
616.61	43971.64
616.76	44498.26
616.92	44191.65
617.07	44048.88
617.22	44481.88
617.37	44268.89
617.53	44727.64
617.68	44320.38
617.83	44418.69
617.99	44130.80
618.14	44460.82
618.29	44243.15
618.45	43948.24
618.60	44257.19
618.75	43599.50
618.90	43885.04
619.06	43995.05
619.21	43732.91
619.36	44491.24
619.51	43938.88
619.67	43873.34
619.82	43768.02
619.97	44006.75
620.12	43297.57
620.28	43037.77
620.43	44182.29
620.58	43885.04
620.73	44004.41
620.89	43510.56
621.04	43845.26
621.19	43995.05
621.34	43833.55
621.49	43964.62
621.65	43489.49
621.80	43880.36
621.95	43768.02
622.10	43620.56
622.25	43569.07
622.41	43519.92
622.56	43683.76
622.71	43709.50
622.86	43533.96
623.01	43351.40
623.16	43557.37
623.32	43438.00
623.47	43768.02
623.62	43475.45
623.77	43173.52
623.92	43496.52
624.07	43122.03
624.23	42930.11
624.38	43311.61
624.53	43232.04
624.68	43292.89
624.83	43075.22
624.98	43000.32
625.13	42749.88
625.29	43133.73
625.44	42983.94
625.59	42721.80
625.74	42602.43
625.89	42593.07
626.04	42717.12
626.19	42768.61
626.34	42993.30
626.49	42899.68
626.65	42412.85
626.80	42806.06
626.95	42887.98
627.10	42195.18
627.25	42667.97
627.40	42394.12
627.55	42267.73
627.70	42087.51
627.85	42288.80
628.00	42459.66
628.15	42717.12
628.30	42614.13
628.45	42871.59
628.60	42380.08
628.76	42557.96
628.91	42419.87
629.06	41914.31
629.21	41904.95
629.36	42029.00
629.51	41888.57
629.66	42031.34
629.81	42522.85
629.96	41773.88
630.11	42143.69
630.26	42124.96
630.41	42513.49
630.56	42274.76
630.71	41944.74
630.86	41893.25
631.01	41982.19
631.16	41752.82
631.31	41280.03
631.46	41797.29
631.61	41759.84
631.76	41663.88
631.91	41876.86
632.06	42026.66
632.21	41422.80
632.36	41640.47
632.51	41553.87
632.66	41713.03
632.81	41244.92
632.96	41698.98
633.10	41656.85
633.25	41148.96
633.40	41642.81
633.55	41701.32
633.70	41432.16
633.85	41724.73
634.00	41130.23
634.15	41380.67
634.30	41268.33
634.45	41146.62
634.60	41024.91
634.75	41074.06
634.90	40863.41
635.05	41354.93
635.19	41043.63
635.34	41228.54
635.49	41127.89
635.64	41111.51
635.79	41031.93
635.94	40439.78
636.09	40856.39
636.24	40751.07
636.39	40720.64
636.53	40975.76
636.68	40589.57
636.83	40795.54
636.98	41020.23
637.13	40517.01
637.28	41057.68
637.43	41338.54
637.57	41141.94
637.72	40577.87
637.87	40547.44
638.02	40692.55
638.17	40980.44
638.32	40933.63
638.46	40502.97
638.61	40112.10
638.76	40758.09
638.91	40519.35
639.06	40612.98
639.20	40718.30
639.35	40371.90
639.50	40732.34
639.65	40692.55
639.80	40179.98
639.94	39931.88
640.09	40514.67
640.24	40502.97
640.39	40154.23
640.54	39845.28
640.68	40325.09
640.83	39882.73
640.98	39276.53
641.13	39894.43
641.27	40212.74
641.42	39976.35
641.57	39852.30
641.72	39938.90
641.86	39824.22
642.01	39686.12
642.16	39924.86
642.31	39545.69
642.45	39849.96
642.60	39966.99
642.75	39583.14
642.90	40039.54
643.04	39667.40
643.19	39882.73
643.34	39716.55
643.48	39910.82
643.63	39690.80
643.78	39962.31
643.93	39566.76
644.07	39208.65
644.22	39597.18
644.37	39442.71
644.51	39365.47
644.66	39271.85
644.81	39812.51
644.95	39538.67
645.10	39353.77
645.25	39168.87
645.39	39416.96
645.54	39248.44
645.69	39054.18
645.83	38941.83
645.98	39201.63
646.13	39299.94
646.27	39264.83
646.42	39084.61
646.57	39126.74
646.71	38857.57
646.86	39019.07
647.00	38986.30
647.15	38813.10
647.30	39129.08
647.44	39002.69
647.59	38581.39
647.74	38651.61
647.88	38843.53
648.03	38941.83
648.17	38543.94
648.32	38754.59
648.47	38738.21
648.61	38560.33
648.76	38990.98
648.90	38677.35
649.05	38726.50
649.20	38569.69
649.34	38639.90
649.49	38230.31
649.63	38569.69
649.78	38829.49
649.92	38113.28
650.07	38827.15
650.21	38298.19
650.36	38820.13
650.51	38426.92
650.65	38899.70
650.80	38981.62
650.94	38773.31
651.09	38213.93
651.23	37806.67
651.38	38279.46
651.52	37909.66
651.67	38010.30
651.81	37738.80
651.96	38129.67
652.10	38043.07
652.25	38230.31
652.39	38206.90
652.54	38157.75
652.68	37937.74
652.83	38150.73
652.97	38101.58
653.12	38281.80
653.26	37816.04
653.41	37977.53
653.55	37811.35
653.70	37933.06
653.84	37858.17
653.99	37551.56
654.13	37577.30
654.27	37570.28
654.42	37600.71
654.56	37703.69
654.71	37589.00
654.85	37521.13
655.00	37759.86
655.14	37834.76
655.29	37261.33
655.43	36938.33
655.57	36994.51
655.72	37015.57
655.86	36865.78
656.01	36825.99
656.15	36758.11
656.30	37165.37
656.44	36835.35
656.58	37186.43
656.73	37263.67
656.87	36870.46
657.01	37326.86
657.16	37102.17
657.30	36364.90
657.45	36701.94
657.59	36676.19
657.73	36755.77
657.88	37235.58
658.02	37247.29
658.16	36926.63
658.31	36804.92
658.45	36996.85
658.60	36704.28
658.74	37076.43
658.88	36699.60
659.03	36313.41
659.17	36385.97
659.31	36439.80
659.46	36823.65
659.60	36465.55
659.74	36278.30
659.89	36400.01
660.03	36617.68
660.17	36605.98
660.32	36397.67
660.46	36643.43
660.60	36095.74
660.74	36297.03
660.89	36109.78
661.03	35791.47
661.17	36505.34
661.32	36212.77
661.46	36137.87
661.60	35531.67
661.74	35861.69
661.89	35475.50
662.03	35842.96
662.17	36077.02
662.31	35592.53
662.46	36243.20
662.60	36189.36
662.74	35810.20
662.88	35454.44
663.03	35370.18
663.17	35456.78
663.31	35093.99
663.45	35529.33
663.60	35550.40
663.74	35271.87
663.88	34988.67
664.02	34986.33
664.17	35138.46
664.31	34972.28
664.45	35000.37
664.59	34693.76
664.73	34703.12
664.88	34808.45
665.02	34160.12
665.16	34616.52
665.30	34550.99
665.44	34539.29
665.59	34412.90
665.73	34588.44
665.87	34380.13
666.01	34396.51
666.15	34443.32
666.29	34209.27
666.44	34274.80
666.58	34440.98
666.72	34108.63
666.86	34157.78
667.00	34176.50
667.14	33652.22
667.28	33677.97
667.43	33867.55
667.57	34129.69
667.71	34024.37
667.85	33642.86
667.99	33928.41
668.13	34005.64
668.27	33883.94
668.41	33640.52
668.56	33434.55
668.70	33373.70
668.84	32966.45
668.98	33123.26
669.12	33390.08
669.26	33310.50
669.40	32737.07
669.54	32964.10
669.68	33041.34
669.82	32807.29
669.96	32751.12
670.10	32545.15
670.25	33062.41
670.39	32603.66
670.53	32716.01
670.67	32666.86
670.81	33090.49
670.95	32315.78
671.09	32741.75
671.23	32175.34
671.37	32212.79
671.51	32060.66
671.65	32315.78
671.79	31735.32
671.93	31498.93
672.07	32208.11
672.21	31735.32
672.35	31969.38
672.49	32093.43
672.63	31714.26
672.77	31377.22
672.91	31693.19
673.05	31578.51
673.19	31442.76
673.33	31339.77
673.47	31377.22
673.61	31122.10
673.75	31232.11
673.89	31168.91
674.03	31068.27
674.17	31222.75
674.31	31049.55
674.45	31115.08
674.59	31070.61
674.73	31253.17
674.87	30871.67
675.01	30705.49
675.15	30682.08
675.29	30937.20
675.43	30696.13
675.56	30527.61
675.70	30410.58
675.84	30225.68
675.98	29237.97
676.12	30267.81
676.26	30323.98
676.40	30347.39
676.54	30038.44
676.68	29900.34
676.82	29401.81
676.96	29748.21
677.10	29553.94
677.23	29556.28
677.37	29193.50
677.51	29298.83
677.65	28769.86
677.79	28676.24
677.93	28996.90
678.07	28835.40
678.21	28170.69
678.34	28882.21
678.48	28158.99
678.62	28397.72
678.76	28299.42
678.90	28268.99
679.04	28140.26
679.18	28046.64
679.31	27983.44
679.45	27672.15
679.59	27571.51
679.73	27786.84
679.87	27608.96
680.00	27637.05
680.14	27592.58
680.28	27695.56
680.42	27307.03
680.56	27608.96
680.70	26906.80
680.83	27173.62
680.97	27087.02
681.11	27096.38
681.25	27065.96
681.39	27117.45
681.52	26888.07
681.66	27077.66
681.80	26831.90
681.94	26536.99
682.07	26368.48
682.21	26171.87
682.35	26270.17
682.49	26045.48
682.62	26181.23
682.76	25893.35
682.90	25982.29
683.04	25958.88
683.17	25715.47
683.31	25495.46
683.45	25823.13
683.59	25521.20
683.72	25612.48
683.86	25373.75
684.00	25048.41
684.13	24788.61
684.27	24950.11
684.41	24975.86
684.55	24781.59
684.68	24886.92
684.82	24596.69
684.96	24486.68
685.09	24704.35
685.23	24369.66
685.37	24470.30
685.50	24372.00
685.64	24547.54
685.78	24212.84
685.91	24128.58
686.05	24250.29
686.19	23805.59
686.32	23623.03
686.46	23435.78
686.60	23126.83
686.73	23002.78
686.87	23300.03
687.01	23007.47
687.14	22642.34
687.28	22845.97
687.42	22654.05
687.55	22801.50
687.69	22841.29
687.82	22581.49
687.96	22752.35
688.10	22483.19
688.23	22782.77
688.37	22429.35
688.50	22838.95
688.64	22541.70
688.78	22242.11
688.91	21970.61
689.05	21858.26
689.18	21727.19
689.32	21333.98
689.46	22078.27
689.59	21965.93
689.73	21961.25
689.86	21411.22
690.00	21329.30
690.13	21460.37
690.27	21312.92
690.41	21111.63
690.54	21032.05
690.68	21331.64
690.81	21128.02
690.95	21160.78
691.08	20910.35
691.22	21163.12
691.35	20641.18
691.49	21039.08
691.62	20781.62
691.76	20676.29
691.89	20437.56
692.03	20400.11
692.16	20348.62
692.30	20231.59
692.43	19978.81
692.57	20156.69
692.70	20020.94
692.84	19695.61
692.97	19651.14
693.11	19461.55
693.24	19662.84
693.38	19496.66
693.51	19609.01
693.65	19749.44
693.78	19073.03
693.92	19363.25
694.05	19138.56
694.19	19431.13
694.32	19204.10
694.45	18899.83
694.59	19250.91
694.72	18838.97
694.86	18728.97
694.99	18773.44
695.13	18576.83
695.26	18492.57
695.39	18403.63
695.53	18670.45
695.66	18342.78
695.80	18441.08
695.93	18090.00
696.07	18094.68
696.20	18157.88
696.33	18026.81
696.47	17954.25
696.60	17741.26
696.73	17750.62
696.87	17771.69
697.00	17504.87
697.14	17128.04
697.27	17125.70
697.40	17249.75
697.54	17324.65
697.67	16877.60
697.80	17256.77
697.94	16762.92
698.07	17055.48
698.21	16706.74
698.34	17167.83
698.47	16805.05
698.61	16460.99
698.74	16397.79
698.87	16683.34
699.01	16201.19
699.14	16098.20
699.27	16137.99
699.40	16301.83
699.54	16107.57
699.67	15995.22
699.80	15756.49
699.94	15887.56
700.07	16128.63
700.20	16046.71
700.34	15854.79
700.47	16060.76
700.60	15620.74
700.73	15618.39
700.87	15800.96
701.00	15339.87
701.13	15384.34
701.26	15370.30
701.40	15314.13
701.53	15161.99
701.66	14946.66
701.79	14862.40
701.93	14918.57
702.06	14862.40
702.19	14897.51
702.32	14771.12
702.46	14717.29
702.59	14799.21
702.72	14874.10
702.85	14719.63
702.99	14483.24
703.12	14249.18
703.25	13965.98
703.38	14228.12
703.51	14298.33
703.65	14143.86
703.78	14001.08
703.91	13998.74
704.04	14003.43
704.17	13530.64
704.31	13825.54
704.44	13624.26
704.57	13687.45
704.70	13570.43
704.83	13493.19
704.96	13642.98
705.10	13612.56
705.23	13467.44
>>>>>End Processed Spectral Data<<<<<
