SpectraSuite Data File
++++++++++++++++++++++++++++++++++++
Date: Fri Oct 25 11:34:47 EDT 2013
User: price-jones
Dark Spectrum Present: No
Reference Spectrum Present: No
Number of Sampled Component Spectra: 1
Spectrometers: USB2+H05261
Integration Time (usec): 100000 (USB2+H05261)
Spectra Averaged: 1 (USB2+H05261)
Boxcar Smoothing: 0 (USB2+H05261)
Correct for Electrical Dark: No (USB2+H05261)
Strobe/Lamp Enabled: No (USB2+H05261)
Correct for Detector Non-linearity: No (USB2+H05261)
Correct for Stray Light: No (USB2+H05261)
Number of Pixels in Processed Spectrum: 2048
>>>>>Begin Processed Spectral Data<<<<<
365.73	243.42
365.92	243.42
366.12	243.42
366.32	215.33
366.52	124.05
366.72	191.92
366.91	100.64
367.11	131.07
367.31	147.45
367.51	154.48
367.70	140.43
367.90	215.33
368.10	173.20
368.30	173.20
368.49	180.22
368.69	191.92
368.89	145.11
369.09	182.56
369.28	217.67
369.48	168.52
369.68	234.05
369.87	215.33
370.07	262.14
370.27	276.18
370.47	332.36
370.66	435.34
370.86	458.74
371.06	496.19
371.25	545.34
371.45	451.72
371.65	538.32
371.84	550.03
372.04	545.34
372.24	627.26
372.44	615.56
372.63	592.16
372.83	580.45
373.03	557.05
373.22	641.31
373.42	580.45
373.62	566.41
373.81	617.90
374.01	704.50
374.21	636.63
374.40	601.52
374.60	624.92
374.79	629.60
374.99	648.33
375.19	657.69
375.38	629.60
375.58	622.58
375.78	727.91
375.97	713.86
376.17	678.76
376.37	713.86
376.56	711.52
376.76	730.25
376.95	674.07
377.15	620.24
377.35	662.37
377.54	655.35
377.74	713.86
377.93	685.78
378.13	697.48
378.33	660.03
378.52	744.29
378.72	788.76
378.91	739.61
379.11	662.37
379.31	732.59
379.50	578.11
379.70	678.76
379.89	713.86
380.09	683.44
380.28	681.10
380.48	765.36
380.68	737.27
380.87	763.01
381.07	699.82
381.26	727.91
381.46	725.57
381.65	709.18
381.85	741.95
382.04	732.59
382.24	713.86
382.43	746.63
382.63	753.65
382.83	793.44
383.02	847.27
383.22	774.72
383.41	779.40
383.61	711.52
383.80	823.87
384.00	772.38
384.19	873.02
384.39	744.29
384.58	779.40
384.78	861.32
384.97	786.42
385.17	791.10
385.36	758.33
385.56	809.83
385.75	873.02
385.95	821.53
386.14	891.74
386.34	887.06
386.53	847.27
386.72	884.72
386.92	814.51
387.11	866.00
387.31	828.55
387.50	844.93
387.70	849.61
387.89	800.46
388.09	851.96
388.28	905.79
388.48	926.85
388.67	830.89
388.86	870.68
389.06	980.68
389.25	933.87
389.45	964.30
389.64	936.21
389.84	997.07
390.03	968.98
390.22	910.47
390.42	954.94
390.61	929.19
390.81	957.28
391.00	929.19
391.19	905.79
391.39	978.34
391.58	985.37
391.78	994.73
391.97	966.64
392.16	1043.88
392.36	1060.26
392.55	1022.81
392.75	1006.43
392.94	947.92
393.13	1022.81
393.33	987.71
393.52	947.92
393.71	1067.28
393.91	1086.01
394.10	1071.97
394.29	1111.75
394.49	1088.35
394.68	1118.78
394.88	1057.92
395.07	1102.39
395.26	1069.62
395.46	1109.41
395.65	1177.29
395.84	1128.14
396.04	1179.63
396.23	1226.44
396.42	1123.46
396.62	1114.10
396.81	1146.86
397.00	1200.69
397.19	1146.86
397.39	1261.55
397.58	1228.78
397.77	1245.16
397.97	1188.99
398.16	1088.35
398.35	1214.74
398.55	1186.65
398.74	1205.38
398.93	1331.76
399.12	1259.21
399.32	1228.78
399.51	1369.21
399.70	1315.38
399.90	1308.36
400.09	1282.61
400.28	1350.49
400.47	1299.00
400.67	1418.36
400.86	1315.38
401.05	1263.89
401.24	1376.24
401.44	1455.81
401.63	1427.73
401.82	1427.73
402.01	1446.45
402.21	1437.09
402.40	1453.47
402.59	1427.73
402.78	1472.20
402.97	1406.66
403.17	1486.24
403.36	1481.56
403.55	1514.33
403.74	1511.99
403.93	1479.22
404.13	1409.00
404.32	1530.71
404.51	1617.31
404.70	1610.29
404.89	1519.01
405.09	1682.85
405.28	1565.82
405.47	1544.75
405.66	1664.12
405.85	1643.06
406.05	1636.03
406.24	1680.50
406.43	1664.12
406.62	1732.00
406.81	1746.04
407.00	1664.12
407.20	1586.88
407.39	1675.82
407.58	1760.08
407.77	1844.34
407.96	1820.94
408.15	1736.68
408.34	1717.95
408.54	1790.51
408.73	1827.96
408.92	1823.28
409.11	1830.30
409.30	1877.11
409.49	1856.04
409.68	1893.49
409.87	1944.99
410.07	1952.01
410.26	1900.52
410.45	1937.96
410.64	1952.01
410.83	2066.69
411.02	2054.99
411.21	2064.35
411.40	2012.86
411.59	2148.61
411.78	2069.03
411.98	2069.03
412.17	2090.10
412.36	2228.19
412.55	2321.81
412.74	2256.28
412.93	2342.88
413.12	2122.87
413.31	2232.87
413.50	2291.38
413.69	2289.04
413.88	2363.94
414.07	2253.94
414.26	2258.62
414.45	2377.98
414.64	2270.32
414.83	2370.96
415.02	2485.65
415.22	2436.50
415.41	2495.01
415.60	2588.63
415.79	2527.78
415.98	2715.02
416.17	2775.88
416.36	2581.61
416.55	2642.46
416.74	2635.44
416.93	2726.72
417.12	2670.55
417.31	2712.68
417.50	2722.04
417.69	2813.32
417.88	2878.86
418.07	2679.91
418.26	2724.38
418.45	2836.73
418.64	3021.63
418.83	2956.10
419.02	2836.73
419.21	2958.44
419.39	2913.97
419.58	2846.09
419.77	2916.31
419.96	3066.10
420.15	3045.04
420.34	2939.71
420.53	3110.57
420.72	3073.12
420.91	3119.93
421.10	3138.66
421.29	3169.09
421.48	3040.36
421.67	3148.02
421.86	3082.49
422.05	3197.17
422.24	3073.12
422.43	3335.26
422.61	3164.40
422.80	3300.16
422.99	3098.87
423.18	3323.56
423.37	3368.03
423.56	3241.64
423.75	3239.30
423.94	3232.28
424.13	3030.99
424.32	3077.80
424.50	3349.31
424.69	3405.48
424.88	3276.75
425.07	3236.96
425.26	3173.77
425.45	3204.19
425.64	3281.43
425.83	3211.22
426.01	3384.41
426.20	3321.22
426.39	3318.88
426.58	3185.47
426.77	3304.84
426.96	3417.18
427.15	3342.28
427.33	3330.58
427.52	3456.97
427.71	3400.80
427.90	3260.37
428.09	3431.23
428.28	3494.42
428.46	3475.70
428.65	3480.38
428.84	3667.62
429.03	3733.15
429.22	3611.45
429.40	3616.13
429.59	3583.36
429.78	3461.65
429.97	3506.12
430.16	3562.30
430.34	3641.87
430.53	3707.41
430.72	3604.42
430.91	3676.98
431.10	3723.79
431.28	3730.81
431.47	3817.41
431.66	3953.16
431.85	3726.13
432.03	3859.54
432.22	3896.99
432.41	3950.82
432.60	3861.88
432.79	3789.33
432.97	3838.48
433.16	3889.97
433.35	3889.97
433.54	3896.99
433.72	3962.53
433.91	3899.33
434.10	3960.19
434.28	4016.36
434.47	4011.68
434.66	4009.34
434.85	4105.30
435.03	4065.51
435.22	4063.17
435.41	4163.81
435.59	4051.47
435.78	4091.26
435.97	4016.36
436.16	4128.70
436.34	4091.26
436.53	4238.71
436.72	4358.08
436.90	4133.39
437.09	4329.99
437.28	4224.67
437.46	4252.75
437.65	4423.61
437.84	4477.44
438.02	4470.42
438.21	4376.80
438.40	4390.84
438.58	4596.81
438.77	4498.51
438.96	4407.23
439.14	4514.89
439.33	4671.71
439.52	4524.26
439.70	4624.90
439.89	4664.69
440.08	4629.58
440.26	4755.97
440.45	4706.82
440.63	4709.16
440.82	4891.72
441.01	4849.59
441.19	4847.25
441.38	4924.49
441.57	4950.23
441.75	5097.69
441.94	4994.70
442.12	5172.58
442.31	5050.88
442.50	5081.30
442.68	5069.60
442.87	5067.26
443.05	5266.21
443.24	5369.19
443.43	5245.14
443.61	5322.38
443.80	5420.68
443.98	5207.69
444.17	5081.30
444.35	5268.55
444.54	5394.93
444.73	5404.30
444.91	5394.93
445.10	5441.75
445.28	5287.27
445.47	5266.21
445.65	5191.31
445.84	5385.57
446.02	5392.59
446.21	5242.80
446.39	5397.28
446.58	5373.87
446.77	5453.45
446.95	5231.10
447.14	5479.19
447.32	5558.77
447.51	5357.49
447.69	5511.96
447.88	5437.06
448.06	5451.11
448.25	5392.59
448.43	5540.05
448.62	5504.94
448.80	5446.43
448.99	5549.41
449.17	5586.86
449.36	5469.83
449.54	5643.03
449.73	5682.82
449.91	5724.95
450.10	5645.37
450.28	5870.06
450.46	5933.26
450.65	5741.33
450.83	5645.37
451.02	5785.80
451.20	5839.64
451.39	5832.62
451.57	5921.56
451.76	5797.51
451.94	5778.78
452.13	5893.47
452.31	5977.73
452.49	5942.62
452.68	5940.28
452.86	5914.53
453.05	5956.66
453.23	6008.16
453.42	5881.77
453.60	5893.47
453.78	5973.05
453.97	5959.00
454.15	5970.71
454.34	6036.24
454.52	6139.23
454.70	6209.44
454.89	6132.20
455.07	6326.47
455.26	6162.63
455.44	6314.77
455.62	6392.00
455.81	6218.80
455.99	6347.53
456.17	6389.66
456.36	6377.96
456.54	6525.41
456.73	6623.72
456.91	6506.69
457.09	6553.50
457.28	6717.34
457.46	6679.89
457.64	6560.52
457.83	6494.99
458.01	6712.66
458.19	6853.09
458.38	6857.77
458.56	6752.45
458.74	6707.98
458.93	6825.00
459.11	6825.00
459.29	6740.74
459.48	6766.49
459.66	6850.75
459.84	6829.68
460.03	6974.80
460.21	7169.06
460.39	6855.43
460.57	6878.83
460.76	7227.57
460.94	7117.57
461.12	7000.54
461.31	7236.94
461.49	7087.14
461.67	7133.95
461.85	7253.32
462.04	7049.69
462.22	7349.28
462.40	7246.30
462.59	7272.04
462.77	7360.98
462.95	7332.90
463.13	7368.01
463.32	7229.91
463.50	7403.11
463.68	7407.80
463.86	7410.14
464.05	7368.01
464.23	7517.80
464.41	7503.76
464.59	7351.62
464.78	7515.46
464.96	7475.67
465.14	7473.33
465.32	7552.91
465.50	7808.03
465.69	7705.04
465.87	7688.66
466.05	7723.77
466.23	7775.26
466.41	7492.05
466.60	7932.08
466.78	7616.10
466.96	7758.88
467.14	7562.27
467.32	7875.90
467.51	8042.08
467.69	7562.27
467.87	7756.54
468.05	7878.24
468.23	7899.31
468.41	7946.12
468.60	7932.08
468.78	8112.30
468.96	8042.08
469.14	7932.08
469.32	8187.19
469.50	8147.40
469.69	8049.10
469.87	8180.17
470.05	8166.13
470.23	8222.30
470.41	8283.16
470.59	8222.30
470.77	8255.07
470.95	8386.14
471.14	8498.49
471.32	8252.73
471.50	8493.80
471.68	8521.89
471.86	8512.53
472.04	8751.26
472.22	8875.31
472.40	8582.74
472.58	8517.21
472.77	8723.18
472.95	8868.29
473.13	9102.34
473.31	8819.14
473.49	8884.67
473.67	8882.33
473.85	8823.82
474.03	9212.35
474.21	9151.49
474.39	9125.75
474.57	9142.13
474.75	9062.55
474.93	9504.92
475.12	9312.99
475.30	9551.73
475.48	9355.12
475.66	9678.12
475.84	9504.92
476.02	9654.71
476.20	9645.35
476.38	9830.25
476.56	9863.02
476.74	9825.57
476.92	10029.20
477.10	9877.06
477.28	9998.77
477.46	9874.72
477.64	10207.08
477.82	10284.31
478.00	10413.04
478.18	10473.90
478.36	10672.84
478.54	10483.26
478.72	10675.18
478.90	10719.65
479.08	11037.97
479.26	11157.33
479.44	11101.16
479.62	11152.65
479.80	11185.42
479.98	11506.07
480.16	11428.84
480.34	11279.04
480.52	11573.95
480.70	11578.63
480.88	11407.77
481.06	11426.50
481.24	11782.26
481.41	11962.48
481.59	12114.61
481.77	12042.06
481.95	11971.84
482.13	12271.43
482.31	12348.67
482.49	12585.06
482.67	12500.80
482.85	12531.23
483.03	12872.95
483.21	12823.80
483.39	12819.11
483.57	12931.46
483.74	13151.47
483.92	13092.96
484.10	12992.31
484.28	13577.45
484.46	13708.52
484.64	13846.61
484.82	13666.39
485.00	13792.78
485.18	13965.98
485.35	14153.22
485.53	14120.45
485.71	14246.84
485.89	14427.06
486.07	14258.54
486.25	14523.02
486.43	14630.69
486.61	14586.22
486.78	14780.48
486.96	14864.74
487.14	15154.97
487.32	15468.60
487.50	15346.89
487.68	15183.06
487.85	15587.97
488.03	15690.95
488.21	15791.59
488.39	16098.20
488.57	15833.72
488.75	16020.97
488.92	16301.83
489.10	16180.12
489.28	16271.40
489.46	16723.13
489.64	16711.42
489.81	16978.25
489.99	16973.56
490.17	16968.88
490.35	17247.41
490.53	17231.02
490.70	17371.46
490.88	17514.23
491.06	17607.85
491.24	17893.40
491.41	18054.89
491.59	17944.89
491.77	18244.48
491.95	18106.38
492.13	18431.72
492.30	18445.76
492.48	18721.95
492.66	18548.75
492.84	18703.22
493.01	19117.50
493.19	18778.12
493.37	19124.52
493.54	19178.35
493.72	19426.45
493.90	19367.93
494.08	19599.65
494.25	19517.73
494.43	19618.37
494.61	19955.41
494.79	20217.55
494.96	19838.38
495.14	20088.82
495.32	20250.32
495.49	20407.13
495.67	20336.91
495.85	20800.34
496.02	20936.09
496.20	20709.06
496.38	20989.92
496.55	20884.60
496.73	21476.76
496.91	21191.21
497.09	21284.83
497.26	21671.02
497.44	21542.29
497.62	21678.04
497.79	22024.44
497.97	21846.56
498.14	22279.56
498.32	22019.76
498.50	22373.18
498.67	22546.38
498.85	22164.87
499.03	22359.14
499.20	22621.28
499.38	22438.72
499.56	22824.90
499.73	22534.68
499.91	23501.32
500.08	23358.55
500.26	22864.69
500.44	23105.77
500.61	23213.43
500.79	23208.75
500.97	23660.48
501.14	23695.58
501.32	23747.08
501.49	23552.81
501.67	24067.73
501.84	23955.38
502.02	23917.93
502.20	24147.31
502.37	24060.71
502.55	24168.37
502.72	24460.94
502.90	24456.26
503.07	24350.93
503.25	24493.71
503.43	24224.54
503.60	24486.68
503.78	24606.05
503.95	24877.55
504.13	25111.61
504.30	25081.18
504.48	25198.21
504.65	25090.54
504.83	25235.66
505.01	25539.93
505.18	25256.72
505.36	25792.70
505.53	25266.08
505.71	25642.91
505.88	25453.33
506.06	25729.51
506.23	26031.44
506.41	25972.92
506.58	25898.03
506.76	26169.53
506.93	26450.39
507.11	26214.00
507.28	26202.30
507.46	26270.17
507.63	26532.31
507.81	26682.11
507.98	26663.38
508.16	26810.84
508.33	26813.18
508.50	26934.88
508.68	26906.80
508.85	27068.30
509.03	27166.60
509.20	27225.11
509.38	27543.42
509.55	27276.60
509.73	27709.60
509.90	27728.33
510.08	27749.39
510.25	27761.09
510.42	27964.72
510.60	27466.19
510.77	28018.55
510.95	28472.62
511.12	27721.30
511.30	28299.42
511.47	28250.27
511.64	28210.48
511.82	28641.14
511.99	28395.38
512.17	28704.33
512.34	28566.24
512.51	28992.22
512.69	29312.87
512.86	28987.53
513.04	29053.07
513.21	29062.43
513.38	29137.33
513.56	29317.55
513.73	28877.53
513.90	29357.34
514.08	29102.22
514.25	29268.40
514.43	29600.76
514.60	29741.19
514.77	29855.87
514.95	29956.52
515.12	29736.51
515.29	29902.68
515.47	29820.77
515.64	30092.27
515.81	29703.74
515.99	30485.48
516.16	30359.09
516.33	30684.42
516.51	30244.40
516.68	30684.42
516.85	30569.74
517.03	30691.44
517.20	30897.41
517.37	30850.60
517.54	30431.65
517.72	30876.35
517.89	31000.40
518.06	31072.95
518.24	31257.85
518.41	30937.20
518.58	30616.55
518.75	31241.47
518.93	31304.67
519.10	31084.65
519.27	31421.69
519.45	31395.95
519.62	31297.64
519.79	31718.94
519.96	31519.99
520.14	31732.98
520.31	31768.09
520.48	32070.02
520.65	32046.62
520.83	32109.81
521.00	32407.06
521.17	31875.76
521.34	32254.92
521.52	32369.61
521.69	32189.39
521.86	32201.09
522.03	32587.28
522.20	32711.33
522.38	33001.55
522.55	33111.56
522.72	32594.30
522.89	33170.07
523.07	33209.86
523.24	32903.25
523.41	33036.66
523.58	32765.16
523.75	33247.31
523.92	33240.29
524.10	33457.96
524.27	33270.72
524.44	33656.90
524.61	33567.96
524.78	33670.95
524.96	33579.67
525.13	34029.05
525.30	33823.08
525.47	34356.72
525.64	33689.67
525.81	33656.90
525.98	34370.77
526.16	33977.56
526.33	34015.01
526.50	34298.21
526.67	34281.83
526.84	34345.02
527.01	34518.22
527.18	34375.45
527.36	34256.08
527.53	34574.39
527.70	34642.27
527.87	34892.71
528.04	34967.60
528.21	34377.79
528.38	34792.06
528.55	35147.82
528.72	35033.14
528.89	35019.10
529.07	34855.26
529.24	34883.34
529.41	35093.99
529.58	35278.89
529.75	34827.17
529.92	35178.25
530.09	35379.54
530.26	35171.23
530.43	35475.50
530.60	34794.40
530.77	35161.87
530.94	35796.15
531.11	35234.42
531.28	35615.93
531.46	35938.93
531.63	35814.88
531.80	35770.41
531.97	35601.89
532.14	35683.81
532.31	35871.05
532.48	36126.17
532.65	36378.95
532.82	36172.98
532.99	36416.40
533.16	35924.88
533.33	36346.18
533.50	36414.05
533.67	36449.16
533.84	36137.87
534.01	36627.04
534.18	36767.48
534.35	36935.99
534.52	37214.52
534.69	36992.17
534.86	36739.39
535.03	37046.00
535.20	36786.20
535.37	37205.16
535.54	37406.44
535.71	36603.64
535.88	37385.38
536.05	37270.69
536.22	37401.76
536.38	37504.74
536.55	37317.50
536.72	37411.12
536.89	37502.40
537.06	37359.63
537.23	37516.45
537.40	37141.96
537.57	37282.39
537.74	37773.91
537.91	37528.15
538.08	37888.59
538.25	37345.59
538.42	37982.21
538.59	38192.86
538.75	38050.09
538.92	37949.45
539.09	37907.32
539.26	38064.13
539.43	37801.99
539.60	38150.73
539.77	38258.40
539.94	38583.73
540.11	38295.85
540.28	38148.39
540.44	38403.51
540.61	38452.66
540.78	38506.49
540.95	38445.64
541.12	38450.32
541.29	38169.46
541.46	38529.90
541.62	38546.28
541.79	38714.80
541.96	38162.43
542.13	38543.94
542.30	38862.26
542.47	39096.31
542.63	38773.31
542.80	38871.62
542.97	39140.78
543.14	39192.27
543.31	39466.11
543.48	38962.90
543.64	39541.01
543.81	39232.06
543.98	39042.48
544.15	39328.02
544.32	39512.92
544.48	39828.90
544.65	39976.35
544.82	39885.07
544.99	39592.50
545.16	39536.33
545.32	39253.12
545.49	40020.82
545.66	40425.73
545.83	39976.35
546.00	40418.71
546.16	39990.39
546.33	39908.47
546.50	39828.90
546.67	40484.25
546.83	39817.19
547.00	39971.67
547.17	39819.53
547.34	40289.98
547.50	40556.80
547.67	40580.21
547.84	40301.68
548.00	40610.64
548.17	41008.53
548.34	40456.16
548.51	40648.08
548.67	40453.82
548.84	40779.15
549.01	40713.62
549.18	40624.68
549.34	40790.86
549.51	40781.49
549.68	40917.25
549.84	40779.15
550.01	40971.08
550.18	40919.59
550.34	40715.96
550.51	41244.92
550.68	41146.62
550.84	40952.35
551.01	41448.55
551.18	41104.49
551.34	41003.85
551.51	40940.65
551.68	41305.77
551.84	41237.90
552.01	40907.88
552.18	41174.70
552.34	41153.64
552.51	41523.44
552.68	41141.94
552.84	41195.77
553.01	41577.28
553.18	41631.11
553.34	41897.93
553.51	41581.96
553.67	41853.46
553.84	41928.36
554.01	41455.57
554.17	41495.36
554.34	42134.32
554.51	41963.46
554.67	41944.74
554.84	42220.92
555.00	42190.50
555.17	41537.49
555.33	41911.97
555.50	41762.18
555.67	42153.05
555.83	42066.45
556.00	41865.16
556.16	42501.79
556.33	42146.03
556.50	41907.29
556.66	42286.46
556.83	42349.65
556.99	42789.67
557.16	42471.36
557.32	42557.96
557.49	42579.03
557.65	42239.65
557.82	42433.91
557.98	42363.70
558.15	42312.20
558.32	42497.11
558.48	42377.74
558.65	42672.65
558.81	43250.76
558.98	42356.67
559.14	42689.03
559.31	42656.26
559.47	42686.69
559.64	42459.66
559.80	42728.82
559.97	42714.78
560.13	42351.99
560.30	42803.72
560.46	43335.02
560.63	43115.01
560.79	43421.62
560.96	43115.01
561.12	43257.78
561.29	43035.43
561.45	43276.51
561.61	43049.47
561.78	43112.67
561.94	42927.77
562.11	42822.44
562.27	43058.84
562.44	43136.07
562.60	43320.98
562.77	43236.72
562.93	43133.73
563.10	43407.58
563.26	42403.49
563.42	43620.56
563.59	43246.08
563.75	43332.68
563.92	43096.28
564.08	42916.06
564.24	43299.91
564.41	42838.83
564.57	43466.09
564.74	43573.75
564.90	43468.43
565.07	43182.88
565.23	43002.66
565.39	43201.61
565.56	43414.60
565.72	43253.10
565.88	43367.79
566.05	43580.78
566.21	43288.21
566.38	43566.73
566.54	43608.86
566.70	44006.75
566.87	43679.08
567.03	43594.82
567.19	43576.09
567.36	43648.65
567.52	43262.46
567.68	43840.57
567.85	43817.17
568.01	43880.36
568.17	43943.56
568.34	44055.90
568.50	43779.72
568.66	43491.83
568.83	43744.61
568.99	43810.15
569.15	43639.29
569.32	43686.10
569.48	43674.40
569.64	44074.63
569.81	43913.13
569.97	44037.18
570.13	44130.80
570.30	43569.07
570.46	43817.17
570.62	43981.01
570.78	43763.34
570.95	44156.55
571.11	44018.46
571.27	43896.75
571.43	43557.37
571.60	43910.79
571.76	43915.47
571.92	43653.33
572.09	43496.52
572.25	43896.75
572.41	44053.56
572.57	43824.19
572.74	44498.26
572.90	44201.02
573.06	43973.98
573.22	44573.16
573.38	44535.71
573.55	43875.68
573.71	44587.21
573.87	44350.81
574.03	44161.23
574.20	44233.78
574.36	44165.91
574.52	44378.90
574.68	44282.94
574.84	44568.48
575.01	44744.02
575.17	44573.16
575.33	44013.77
575.49	44451.45
575.65	43955.26
575.82	44226.76
575.98	44318.04
576.14	44575.50
576.30	44509.97
576.46	44060.58
576.62	44273.57
576.79	44442.09
576.95	43882.70
577.11	44177.61
577.27	44638.70
577.43	44502.95
577.59	44397.62
577.75	44238.47
577.92	43906.11
578.08	44018.46
578.24	44339.11
578.40	44488.90
578.56	44486.56
578.72	44767.43
578.88	44577.84
579.04	44739.34
579.21	44378.90
579.37	44659.76
579.53	44442.09
579.69	44444.43
579.85	44168.25
580.01	44732.32
580.17	44062.93
580.33	44402.30
580.49	44378.90
580.65	44832.96
580.82	44493.58
580.98	44074.63
581.14	44617.63
581.30	44708.91
581.46	44238.47
581.62	44280.60
581.78	44238.47
581.94	44973.39
582.10	44259.53
582.26	44266.55
582.42	44713.59
582.58	44416.35
582.74	45013.18
582.90	44549.76
583.06	44732.32
583.22	44123.78
583.38	44814.24
583.54	44762.75
583.70	44404.64
583.86	44783.81
584.02	44636.36
584.18	44912.54
584.34	44854.03
584.50	45069.36
584.66	45067.02
584.82	44741.68
584.98	45017.86
585.14	44601.25
585.30	44809.56
585.46	44725.30
585.62	44289.96
585.78	45020.20
585.94	44577.84
586.10	44498.26
586.26	44456.14
586.42	44421.03
586.58	44538.05
586.74	44739.34
586.90	44428.05
587.06	44189.31
587.22	44870.41
587.38	44421.03
587.54	45057.65
587.70	44945.31
587.86	44781.47
588.02	44201.02
588.18	44678.49
588.34	44807.22
588.49	44542.74
588.65	44779.13
588.81	44842.32
588.97	44959.35
589.13	44519.33
589.29	44451.45
589.45	44931.26
589.61	44945.31
589.77	44861.05
589.93	44945.31
590.08	45226.17
590.24	45490.65
590.40	45633.42
590.56	45184.04
590.72	44966.37
590.88	44818.92
591.04	45373.63
591.20	44978.07
591.35	45125.53
591.51	45516.40
591.67	45312.77
591.83	44748.70
591.99	44875.09
592.15	45111.49
592.31	44905.52
592.46	44741.68
592.62	45029.57
592.78	45247.24
592.94	45471.93
593.10	44966.37
593.26	45813.65
593.41	45434.48
593.57	45385.33
593.73	45226.17
593.89	45453.20
594.05	45504.70
594.20	45539.80
594.36	45813.65
594.52	45846.41
594.68	45172.34
594.84	44996.80
594.99	45420.44
595.15	45308.09
595.31	45591.30
595.47	45595.98
595.62	45572.57
595.78	44942.97
595.94	45640.45
596.10	44893.82
596.25	45591.30
596.41	45413.41
596.57	45104.46
596.73	45404.05
596.88	45563.21
597.04	45336.18
597.20	45310.43
597.36	45214.47
597.51	45443.84
597.67	45151.27
597.83	45368.94
597.99	45160.64
598.14	45621.72
598.30	45780.88
598.46	45359.58
598.61	45869.82
598.77	45289.37
598.93	45720.02
599.09	45474.27
599.24	45783.22
599.40	45368.94
599.56	45902.59
599.71	45942.38
599.87	45476.61
600.03	45542.14
600.18	45483.63
600.34	45647.47
600.50	45521.08
600.65	45617.04
600.81	45965.78
600.97	45687.26
601.12	45354.90
601.28	45593.64
601.44	45319.79
601.59	45343.20
601.75	45340.86
601.91	45750.45
602.06	45443.84
602.22	46033.66
602.37	45460.23
602.53	45818.33
602.69	45656.83
602.84	45443.84
603.00	45968.12
603.16	45434.48
603.31	45464.91
603.47	45411.07
603.62	45680.24
603.78	45869.82
603.94	45514.06
604.09	45490.65
604.25	45296.39
604.40	45577.25
604.56	45394.69
604.71	45457.88
604.87	45347.88
605.03	45230.85
605.18	45411.07
605.34	45694.28
605.49	44896.16
605.65	45432.14
605.80	45226.17
605.96	45076.38
606.12	45216.81
606.27	45595.98
606.43	44982.76
606.58	45549.17
606.74	45717.68
606.89	45544.48
607.05	45551.51
607.20	45408.73
607.36	45106.80
607.51	45736.41
607.67	45125.53
607.82	45427.46
607.98	45560.87
608.13	45504.70
608.29	45333.84
608.44	45502.35
608.60	45399.37
608.75	45581.93
608.91	45263.62
609.06	45127.87
609.22	45350.22
609.37	45188.72
609.53	45207.45
609.68	45352.56
609.84	45125.53
609.99	45277.66
610.15	45272.98
610.30	45336.18
610.46	44985.10
610.61	45305.75
610.76	45565.55
610.92	44910.20
611.07	45296.39
611.23	44954.67
611.38	44907.86
611.54	45420.44
611.69	45291.71
611.84	45256.60
612.00	45151.27
612.15	45298.73
612.31	45027.23
612.46	44949.99
612.62	45343.20
612.77	44938.29
612.92	45282.34
613.08	44898.50
613.23	45200.43
613.39	45167.66
613.54	45144.25
613.69	45235.53
613.85	44858.71
614.00	44814.24
614.15	45305.75
614.31	44711.25
614.46	45010.84
614.62	44659.76
614.77	44596.57
614.92	44823.60
615.08	44975.73
615.23	44519.33
615.38	44971.05
615.54	44968.71
615.69	44715.93
615.84	44729.98
616.00	45146.59
616.15	44664.44
616.30	44849.35
616.46	44631.68
616.61	44442.09
616.76	44985.10
616.92	44701.89
617.07	44739.34
617.22	44687.85
617.37	44076.97
617.53	44357.83
617.68	44790.83
617.83	44385.92
617.99	45118.51
618.14	44788.49
618.29	44329.75
618.45	44095.69
618.60	44259.53
618.75	43674.40
618.90	44566.14
619.06	44296.98
619.21	44285.28
619.36	44905.52
619.51	44336.77
619.67	43903.77
619.82	44086.33
619.97	44479.54
620.12	43952.92
620.28	44030.16
620.43	44439.75
620.58	44439.75
620.73	44009.09
620.89	44236.12
621.04	43966.96
621.19	44177.61
621.34	44184.63
621.49	44020.80
621.65	43924.83
621.80	44346.13
621.95	43643.97
622.10	43917.81
622.25	43990.37
622.41	44083.99
622.56	43885.04
622.71	43887.39
622.86	43526.94
623.01	44102.71
623.16	44172.93
623.32	43800.79
623.47	44390.60
623.62	43995.05
623.77	44144.84
623.92	43915.47
624.07	43995.05
624.23	43840.57
624.38	43882.70
624.53	43576.09
624.68	43328.00
624.83	43482.47
624.98	43885.04
625.13	43356.08
625.29	43353.74
625.44	43117.35
625.59	43187.56
625.74	43660.35
625.89	43206.29
626.04	43552.69
626.19	43562.05
626.34	43147.78
626.49	42967.55
626.65	43257.78
626.80	42967.55
626.95	42670.31
627.10	43210.97
627.25	43236.72
627.40	43545.67
627.55	42855.21
627.70	43295.23
627.85	43171.18
628.00	43201.61
628.15	43061.18
628.30	42419.87
628.45	42787.33
628.60	42464.34
628.76	42806.06
628.91	42658.60
629.06	42522.85
629.21	42827.12
629.36	42384.76
629.51	43206.29
629.66	43021.39
629.81	42787.33
629.96	42562.64
630.11	42450.30
630.26	42401.14
630.41	42782.65
630.56	42068.79
630.71	42696.05
630.86	42625.84
631.01	42071.13
631.16	42387.10
631.31	42258.37
631.46	42234.97
631.61	43023.73
631.76	42419.87
631.91	42249.01
632.06	43189.91
632.21	42939.47
632.36	43110.33
632.51	41858.14
632.66	42656.26
632.81	41890.91
632.96	42183.48
633.10	42085.17
633.25	41916.65
633.40	42204.54
633.55	42253.69
633.70	42204.54
633.85	42375.40
634.00	42003.25
634.15	42293.48
634.30	41581.96
634.45	41968.15
634.60	41902.61
634.75	42316.89
634.90	42101.56
635.05	42003.25
635.19	41656.85
635.34	42185.82
635.49	41710.69
635.64	42253.69
635.79	41790.27
635.94	41947.08
636.09	42160.07
636.24	41881.55
636.39	42157.73
636.53	41855.80
636.68	41694.30
636.83	41553.87
636.98	41172.36
637.13	41605.36
637.28	41198.11
637.43	41406.42
637.57	42113.26
637.72	41462.59
637.87	41469.61
638.02	41764.52
638.17	41418.12
638.32	40947.67
638.46	40900.86
638.61	41291.73
638.76	41132.57
638.91	41242.58
639.06	41003.85
639.20	41076.40
639.35	40814.26
639.50	40903.20
639.65	41394.71
639.80	41289.39
639.94	41565.57
640.09	41153.64
640.24	41298.75
640.39	40425.73
640.54	40046.57
640.68	41085.76
640.83	41303.43
640.98	40989.80
641.13	41050.66
641.27	41134.92
641.42	41324.50
641.57	40795.54
641.72	40708.94
641.86	40184.66
642.01	40278.28
642.16	40652.76
642.31	40172.96
642.45	40582.55
642.60	40224.45
642.75	40921.93
642.90	40648.08
643.04	40802.56
643.19	40708.94
643.34	40332.11
643.48	40367.22
643.63	40294.66
643.78	40397.65
643.93	40624.68
644.07	40622.34
644.22	40598.93
644.37	40086.36
644.51	40898.52
644.66	40348.50
644.81	40528.72
644.95	40320.41
645.10	39978.69
645.25	40247.85
645.39	40205.72
645.54	40339.13
645.69	40011.46
645.83	39901.45
645.98	39665.06
646.13	39833.58
646.27	40336.79
646.42	39718.89
646.57	39765.70
646.71	40318.07
646.86	40020.82
647.00	40189.34
647.15	40465.52
647.30	40088.70
647.44	39660.38
647.59	39807.83
647.74	40203.38
647.88	39798.47
648.03	40163.59
648.17	40184.66
648.32	39754.00
648.47	39768.04
648.61	39974.01
648.76	39812.51
648.90	39828.90
649.05	39484.84
649.20	39515.26
649.34	39564.42
649.49	39409.94
649.63	39842.94
649.78	40133.17
649.92	39597.18
650.07	39730.59
650.21	39966.99
650.36	39948.26
650.51	39735.27
650.65	39800.81
650.80	39679.10
650.94	39833.58
651.09	39739.96
651.23	38925.45
651.38	39538.67
651.52	38958.22
651.67	39189.93
651.81	38913.75
651.96	39164.18
652.10	39016.73
652.25	38986.30
652.39	38913.75
652.54	39278.87
652.68	38941.83
652.83	38309.89
652.97	39290.57
653.12	38890.34
653.26	38866.94
653.41	38773.31
653.55	39187.59
653.70	39187.59
653.84	39079.92
653.99	39014.39
654.13	39175.89
654.27	38714.80
654.42	38452.66
654.56	39100.99
654.71	38955.88
654.85	38909.07
655.00	38806.08
655.14	38623.52
655.29	39342.06
655.43	38941.83
655.57	38466.70
655.72	38019.66
655.86	38141.37
656.01	38581.39
656.15	38347.34
656.30	38242.01
656.44	38328.61
656.58	38649.27
656.73	38202.22
656.87	38134.35
657.01	37790.29
657.16	38253.72
657.30	38539.26
657.45	38190.52
657.59	37961.15
657.73	38227.97
657.88	38291.16
658.02	38284.14
658.16	38885.66
658.31	38499.47
658.45	38029.02
658.60	37872.21
658.74	37984.55
658.88	38010.30
659.03	37827.74
659.17	37696.67
659.31	37783.27
659.46	37743.48
659.60	37787.95
659.74	37567.94
659.89	37544.53
660.03	37067.06
660.17	37504.74
660.32	37553.90
660.46	37368.99
660.60	36966.42
660.74	37312.82
660.89	37280.05
661.03	36971.10
661.17	36767.48
661.32	36919.61
661.46	37336.23
661.60	37333.89
661.74	36989.83
661.89	36912.59
662.03	36797.90
662.17	37174.73
662.31	37097.49
662.46	36957.06
662.60	36807.26
662.74	36254.90
662.88	36479.59
663.03	36741.73
663.17	35988.08
663.31	36299.37
663.45	36240.86
663.60	36451.50
663.74	36760.45
663.88	36112.13
664.02	36196.38
664.17	36533.42
664.31	35758.70
664.45	35861.69
664.59	36123.83
664.73	35889.77
664.88	36446.82
665.02	35824.24
665.16	35793.81
665.30	35508.27
665.44	36091.06
665.59	35606.57
665.73	35421.67
665.87	35157.19
666.01	35611.25
666.15	35620.61
666.29	35461.46
666.44	35962.33
666.58	35065.91
666.72	35487.20
666.86	35150.17
667.00	34866.96
667.14	34953.56
667.28	35086.97
667.43	35232.08
667.57	35370.18
667.71	34754.61
667.85	35077.61
667.99	34824.83
668.13	34888.03
668.27	34534.60
668.41	34583.76
668.56	34501.84
668.70	34314.59
668.84	34377.79
668.98	34225.65
669.12	34260.76
669.26	34272.46
669.40	34347.36
669.54	34253.74
669.68	34096.92
669.82	33862.87
669.96	33867.55
670.10	33806.70
670.25	33741.16
670.39	33949.47
670.53	34012.66
670.67	33708.40
670.81	33881.60
670.95	33715.42
671.09	33296.46
671.23	33369.02
671.37	33521.15
671.51	33373.70
671.65	33223.90
671.79	33390.08
671.93	33736.48
672.07	33631.16
672.21	32692.60
672.35	32713.67
672.49	32989.85
672.63	32868.14
672.77	32760.48
672.91	33106.88
673.05	32493.66
673.19	32362.59
673.33	32496.00
673.47	32584.94
673.61	32271.31
673.75	32472.59
673.89	32074.70
674.03	31948.31
674.17	31496.59
674.31	32009.17
674.45	31597.23
674.59	32154.28
674.73	31707.24
674.87	31641.70
675.01	31388.92
675.15	31110.40
675.29	31344.45
675.43	31164.23
675.56	31648.72
675.70	30953.58
675.84	31337.43
675.98	30307.60
676.12	30845.92
676.26	31082.31
676.40	30422.28
676.54	30494.84
676.68	30721.87
676.82	30181.21
676.96	30705.49
677.10	30326.32
677.23	30160.14
677.37	30195.25
677.51	30068.86
677.65	29916.73
677.79	29631.18
677.93	30148.44
678.07	29972.90
678.21	29521.18
678.34	29441.60
678.48	29039.03
678.62	29308.19
678.76	29460.32
678.90	28933.70
679.04	29422.87
679.18	29184.14
679.31	28819.02
679.45	28489.00
679.59	28114.52
679.73	28126.22
679.87	28465.60
680.00	28465.60
680.14	28357.93
680.28	28517.09
680.42	28283.03
680.56	27875.78
680.70	27651.09
680.83	27906.21
680.97	27910.89
681.11	27824.29
681.25	27552.79
681.39	27021.48
681.52	27480.23
681.66	27094.04
681.80	26513.59
681.94	26717.22
682.07	26843.60
682.21	26993.40
682.35	26630.62
682.49	26651.68
682.62	26902.12
682.76	26909.14
682.90	26742.96
683.04	26654.02
683.17	26403.58
683.31	26115.70
683.45	25804.41
683.59	25340.98
683.72	25476.73
683.86	25926.11
684.00	25640.57
684.13	25818.45
684.27	25614.82
684.41	25544.61
684.55	25455.67
684.68	25378.43
684.82	25167.78
684.96	25240.34
685.09	25081.18
685.23	25055.43
685.37	25132.67
685.50	25067.14
685.64	24657.54
685.78	24929.05
685.91	24570.94
686.05	24421.15
686.19	23885.17
686.32	24086.45
686.46	23599.62
686.60	23854.74
686.73	24098.16
686.87	23676.86
687.01	23697.92
687.14	23768.14
687.28	23882.83
687.42	23424.08
687.55	23363.23
687.69	23419.40
687.82	23323.44
687.96	23468.55
688.10	23246.20
688.23	23225.14
688.37	23358.55
688.50	23108.11
688.64	22920.87
688.78	22904.48
688.91	22623.62
689.05	22588.51
689.18	22518.29
689.32	22197.64
689.46	22068.91
689.59	22403.61
689.73	22347.44
689.86	22195.30
690.00	22253.81
690.13	22005.72
690.27	21521.23
690.41	21703.79
690.54	21523.57
690.68	21530.59
690.81	21614.85
690.95	20912.69
691.08	21322.28
691.22	20954.82
691.35	20863.54
691.49	21128.02
691.62	20650.55
691.76	20730.12
691.89	20390.75
692.03	20238.61
692.16	20514.80
692.30	20479.69
692.43	20325.21
692.57	19882.85
692.70	20027.96
692.84	20091.16
692.97	19852.42
693.11	20051.37
693.24	19807.95
693.38	19445.17
693.51	19484.96
693.65	19410.06
693.78	19227.50
693.92	19384.32
694.05	19084.73
694.19	19264.95
694.32	18998.13
694.45	19473.26
694.59	19304.74
694.72	19098.77
694.86	19002.81
694.99	18745.35
695.13	18630.66
695.26	18382.57
695.39	18443.42
695.53	18537.04
695.66	18555.77
695.80	18436.40
695.93	18321.71
696.07	17996.38
696.20	18106.38
696.33	17984.68
696.47	17853.61
696.60	17549.34
696.73	17914.46
696.87	17734.24
697.00	17612.53
697.14	17511.89
697.27	17364.43
697.40	17291.88
697.54	17083.57
697.67	17181.87
697.80	16926.75
697.94	17165.49
698.07	16669.30
698.21	17013.35
698.34	16908.03
698.47	16690.36
698.61	16257.36
698.74	16257.36
698.87	16140.33
699.01	16348.64
699.14	16503.12
699.27	16226.93
699.40	16224.59
699.54	16051.39
699.67	16013.95
699.80	16058.42
699.94	15571.58
700.07	15845.43
700.20	15524.77
700.34	15789.25
700.47	15438.17
700.60	15927.35
700.73	15620.74
700.87	15393.70
701.00	14960.70
701.13	15101.14
701.26	14911.55
701.40	15049.64
701.53	14726.65
701.66	15037.94
701.79	14899.85
701.93	14588.56
702.06	14384.93
702.19	14668.14
702.32	14487.92
702.46	14827.29
702.59	14572.18
702.72	14640.05
702.85	14438.76
702.99	14209.39
703.12	14139.18
703.25	13839.59
703.38	14223.44
703.51	13834.91
703.65	13703.84
703.78	13455.74
703.91	13530.64
704.04	13699.16
704.17	13104.66
704.31	13685.11
704.44	13467.44
704.57	13317.65
704.70	13308.29
704.83	13078.91
704.96	13177.22
705.10	13062.53
705.23	13191.26
>>>>>End Processed Spectral Data<<<<<
