SpectraSuite Data File
++++++++++++++++++++++++++++++++++++
Date: Fri Oct 25 10:44:05 EDT 2013
User: price-jones
Dark Spectrum Present: No
Reference Spectrum Present: No
Number of Sampled Component Spectra: 1
Spectrometers: USB2+H05261
Integration Time (usec): 100000 (USB2+H05261)
Spectra Averaged: 1 (USB2+H05261)
Boxcar Smoothing: 0 (USB2+H05261)
Correct for Electrical Dark: No (USB2+H05261)
Strobe/Lamp Enabled: No (USB2+H05261)
Correct for Detector Non-linearity: No (USB2+H05261)
Correct for Stray Light: No (USB2+H05261)
Number of Pixels in Processed Spectrum: 2048
>>>>>Begin Processed Spectral Data<<<<<
365.73	140.43
365.92	140.43
366.12	140.43
366.32	65.54
366.52	0.00
366.72	93.62
366.91	51.49
367.11	0.00
367.31	16.38
367.51	32.77
367.70	0.00
367.90	0.00
368.10	0.00
368.30	86.60
368.49	9.36
368.69	11.70
368.89	46.81
369.09	42.13
369.28	65.54
369.48	60.85
369.68	39.79
369.87	67.88
370.07	77.24
370.27	124.05
370.47	191.92
370.66	400.23
370.86	416.62
371.06	533.64
371.25	545.34
371.45	498.53
371.65	421.30
371.84	440.02
372.04	484.49
372.24	489.17
372.44	416.62
372.63	552.37
372.83	512.58
373.03	505.56
373.22	538.32
373.42	472.79
373.62	601.52
373.81	564.07
374.01	543.00
374.21	631.94
374.40	543.00
374.60	622.58
374.79	559.39
374.99	592.16
375.19	627.26
375.38	566.41
375.58	547.69
375.78	622.58
375.97	660.03
376.17	643.65
376.37	505.56
376.56	538.32
376.76	566.41
376.95	524.28
377.15	624.92
377.35	613.22
377.54	718.54
377.74	603.86
377.93	613.22
378.13	692.80
378.33	678.76
378.52	606.20
378.72	674.07
378.91	685.78
379.11	620.24
379.31	683.44
379.50	704.50
379.70	655.35
379.89	758.33
380.09	674.07
380.28	709.18
380.48	669.39
380.68	667.05
380.87	725.57
381.07	685.78
381.26	678.76
381.46	716.20
381.65	704.50
381.85	671.73
382.04	688.12
382.24	774.72
382.43	704.50
382.63	706.84
382.83	709.18
383.02	774.72
383.22	751.31
383.41	772.38
383.61	753.65
383.80	697.48
384.00	737.27
384.19	784.08
384.39	922.17
384.58	819.19
384.78	830.89
384.97	767.70
385.17	781.74
385.36	814.51
385.56	866.00
385.75	917.49
385.95	840.25
386.14	891.74
386.34	877.70
386.53	840.25
386.72	861.32
386.92	901.11
387.11	849.61
387.31	821.53
387.50	896.43
387.70	880.04
387.89	833.23
388.09	915.15
388.28	844.93
388.48	842.59
388.67	931.53
388.86	877.70
389.06	903.45
389.25	894.08
389.45	1006.43
389.64	964.30
389.84	1025.15
390.03	1100.05
390.22	1067.28
390.42	1076.65
390.61	1011.11
390.81	1078.99
391.00	1048.56
391.19	1137.50
391.39	1132.82
391.58	1123.46
391.78	938.55
391.97	1142.18
392.16	1081.33
392.36	1088.35
392.55	1095.37
392.75	1020.47
392.94	1071.97
393.13	1020.47
393.33	1102.39
393.52	1043.88
393.71	1121.12
393.91	1104.73
394.10	1146.86
394.29	1128.14
394.49	1142.18
394.68	1240.48
394.88	1242.82
395.07	1245.16
395.26	1299.00
395.46	1200.69
395.65	1198.35
395.84	1268.57
396.04	1224.10
396.23	1111.75
396.42	1156.22
396.62	1179.63
396.81	1261.55
397.00	1282.61
397.19	1240.48
397.39	1287.29
397.58	1420.71
397.77	1430.07
397.97	1530.71
398.16	1495.60
398.35	1432.41
398.55	1441.77
398.74	1535.39
398.93	1657.10
399.12	1500.28
399.32	1483.90
399.51	1526.03
399.70	1607.95
399.90	1547.09
400.09	1741.36
400.28	1724.97
400.47	1605.61
400.67	1746.04
400.86	1589.22
401.05	1722.63
401.24	1717.95
401.44	1708.59
401.63	1827.96
401.82	1834.98
402.01	1699.23
402.21	1802.21
402.40	1846.68
402.59	1762.42
402.78	1771.79
402.97	1743.70
403.17	1891.15
403.36	1757.74
403.55	1984.77
403.74	1806.89
403.93	1898.17
404.13	1830.30
404.32	1902.86
404.51	1975.41
404.70	1989.46
404.89	1902.86
405.09	2036.27
405.28	1998.82
405.47	1905.20
405.66	2120.53
405.85	2118.18
406.05	1942.64
406.24	2057.33
406.43	2071.37
406.62	2080.74
406.81	2155.63
407.00	2087.76
407.20	1959.03
407.39	2139.25
407.58	2216.49
407.77	2239.89
407.96	2317.13
408.15	2349.90
408.34	2399.05
408.54	2417.77
408.73	2228.19
408.92	2368.62
409.11	2342.88
409.30	2410.75
409.49	2352.24
409.68	2370.96
409.87	2258.62
410.07	2516.08
410.26	2483.31
410.45	2359.26
410.64	2487.99
410.83	2586.29
411.02	2588.63
411.21	2602.68
411.40	2499.69
411.59	2693.96
411.78	2628.42
411.98	2635.44
412.17	2794.60
412.36	2663.53
412.55	2733.75
412.74	2848.43
412.93	2724.38
413.12	2724.38
413.31	2902.26
413.50	2815.66
413.69	2820.35
413.88	2981.84
414.07	2981.84
414.26	2963.12
414.45	2981.84
414.64	2920.99
414.83	3075.46
415.02	3145.68
415.22	3199.51
415.41	3171.43
415.60	3148.02
415.79	3339.94
415.98	3286.11
416.17	3269.73
416.36	3236.96
416.55	3309.52
416.74	3309.52
416.93	3318.88
417.12	3405.48
417.31	3389.10
417.50	3410.16
417.69	3548.25
417.88	3543.57
418.07	3461.65
418.26	3557.61
418.45	3651.24
418.64	3662.94
418.83	3730.81
419.02	3616.13
419.21	3637.19
419.39	3604.42
419.58	3562.30
419.77	3620.81
419.96	3789.33
420.15	3698.05
420.34	3695.71
420.53	3698.05
420.72	3899.33
420.91	3889.97
421.10	3873.59
421.29	3808.05
421.48	3899.33
421.67	3826.78
421.86	3819.75
422.05	3913.38
422.24	3740.18
422.43	3913.38
422.61	4007.00
422.80	4079.55
422.99	3943.80
423.18	3911.04
423.37	4170.83
423.56	4037.42
423.75	3953.16
423.94	3836.14
424.13	3639.53
424.32	3840.82
424.50	3918.06
424.69	4152.11
424.88	4133.39
425.07	4088.92
425.26	3911.04
425.45	4035.08
425.64	4084.23
425.83	4065.51
426.01	4070.19
426.20	4168.49
426.39	4105.30
426.58	4060.83
426.77	4023.38
426.96	4126.36
427.15	4039.76
427.33	4086.58
427.52	4147.43
427.71	4121.68
427.90	4227.01
428.09	4301.90
428.28	4306.59
428.46	4170.83
428.65	4292.54
428.84	4404.89
429.03	4245.73
429.22	4196.58
429.40	4276.16
429.59	4248.07
429.78	4060.83
429.97	3992.95
430.16	4072.53
430.34	4161.47
430.53	4205.94
430.72	4425.95
430.91	4245.73
431.10	4425.95
431.28	4660.01
431.47	4770.01
431.66	4704.48
431.85	4685.75
432.03	4664.69
432.22	4795.76
432.41	4671.71
432.60	4821.50
432.79	4877.68
432.97	5011.09
433.16	4791.08
433.35	4674.05
433.54	4760.65
433.72	4692.77
433.91	4856.61
434.10	4830.87
434.28	4938.53
434.47	4980.66
434.66	4922.15
434.85	4957.25
435.03	5116.41
435.22	4985.34
435.41	5160.88
435.59	5090.67
435.78	5270.89
435.97	5247.48
436.16	5343.44
436.34	5212.37
436.53	5284.93
436.72	5411.32
436.90	5233.44
437.09	5308.34
437.28	5074.28
437.46	5296.63
437.65	5146.84
437.84	5380.89
438.02	5296.63
438.21	5261.52
438.40	5315.36
438.58	5521.32
438.77	5544.73
438.96	5425.36
439.14	5687.50
439.33	5722.61
439.52	5701.54
439.70	5797.51
439.89	5832.62
440.08	5832.62
440.26	5856.02
440.45	5926.24
440.63	5898.15
440.82	6101.78
441.01	6010.50
441.19	5966.03
441.38	6104.12
441.57	6253.91
441.75	6478.60
441.94	6167.31
442.12	6417.75
442.31	6623.72
442.50	6410.73
442.68	6504.35
442.87	6373.28
443.05	6422.43
443.24	6635.42
443.43	6431.79
443.61	6579.25
443.80	6691.59
443.98	6544.14
444.17	6333.49
444.35	6527.75
444.54	6806.28
444.73	6726.70
444.91	6548.82
445.10	6647.12
445.28	6588.61
445.47	6466.90
445.65	6509.03
445.84	6644.78
446.02	6663.51
446.21	6630.74
446.39	6684.57
446.58	6719.68
446.77	6691.59
446.95	6553.50
447.14	6841.39
447.32	7002.88
447.51	6925.65
447.69	6902.24
447.88	6864.79
448.06	6942.03
448.25	6707.98
448.43	6967.77
448.62	6834.36
448.80	6862.45
448.99	6832.02
449.17	6977.14
449.36	6965.43
449.54	7023.95
449.73	7208.85
449.91	7440.56
450.10	7178.42
450.28	7332.90
450.46	7492.05
450.65	7290.77
450.83	7353.96
451.02	7342.26
451.20	7438.22
451.39	7442.90
451.57	7281.41
451.76	7276.73
451.94	7316.51
452.13	7396.09
452.31	7393.75
452.49	7269.70
452.68	7400.77
452.86	7281.41
453.05	7248.64
453.23	7578.65
453.42	7346.94
453.60	7325.88
453.78	7573.97
453.97	7403.11
454.15	7508.44
454.34	7499.08
454.52	7681.64
454.70	7709.72
454.89	7681.64
455.07	7721.43
455.26	7634.83
455.44	7960.16
455.62	7976.55
455.81	7915.69
455.99	8030.38
456.17	7908.67
456.36	8121.66
456.54	8131.02
456.73	8203.58
456.91	8116.98
457.09	8273.79
457.28	8381.46
457.46	8257.41
457.64	8334.65
457.83	8175.49
458.01	8051.44
458.19	8217.62
458.38	8269.11
458.56	8351.03
458.74	8435.29
458.93	8402.52
459.11	8367.42
459.29	8674.03
459.48	8533.59
459.66	8610.83
459.84	8442.31
460.03	8837.86
460.21	8599.13
460.39	8870.63
460.57	8748.92
460.76	8805.10
460.94	8887.01
461.12	8723.18
461.31	8819.14
461.49	8767.65
461.67	8765.31
461.85	8997.02
462.04	9034.47
462.22	9423.00
462.40	9149.15
462.59	9067.24
462.77	9064.89
462.95	8973.61
463.13	9142.13
463.32	9123.41
463.50	9123.41
463.68	9341.08
463.86	9153.84
464.05	8975.95
464.23	9095.32
464.41	9184.26
464.59	9156.18
464.78	9394.91
464.96	9383.21
465.14	9296.61
465.32	9191.28
465.50	9458.10
465.69	9575.13
465.87	9476.83
466.05	9394.91
466.23	9256.82
466.41	9401.93
466.60	9624.28
466.78	9212.35
466.96	9343.42
467.14	9514.28
467.32	9430.02
467.51	9664.07
467.69	9490.87
467.87	9493.21
468.05	9708.54
468.23	9486.19
468.41	9586.83
468.60	9619.60
468.78	9891.10
468.96	9738.97
469.14	9748.33
469.32	10111.11
469.50	9680.46
469.69	9961.32
469.87	10031.54
470.05	9937.91
470.23	9919.19
470.41	10090.05
470.59	10010.47
470.77	9975.36
470.95	10284.31
471.14	10499.64
471.32	10146.22
471.50	10312.40
471.68	10647.10
471.86	10417.72
472.04	10628.37
472.22	10689.23
472.40	10478.58
472.58	10602.63
472.77	10876.47
472.95	10611.99
473.13	10981.79
473.31	10787.53
473.49	10817.96
473.67	10923.28
473.85	10916.26
474.03	11325.85
474.21	11218.19
474.39	11213.51
474.57	11171.38
474.75	11494.37
474.93	11314.15
475.12	11215.85
475.30	11339.90
475.48	11346.92
475.66	11489.69
475.84	11360.96
476.02	11564.59
476.20	11880.56
476.38	11901.62
476.56	12063.12
476.74	12107.59
476.92	12166.10
477.10	12105.25
477.28	12212.92
477.46	12444.63
477.64	12215.26
477.82	12669.32
478.00	12872.95
478.18	12657.62
478.36	12762.94
478.54	12744.22
478.72	12802.73
478.90	13076.57
479.08	13231.05
479.26	13411.27
479.44	13392.55
479.62	13638.30
479.80	13500.21
479.98	13694.47
480.16	13963.64
480.34	13996.40
480.52	13884.06
480.70	14253.86
480.88	13912.14
481.06	14209.39
481.24	14562.81
481.41	14452.81
481.59	14867.08
481.77	14672.82
481.95	14892.83
482.13	14553.45
482.31	14923.26
482.49	15068.37
482.67	15150.29
482.85	15159.65
483.03	15414.77
483.21	15501.37
483.39	15639.46
483.57	15712.02
483.74	15688.61
483.92	15962.45
484.10	15859.47
484.28	16079.48
484.46	16482.05
484.64	16507.80
484.82	16107.57
485.00	16259.70
485.18	16760.58
485.35	16819.09
485.53	16456.31
485.71	16226.93
485.89	16629.51
486.07	16617.80
486.25	16744.19
486.43	17099.95
486.61	17378.48
486.78	17401.88
486.96	17682.75
487.14	17980.00
487.32	18192.98
487.50	18045.53
487.68	18260.86
487.85	18906.85
488.03	18520.66
488.21	19007.49
488.39	18745.35
488.57	19126.86
488.75	19131.54
488.92	19566.88
489.10	19573.90
489.28	19901.58
489.46	20006.90
489.64	19908.60
489.81	20383.73
489.99	20407.13
490.17	20559.27
490.35	20713.74
490.53	20767.57
490.70	20889.28
490.88	20762.89
491.06	21099.93
491.24	21022.69
491.41	21020.35
491.59	21238.02
491.77	21441.65
491.95	21273.13
492.13	21678.04
492.30	21998.70
492.48	21848.90
492.66	22185.94
492.84	22560.42
493.01	22417.65
493.19	22319.35
493.37	22693.83
493.54	22862.35
493.72	23077.68
493.90	23082.36
494.08	23262.58
494.25	23482.59
494.43	23646.43
494.61	23475.57
494.79	23927.30
494.96	23791.55
495.14	24074.75
495.32	23950.70
495.49	24226.89
495.67	24283.06
495.85	24411.79
496.02	24575.62
496.20	24697.33
496.38	24575.62
496.55	24926.71
496.73	25209.91
496.91	24753.51
497.09	25757.60
497.26	25476.73
497.44	25570.35
497.62	25308.21
497.79	25865.26
497.97	25289.49
498.14	25612.48
498.32	26347.41
498.50	26567.42
498.67	26277.19
498.85	26235.06
499.03	26558.06
499.20	26536.99
499.38	26995.74
499.56	26801.47
499.73	26979.36
499.91	26803.82
500.08	27271.92
500.26	26939.57
500.44	27278.94
500.61	27201.71
500.79	26766.37
500.97	27454.48
501.14	27449.80
501.32	27349.16
501.49	27625.34
501.67	27749.39
501.84	27934.29
502.02	27779.82
502.20	28116.86
502.37	28222.18
502.55	28283.03
502.72	28734.76
502.90	28006.85
503.07	28573.26
503.25	28795.61
503.43	28510.07
503.60	28514.75
503.78	28301.76
503.95	28573.26
504.13	28924.34
504.30	29027.32
504.48	29237.97
504.65	29518.84
504.83	29640.54
505.01	29689.70
505.18	29280.10
505.36	29640.54
505.53	29790.34
505.71	29844.17
505.88	30213.98
506.06	29851.19
506.23	30150.78
506.41	29930.77
506.58	30443.35
506.76	30569.74
506.93	30588.46
507.11	30314.62
507.28	30600.16
507.46	30312.28
507.63	30738.26
507.81	30878.69
507.98	30562.72
508.16	30553.35
508.33	31309.35
508.50	31435.74
508.68	31325.73
508.85	31716.60
509.03	31505.95
509.20	31625.32
509.38	31538.72
509.55	31644.04
509.73	31854.69
509.90	32055.98
510.08	31873.42
510.25	31868.73
510.42	31917.89
510.60	32669.20
510.77	32329.82
510.95	32371.95
511.12	32334.50
511.30	32767.50
511.47	32987.51
511.64	32865.80
511.82	32872.82
511.99	33097.52
512.17	32503.02
512.34	32526.42
512.51	33415.83
512.69	33144.33
512.86	33165.39
513.04	33694.35
513.21	33326.89
513.38	33472.00
513.56	33062.41
513.73	33104.54
513.90	33589.03
514.08	33317.53
514.25	33778.61
514.43	33996.28
514.60	33926.07
514.77	33839.47
514.95	34007.98
515.12	33937.77
515.29	34286.51
515.47	34499.50
515.64	34719.51
515.81	34487.79
515.99	34162.46
516.16	33933.09
516.33	34401.19
516.51	33930.75
516.68	33692.01
516.85	34017.35
517.03	34022.03
517.20	34087.56
517.37	34808.45
517.54	34742.91
517.72	34773.34
517.89	34424.60
518.06	34672.70
518.24	34738.23
518.41	34642.27
518.58	35108.04
518.75	35023.78
518.93	35384.22
519.10	34960.58
519.27	35625.29
519.45	35763.39
519.62	35611.25
519.79	35957.65
519.96	36332.14
520.14	36327.45
520.31	35754.02
520.48	36074.68
520.65	36304.05
520.83	36411.71
521.00	36217.45
521.17	36538.10
521.34	36388.31
521.52	36615.34
521.69	36622.36
521.86	37186.43
522.03	36561.51
522.20	37160.69
522.38	36889.18
522.55	37294.10
522.72	37078.77
522.89	36720.66
523.07	37237.92
523.24	37165.37
523.41	37537.51
523.58	37373.67
523.75	38132.01
523.92	37776.25
524.10	37787.95
524.27	38012.64
524.44	37851.14
524.61	37982.21
524.78	38000.94
524.96	38452.66
525.13	37696.67
525.30	38169.46
525.47	38792.04
525.64	38312.23
525.81	37869.87
525.98	38445.64
526.16	37830.08
526.33	37593.68
526.50	38281.80
526.67	37172.39
526.84	37989.24
527.01	37928.38
527.18	38368.40
527.36	38579.05
527.53	38873.96
527.70	38883.32
527.87	39335.04
528.04	38859.91
528.21	38689.06
528.38	38883.32
528.55	39402.92
528.72	39124.40
528.89	39316.32
529.07	39313.98
529.24	39161.84
529.41	39470.79
529.58	39173.55
529.75	39206.31
529.92	39571.44
530.09	39754.00
530.26	39634.63
530.43	39913.16
530.60	39700.17
530.77	39821.87
530.94	40196.36
531.11	39821.87
531.28	40278.28
531.46	40339.13
531.63	39938.90
531.80	40123.80
531.97	40098.06
532.14	40100.40
532.31	39569.10
532.48	39887.41
532.65	40039.54
532.82	40306.37
532.99	40299.34
533.16	40100.40
533.33	40657.45
533.50	40877.46
533.67	40439.78
533.84	40484.25
534.01	40844.69
534.18	40708.94
534.35	40474.88
534.52	40708.94
534.69	40769.79
534.86	41111.51
535.03	40725.32
535.20	41198.11
535.37	41448.55
535.54	41853.46
535.71	41127.89
535.88	41333.86
536.05	41202.79
536.22	41455.57
536.38	41867.50
536.55	41216.83
536.72	41401.74
536.89	41359.61
537.06	41572.60
537.23	41682.60
537.40	41813.67
537.57	41523.44
537.74	41801.97
537.91	41975.17
538.08	41687.28
538.25	41523.44
538.42	41979.85
538.59	41858.14
538.75	41420.46
538.92	41593.66
539.09	42134.32
539.26	41486.00
539.43	41750.48
539.60	41661.54
539.77	42155.39
539.94	42148.37
540.11	41689.62
540.28	41954.10
540.44	42136.66
540.61	42157.73
540.78	42167.09
540.95	42026.66
541.12	41979.85
541.29	42408.17
541.46	42417.53
541.62	42415.19
541.79	42960.53
541.96	42251.35
542.13	42866.91
542.30	42274.76
542.47	42398.80
542.63	42466.68
542.80	42625.84
542.97	42990.96
543.14	42960.53
543.31	43026.07
543.48	43246.08
543.64	43529.28
543.81	43456.73
543.98	43210.97
544.15	43320.98
544.32	43681.42
544.48	43653.33
544.65	43328.00
544.82	43414.60
544.99	43496.52
545.16	43817.17
545.32	43543.33
545.49	44102.71
545.66	43931.86
545.83	44191.65
546.00	43927.17
546.16	43868.66
546.33	44109.74
546.50	43447.36
546.67	44013.77
546.83	43386.51
547.00	43690.78
547.17	43571.41
547.34	43384.17
547.50	44091.01
547.67	44318.04
547.84	43943.56
548.00	44100.37
548.17	44254.85
548.34	44252.51
548.51	44133.14
548.67	44245.49
548.84	44357.83
549.01	43985.69
549.18	44390.60
549.34	44201.02
549.51	44399.96
549.68	44701.89
549.84	44603.59
550.01	44547.42
550.18	44271.23
550.34	44912.54
550.51	44652.74
550.68	44383.58
550.84	43854.62
551.01	44739.34
551.18	44727.64
551.34	44701.89
551.51	44659.76
551.68	44809.56
551.84	44790.83
552.01	44804.88
552.18	44886.79
552.34	44542.74
552.51	44580.18
552.68	44779.13
552.84	44811.90
553.01	45289.37
553.18	45071.70
553.34	44659.76
553.51	44767.43
553.67	45132.55
553.84	45024.89
554.01	45448.52
554.17	45275.32
554.34	45258.94
554.51	45411.07
554.67	45312.77
554.84	45319.79
555.00	45448.52
555.17	44823.60
555.33	45448.52
555.50	45113.83
555.67	45123.19
555.83	45333.84
556.00	45312.77
556.16	45972.80
556.33	45329.16
556.50	45666.19
556.66	45476.61
556.83	45137.23
556.99	45595.98
557.16	46101.53
557.32	45446.18
557.49	45741.09
557.65	44949.99
557.82	45682.58
557.98	45846.41
558.15	45284.68
558.32	45837.05
558.48	45193.40
558.65	45340.86
558.81	45773.86
558.98	45078.72
559.14	45485.97
559.31	45656.83
559.47	45689.60
559.64	45947.06
559.80	46045.36
559.97	45923.65
560.13	45565.55
560.30	45598.32
560.46	45614.70
560.63	45935.35
560.79	46017.27
560.96	46024.29
561.12	46162.39
561.29	45991.53
561.45	45897.91
561.61	46045.36
561.78	45544.48
561.94	45565.55
562.11	45682.58
562.27	45741.09
562.44	45839.39
562.60	46326.22
562.77	46220.90
562.93	45900.25
563.10	46419.84
563.26	45780.88
563.42	46089.83
563.59	46066.42
563.75	45813.65
563.92	46546.23
564.08	46092.17
564.24	46356.65
564.41	46225.58
564.57	46270.05
564.74	45933.01
564.90	46305.16
565.07	46651.56
565.23	46387.08
565.39	45794.92
565.56	46120.26
565.72	46209.20
565.88	46443.25
566.05	46206.86
566.21	46260.69
566.38	45965.78
566.54	46422.19
566.70	46314.52
566.87	46593.04
567.03	46333.24
567.19	46876.25
567.36	46342.61
567.52	46038.34
567.68	46452.61
567.85	46270.05
568.01	46653.90
568.17	46195.15
568.34	46380.06
568.50	46260.69
568.66	46330.90
568.83	46340.27
568.99	45790.24
569.15	45970.46
569.32	45996.21
569.48	46859.87
569.64	46639.86
569.81	46319.20
569.97	46361.33
570.13	46469.00
570.30	45970.46
570.46	46195.15
570.62	46134.30
570.78	46286.43
570.95	46192.81
571.11	46401.12
571.27	46377.72
571.43	46057.06
571.60	46791.99
571.76	46218.56
571.92	46405.80
572.09	46653.90
572.25	46621.13
572.41	46342.61
572.57	46241.96
572.74	46646.88
572.90	46366.01
573.06	46681.98
573.22	46473.68
573.38	46522.83
573.55	46401.12
573.71	46649.22
573.87	46333.24
574.03	46520.49
574.20	46553.26
574.36	46745.18
574.52	46618.79
574.68	46579.00
574.84	46700.71
575.01	46586.02
575.17	46354.31
575.33	46188.13
575.49	46560.28
575.65	46768.58
575.82	46593.04
575.98	46363.67
576.14	46506.44
576.30	46564.96
576.46	46272.39
576.62	46291.12
576.79	46567.30
576.95	46391.76
577.11	46188.13
577.27	46806.03
577.43	46017.27
577.59	46227.92
577.75	46178.77
577.92	46115.58
578.08	46181.11
578.24	46464.32
578.40	45942.38
578.56	46251.33
578.72	46616.45
578.88	46880.93
579.04	46822.42
579.21	46195.15
579.37	46469.00
579.53	46504.10
579.69	46588.36
579.85	46539.21
580.01	46742.84
580.17	46689.01
580.33	46574.32
580.49	46939.44
580.65	46667.94
580.82	46681.98
580.98	46616.45
581.14	46394.10
581.30	47110.30
581.46	46665.60
581.62	46845.82
581.78	46859.87
581.94	46939.44
582.10	46314.52
582.26	46705.39
582.42	46766.24
582.58	46808.37
582.74	46635.17
582.90	46878.59
583.06	47168.82
583.22	46787.31
583.38	46923.06
583.54	46583.68
583.70	46768.58
583.86	46852.84
584.02	46766.24
584.18	46794.33
584.34	46775.61
584.50	47033.07
584.66	46581.34
584.82	46607.09
584.98	46784.97
585.14	46717.09
585.30	46447.93
585.46	46438.57
585.62	46515.81
585.78	46644.54
585.94	46131.96
586.10	46330.90
586.26	46609.43
586.42	46752.20
586.58	46651.56
586.74	46527.51
586.90	47168.82
587.06	46651.56
587.22	46557.94
587.38	46609.43
587.54	46548.57
587.70	47056.47
587.86	46689.01
588.02	46775.61
588.18	46674.96
588.34	46843.48
588.49	46216.22
588.65	45588.95
588.81	46120.26
588.97	46036.00
589.13	46026.63
589.29	46555.60
589.45	46506.44
589.61	46347.29
589.77	46555.60
589.93	46838.80
590.08	46857.52
590.24	46148.34
590.40	46876.25
590.56	47164.14
590.72	46993.28
590.88	46909.02
591.04	47019.02
591.20	47164.14
591.35	47056.47
591.51	47250.74
591.67	46609.43
591.83	46974.55
591.99	46705.39
592.15	46911.36
592.31	46791.99
592.46	46700.71
592.62	46532.19
592.78	46918.38
592.94	47325.63
593.10	46717.09
593.26	46986.25
593.41	47021.36
593.57	46459.63
593.73	46766.24
593.89	46791.99
594.05	46658.58
594.20	46866.89
594.36	46904.34
594.52	47033.07
594.68	46813.05
594.84	46562.62
594.99	47061.15
595.15	46813.05
595.31	46642.20
595.47	46705.39
595.62	46717.09
595.78	47356.06
595.94	47367.76
596.10	47023.70
596.25	46920.72
596.41	46995.62
596.57	46897.31
596.73	47021.36
596.88	46370.69
597.04	46684.33
597.20	46784.97
597.36	46948.81
597.51	47164.14
597.67	47100.94
597.83	47470.75
597.99	47171.16
598.14	46871.57
598.30	47019.02
598.46	47002.64
598.61	46454.95
598.77	46983.91
598.93	46656.24
599.09	46920.72
599.24	47501.17
599.40	47093.92
599.56	47185.20
599.71	46639.86
599.87	47152.43
600.03	46670.28
600.18	46941.78
600.34	46906.68
600.50	47051.79
600.65	46588.36
600.81	46958.17
600.97	46906.68
601.12	47070.51
601.28	46794.33
601.44	46721.77
601.59	46616.45
601.75	46429.21
601.91	46630.49
602.06	46567.30
602.22	46916.04
602.37	46829.44
602.53	46983.91
602.69	46724.11
602.84	46649.22
603.00	46494.74
603.16	46745.18
603.31	46983.91
603.47	46504.10
603.62	46660.92
603.78	46742.84
603.94	47133.71
604.09	46873.91
604.25	46471.34
604.40	46618.79
604.56	46403.46
604.71	46878.59
604.87	46953.49
605.03	46747.52
605.18	46651.56
605.34	46717.09
605.49	46263.03
605.65	46567.30
605.80	46747.52
605.96	46883.27
606.12	46990.94
606.27	46787.31
606.43	46724.11
606.58	46923.06
606.74	46387.08
606.89	46670.28
607.05	46539.21
607.20	46724.11
607.36	46628.15
607.51	46930.08
607.67	46553.26
607.82	46623.47
607.98	46534.53
608.13	46220.90
608.29	46553.26
608.44	45965.78
608.60	45947.06
608.75	46478.36
608.91	46272.39
609.06	46101.53
609.22	46906.68
609.37	46347.29
609.53	46270.05
609.68	46134.30
609.84	45977.48
609.99	46082.81
610.15	46131.96
610.30	46300.48
610.46	45811.31
610.61	46293.46
610.76	46251.33
610.92	46148.34
611.07	46344.95
611.23	46759.22
611.38	45975.14
611.54	46007.91
611.69	46080.47
611.84	46183.45
612.00	46167.07
612.15	45900.25
612.31	46024.29
612.46	45965.78
612.62	45958.76
612.77	46131.96
612.92	46138.98
613.08	45677.90
613.23	45696.62
613.39	45687.26
613.54	45329.16
613.69	45869.82
613.85	45544.48
614.00	46096.85
614.15	45853.44
614.31	45724.71
614.46	45661.51
614.62	45921.31
614.77	45808.96
614.92	45937.69
615.08	45535.12
615.23	45497.67
615.38	45331.50
615.54	45429.80
615.69	45261.28
615.84	45312.77
616.00	45095.10
616.15	45401.71
616.30	45291.71
616.46	45017.86
616.61	45174.68
616.76	45099.78
616.92	44957.01
617.07	44952.33
617.22	44987.44
617.37	44945.31
617.53	45464.91
617.68	45661.51
617.83	45404.05
617.99	45001.48
618.14	45141.91
618.29	45177.02
618.45	44744.02
618.60	44802.53
618.75	44575.50
618.90	44802.53
619.06	44935.95
619.21	45078.72
619.36	45029.57
619.51	45036.59
619.67	44896.16
619.82	45043.61
619.97	44865.73
620.12	44774.45
620.28	44362.51
620.43	44610.61
620.58	44175.27
620.73	45165.32
620.89	44481.88
621.04	44580.18
621.19	44617.63
621.34	44907.86
621.49	44547.42
621.65	44458.48
621.80	44591.89
621.95	44428.05
622.10	44296.98
622.25	44196.34
622.41	44332.09
622.56	44257.19
622.71	44500.61
622.86	44531.03
623.01	43997.39
623.16	44076.97
623.32	44306.34
623.47	44215.06
623.62	44322.72
623.77	43655.67
623.92	44222.08
624.07	43983.35
624.23	43627.59
624.38	44194.00
624.53	43875.68
624.68	44123.78
624.83	43908.45
624.98	43751.63
625.13	43241.40
625.29	43959.94
625.44	43398.21
625.59	43679.08
625.74	43285.87
625.89	43423.96
626.04	43714.19
626.19	43838.23
626.34	43625.25
626.49	43653.33
626.65	43737.59
626.80	43746.95
626.95	43075.22
627.10	43559.71
627.25	43576.09
627.40	43220.33
627.55	42981.60
627.70	42965.21
627.85	43164.16
628.00	42777.97
628.15	43498.86
628.30	43107.99
628.45	43269.48
628.60	43325.66
628.76	43320.98
628.91	42862.23
629.06	43009.68
629.21	43033.09
629.36	42831.80
629.51	42710.10
629.66	42808.40
629.81	42792.01
629.96	42904.36
630.11	42595.41
630.26	42960.53
630.41	43217.99
630.56	42953.51
630.71	42763.93
630.86	42710.10
631.01	42595.41
631.16	42656.26
631.31	42213.90
631.46	42066.45
631.61	42560.30
631.76	42485.40
631.91	42541.58
632.06	42569.66
632.21	42953.51
632.36	42649.24
632.51	42213.90
632.66	42436.25
632.81	42405.83
632.96	42424.55
633.10	42108.58
633.25	42239.65
633.40	42368.38
633.55	42335.61
633.70	42639.88
633.85	42043.04
634.00	42419.87
634.15	42284.12
634.30	41979.85
634.45	41949.42
634.60	42061.77
634.75	41926.02
634.90	41801.97
635.05	41951.76
635.19	41572.60
635.34	42499.45
635.49	41715.37
635.64	41956.44
635.79	41881.55
635.94	41467.27
636.09	41677.92
636.24	41661.54
636.39	41628.77
636.53	41170.02
636.68	41593.66
636.83	41235.56
636.98	41787.92
637.13	41628.77
637.28	41633.45
637.43	41778.56
637.57	41715.37
637.72	41528.13
637.87	41053.00
638.02	41263.64
638.17	41478.97
638.32	41439.18
638.46	41425.14
638.61	41586.64
638.76	41666.22
638.91	41233.22
639.06	41633.45
639.20	41392.37
639.35	41530.47
639.50	41495.36
639.65	41621.75
639.80	41628.77
639.94	40781.49
640.09	41006.19
640.24	40919.59
640.39	40961.72
640.54	40788.52
640.68	40917.25
640.83	41151.30
640.98	40971.08
641.13	40861.07
641.27	41195.77
641.42	40744.05
641.57	40889.16
641.72	40636.38
641.86	40311.05
642.01	40332.11
642.16	40502.97
642.31	40840.01
642.45	40566.16
642.60	40076.99
642.75	40935.97
642.90	40875.12
643.04	40414.03
643.19	40226.79
643.34	40720.64
643.48	40041.88
643.63	40287.64
643.78	40320.41
643.93	40594.25
644.07	40313.39
644.22	40170.61
644.37	40023.16
644.51	40168.27
644.66	40126.14
644.81	40336.79
644.95	40257.21
645.10	40357.86
645.25	40514.67
645.39	40098.06
645.54	40460.84
645.69	39894.43
645.83	39845.28
645.98	39810.17
646.13	39622.93
646.27	39966.99
646.42	39754.00
646.57	39793.79
646.71	39510.58
646.86	40114.44
647.00	39978.69
647.15	40069.97
647.30	40055.93
647.44	39730.59
647.59	39512.92
647.74	39421.64
647.88	39543.35
648.03	39580.80
648.17	39786.77
648.32	39622.93
648.47	39555.05
648.61	39124.40
648.76	39746.98
648.90	39707.19
649.05	39194.61
649.20	39613.57
649.34	39325.68
649.49	39503.56
649.63	39328.02
649.78	39168.87
649.92	39503.56
650.07	39805.49
650.21	38941.83
650.36	39215.68
650.51	39414.62
650.65	39548.03
650.80	39510.58
650.94	39426.32
651.09	39515.26
651.23	38885.66
651.38	39234.40
651.52	38763.95
651.67	38763.95
651.81	38986.30
651.96	39035.45
652.10	39267.17
652.25	38457.34
652.39	38670.33
652.54	38906.73
652.68	39037.80
652.83	38911.41
652.97	38904.38
653.12	38707.78
653.26	38658.63
653.41	38679.69
653.55	38415.21
653.70	38742.89
653.84	38565.01
653.99	38384.79
654.13	38010.30
654.27	38532.24
654.42	38117.96
654.56	38024.34
654.71	38345.00
654.85	38424.57
655.00	38569.69
655.14	38541.60
655.29	37947.11
655.43	38288.82
655.57	37766.88
655.72	38036.05
655.86	37422.83
656.01	37656.88
656.15	37401.76
656.30	37689.65
656.44	37972.85
656.58	37755.18
656.73	37652.20
656.87	37696.67
657.01	37764.54
657.16	37785.61
657.30	37570.28
657.45	37240.26
657.59	37633.47
657.73	37516.45
657.88	37926.04
658.02	37713.05
658.16	37633.47
658.31	37743.48
658.45	37467.30
658.60	38014.98
658.74	37991.58
658.88	37661.56
659.03	37319.84
659.17	36854.08
659.31	37315.16
659.46	37186.43
659.60	37226.22
659.74	37102.17
659.89	37214.52
660.03	37177.07
660.17	37368.99
660.32	36919.61
660.46	37177.07
660.60	36928.97
660.74	36987.49
660.89	36870.46
661.03	36760.45
661.17	36287.67
661.32	36694.92
661.46	36486.61
661.60	36849.39
661.74	36521.72
661.89	36531.08
662.03	36779.18
662.17	36243.20
662.31	36425.76
662.46	36624.70
662.60	36912.59
662.74	36165.96
662.88	36046.59
663.03	35702.53
663.17	36503.00
663.31	35943.61
663.45	36128.51
663.60	36271.28
663.74	36018.50
663.88	35798.49
664.02	35917.86
664.17	36006.80
664.31	35817.22
664.45	35690.83
664.59	35381.88
664.73	35704.87
664.88	35707.21
665.02	35215.70
665.16	35754.02
665.30	35299.96
665.44	35693.17
665.59	34958.24
665.73	35026.12
665.87	35543.38
666.01	35445.07
666.15	35189.95
666.29	35435.71
666.44	35346.77
666.58	34443.32
666.72	34998.03
666.86	35248.47
667.00	34693.76
667.14	34443.32
667.28	34291.19
667.43	34419.92
667.57	35166.55
667.71	34518.22
667.85	34822.49
667.99	34235.02
668.13	34340.34
668.27	34415.24
668.41	34518.22
668.56	33972.88
668.70	34349.70
668.84	34146.08
668.98	33670.95
669.12	33738.82
669.26	33755.21
669.40	33347.95
669.54	34132.03
669.68	33560.94
669.82	33757.55
669.96	33394.76
670.10	33188.80
670.25	33546.90
670.39	33591.37
670.53	33336.25
670.67	33202.84
670.81	33668.61
670.95	33226.24
671.09	33120.92
671.23	33399.44
671.37	33179.43
671.51	32961.76
671.65	33013.26
671.79	32528.77
671.93	33076.45
672.07	33263.69
672.21	32931.34
672.35	32503.02
672.49	32734.73
672.63	32811.97
672.77	32704.31
672.91	32470.25
673.05	32414.08
673.19	32245.56
673.33	32411.74
673.47	31955.33
673.61	31644.04
673.75	31620.64
673.89	31669.79
674.03	31473.18
674.17	31910.86
674.31	31608.93
674.45	31693.19
674.59	31573.83
674.73	31850.01
674.87	31330.41
675.01	31061.25
675.15	31459.14
675.29	30792.09
675.43	30955.93
675.56	31213.38
675.70	31115.08
675.84	30874.01
675.98	30443.35
676.12	30593.14
676.26	30607.19
676.40	31028.48
676.54	30661.02
676.68	30649.32
676.82	30331.00
676.96	30150.78
677.10	30071.20
677.23	30148.44
677.37	29900.34
677.51	29846.51
677.65	30036.09
677.79	29589.05
677.93	29645.23
678.07	29418.19
678.21	28865.83
678.34	29015.62
678.48	29191.16
678.62	29142.01
678.76	28568.58
678.90	28442.19
679.04	29022.64
679.18	28924.34
679.31	28156.64
679.45	28512.41
679.59	28215.16
679.73	28201.11
679.87	28390.70
680.00	28151.96
680.14	27838.33
680.28	28252.61
680.42	27854.72
680.56	27974.08
680.70	27894.50
680.83	28119.20
680.97	28224.52
681.11	27611.30
681.25	27211.07
681.39	27129.15
681.52	27562.15
681.66	27117.45
681.80	27164.26
681.94	26941.91
682.07	27089.36
682.21	27037.87
682.35	26551.04
682.49	26782.75
682.62	27049.57
682.76	26492.52
682.90	26277.19
683.04	26139.10
683.17	26230.38
683.31	26024.42
683.45	26127.40
683.59	26326.35
683.72	25907.39
683.86	25991.65
684.00	25916.75
684.13	25923.77
684.27	25556.31
684.41	25385.45
684.55	25460.35
684.68	25259.06
684.82	25362.04
684.96	25142.03
685.09	25355.02
685.23	25083.52
685.37	24856.49
685.50	24851.81
685.64	24851.81
685.78	24704.35
685.91	24453.92
686.05	24718.40
686.19	24346.25
686.32	23885.17
686.46	23924.96
686.60	23435.78
686.73	23566.85
686.87	23300.03
687.01	23115.13
687.14	23417.06
687.28	23276.63
687.42	22958.31
687.55	23260.24
687.69	23639.41
687.82	22939.59
687.96	23260.24
688.10	23108.11
688.23	22963.00
688.37	22546.38
688.50	22752.35
688.64	22906.82
688.78	22539.36
688.91	22616.60
689.05	22588.51
689.18	22419.99
689.32	22122.74
689.46	22333.39
689.59	22354.46
689.73	22387.22
689.86	22340.41
690.00	22022.10
690.13	21900.39
690.27	21853.58
690.41	21598.46
690.54	21500.16
690.68	21369.09
690.81	21818.47
690.95	21387.82
691.08	21298.88
691.22	21317.60
691.35	21500.16
691.49	21198.23
691.62	20931.41
691.76	21212.28
691.89	20917.37
692.03	20889.28
692.16	20835.45
692.30	20835.45
692.43	20177.76
692.57	20648.21
692.70	20306.49
692.84	20360.32
692.97	20280.74
693.11	19992.86
693.24	20006.90
693.38	20133.29
693.51	19805.61
693.65	20065.41
693.78	20098.18
693.92	19819.66
694.05	19653.48
694.19	19311.76
694.32	19358.57
694.45	19293.04
694.59	18918.55
694.72	18948.98
694.86	19218.14
694.99	18764.07
695.13	19033.24
695.26	18801.52
695.39	18883.44
695.53	18745.35
695.66	18890.46
695.80	18948.98
695.93	18412.99
696.07	18588.53
696.20	18544.06
696.33	18312.35
696.47	18260.86
696.60	18132.13
696.73	17713.17
696.87	17666.36
697.00	18134.47
697.14	17813.82
697.27	17696.79
697.40	17785.73
697.54	17647.64
697.67	17507.21
697.80	17579.76
697.94	17411.25
698.07	17357.41
698.21	17118.68
698.34	17193.58
698.47	17202.94
698.61	16851.86
698.74	16957.18
698.87	16519.50
699.01	16444.60
699.14	16470.35
699.27	16404.81
699.40	16390.77
699.54	16262.04
699.67	16257.36
699.80	16446.94
699.94	16250.34
700.07	16187.14
700.20	16255.02
700.34	16095.86
700.47	16112.25
700.60	16184.80
700.73	16163.74
700.87	16067.78
701.00	15658.18
701.13	15658.18
701.26	15524.77
701.40	15463.92
701.53	15482.64
701.66	15517.75
701.79	15309.44
701.93	15307.10
702.06	15250.93
702.19	14841.34
702.32	14949.00
702.46	14960.70
702.59	15145.61
702.72	14923.26
702.85	15040.28
702.99	14766.44
703.12	15061.35
703.25	14567.49
703.38	14621.33
703.51	14506.64
703.65	14574.52
703.78	14459.83
703.91	14092.37
704.04	14143.86
704.17	14052.58
704.31	14143.86
704.44	14066.62
704.57	14047.90
704.70	13998.74
704.83	14052.58
704.96	13895.76
705.10	14087.68
705.23	13898.10
>>>>>End Processed Spectral Data<<<<<
