SpectraSuite Data File
++++++++++++++++++++++++++++++++++++
Date: Fri Oct 25 11:34:17 EDT 2013
User: price-jones
Dark Spectrum Present: No
Reference Spectrum Present: No
Number of Sampled Component Spectra: 1
Spectrometers: USB2+H05261
Integration Time (usec): 100000 (USB2+H05261)
Spectra Averaged: 1 (USB2+H05261)
Boxcar Smoothing: 0 (USB2+H05261)
Correct for Electrical Dark: No (USB2+H05261)
Strobe/Lamp Enabled: No (USB2+H05261)
Correct for Detector Non-linearity: No (USB2+H05261)
Correct for Stray Light: No (USB2+H05261)
Number of Pixels in Processed Spectrum: 2048
>>>>>Begin Processed Spectral Data<<<<<
365.73	243.42
365.92	243.42
366.12	243.42
366.32	175.54
366.52	166.18
366.72	196.60
366.91	117.03
367.11	229.37
367.31	140.43
367.51	84.26
367.70	149.79
367.90	175.54
368.10	222.35
368.30	224.69
368.49	208.31
368.69	224.69
368.89	161.50
369.09	135.75
369.28	217.67
369.48	215.33
369.68	262.14
369.87	212.99
370.07	285.55
370.27	306.61
370.47	285.55
370.66	425.98
370.86	454.06
371.06	528.96
371.25	573.43
371.45	524.28
371.65	617.90
371.84	533.64
372.04	599.18
372.24	566.41
372.44	489.17
372.63	601.52
372.83	589.82
373.03	531.30
373.22	622.58
373.42	571.09
373.62	601.52
373.81	713.86
374.01	629.60
374.21	667.05
374.40	653.01
374.60	634.29
374.79	615.56
374.99	655.35
375.19	709.18
375.38	648.33
375.58	613.22
375.78	667.05
375.97	645.99
376.17	734.93
376.37	662.37
376.56	641.31
376.76	582.79
376.95	648.33
377.15	662.37
377.35	620.24
377.54	678.76
377.74	624.92
377.93	634.29
378.13	725.57
378.33	718.54
378.52	671.73
378.72	753.65
378.91	711.52
379.11	727.91
379.31	657.69
379.50	664.71
379.70	758.33
379.89	718.54
380.09	713.86
380.28	629.60
380.48	765.36
380.68	770.04
380.87	753.65
381.07	781.74
381.26	723.23
381.46	741.95
381.65	856.64
381.85	718.54
382.04	695.14
382.24	760.67
382.43	748.97
382.63	741.95
382.83	713.86
383.02	823.87
383.22	863.66
383.41	781.74
383.61	830.89
383.80	795.78
384.00	744.29
384.19	770.04
384.39	887.06
384.58	770.04
384.78	844.93
384.97	851.96
385.17	837.91
385.36	868.34
385.56	753.65
385.75	774.72
385.95	809.83
386.14	905.79
386.34	842.59
386.53	880.04
386.72	833.23
386.92	943.24
387.11	866.00
387.31	875.36
387.50	915.15
387.70	837.91
387.89	863.66
388.09	819.19
388.28	887.06
388.48	917.49
388.67	966.64
388.86	919.83
389.06	842.59
389.25	1034.52
389.45	938.55
389.64	917.49
389.84	1011.11
390.03	990.05
390.22	990.05
390.42	957.28
390.61	1008.77
390.81	917.49
391.00	959.62
391.19	940.90
391.39	1067.28
391.58	954.94
391.78	1050.90
391.97	971.32
392.16	997.07
392.36	1123.46
392.55	1057.92
392.75	1018.13
392.94	1018.13
393.13	1060.26
393.33	1055.58
393.52	1076.65
393.71	1006.43
393.91	1064.94
394.10	1027.50
394.29	1100.05
394.49	1078.99
394.68	1118.78
394.88	1015.79
395.07	1123.46
395.26	1160.91
395.46	1050.90
395.65	1226.44
395.84	1102.39
396.04	1242.82
396.23	1160.91
396.42	1090.69
396.62	1146.86
396.81	1057.92
397.00	1111.75
397.19	1188.99
397.39	1146.86
397.58	1191.33
397.77	1210.06
397.97	1207.72
398.16	1165.59
398.35	1165.59
398.55	1273.25
398.74	1287.29
398.93	1404.32
399.12	1261.55
399.32	1266.23
399.51	1146.86
399.70	1287.29
399.90	1355.17
400.09	1299.00
400.28	1315.38
400.47	1362.19
400.67	1401.98
400.86	1359.85
401.05	1331.76
401.24	1409.00
401.44	1392.62
401.63	1387.94
401.82	1409.00
402.01	1404.32
402.21	1397.30
402.40	1469.86
402.59	1411.34
402.78	1472.20
402.97	1411.34
403.17	1476.88
403.36	1460.49
403.55	1504.96
403.74	1579.86
403.93	1610.29
404.13	1521.35
404.32	1488.58
404.51	1526.03
404.70	1577.52
404.89	1598.59
405.09	1739.02
405.28	1593.90
405.47	1577.52
405.66	1703.91
405.85	1561.14
406.05	1701.57
406.24	1633.69
406.43	1703.91
406.62	1757.74
406.81	1783.49
407.00	1741.36
407.20	1717.95
407.39	1661.78
407.58	1778.81
407.77	1839.66
407.96	1907.54
408.15	1846.68
408.34	1893.49
408.54	1860.73
408.73	1895.83
408.92	1980.09
409.11	1970.73
409.30	1982.43
409.49	2005.84
409.68	1928.60
409.87	1898.17
410.07	1989.46
410.26	1994.14
410.45	2064.35
410.64	2010.52
410.83	2087.76
411.02	1968.39
411.21	2200.10
411.40	2179.04
411.59	2165.00
411.78	2087.76
411.98	2193.08
412.17	2186.06
412.36	2216.49
412.55	2230.53
412.74	2221.17
412.93	2275.00
413.12	2214.15
413.31	2314.79
413.50	2223.51
413.69	2422.45
413.88	2361.60
414.07	2314.79
414.26	2385.01
414.45	2530.12
414.64	2448.20
414.83	2366.28
415.02	2473.95
415.22	2560.55
415.41	2640.12
415.60	2574.59
415.79	2520.76
415.98	2647.15
416.17	2661.19
416.36	2686.94
416.55	2614.38
416.74	2761.83
416.93	2750.13
417.12	2761.83
417.31	2773.53
417.50	2724.38
417.69	2839.07
417.88	2834.39
418.07	2876.52
418.26	2864.82
418.45	2895.24
418.64	3030.99
418.83	2930.35
419.02	2864.82
419.21	3014.61
419.39	3026.31
419.58	3009.93
419.77	2958.44
419.96	3133.98
420.15	3026.31
420.34	3070.78
420.53	3066.10
420.72	3176.11
420.91	3145.68
421.10	3328.24
421.29	3272.07
421.48	3208.87
421.67	3229.94
421.86	3220.58
422.05	3169.09
422.24	3124.62
422.43	3206.53
422.61	3337.60
422.80	3405.48
422.99	3243.98
423.18	3290.79
423.37	3337.60
423.56	3309.52
423.75	3314.20
423.94	3262.71
424.13	3049.72
424.32	3227.60
424.50	3377.39
424.69	3407.82
424.88	3431.23
425.07	3290.79
425.26	3351.65
425.45	3337.60
425.64	3323.56
425.83	3396.12
426.01	3407.82
426.20	3318.88
426.39	3412.50
426.58	3440.59
426.77	3351.65
426.96	3372.71
427.15	3365.69
427.33	3522.51
427.52	3398.46
427.71	3431.23
427.90	3517.83
428.09	3609.11
428.28	3630.17
428.46	3588.04
428.65	3550.59
428.84	3613.79
429.03	3662.94
429.22	3550.59
429.40	3712.09
429.59	3707.41
429.78	3494.42
429.97	3517.83
430.16	3543.57
430.34	3730.81
430.53	3777.62
430.72	3765.92
430.91	3815.07
431.10	3679.32
431.28	3833.80
431.47	3861.88
431.66	3815.07
431.85	3838.48
432.03	3964.87
432.22	3911.04
432.41	4042.11
432.60	3896.99
432.79	3990.61
432.97	4035.08
433.16	3953.16
433.35	3929.76
433.54	4100.62
433.72	4114.66
433.91	4086.58
434.10	4091.26
434.28	4042.11
434.47	4140.41
434.66	4161.47
434.85	4227.01
435.03	4182.54
435.22	4124.02
435.41	4379.14
435.59	4329.99
435.78	4358.08
435.97	4351.06
436.16	4266.80
436.34	4280.84
436.53	4512.55
436.72	4414.25
436.90	4374.46
437.09	4273.82
437.28	4348.72
437.46	4479.79
437.65	4491.49
437.84	4683.41
438.02	4486.81
438.21	4400.21
438.40	4409.57
438.58	4613.20
438.77	4741.93
438.96	4603.83
439.14	4624.90
439.33	4746.61
439.52	4725.54
439.70	4711.50
439.89	4873.00
440.08	4809.80
440.26	4807.46
440.45	4891.72
440.63	4973.64
440.82	4964.28
441.01	4994.70
441.19	5008.75
441.38	5088.32
441.57	5249.82
441.75	5268.55
441.94	5191.31
442.12	5303.65
442.31	5350.46
442.50	5313.02
442.68	5273.23
442.87	5387.91
443.05	5310.68
443.24	5430.04
443.43	5345.78
443.61	5266.21
443.80	5474.51
443.98	5130.45
444.17	5153.86
444.35	5495.58
444.54	5411.32
444.73	5334.08
444.91	5394.93
445.10	5500.26
445.28	5554.09
445.47	5455.79
445.65	5523.66
445.84	5605.58
446.02	5575.16
446.21	5500.26
446.39	5490.90
446.58	5643.03
446.77	5561.11
446.95	5462.81
447.14	5521.32
447.32	5769.42
447.51	5537.71
447.69	5612.60
447.88	5570.48
448.06	5500.26
448.25	5647.71
448.43	5577.50
448.62	5661.76
448.80	5572.82
448.99	5671.12
449.17	5584.52
449.36	5750.70
449.54	5797.51
449.73	5959.00
449.91	6022.20
450.10	5856.02
450.28	5923.90
450.46	6022.20
450.65	5898.15
450.83	6066.67
451.02	5961.34
451.20	6066.67
451.39	5912.19
451.57	6085.39
451.76	5937.94
451.94	6143.91
452.13	6160.29
452.31	6090.07
452.49	6209.44
452.68	6244.55
452.86	6113.48
453.05	6232.85
453.23	6401.37
453.42	6279.66
453.60	6218.80
453.78	6193.06
453.97	6251.57
454.15	6289.02
454.34	6209.44
454.52	6274.98
454.70	6307.74
454.89	6282.00
455.07	6436.47
455.26	6406.05
455.44	6604.99
455.62	6492.65
455.81	6438.81
455.99	6511.37
456.17	6455.20
456.36	6656.48
456.54	6649.46
456.73	6785.21
456.91	6771.17
457.09	6967.77
457.28	6956.07
457.46	6707.98
457.64	6904.58
457.83	7019.27
458.01	6696.27
458.19	7002.88
458.38	6771.17
458.56	6876.49
458.74	7091.82
458.93	6799.26
459.11	6885.86
459.29	6909.26
459.48	7075.44
459.66	7073.10
459.84	7110.55
460.03	7304.81
460.21	7302.47
460.39	7110.55
460.57	7190.13
460.76	7148.00
460.94	7330.56
461.12	7227.57
461.31	7311.83
461.49	7258.00
461.67	7218.21
461.85	7316.51
462.04	7316.51
462.22	7793.98
462.40	7524.82
462.59	7417.16
462.77	7723.77
462.95	7571.63
463.13	7566.95
463.32	7454.61
463.50	7506.10
463.68	7702.70
463.86	7840.79
464.05	7529.50
464.23	7655.89
464.41	7798.66
464.59	7658.23
464.78	7651.21
464.96	7812.71
465.14	7648.87
465.32	7971.86
465.50	7955.48
465.69	7906.33
465.87	7801.01
466.05	7976.55
466.23	7669.94
466.41	7723.77
466.60	7929.74
466.78	7838.45
466.96	7735.47
467.14	8018.68
467.32	7967.18
467.51	8182.51
467.69	7899.31
467.87	8056.12
468.05	8315.92
468.23	8100.59
468.41	8128.68
468.60	7906.33
468.78	8341.67
468.96	8138.04
469.14	8308.90
469.32	8388.48
469.50	8119.32
469.69	8475.08
469.87	8332.31
470.05	8344.01
470.23	8512.53
470.41	8365.07
470.59	8667.00
470.77	8585.08
470.95	8344.01
471.14	8601.47
471.32	8533.59
471.50	8814.46
471.68	8821.48
471.86	8957.23
472.04	8987.66
472.22	9004.04
472.40	8688.07
472.58	8954.89
472.77	9006.38
472.95	9069.58
473.13	9397.25
473.31	9324.69
473.49	9064.89
473.67	9186.60
473.85	9350.44
474.03	9467.47
474.21	9320.01
474.39	9710.88
474.57	9643.01
474.75	9481.51
474.93	9729.61
475.12	9495.55
475.30	9640.67
475.48	9659.39
475.66	9820.89
475.84	9521.30
476.02	9877.06
476.20	9816.21
476.38	10010.47
476.56	10200.05
476.74	10005.79
476.92	10111.11
477.10	10310.06
477.28	10476.24
477.46	10413.04
477.64	10413.04
477.82	10586.24
478.00	10750.08
478.18	10768.80
478.36	10883.49
478.54	10977.11
478.72	10890.51
478.90	11068.39
479.08	11316.49
479.26	11454.58
479.44	11377.34
479.62	11660.55
479.80	11529.48
479.98	11513.10
480.16	11740.13
480.34	11480.33
480.52	11887.58
480.70	11831.41
480.88	11707.36
481.06	12018.65
481.24	11915.67
481.41	12088.87
481.59	12351.01
481.77	12372.07
481.95	12152.06
482.13	12606.13
482.31	12477.40
482.49	12917.42
482.67	12938.48
482.85	13090.62
483.03	12985.29
483.21	13273.18
483.39	13298.92
483.57	13596.17
483.74	13600.85
483.92	13579.79
484.10	13657.03
484.28	13757.67
484.46	13987.04
484.64	14132.15
484.82	14197.69
485.00	14155.56
485.18	14712.61
485.35	14862.40
485.53	14714.95
485.71	14548.77
485.89	14885.81
486.07	15042.62
486.25	14820.27
486.43	15012.20
486.61	15447.54
486.78	15585.63
486.96	15503.71
487.14	15580.95
487.32	15793.94
487.50	15779.89
487.68	15793.94
487.85	16032.67
488.03	16208.21
488.21	16650.57
488.39	16514.82
488.57	16678.66
488.75	16943.14
488.92	16496.10
489.10	16783.98
489.28	16922.07
489.46	17006.33
489.64	17200.60
489.81	17406.56
489.99	17666.36
490.17	17584.44
490.35	18043.19
490.53	17937.87
490.70	18050.21
490.88	18008.08
491.06	18204.69
491.24	18410.65
491.41	18803.86
491.59	18644.71
491.77	18895.14
491.95	18595.56
492.13	18939.62
492.30	18855.36
492.48	19014.51
492.66	19234.52
492.84	19222.82
493.01	19555.18
493.19	19578.58
493.37	19777.53
493.54	19733.06
493.72	19777.53
493.90	19936.68
494.08	20339.26
494.25	20381.38
494.43	20439.90
494.61	20063.07
494.79	20587.35
494.96	20570.97
495.14	20493.73
495.32	21076.52
495.49	20931.41
495.67	21209.93
495.85	21029.71
496.02	21474.42
496.20	21451.01
496.38	21380.79
496.55	21509.52
496.73	22253.81
496.91	21935.50
497.09	22080.61
497.26	21907.41
497.44	22066.57
497.62	22155.51
497.79	22836.61
497.97	22504.25
498.14	22649.36
498.32	23398.34
498.50	22979.38
498.67	23035.55
498.85	23307.05
499.03	23358.55
499.20	23470.89
499.38	23470.89
499.56	23353.87
499.73	23618.35
499.91	23529.41
500.08	23791.55
500.26	23852.40
500.44	23590.26
500.61	24168.37
500.79	23913.25
500.97	24063.05
501.14	24510.09
501.32	24690.31
501.49	24638.82
501.67	24566.26
501.84	24896.28
502.02	24676.27
502.20	24687.97
502.37	25165.44
502.55	24758.19
502.72	24940.75
502.90	24907.98
503.07	24739.46
503.25	25071.82
503.43	25111.61
503.60	25144.38
503.78	25792.70
503.95	25420.56
504.13	25745.89
504.30	25893.35
504.48	25394.81
504.65	25865.26
504.83	26293.58
505.01	25986.97
505.18	25968.24
505.36	26237.41
505.53	26677.43
505.71	26419.97
505.88	26501.89
506.06	26518.27
506.23	26838.92
506.41	26548.70
506.58	26948.93
506.76	26480.82
506.93	26862.33
507.11	26852.97
507.28	27206.39
507.46	27194.68
507.63	27482.57
507.81	27405.33
507.98	27353.84
508.16	27725.99
508.33	27557.47
508.50	27536.40
508.68	27857.06
508.85	28203.46
509.03	27948.34
509.20	28091.11
509.38	28306.44
509.55	28545.17
509.73	28360.27
509.90	28514.75
510.08	28463.25
510.25	28692.63
510.42	28599.01
510.60	28451.55
510.77	28807.31
510.95	29167.76
511.12	29036.69
511.30	28950.09
511.47	28826.04
511.64	29003.92
511.82	29572.67
511.99	28779.23
512.17	29411.17
512.34	29376.06
512.51	29682.67
512.69	30284.19
512.86	29729.48
513.04	29724.80
513.21	29577.35
513.38	29752.89
513.56	30536.97
513.73	29820.77
513.90	30295.89
514.08	29893.32
514.25	30398.88
514.43	30775.70
514.60	30501.86
514.77	30679.74
514.95	30864.64
515.12	30595.48
515.29	30588.46
515.47	30742.94
515.64	31199.34
515.81	30794.43
515.99	30749.96
516.16	31358.50
516.33	31330.41
516.51	31140.83
516.68	31351.48
516.85	31531.70
517.03	31791.50
517.20	31744.69
517.37	31267.22
517.54	31491.91
517.72	31749.37
517.89	31578.51
518.06	32243.22
518.24	31639.36
518.41	31873.42
518.58	32364.93
518.75	31730.64
518.93	32500.68
519.10	32196.41
519.27	32500.68
519.45	32617.71
519.62	32947.72
519.79	32620.05
519.96	32725.37
520.14	32945.38
520.31	32786.22
520.48	33156.03
520.65	33039.00
520.83	33163.05
521.00	33256.67
521.17	32882.19
521.34	33551.58
521.52	33090.49
521.69	33284.76
521.86	33687.33
522.03	33937.77
522.20	33813.72
522.38	33947.13
522.55	34113.31
522.72	33984.58
522.89	34139.05
523.07	34220.97
523.24	33848.83
523.41	34141.39
523.58	33706.05
523.75	34881.00
523.92	34319.28
524.10	34511.20
524.27	34363.75
524.44	35304.64
524.61	34785.04
524.78	34586.10
524.96	34511.20
525.13	34918.45
525.30	34672.70
525.47	35349.11
525.64	35143.14
525.81	35166.55
525.98	35316.34
526.16	34991.01
526.33	35154.85
526.50	35335.07
526.67	35255.49
526.84	35234.42
527.01	35227.40
527.18	35512.95
527.36	35651.04
527.53	35639.34
527.70	35894.46
527.87	36039.57
528.04	35744.66
528.21	35828.92
528.38	35967.01
528.55	36067.66
528.72	35974.03
528.89	35976.37
529.07	35950.63
529.24	36130.85
529.41	36362.56
529.58	35878.07
529.75	36254.90
529.92	36196.38
530.09	36311.07
530.26	36280.64
530.43	36463.21
530.60	36613.00
530.77	36744.07
530.94	36594.28
531.11	36931.31
531.28	37074.09
531.46	36872.80
531.63	36751.09
531.80	36877.48
531.97	36531.08
532.14	36961.74
532.31	37069.40
532.48	37163.03
532.65	37399.42
532.82	37181.75
532.99	37294.10
533.16	37425.17
533.33	37647.52
533.50	37633.47
533.67	37404.10
533.84	37109.19
534.01	37633.47
534.18	38000.94
534.35	37923.70
534.52	37968.17
534.69	38349.68
534.86	38438.62
535.03	37949.45
535.20	37628.79
535.37	38129.67
535.54	38417.55
535.71	37900.29
535.88	38225.63
536.05	38082.86
536.22	38410.53
536.38	38330.95
536.55	38590.75
536.72	38370.74
536.89	38155.41
537.06	38541.60
537.23	38492.45
537.40	38082.86
537.57	38586.07
537.74	38562.67
537.91	38651.61
538.08	38614.16
538.25	38267.76
538.42	39171.21
538.59	39576.12
538.75	39042.48
538.92	39180.57
539.09	39428.66
539.26	39072.90
539.43	39185.25
539.60	39047.16
539.77	39377.17
539.94	39632.29
540.11	39306.96
540.28	38948.85
540.44	39732.93
540.61	39438.03
540.78	39566.76
540.95	39878.05
541.12	39236.74
541.29	39388.88
541.46	39754.00
541.62	39615.91
541.79	39833.58
541.96	39541.01
542.13	39739.96
542.30	39761.02
542.47	39995.07
542.63	39957.63
542.80	40418.71
542.97	40325.09
543.14	40315.73
543.31	40524.04
543.48	40364.88
543.64	40917.25
543.81	40708.94
543.98	40561.48
544.15	40713.62
544.32	40556.80
544.48	41034.27
544.65	40690.21
544.82	41120.87
544.99	40737.02
545.16	41294.07
545.32	40760.43
545.49	41528.13
545.66	41504.72
545.83	41343.22
546.00	41315.14
546.16	40942.99
546.33	41102.15
546.50	40978.10
546.67	41350.24
546.83	41043.63
547.00	41240.24
547.17	41139.60
547.34	40847.03
547.50	41209.81
547.67	41862.82
547.84	41670.90
548.00	42146.03
548.17	42120.28
548.34	42040.70
548.51	41862.82
548.67	42038.36
548.84	41933.04
549.01	41794.95
549.18	41780.90
549.34	41944.74
549.51	42000.91
549.68	42382.42
549.84	41937.72
550.01	42405.83
550.18	42110.92
550.34	41708.35
550.51	42230.29
550.68	42057.09
550.84	42277.10
551.01	42227.95
551.18	42148.37
551.34	42359.02
551.51	42806.06
551.68	42857.55
551.84	42548.60
552.01	42314.55
552.18	42700.73
552.34	42101.56
552.51	42696.05
552.68	41949.42
552.84	42490.09
553.01	43023.73
553.18	42792.01
553.34	42815.42
553.51	42883.30
553.67	42824.78
553.84	42848.19
554.01	43173.52
554.17	42946.49
554.34	42995.64
554.51	42707.76
554.67	43185.22
554.84	43215.65
555.00	42829.46
555.17	43091.60
555.33	43098.62
555.50	43215.65
555.67	43555.03
555.83	43082.24
556.00	43480.13
556.16	43861.64
556.33	43538.65
556.50	43054.15
556.66	42923.08
556.83	43316.29
556.99	43402.89
557.16	43793.76
557.32	43765.68
557.49	43915.47
557.65	43363.11
557.82	43878.02
557.98	43934.20
558.15	43395.87
558.32	44032.50
558.48	43562.05
558.65	43941.22
558.81	43934.20
558.98	43391.19
559.14	43608.86
559.31	44121.44
559.47	43875.68
559.64	44046.54
559.80	43948.24
559.97	44144.84
560.13	43335.02
560.30	43945.90
560.46	44268.89
560.63	44418.69
560.79	43903.77
560.96	44313.36
561.12	44624.65
561.29	43964.62
561.45	44554.44
561.61	44500.61
561.78	44023.14
561.94	43765.68
562.11	44299.32
562.27	44247.83
562.44	44442.09
562.60	44341.45
562.77	44748.70
562.93	44856.37
563.10	44854.03
563.26	44418.69
563.42	44921.90
563.59	44568.48
563.75	44966.37
563.92	44418.69
564.08	44519.33
564.24	44942.97
564.41	44568.48
564.57	44624.65
564.74	44666.78
564.90	44835.30
565.07	44949.99
565.23	44577.84
565.39	44753.38
565.56	44910.20
565.72	45038.93
565.88	44772.11
566.05	45010.84
566.21	44882.11
566.38	44839.98
566.54	44781.47
566.70	45062.33
566.87	45003.82
567.03	44650.40
567.19	44896.16
567.36	44839.98
567.52	44849.35
567.68	45022.54
567.85	45268.30
568.01	45301.07
568.17	44662.10
568.34	45567.89
568.50	45125.53
568.66	45015.52
568.83	45170.00
568.99	45081.06
569.15	45216.81
569.32	45378.31
569.48	45083.40
569.64	45352.56
569.81	45179.36
569.97	45640.45
570.13	45460.23
570.30	44987.44
570.46	45418.10
570.62	45212.13
570.78	45219.15
570.95	45050.63
571.11	45595.98
571.27	45029.57
571.43	44767.43
571.60	45406.39
571.76	45141.91
571.92	45027.23
572.09	45343.20
572.25	45549.17
572.41	45067.02
572.57	44924.24
572.74	45780.88
572.90	45219.15
573.06	45617.04
573.22	45329.16
573.38	45830.03
573.55	45237.87
573.71	45603.00
573.87	45528.10
574.03	45528.10
574.20	45607.68
574.36	45521.08
574.52	45638.11
574.68	45504.70
574.84	46099.19
575.01	45731.73
575.17	46059.40
575.33	45720.02
575.49	45219.15
575.65	45530.44
575.82	45797.26
575.98	45607.68
576.14	45591.30
576.30	45720.02
576.46	45715.34
576.62	45530.44
576.79	45743.43
576.95	45137.23
577.11	45237.87
577.27	45368.94
577.43	45668.53
577.59	45574.91
577.75	45579.59
577.92	45708.32
578.08	45495.33
578.24	45595.98
578.40	45839.39
578.56	45942.38
578.72	45642.79
578.88	45530.44
579.04	45897.91
579.21	45827.69
579.37	45893.22
579.53	45553.85
579.69	45858.12
579.85	45598.32
580.01	45628.74
580.17	45619.38
580.33	45778.54
580.49	45631.08
580.65	46026.63
580.82	45460.23
580.98	45528.10
581.14	45778.54
581.30	45593.64
581.46	45638.11
581.62	45881.52
581.78	45546.82
581.94	45727.05
582.10	45977.48
582.26	46330.90
582.42	45539.80
582.58	45897.91
582.74	45766.84
582.90	45684.92
583.06	45808.96
583.22	45830.03
583.38	45581.93
583.54	46366.01
583.70	45996.21
583.86	46115.58
584.02	45799.60
584.18	46281.75
584.34	46038.34
584.50	46033.66
584.66	46150.68
584.82	46085.15
584.98	46241.96
585.14	45923.65
585.30	46232.60
585.46	45406.39
585.62	45975.14
585.78	46227.92
585.94	45577.25
586.10	46026.63
586.26	45696.62
586.42	45790.24
586.58	46113.23
586.74	46206.86
586.90	46078.13
587.06	46017.27
587.22	45874.50
587.38	45893.22
587.54	46059.40
587.70	46223.24
587.86	46485.38
588.02	45874.50
588.18	46024.29
588.34	45874.50
588.49	45790.24
588.65	45989.19
588.81	45595.98
588.97	46408.14
589.13	45687.26
589.29	45799.60
589.45	46185.79
589.61	46476.02
589.77	46686.67
589.93	46241.96
590.08	46464.32
590.24	46602.41
590.40	46827.10
590.56	46773.27
590.72	46403.46
590.88	46312.18
591.04	46094.51
591.20	46628.15
591.35	46726.46
591.51	46799.01
591.67	46707.73
591.83	46850.50
591.99	46637.51
592.15	46490.06
592.31	46511.13
592.46	46410.48
592.62	46438.57
592.78	46827.10
592.94	46415.16
593.10	46480.70
593.26	46871.57
593.41	47093.92
593.57	46731.14
593.73	46520.49
593.89	46887.95
594.05	46656.24
594.20	46611.77
594.36	46906.68
594.52	46492.40
594.68	46909.02
594.84	46309.84
594.99	46925.40
595.15	46672.62
595.31	46731.14
595.47	46490.06
595.62	46314.52
595.78	46852.84
595.94	46761.56
596.10	46326.22
596.25	47112.64
596.41	46796.67
596.57	46735.82
596.73	47243.71
596.88	46515.81
597.04	46494.74
597.20	46562.62
597.36	46649.22
597.51	46829.44
597.67	46602.41
597.83	46571.98
597.99	46583.68
598.14	46429.21
598.30	46705.39
598.46	46380.06
598.61	47040.09
598.77	46789.65
598.93	46770.93
599.09	46555.60
599.24	46801.35
599.40	47089.24
599.56	47105.62
599.71	47136.05
599.87	47501.17
600.03	47318.61
600.18	46740.50
600.34	46466.66
600.50	46990.94
600.65	46789.65
600.81	46766.24
600.97	47037.75
601.12	47049.45
601.28	47159.45
601.44	47023.70
601.59	46600.07
601.75	47016.68
601.91	46955.83
602.06	46934.76
602.22	46801.35
602.37	46373.03
602.53	46990.94
602.69	46550.91
602.84	46506.44
603.00	46600.07
603.16	46621.13
603.31	46955.83
603.47	46927.74
603.62	46953.49
603.78	46932.42
603.94	47208.61
604.09	46806.03
604.25	47241.37
604.40	46625.81
604.56	46649.22
604.71	47070.51
604.87	46902.00
605.03	46419.84
605.18	46813.05
605.34	47201.58
605.49	46361.33
605.65	46761.56
605.80	46656.24
605.96	46993.28
606.12	46036.00
606.27	46689.01
606.43	46941.78
606.58	46609.43
606.74	46817.74
606.89	46433.89
607.05	47124.35
607.20	46801.35
607.36	46712.41
607.51	46466.66
607.67	46525.17
607.82	46548.57
607.98	46471.34
608.13	46724.11
608.29	46511.13
608.44	46698.37
608.60	46569.64
608.75	46571.98
608.91	46777.95
609.06	46642.20
609.22	46394.10
609.37	46433.89
609.53	47021.36
609.68	46930.08
609.84	46614.11
609.99	46574.32
610.15	46485.38
610.30	46579.00
610.46	46670.28
610.61	47143.07
610.76	46452.61
610.92	45996.21
611.07	45893.22
611.23	46157.70
611.38	46389.42
611.54	47140.73
611.69	46656.24
611.84	46623.47
612.00	46340.27
612.15	45902.59
612.31	46211.54
612.46	46335.59
612.62	46429.21
612.77	45977.48
612.92	46567.30
613.08	46515.81
613.23	46202.18
613.39	46153.02
613.54	46146.00
613.69	46464.32
613.85	46237.28
614.00	46543.89
614.15	46333.24
614.31	46153.02
614.46	46429.21
614.62	45930.67
614.77	45944.72
614.92	46155.36
615.08	46241.96
615.23	45865.14
615.38	46319.20
615.54	46206.86
615.69	46309.84
615.84	46131.96
616.00	46347.29
616.15	46270.05
616.30	45998.55
616.46	46384.74
616.61	46157.70
616.76	46085.15
616.92	45961.10
617.07	46117.92
617.22	45722.37
617.37	45394.69
617.53	45727.05
617.68	46000.89
617.83	45666.19
617.99	46370.69
618.14	46267.71
618.29	45605.34
618.45	45523.42
618.60	45340.86
618.75	45263.62
618.90	45895.56
619.06	45661.51
619.21	45640.45
619.36	46101.53
619.51	45794.92
619.67	45153.62
619.82	45748.11
619.97	45804.28
620.12	45942.38
620.28	45752.79
620.43	45549.17
620.58	45785.56
620.73	45411.07
620.89	45827.69
621.04	45270.64
621.19	45530.44
621.34	45516.40
621.49	45022.54
621.65	45319.79
621.80	45507.04
621.95	45280.00
622.10	45254.26
622.25	45001.48
622.41	45399.37
622.56	45401.71
622.71	45045.95
622.86	45226.17
623.01	45392.35
623.16	44718.28
623.32	44861.05
623.47	45048.29
623.62	44854.03
623.77	44861.05
623.92	45148.93
624.07	45228.51
624.23	45399.37
624.38	45097.44
624.53	44744.02
624.68	44847.00
624.83	44783.81
624.98	44474.86
625.13	44589.55
625.29	44758.06
625.44	44957.01
625.59	44395.28
625.74	44720.62
625.89	44348.47
626.04	45020.20
626.19	44367.20
626.34	44259.53
626.49	44458.48
626.65	44163.57
626.80	44549.76
626.95	44179.95
627.10	44271.23
627.25	44320.38
627.40	44189.31
627.55	44142.50
627.70	44727.64
627.85	44212.72
628.00	44456.14
628.15	44516.99
628.30	44023.14
628.45	44147.18
628.60	44041.86
628.76	44168.25
628.91	44163.57
629.06	43824.19
629.21	44126.12
629.36	44055.90
629.51	43948.24
629.66	44100.37
629.81	44030.16
629.96	44112.08
630.11	43962.28
630.26	43737.59
630.41	43896.75
630.56	43601.84
630.71	44046.54
630.86	43992.71
631.01	43856.96
631.16	43608.86
631.31	43828.87
631.46	43639.29
631.61	44067.61
631.76	43723.55
631.91	43662.69
632.06	44065.27
632.21	44219.74
632.36	44116.76
632.51	43533.96
632.66	43896.75
632.81	43351.40
632.96	43578.43
633.10	43611.20
633.25	43519.92
633.40	43374.81
633.55	43878.02
633.70	43550.35
633.85	43309.27
634.00	43344.38
634.15	43168.84
634.30	43756.32
634.45	43463.75
634.60	43491.83
634.75	43566.73
634.90	43351.40
635.05	43302.25
635.19	43562.05
635.34	43332.68
635.49	43381.83
635.64	43519.92
635.79	43091.60
635.94	43304.59
636.09	43220.33
636.24	43320.98
636.39	43058.84
636.53	43105.65
636.68	42862.23
636.83	43049.47
636.98	42902.02
637.13	42447.96
637.28	42752.23
637.43	42873.93
637.57	42777.97
637.72	42543.92
637.87	42714.78
638.02	42761.59
638.17	42637.54
638.32	42759.25
638.46	42799.04
638.61	42763.93
638.76	42181.13
638.91	42520.51
639.06	42602.43
639.20	42445.62
639.35	42424.55
639.50	42096.88
639.65	42485.40
639.80	42490.09
639.94	42899.68
640.09	42244.33
640.24	42307.52
640.39	42136.66
640.54	42047.72
640.68	42756.91
640.83	42391.78
640.98	42160.07
641.13	41757.50
641.27	42431.57
641.42	42232.63
641.57	42298.16
641.72	41933.04
641.86	42192.84
642.01	41654.51
642.16	41797.29
642.31	41757.50
642.45	42344.97
642.60	41748.14
642.75	41748.14
642.90	41778.56
643.04	42059.43
643.19	42040.70
643.34	41902.61
643.48	41137.26
643.63	41457.91
643.78	41928.36
643.93	42232.63
644.07	41895.59
644.22	41607.70
644.37	41521.10
644.51	42031.34
644.66	41682.60
644.81	42120.28
644.95	41633.45
645.10	41457.91
645.25	41436.84
645.39	41687.28
645.54	41481.31
645.69	41450.89
645.83	41432.16
645.98	41357.27
646.13	41092.79
646.27	41478.97
646.42	41233.22
646.57	41570.25
646.71	41317.48
646.86	41738.77
647.00	41347.90
647.15	41067.04
647.30	41184.07
647.44	41111.51
647.59	41322.16
647.74	41345.56
647.88	41132.57
648.03	41375.99
648.17	41736.43
648.32	41666.22
648.47	41710.69
648.61	40793.20
648.76	40755.75
648.90	40828.30
649.05	40994.48
649.20	41214.49
649.34	41188.75
649.49	40940.65
649.63	41036.61
649.78	41120.87
649.92	41095.13
650.07	41151.30
650.21	41305.77
650.36	40811.92
650.51	41036.61
650.65	41380.67
650.80	40884.48
650.94	40449.14
651.09	40847.03
651.23	40559.14
651.38	40552.12
651.52	40718.30
651.67	40318.07
651.81	40971.08
651.96	40395.31
652.10	40432.75
652.25	40219.77
652.39	40311.05
652.54	40308.71
652.68	40168.27
652.83	40299.34
652.97	40184.66
653.12	40512.33
653.26	40144.87
653.41	40289.98
653.55	40170.61
653.70	40528.72
653.84	40421.05
653.99	40222.11
654.13	40184.66
654.27	39990.39
654.42	40081.67
654.56	40053.59
654.71	40446.80
654.85	40140.19
655.00	40243.17
655.14	40135.51
655.29	40493.61
655.43	40191.68
655.57	40046.57
655.72	39480.16
655.86	39707.19
656.01	40037.20
656.15	39636.97
656.30	39510.58
656.44	40018.48
656.58	40100.40
656.73	39702.51
656.87	40062.95
657.01	39564.42
657.16	39957.63
657.30	39793.79
657.45	39541.01
657.59	39283.55
657.73	39384.19
657.88	39220.36
658.02	39318.66
658.16	39697.83
658.31	39161.84
658.45	39313.98
658.60	38930.13
658.74	39463.77
658.88	39239.08
659.03	39105.67
659.17	39054.18
659.31	39131.42
659.46	38848.21
659.60	39199.29
659.74	39040.14
659.89	38796.72
660.03	38562.67
660.17	38447.98
660.32	38770.97
660.46	38625.86
660.60	38644.59
660.74	38873.96
660.89	38890.34
661.03	38265.42
661.17	38136.69
661.32	38499.47
661.46	38572.03
661.60	37972.85
661.74	38258.40
661.89	37848.80
662.03	38202.22
662.17	38085.20
662.31	37670.92
662.46	38237.33
662.60	37818.38
662.74	37535.17
662.88	37787.95
663.03	37687.31
663.17	37853.48
663.31	37301.12
663.45	37516.45
663.60	37832.42
663.74	37897.95
663.88	37656.88
664.02	37172.39
664.17	37961.15
664.31	37572.62
664.45	37158.34
664.59	37181.75
664.73	37156.00
664.88	37315.16
665.02	36910.25
665.16	36854.08
665.30	36891.52
665.44	37254.31
665.59	37092.81
665.73	36603.64
665.87	36680.88
666.01	36795.56
666.15	36821.31
666.29	36500.65
666.44	36659.81
666.58	36467.89
666.72	36460.87
666.86	36636.41
667.00	36091.06
667.14	36254.90
667.28	36051.27
667.43	35971.69
667.57	36505.34
667.71	36732.37
667.85	35894.46
667.99	35997.44
668.13	35826.58
668.27	35639.34
668.41	35866.37
668.56	35386.56
668.70	35484.86
668.84	35091.65
668.98	35473.16
669.12	35398.26
669.26	35587.85
669.40	35253.15
669.54	35278.89
669.68	35658.06
669.82	35276.55
669.96	34607.16
670.10	34862.28
670.25	34848.24
670.39	34614.18
670.53	35290.60
670.67	35199.32
670.81	35269.53
670.95	35009.73
671.09	34478.43
671.23	34686.74
671.37	34548.65
671.51	34232.68
671.65	34251.40
671.79	34361.40
671.93	34291.19
672.07	33865.21
672.21	34244.38
672.35	34073.52
672.49	34141.39
672.63	34047.77
672.77	34129.69
672.91	34232.68
673.05	33785.63
673.19	33493.07
673.33	33773.93
673.47	33366.68
673.61	33455.62
673.75	32917.29
673.89	33111.56
674.03	33071.77
674.17	32938.36
674.31	32933.68
674.45	32933.68
674.59	33022.62
674.73	32685.58
674.87	32629.41
675.01	32446.85
675.15	32165.98
675.29	32063.00
675.43	32568.55
675.56	32400.04
675.70	31985.76
675.84	31775.11
675.98	31145.51
676.12	32180.03
676.26	31850.01
676.40	31854.69
676.54	31566.81
676.68	31248.49
676.82	30972.31
676.96	31400.63
677.10	31674.47
677.23	31206.36
677.37	31122.10
677.51	31136.15
677.65	31276.58
677.79	30902.09
677.93	30881.03
678.07	30871.67
678.21	30654.00
678.34	30075.88
678.48	30415.26
678.62	30190.57
678.76	30068.86
678.90	30071.20
679.04	30499.52
679.18	29958.86
679.31	29839.49
679.45	29483.73
679.59	29483.73
679.73	29575.01
679.87	29535.22
680.00	29179.46
680.14	29472.03
680.28	29500.11
680.42	29111.58
680.56	28987.53
680.70	29088.18
680.83	28601.35
680.97	28446.87
681.11	28870.51
681.25	28591.98
681.39	28063.02
681.52	28428.15
681.66	27913.23
681.80	27707.26
681.94	27548.11
682.07	28067.70
682.21	27833.65
682.35	27468.53
682.49	27634.71
682.62	27454.48
682.76	27150.21
682.90	27798.54
683.04	27197.02
683.17	27211.07
683.31	27161.92
683.45	27119.79
683.59	26696.15
683.72	26621.25
683.86	26848.29
684.00	26693.81
684.13	26937.23
684.27	26513.59
684.41	26192.94
684.55	26494.86
684.68	26373.16
684.82	25947.18
684.96	25893.35
685.09	25738.87
685.23	25713.13
685.37	26178.89
685.50	26218.68
685.64	25621.84
685.78	25476.73
685.91	25495.46
686.05	24971.18
686.19	25294.17
686.32	25329.28
686.46	24655.20
686.60	24746.48
686.73	24919.68
686.87	24739.46
687.01	24900.96
687.14	24570.94
687.28	24685.63
687.42	24336.89
687.55	24430.51
687.69	24058.37
687.82	23859.42
687.96	24236.25
688.10	24004.53
688.23	23840.70
688.37	23957.72
688.50	24016.24
688.64	23578.56
688.78	23412.38
688.91	23683.88
689.05	23740.05
689.18	23131.51
689.32	23054.28
689.46	23047.26
689.59	22939.59
689.73	23124.49
689.86	23096.41
690.00	22740.64
690.13	22965.34
690.27	22607.23
690.41	22398.93
690.54	22122.74
690.68	22246.79
690.81	22066.57
690.95	22082.95
691.08	21888.69
691.22	21717.83
691.35	21708.47
691.49	21853.58
691.62	22008.06
691.76	21266.11
691.89	21280.15
692.03	21226.32
692.16	21242.70
692.30	21163.12
692.43	21252.06
692.57	20809.70
692.70	20662.25
692.84	20940.77
692.97	20699.70
693.11	20100.52
693.24	20634.16
693.38	20313.51
693.51	20020.94
693.65	20217.55
693.78	20247.97
693.92	20100.52
694.05	19882.85
694.19	20088.82
694.32	19578.58
694.45	19974.13
694.59	20051.37
694.72	19995.20
694.86	19363.25
694.99	19630.07
695.13	19201.76
695.26	18951.32
695.39	18953.66
695.53	19073.03
695.66	19524.75
695.80	19005.15
695.93	18707.90
696.07	18614.28
696.20	18476.19
696.33	18408.31
696.47	18473.85
696.60	18101.70
696.73	18476.19
696.87	18361.50
697.00	18122.77
697.14	18310.01
697.27	17682.75
697.40	17844.24
697.54	17638.28
697.67	17745.94
697.80	17680.41
697.94	17317.62
698.07	17413.59
698.21	17266.13
698.34	17301.24
698.47	17259.11
698.61	17022.72
698.74	17011.01
698.87	16767.60
699.01	16884.62
699.14	17008.67
699.27	16723.13
699.40	16706.74
699.54	16519.50
699.67	16650.57
699.80	16407.16
699.94	16477.37
700.07	16493.76
700.20	16240.98
700.34	16147.36
700.47	16308.85
700.60	16276.09
700.73	16013.95
700.87	15985.86
701.00	15875.85
701.13	15520.09
701.26	15613.71
701.40	15379.66
701.53	15473.28
701.66	15300.08
701.79	15321.15
701.93	14991.13
702.06	14885.81
702.19	15026.24
702.32	14977.09
702.46	14946.66
702.59	15353.91
702.72	15157.31
702.85	14923.26
702.99	14822.61
703.12	14640.05
703.25	14593.24
703.38	14239.82
703.51	14555.79
703.65	14225.78
703.78	14366.21
703.91	13839.59
704.04	14230.46
704.17	13954.27
704.31	14106.41
704.44	13818.52
704.57	13928.53
704.70	13717.88
704.83	13774.05
704.96	13708.52
705.10	13458.08
705.23	13570.43
>>>>>End Processed Spectral Data<<<<<
