SpectraSuite Data File
++++++++++++++++++++++++++++++++++++
Date: Fri Oct 25 10:43:38 EDT 2013
User: price-jones
Dark Spectrum Present: No
Reference Spectrum Present: No
Number of Sampled Component Spectra: 1
Spectrometers: USB2+H05261
Integration Time (usec): 100000 (USB2+H05261)
Spectra Averaged: 1 (USB2+H05261)
Boxcar Smoothing: 0 (USB2+H05261)
Correct for Electrical Dark: No (USB2+H05261)
Strobe/Lamp Enabled: No (USB2+H05261)
Correct for Detector Non-linearity: No (USB2+H05261)
Correct for Stray Light: No (USB2+H05261)
Number of Pixels in Processed Spectrum: 2048
>>>>>Begin Processed Spectral Data<<<<<
365.73	126.39
365.92	126.39
366.12	126.39
366.32	16.38
366.52	21.06
366.72	39.79
366.91	0.00
367.11	21.06
367.31	51.49
367.51	35.11
367.70	81.92
367.90	79.58
368.10	81.92
368.30	72.56
368.49	63.19
368.69	42.13
368.89	119.37
369.09	51.49
369.28	121.71
369.48	44.47
369.68	14.04
369.87	95.96
370.07	128.73
370.27	135.75
370.47	287.89
370.66	325.33
370.86	447.04
371.06	449.38
371.25	543.00
371.45	435.34
371.65	454.06
371.84	465.77
372.04	421.30
372.24	454.06
372.44	491.51
372.63	475.13
372.83	540.66
373.03	475.13
373.22	456.40
373.42	468.11
373.62	547.69
373.81	566.41
374.01	547.69
374.21	550.03
374.40	514.92
374.60	631.94
374.79	521.94
374.99	592.16
375.19	557.05
375.38	571.09
375.58	561.73
375.78	585.13
375.97	608.54
376.17	627.26
376.37	578.11
376.56	638.97
376.76	636.63
376.95	664.71
377.15	634.29
377.35	648.33
377.54	676.41
377.74	587.47
377.93	645.99
378.13	613.22
378.33	627.26
378.52	615.56
378.72	627.26
378.91	592.16
379.11	638.97
379.31	683.44
379.50	702.16
379.70	650.67
379.89	702.16
380.09	779.40
380.28	702.16
380.48	683.44
380.68	781.74
380.87	704.50
381.07	657.69
381.26	718.54
381.46	695.14
381.65	758.33
381.85	753.65
382.04	674.07
382.24	681.10
382.43	664.71
382.63	653.01
382.83	711.52
383.02	718.54
383.22	739.61
383.41	753.65
383.61	671.73
383.80	706.84
384.00	807.48
384.19	828.55
384.39	744.29
384.58	685.78
384.78	821.53
384.97	770.04
385.17	748.97
385.36	847.27
385.56	823.87
385.75	784.08
385.95	891.74
386.14	828.55
386.34	807.48
386.53	842.59
386.72	779.40
386.92	896.43
387.11	922.17
387.31	891.74
387.50	877.70
387.70	866.00
387.89	917.49
388.09	882.38
388.28	896.43
388.48	821.53
388.67	943.24
388.86	908.13
389.06	933.87
389.25	952.60
389.45	973.66
389.64	1053.24
389.84	1008.77
390.03	978.34
390.22	1011.11
390.42	959.62
390.61	1001.75
390.81	1060.26
391.00	1095.37
391.19	1114.10
391.39	1041.54
391.58	1032.18
391.78	1086.01
391.97	1022.81
392.16	1088.35
392.36	1081.33
392.55	1004.09
392.75	1034.52
392.94	1039.20
393.13	964.30
393.33	910.47
393.52	936.21
393.71	1130.48
393.91	1167.93
394.10	1156.22
394.29	1193.67
394.49	1165.59
394.68	1231.12
394.88	1184.31
395.07	1214.74
395.26	1277.93
395.46	1198.35
395.65	1242.82
395.84	1205.38
396.04	1294.32
396.23	1203.04
396.42	1149.20
396.62	1151.54
396.81	1160.91
397.00	1320.06
397.19	1350.49
397.39	1334.11
397.58	1465.18
397.77	1401.98
397.97	1479.22
398.16	1434.75
398.35	1526.03
398.55	1458.15
398.74	1488.58
398.93	1542.41
399.12	1572.84
399.32	1488.58
399.51	1584.54
399.70	1586.88
399.90	1579.86
400.09	1664.12
400.28	1668.80
400.47	1671.14
400.67	1671.14
400.86	1621.99
401.05	1767.10
401.24	1657.10
401.44	1748.38
401.63	1755.40
401.82	1757.74
402.01	1680.50
402.21	1717.95
402.40	1717.95
402.59	1708.59
402.78	1858.39
402.97	1746.04
403.17	1837.32
403.36	1872.43
403.55	1830.30
403.74	1959.03
403.93	1802.21
404.13	1856.04
404.32	1832.64
404.51	1898.17
404.70	1895.83
404.89	1912.22
405.09	2031.58
405.28	2017.54
405.47	1984.77
405.66	2064.35
405.85	1984.77
406.05	2010.52
406.24	2031.58
406.43	2097.12
406.62	2064.35
406.81	2090.10
407.00	2017.54
407.20	1989.46
407.39	2125.21
407.58	2232.87
407.77	2129.89
407.96	2162.66
408.15	2333.51
408.34	2190.74
408.54	2132.23
408.73	2314.79
408.92	2324.15
409.11	2410.75
409.30	2326.49
409.49	2282.02
409.68	2361.60
409.87	2286.70
410.07	2394.37
410.26	2333.51
410.45	2307.77
410.64	2476.29
410.83	2614.38
411.02	2520.76
411.21	2703.32
411.40	2651.83
411.59	2597.99
411.78	2572.25
411.98	2527.78
412.17	2644.81
412.36	2640.12
412.55	2771.19
412.74	2843.75
412.93	2850.77
413.12	2815.66
413.31	3033.33
413.50	2902.26
413.69	2808.64
413.88	2939.71
414.07	2876.52
414.26	3047.38
414.45	3002.91
414.64	3021.63
414.83	3131.64
415.02	3052.06
415.22	3082.49
415.41	3145.68
415.60	3164.40
415.79	3171.43
415.98	3300.16
416.17	3258.03
416.36	3220.58
416.55	3241.64
416.74	3375.05
416.93	3365.69
417.12	3541.23
417.31	3339.94
417.50	3426.54
417.69	3431.23
417.88	3468.67
418.07	3431.23
418.26	3564.64
418.45	3606.77
418.64	3765.92
418.83	3674.64
419.02	3559.95
419.21	3665.28
419.39	3585.70
419.58	3473.36
419.77	3552.93
419.96	3669.96
420.15	3770.60
420.34	3665.28
420.53	3770.60
420.72	3922.74
420.91	3822.09
421.10	3857.20
421.29	3967.21
421.48	3796.35
421.67	3988.27
421.86	3779.97
422.05	3770.60
422.24	3875.93
422.43	3873.59
422.61	3875.93
422.80	3934.44
422.99	3894.65
423.18	3983.59
423.37	4058.49
423.56	3957.85
423.75	4042.11
423.94	4016.36
424.13	3705.07
424.32	3808.05
424.50	3929.76
424.69	4063.17
424.88	4035.08
425.07	3882.95
425.26	3875.93
425.45	3913.38
425.64	3999.98
425.83	4002.32
426.01	4025.72
426.20	4009.34
426.39	4025.72
426.58	3946.14
426.77	3908.69
426.96	3911.04
427.15	3857.20
427.33	4149.77
427.52	4189.56
427.71	4229.35
427.90	4161.47
428.09	4156.79
428.28	4212.96
428.46	4280.84
428.65	4166.15
428.84	4222.33
429.03	4152.11
429.22	4147.43
429.40	4308.93
429.59	4098.28
429.78	3772.94
429.97	3894.65
430.16	4100.62
430.34	4376.80
430.53	4196.58
430.72	4360.42
430.91	4297.22
431.10	4264.46
431.28	4545.32
431.47	4601.49
431.66	4695.11
431.85	4538.30
432.03	4617.88
432.22	4760.65
432.41	4678.73
432.60	4758.31
432.79	4791.08
432.97	4905.76
433.16	4950.23
433.35	4603.83
433.54	4662.35
433.72	4732.56
433.91	4795.76
434.10	4889.38
434.28	4863.63
434.47	4875.34
434.66	4945.55
434.85	5018.11
435.03	5123.43
435.22	5076.62
435.41	5135.14
435.59	5142.16
435.78	5231.10
435.97	5156.20
436.16	5153.86
436.34	5151.52
436.53	5163.22
436.72	5249.82
436.90	4983.00
437.09	5233.44
437.28	5081.30
437.46	5191.31
437.65	5130.45
437.84	5238.12
438.02	5146.84
438.21	5294.29
438.40	5102.37
438.58	5607.92
438.77	5542.39
438.96	5540.05
439.14	5617.29
439.33	5785.80
439.52	5729.63
439.70	5776.44
439.89	5741.33
440.08	5708.57
440.26	5781.12
440.45	5650.05
440.63	5980.07
440.82	6038.58
441.01	6097.10
441.19	5982.41
441.38	6157.95
441.57	6085.39
441.75	6242.21
441.94	6338.17
442.12	6544.14
442.31	6593.29
442.50	6422.43
442.68	6359.24
442.87	6274.98
443.05	6349.87
443.24	6483.28
443.43	6511.37
443.61	6494.99
443.80	6647.12
443.98	6314.77
444.17	6272.64
444.35	6689.25
444.54	6743.08
444.73	6597.97
444.91	6710.32
445.10	6635.42
445.28	6551.16
445.47	6464.56
445.65	6715.00
445.84	6576.91
446.02	6820.32
446.21	6649.46
446.39	6590.95
446.58	6560.52
446.77	6792.23
446.95	6609.67
447.14	6843.73
447.32	6960.75
447.51	6827.34
447.69	6726.70
447.88	6654.14
448.06	6857.77
448.25	6796.92
448.43	6696.27
448.62	6731.38
448.80	6761.81
448.99	6932.67
449.17	6806.28
449.36	6827.34
449.54	6942.03
449.73	7007.56
449.91	7068.42
450.10	7215.87
450.28	7131.61
450.46	7267.36
450.65	7218.21
450.83	7250.98
451.02	7218.21
451.20	7297.79
451.39	7391.41
451.57	7328.22
451.76	7204.17
451.94	7248.64
452.13	7159.70
452.31	7382.05
452.49	7206.51
452.68	7258.00
452.86	7239.28
453.05	7293.11
453.23	7541.21
453.42	7456.95
453.60	7290.77
453.78	7590.36
453.97	7468.65
454.15	7162.04
454.34	7307.15
454.52	7566.95
454.70	7578.65
454.89	7632.49
455.07	7620.78
455.26	7632.49
455.44	7784.62
455.62	7754.19
455.81	7857.18
455.99	7927.39
456.17	7721.43
456.36	7915.69
456.54	8107.62
456.73	8163.79
456.91	8121.66
457.09	8037.40
457.28	8210.60
457.46	8198.90
457.64	8210.60
457.83	8187.19
458.01	8285.50
458.19	8238.69
458.38	8088.89
458.56	8299.54
458.74	8379.12
458.93	8435.29
459.11	8442.31
459.29	8400.18
459.48	8451.67
459.66	8252.73
459.84	8554.66
460.03	8599.13
460.21	8678.71
460.39	8802.75
460.57	8699.77
460.76	8542.96
460.94	8725.52
461.12	8690.41
461.31	8858.93
461.49	8840.20
461.67	8828.50
461.85	8994.68
462.04	8730.20
462.22	9334.06
462.40	9041.49
462.59	9001.70
462.77	9163.20
462.95	9057.87
463.13	9078.94
463.32	9160.86
463.50	9135.11
463.68	9170.22
463.86	9011.06
464.05	8950.21
464.23	8919.78
464.41	9006.38
464.59	9109.36
464.78	9303.63
464.96	9151.49
465.14	9107.02
465.32	9324.69
465.50	9186.60
465.69	9418.32
465.87	9479.17
466.05	9378.53
466.23	9224.05
466.41	9448.74
466.60	9502.58
466.78	9343.42
466.96	9596.20
467.14	9320.01
467.32	9514.28
467.51	9530.66
467.69	8975.95
467.87	9514.28
468.05	9509.60
468.23	9664.07
468.41	9343.42
468.60	9734.29
468.78	9474.49
468.96	9472.15
469.14	9774.08
469.32	9788.12
469.50	9647.69
469.69	9827.91
469.87	9902.81
470.05	10001.11
470.23	10066.64
470.41	9755.35
470.59	10024.51
470.77	9912.17
470.95	9994.09
471.14	10169.63
471.32	10064.30
471.50	10246.87
471.68	10375.59
471.86	10382.62
472.04	10436.45
472.22	10705.61
472.40	10445.81
472.58	10413.04
472.77	10602.63
472.95	10525.39
473.13	10824.98
473.31	10663.48
473.49	10771.15
473.67	10740.72
473.85	10733.70
474.03	11112.86
474.21	11035.63
474.39	11117.54
474.57	11173.72
474.75	11297.77
474.93	11157.33
475.12	11225.21
475.30	11667.57
475.48	11300.11
475.66	11403.09
475.84	11382.03
476.02	11573.95
476.20	11463.94
476.38	11700.34
476.56	12004.61
476.74	11920.35
476.92	12018.65
477.10	12187.17
477.28	12393.14
477.46	12013.97
477.64	12311.22
477.82	12425.90
478.00	12648.26
478.18	12636.55
478.36	12809.75
478.54	12912.74
478.72	12858.90
478.90	13053.17
479.08	13083.59
479.26	13425.31
479.44	13249.77
479.62	13439.36
479.80	13418.29
479.98	13341.05
480.16	13659.37
480.34	13743.63
480.52	13579.79
480.70	13802.14
480.88	13816.18
481.06	14085.34
481.24	14265.57
481.41	14331.10
481.59	14562.81
481.77	14621.33
481.95	14738.35
482.13	14862.40
482.31	14801.55
482.49	15005.17
482.67	15012.20
482.85	15115.18
483.03	15307.10
483.21	15290.72
483.39	15417.11
483.57	15543.50
483.74	15454.56
483.92	15761.17
484.10	15803.30
484.28	16025.65
484.46	16264.38
484.64	16500.78
484.82	16519.50
485.00	16271.40
485.18	16748.87
485.35	16603.76
485.53	16219.91
485.71	16292.47
485.89	16833.13
486.07	16748.87
486.25	17013.35
486.43	16950.16
486.61	17362.09
486.78	17317.62
486.96	17687.43
487.14	17844.24
487.32	17673.39
487.50	17928.50
487.68	18277.24
487.85	18817.91
488.03	19042.60
488.21	18565.13
488.39	18483.21
488.57	18789.82
488.75	18965.36
488.92	19330.48
489.10	19248.57
489.28	19838.38
489.46	19655.82
489.64	20037.33
489.81	20095.84
489.99	20290.10
490.17	20320.53
490.35	20322.87
490.53	20528.84
490.70	20542.88
490.88	20542.88
491.06	21116.31
491.24	20889.28
491.41	20964.18
491.59	20788.64
491.77	20706.72
491.95	21158.44
492.13	21692.08
492.30	21792.73
492.48	21928.48
492.66	22153.17
492.84	21884.01
493.01	22342.75
493.19	22354.46
493.37	22551.06
493.54	22651.70
493.72	22838.95
493.90	23009.81
494.08	22939.59
494.25	23454.51
494.43	23337.48
494.61	23632.39
494.79	23674.52
494.96	23667.50
495.14	23716.65
495.32	23953.04
495.49	23903.89
495.67	24011.56
495.85	24315.83
496.02	24533.50
496.20	24659.88
496.38	24409.45
496.55	24744.14
496.73	25249.70
496.91	24840.11
497.09	25240.34
497.26	25319.92
497.44	25060.12
497.62	25228.63
497.79	25521.20
497.97	25380.77
498.14	25546.95
498.32	25781.00
498.50	25872.28
498.67	26129.74
498.85	26181.23
499.03	26635.30
499.20	26625.93
499.38	26202.30
499.56	26384.86
499.73	26888.07
499.91	26773.39
500.08	26478.48
500.26	26532.31
500.44	26906.80
500.61	26993.40
500.79	26806.16
500.97	27089.36
501.14	27395.97
501.32	26995.74
501.49	27470.87
501.67	27414.69
501.84	27515.34
502.02	27477.89
502.20	27793.86
502.37	28009.19
502.55	28077.07
502.72	28198.77
502.90	28180.05
503.07	28589.64
503.25	28432.83
503.43	28584.96
503.60	28350.91
503.78	27988.13
503.95	28257.29
504.13	28664.54
504.30	28816.68
504.48	29113.92
504.65	29003.92
504.83	29195.84
505.01	29261.38
505.18	29530.54
505.36	29914.39
505.53	29734.17
505.71	29893.32
505.88	29989.28
506.06	29425.22
506.23	29680.33
506.41	29862.90
506.58	29998.65
506.76	30101.63
506.93	30249.08
507.11	30089.93
507.28	30279.51
507.46	30066.52
507.63	29944.81
507.81	30534.63
507.98	30529.95
508.16	30857.62
508.33	30857.62
508.50	31307.01
508.68	31098.70
508.85	31197.00
509.03	30712.51
509.20	31557.44
509.38	31395.95
509.55	31229.77
509.73	31419.35
509.90	31852.35
510.08	31531.70
510.25	31620.64
510.42	31761.07
510.60	31639.36
510.77	32346.20
510.95	32327.48
511.12	32313.44
511.30	32144.92
511.47	32425.78
511.64	32664.52
511.82	32718.35
511.99	32716.01
512.17	32769.84
512.34	32346.20
512.51	33303.48
512.69	33064.75
512.86	32767.50
513.04	33060.07
513.21	33015.60
513.38	33397.10
513.56	33153.69
513.73	32809.63
513.90	33497.75
514.08	33378.38
514.25	33125.60
514.43	33434.55
514.60	33233.27
514.77	33502.43
514.95	33666.27
515.12	33762.23
515.29	33495.41
515.47	33977.56
515.64	34356.72
515.81	34113.31
515.99	34263.10
516.16	33937.77
516.33	33940.11
516.51	33933.09
516.68	34052.45
516.85	33535.20
517.03	33837.12
517.20	34408.22
517.37	34448.00
517.54	34838.87
517.72	34572.05
517.89	34281.83
518.06	34389.49
518.24	33961.17
518.41	34668.02
518.58	34852.92
518.75	34698.44
518.93	35019.10
519.10	34937.18
519.27	35344.43
519.45	35211.02
519.62	35571.46
519.79	35424.01
519.96	36266.60
520.14	35391.24
520.31	35330.39
520.48	35828.92
520.65	35798.49
520.83	36058.29
521.00	36070.00
521.17	35967.01
521.34	35711.89
521.52	36231.49
521.69	36561.51
521.86	36570.87
522.03	36694.92
522.20	36341.50
522.38	36732.37
522.55	36591.94
522.72	36842.37
522.89	36891.52
523.07	36800.24
523.24	36699.60
523.41	37167.71
523.58	37223.88
523.75	37560.92
523.92	37432.19
524.10	37010.89
524.27	37467.30
524.44	37340.91
524.61	37427.51
524.78	37771.57
524.96	37804.33
525.13	37551.56
525.30	38134.35
525.47	37818.38
525.64	37986.89
525.81	37766.88
525.98	37560.92
526.16	37380.70
526.33	37479.00
526.50	37483.68
526.67	37488.36
526.84	38007.96
527.01	37989.24
527.18	38026.68
527.36	38249.03
527.53	38665.65
527.70	38916.09
527.87	38969.92
528.04	38274.78
528.21	38862.26
528.38	38909.07
528.55	38796.72
528.72	38852.89
528.89	39545.69
529.07	39047.16
529.24	38862.26
529.41	39243.76
529.58	38843.53
529.75	39091.63
529.92	39395.90
530.09	39716.55
530.26	39229.72
530.43	39402.92
530.60	39524.63
530.77	39732.93
530.94	39688.46
531.11	39742.30
531.28	39796.13
531.46	39723.57
531.63	39718.89
531.80	39868.69
531.97	39510.58
532.14	39489.52
532.31	39606.55
532.48	39864.00
532.65	39906.13
532.82	39964.65
532.99	40051.25
533.16	39831.24
533.33	40650.42
533.50	39992.73
533.67	40184.66
533.84	40554.46
534.01	40561.48
534.18	40477.22
534.35	40620.00
534.52	40161.25
534.69	40348.50
534.86	40933.63
535.03	40381.26
535.20	41153.64
535.37	41146.62
535.54	40657.45
535.71	41053.00
535.88	41113.85
536.05	40741.71
536.22	40704.26
536.38	40774.47
536.55	41273.01
536.72	40921.93
536.89	40573.19
537.06	41165.34
537.23	41490.68
537.40	41153.64
537.57	41329.18
537.74	41579.62
537.91	41752.82
538.08	41429.82
538.25	41155.98
538.42	41563.23
538.59	41565.57
538.75	41322.16
538.92	41846.44
539.09	41797.29
539.26	41890.91
539.43	41902.61
539.60	41549.19
539.77	41221.52
539.94	41844.10
540.11	41181.73
540.28	41832.39
540.44	41816.01
540.61	41989.21
540.78	41331.52
540.95	42305.18
541.12	41600.68
541.29	42305.18
541.46	42164.75
541.62	41984.53
541.79	41940.06
541.96	42195.18
542.13	42066.45
542.30	42398.80
542.47	42218.58
542.63	42417.53
542.80	42700.73
542.97	42555.62
543.14	42698.39
543.31	42841.17
543.48	42457.32
543.64	43122.03
543.81	43033.09
543.98	43187.56
544.15	43290.55
544.32	43519.92
544.48	43103.31
544.65	42923.08
544.82	43255.44
544.99	43351.40
545.16	43351.40
545.32	43126.71
545.49	43658.01
545.66	43716.53
545.83	43372.47
546.00	43365.45
546.16	43180.54
546.33	43332.68
546.50	43206.29
546.67	43676.74
546.83	43079.90
547.00	43646.31
547.17	43152.46
547.34	43501.20
547.50	43571.41
547.67	43847.60
547.84	43840.57
548.00	44360.17
548.17	44308.68
548.34	43707.16
548.51	44383.58
548.67	44109.74
548.84	44252.51
549.01	43913.13
549.18	43784.40
549.34	44100.37
549.51	44392.94
549.68	44177.61
549.84	44109.74
550.01	44474.86
550.18	44158.89
550.34	44566.14
550.51	43990.37
550.68	44521.67
550.84	43887.39
551.01	44388.26
551.18	44186.97
551.34	44266.55
551.51	44322.72
551.68	44509.97
551.84	44421.03
552.01	44418.69
552.18	44238.47
552.34	43927.17
552.51	44760.40
552.68	44634.02
552.84	44968.71
553.01	45184.04
553.18	44631.68
553.34	44570.82
553.51	44659.76
553.67	45092.76
553.84	45022.54
554.01	44889.13
554.17	45439.16
554.34	44996.80
554.51	45059.99
554.67	44954.67
554.84	44849.35
555.00	44687.85
555.17	44898.50
555.33	45242.56
555.50	44648.06
555.67	45027.23
555.83	45024.89
556.00	44575.50
556.16	45282.34
556.33	44694.87
556.50	45109.14
556.66	45284.68
556.83	44917.22
556.99	45205.11
557.16	45422.78
557.32	45111.49
557.49	45148.93
557.65	44968.71
557.82	45191.06
557.98	45069.36
558.15	45528.10
558.32	45385.33
558.48	45207.45
558.65	45509.38
558.81	44886.79
558.98	45432.14
559.14	45570.23
559.31	45008.50
559.47	45626.40
559.64	45504.70
559.80	45471.93
559.97	45364.26
560.13	45141.91
560.30	45399.37
560.46	45481.29
560.63	45818.33
560.79	45823.01
560.96	45553.85
561.12	45514.06
561.29	45525.76
561.45	45546.82
561.61	45680.24
561.78	45556.19
561.94	45488.31
562.11	45577.25
562.27	45563.21
562.44	45778.54
562.60	45799.60
562.77	45418.10
562.93	45771.52
563.10	46216.22
563.26	45614.70
563.42	45727.05
563.59	45778.54
563.75	45734.07
563.92	45972.80
564.08	45549.17
564.24	45904.93
564.41	45687.26
564.57	45944.72
564.74	45874.50
564.90	45652.15
565.07	45762.15
565.23	45895.56
565.39	45705.98
565.56	45787.90
565.72	45478.95
565.88	45574.91
566.05	45738.75
566.21	45937.69
566.38	45902.59
566.54	46174.09
566.70	45830.03
566.87	46330.90
567.03	46026.63
567.19	46595.38
567.36	46092.17
567.52	46045.36
567.68	46026.63
567.85	45705.98
568.01	45961.10
568.17	46190.47
568.34	46323.88
568.50	45839.39
568.66	45832.37
568.83	46000.89
568.99	45635.77
569.15	46061.74
569.32	45661.51
569.48	45914.29
569.64	46204.52
569.81	46141.32
569.97	45839.39
570.13	46026.63
570.30	45338.52
570.46	46218.56
570.62	45221.49
570.78	45862.80
570.95	45595.98
571.11	45989.19
571.27	45551.51
571.43	45823.01
571.60	46246.65
571.76	45624.06
571.92	46120.26
572.09	46185.79
572.25	46223.24
572.41	46307.50
572.57	46358.99
572.74	46728.80
572.90	46316.86
573.06	46157.70
573.22	46361.33
573.38	46181.11
573.55	45544.48
573.71	46314.52
573.87	46429.21
574.03	46216.22
574.20	46113.23
574.36	46052.38
574.52	45958.76
574.68	46183.45
574.84	46209.20
575.01	46309.84
575.17	45956.42
575.33	46153.02
575.49	46108.55
575.65	46445.59
575.82	46483.04
575.98	46024.29
576.14	46050.04
576.30	46387.08
576.46	46099.19
576.62	46330.90
576.79	46101.53
576.95	46047.70
577.11	46366.01
577.27	46387.08
577.43	45881.52
577.59	46019.61
577.75	46068.76
577.92	45621.72
578.08	45511.72
578.24	45944.72
578.40	46019.61
578.56	46237.28
578.72	45970.46
578.88	46380.06
579.04	46141.32
579.21	46038.34
579.37	46476.02
579.53	46333.24
579.69	45895.56
579.85	46218.56
580.01	46831.78
580.17	46127.28
580.33	46080.47
580.49	46248.99
580.65	46033.66
580.82	46117.92
580.98	45825.35
581.14	46160.05
581.30	46483.04
581.46	46239.62
581.62	46340.27
581.78	46171.75
581.94	46738.16
582.10	46429.21
582.26	46080.47
582.42	46536.87
582.58	46770.93
582.74	46550.91
582.90	46361.33
583.06	46234.94
583.22	46438.57
583.38	46852.84
583.54	46593.04
583.70	46593.04
583.86	46616.45
584.02	46211.54
584.18	46447.93
584.34	46237.28
584.50	46349.63
584.66	46447.93
584.82	46286.43
584.98	46454.95
585.14	46408.14
585.30	46356.65
585.46	46539.21
585.62	45972.80
585.78	46014.93
585.94	45743.43
586.10	46312.18
586.26	45783.22
586.42	46438.57
586.58	46579.00
586.74	46216.22
586.90	46295.80
587.06	46169.41
587.22	46071.10
587.38	46085.15
587.54	46328.56
587.70	46593.04
587.86	46454.95
588.02	46422.19
588.18	46431.55
588.34	46122.60
588.49	45734.07
588.65	45715.34
588.81	45914.29
588.97	45844.07
589.13	45682.58
589.29	46021.95
589.45	45916.63
589.61	45986.85
589.77	46131.96
589.93	46522.83
590.08	46127.28
590.24	46600.07
590.40	46667.94
590.56	46681.98
590.72	46106.21
590.88	46012.59
591.04	46361.33
591.20	46873.91
591.35	47037.75
591.51	46920.72
591.67	46476.02
591.83	46450.27
591.99	46078.13
592.15	46342.61
592.31	46354.31
592.46	46461.97
592.62	46461.97
592.78	46534.53
592.94	46698.37
593.10	46508.79
593.26	46689.01
593.41	46550.91
593.57	46061.74
593.73	46347.29
593.89	46452.61
594.05	46686.67
594.20	46557.94
594.36	46337.93
594.52	46630.49
594.68	46447.93
594.84	45769.18
594.99	46689.01
595.15	46813.05
595.31	46855.18
595.47	46511.13
595.62	46478.36
595.78	46607.09
595.94	46440.91
596.10	46450.27
596.25	46281.75
596.41	46679.64
596.57	46131.96
596.73	46696.03
596.88	46469.00
597.04	46476.02
597.20	46153.02
597.36	46417.50
597.51	46752.20
597.67	46719.43
597.83	46663.26
597.99	46831.78
598.14	46595.38
598.30	46443.25
598.46	46389.42
598.61	46541.55
598.77	46227.92
598.93	46539.21
599.09	46532.19
599.24	47140.73
599.40	46883.27
599.56	46803.69
599.71	46487.72
599.87	46726.46
600.03	46651.56
600.18	46333.24
600.34	46768.58
600.50	46347.29
600.65	46007.91
600.81	46461.97
600.97	46742.84
601.12	46469.00
601.28	46883.27
601.44	46398.78
601.59	46696.03
601.75	46429.21
601.91	46417.50
602.06	46623.47
602.22	46436.23
602.37	46162.39
602.53	46635.17
602.69	46763.90
602.84	46677.30
603.00	46347.29
603.16	46422.19
603.31	46440.91
603.47	46560.28
603.62	46611.77
603.78	46490.06
603.94	46801.35
604.09	46562.62
604.25	46384.74
604.40	46480.70
604.56	46167.07
604.71	46504.10
604.87	46644.54
605.03	46579.00
605.18	46403.46
605.34	46164.73
605.49	46012.59
605.65	46478.36
605.80	46459.63
605.96	46225.58
606.12	46251.33
606.27	46131.96
606.43	46202.18
606.58	46527.51
606.74	46483.04
606.89	46115.58
607.05	46309.84
607.20	46691.35
607.36	46288.77
607.51	46384.74
607.67	46321.54
607.82	46164.73
607.98	45909.61
608.13	46340.27
608.29	45923.65
608.44	45708.32
608.60	45787.90
608.75	46068.76
608.91	46370.69
609.06	45703.64
609.22	46461.97
609.37	45607.68
609.53	46099.19
609.68	46293.46
609.84	45909.61
609.99	45975.14
610.15	45336.18
610.30	45846.41
610.46	45390.01
610.61	46017.27
610.76	46117.92
610.92	45862.80
611.07	45832.37
611.23	46033.66
611.38	45977.48
611.54	45666.19
611.69	45951.74
611.84	46087.49
612.00	45507.04
612.15	45895.56
612.31	46087.49
612.46	45584.27
612.62	46150.68
612.77	45551.51
612.92	46024.29
613.08	45464.91
613.23	45244.90
613.39	44809.56
613.54	44992.12
613.69	45289.37
613.85	44830.62
614.00	45572.57
614.15	45125.53
614.31	45727.05
614.46	45532.78
614.62	45469.59
614.77	45015.52
614.92	45219.15
615.08	45668.53
615.23	45244.90
615.38	45083.40
615.54	45109.14
615.69	45195.74
615.84	45249.58
616.00	45181.70
616.15	45141.91
616.30	45439.16
616.46	44992.12
616.61	44697.21
616.76	44903.18
616.92	44512.31
617.07	44882.11
617.22	44662.10
617.37	45078.72
617.53	44912.54
617.68	45116.17
617.83	45261.28
617.99	44542.74
618.14	44451.45
618.29	44912.54
618.45	44430.39
618.60	44477.20
618.75	44554.44
618.90	44650.40
619.06	44601.25
619.21	44680.83
619.36	44430.39
619.51	44741.68
619.67	44451.45
619.82	44655.08
619.97	44591.89
620.12	43908.45
620.28	43936.54
620.43	44210.38
620.58	44304.00
620.73	44458.48
620.89	44605.93
621.04	44229.10
621.19	44322.72
621.34	44201.02
621.49	43901.43
621.65	44285.28
621.80	44566.14
621.95	43995.05
622.10	44285.28
622.25	44315.70
622.41	44165.91
622.56	44236.12
622.71	44011.43
622.86	43917.81
623.01	44011.43
623.16	44032.50
623.32	44215.06
623.47	43838.23
623.62	43885.04
623.77	43475.45
623.92	44013.77
624.07	43880.36
624.23	43466.09
624.38	43824.19
624.53	43503.54
624.68	43988.03
624.83	43608.86
624.98	43728.23
625.13	43335.02
625.29	43751.63
625.44	42916.06
625.59	43143.09
625.74	43524.60
625.89	43185.22
626.04	43763.34
626.19	43292.89
626.34	43283.53
626.49	43625.25
626.65	43168.84
626.80	43311.61
626.95	43012.02
627.10	42375.40
627.25	43426.30
627.40	43180.54
627.55	42792.01
627.70	42808.40
627.85	42672.65
628.00	42909.04
628.15	42885.64
628.30	43037.77
628.45	42923.08
628.60	43056.50
628.76	42733.50
628.91	42775.63
629.06	42873.93
629.21	42745.20
629.36	42927.77
629.51	42515.83
629.66	42564.98
629.81	42366.04
629.96	42562.64
630.11	42202.20
630.26	42501.79
630.41	42356.67
630.56	42354.33
630.71	42424.55
630.86	42330.93
631.01	42340.29
631.16	42199.86
631.31	41708.35
631.46	41757.50
631.61	42003.25
631.76	42092.19
631.91	42143.69
632.06	42150.71
632.21	41727.07
632.36	42714.78
632.51	41808.99
632.66	42534.56
632.81	42108.58
632.96	42096.88
633.10	42033.68
633.25	42075.81
633.40	42218.58
633.55	42328.59
633.70	42043.04
633.85	42000.91
634.00	41911.97
634.15	41694.30
634.30	41577.28
634.45	41364.29
634.60	41392.37
634.75	41383.01
634.90	42082.83
635.05	41610.04
635.19	42136.66
635.34	42274.76
635.49	41621.75
635.64	41326.84
635.79	41565.57
635.94	41198.11
636.09	41532.81
636.24	40980.44
636.39	41319.82
636.53	41361.95
636.68	41324.50
636.83	41511.74
636.98	41448.55
637.13	40898.52
637.28	41984.53
637.43	41654.51
637.57	41523.44
637.72	41015.55
637.87	41207.47
638.02	41228.54
638.17	41610.04
638.32	41111.51
638.46	41137.26
638.61	40914.90
638.76	41074.06
638.91	40905.54
639.06	41205.13
639.20	41261.30
639.35	41109.17
639.50	41081.08
639.65	40760.43
639.80	40832.99
639.94	40524.04
640.09	40935.97
640.24	40659.79
640.39	40587.23
640.54	40861.07
640.68	40505.31
640.83	40357.86
640.98	40594.25
641.13	40435.10
641.27	40715.96
641.42	40383.60
641.57	40355.52
641.72	40746.39
641.86	40285.30
642.01	40074.65
642.16	40086.36
642.31	39934.22
642.45	40776.81
642.60	39510.58
642.75	40367.22
642.90	40240.83
643.04	40198.70
643.19	40203.38
643.34	39826.56
643.48	39864.00
643.63	40236.15
643.78	40151.89
643.93	40137.85
644.07	40011.46
644.22	39658.04
644.37	39920.18
644.51	39950.60
644.66	40147.21
644.81	39875.71
644.95	40048.91
645.10	39714.21
645.25	39828.90
645.39	39739.96
645.54	39871.03
645.69	39882.73
645.83	39508.24
645.98	39629.95
646.13	39599.52
646.27	39332.70
646.42	39519.95
646.57	39285.89
646.71	39550.37
646.86	39559.73
647.00	39615.91
647.15	39330.36
647.30	39309.30
647.44	39250.78
647.59	39728.25
647.74	39306.96
647.88	39082.27
648.03	39349.09
648.17	39339.72
648.32	39222.70
648.47	39316.32
648.61	38625.86
648.76	39143.12
648.90	39253.12
649.05	39124.40
649.20	39255.46
649.34	38873.96
649.49	38759.27
649.63	38932.47
649.78	39192.27
649.92	39068.22
650.07	39491.86
650.21	38782.68
650.36	39079.92
650.51	38878.64
650.65	39601.86
650.80	39313.98
650.94	39129.08
651.09	39182.91
651.23	38852.89
651.38	38494.79
651.52	38337.98
651.67	38628.20
651.81	38443.30
651.96	38316.91
652.10	38749.91
652.25	38513.52
652.39	38850.55
652.54	38918.43
652.68	38553.30
652.83	38974.60
652.97	38873.96
653.12	38899.70
653.26	38335.63
653.41	38256.06
653.55	38515.86
653.70	38218.61
653.84	38335.63
653.99	38185.84
654.13	38438.62
654.27	38485.43
654.42	38569.69
654.56	38120.31
654.71	37862.85
654.85	37930.72
655.00	37958.81
655.14	37958.81
655.29	37745.82
655.43	37792.63
655.57	37195.79
655.72	37385.38
655.86	37518.79
656.01	37137.28
656.15	37055.36
656.30	37179.41
656.44	37361.97
656.58	37752.84
656.73	37434.53
656.87	37586.66
657.01	37404.10
657.16	37373.67
657.30	37067.06
657.45	37198.13
657.59	37266.01
657.73	37392.40
657.88	38003.28
658.02	37163.03
658.16	37619.43
658.31	37706.03
658.45	37703.69
658.60	37324.52
658.74	37453.25
658.88	37029.62
659.03	36863.44
659.17	37141.96
659.31	37046.00
659.46	37067.06
659.60	36928.97
659.74	36692.58
659.89	36690.24
660.03	36608.32
660.17	37387.72
660.32	36989.83
660.46	36814.29
660.60	36872.80
660.74	36381.29
660.89	36437.46
661.03	36231.49
661.17	36404.69
661.32	36165.96
661.46	36189.36
661.60	36222.13
661.74	36280.64
661.89	36350.86
662.03	36467.89
662.17	36168.30
662.31	36023.19
662.46	36458.52
662.60	36165.96
662.74	35910.84
662.88	36030.21
663.03	35473.16
663.17	36201.07
663.31	35634.66
663.45	35777.43
663.60	35512.95
663.74	35644.02
663.88	35424.01
664.02	35328.05
664.17	35709.55
664.31	34932.50
664.45	35297.62
664.59	35400.60
664.73	35384.22
664.88	34885.68
665.02	34785.04
665.16	34979.31
665.30	34958.24
665.44	34916.11
665.59	34761.64
665.73	34967.60
665.87	34628.23
666.01	34689.08
666.15	34831.85
666.29	34960.58
666.44	35047.18
666.58	34469.07
666.72	34679.72
666.86	34543.97
667.00	34705.46
667.14	34405.88
667.28	34457.37
667.43	34061.82
667.57	34403.53
667.71	34330.98
667.85	33949.47
667.99	34492.47
668.13	34085.22
668.27	34160.12
668.41	34000.96
668.56	33593.71
668.70	33958.83
668.84	33535.20
668.98	33535.20
669.12	33364.34
669.26	33872.23
669.40	33610.09
669.54	33441.57
669.68	33369.02
669.82	32861.12
669.96	33305.82
670.10	33638.18
670.25	33177.09
670.39	32966.45
670.53	33242.63
670.67	32966.45
670.81	32816.65
670.95	33090.49
671.09	32807.29
671.23	32477.27
671.37	32376.63
671.51	32641.11
671.65	32790.91
671.79	32278.33
671.93	32285.35
672.07	32594.30
672.21	32278.33
672.35	32493.66
672.49	32142.58
672.63	32198.75
672.77	32306.41
672.91	32397.70
673.05	31903.84
673.19	31812.56
673.33	31765.75
673.47	31814.90
673.61	31683.83
673.75	31648.72
673.89	31566.81
674.03	31749.37
674.17	31255.51
674.31	31021.46
674.45	31409.99
674.59	31421.69
674.73	31356.16
674.87	31580.85
675.01	30747.62
675.15	31075.29
675.29	30979.33
675.43	30766.34
675.56	30871.67
675.70	30562.72
675.84	30981.67
675.98	29858.21
676.12	30733.57
676.26	30712.51
676.40	30728.89
676.54	30487.82
676.68	30066.52
676.82	30015.03
676.96	29617.14
677.10	29888.64
677.23	29923.75
677.37	30073.54
677.51	29914.39
677.65	29523.52
677.79	29226.27
677.93	28896.25
678.07	28910.30
678.21	28985.19
678.34	28886.89
678.48	28879.87
678.62	28793.27
678.76	28343.89
678.90	28830.72
679.04	28374.31
679.18	28804.97
679.31	28362.61
679.45	27892.16
679.59	28173.03
679.73	28512.41
679.87	28208.14
680.00	28116.86
680.14	28070.04
680.28	27810.25
680.42	27447.46
680.56	27976.42
680.70	27843.01
680.83	27468.53
680.97	27576.19
681.11	27393.63
681.25	27398.31
681.39	27271.92
681.52	27288.31
681.66	27082.34
681.80	27112.77
681.94	27047.23
682.07	26848.29
682.21	26923.18
682.35	26417.63
682.49	26675.09
682.62	26225.70
682.76	25872.28
682.90	26312.30
683.04	26134.42
683.17	26019.74
683.31	26054.84
683.45	26134.42
683.59	25813.77
683.72	25605.46
683.86	25500.14
684.00	25610.14
684.13	25600.78
684.27	25427.58
684.41	25153.74
684.55	25385.45
684.68	24807.34
684.82	25125.65
684.96	24978.20
685.09	24957.13
685.23	24877.55
685.37	24954.79
685.50	24673.93
685.64	24737.12
685.78	24360.30
685.91	24276.04
686.05	23976.45
686.19	23658.14
686.32	23861.76
686.46	23379.61
686.60	23285.99
686.73	23377.27
686.87	22991.08
687.01	23283.65
687.14	22958.31
687.28	22874.06
687.42	22902.14
687.55	22848.31
687.69	23281.31
687.82	22768.73
687.96	22951.29
688.10	22766.39
688.23	22810.86
688.37	22824.90
688.50	22576.81
688.64	22923.21
688.78	22452.76
688.91	22118.06
689.05	22274.88
689.18	22471.48
689.32	21549.31
689.46	22207.00
689.59	22232.75
689.73	22307.65
689.86	22001.04
690.00	21631.23
690.13	21369.09
690.27	21312.92
690.41	21331.64
690.54	21259.09
690.68	21231.00
690.81	21329.30
690.95	21247.38
691.08	21160.78
691.22	21287.17
691.35	21003.97
691.49	21006.31
691.62	20919.71
691.76	20957.16
691.89	20638.84
692.03	20617.78
692.16	20744.17
692.30	20526.50
692.43	20259.68
692.57	20056.05
692.70	20067.75
692.84	20208.19
692.97	19758.80
693.11	19868.81
693.24	19569.22
693.38	19571.56
693.51	19803.27
693.65	19913.28
693.78	19396.02
693.92	19482.62
694.05	19489.64
694.19	19564.54
694.32	19365.59
694.45	19389.00
694.59	19145.58
694.72	19314.10
694.86	19094.09
694.99	18541.72
695.13	18843.65
695.26	18771.10
695.39	18780.46
695.53	18724.29
695.66	18567.47
695.80	18665.77
695.93	18537.04
696.07	18120.43
696.20	18242.14
696.33	18565.13
696.47	18380.23
696.60	18113.41
696.73	17872.33
696.87	17940.21
697.00	17745.94
697.14	17628.92
697.27	17703.81
697.40	17280.18
697.54	17502.53
697.67	17418.27
697.80	17109.32
697.94	17165.49
698.07	17205.28
698.21	17114.00
698.34	17235.70
698.47	16985.27
698.61	16936.12
698.74	16868.24
698.87	16812.07
699.01	16732.49
699.14	16350.98
699.27	16456.31
699.40	16737.17
699.54	16475.03
699.67	16077.14
699.80	16231.62
699.94	15896.92
700.07	16217.57
700.20	16276.09
700.34	15742.44
700.47	16212.89
700.60	15988.20
700.73	16074.80
700.87	15978.84
701.00	15510.73
701.13	15534.14
701.26	15431.15
701.40	15552.86
701.53	15346.89
701.66	15552.86
701.79	15068.37
701.93	15215.82
702.06	14745.38
702.19	14766.44
702.32	14843.68
702.46	14937.30
702.59	14986.45
702.72	14813.25
702.85	14562.81
702.99	14724.31
703.12	14614.30
703.25	14516.00
703.38	14377.91
703.51	14506.64
703.65	14307.69
703.78	14092.37
703.91	14064.28
704.04	13958.96
704.17	14132.15
704.31	13837.25
704.44	13844.27
704.57	13467.44
704.70	13710.86
704.83	13582.13
704.96	13626.60
705.10	13839.59
705.23	13614.90
>>>>>End Processed Spectral Data<<<<<
