SpectraSuite Data File
++++++++++++++++++++++++++++++++++++
Date: Fri Oct 25 11:33:23 EDT 2013
User: price-jones
Dark Spectrum Present: No
Reference Spectrum Present: No
Number of Sampled Component Spectra: 1
Spectrometers: USB2+H05261
Integration Time (usec): 100000 (USB2+H05261)
Spectra Averaged: 1 (USB2+H05261)
Boxcar Smoothing: 0 (USB2+H05261)
Correct for Electrical Dark: No (USB2+H05261)
Strobe/Lamp Enabled: No (USB2+H05261)
Correct for Detector Non-linearity: No (USB2+H05261)
Correct for Stray Light: No (USB2+H05261)
Number of Pixels in Processed Spectrum: 2048
>>>>>Begin Processed Spectral Data<<<<<
365.73	248.10
365.92	248.10
366.12	248.10
366.32	112.35
366.52	152.13
366.72	184.90
366.91	168.52
367.11	126.39
367.31	220.01
367.51	184.90
367.70	128.73
367.90	231.71
368.10	187.24
368.30	170.86
368.49	180.22
368.69	208.31
368.89	147.45
369.09	217.67
369.28	236.39
369.48	236.39
369.68	210.65
369.87	222.35
370.07	229.37
370.27	322.99
370.47	346.40
370.66	454.06
370.86	484.49
371.06	571.09
371.25	543.00
371.45	596.84
371.65	587.47
371.84	575.77
372.04	482.15
372.24	568.75
372.44	540.66
372.63	575.77
372.83	603.86
373.03	603.86
373.22	615.56
373.42	582.79
373.62	608.54
373.81	575.77
374.01	624.92
374.21	566.41
374.40	674.07
374.60	641.31
374.79	622.58
374.99	655.35
375.19	678.76
375.38	734.93
375.58	643.65
375.78	634.29
375.97	723.23
376.17	704.50
376.37	610.88
376.56	662.37
376.76	709.18
376.95	774.72
377.15	641.31
377.35	674.07
377.54	711.52
377.74	674.07
377.93	645.99
378.13	664.71
378.33	697.48
378.52	692.80
378.72	730.25
378.91	767.70
379.11	685.78
379.31	716.20
379.50	690.46
379.70	704.50
379.89	699.82
380.09	704.50
380.28	620.24
380.48	711.52
380.68	723.23
380.87	723.23
381.07	723.23
381.26	667.05
381.46	713.86
381.65	779.40
381.85	807.48
382.04	814.51
382.24	748.97
382.43	753.65
382.63	767.70
382.83	770.04
383.02	791.10
383.22	959.62
383.41	777.06
383.61	837.91
383.80	758.33
384.00	858.98
384.19	807.48
384.39	819.19
384.58	821.53
384.78	819.19
384.97	847.27
385.17	835.57
385.36	814.51
385.56	908.13
385.75	802.80
385.95	837.91
386.14	894.08
386.34	922.17
386.53	873.02
386.72	849.61
386.92	873.02
387.11	856.64
387.31	837.91
387.50	849.61
387.70	772.38
387.89	919.83
388.09	889.40
388.28	868.34
388.48	903.45
388.67	945.58
388.86	922.17
389.06	954.94
389.25	919.83
389.45	987.71
389.64	964.30
389.84	1034.52
390.03	997.07
390.22	957.28
390.42	917.49
390.61	917.49
390.81	994.73
391.00	1001.75
391.19	1081.33
391.39	1064.94
391.58	997.07
391.78	1130.48
391.97	1043.88
392.16	968.98
392.36	980.68
392.55	1020.47
392.75	1046.22
392.94	1015.79
393.13	1109.41
393.33	1078.99
393.52	999.41
393.71	1062.60
393.91	1057.92
394.10	1074.31
394.29	1107.07
394.49	1069.62
394.68	1212.40
394.88	1193.67
395.07	1137.50
395.26	1107.07
395.46	1146.86
395.65	1184.31
395.84	1203.04
396.04	1238.14
396.23	1142.18
396.42	1198.35
396.62	1156.22
396.81	1212.40
397.00	1268.57
397.19	1345.81
397.39	1221.76
397.58	1198.35
397.77	1263.89
397.97	1256.87
398.16	1266.23
398.35	1310.70
398.55	1221.76
398.74	1289.64
398.93	1249.85
399.12	1261.55
399.32	1411.34
399.51	1380.92
399.70	1352.83
399.90	1404.32
400.09	1280.27
400.28	1338.79
400.47	1401.98
400.67	1439.43
400.86	1387.94
401.05	1357.51
401.24	1432.41
401.44	1404.32
401.63	1490.92
401.82	1423.05
402.01	1394.96
402.21	1472.20
402.40	1474.54
402.59	1530.71
402.78	1458.15
402.97	1483.90
403.17	1589.22
403.36	1598.59
403.55	1488.58
403.74	1612.63
403.93	1626.67
404.13	1589.22
404.32	1614.97
404.51	1638.38
404.70	1600.93
404.89	1678.16
405.09	1767.10
405.28	1706.25
405.47	1753.06
405.66	1696.89
405.85	1743.70
406.05	1816.26
406.24	1732.00
406.43	1741.36
406.62	1839.66
406.81	1837.32
407.00	1727.32
407.20	1804.55
407.39	1795.19
407.58	1863.07
407.77	1893.49
407.96	1923.92
408.15	1891.15
408.34	1842.00
408.54	1940.30
408.73	1844.34
408.92	1928.60
409.11	1928.60
409.30	1940.30
409.49	1900.52
409.68	2083.08
409.87	2050.31
410.07	2036.27
410.26	2064.35
410.45	1937.96
410.64	2057.33
410.83	2125.21
411.02	2160.31
411.21	2113.50
411.40	2221.17
411.59	2176.70
411.78	2225.85
411.98	2090.10
412.17	2225.85
412.36	2291.38
412.55	2366.28
412.74	2345.22
412.93	2544.16
413.12	2267.98
413.31	2333.51
413.50	2436.50
413.69	2495.01
413.88	2562.89
414.07	2438.84
414.26	2431.82
414.45	2574.59
414.64	2516.08
414.83	2661.19
415.02	2574.59
415.22	2656.51
415.41	2810.98
415.60	2684.59
415.79	2836.73
415.98	2743.11
416.17	2780.56
416.36	2691.62
416.55	2710.34
416.74	2846.09
416.93	2719.70
417.12	2754.81
417.31	2876.52
417.50	2712.68
417.69	2979.50
417.88	2918.65
418.07	2902.26
418.26	3005.25
418.45	2981.84
418.64	3096.53
418.83	3108.23
419.02	2979.50
419.21	3089.51
419.39	3150.36
419.58	3075.46
419.77	3225.26
419.96	3129.30
420.15	3192.49
420.34	3054.40
420.53	3143.34
420.72	3311.86
420.91	3115.25
421.10	3232.28
421.29	3311.86
421.48	3204.19
421.67	3225.26
421.86	3288.45
422.05	3239.30
422.24	3382.07
422.43	3375.05
422.61	3356.33
422.80	3384.41
422.99	3295.47
423.18	3480.38
423.37	3393.78
423.56	3412.50
423.75	3375.05
423.94	3288.45
424.13	3089.51
424.32	3176.11
424.50	3379.73
424.69	3527.19
424.88	3534.21
425.07	3396.12
425.26	3314.20
425.45	3396.12
425.64	3510.80
425.83	3435.91
426.01	3499.10
426.20	3342.28
426.39	3456.97
426.58	3583.36
426.77	3583.36
426.96	3583.36
427.15	3651.24
427.33	3585.70
427.52	3592.72
427.71	3658.26
427.90	3634.85
428.09	3660.60
428.28	3728.47
428.46	3878.27
428.65	3716.77
428.84	3925.08
429.03	3824.44
429.22	3709.75
429.40	3953.16
429.59	3808.05
429.78	3735.50
429.97	3632.51
430.16	3698.05
430.34	3866.56
430.53	3868.91
430.72	3854.86
430.91	3950.82
431.10	3866.56
431.28	4077.21
431.47	3971.89
431.66	4051.47
431.85	4063.17
432.03	4039.76
432.22	4098.28
432.41	4053.81
432.60	4175.52
432.79	4049.13
432.97	4053.81
433.16	4283.18
433.35	4205.94
433.54	4285.52
433.72	4283.18
433.91	4145.09
434.10	4250.41
434.28	4175.52
434.47	4259.78
434.66	4283.18
434.85	4224.67
435.03	4400.21
435.22	4329.99
435.41	4465.74
435.59	4337.01
435.78	4468.08
435.97	4407.23
436.16	4407.23
436.34	4463.40
436.53	4500.85
436.72	4505.53
436.90	4444.68
437.09	4463.40
437.28	4435.32
437.46	4489.15
437.65	4650.64
437.84	4585.11
438.02	4521.92
438.21	4641.28
438.40	4713.84
438.58	4760.65
438.77	4692.77
438.96	4821.50
439.14	4833.21
439.33	4840.23
439.52	4933.85
439.70	5085.98
439.89	5057.90
440.08	5109.39
440.26	5107.05
440.45	4978.32
440.63	5088.32
440.82	5085.98
441.01	5097.69
441.19	5231.10
441.38	5167.90
441.57	5357.49
441.75	5331.74
441.94	5350.46
442.12	5390.25
442.31	5444.09
442.50	5582.18
442.68	5474.51
442.87	5521.32
443.05	5453.45
443.24	5734.31
443.43	5563.45
443.61	5568.13
443.80	5738.99
443.98	5430.04
444.17	5273.23
444.35	5528.35
444.54	5743.67
444.73	5652.39
444.91	5694.52
445.10	5694.52
445.28	5708.57
445.47	5657.07
445.65	5610.26
445.84	5776.44
446.02	5692.18
446.21	5565.79
446.39	5673.46
446.58	5692.18
446.77	5703.89
446.95	5626.65
447.14	5734.31
447.32	5811.55
447.51	5750.70
447.69	5741.33
447.88	5750.70
448.06	5689.84
448.25	5830.27
448.43	5853.68
448.62	5701.54
448.80	5710.91
448.99	5949.64
449.17	5834.96
449.36	5809.21
449.54	6090.07
449.73	6080.71
449.91	6047.94
450.10	6026.88
450.28	6071.35
450.46	6228.17
450.65	6305.40
450.83	6221.14
451.02	6113.48
451.20	6216.46
451.39	6150.93
451.57	6321.79
451.76	6232.85
451.94	6134.54
452.13	6359.24
452.31	6492.65
452.49	6076.03
452.68	6160.29
452.86	6263.27
453.05	6314.77
453.23	6399.02
453.42	6361.58
453.60	6422.43
453.78	6478.60
453.97	6242.21
454.15	6202.42
454.34	6497.33
454.52	6459.88
454.70	6794.58
454.89	6539.46
455.07	6462.22
455.26	6806.28
455.44	6869.47
455.62	6679.89
455.81	6726.70
455.99	6715.00
456.17	6801.60
456.36	6813.30
456.54	7016.93
456.73	6993.52
456.91	6974.80
457.09	7157.36
457.28	7105.87
457.46	7103.53
457.64	7187.79
457.83	7096.50
458.01	6944.37
458.19	7148.00
458.38	7258.00
458.56	7026.29
458.74	7199.49
458.93	7136.29
459.11	7279.07
459.29	7265.02
459.48	7325.88
459.66	7316.51
459.84	7281.41
460.03	7545.89
460.21	7382.05
460.39	7377.37
460.57	7344.60
460.76	7426.52
460.94	7520.14
461.12	7723.77
461.31	7571.63
461.49	7520.14
461.67	7365.67
461.85	7754.19
462.04	7552.91
462.22	8021.02
462.40	7786.96
462.59	7878.24
462.77	7712.07
462.95	7836.11
463.13	7864.20
463.32	7808.03
463.50	7822.07
463.68	8044.42
463.86	8032.72
464.05	7805.69
464.23	7941.44
464.41	7901.65
464.59	7885.26
464.78	8058.46
464.96	8170.81
465.14	7925.05
465.32	7955.48
465.50	8058.46
465.69	8124.00
465.87	8156.77
466.05	8102.93
466.23	8074.85
466.41	8159.11
466.60	8231.66
466.78	8114.64
466.96	8215.28
467.14	8259.75
467.32	8208.26
467.51	8615.51
467.69	8269.11
467.87	8313.58
468.05	8531.25
468.23	8430.61
468.41	8458.70
468.60	8688.07
468.78	8634.24
468.96	8430.61
469.14	8454.02
469.32	8557.00
469.50	8491.46
469.69	8685.73
469.87	8744.24
470.05	8901.06
470.23	8844.88
470.41	8826.16
470.59	8842.54
470.77	8858.93
470.95	8706.79
471.14	9128.09
471.32	9008.72
471.50	9205.33
471.68	9027.45
471.86	9163.20
472.04	9249.80
472.22	9439.38
472.40	9317.67
472.58	9231.07
472.77	9291.93
472.95	9322.35
473.13	9710.88
473.31	9535.34
473.49	9666.41
473.67	9467.47
473.85	9490.87
474.03	9909.83
474.21	9930.89
474.39	9935.57
474.57	9841.95
474.75	10033.88
474.93	10005.79
475.12	10022.17
475.30	10139.20
475.48	9989.41
475.66	9975.36
475.84	10176.65
476.02	10162.61
476.20	10188.35
476.38	10548.79
476.56	10787.53
476.74	10478.58
476.92	10413.04
477.10	10597.95
477.28	11028.60
477.46	10780.51
477.64	11002.86
477.82	11138.61
478.00	11173.72
478.18	11185.42
478.36	11262.66
478.54	11447.56
478.72	11431.18
478.90	11531.82
479.08	11665.23
479.26	11829.07
479.44	11698.00
479.62	11758.85
479.80	11927.37
479.98	12042.06
480.16	12325.26
480.34	12210.57
480.52	12320.58
480.70	12219.94
480.88	12173.13
481.06	12355.69
481.24	12414.20
481.41	12856.56
481.59	12793.37
481.77	12739.54
481.95	13121.04
482.13	13008.70
482.31	13095.30
482.49	13521.27
482.67	13289.56
482.85	13678.09
483.03	13633.62
483.21	13813.84
483.39	13729.58
483.57	13774.05
483.74	13886.40
483.92	14197.69
484.10	14087.68
484.28	14345.14
484.46	14705.59
484.64	14897.51
484.82	14403.66
485.00	14569.83
485.18	15094.11
485.35	15164.33
485.53	14836.66
485.71	15117.52
485.89	15424.13
486.07	15372.64
486.25	15470.94
486.43	15712.02
486.61	15735.42
486.78	15786.91
486.96	15976.50
487.14	16105.23
487.32	16311.19
487.50	16695.04
487.68	16435.24
487.85	16594.40
488.03	16891.65
488.21	17111.66
488.39	17097.61
488.57	17277.83
488.75	17312.94
488.92	17771.69
489.10	17610.19
489.28	17759.98
489.46	17975.31
489.64	17521.25
489.81	18298.31
489.99	18127.45
490.17	18576.83
490.35	18452.78
490.53	18499.59
490.70	18874.08
490.88	18642.37
491.06	19150.26
491.24	19077.71
491.41	19145.58
491.59	19393.68
491.77	19346.87
491.95	19662.84
492.13	19529.43
492.30	19744.76
492.48	19728.38
492.66	19988.18
492.84	19995.20
493.01	20297.13
493.19	20355.64
493.37	20554.58
493.54	20456.28
493.72	20662.25
493.90	20821.41
494.08	20636.50
494.25	21020.35
494.43	21135.04
494.61	21338.66
494.79	21186.53
494.96	21287.17
495.14	21713.15
495.32	21530.59
495.49	21792.73
495.67	21825.50
495.85	22199.98
496.02	22405.95
496.20	22703.20
496.38	22391.91
496.55	22555.74
496.73	23316.42
496.91	23014.49
497.09	22958.31
497.26	22970.02
497.44	22829.59
497.62	23077.68
497.79	23529.41
497.97	23538.77
498.14	23639.41
498.32	24074.75
498.50	23800.91
498.67	24442.21
498.85	24130.92
499.03	24121.56
499.20	24175.39
499.38	24201.14
499.56	24479.66
499.73	24484.34
499.91	24503.07
500.08	24713.72
500.26	24690.31
500.44	24870.53
500.61	25146.72
500.79	25039.05
500.97	25453.33
501.14	25406.52
501.32	25383.11
501.49	25605.46
501.67	25671.00
501.84	25755.26
502.02	25570.35
502.20	25860.58
502.37	26178.89
502.55	25947.18
502.72	26064.21
502.90	26316.98
503.07	25867.60
503.25	26064.21
503.43	26476.14
503.60	26281.88
503.78	26412.95
503.95	26555.72
504.13	26443.37
504.30	26871.69
504.48	27091.70
504.65	27014.46
504.83	26972.33
505.01	27192.34
505.18	27428.74
505.36	27735.35
505.53	27140.85
505.71	27290.65
505.88	27470.87
506.06	27417.04
506.23	27711.94
506.41	27761.09
506.58	28189.41
506.76	27955.36
506.93	28404.74
507.11	28137.92
507.28	28196.43
507.46	28339.21
507.63	28472.62
507.81	28353.25
507.98	28460.91
508.16	28891.57
508.33	28535.81
508.50	29172.44
508.68	28739.44
508.85	29488.41
509.03	29085.84
509.20	29479.05
509.38	29399.47
509.55	29656.93
509.73	29656.93
509.90	29427.56
510.08	29797.36
510.25	29708.42
510.42	30125.04
510.60	29584.37
510.77	30155.46
510.95	30195.25
511.12	30153.12
511.30	29907.37
511.47	30197.59
511.64	30188.23
511.82	30354.41
511.99	30785.07
512.17	30672.72
512.34	30639.95
512.51	30677.40
512.69	31002.74
512.86	30986.35
513.04	30808.47
513.21	31204.02
513.38	30899.75
513.56	31126.78
513.73	31379.56
513.90	31262.54
514.08	31250.83
514.25	31447.44
514.43	31835.97
514.60	31768.09
514.77	31714.26
514.95	31810.22
515.12	31639.36
515.29	31899.16
515.47	32250.24
515.64	32268.97
515.81	31850.01
515.99	32416.42
516.16	32865.80
516.33	32577.92
516.51	32587.28
516.68	32423.44
516.85	32790.91
517.03	32617.71
517.20	32886.87
517.37	32723.03
517.54	33031.98
517.72	33303.48
517.89	33095.18
518.06	33120.92
518.24	33230.93
518.41	33336.25
518.58	33214.54
518.75	33268.37
518.93	33675.63
519.10	33764.57
519.27	33565.62
519.45	33457.96
519.62	33916.70
519.79	33813.72
519.96	33558.60
520.14	33806.70
520.31	33687.33
520.48	34167.14
520.65	34082.88
520.83	34604.82
521.00	34347.36
521.17	34185.86
521.34	34796.74
521.52	34576.73
521.69	34340.34
521.86	34558.01
522.03	34756.96
522.20	34911.43
522.38	35108.04
522.55	35218.04
522.72	35204.00
522.89	35325.71
523.07	35402.94
523.24	35236.77
523.41	35555.08
523.58	35625.29
523.75	35864.03
523.92	35512.95
524.10	35487.20
524.27	35964.67
524.44	35779.77
524.61	36334.48
524.78	35800.83
524.96	36290.01
525.13	36058.29
525.30	36163.62
525.47	36634.06
525.64	36280.64
525.81	36519.38
525.98	37064.72
526.16	36699.60
526.33	36725.35
526.50	37090.47
526.67	36430.44
526.84	36547.47
527.01	36624.70
527.18	36727.69
527.36	37116.22
527.53	36854.08
527.70	37659.22
527.87	37408.78
528.04	37120.90
528.21	37399.42
528.38	37193.45
528.55	37383.04
528.72	37509.43
528.89	37366.65
529.07	37731.78
529.24	37418.14
529.41	37766.88
529.58	37347.93
529.75	37701.35
529.92	37818.38
530.09	38305.21
530.26	37801.99
530.43	37912.00
530.60	37750.50
530.77	37792.63
530.94	38108.60
531.11	38122.65
531.28	38288.82
531.46	38670.33
531.63	38363.72
531.80	38232.65
531.97	38586.07
532.14	38651.61
532.31	38302.87
532.48	38918.43
532.65	39414.62
532.82	38707.78
532.99	38916.09
533.16	38778.00
533.33	38749.91
533.50	39260.15
533.67	38834.17
533.84	38778.00
534.01	39012.05
534.18	39299.94
534.35	39372.49
534.52	39402.92
534.69	39337.38
534.86	39749.32
535.03	39470.79
535.20	39632.29
535.37	39456.75
535.54	40018.48
535.71	39566.76
535.88	39489.52
536.05	39569.10
536.22	39927.20
536.38	39920.18
536.55	39744.64
536.72	39784.43
536.89	39835.92
537.06	39814.85
537.23	40512.33
537.40	39665.06
537.57	40240.83
537.74	39840.60
537.91	40285.30
538.08	39856.98
538.25	40407.01
538.42	40456.16
538.59	40957.03
538.75	40301.68
538.92	40814.26
539.09	40634.04
539.26	40458.50
539.43	40517.01
539.60	41006.19
539.77	41008.53
539.94	40945.33
540.11	41221.52
540.28	40849.37
540.44	40872.78
540.61	41177.04
540.78	40954.69
540.95	41139.60
541.12	41254.28
541.29	40879.80
541.46	41127.89
541.62	41268.33
541.79	41855.80
541.96	41036.61
542.13	41057.68
542.30	41179.39
542.47	41600.68
542.63	41366.63
542.80	41897.93
542.97	42139.00
543.14	42497.11
543.31	41949.42
543.48	41982.19
543.64	42300.50
543.81	42677.33
543.98	42541.58
544.15	41970.49
544.32	42328.59
544.48	42572.00
544.65	42167.09
544.82	42469.02
544.99	42438.59
545.16	42490.09
545.32	42518.17
545.49	42953.51
545.66	43285.87
545.83	42742.86
546.00	42691.37
546.16	42628.18
546.33	43058.84
546.50	42609.45
546.67	43351.40
546.83	42405.83
547.00	42574.34
547.17	42614.13
547.34	43091.60
547.50	42726.48
547.67	43426.30
547.84	43248.42
548.00	43306.93
548.17	43370.13
548.34	43641.63
548.51	43564.39
548.67	43442.68
548.84	43859.30
549.01	43550.35
549.18	43475.45
549.34	43973.98
549.51	43679.08
549.68	43871.00
549.84	43468.43
550.01	43828.87
550.18	43463.75
550.34	43669.72
550.51	43690.78
550.68	43793.76
550.84	43346.72
551.01	44091.01
551.18	43440.34
551.34	43716.53
551.51	44168.25
551.68	44165.91
551.84	44119.10
552.01	43880.36
552.18	44247.83
552.34	43789.08
552.51	44446.77
552.68	44304.00
552.84	44208.04
553.01	44285.28
553.18	44268.89
553.34	44526.35
553.51	44306.34
553.67	44811.90
553.84	44898.50
554.01	44650.40
554.17	44458.48
554.34	44821.26
554.51	44601.25
554.67	45074.04
554.84	44781.47
555.00	44814.24
555.17	44591.89
555.33	45228.51
555.50	44788.49
555.67	44837.64
555.83	44907.86
556.00	45375.97
556.16	45757.47
556.33	44980.42
556.50	45015.52
556.66	45120.85
556.83	44769.77
556.99	45001.48
557.16	45137.23
557.32	45151.27
557.49	45663.85
557.65	45148.93
557.82	45380.65
557.98	45593.64
558.15	45364.26
558.32	45439.16
558.48	45565.55
558.65	45001.48
558.81	45359.58
558.98	44666.78
559.14	45303.41
559.31	44879.77
559.47	45668.53
559.64	45535.12
559.80	45680.24
559.97	46106.21
560.13	45865.14
560.30	45516.40
560.46	46003.23
560.63	45979.82
560.79	45713.00
560.96	46078.13
561.12	46134.30
561.29	45963.44
561.45	45996.21
561.61	46319.20
561.78	45764.49
561.94	45954.08
562.11	45598.32
562.27	46010.25
562.44	45677.90
562.60	46045.36
562.77	46298.14
562.93	45968.12
563.10	46232.60
563.26	45991.53
563.42	46579.00
563.59	46305.16
563.75	45989.19
563.92	46216.22
564.08	45933.01
564.24	46356.65
564.41	46555.60
564.57	46136.64
564.74	46164.73
564.90	45977.48
565.07	46000.89
565.23	46223.24
565.39	46527.51
565.56	46487.72
565.72	46059.40
565.88	46539.21
566.05	46185.79
566.21	46263.03
566.38	46464.32
566.54	46103.87
566.70	46167.07
566.87	46223.24
567.03	46314.52
567.19	46791.99
567.36	46777.95
567.52	46513.47
567.68	46717.09
567.85	46763.90
568.01	46813.05
568.17	47021.36
568.34	46459.63
568.50	46689.01
568.66	46466.66
568.83	46248.99
568.99	47014.34
569.15	46281.75
569.32	46548.57
569.48	46424.53
569.64	46855.18
569.81	46824.76
569.97	46681.98
570.13	46735.82
570.30	46595.38
570.46	46656.24
570.62	46838.80
570.78	46389.42
570.95	47009.66
571.11	46717.09
571.27	46909.02
571.43	46799.01
571.60	46955.83
571.76	46738.16
571.92	46808.37
572.09	47058.81
572.25	47126.69
572.41	46513.47
572.57	47164.14
572.74	47679.05
572.90	47084.56
573.06	47283.50
573.22	47187.54
573.38	47058.81
573.55	47255.42
573.71	47171.16
573.87	47384.15
574.03	47388.83
574.20	47304.57
574.36	47084.56
574.52	47147.75
574.68	46784.97
574.84	47515.22
575.01	47402.87
575.17	47217.97
575.33	47587.77
575.49	47297.55
575.65	47222.65
575.82	47732.89
575.98	46642.20
576.14	47613.52
576.30	47367.76
576.46	47285.84
576.62	47133.71
576.79	47508.19
576.95	46995.62
577.11	46920.72
577.27	46990.94
577.43	47536.28
577.59	47021.36
577.75	46689.01
577.92	47054.13
578.08	47077.54
578.24	47304.57
578.40	47161.79
578.56	47402.87
578.72	47283.50
578.88	47178.18
579.04	47566.71
579.21	47246.05
579.37	47049.45
579.53	47363.08
579.69	47178.18
579.85	47494.15
580.01	47634.58
580.17	47320.95
580.33	47416.91
580.49	47402.87
580.65	47435.64
580.82	47627.56
580.98	47599.47
581.14	47276.48
581.30	47449.68
581.46	47150.09
581.62	47679.05
581.78	47459.04
581.94	47800.76
582.10	47253.08
582.26	47782.04
582.42	47337.33
582.58	47550.32
582.74	47430.96
582.90	47505.85
583.06	47414.57
583.22	47374.78
583.38	47107.96
583.54	47686.07
583.70	47695.44
583.86	47634.58
584.02	47657.99
584.18	47758.63
584.34	47744.59
584.50	47969.28
584.66	47952.90
584.82	48088.65
584.98	47833.53
585.14	47859.27
585.30	47924.81
585.46	47505.85
585.62	47730.54
585.78	47515.22
585.94	47281.16
586.10	47718.84
586.26	47489.47
586.42	47487.13
586.58	47782.04
586.74	47512.88
586.90	47615.86
587.06	47365.42
587.22	48016.09
587.38	47665.01
587.54	47384.15
587.70	47861.61
587.86	47952.90
588.02	47606.50
588.18	47732.89
588.34	47920.13
588.49	47643.94
588.65	47433.30
588.81	47732.89
588.97	48006.73
589.13	47880.34
589.29	47606.50
589.45	47903.74
589.61	48156.52
589.77	48018.43
589.93	47784.38
590.08	48247.80
590.24	48161.20
590.40	48275.89
590.56	47969.28
590.72	48060.56
590.88	47833.53
591.04	47693.10
591.20	48339.08
591.35	47901.40
591.51	48381.21
591.67	47952.90
591.83	48177.59
591.99	48126.10
592.15	47901.40
592.31	48114.39
592.46	48098.01
592.62	48062.90
592.78	48287.59
592.94	48189.29
593.10	48107.37
593.26	48243.12
593.41	48612.93
593.57	47999.71
593.73	48397.60
593.89	48779.10
594.05	48322.70
594.20	48243.12
594.36	48306.32
594.52	48741.66
594.68	48215.04
594.84	48130.78
594.99	48423.34
595.15	48444.41
595.31	48624.63
595.47	47990.34
595.62	48493.56
595.78	48442.07
595.94	48479.52
596.10	48240.78
596.25	48547.39
596.41	48374.19
596.57	48381.21
596.73	48552.07
596.88	48521.65
597.04	48229.08
597.20	48788.47
597.36	48156.52
597.51	48669.10
597.67	48411.64
597.83	48512.28
597.99	48360.15
598.14	48388.24
598.30	48566.12
598.46	48535.69
598.61	48933.58
598.77	48598.88
598.93	48329.72
599.09	48355.47
599.24	48559.09
599.40	48488.88
599.56	48720.59
599.71	48411.64
599.87	48802.51
600.03	48692.50
600.18	48519.31
600.34	48591.86
600.50	48505.26
600.65	48102.69
600.81	48891.45
600.97	48404.62
601.12	48559.09
601.28	48315.68
601.44	48306.32
601.59	48570.80
601.75	48633.99
601.91	48933.58
602.06	48720.59
602.22	48507.60
602.37	48402.28
602.53	48409.30
602.69	48814.21
602.84	48580.16
603.00	48498.24
603.16	48413.98
603.31	48208.01
603.47	48692.50
603.62	48383.55
603.78	48545.05
603.94	48659.74
604.09	48926.56
604.25	48676.12
604.40	48397.60
604.56	48683.14
604.71	48788.47
604.87	48954.64
605.03	48378.87
605.18	48325.04
605.34	48282.91
605.49	48128.44
605.65	48594.20
605.80	48315.68
605.96	48584.84
606.12	48210.35
606.27	48533.35
606.43	48329.72
606.58	48697.19
606.74	48327.38
606.89	48076.94
607.05	48776.76
607.20	48332.06
607.36	48516.96
607.51	48598.88
607.67	48233.76
607.82	48439.73
607.98	48189.29
608.13	48034.81
608.29	47980.98
608.44	48540.37
608.60	48058.22
608.75	48619.95
608.91	48467.81
609.06	48287.59
609.22	48949.96
609.37	48224.40
609.53	48222.06
609.68	48416.32
609.84	48383.55
609.99	48458.45
610.15	48397.60
610.30	48226.74
610.46	48222.06
610.61	48121.41
610.76	48154.18
610.92	47880.34
611.07	47924.81
611.23	47999.71
611.38	48182.27
611.54	47856.93
611.69	48648.03
611.84	47920.13
612.00	48037.16
612.15	48081.63
612.31	47936.51
612.46	47505.85
612.62	47800.76
612.77	47791.40
612.92	48350.79
613.08	47629.90
613.23	47856.93
613.39	48168.22
613.54	48004.39
613.69	48006.73
613.85	47934.17
614.00	47997.37
614.15	47966.94
614.31	47604.16
614.46	47777.36
614.62	47636.92
614.77	47856.93
614.92	47709.48
615.08	47737.57
615.23	47964.60
615.38	47957.58
615.54	47592.45
615.69	47878.00
615.84	47641.60
616.00	47959.92
616.15	47393.51
616.30	48058.22
616.46	47590.11
616.61	47426.28
616.76	47742.25
616.92	47342.02
617.07	47772.67
617.22	47660.33
617.37	46993.28
617.53	47569.05
617.68	47220.31
617.83	47463.72
617.99	47641.60
618.14	47473.09
618.29	47503.51
618.45	47445.00
618.60	46995.62
618.75	47311.59
618.90	47398.19
619.06	47299.89
619.21	47278.82
619.36	47393.51
619.51	47367.76
619.67	47253.08
619.82	47047.11
619.97	47543.30
620.12	47239.03
620.28	47374.78
620.43	47779.70
620.58	47339.68
620.73	47285.84
620.89	47512.88
621.04	47339.68
621.19	47203.92
621.34	46810.71
621.49	46829.44
621.65	47110.30
621.80	46986.25
621.95	47023.70
622.10	47278.82
622.25	46871.57
622.41	47082.22
622.56	46960.51
622.71	46969.87
622.86	46642.20
623.01	47222.65
623.16	46560.28
623.32	46728.80
623.47	46909.02
623.62	46946.47
623.77	47004.98
623.92	47009.66
624.07	46579.00
624.23	46974.55
624.38	46918.38
624.53	46806.03
624.68	46256.01
624.83	46880.93
624.98	46794.33
625.13	46300.48
625.29	46380.06
625.44	46529.85
625.59	46115.58
625.74	46155.36
625.89	45925.99
626.04	46691.35
626.19	46227.92
626.34	46555.60
626.49	46267.71
626.65	45886.20
626.80	46370.69
626.95	46155.36
627.10	46026.63
627.25	46335.59
627.40	46244.30
627.55	45949.40
627.70	46047.70
627.85	46663.26
628.00	46506.44
628.15	46288.77
628.30	45888.54
628.45	45333.84
628.60	45581.93
628.76	45705.98
628.91	45659.17
629.06	45429.80
629.21	45755.13
629.36	45610.02
629.51	45708.32
629.66	46176.43
629.81	46078.13
629.96	45680.24
630.11	45949.40
630.26	45785.56
630.41	45572.57
630.56	45530.44
630.71	45682.58
630.86	45399.37
631.01	45296.39
631.16	45645.13
631.31	45254.26
631.46	45516.40
631.61	45607.68
631.76	45310.43
631.91	45687.26
632.06	45794.92
632.21	45619.38
632.36	45455.54
632.51	44921.90
632.66	45684.92
632.81	45373.63
632.96	45404.05
633.10	45111.49
633.25	45158.30
633.40	44996.80
633.55	45172.34
633.70	45188.72
633.85	44987.44
634.00	44900.84
634.15	45235.53
634.30	45127.87
634.45	45120.85
634.60	44781.47
634.75	45368.94
634.90	44818.92
635.05	45085.74
635.19	45130.21
635.34	45441.50
635.49	45069.36
635.64	44744.02
635.79	45308.09
635.94	45254.26
636.09	45237.87
636.24	45191.06
636.39	44760.40
636.53	44830.62
636.68	44296.98
636.83	44488.90
636.98	44601.25
637.13	44203.36
637.28	44142.50
637.43	44397.62
637.57	44861.05
637.72	44172.93
637.87	44453.79
638.02	44458.48
638.17	44327.41
638.32	44465.50
638.46	44371.88
638.61	44147.18
638.76	44648.06
638.91	44715.93
639.06	44018.46
639.20	43988.03
639.35	43882.70
639.50	44116.76
639.65	44219.74
639.80	44224.42
639.94	44322.72
640.09	43847.60
640.24	44533.37
640.39	43999.73
640.54	43463.75
640.68	43810.15
640.83	44294.64
640.98	43768.02
641.13	43405.23
641.27	44325.07
641.42	43969.30
641.57	44030.16
641.72	43810.15
641.86	43690.78
642.01	43803.13
642.16	43697.80
642.31	43007.34
642.45	43899.09
642.60	43484.81
642.75	43295.23
642.90	43709.50
643.04	44126.12
643.19	43482.47
643.34	43386.51
643.48	43365.45
643.63	43519.92
643.78	43620.56
643.93	43732.91
644.07	43709.50
644.22	43536.30
644.37	43325.66
644.51	43580.78
644.66	43449.70
644.81	43562.05
644.95	43421.62
645.10	43592.48
645.25	42878.61
645.39	43466.09
645.54	43257.78
645.69	42717.12
645.83	42735.84
645.98	42939.47
646.13	42899.68
646.27	43154.80
646.42	42803.72
646.57	43325.66
646.71	43201.61
646.86	43136.07
647.00	42997.98
647.15	43241.40
647.30	43117.35
647.44	43000.32
647.59	43012.02
647.74	42834.14
647.88	42965.21
648.03	43276.51
648.17	43124.37
648.32	42986.28
648.47	42623.50
648.61	42548.60
648.76	42375.40
648.90	42686.69
649.05	42782.65
649.20	42792.01
649.34	42986.28
649.49	42447.96
649.63	42749.88
649.78	43124.37
649.92	42490.09
650.07	42850.53
650.21	43112.67
650.36	43257.78
650.51	42241.99
650.65	42494.77
650.80	42682.01
650.94	42059.43
651.09	42518.17
651.23	42108.58
651.38	42085.17
651.52	42153.05
651.67	42340.29
651.81	42351.99
651.96	42080.49
652.10	41958.78
652.25	42164.75
652.39	41923.68
652.54	42487.74
652.68	41865.16
652.83	42017.30
652.97	42237.31
653.12	42068.79
653.26	41736.43
653.41	42164.75
653.55	41813.67
653.70	42277.10
653.84	42246.67
653.99	41823.03
654.13	42192.84
654.27	41989.21
654.42	41996.23
654.56	41628.77
654.71	42082.83
654.85	41933.04
655.00	41886.23
655.14	41865.16
655.29	42274.76
655.43	41530.47
655.57	41816.01
655.72	41265.99
655.86	41420.46
656.01	41371.31
656.15	41497.70
656.30	41249.60
656.44	41497.70
656.58	41216.83
656.73	41455.57
656.87	40954.69
657.01	40919.59
657.16	41605.36
657.30	41460.25
657.45	41518.76
657.59	41064.70
657.73	40697.24
657.88	41036.61
658.02	41371.31
658.16	41195.77
658.31	41095.13
658.45	41134.92
658.60	40650.42
658.74	40868.09
658.88	41153.64
659.03	40718.30
659.17	40397.65
659.31	40617.66
659.46	40751.07
659.60	40589.57
659.74	40664.47
659.89	39985.71
660.03	40027.84
660.17	40385.94
660.32	40135.51
660.46	40381.26
660.60	40027.84
660.74	40147.21
660.89	40189.34
661.03	39758.68
661.17	39934.22
661.32	40034.86
661.46	40053.59
661.60	39803.15
661.74	39842.94
661.89	39526.97
662.03	40076.99
662.17	39489.52
662.31	39646.33
662.46	39756.34
662.60	39323.34
662.74	39381.85
662.88	39590.16
663.03	39173.55
663.17	39035.45
663.31	38885.66
663.45	39512.92
663.60	39573.78
663.74	39510.58
663.88	39208.65
664.02	38913.75
664.17	39129.08
664.31	38930.13
664.45	39201.63
664.59	39000.35
664.73	39089.29
664.88	39000.35
665.02	38656.29
665.16	38602.46
665.30	38815.44
665.44	38586.07
665.59	38408.19
665.73	38253.72
665.87	38026.68
666.01	38354.36
666.15	38614.16
666.29	38450.32
666.44	38583.73
666.58	38429.26
666.72	38316.91
666.86	37612.41
667.00	38352.02
667.14	37853.48
667.28	38019.66
667.43	37684.97
667.57	37902.64
667.71	37776.25
667.85	37886.25
667.99	37619.43
668.13	37418.14
668.27	36931.31
668.41	37081.11
668.56	36739.39
668.70	37165.37
668.84	36847.05
668.98	36748.75
669.12	37085.79
669.26	37036.64
669.40	36943.02
669.54	36730.03
669.68	37113.87
669.82	37024.93
669.96	36582.57
670.10	35985.74
670.25	36533.42
670.39	36329.80
670.53	36514.70
670.67	36620.02
670.81	36989.83
670.95	36648.11
671.09	36020.84
671.23	35714.23
671.37	35803.17
671.51	35936.59
671.65	35842.96
671.79	35693.17
671.93	35810.20
672.07	35873.39
672.21	35819.56
672.35	35302.30
672.49	35594.87
672.63	35543.38
672.77	35309.32
672.91	35576.14
673.05	35133.78
673.19	34920.79
673.33	35229.74
673.47	34644.61
673.61	35051.86
673.75	34665.67
673.89	34684.40
674.03	34780.36
674.17	34356.72
674.31	34550.99
674.45	33804.36
674.59	34190.55
674.73	34356.72
674.87	33916.70
675.01	33787.97
675.15	33977.56
675.29	33771.59
675.43	33495.41
675.56	33921.38
675.70	33720.10
675.84	33319.87
675.98	32645.79
676.12	33567.96
676.26	33200.50
676.40	33069.43
676.54	33010.92
676.68	32924.32
676.82	32835.38
676.96	32837.72
677.10	32893.89
677.23	32732.39
677.37	32769.84
677.51	32690.26
677.65	32222.16
677.79	32439.82
677.93	32315.78
678.07	32205.77
678.21	32030.23
678.34	32037.25
678.48	31435.74
678.62	31658.09
678.76	31271.90
678.90	31569.15
679.04	31461.48
679.18	31346.79
679.31	31112.74
679.45	31103.38
679.59	30890.39
679.73	31239.13
679.87	30604.84
680.00	30415.26
680.14	30852.94
680.28	30714.85
680.42	30775.70
680.56	30506.54
680.70	29790.34
680.83	30050.14
680.97	29790.34
681.11	30134.40
681.25	29530.54
681.39	29680.33
681.52	29731.83
681.66	29518.84
681.80	29127.97
681.94	28814.34
682.07	29355.00
682.21	29013.28
682.35	28917.32
682.49	28900.94
682.62	28947.75
682.76	29287.12
682.90	29156.05
683.04	28477.30
683.17	28788.59
683.31	27910.89
683.45	28280.69
683.59	28032.60
683.72	27957.70
683.86	27838.33
684.00	27875.78
684.13	27887.48
684.27	27800.88
684.41	27365.54
684.55	27733.01
684.68	27496.61
684.82	26972.33
684.96	27227.45
685.09	27035.53
685.23	27246.18
685.37	27201.71
685.50	27292.99
685.64	26742.96
685.78	26672.74
685.91	26555.72
686.05	26150.81
686.19	26188.25
686.32	26279.54
686.46	26162.51
686.60	25790.36
686.73	26003.35
686.87	25771.64
687.01	26309.96
687.14	25935.48
687.28	25783.34
687.42	25551.63
687.55	25125.65
687.69	25539.93
687.82	25212.25
687.96	25301.19
688.10	25116.29
688.23	24840.11
688.37	24959.47
688.50	25153.74
688.64	24854.15
688.78	24727.76
688.91	24264.33
689.05	24533.50
689.18	24025.60
689.32	23866.44
689.46	23585.58
689.59	24077.09
689.73	24060.71
689.86	24109.86
690.00	23826.65
690.13	23847.72
690.27	23386.63
690.41	23805.59
690.54	22965.34
690.68	23342.16
690.81	23353.87
690.95	23208.75
691.08	23014.49
691.22	22750.01
691.35	22775.75
691.49	23065.98
691.62	23241.52
691.76	22703.20
691.89	22228.07
692.03	21963.59
692.16	21792.73
692.30	22122.74
692.43	22113.38
692.57	21961.25
692.70	21895.71
692.84	21778.68
692.97	21275.47
693.11	21404.20
693.24	21174.83
693.38	21472.07
693.51	21315.26
693.65	21238.02
693.78	21165.46
693.92	20886.94
694.05	20849.49
694.19	20863.54
694.32	20798.00
694.45	20943.11
694.59	20664.59
694.72	20900.98
694.86	20531.18
694.99	20168.40
695.13	20119.24
695.26	19889.87
695.39	19798.59
695.53	19782.21
695.66	19978.81
695.80	19648.80
695.93	19697.95
696.07	19374.95
696.20	19311.76
696.33	19335.17
696.47	19091.75
696.60	19166.65
696.73	19419.42
696.87	18939.62
697.00	19215.80
697.14	18944.30
697.27	18813.23
697.40	18569.81
697.54	18663.43
697.67	18464.49
697.80	18504.28
697.94	18497.25
698.07	18272.56
698.21	18153.20
698.34	18054.89
698.47	18111.07
698.61	17544.66
698.74	17848.93
698.87	17872.33
699.01	17472.10
699.14	17649.98
699.27	17694.45
699.40	17572.74
699.54	17198.26
699.67	17465.08
699.80	17149.11
699.94	17090.59
700.07	17422.95
700.20	16961.86
700.34	16842.50
700.47	16788.66
700.60	16849.52
700.73	16999.31
700.87	16369.71
701.00	16444.60
701.13	16098.20
701.26	16404.81
701.40	16187.14
701.53	16423.54
701.66	16161.40
701.79	16137.99
701.93	15765.85
702.06	15737.76
702.19	15791.59
702.32	16074.80
702.46	15503.71
702.59	15866.49
702.72	15611.37
702.85	15613.71
702.99	15695.63
703.12	15414.77
703.25	15222.84
703.38	15297.74
703.51	15103.48
703.65	14888.15
703.78	14897.51
703.91	14780.48
704.04	14658.78
704.17	14661.12
704.31	14817.93
704.44	14817.93
704.57	14478.55
704.70	14246.84
704.83	14406.00
704.96	14415.36
705.10	13984.70
705.23	13895.76
>>>>>End Processed Spectral Data<<<<<
