SpectraSuite Data File
++++++++++++++++++++++++++++++++++++
Date: Fri Oct 25 10:43:58 EDT 2013
User: price-jones
Dark Spectrum Present: No
Reference Spectrum Present: No
Number of Sampled Component Spectra: 1
Spectrometers: USB2+H05261
Integration Time (usec): 100000 (USB2+H05261)
Spectra Averaged: 1 (USB2+H05261)
Boxcar Smoothing: 0 (USB2+H05261)
Correct for Electrical Dark: No (USB2+H05261)
Strobe/Lamp Enabled: No (USB2+H05261)
Correct for Detector Non-linearity: No (USB2+H05261)
Correct for Stray Light: No (USB2+H05261)
Number of Pixels in Processed Spectrum: 2048
>>>>>Begin Processed Spectral Data<<<<<
365.73	187.24
365.92	187.24
366.12	187.24
366.32	70.22
366.52	0.00
366.72	37.45
366.91	32.77
367.11	30.43
367.31	0.00
367.51	58.51
367.70	0.00
367.90	65.54
368.10	16.38
368.30	25.75
368.49	0.00
368.69	102.98
368.89	95.96
369.09	11.70
369.28	0.00
369.48	32.77
369.68	74.90
369.87	28.09
370.07	58.51
370.27	175.54
370.47	198.95
370.66	416.62
370.86	337.04
371.06	416.62
371.25	475.13
371.45	407.25
371.65	477.47
371.84	454.06
372.04	353.42
372.24	528.96
372.44	477.47
372.63	512.58
372.83	521.94
373.03	573.43
373.22	524.28
373.42	531.30
373.62	500.87
373.81	498.53
374.01	519.60
374.21	596.84
374.40	561.73
374.60	543.00
374.79	592.16
374.99	571.09
375.19	566.41
375.38	615.56
375.58	650.67
375.78	709.18
375.97	587.47
376.17	634.29
376.37	641.31
376.56	629.60
376.76	617.90
376.95	606.20
377.15	601.52
377.35	622.58
377.54	622.58
377.74	575.77
377.93	645.99
378.13	683.44
378.33	758.33
378.52	653.01
378.72	653.01
378.91	582.79
379.11	655.35
379.31	648.33
379.50	615.56
379.70	688.12
379.89	688.12
380.09	594.50
380.28	718.54
380.48	781.74
380.68	603.86
380.87	645.99
381.07	655.35
381.26	667.05
381.46	723.23
381.65	711.52
381.85	709.18
382.04	706.84
382.24	791.10
382.43	648.33
382.63	727.91
382.83	720.88
383.02	755.99
383.22	805.14
383.41	683.44
383.61	788.76
383.80	823.87
384.00	767.70
384.19	744.29
384.39	830.89
384.58	816.85
384.78	812.17
384.97	758.33
385.17	821.53
385.36	784.08
385.56	861.32
385.75	753.65
385.95	821.53
386.14	870.68
386.34	873.02
386.53	826.21
386.72	784.08
386.92	875.36
387.11	863.66
387.31	833.23
387.50	919.83
387.70	840.25
387.89	837.91
388.09	915.15
388.28	978.34
388.48	915.15
388.67	959.62
388.86	912.81
389.06	966.64
389.25	1032.18
389.45	966.64
389.64	961.96
389.84	983.02
390.03	1027.50
390.22	903.45
390.42	1013.45
390.61	1036.86
390.81	1018.13
391.00	1095.37
391.19	1062.60
391.39	1095.37
391.58	1139.84
391.78	1022.81
391.97	1020.47
392.16	1011.11
392.36	1036.86
392.55	1015.79
392.75	1055.58
392.94	1008.77
393.13	1020.47
393.33	976.00
393.52	1029.84
393.71	1088.35
393.91	1076.65
394.10	1097.71
394.29	1144.52
394.49	1149.20
394.68	1245.16
394.88	1128.14
395.07	1205.38
395.26	1217.08
395.46	1277.93
395.65	1266.23
395.84	1261.55
396.04	1186.65
396.23	1179.63
396.42	1055.58
396.62	1139.84
396.81	1062.60
397.00	1240.48
397.19	1320.06
397.39	1303.68
397.58	1404.32
397.77	1427.73
397.97	1394.96
398.16	1458.15
398.35	1495.60
398.55	1467.52
398.74	1460.49
398.93	1565.82
399.12	1497.94
399.32	1469.86
399.51	1533.05
399.70	1600.93
399.90	1486.24
400.09	1565.82
400.28	1621.99
400.47	1521.35
400.67	1596.25
400.86	1673.48
401.05	1696.89
401.24	1696.89
401.44	1760.08
401.63	1734.34
401.82	1720.29
402.01	1640.72
402.21	1834.98
402.40	1774.13
402.59	1823.28
402.78	1736.68
402.97	1837.32
403.17	1830.30
403.36	1799.87
403.55	1942.64
403.74	1984.77
403.93	1902.86
404.13	1830.30
404.32	1872.43
404.51	1994.14
404.70	2024.56
404.89	1956.69
405.09	2045.63
405.28	1987.11
405.47	1944.99
405.66	1867.75
405.85	2038.61
406.05	2026.90
406.24	2022.22
406.43	2033.93
406.62	2122.87
406.81	2172.02
407.00	2019.88
407.20	2097.12
407.39	2115.84
407.58	2141.59
407.77	2300.75
407.96	2218.83
408.15	2265.64
408.34	2275.00
408.54	2251.60
408.73	2385.01
408.92	2385.01
409.11	2249.25
409.30	2349.90
409.49	2232.87
409.68	2197.76
409.87	2270.32
410.07	2319.47
410.26	2363.94
410.45	2377.98
410.64	2370.96
410.83	2670.55
411.02	2450.54
411.21	2675.23
411.40	2630.76
411.59	2637.78
411.78	2750.13
411.98	2560.55
412.17	2605.02
412.36	2614.38
412.55	2693.96
412.74	2792.26
412.93	2796.94
413.12	2799.28
413.31	2963.12
413.50	2766.51
413.69	2834.39
413.88	2839.07
414.07	2953.76
414.26	2878.86
414.45	2942.05
414.64	2963.12
414.83	3021.63
415.02	3030.99
415.22	3162.06
415.41	2993.55
415.60	3243.98
415.79	3220.58
415.98	3220.58
416.17	3337.60
416.36	3328.24
416.55	3234.62
416.74	3452.29
416.93	3281.43
417.12	3368.03
417.31	3403.14
417.50	3365.69
417.69	3524.85
417.88	3466.33
418.07	3517.83
418.26	3403.14
418.45	3445.27
418.64	3627.83
418.83	3662.94
419.02	3578.68
419.21	3721.45
419.39	3623.15
419.58	3613.79
419.77	3616.13
419.96	3768.26
420.15	3728.47
420.34	3698.05
420.53	3772.94
420.72	3908.69
420.91	3864.22
421.10	3875.93
421.29	3859.54
421.48	3850.18
421.67	3878.27
421.86	3892.31
422.05	3889.97
422.24	3812.73
422.43	3962.53
422.61	4009.34
422.80	3868.91
422.99	3857.20
423.18	3913.38
423.37	4131.05
423.56	3983.59
423.75	3939.12
423.94	3920.40
424.13	3784.65
424.32	3854.86
424.50	3990.61
424.69	3978.91
424.88	4077.21
425.07	3941.46
425.26	3911.04
425.45	4025.72
425.64	3948.48
425.83	4081.89
426.01	3960.19
426.20	4161.47
426.39	4145.09
426.58	4081.89
426.77	3992.95
426.96	4049.13
427.15	4138.07
427.33	4266.80
427.52	4095.94
427.71	4070.19
427.90	4107.64
428.09	4170.83
428.28	4400.21
428.46	4161.47
428.65	4175.52
428.84	4273.82
429.03	4351.06
429.22	4088.92
429.40	4236.37
429.59	4273.82
429.78	3962.53
429.97	3934.44
430.16	4039.76
430.34	4032.74
430.53	4250.41
430.72	4294.88
430.91	4224.67
431.10	4498.51
431.28	4582.77
431.47	4727.88
431.66	4718.52
431.85	4620.22
432.03	4566.39
432.22	4779.37
432.41	4664.69
432.60	4739.58
432.79	4753.63
432.97	4795.76
433.16	4858.95
433.35	4798.10
433.54	4648.30
433.72	4777.03
433.91	4915.12
434.10	4847.25
434.28	4767.67
434.47	5046.20
434.66	4919.81
434.85	5043.85
435.03	4950.23
435.22	4926.83
435.41	5357.49
435.59	5224.08
435.78	5146.84
435.97	5221.74
436.16	5329.40
436.34	5329.40
436.53	5231.10
436.72	5401.96
436.90	5163.22
437.09	5252.16
437.28	5111.73
437.46	5151.52
437.65	5207.69
437.84	5376.21
438.02	5214.71
438.21	5254.50
438.40	5090.67
438.58	5434.72
438.77	5462.81
438.96	5589.20
439.14	5769.42
439.33	5778.78
439.52	5783.46
439.70	5713.25
439.89	5760.06
440.08	5720.27
440.26	5863.04
440.45	5720.27
440.63	5937.94
440.82	6036.24
441.01	6090.07
441.19	6179.01
441.38	6265.61
441.57	6249.23
441.75	6235.19
441.94	6431.79
442.12	6277.32
442.31	6565.20
442.50	6525.41
442.68	6167.31
442.87	6314.77
443.05	6354.55
443.24	6642.44
443.43	6593.29
443.61	6544.14
443.80	6616.69
443.98	6429.45
444.17	6291.36
444.35	6431.79
444.54	6661.16
444.73	6621.38
444.91	6757.13
445.10	6527.75
445.28	6579.25
445.47	6555.84
445.65	6717.34
445.84	6565.20
446.02	6562.86
446.21	6502.01
446.39	6623.72
446.58	6715.00
446.77	6920.96
446.95	6796.92
447.14	6792.23
447.32	6878.83
447.51	6562.86
447.69	6593.29
447.88	6853.09
448.06	6801.60
448.25	6686.91
448.43	6759.47
448.62	6752.45
448.80	6857.77
448.99	6820.32
449.17	6939.69
449.36	6923.30
449.54	7105.87
449.73	7290.77
449.91	7243.96
450.10	7300.13
450.28	7346.94
450.46	7372.69
450.65	7309.49
450.83	7304.81
451.02	7419.50
451.20	7396.09
451.39	7220.55
451.57	7396.09
451.76	7342.26
451.94	7225.23
452.13	7461.63
452.31	7363.33
452.49	7101.19
452.68	7199.49
452.86	7454.61
453.05	7456.95
453.23	7248.64
453.42	7318.86
453.60	7393.75
453.78	7510.78
453.97	7564.61
454.15	7576.31
454.34	7424.18
454.52	7529.50
454.70	7679.30
454.89	7749.51
455.07	7683.98
455.26	7815.05
455.44	7969.52
455.62	7885.26
455.81	7875.90
455.99	8142.72
456.17	8081.87
456.36	8016.33
456.54	8102.93
456.73	7960.16
456.91	8351.03
457.09	8381.46
457.28	8236.35
457.46	8196.56
457.64	8119.32
457.83	8252.73
458.01	8241.03
458.19	8290.18
458.38	8180.17
458.56	8224.64
458.74	8327.63
458.93	8290.18
459.11	8461.04
459.29	8334.65
459.48	8505.51
459.66	8234.00
459.84	8308.90
460.03	8587.43
460.21	8549.98
460.39	8704.45
460.57	8713.81
460.76	8685.73
460.94	8861.27
461.12	8716.16
461.31	8746.58
461.49	8606.15
461.67	8681.05
461.85	8856.59
462.04	8844.88
462.22	9287.25
462.40	9067.24
462.59	9053.19
462.77	8856.59
462.95	9186.60
463.13	9135.11
463.32	9032.13
463.50	9121.07
463.68	9221.71
463.86	9170.22
464.05	8992.34
464.23	8889.35
464.41	9324.69
464.59	9165.54
464.78	9305.97
464.96	9298.95
465.14	9282.56
465.32	9488.53
465.50	9247.46
465.69	9483.85
465.87	9462.79
466.05	9142.13
466.23	9163.20
466.41	9383.21
466.60	9533.00
466.78	9329.38
466.96	9364.48
467.14	9427.68
467.32	9600.88
467.51	9535.34
467.69	9387.89
467.87	9540.02
468.05	9504.92
468.23	9572.79
468.41	9650.03
468.60	9776.42
468.78	9703.86
468.96	9563.43
469.14	9743.65
469.32	9891.10
469.50	9886.42
469.69	9884.08
469.87	9970.68
470.05	10017.49
470.23	10050.26
470.41	9867.70
470.59	10104.09
470.77	9902.81
470.95	9975.36
471.14	10246.87
471.32	9879.40
471.50	10296.02
471.68	10501.98
471.86	10558.16
472.04	10597.95
472.22	10588.58
472.40	10260.91
472.58	10637.73
472.77	10490.28
472.95	10750.08
473.13	10707.95
473.31	10548.79
473.49	10555.82
473.67	10693.91
473.85	10888.17
474.03	10909.24
474.21	11133.93
474.39	11159.67
474.57	11267.34
474.75	11276.70
474.93	11618.42
475.12	11213.51
475.30	11438.20
475.48	11279.04
475.66	11520.12
475.84	11309.47
476.02	11527.14
476.20	11389.05
476.38	11693.32
476.56	11997.59
476.74	11995.25
476.92	12009.29
477.10	11953.12
477.28	12393.14
477.46	12325.26
477.64	12329.94
477.82	12599.10
478.00	12741.88
478.18	12716.13
478.36	12791.03
478.54	13186.58
478.72	12908.05
478.90	13327.01
479.08	13156.15
479.26	13231.05
479.44	13451.06
479.62	13373.82
479.80	13357.44
479.98	13881.72
480.16	13776.39
480.34	14017.47
480.52	14026.83
480.70	13792.78
480.88	13774.05
481.06	13994.06
481.24	14331.10
481.41	14394.29
481.59	14815.59
481.77	14663.46
481.95	14843.68
482.13	14635.37
482.31	14654.09
482.49	14995.81
482.67	14810.91
482.85	15236.89
483.03	15323.49
483.21	15506.05
483.39	15620.74
483.57	15606.69
483.74	15576.27
483.92	15880.53
484.10	15939.05
484.28	15964.79
484.46	16264.38
484.64	16683.34
484.82	16133.31
485.00	16278.43
485.18	16681.00
485.35	16762.92
485.53	16388.43
485.71	16252.68
485.89	16367.37
486.07	16613.12
486.25	16863.56
486.43	16959.52
486.61	17394.86
486.78	17420.61
486.96	17731.90
487.14	18019.78
487.32	17848.93
487.50	18195.32
487.68	18391.93
487.85	18719.60
488.03	18778.12
488.21	18537.04
488.39	18963.02
488.57	18979.40
488.75	19110.47
488.92	19147.92
489.10	19524.75
489.28	19711.99
489.46	19953.07
489.64	19796.25
489.81	20334.57
489.99	20219.89
490.17	20695.02
490.35	20624.80
490.53	20678.63
490.70	20645.87
490.88	20587.35
491.06	20905.66
491.24	20702.04
491.41	21013.33
491.59	21043.76
491.77	21200.57
491.95	21415.90
492.13	21724.85
492.30	21881.67
492.48	22097.00
492.66	22286.58
492.84	21968.27
493.01	22185.94
493.19	22267.86
493.37	22569.79
493.54	22384.88
493.72	22806.18
493.90	22918.53
494.08	23215.77
494.25	23463.87
494.43	23396.00
494.61	23653.45
494.79	23838.36
494.96	23674.52
495.14	23442.81
495.32	24182.42
495.49	23798.57
495.67	23941.34
495.85	24631.80
496.02	24662.22
496.20	24634.14
496.38	24786.27
496.55	24805.00
496.73	25378.43
496.91	25034.37
497.09	24851.81
497.26	25462.69
497.44	25238.00
497.62	25144.38
497.79	25607.80
497.97	25483.75
498.14	25949.52
498.32	25593.76
498.50	25635.89
498.67	26122.72
498.85	26242.09
499.03	26476.14
499.20	26684.45
499.38	26843.60
499.56	26661.04
499.73	26998.08
499.91	27140.85
500.08	27262.56
500.26	26490.18
500.44	26787.43
500.61	26962.97
500.79	26780.41
500.97	27241.50
501.14	27344.48
501.32	27377.25
501.49	27318.73
501.67	27693.22
501.84	27728.33
502.02	27782.16
502.20	27875.78
502.37	28198.77
502.55	28006.85
502.72	28315.80
502.90	28287.71
503.07	28084.09
503.25	28701.99
503.43	28311.12
503.60	28624.75
503.78	28276.01
503.95	28414.10
504.13	28989.88
504.30	28961.79
504.48	28959.45
504.65	29347.98
504.83	29380.74
505.01	29483.73
505.18	29446.28
505.36	29907.37
505.53	29706.08
505.71	30352.07
505.88	29982.26
506.06	29734.17
506.23	30085.25
506.41	29809.06
506.58	30244.40
506.76	30656.34
506.93	30504.20
507.11	30309.94
507.28	30621.23
507.46	30494.84
507.63	30405.90
507.81	30401.22
507.98	30307.60
508.16	30672.72
508.33	31150.19
508.50	30843.58
508.68	31571.49
508.85	31653.40
509.03	31358.50
509.20	31346.79
509.38	31669.79
509.55	31473.18
509.73	31831.29
509.90	31742.35
510.08	31772.77
510.25	31655.75
510.42	31819.58
510.60	32177.68
510.77	32070.02
510.95	32271.31
511.12	32371.95
511.30	32414.08
511.47	32418.76
511.64	32865.80
511.82	32861.12
511.99	32498.34
512.17	32584.94
512.34	32456.21
512.51	32912.61
512.69	33177.09
512.86	32821.33
513.04	33254.33
513.21	33095.18
513.38	32816.65
513.56	33064.75
513.73	33010.92
513.90	33567.96
514.08	33380.72
514.25	33404.13
514.43	33500.09
514.60	33626.48
514.77	33457.96
514.95	33570.30
515.12	33937.77
515.29	33823.08
515.47	34560.35
515.64	34532.26
515.81	33935.43
515.99	34253.74
516.16	33986.92
516.33	33928.41
516.51	33935.43
516.68	33745.84
516.85	33572.64
517.03	34260.76
517.20	34127.35
517.37	34258.42
517.54	34920.79
517.72	34504.18
517.89	34216.29
518.06	34249.06
518.24	34464.39
518.41	34642.27
518.58	35159.53
518.75	34817.81
518.93	35164.21
519.10	35274.21
519.27	35480.18
519.45	35473.16
519.62	35756.36
519.79	35524.65
519.96	35557.42
520.14	36149.57
520.31	35660.40
520.48	35871.05
520.65	35812.54
520.83	36215.11
521.00	36282.98
521.17	36278.30
521.34	36451.50
521.52	36341.50
521.69	36582.57
521.86	36645.77
522.03	36643.43
522.20	36435.12
522.38	36559.17
522.55	37144.30
522.72	37036.64
522.89	36456.18
523.07	37020.25
523.24	36432.78
523.41	37462.61
523.58	37174.73
523.75	37694.33
523.92	37535.17
524.10	37895.61
524.27	37825.40
524.44	37832.42
524.61	38124.99
524.78	37919.02
524.96	38012.64
525.13	37904.98
525.30	38270.10
525.47	38052.43
525.64	37848.80
525.81	38234.99
525.98	37546.87
526.16	37518.79
526.33	37701.35
526.50	37825.40
526.67	37689.65
526.84	37525.81
527.01	37792.63
527.18	37914.34
527.36	38700.76
527.53	38906.73
527.70	38895.02
527.87	38541.60
528.04	38602.46
528.21	38904.38
528.38	39070.56
528.55	39552.71
528.72	39175.89
528.89	39297.59
529.07	39236.74
529.24	39330.36
529.41	39171.21
529.58	39562.08
529.75	39166.52
529.92	39295.25
530.09	39679.10
530.26	39477.82
530.43	39641.65
530.60	39683.78
530.77	39505.90
530.94	40577.87
531.11	39838.26
531.28	40048.91
531.46	40112.10
531.63	40032.52
531.80	39480.16
531.97	39468.45
532.14	39983.37
532.31	39641.65
532.48	39594.84
532.65	40046.57
532.82	39819.53
532.99	40212.74
533.16	39688.46
533.33	40072.31
533.50	40999.16
533.67	40121.46
533.84	40589.57
534.01	40495.95
534.18	40559.14
534.35	40634.04
534.52	40149.55
534.69	40896.18
534.86	40481.91
535.03	41291.73
535.20	41170.02
535.37	41167.68
535.54	41291.73
535.71	41024.91
535.88	41551.53
536.05	41144.28
536.22	41111.51
536.38	41118.53
536.55	41497.70
536.72	40931.29
536.89	40715.96
537.06	41104.49
537.23	41319.82
537.40	41523.44
537.57	41581.96
537.74	41614.72
537.91	41921.34
538.08	41476.63
538.25	41050.66
538.42	41984.53
538.59	41787.92
538.75	41659.20
538.92	41926.02
539.09	41720.05
539.26	41525.78
539.43	41862.82
539.60	41773.88
539.77	41626.43
539.94	41446.21
540.11	41631.11
540.28	41748.14
540.44	42080.49
540.61	41851.12
540.78	41858.14
540.95	41893.25
541.12	41911.97
541.29	41890.91
541.46	42047.72
541.62	42295.82
541.79	41968.15
541.96	42253.69
542.13	42611.79
542.30	42033.68
542.47	42473.70
542.63	42188.16
542.80	42672.65
542.97	42885.64
543.14	43316.29
543.31	42920.74
543.48	43365.45
543.64	43438.00
543.81	43388.85
543.98	43339.70
544.15	43395.87
544.32	43236.72
544.48	43536.30
544.65	43299.91
544.82	43356.08
544.99	43227.35
545.16	43449.70
545.32	43606.52
545.49	43885.04
545.66	43608.86
545.83	43629.93
546.00	43587.80
546.16	43372.47
546.33	43297.57
546.50	43203.95
546.67	43849.94
546.83	43477.79
547.00	43690.78
547.17	43489.49
547.34	43367.79
547.50	43650.99
547.67	43356.08
547.84	43971.64
548.00	44381.24
548.17	44311.02
548.34	44072.29
548.51	44610.61
548.67	44147.18
548.84	44102.71
549.01	44100.37
549.18	43899.09
549.34	43908.45
549.51	44126.12
549.68	43957.60
549.84	44381.24
550.01	44411.67
550.18	44055.90
550.34	44137.82
550.51	44467.84
550.68	43992.71
550.84	44053.56
551.01	44247.83
551.18	44320.38
551.34	44472.52
551.51	44994.46
551.68	44854.03
551.84	44722.96
552.01	44287.62
552.18	44807.22
552.34	44493.58
552.51	44751.04
552.68	45095.10
552.84	44914.88
553.01	44999.14
553.18	44783.81
553.34	44765.09
553.51	44685.51
553.67	44905.52
553.84	45013.18
554.01	45144.25
554.17	45188.72
554.34	44683.17
554.51	45368.94
554.67	45181.70
554.84	45214.47
555.00	45284.68
555.17	45015.52
555.33	45221.49
555.50	45347.88
555.67	45228.51
555.83	45490.65
556.00	45483.63
556.16	45996.21
556.33	45202.77
556.50	45111.49
556.66	45111.49
556.83	45118.51
556.99	45560.87
557.16	45387.67
557.32	46017.27
557.49	45661.51
557.65	45106.80
557.82	45820.67
557.98	45631.08
558.15	45514.06
558.32	45759.81
558.48	45158.30
558.65	45277.66
558.81	45226.17
558.98	45483.63
559.14	45649.81
559.31	45109.14
559.47	45811.31
559.64	45296.39
559.80	46136.64
559.97	45670.87
560.13	45488.31
560.30	45338.52
560.46	45539.80
560.63	45521.08
560.79	45635.77
560.96	45902.59
561.12	45638.11
561.29	45897.91
561.45	45893.22
561.61	45855.78
561.78	45701.30
561.94	45769.18
562.11	45495.33
562.27	45495.33
562.44	45947.06
562.60	46047.70
562.77	45762.15
562.93	46073.45
563.10	46230.26
563.26	45738.75
563.42	46115.58
563.59	45523.42
563.75	45872.16
563.92	46202.18
564.08	46443.25
564.24	46286.43
564.41	45888.54
564.57	45975.14
564.74	45694.28
564.90	46068.76
565.07	46279.41
565.23	45804.28
565.39	45752.79
565.56	46096.85
565.72	45940.04
565.88	46230.26
566.05	45579.59
566.21	46003.23
566.38	46050.04
566.54	46078.13
566.70	46454.95
566.87	46600.07
567.03	46054.72
567.19	46438.57
567.36	46302.82
567.52	46157.70
567.68	46295.80
567.85	46333.24
568.01	46550.91
568.17	45848.75
568.34	46014.93
568.50	45954.08
568.66	46356.65
568.83	45872.16
568.99	45921.31
569.15	46195.15
569.32	45944.72
569.48	46305.16
569.64	46258.35
569.81	46075.79
569.97	46384.74
570.13	46256.01
570.30	45567.89
570.46	45813.65
570.62	46036.00
570.78	46073.45
570.95	45776.20
571.11	46307.50
571.27	46260.69
571.43	46181.11
571.60	46703.05
571.76	46281.75
571.92	46213.88
572.09	46129.62
572.25	46202.18
572.41	46277.07
572.57	46667.94
572.74	46827.10
572.90	46513.47
573.06	46506.44
573.22	46354.31
573.38	46398.78
573.55	45933.01
573.71	46754.54
573.87	46607.09
574.03	46745.18
574.20	46244.30
574.36	46616.45
574.52	46513.47
574.68	46639.86
574.84	46536.87
575.01	46590.70
575.17	46384.74
575.33	46330.90
575.49	45862.80
575.65	46810.71
575.82	46412.82
575.98	46312.18
576.14	46808.37
576.30	46670.28
576.46	46454.95
576.62	46012.59
576.79	46356.65
576.95	46066.42
577.11	46494.74
577.27	46501.76
577.43	46431.55
577.59	46089.83
577.75	46087.49
577.92	45991.53
578.08	45902.59
578.24	46143.66
578.40	46539.21
578.56	46485.38
578.72	46419.84
578.88	46951.15
579.04	46639.86
579.21	46153.02
579.37	46237.28
579.53	46384.74
579.69	46316.86
579.85	46501.76
580.01	46199.83
580.17	46518.15
580.33	46218.56
580.49	46410.48
580.65	46932.42
580.82	46300.48
580.98	46295.80
581.14	46494.74
581.30	46848.16
581.46	46822.42
581.62	46639.86
581.78	46244.30
581.94	46822.42
582.10	46466.66
582.26	46815.40
582.42	46529.85
582.58	46873.91
582.74	46586.02
582.90	46604.75
583.06	46628.15
583.22	46733.48
583.38	47007.32
583.54	46988.60
583.70	46508.79
583.86	46843.48
584.02	46775.61
584.18	46644.54
584.34	46567.30
584.50	46808.37
584.66	46237.28
584.82	46361.33
584.98	46541.55
585.14	46337.93
585.30	46295.80
585.46	46454.95
585.62	46354.31
585.78	46768.58
585.94	45724.71
586.10	46293.46
586.26	46349.63
586.42	46916.04
586.58	46422.19
586.74	46724.11
586.90	46628.15
587.06	46546.23
587.22	46429.21
587.38	46340.27
587.54	46464.32
587.70	46749.86
587.86	46557.94
588.02	46305.16
588.18	46794.33
588.34	46667.94
588.49	46174.09
588.65	46232.60
588.81	46211.54
588.97	46143.66
589.13	46054.72
589.29	46490.06
589.45	46597.73
589.61	46384.74
589.77	46504.10
589.93	46656.24
590.08	46691.35
590.24	46625.81
590.40	46843.48
590.56	46707.73
590.72	46763.90
590.88	46813.05
591.04	46670.28
591.20	46703.05
591.35	47082.22
591.51	46787.31
591.67	46499.42
591.83	46590.70
591.99	46644.54
592.15	46653.90
592.31	46387.08
592.46	47058.81
592.62	46609.43
592.78	46623.47
592.94	46712.41
593.10	46494.74
593.26	46941.78
593.41	46892.63
593.57	46155.36
593.73	46483.04
593.89	47110.30
594.05	46951.15
594.20	46536.87
594.36	46672.62
594.52	46401.12
594.68	46960.51
594.84	46466.66
594.99	47173.50
595.15	46593.04
595.31	46799.01
595.47	46637.51
595.62	46717.09
595.78	46834.12
595.94	47030.72
596.10	46972.21
596.25	46670.28
596.41	46628.15
596.57	46712.41
596.73	46857.52
596.88	46887.95
597.04	46438.57
597.20	46611.77
597.36	46817.74
597.51	47250.74
597.67	46733.48
597.83	46593.04
597.99	47035.41
598.14	46461.97
598.30	46927.74
598.46	46728.80
598.61	46866.89
598.77	46607.09
598.93	46344.95
599.09	46714.75
599.24	47054.13
599.40	46576.66
599.56	47075.19
599.71	46586.02
599.87	46801.35
600.03	46600.07
600.18	46260.69
600.34	46855.18
600.50	46539.21
600.65	46621.13
600.81	46555.60
600.97	46810.71
601.12	47012.00
601.28	46728.80
601.44	46302.82
601.59	46241.96
601.75	46302.82
601.91	46450.27
602.06	46103.87
602.22	46600.07
602.37	46761.56
602.53	46087.49
602.69	46845.82
602.84	46508.79
603.00	46314.52
603.16	46504.10
603.31	46752.20
603.47	46597.73
603.62	46827.10
603.78	46784.97
603.94	46756.88
604.09	47056.47
604.25	46958.17
604.40	46518.15
604.56	46506.44
604.71	46579.00
604.87	46342.61
605.03	46665.60
605.18	46466.66
605.34	46569.64
605.49	46649.22
605.65	46717.09
605.80	46333.24
605.96	46864.55
606.12	46457.29
606.27	46899.65
606.43	46380.06
606.58	46698.37
606.74	46476.02
606.89	46361.33
607.05	46834.12
607.20	46375.37
607.36	46319.20
607.51	46719.43
607.67	46611.77
607.82	46972.21
607.98	46153.02
608.13	46000.89
608.29	46387.08
608.44	46218.56
608.60	45954.08
608.75	46043.02
608.91	46370.69
609.06	46131.96
609.22	46277.07
609.37	46171.75
609.53	46302.82
609.68	46206.86
609.84	46099.19
609.99	46195.15
610.15	45720.02
610.30	45734.07
610.46	45514.06
610.61	45778.54
610.76	46031.32
610.92	46059.40
611.07	46263.03
611.23	46061.74
611.38	46075.79
611.54	46162.39
611.69	45830.03
611.84	45474.27
612.00	45621.72
612.15	45886.20
612.31	46073.45
612.46	45853.44
612.62	45804.28
612.77	45909.61
612.92	45743.43
613.08	45673.21
613.23	45485.97
613.39	45537.46
613.54	45345.54
613.69	45666.19
613.85	45694.28
614.00	45310.43
614.15	45759.81
614.31	45811.31
614.46	45813.65
614.62	45705.98
614.77	45518.74
614.92	45708.32
615.08	45216.81
615.23	45514.06
615.38	45598.32
615.54	45132.55
615.69	45357.24
615.84	45088.08
616.00	45331.50
616.15	45151.27
616.30	45352.56
616.46	45216.81
616.61	45048.29
616.76	45500.01
616.92	44945.31
617.07	45017.86
617.22	44919.56
617.37	44973.39
617.53	45345.54
617.68	45565.55
617.83	45036.59
617.99	45174.68
618.14	44870.41
618.29	44638.70
618.45	44877.43
618.60	44823.60
618.75	44746.36
618.90	44519.33
619.06	44554.44
619.21	44957.01
619.36	45127.87
619.51	44687.85
619.67	44535.71
619.82	44481.88
619.97	45027.23
620.12	44690.19
620.28	43564.39
620.43	44678.49
620.58	44556.78
620.73	44727.64
620.89	44699.55
621.04	44772.11
621.19	44704.23
621.34	44758.06
621.49	44346.13
621.65	44273.57
621.80	44538.05
621.95	44526.35
622.10	44949.99
622.25	44011.43
622.41	43971.64
622.56	43969.30
622.71	44336.77
622.86	43885.04
623.01	44594.23
623.16	43952.92
623.32	44402.30
623.47	44175.27
623.62	43845.26
623.77	43777.38
623.92	44083.99
624.07	44032.50
624.23	43849.94
624.38	43859.30
624.53	43737.59
624.68	44304.00
624.83	43704.82
624.98	43831.21
625.13	43428.64
625.29	43213.31
625.44	43632.27
625.59	43505.88
625.74	43281.19
625.89	43276.51
626.04	43115.01
626.19	43555.03
626.34	43475.45
626.49	43775.04
626.65	43285.87
626.80	43807.81
626.95	43096.28
627.10	43255.44
627.25	43075.22
627.40	42906.70
627.55	42698.39
627.70	43335.02
627.85	43178.20
628.00	42869.25
628.15	42836.48
628.30	43185.22
628.45	43119.69
628.60	42916.06
628.76	43203.95
628.91	43091.60
629.06	42948.83
629.21	42462.00
629.36	42148.37
629.51	43012.02
629.66	42433.91
629.81	42429.23
629.96	42747.54
630.11	42649.24
630.26	43253.10
630.41	43002.66
630.56	42689.03
630.71	42761.59
630.86	42380.08
631.01	42527.53
631.16	42508.81
631.31	42515.83
631.46	42227.95
631.61	42639.88
631.76	42241.99
631.91	42462.00
632.06	42646.90
632.21	42457.32
632.36	42239.65
632.51	42000.91
632.66	42258.37
632.81	42080.49
632.96	42419.87
633.10	41893.25
633.25	42279.44
633.40	42380.08
633.55	42246.67
633.70	42071.13
633.85	42253.69
634.00	42000.91
634.15	41872.18
634.30	42134.32
634.45	41696.64
634.60	42213.90
634.75	41883.89
634.90	41600.68
635.05	41701.32
635.19	42031.34
635.34	41813.67
635.49	41488.34
635.64	41687.28
635.79	41617.07
635.94	41591.32
636.09	41598.34
636.24	41249.60
636.39	41565.57
636.53	41392.37
636.68	41563.23
636.83	41633.45
636.98	42099.22
637.13	41261.30
637.28	41766.86
637.43	41205.13
637.57	41357.27
637.72	41064.70
637.87	41326.84
638.02	41734.09
638.17	41560.89
638.32	41312.80
638.46	41516.42
638.61	41612.38
638.76	41481.31
638.91	41490.68
639.06	41099.81
639.20	40945.33
639.35	41528.13
639.50	41490.68
639.65	41558.55
639.80	41310.46
639.94	41045.97
640.09	41062.36
640.24	40442.12
640.39	40966.40
640.54	40437.44
640.68	40687.87
640.83	40531.06
640.98	40421.05
641.13	40641.06
641.27	40999.16
641.42	40116.78
641.57	40608.29
641.72	40371.90
641.86	40421.05
642.01	40404.67
642.16	40023.16
642.31	40245.51
642.45	40870.43
642.60	40488.93
642.75	40032.52
642.90	40502.97
643.04	40271.26
643.19	40304.02
643.34	40470.20
643.48	40168.27
643.63	40336.79
643.78	40325.09
643.93	40350.84
644.07	40238.49
644.22	40018.48
644.37	39896.77
644.51	40306.37
644.66	40025.50
644.81	39786.77
644.95	40109.76
645.10	40121.46
645.25	40084.01
645.39	39964.65
645.54	40198.70
645.69	39964.65
645.83	39892.09
645.98	39585.48
646.13	39868.69
646.27	39784.43
646.42	39988.05
646.57	39824.22
646.71	39445.05
646.86	39709.53
647.00	39426.32
647.15	39253.12
647.30	39765.70
647.44	39431.01
647.59	39360.79
647.74	39105.67
647.88	39072.90
648.03	39477.82
648.17	39749.32
648.32	39543.35
648.47	39866.34
648.61	39388.88
648.76	40102.74
648.90	39353.77
649.05	39765.70
649.20	39576.12
649.34	39208.65
649.49	39042.48
649.63	39035.45
649.78	39255.46
649.92	39253.12
650.07	39548.03
650.21	39379.51
650.36	39110.35
650.51	39295.25
650.65	39508.24
650.80	39131.42
650.94	39730.59
651.09	39154.82
651.23	38925.45
651.38	38646.93
651.52	38958.22
651.67	38574.37
651.81	38932.47
651.96	38375.42
652.10	38799.06
652.25	38869.28
652.39	38810.76
652.54	38693.74
652.68	39023.75
652.83	38902.04
652.97	38778.00
653.12	38742.89
653.26	38373.08
653.41	38698.42
653.55	38581.39
653.70	38300.53
653.84	38377.76
653.99	38579.05
654.13	38232.65
654.27	37902.64
654.42	38181.16
654.56	38117.96
654.71	38572.03
654.85	38150.73
655.00	38312.23
655.14	37919.02
655.29	37750.50
655.43	37736.46
655.57	37589.00
655.72	37312.82
655.86	37523.47
656.01	37315.16
656.15	37277.71
656.30	37703.69
656.44	37263.67
656.58	37855.82
656.73	37425.17
656.87	37441.55
657.01	37404.10
657.16	37610.07
657.30	36954.72
657.45	37301.12
657.59	37603.05
657.73	37975.19
657.88	37406.44
658.02	38038.39
658.16	37663.90
658.31	37581.98
658.45	37251.97
658.60	37549.21
658.74	37127.92
658.88	37303.46
659.03	37116.22
659.17	36870.46
659.31	37055.36
659.46	36928.97
659.60	37085.79
659.74	37003.87
659.89	37123.24
660.03	36741.73
660.17	36952.38
660.32	36790.88
660.46	37244.94
660.60	36727.69
660.74	36905.57
660.89	36767.48
661.03	36343.84
661.17	36891.52
661.32	36350.86
661.46	36624.70
661.60	36641.09
661.74	36297.03
661.89	36189.36
662.03	36727.69
662.17	36512.36
662.31	36528.74
662.46	36732.37
662.60	36112.13
662.74	36114.47
662.88	35910.84
663.03	36100.42
663.17	35887.43
663.31	35562.10
663.45	35606.57
663.60	36091.06
663.74	35889.77
663.88	35793.81
664.02	35721.26
664.17	35971.69
664.31	35512.95
664.45	35828.92
664.59	35302.30
664.73	35386.56
664.88	35344.43
665.02	35091.65
665.16	35365.49
665.30	35033.14
665.44	35330.39
665.59	35115.06
665.73	35323.36
665.87	34443.32
666.01	34899.73
666.15	35122.08
666.29	35487.20
666.44	35220.38
666.58	34925.47
666.72	34955.90
666.86	34941.86
667.00	34780.36
667.14	34555.67
667.28	34312.25
667.43	34511.20
667.57	34960.58
667.71	34504.18
667.85	34885.68
667.99	34527.58
668.13	34143.74
668.27	34122.67
668.41	34642.27
668.56	34073.52
668.70	34272.46
668.84	33848.83
668.98	33376.04
669.12	33919.04
669.26	34045.43
669.40	33584.35
669.54	33476.68
669.68	33628.82
669.82	33184.12
669.96	33537.54
670.10	33593.71
670.25	33502.43
670.39	33249.65
670.53	33125.60
670.67	33156.03
670.81	33401.79
670.95	33064.75
671.09	32982.83
671.23	32947.72
671.37	33043.68
671.51	32624.73
671.65	32643.45
671.79	32938.36
671.93	32507.70
672.07	33134.96
672.21	32701.96
672.35	32673.88
672.49	32627.07
672.63	32687.92
672.77	32404.72
672.91	31758.73
673.05	32325.14
673.19	32039.59
673.33	31962.36
673.47	31683.83
673.61	31758.73
673.75	31405.31
673.89	31608.93
674.03	31330.41
674.17	31775.11
674.31	31475.52
674.45	31281.26
674.59	31630.00
674.73	31728.30
674.87	31707.24
675.01	31283.60
675.15	31192.32
675.29	31096.36
675.43	30831.88
675.56	31131.47
675.70	30590.80
675.84	30815.49
675.98	30141.42
676.12	30277.17
676.26	30384.83
676.40	30508.88
676.54	30487.82
676.68	30934.86
676.82	30232.70
676.96	30639.95
677.10	30000.99
677.23	30235.04
677.37	29907.37
677.51	30047.80
677.65	29972.90
677.79	29322.23
677.93	29537.56
678.07	29273.08
678.21	29127.97
678.34	29017.96
678.48	28809.65
678.62	28716.03
678.76	28683.27
678.90	28414.10
679.04	28868.17
679.18	29111.58
679.31	28177.71
679.45	28194.09
679.59	28208.14
679.73	28554.54
679.87	28121.54
680.00	28423.47
680.14	27730.67
680.28	28037.28
680.42	27782.16
680.56	28023.23
680.70	27594.92
680.83	27833.65
680.97	27421.72
681.11	27803.22
681.25	27119.79
681.39	27487.25
681.52	27070.64
681.66	27225.11
681.80	26955.95
681.94	26845.94
682.07	26916.16
682.21	27019.14
682.35	27124.47
682.49	26579.12
682.62	26513.59
682.76	26401.24
682.90	26497.20
683.04	26529.97
683.17	26066.55
683.31	26061.87
683.45	25638.23
683.59	26068.89
683.72	25855.90
683.86	26043.14
684.00	26150.81
684.13	25928.45
684.27	25462.69
684.41	25546.95
684.55	25308.21
684.68	25003.94
684.82	24999.26
684.96	25076.50
685.09	25207.57
685.23	24938.41
685.37	24987.56
685.50	24816.70
685.64	24896.28
685.78	24482.00
685.91	24486.68
686.05	24142.63
686.19	24058.37
686.32	23892.19
686.46	23608.98
686.60	23496.64
686.73	23473.23
686.87	23199.39
687.01	23002.78
687.14	23264.92
687.28	23138.54
687.42	23215.77
687.55	22991.08
687.69	23424.08
687.82	23096.41
687.96	23190.03
688.10	22890.44
688.23	22953.63
688.37	22661.07
688.50	22799.16
688.64	22384.88
688.78	22771.07
688.91	22478.50
689.05	22150.83
689.18	22539.36
689.32	22050.19
689.46	22312.33
689.59	22314.67
689.73	22305.31
689.86	22263.18
690.00	21825.50
690.13	21963.59
690.27	21750.60
690.41	21752.94
690.54	21252.06
690.68	21392.50
690.81	21324.62
690.95	21556.33
691.08	21099.93
691.22	21256.75
691.35	21315.26
691.49	21008.65
691.62	21057.80
691.76	21022.69
691.89	20938.43
692.03	21001.63
692.16	21170.15
692.30	20713.74
692.43	20456.28
692.57	20219.89
692.70	20315.85
692.84	20315.85
692.97	20177.76
693.11	20348.62
693.24	19822.00
693.38	19515.39
693.51	19922.64
693.65	20013.92
693.78	19693.27
693.92	19838.38
694.05	19515.39
694.19	19814.98
694.32	19360.91
694.45	19215.80
694.59	19115.16
694.72	19070.68
694.86	19042.60
694.99	18675.13
695.13	18881.10
695.26	19005.15
695.39	18656.41
695.53	18831.95
695.66	18895.14
695.80	18862.38
695.93	18534.70
696.07	18207.03
696.20	18450.44
696.33	18164.90
696.47	18338.10
696.60	17884.03
696.73	18001.06
696.87	17987.02
697.00	17790.41
697.14	17532.95
697.27	17816.16
697.40	17710.83
697.54	17626.57
697.67	17429.97
697.80	17352.73
697.94	17181.87
698.07	17032.08
698.21	17177.19
698.34	17013.35
698.47	16999.31
698.61	17055.48
698.74	16882.28
698.87	16648.23
699.01	16664.61
699.14	16486.73
699.27	16449.28
699.40	16643.55
699.54	16390.77
699.67	16166.08
699.80	16304.17
699.94	16119.27
700.07	16107.57
700.20	16159.06
700.34	16334.60
700.47	16065.44
700.60	16098.20
700.73	16358.00
700.87	15903.94
701.00	15693.29
701.13	15412.43
701.26	15494.35
701.40	15555.20
701.53	15447.54
701.66	15452.22
701.79	15349.23
701.93	15330.51
702.06	15145.61
702.19	14909.21
702.32	14733.67
702.46	15047.30
702.59	14986.45
702.72	15126.88
702.85	14991.13
702.99	14803.89
703.12	14768.78
703.25	14609.62
703.38	14424.72
703.51	14413.02
703.65	14476.21
703.78	14574.52
703.91	14202.37
704.04	14148.54
704.17	14099.39
704.31	13748.31
704.44	13963.64
704.57	13968.32
704.70	13846.61
704.83	13731.92
704.96	13729.58
705.10	13785.76
705.23	13717.88
>>>>>End Processed Spectral Data<<<<<
