SpectraSuite Data File
++++++++++++++++++++++++++++++++++++
Date: Fri Oct 25 11:33:25 EDT 2013
User: price-jones
Dark Spectrum Present: No
Reference Spectrum Present: No
Number of Sampled Component Spectra: 1
Spectrometers: USB2+H05261
Integration Time (usec): 100000 (USB2+H05261)
Spectra Averaged: 1 (USB2+H05261)
Boxcar Smoothing: 0 (USB2+H05261)
Correct for Electrical Dark: No (USB2+H05261)
Strobe/Lamp Enabled: No (USB2+H05261)
Correct for Detector Non-linearity: No (USB2+H05261)
Correct for Stray Light: No (USB2+H05261)
Number of Pixels in Processed Spectrum: 2048
>>>>>Begin Processed Spectral Data<<<<<
365.73	231.71
365.92	231.71
366.12	231.71
366.32	152.13
366.52	177.88
366.72	180.22
366.91	250.44
367.11	131.07
367.31	177.88
367.51	163.84
367.70	149.79
367.90	208.31
368.10	145.11
368.30	175.54
368.49	140.43
368.69	177.88
368.89	152.13
369.09	222.35
369.28	264.48
369.48	205.97
369.68	191.92
369.87	255.12
370.07	203.63
370.27	238.73
370.47	346.40
370.66	491.51
370.86	514.92
371.06	461.09
371.25	634.29
371.45	526.62
371.65	606.20
371.84	568.75
372.04	559.39
372.24	568.75
372.44	535.98
372.63	550.03
372.83	585.13
373.03	596.84
373.22	648.33
373.42	638.97
373.62	650.67
373.81	645.99
374.01	578.11
374.21	671.73
374.40	568.75
374.60	643.65
374.79	669.39
374.99	610.88
375.19	664.71
375.38	613.22
375.58	603.86
375.78	641.31
375.97	615.56
376.17	725.57
376.37	624.92
376.56	681.10
376.76	643.65
376.95	592.16
377.15	653.01
377.35	702.16
377.54	676.41
377.74	641.31
377.93	730.25
378.13	695.14
378.33	746.63
378.52	718.54
378.72	758.33
378.91	767.70
379.11	730.25
379.31	662.37
379.50	713.86
379.70	711.52
379.89	772.38
380.09	648.33
380.28	760.67
380.48	772.38
380.68	770.04
380.87	723.23
381.07	774.72
381.26	784.08
381.46	760.67
381.65	784.08
381.85	814.51
382.04	760.67
382.24	774.72
382.43	842.59
382.63	807.48
382.83	840.25
383.02	816.85
383.22	816.85
383.41	814.51
383.61	777.06
383.80	851.96
384.00	884.72
384.19	814.51
384.39	816.85
384.58	786.42
384.78	802.80
384.97	858.98
385.17	795.78
385.36	802.80
385.56	812.17
385.75	795.78
385.95	866.00
386.14	924.51
386.34	887.06
386.53	884.72
386.72	898.77
386.92	938.55
387.11	854.30
387.31	880.04
387.50	840.25
387.70	912.81
387.89	926.85
388.09	915.15
388.28	919.83
388.48	819.19
388.67	947.92
388.86	936.21
389.06	880.04
389.25	938.55
389.45	940.90
389.64	905.79
389.84	990.05
390.03	1029.84
390.22	985.37
390.42	938.55
390.61	877.70
390.81	936.21
391.00	1001.75
391.19	1004.09
391.39	980.68
391.58	1008.77
391.78	1060.26
391.97	1027.50
392.16	933.87
392.36	1086.01
392.55	1062.60
392.75	1104.73
392.94	1011.11
393.13	1132.82
393.33	1004.09
393.52	1179.63
393.71	1107.07
393.91	1177.29
394.10	1053.24
394.29	1109.41
394.49	1043.88
394.68	1130.48
394.88	1048.56
395.07	1053.24
395.26	1011.11
395.46	1142.18
395.65	1200.69
395.84	1188.99
396.04	1156.22
396.23	1142.18
396.42	1205.38
396.62	1214.74
396.81	1282.61
397.00	1245.16
397.19	1238.14
397.39	1270.91
397.58	1317.72
397.77	1224.10
397.97	1228.78
398.16	1170.27
398.35	1355.17
398.55	1273.25
398.74	1303.68
398.93	1437.09
399.12	1369.21
399.32	1296.66
399.51	1310.70
399.70	1383.26
399.90	1373.89
400.09	1338.79
400.28	1409.00
400.47	1439.43
400.67	1467.52
400.86	1378.58
401.05	1434.75
401.24	1369.21
401.44	1425.39
401.63	1460.49
401.82	1507.30
402.01	1432.41
402.21	1516.67
402.40	1425.39
402.59	1533.05
402.78	1544.75
402.97	1497.94
403.17	1448.79
403.36	1570.50
403.55	1533.05
403.74	1549.43
403.93	1626.67
404.13	1659.44
404.32	1596.25
404.51	1533.05
404.70	1715.61
404.89	1610.29
405.09	1645.40
405.28	1675.82
405.47	1717.95
405.66	1629.01
405.85	1710.93
406.05	1757.74
406.24	1778.81
406.43	1713.27
406.62	1739.02
406.81	1785.83
407.00	1774.13
407.20	1774.13
407.39	1783.49
407.58	1753.06
407.77	1863.07
407.96	1975.41
408.15	1898.17
408.34	1856.04
408.54	1874.77
408.73	1849.02
408.92	1881.79
409.11	1954.35
409.30	1944.99
409.49	1914.56
409.68	1956.69
409.87	2001.16
410.07	2033.93
410.26	2153.29
410.45	1916.90
410.64	2052.65
410.83	2059.67
411.02	2228.19
411.21	2150.95
411.40	2225.85
411.59	2155.63
411.78	2202.44
411.98	2150.95
412.17	2298.41
412.36	2380.32
412.55	2307.77
412.74	2319.47
412.93	2399.05
413.12	2291.38
413.31	2466.92
413.50	2417.77
413.69	2349.90
413.88	2546.50
414.07	2480.97
414.26	2539.48
414.45	2546.50
414.64	2532.46
414.83	2560.55
415.02	2630.76
415.22	2635.44
415.41	2644.81
415.60	2623.74
415.79	2612.04
415.98	2743.11
416.17	2747.79
416.36	2813.32
416.55	2726.72
416.74	2909.29
416.93	2944.39
417.12	2869.50
417.31	2810.98
417.50	2902.26
417.69	3000.57
417.88	2935.03
418.07	2918.65
418.26	2906.95
418.45	2916.31
418.64	3108.23
418.83	3014.61
419.02	2991.20
419.21	3108.23
419.39	3141.00
419.58	3166.74
419.77	3038.02
419.96	3126.96
420.15	3206.53
420.34	3302.50
420.53	3162.06
420.72	3332.92
420.91	3178.45
421.10	3211.22
421.29	3332.92
421.48	3272.07
421.67	3288.45
421.86	3346.97
422.05	3349.31
422.24	3211.22
422.43	3330.58
422.61	3318.88
422.80	3454.63
422.99	3410.16
423.18	3433.57
423.37	3534.21
423.56	3485.06
423.75	3386.76
423.94	3375.05
424.13	3215.90
424.32	3311.86
424.50	3384.41
424.69	3513.14
424.88	3564.64
425.07	3332.92
425.26	3335.26
425.45	3267.39
425.64	3384.41
425.83	3468.67
426.01	3499.10
426.20	3515.48
426.39	3506.12
426.58	3510.80
426.77	3548.25
426.96	3585.70
427.15	3632.51
427.33	3541.23
427.52	3445.27
427.71	3691.02
427.90	3768.26
428.09	3698.05
428.28	3552.93
428.46	3794.01
428.65	3688.68
428.84	3840.82
429.03	3838.48
429.22	3763.58
429.40	3763.58
429.59	3737.84
429.78	3651.24
429.97	3669.96
430.16	3772.94
430.34	3955.51
430.53	3786.99
430.72	3911.04
430.91	3906.35
431.10	3918.06
431.28	3932.10
431.47	3997.64
431.66	3896.99
431.85	3866.56
432.03	4018.70
432.22	4196.58
432.41	4091.26
432.60	4215.30
432.79	4114.66
432.97	4093.60
433.16	4138.07
433.35	4044.45
433.54	4243.39
433.72	4100.62
433.91	4109.98
434.10	4252.75
434.28	4212.96
434.47	4159.13
434.66	4311.27
434.85	4339.35
435.03	4362.76
435.22	4212.96
435.41	4582.77
435.59	4447.02
435.78	4531.28
435.97	4519.57
436.16	4440.00
436.34	4442.34
436.53	4566.39
436.72	4540.64
436.90	4447.02
437.09	4540.64
437.28	4381.48
437.46	4505.53
437.65	4622.56
437.84	4685.75
438.02	4634.26
438.21	4528.94
438.40	4615.54
438.58	4826.18
438.77	4882.36
438.96	4851.93
439.14	4873.00
439.33	4980.66
439.52	4973.64
439.70	4854.27
439.89	5006.41
440.08	4868.31
440.26	5006.41
440.45	5039.17
440.63	5195.99
440.82	5135.14
441.01	5135.14
441.19	5217.05
441.38	5137.48
441.57	5275.57
441.75	5322.38
441.94	5467.49
442.12	5427.70
442.31	5458.13
442.50	5418.34
442.68	5345.78
442.87	5397.28
443.05	5575.16
443.24	5619.63
443.43	5535.37
443.61	5582.18
443.80	5654.73
443.98	5561.11
444.17	5313.02
444.35	5612.60
444.54	5645.37
444.73	5631.33
444.91	5748.36
445.10	5619.63
445.28	5809.21
445.47	5708.57
445.65	5748.36
445.84	5722.61
446.02	5823.25
446.21	5823.25
446.39	5844.32
446.58	5830.27
446.77	5713.25
446.95	5556.43
447.14	5701.54
447.32	6064.33
447.51	5755.38
447.69	5846.66
447.88	5827.93
448.06	5870.06
448.25	5849.00
448.43	5858.36
448.62	5689.84
448.80	5776.44
448.99	5837.30
449.17	5912.19
449.36	6040.92
449.54	5970.71
449.73	6076.03
449.91	6134.54
450.10	6069.01
450.28	6282.00
450.46	6099.44
450.65	6293.70
450.83	6113.48
451.02	6193.06
451.20	6207.10
451.39	6066.67
451.57	6270.30
451.76	6127.52
451.94	6155.61
452.13	6375.62
452.31	6401.37
452.49	5905.17
452.68	6218.80
452.86	6457.54
453.05	6497.33
453.23	6324.13
453.42	6279.66
453.60	6434.13
453.78	6523.07
453.97	6333.49
454.15	6403.71
454.34	6300.72
454.52	6586.27
454.70	6553.50
454.89	6530.09
455.07	6633.08
455.26	6707.98
455.44	6703.29
455.62	6738.40
455.81	6750.10
455.99	6698.61
456.17	6803.94
456.36	6827.34
456.54	6965.43
456.73	6892.88
456.91	6953.73
457.09	6958.41
457.28	7094.16
457.46	6963.09
457.64	7349.28
457.83	7162.04
458.01	7089.48
458.19	7428.86
458.38	7192.47
458.56	7225.23
458.74	7155.02
458.93	7239.28
459.11	7407.80
459.29	7197.15
459.48	7281.41
459.66	7365.67
459.84	7389.07
460.03	7487.37
460.21	7389.07
460.39	7372.69
460.57	7501.42
460.76	7461.63
460.94	7531.84
461.12	7531.84
461.31	7651.21
461.49	7506.10
461.67	7463.97
461.85	7817.39
462.04	7665.25
462.22	7885.26
462.40	7838.45
462.59	7775.26
462.77	7691.00
462.95	7833.77
463.13	7887.61
463.32	7840.79
463.50	7702.70
463.68	7941.44
463.86	8147.40
464.05	7852.50
464.23	7866.54
464.41	7964.84
464.59	7875.90
464.78	8177.83
464.96	8025.70
465.14	7852.50
465.32	8046.76
465.50	8013.99
465.69	8077.19
465.87	8463.38
466.05	8098.25
466.23	8215.28
466.41	8231.66
466.60	8266.77
466.78	8236.35
466.96	8051.44
467.14	8301.88
467.32	8374.44
467.51	8439.97
467.69	8114.64
467.87	8215.28
468.05	8313.58
468.23	8372.10
468.41	8439.97
468.60	8402.52
468.78	8512.53
468.96	8540.61
469.14	8564.02
469.32	8500.83
469.50	8451.67
469.69	8847.22
469.87	8727.86
470.05	8641.26
470.23	8987.66
470.41	9055.53
470.59	8968.93
470.77	8645.94
470.95	8915.10
471.14	9062.55
471.32	8730.20
471.50	9210.01
471.68	9046.17
471.86	9104.68
472.04	8940.85
472.22	9404.27
472.40	9165.54
472.58	9336.40
472.77	9495.55
472.95	9390.23
473.13	9673.43
473.31	9287.25
473.49	9310.65
473.67	9500.23
473.85	9643.01
474.03	9905.15
474.21	9710.88
474.39	9954.30
474.57	9830.25
474.75	10087.71
474.93	10024.51
475.12	10141.54
475.30	10008.13
475.48	9891.10
475.66	10019.83
475.84	10181.33
476.02	10258.57
476.20	10427.09
476.38	10593.26
476.56	10548.79
476.74	10607.31
476.92	10434.11
477.10	10581.56
477.28	10684.55
477.46	10483.26
477.64	10745.40
477.82	10871.79
478.00	11178.40
478.18	11087.12
478.36	11293.08
478.54	11314.15
478.72	11426.50
478.90	11501.39
479.08	11676.93
479.26	11644.17
479.44	11948.43
479.62	11833.75
479.80	12109.93
479.98	12098.23
480.16	12362.71
480.34	11892.26
480.52	12351.01
480.70	12255.04
480.88	12360.37
481.06	12531.23
481.24	12299.52
481.41	12664.64
481.59	12641.23
481.77	12908.05
481.95	12844.86
482.13	13102.32
482.31	13062.53
482.49	13240.41
482.67	13469.78
482.85	13542.34
483.03	13832.57
483.21	13745.97
483.39	13722.56
483.57	13715.54
483.74	13710.86
483.92	13785.76
484.10	14281.95
484.28	14436.42
484.46	14611.96
484.64	14937.30
484.82	14319.40
485.00	14546.43
485.18	15215.82
485.35	15229.87
485.53	15159.65
485.71	15152.63
485.89	15367.96
486.07	15201.78
486.25	15557.54
486.43	15442.85
486.61	15885.22
486.78	15765.85
486.96	16196.51
487.14	16067.78
487.32	16407.16
487.50	16491.41
487.68	16568.65
487.85	16779.30
488.03	16814.41
488.21	17011.01
488.39	17039.10
488.57	17263.79
488.75	17221.66
488.92	17577.42
489.10	17647.64
489.28	17869.99
489.46	17799.77
489.64	17975.31
489.81	18326.39
489.99	18410.65
490.17	18410.65
490.35	18537.04
490.53	18513.64
490.70	18867.06
490.88	18515.98
491.06	18792.16
491.24	19054.30
491.41	19110.47
491.59	19267.29
491.77	19152.60
491.95	19520.07
492.13	19660.50
492.30	19620.71
492.48	19960.09
492.66	19779.87
492.84	20044.35
493.01	20353.30
493.19	20357.98
493.37	20425.86
493.54	20491.39
493.72	20657.57
493.90	21036.74
494.08	20959.50
494.25	20868.22
494.43	20886.94
494.61	21399.52
494.79	21364.41
494.96	21385.47
495.14	21617.19
495.32	21605.49
495.49	21593.78
495.67	22068.91
495.85	21958.91
496.02	22389.56
496.20	22324.03
496.38	22169.55
496.55	22560.42
496.73	22881.08
496.91	22932.57
497.09	23047.26
497.26	23016.83
497.44	23073.00
497.62	23140.88
497.79	23384.29
497.97	23459.19
498.14	23831.33
498.32	23531.75
498.50	23896.87
498.67	23964.75
498.85	23950.70
499.03	24350.93
499.20	24114.54
499.38	24407.11
499.56	24545.20
499.73	24627.12
499.91	24694.99
500.08	24877.55
500.26	24458.60
500.44	24753.51
500.61	25207.57
500.79	24706.70
500.97	25317.57
501.14	25329.28
501.32	25755.26
501.49	25460.35
501.67	25715.47
501.84	25568.01
502.02	25736.53
502.20	25830.15
502.37	25848.88
502.55	26040.80
502.72	25729.51
502.90	26043.14
503.07	25912.07
503.25	26141.44
503.43	26108.68
503.60	26518.27
503.78	26679.77
503.95	26326.35
504.13	26637.64
504.30	26986.38
504.48	26679.77
504.65	27190.00
504.83	27536.40
505.01	27379.59
505.18	27026.17
505.36	27646.41
505.53	27168.94
505.71	27508.32
505.88	27805.56
506.06	27101.06
506.23	27833.65
506.41	27906.21
506.58	28177.71
506.76	27784.50
506.93	28233.88
507.11	28109.83
507.28	28407.08
507.46	28477.30
507.63	28414.10
507.81	28563.90
507.98	28212.82
508.16	28652.84
508.33	28610.71
508.50	28910.30
508.68	28943.06
508.85	29050.73
509.03	28819.02
509.20	29383.09
509.38	29575.01
509.55	29399.47
509.73	29167.76
509.90	29589.05
510.08	29567.99
510.25	29434.58
510.42	29780.98
510.60	29883.96
510.77	30029.07
510.95	29879.28
511.12	29853.53
511.30	30129.72
511.47	30394.20
511.64	30033.75
511.82	30644.63
511.99	30543.99
512.17	30441.01
512.34	30565.06
512.51	31035.50
512.69	31089.34
512.86	30778.04
513.04	31325.73
513.21	30913.80
513.38	31442.76
513.56	31239.13
513.73	31372.54
513.90	31173.60
514.08	31302.32
514.25	31599.57
514.43	31707.24
514.60	32032.57
514.77	31648.72
514.95	31999.80
515.12	31749.37
515.29	31686.17
515.47	32161.30
515.64	32128.53
515.81	31931.93
515.99	32435.14
516.16	32285.35
516.33	32238.54
516.51	32926.66
516.68	32552.17
516.85	32226.84
517.03	33055.39
517.20	32872.82
517.37	32954.74
517.54	33048.36
517.72	33188.80
517.89	32959.42
518.06	33039.00
518.24	33041.34
518.41	33373.70
518.58	33434.55
518.75	33149.01
518.93	33586.69
519.10	33687.33
519.27	33745.84
519.45	33907.34
519.62	34230.33
519.79	33762.23
519.96	34190.55
520.14	33752.87
520.31	33958.83
520.48	34354.38
520.65	34267.78
520.83	34539.29
521.00	34602.48
521.17	34548.65
521.34	34836.53
521.52	34810.79
521.69	34389.49
521.86	35070.59
522.03	35019.10
522.20	35145.48
522.38	35342.09
522.55	35199.32
522.72	35379.54
522.89	35405.28
523.07	35489.54
523.24	35496.56
523.41	35620.61
523.58	35576.14
523.75	35754.02
523.92	35459.12
524.10	35765.73
524.27	35896.80
524.44	36077.02
524.61	35955.31
524.78	35873.39
524.96	36135.53
525.13	35955.31
525.30	36210.43
525.47	36252.56
525.64	36542.78
525.81	36357.88
525.98	36795.56
526.16	36584.91
526.33	36577.89
526.50	37046.00
526.67	36692.58
526.84	36917.27
527.01	36994.51
527.18	36959.40
527.36	36910.25
527.53	37024.93
527.70	37523.47
527.87	37322.18
528.04	36968.76
528.21	37172.39
528.38	37034.30
528.55	37219.20
528.72	37076.43
528.89	37462.61
529.07	37085.79
529.24	37429.85
529.41	37958.81
529.58	37776.25
529.75	37560.92
529.92	37912.00
530.09	37521.13
530.26	37762.20
530.43	38127.33
530.60	38080.52
530.77	38132.01
530.94	37963.49
531.11	37984.55
531.28	38246.69
531.46	37844.12
531.63	38373.08
531.80	38242.01
531.97	38366.06
532.14	38117.96
532.31	38670.33
532.48	38447.98
532.65	38925.45
532.82	38785.02
532.99	38932.47
533.16	38717.14
533.33	38724.16
533.50	39129.08
533.67	39019.07
533.84	39086.95
534.01	39360.79
534.18	38787.36
534.35	39805.49
534.52	39295.25
534.69	40041.88
534.86	39749.32
535.03	39716.55
535.20	39543.35
535.37	40210.40
535.54	39662.72
535.71	39566.76
535.88	40006.78
536.05	39934.22
536.22	39831.24
536.38	39636.97
536.55	39676.76
536.72	39901.45
536.89	40194.02
537.06	40289.98
537.23	40332.11
537.40	40041.88
537.57	39908.47
537.74	39796.13
537.91	40748.73
538.08	40509.99
538.25	39995.07
538.42	40519.35
538.59	40734.68
538.75	40264.24
538.92	40575.53
539.09	40879.80
539.26	40605.95
539.43	40655.11
539.60	40825.96
539.77	40444.46
539.94	41134.92
540.11	40919.59
540.28	41006.19
540.44	41064.70
540.61	41008.53
540.78	40999.16
540.95	41537.49
541.12	41399.40
541.29	41109.17
541.46	41296.41
541.62	41265.99
541.79	41797.29
541.96	41067.04
542.13	41221.52
542.30	41588.98
542.47	41326.84
542.63	41497.70
542.80	41600.68
542.97	41940.06
543.14	42230.29
543.31	41598.34
543.48	41874.52
543.64	42115.60
543.81	41827.71
543.98	42682.01
544.15	42447.96
544.32	42085.17
544.48	42923.08
544.65	42766.27
544.82	42532.22
544.99	42349.65
545.16	42784.99
545.32	42724.14
545.49	42560.30
545.66	42698.39
545.83	42817.76
546.00	42597.75
546.16	42855.21
546.33	42349.65
546.50	42773.29
546.67	43042.45
546.83	42639.88
547.00	42829.46
547.17	42492.43
547.34	43105.65
547.50	43395.87
547.67	43533.96
547.84	43262.46
548.00	43285.87
548.17	43442.68
548.34	43695.46
548.51	44039.52
548.67	43398.21
548.84	43517.58
549.01	43210.97
549.18	43381.83
549.34	43381.83
549.51	43648.65
549.68	43852.28
549.84	43477.79
550.01	43620.56
550.18	43576.09
550.34	44058.24
550.51	44023.14
550.68	43756.32
550.84	43562.05
551.01	44301.66
551.18	43756.32
551.34	44044.20
551.51	44233.78
551.68	43885.04
551.84	44275.91
552.01	44112.08
552.18	44762.75
552.34	43529.28
552.51	44636.36
552.68	44252.51
552.84	44519.33
553.01	44292.30
553.18	44287.62
553.34	44509.97
553.51	44542.74
553.67	44516.99
553.84	44268.89
554.01	44821.26
554.17	44432.73
554.34	44245.49
554.51	44704.23
554.67	44837.64
554.84	44699.55
555.00	44612.95
555.17	44538.05
555.33	44744.02
555.50	45268.30
555.67	44856.37
555.83	44835.30
556.00	45347.88
556.16	45008.50
556.33	45043.61
556.50	45015.52
556.66	44975.73
556.83	44800.19
556.99	45214.47
557.16	45244.90
557.32	45036.59
557.49	45558.53
557.65	45013.18
557.82	45244.90
557.98	45825.35
558.15	45467.25
558.32	45413.41
558.48	45497.67
558.65	45127.87
558.81	45567.89
558.98	45200.43
559.14	45031.91
559.31	45530.44
559.47	45390.01
559.64	45504.70
559.80	45909.61
559.97	45755.13
560.13	45500.01
560.30	45825.35
560.46	45860.46
560.63	46052.38
560.79	46183.45
560.96	46045.36
561.12	46017.27
561.29	45738.75
561.45	46174.09
561.61	45951.74
561.78	46223.24
561.94	45900.25
562.11	46230.26
562.27	46087.49
562.44	46038.34
562.60	46061.74
562.77	46007.91
562.93	45993.87
563.10	46272.39
563.26	45858.12
563.42	46532.19
563.59	46354.31
563.75	46192.81
563.92	46164.73
564.08	46344.95
564.24	45914.29
564.41	46220.90
564.57	46286.43
564.74	46309.84
564.90	46272.39
565.07	46443.25
565.23	46497.08
565.39	46047.70
565.56	46431.55
565.72	46227.92
565.88	46209.20
566.05	46225.58
566.21	46335.59
566.38	46494.74
566.54	46541.55
566.70	46256.01
566.87	46632.83
567.03	46670.28
567.19	46841.14
567.36	46597.73
567.52	46408.14
567.68	46600.07
567.85	46909.02
568.01	46962.85
568.17	46595.38
568.34	46904.34
568.50	46497.08
568.66	46234.94
568.83	46932.42
568.99	46855.18
569.15	46852.84
569.32	46745.18
569.48	46848.16
569.64	47077.54
569.81	46735.82
569.97	46988.60
570.13	47285.84
570.30	46677.30
570.46	47178.18
570.62	47077.54
570.78	47012.00
570.95	46710.07
571.11	47124.35
571.27	46733.48
571.43	46782.63
571.60	47122.01
571.76	46930.08
571.92	46588.36
572.09	46948.81
572.25	46588.36
572.41	46763.90
572.57	46581.34
572.74	47583.09
572.90	47192.22
573.06	46981.57
573.22	46988.60
573.38	47517.56
573.55	47082.22
573.71	47447.34
573.87	47334.99
574.03	47351.38
574.20	47395.85
574.36	47157.11
574.52	47351.38
574.68	47288.18
574.84	47501.17
575.01	47662.67
575.17	47573.73
575.33	47360.74
575.49	47143.07
575.65	47129.03
575.82	47215.63
575.98	46770.93
576.14	47735.23
576.30	47381.80
576.46	47452.02
576.62	47040.09
576.79	46995.62
576.95	47103.28
577.11	46916.04
577.27	47288.18
577.43	47398.19
577.59	47143.07
577.75	47412.23
577.92	47157.11
578.08	47206.26
578.24	47370.10
578.40	47753.95
578.56	47381.80
578.72	47440.32
578.88	47613.52
579.04	47004.98
579.21	47435.64
579.37	47384.15
579.53	47402.87
579.69	47262.44
579.85	47126.69
580.01	47648.63
580.17	47550.32
580.33	47608.84
580.49	47423.93
580.65	47339.68
580.82	47269.46
580.98	47089.24
581.14	47194.56
581.30	47688.42
581.46	47636.92
581.62	47430.96
581.78	47339.68
581.94	47634.58
582.10	47533.94
582.26	47505.85
582.42	47515.22
582.58	47583.09
582.74	47920.13
582.90	47878.00
583.06	47154.77
583.22	47414.57
583.38	47377.12
583.54	47833.53
583.70	47665.01
583.86	47428.62
584.02	47721.18
584.18	47777.36
584.34	47690.76
584.50	47852.25
584.66	47334.99
584.82	47585.43
584.98	47870.98
585.14	47625.22
585.30	47327.97
585.46	47662.67
585.62	47367.76
585.78	47690.76
585.94	47461.38
586.10	47793.74
586.26	47339.68
586.42	47889.70
586.58	47459.04
586.74	47606.50
586.90	47412.23
587.06	47386.49
587.22	48217.38
587.38	47749.27
587.54	48044.18
587.70	48182.27
587.86	47704.80
588.02	47126.69
588.18	47508.19
588.34	47728.20
588.49	47262.44
588.65	47714.16
588.81	47707.14
588.97	48219.72
589.13	47770.33
589.29	47784.38
589.45	48212.70
589.61	47859.27
589.77	48074.60
589.93	48009.07
590.08	48018.43
590.24	48357.81
590.40	47814.80
590.56	48112.05
590.72	48137.80
590.88	47763.31
591.04	47524.58
591.20	48142.48
591.35	48147.16
591.51	48357.81
591.67	48371.85
591.83	47906.08
591.99	48067.58
592.15	48137.80
592.31	48137.80
592.46	47840.55
592.62	47824.17
592.78	48020.77
592.94	48437.39
593.10	48158.86
593.26	48655.06
593.41	48348.45
593.57	48442.07
593.73	48626.97
593.89	48332.06
594.05	48638.67
594.20	48186.95
594.36	48411.64
594.52	48568.46
594.68	48275.89
594.84	48439.73
594.99	48463.13
595.15	48542.71
595.31	48500.58
595.47	48205.67
595.62	48603.56
595.78	48034.81
595.94	48446.75
596.10	48210.35
596.25	48474.84
596.41	48563.78
596.57	48048.86
596.73	48355.47
596.88	48381.21
597.04	48287.59
597.20	48699.53
597.36	48313.34
597.51	48346.11
597.67	48432.71
597.83	48362.49
597.99	48615.27
598.14	48086.31
598.30	48224.40
598.46	48381.21
598.61	48725.27
598.77	48301.64
598.93	48818.89
599.09	48463.13
599.24	48945.28
599.40	48428.02
599.56	48622.29
599.71	48861.02
599.87	49031.88
600.03	48741.66
600.18	48746.34
600.34	48423.34
600.50	48388.24
600.65	48566.12
600.81	48519.31
600.97	48526.33
601.12	48568.46
601.28	48823.58
601.44	48596.54
601.59	48816.55
601.75	48945.28
601.91	48636.33
602.06	48449.09
602.22	49038.90
602.37	48147.16
602.53	48208.01
602.69	48636.33
602.84	48519.31
603.00	48238.44
603.16	48882.09
603.31	48390.58
603.47	48570.80
603.62	48491.22
603.78	48533.35
603.94	48610.59
604.09	48643.35
604.25	48332.06
604.40	48430.36
604.56	48573.14
604.71	49057.63
604.87	48383.55
605.03	48484.20
605.18	48460.79
605.34	48533.35
605.49	48385.89
605.65	48580.16
605.80	48158.86
605.96	48765.06
606.12	48175.25
606.27	48818.89
606.43	48734.63
606.58	48493.56
606.74	48409.30
606.89	48542.71
607.05	48825.92
607.20	48594.20
607.36	48381.21
607.51	48830.60
607.67	48020.77
607.82	47962.26
607.98	48406.96
608.13	48229.08
608.29	48418.66
608.44	48308.66
608.60	48308.66
608.75	48158.86
608.91	48254.82
609.06	47915.45
609.22	48325.04
609.37	48388.24
609.53	48432.71
609.68	48381.21
609.84	48247.80
609.99	48521.65
610.15	48222.06
610.30	48793.15
610.46	48332.06
610.61	48041.84
610.76	48308.66
610.92	47700.12
611.07	48381.21
611.23	47683.73
611.38	48098.01
611.54	48268.87
611.69	48161.20
611.84	47667.35
612.00	47835.87
612.15	47812.46
612.31	48301.64
612.46	47868.64
612.62	47618.20
612.77	47873.32
612.92	47648.63
613.08	48105.03
613.23	47997.37
613.39	47840.55
613.54	47866.30
613.69	48266.53
613.85	48051.20
614.00	47758.63
614.15	48144.82
614.31	47807.78
614.46	47826.51
614.62	47667.35
614.77	47756.29
614.92	47730.54
615.08	47728.20
615.23	47695.44
615.38	47789.06
615.54	48018.43
615.69	47990.34
615.84	47798.42
616.00	48121.41
616.15	47999.71
616.30	48177.59
616.46	47695.44
616.61	47445.00
616.76	47793.74
616.92	47714.16
617.07	47496.49
617.22	47627.56
617.37	47152.43
617.53	47821.83
617.68	47405.21
617.83	47880.34
617.99	47849.91
618.14	47292.86
618.29	47283.50
618.45	47030.72
618.60	47150.09
618.75	47159.45
618.90	47023.70
619.06	47416.91
619.21	47498.83
619.36	47606.50
619.51	47227.33
619.67	47381.80
619.82	47674.37
619.97	47349.04
620.12	47068.17
620.28	47342.02
620.43	47222.65
620.58	47016.68
620.73	47657.99
620.89	47236.69
621.04	47264.78
621.19	47192.22
621.34	47332.65
621.49	47206.26
621.65	46866.89
621.80	47187.54
621.95	46899.65
622.10	47157.11
622.25	47061.15
622.41	47103.28
622.56	46887.95
622.71	46878.59
622.86	46944.12
623.01	47278.82
623.16	46738.16
623.32	47047.11
623.47	47098.60
623.62	46904.34
623.77	46939.44
623.92	46616.45
624.07	47002.64
624.23	47065.83
624.38	47107.96
624.53	46410.48
624.68	46248.99
624.83	46394.10
624.98	46497.08
625.13	46146.00
625.29	46309.84
625.44	46490.06
625.59	46513.47
625.74	46450.27
625.89	46398.78
626.04	46298.14
626.19	46522.83
626.34	46010.25
626.49	46127.28
626.65	46096.85
626.80	46237.28
626.95	45956.42
627.10	45954.08
627.25	46176.43
627.40	46291.12
627.55	46506.44
627.70	45876.84
627.85	46131.96
628.00	46284.09
628.15	46021.95
628.30	45532.78
628.45	45567.89
628.60	46087.49
628.76	45972.80
628.91	45628.74
629.06	45322.13
629.21	45577.25
629.36	45591.30
629.51	45933.01
629.66	46333.24
629.81	45764.49
629.96	45846.41
630.11	45818.33
630.26	45553.85
630.41	45904.93
630.56	45713.00
630.71	45272.98
630.86	45581.93
631.01	45446.18
631.16	45525.76
631.31	45794.92
631.46	45773.86
631.61	45883.86
631.76	45507.04
631.91	45544.48
632.06	45474.27
632.21	45832.37
632.36	45785.56
632.51	45029.57
632.66	45801.94
632.81	45235.53
632.96	45343.20
633.10	45193.40
633.25	45221.49
633.40	45200.43
633.55	45287.03
633.70	45240.21
633.85	45628.74
634.00	44814.24
634.15	45375.97
634.30	44556.78
634.45	45226.17
634.60	45340.86
634.75	45006.16
634.90	44800.19
635.05	45221.49
635.19	44882.11
635.34	44755.72
635.49	44877.43
635.64	44868.07
635.79	44961.69
635.94	45043.61
636.09	44818.92
636.24	45013.18
636.39	44732.32
636.53	45052.97
636.68	44580.18
636.83	44144.84
636.98	44538.05
637.13	44439.75
637.28	44231.44
637.43	44259.53
637.57	45214.47
637.72	44275.91
637.87	44416.35
638.02	44432.73
638.17	44566.14
638.32	44098.03
638.46	44121.44
638.61	44231.44
638.76	43988.03
638.91	44123.78
639.06	44395.28
639.20	43770.36
639.35	43615.88
639.50	43859.30
639.65	44451.45
639.80	44385.92
639.94	44582.52
640.09	44418.69
640.24	44355.49
640.39	44088.67
640.54	43812.49
640.68	43863.98
640.83	44488.90
640.98	44240.81
641.13	43971.64
641.27	44322.72
641.42	44025.48
641.57	43538.65
641.72	43412.26
641.86	43878.02
642.01	43646.31
642.16	43831.21
642.31	43016.71
642.45	43482.47
642.60	43613.54
642.75	43683.76
642.90	44257.19
643.04	43903.77
643.19	43388.85
643.34	43629.93
643.48	42918.40
643.63	43402.89
643.78	43831.21
643.93	43716.53
644.07	43445.02
644.22	43292.89
644.37	43232.04
644.51	43304.59
644.66	43777.38
644.81	43426.30
644.95	43470.77
645.10	42981.60
645.25	43126.71
645.39	43105.65
645.54	43522.26
645.69	42974.58
645.83	42616.47
645.98	43119.69
646.13	43222.67
646.27	43002.66
646.42	42773.29
646.57	42983.94
646.71	43056.50
646.86	43098.62
647.00	42916.06
647.15	42740.52
647.30	42918.40
647.44	43461.41
647.59	43026.07
647.74	42930.11
647.88	42843.51
648.03	43250.76
648.17	43292.89
648.32	43002.66
648.47	43030.75
648.61	42504.13
648.76	42993.30
648.90	42492.43
649.05	42876.27
649.20	42569.66
649.34	42660.94
649.49	42588.39
649.63	42974.58
649.78	42677.33
649.92	42249.01
650.07	42721.80
650.21	42492.43
650.36	42689.03
650.51	42845.85
650.65	42787.33
650.80	42703.07
650.94	42876.27
651.09	42361.36
651.23	42085.17
651.38	42171.77
651.52	41813.67
651.67	42017.30
651.81	42251.35
651.96	42288.80
652.10	41876.86
652.25	41935.38
652.39	42532.22
652.54	41909.63
652.68	42061.77
652.83	42443.27
652.97	41944.74
653.12	42064.11
653.26	42234.97
653.41	41825.37
653.55	42244.33
653.70	42174.11
653.84	42073.47
653.99	41979.85
654.13	41593.66
654.27	42078.15
654.42	42026.66
654.56	41612.38
654.71	41918.99
654.85	41975.17
655.00	42162.41
655.14	41921.34
655.29	41893.25
655.43	42080.49
655.57	41631.11
655.72	41701.32
655.86	41343.22
656.01	40938.31
656.15	41251.94
656.30	41593.66
656.44	41401.74
656.58	41415.78
656.73	41549.19
656.87	41153.64
657.01	40924.27
657.16	41361.95
657.30	41490.68
657.45	40931.29
657.59	41258.96
657.73	40896.18
657.88	41294.07
658.02	41074.06
658.16	41464.93
658.31	41282.37
658.45	41191.09
658.60	41045.97
658.74	41097.47
658.88	41123.21
659.03	40526.38
659.17	40367.22
659.31	40994.48
659.46	40201.04
659.60	40816.60
659.74	40584.89
659.89	40467.86
660.03	40243.17
660.17	40701.92
660.32	40493.61
660.46	40430.41
660.60	40006.78
660.74	40376.58
660.89	40240.83
661.03	39791.45
661.17	40030.18
661.32	40215.08
661.46	40299.34
661.60	39536.33
661.74	40280.62
661.89	39641.65
662.03	40044.23
662.17	39400.58
662.31	39634.63
662.46	39826.56
662.60	39908.47
662.74	39321.00
662.88	39079.92
663.03	39688.46
663.17	39538.67
663.31	38717.14
663.45	38890.34
663.60	39810.17
663.74	39515.26
663.88	39421.64
664.02	38724.16
664.17	39466.11
664.31	38766.29
664.45	38820.13
664.59	39108.01
664.73	38689.06
664.88	39157.16
665.02	38665.65
665.16	38916.09
665.30	38810.76
665.44	38686.71
665.59	38258.40
665.73	38440.96
665.87	37963.49
666.01	38354.36
666.15	38333.29
666.29	38265.42
666.44	38103.92
666.58	37748.16
666.72	37926.04
666.86	38038.39
667.00	38022.00
667.14	38188.18
667.28	37989.24
667.43	38108.60
667.57	38026.68
667.71	38256.06
667.85	38366.06
667.99	37949.45
668.13	37586.66
668.27	37361.97
668.41	37174.73
668.56	36907.91
668.70	36900.89
668.84	36603.64
668.98	37230.90
669.12	37223.88
669.26	37483.68
669.40	36921.95
669.54	36830.67
669.68	36758.11
669.82	36727.69
669.96	36774.50
670.10	36432.78
670.25	36666.83
670.39	36304.05
670.53	36348.52
670.67	36353.20
670.81	36605.98
670.95	36374.27
671.09	35831.26
671.23	36011.48
671.37	36669.17
671.51	36006.80
671.65	35873.39
671.79	35480.18
671.93	35957.65
672.07	35749.34
672.21	36114.47
672.35	35161.87
672.49	35728.28
672.63	35590.19
672.77	35447.41
672.91	35456.78
673.05	35061.22
673.19	35250.81
673.33	35189.95
673.47	34625.89
673.61	34719.51
673.75	35030.80
673.89	34328.64
674.03	34555.67
674.17	34448.00
674.31	34277.15
674.45	34731.21
674.59	34092.24
674.73	33998.62
674.87	34033.73
675.01	34220.97
675.15	33881.60
675.29	33727.12
675.43	33776.27
675.56	33607.75
675.70	33710.74
675.84	33200.50
675.98	32439.82
676.12	33247.31
676.26	33668.61
676.40	33043.68
676.54	32912.61
676.68	32861.12
676.82	32741.75
676.96	33069.43
677.10	32924.32
677.23	32472.59
677.37	32624.73
677.51	32395.35
677.65	32479.61
677.79	32315.78
677.93	32568.55
678.07	32603.66
678.21	32025.55
678.34	31791.50
678.48	32381.31
678.62	31625.32
678.76	31693.19
678.90	31522.34
679.04	31655.75
679.18	32016.19
679.31	30934.86
679.45	31206.36
679.59	31000.40
679.73	30944.22
679.87	30878.69
680.00	30892.73
680.14	30686.76
680.28	30586.12
680.42	30955.93
680.56	29972.90
680.70	30433.99
680.83	30000.99
680.97	30153.12
681.11	30082.91
681.25	29867.58
681.39	29848.85
681.52	29820.77
681.66	29453.30
681.80	29109.24
681.94	29001.58
682.07	29336.27
682.21	28802.63
682.35	28959.45
682.49	29259.04
682.62	28725.39
682.76	28999.24
682.90	28919.66
683.04	28716.03
683.17	28994.56
683.31	28685.61
683.45	28418.78
683.59	28247.93
683.72	27960.04
683.86	28032.60
684.00	27648.75
684.13	27747.05
684.27	27733.01
684.41	27681.52
684.55	27505.98
684.68	27615.98
684.82	26902.12
684.96	27094.04
685.09	27161.92
685.23	27274.26
685.37	27826.63
685.50	27690.88
685.64	26815.52
685.78	26700.83
685.91	26785.09
686.05	26204.64
686.19	26103.99
686.32	26391.88
686.46	25788.02
686.60	25825.47
686.73	25928.45
686.87	25689.72
687.01	25708.44
687.14	25848.88
687.28	25734.19
687.42	25558.65
687.55	25563.33
687.69	25764.62
687.82	24723.08
687.96	25149.06
688.10	25071.82
688.23	25214.59
688.37	25120.97
688.50	25310.55
688.64	25034.37
688.78	24865.85
688.91	24699.67
689.05	24545.20
689.18	23934.32
689.32	23627.71
689.46	23880.49
689.59	23667.50
689.73	24311.14
689.86	23983.47
690.00	23917.93
690.13	24041.98
690.27	23452.17
690.41	23391.31
690.54	23082.36
690.68	23218.11
690.81	22890.44
690.95	23225.14
691.08	23136.20
691.22	22717.24
691.35	22829.59
691.49	23002.78
691.62	22766.39
691.76	22539.36
691.89	22579.15
692.03	22059.55
692.16	22199.98
692.30	22258.49
692.43	21926.14
692.57	21668.68
692.70	21715.49
692.84	21872.31
692.97	21710.81
693.11	21820.81
693.24	20903.32
693.38	21287.17
693.51	21055.46
693.65	20912.69
693.78	21139.72
693.92	20940.77
694.05	20805.02
694.19	20638.84
694.32	20734.81
694.45	21022.69
694.59	20769.91
694.72	20793.32
694.86	20517.14
694.99	20222.23
695.13	20271.38
695.26	20016.26
695.39	19604.33
695.53	20032.65
695.66	19648.80
695.80	19590.28
695.93	19751.78
696.07	19414.74
696.20	19222.82
696.33	18913.87
696.47	19112.81
696.60	18874.08
696.73	19461.55
696.87	19358.57
697.00	19089.41
697.14	18813.23
697.27	18792.16
697.40	18654.07
697.54	18480.87
697.67	18768.76
697.80	18682.16
697.94	18045.53
698.07	18305.33
698.21	18398.95
698.34	18160.22
698.47	18178.94
698.61	17837.22
698.74	17460.40
698.87	17687.43
699.01	17315.28
699.14	17785.73
699.27	17551.68
699.40	17530.61
699.54	17352.73
699.67	17308.26
699.80	17289.54
699.94	16954.84
700.07	17177.19
700.20	17111.66
700.34	16814.41
700.47	16725.47
700.60	17020.38
700.73	16617.80
700.87	16666.95
701.00	16299.49
701.13	16142.67
701.26	16037.35
701.40	16084.16
701.53	15976.50
701.66	16266.72
701.79	15936.71
701.93	15683.93
702.06	15721.38
702.19	15510.73
702.32	15756.49
702.46	15761.17
702.59	15424.13
702.72	15892.24
702.85	15662.86
702.99	15484.98
703.12	15445.20
703.25	15070.71
703.38	15187.74
703.51	15059.01
703.65	14937.30
703.78	14761.76
703.91	14649.41
704.04	14607.28
704.17	14492.60
704.31	14647.07
704.44	14525.36
704.57	14574.52
704.70	14370.89
704.83	14242.16
704.96	14270.25
705.10	14305.35
705.23	13958.96
>>>>>End Processed Spectral Data<<<<<
