SpectraSuite Data File
++++++++++++++++++++++++++++++++++++
Date: Fri Oct 25 11:34:29 EDT 2013
User: price-jones
Dark Spectrum Present: No
Reference Spectrum Present: No
Number of Sampled Component Spectra: 1
Spectrometers: USB2+H05261
Integration Time (usec): 100000 (USB2+H05261)
Spectra Averaged: 1 (USB2+H05261)
Boxcar Smoothing: 0 (USB2+H05261)
Correct for Electrical Dark: No (USB2+H05261)
Strobe/Lamp Enabled: No (USB2+H05261)
Correct for Detector Non-linearity: No (USB2+H05261)
Correct for Stray Light: No (USB2+H05261)
Number of Pixels in Processed Spectrum: 2048
>>>>>Begin Processed Spectral Data<<<<<
365.73	264.48
365.92	264.48
366.12	264.48
366.32	222.35
366.52	217.67
366.72	203.63
366.91	166.18
367.11	241.08
367.31	110.01
367.51	196.60
367.70	91.28
367.90	241.08
368.10	203.63
368.30	173.20
368.49	149.79
368.69	191.92
368.89	135.75
369.09	210.65
369.28	271.50
369.48	224.69
369.68	184.90
369.87	203.63
370.07	166.18
370.27	325.33
370.47	367.46
370.66	489.17
370.86	510.24
371.06	566.41
371.25	547.69
371.45	486.83
371.65	573.43
371.84	517.26
372.04	435.34
372.24	531.30
372.44	505.56
372.63	535.98
372.83	662.37
373.03	559.39
373.22	613.22
373.42	641.31
373.62	650.67
373.81	608.54
374.01	737.27
374.21	613.22
374.40	671.73
374.60	603.86
374.79	678.76
374.99	706.84
375.19	608.54
375.38	660.03
375.58	695.14
375.78	610.88
375.97	587.47
376.17	748.97
376.37	627.26
376.56	559.39
376.76	681.10
376.95	636.63
377.15	695.14
377.35	641.31
377.54	627.26
377.74	629.60
377.93	664.71
378.13	660.03
378.33	725.57
378.52	718.54
378.72	748.97
378.91	746.63
379.11	718.54
379.31	601.52
379.50	664.71
379.70	753.65
379.89	718.54
380.09	702.16
380.28	676.41
380.48	645.99
380.68	690.46
380.87	716.20
381.07	711.52
381.26	718.54
381.46	723.23
381.65	755.99
381.85	734.93
382.04	760.67
382.24	746.63
382.43	744.29
382.63	723.23
382.83	809.83
383.02	781.74
383.22	821.53
383.41	645.99
383.61	772.38
383.80	835.57
384.00	793.44
384.19	830.89
384.39	777.06
384.58	856.64
384.78	866.00
384.97	779.40
385.17	800.46
385.36	760.67
385.56	819.19
385.75	814.51
385.95	716.20
386.14	877.70
386.34	800.46
386.53	830.89
386.72	922.17
386.92	814.51
387.11	945.58
387.31	835.57
387.50	882.38
387.70	903.45
387.89	856.64
388.09	875.36
388.28	884.72
388.48	901.11
388.67	863.66
388.86	959.62
389.06	933.87
389.25	837.91
389.45	933.87
389.64	961.96
389.84	959.62
390.03	964.30
390.22	945.58
390.42	908.13
390.61	961.96
390.81	924.51
391.00	884.72
391.19	945.58
391.39	999.41
391.58	1083.67
391.78	1050.90
391.97	1078.99
392.16	1046.22
392.36	1004.09
392.55	1093.03
392.75	1057.92
392.94	966.64
393.13	1055.58
393.33	968.98
393.52	1114.10
393.71	1034.52
393.91	1025.15
394.10	1034.52
394.29	1090.69
394.49	1006.43
394.68	1093.03
394.88	1053.24
395.07	1097.71
395.26	1137.50
395.46	1015.79
395.65	1146.86
395.84	1076.65
396.04	1130.48
396.23	1116.44
396.42	1228.78
396.62	1233.46
396.81	1181.97
397.00	1118.78
397.19	1158.57
397.39	1167.93
397.58	1156.22
397.77	1221.76
397.97	1188.99
398.16	1167.93
398.35	1308.36
398.55	1146.86
398.74	1233.46
398.93	1296.66
399.12	1289.64
399.32	1280.27
399.51	1149.20
399.70	1238.14
399.90	1277.93
400.09	1301.34
400.28	1376.24
400.47	1317.72
400.67	1394.96
400.86	1315.38
401.05	1329.42
401.24	1329.42
401.44	1303.68
401.63	1394.96
401.82	1469.86
402.01	1362.19
402.21	1493.26
402.40	1458.15
402.59	1413.68
402.78	1472.20
402.97	1582.20
403.17	1540.07
403.36	1451.13
403.55	1451.13
403.74	1575.18
403.93	1568.16
404.13	1535.39
404.32	1497.94
404.51	1502.62
404.70	1558.80
404.89	1675.82
405.09	1626.67
405.28	1600.93
405.47	1629.01
405.66	1659.44
405.85	1720.29
406.05	1565.82
406.24	1720.29
406.43	1605.61
406.62	1746.04
406.81	1736.68
407.00	1769.44
407.20	1694.55
407.39	1647.74
407.58	1792.85
407.77	1884.13
407.96	1785.83
408.15	1865.41
408.34	1769.44
408.54	1788.17
408.73	1853.70
408.92	1923.92
409.11	1886.47
409.30	1949.67
409.49	1909.88
409.68	1902.86
409.87	1886.47
410.07	2040.95
410.26	1989.46
410.45	2076.06
410.64	2017.54
410.83	1994.14
411.02	1996.48
411.21	1989.46
411.40	2090.10
411.59	2139.25
411.78	2279.68
411.98	2200.10
412.17	2239.89
412.36	2160.31
412.55	2221.17
412.74	2183.72
412.93	2345.22
413.12	2160.31
413.31	2310.11
413.50	2293.72
413.69	2284.36
413.88	2413.09
414.07	2373.30
414.26	2368.62
414.45	2462.24
414.64	2410.75
414.83	2464.58
415.02	2537.14
415.22	2483.31
415.41	2588.63
415.60	2534.80
415.79	2616.72
415.98	2600.34
416.17	2593.31
416.36	2600.34
416.55	2691.62
416.74	2675.23
416.93	2679.91
417.12	2612.04
417.31	2801.62
417.50	2724.38
417.69	2782.90
417.88	2834.39
418.07	2794.60
418.26	2843.75
418.45	2843.75
418.64	2951.42
418.83	2899.92
419.02	2925.67
419.21	3033.33
419.39	3049.72
419.58	3014.61
419.77	3021.63
419.96	3052.06
420.15	3070.78
420.34	3108.23
420.53	3068.44
420.72	3122.27
420.91	3047.38
421.10	3218.24
421.29	3157.38
421.48	3208.87
421.67	3225.26
421.86	3138.66
422.05	3178.45
422.24	3129.30
422.43	3222.92
422.61	3150.36
422.80	3279.09
422.99	3363.35
423.18	3358.67
423.37	3339.94
423.56	3386.76
423.75	3225.26
423.94	3276.75
424.13	3108.23
424.32	3155.04
424.50	3272.07
424.69	3396.12
424.88	3393.78
425.07	3300.16
425.26	3251.00
425.45	3218.24
425.64	3091.85
425.83	3485.06
426.01	3304.84
426.20	3389.10
426.39	3236.96
426.58	3243.98
426.77	3283.77
426.96	3286.11
427.15	3365.69
427.33	3489.74
427.52	3456.97
427.71	3442.93
427.90	3461.65
428.09	3576.34
428.28	3468.67
428.46	3482.72
428.65	3438.25
428.84	3728.47
429.03	3658.26
429.22	3475.70
429.40	3611.45
429.59	3459.31
429.78	3492.08
429.97	3482.72
430.16	3634.85
430.34	3707.41
430.53	3812.73
430.72	3707.41
430.91	3754.22
431.10	3716.77
431.28	3815.07
431.47	3810.39
431.66	3833.80
431.85	3756.56
432.03	3929.76
432.22	3964.87
432.41	3873.59
432.60	3829.12
432.79	3859.54
432.97	3866.56
433.16	4058.49
433.35	3943.80
433.54	3861.88
433.72	4023.38
433.91	4042.11
434.10	3955.51
434.28	4039.76
434.47	4189.56
434.66	3969.55
434.85	4138.07
435.03	4325.31
435.22	4374.46
435.41	4390.84
435.59	4109.98
435.78	4030.40
435.97	4297.22
436.16	4152.11
436.34	4306.59
436.53	4278.50
436.72	4292.54
436.90	4308.93
437.09	4358.08
437.28	4224.67
437.46	4325.31
437.65	4421.27
437.84	4484.47
438.02	4430.63
438.21	4402.55
438.40	4308.93
438.58	4454.04
438.77	4493.83
438.96	4589.79
439.14	4681.07
439.33	4734.90
439.52	4709.16
439.70	4667.03
439.89	4922.15
440.08	4772.35
440.26	4849.59
440.45	4816.82
440.63	5020.45
440.82	5039.17
441.01	5032.15
441.19	5144.50
441.38	4898.74
441.57	4980.66
441.75	5004.07
441.94	5046.20
442.12	5195.99
442.31	5240.46
442.50	5139.82
442.68	5151.52
442.87	5303.65
443.05	5266.21
443.24	5266.21
443.43	5369.19
443.61	5453.45
443.80	5479.19
443.98	5186.63
444.17	5195.99
444.35	5348.12
444.54	5392.59
444.73	5331.74
444.91	5507.28
445.10	5359.83
445.28	5572.82
445.47	5282.59
445.65	5561.11
445.84	5352.81
446.02	5542.39
446.21	5453.45
446.39	5427.70
446.58	5486.22
446.77	5444.09
446.95	5252.16
447.14	5511.96
447.32	5610.26
447.51	5488.56
447.69	5500.26
447.88	5598.56
448.06	5619.63
448.25	5558.77
448.43	5530.69
448.62	5750.70
448.80	5535.37
448.99	5617.29
449.17	5682.82
449.36	5659.42
449.54	5673.46
449.73	5696.86
449.91	5832.62
450.10	5657.07
450.28	5886.45
450.46	5951.98
450.65	5806.87
450.83	5942.62
451.02	5973.05
451.20	5968.37
451.39	6059.65
451.57	5757.72
451.76	5830.27
451.94	5837.30
452.13	6087.73
452.31	6160.29
452.49	6047.94
452.68	5905.17
452.86	6181.35
453.05	6087.73
453.23	6197.74
453.42	5940.28
453.60	6104.12
453.78	6111.14
453.97	6108.80
454.15	5935.60
454.34	6267.95
454.52	6043.26
454.70	6256.25
454.89	6218.80
455.07	6415.41
455.26	6438.81
455.44	6506.69
455.62	6480.94
455.81	6387.32
455.99	6530.09
456.17	6483.28
456.36	6326.47
456.54	6525.41
456.73	6473.92
456.91	6787.55
457.09	6771.17
457.28	6836.70
457.46	6555.84
457.64	6773.51
457.83	6817.98
458.01	6586.27
458.19	6963.09
458.38	6829.68
458.56	6892.88
458.74	6757.13
458.93	6855.43
459.11	6935.01
459.29	6780.53
459.48	7119.91
459.66	6939.69
459.84	7077.78
460.03	7215.87
460.21	7061.40
460.39	7201.83
460.57	7194.81
460.76	7276.73
460.94	7098.84
461.12	7087.14
461.31	7159.70
461.49	7276.73
461.67	7225.23
461.85	7433.54
462.04	7157.36
462.22	7723.77
462.40	7396.09
462.59	7417.16
462.77	7272.04
462.95	7358.64
463.13	7473.33
463.32	7482.69
463.50	7618.44
463.68	7569.29
463.86	7726.11
464.05	7667.60
464.23	7573.97
464.41	7782.28
464.59	7487.37
464.78	7845.48
464.96	7585.68
465.14	7536.52
465.32	7674.62
465.50	7714.41
465.69	7901.65
465.87	7962.50
466.05	7793.98
466.23	7882.92
466.41	7854.84
466.60	7911.01
466.78	7990.59
466.96	7875.90
467.14	7833.77
467.32	8154.43
467.51	8025.70
467.69	7749.51
467.87	8028.04
468.05	8154.43
468.23	7985.91
468.41	8156.77
468.60	8042.08
468.78	8093.57
468.96	8070.17
469.14	8154.43
469.32	8252.73
469.50	8023.36
469.69	8409.54
469.87	8472.74
470.05	8348.69
470.23	8554.66
470.41	8346.35
470.59	8533.59
470.77	8414.23
470.95	8402.52
471.14	8613.17
471.32	8418.91
471.50	8692.75
471.68	8746.58
471.86	8692.75
472.04	8716.16
472.22	8933.82
472.40	8557.00
472.58	9013.40
472.77	8929.14
472.95	8943.19
473.13	9392.57
473.31	9057.87
473.49	9188.94
473.67	9071.92
473.85	8997.02
474.03	9207.67
474.21	9095.32
474.39	9305.97
474.57	9291.93
474.75	9444.06
474.93	9343.42
475.12	9596.20
475.30	9554.07
475.48	9818.55
475.66	9624.28
475.84	9689.82
476.02	9949.62
476.20	9820.89
476.38	9675.77
476.56	9928.55
476.74	10141.54
476.92	10113.45
477.10	10104.09
477.28	10244.52
477.46	10118.14
477.64	10399.00
477.82	10499.64
478.00	10689.23
478.18	10630.71
478.36	10509.01
478.54	10696.25
478.72	10885.83
478.90	11171.38
479.08	11236.91
479.26	11190.10
479.44	11173.72
479.62	11150.31
479.80	11276.70
479.98	11716.72
480.16	11590.33
480.34	11775.24
480.52	11707.36
480.70	11618.42
480.88	11758.85
481.06	12056.10
481.24	12006.95
481.41	11936.73
481.59	12063.12
481.77	12245.68
481.95	12388.46
482.13	12358.03
482.31	12496.12
482.49	12821.45
482.67	12615.49
482.85	12858.90
483.03	12842.52
483.21	13165.51
483.39	13308.29
483.57	13111.68
483.74	13275.52
483.92	13626.60
484.10	13516.59
484.28	13497.87
484.46	14008.11
484.64	14317.06
484.82	13832.57
485.00	13951.93
485.18	14068.96
485.35	14267.91
485.53	14462.17
485.71	14347.48
485.89	14796.87
486.07	14630.69
486.25	14609.62
486.43	14855.38
486.61	14724.31
486.78	15124.54
486.96	15080.07
487.14	15269.66
487.32	15066.03
487.50	15754.15
487.68	15765.85
487.85	15857.13
488.03	15941.39
488.21	15997.56
488.39	16327.58
488.57	16346.30
488.75	16379.07
488.92	16549.93
489.10	16861.22
489.28	16959.52
489.46	16870.58
489.64	17205.28
489.81	17142.08
489.99	17514.23
490.17	17518.91
490.35	17401.88
490.53	17774.03
490.70	17476.78
490.88	17703.81
491.06	17900.42
491.24	18134.47
491.41	18218.73
491.59	18600.24
491.77	18504.28
491.95	18534.70
492.13	18813.23
492.30	19122.18
492.48	18705.56
492.66	19098.77
492.84	19122.18
493.01	19246.23
493.19	19157.28
493.37	19274.31
493.54	19491.98
493.72	19545.81
493.90	19669.86
494.08	19910.94
494.25	19810.29
494.43	19786.89
494.61	20372.02
494.79	20357.98
494.96	20388.41
495.14	20173.08
495.32	20910.35
495.49	20786.30
495.67	20601.40
495.85	20863.54
496.02	21006.31
496.20	21284.83
496.38	21238.02
496.55	21280.15
496.73	22092.32
496.91	21518.89
497.09	21275.47
497.26	21900.39
497.44	21741.24
497.62	22008.06
497.79	22710.22
497.97	22506.59
498.14	22501.91
498.32	22473.82
498.50	22415.31
498.67	22799.16
498.85	22778.09
499.03	22663.41
499.20	22661.07
499.38	23117.47
499.56	23332.80
499.73	23396.00
499.91	23520.04
500.08	23828.99
500.26	23365.57
500.44	23955.38
500.61	23761.12
500.79	23517.70
500.97	23997.51
501.14	24650.52
501.32	24086.45
501.49	24175.39
501.67	24538.18
501.84	24723.08
502.02	24404.77
502.20	24556.90
502.37	24266.67
502.55	24666.91
502.72	24844.79
502.90	24971.18
503.07	24734.78
503.25	24629.46
503.43	24762.87
503.60	25284.81
503.78	25039.05
503.95	24907.98
504.13	25380.77
504.30	25734.19
504.48	25432.26
504.65	25757.60
504.83	25703.76
505.01	25729.51
505.18	25855.90
505.36	26319.32
505.53	26043.14
505.71	26403.58
505.88	26272.51
506.06	25916.75
506.23	26576.78
506.41	26059.52
506.58	26668.06
506.76	26703.17
506.93	26684.45
507.11	27009.78
507.28	27143.19
507.46	26728.92
507.63	27143.19
507.81	27180.64
507.98	26972.33
508.16	27487.25
508.33	27559.81
508.50	27147.87
508.68	27372.57
508.85	27386.61
509.03	27889.82
509.20	27571.51
509.38	27880.46
509.55	28112.17
509.73	27988.13
509.90	28032.60
510.08	28273.67
510.25	28133.24
510.42	28039.62
510.60	28371.97
510.77	28268.99
510.95	28617.73
511.12	28407.08
511.30	28788.59
511.47	28552.20
511.64	29113.92
511.82	28966.47
511.99	28919.66
512.17	29305.85
512.34	29069.45
512.51	29137.33
512.69	29504.79
512.86	29287.12
513.04	29481.39
513.21	29195.84
513.38	29806.72
513.56	29855.87
513.73	29736.51
513.90	29855.87
514.08	29762.25
514.25	30033.75
514.43	30206.95
514.60	30417.60
514.77	30403.56
514.95	30511.22
515.12	30398.88
515.29	30635.27
515.47	30492.50
515.64	31044.87
515.81	30452.71
515.99	30934.86
516.16	31508.29
516.33	30890.39
516.51	30974.65
516.68	30593.14
516.85	30981.67
517.03	30944.22
517.20	31101.04
517.37	31171.25
517.54	31508.29
517.72	31225.09
517.89	31393.61
518.06	31545.74
518.24	31480.21
518.41	31587.87
518.58	31566.81
518.75	31489.57
518.93	32182.37
519.10	31742.35
519.27	31519.99
519.45	31639.36
519.62	31805.54
519.79	31969.38
519.96	31950.65
520.14	32112.15
520.31	32112.15
520.48	32606.00
520.65	32634.09
520.83	32716.01
521.00	33242.63
521.17	32821.33
521.34	33149.01
521.52	33347.95
521.69	33266.03
521.86	33216.88
522.03	33146.67
522.20	33303.48
522.38	33390.08
522.55	33413.49
522.72	33675.63
522.89	33628.82
523.07	33989.26
523.24	33420.51
523.41	33844.15
523.58	33415.83
523.75	34005.64
523.92	33942.45
524.10	33806.70
524.27	34487.79
524.44	33916.70
524.61	34185.86
524.78	34132.03
524.96	34047.77
525.13	34553.33
525.30	34415.24
525.47	34771.00
525.64	34356.72
525.81	34672.70
525.98	35005.05
526.16	34810.79
526.33	34660.99
526.50	34883.34
526.67	34852.92
526.84	35063.57
527.01	35026.12
527.18	34918.45
527.36	35122.08
527.53	35072.93
527.70	35201.66
527.87	35227.40
528.04	35356.13
528.21	35314.00
528.38	35772.75
528.55	35529.33
528.72	35793.81
528.89	35529.33
529.07	35723.60
529.24	35349.11
529.41	35959.99
529.58	35880.41
529.75	35681.47
529.92	35936.59
530.09	35924.88
530.26	36226.81
530.43	35896.80
530.60	35849.99
530.77	35793.81
530.94	36168.30
531.11	36189.36
531.28	36259.58
531.46	36575.55
531.63	35988.08
531.80	36318.09
531.97	36711.30
532.14	36549.81
532.31	36540.44
532.48	36683.22
532.65	36856.42
532.82	36493.63
532.99	37120.90
533.16	36928.97
533.33	36751.09
533.50	36694.92
533.67	36968.76
533.84	37046.00
534.01	37111.53
534.18	37296.44
534.35	37289.42
534.52	37331.54
534.69	37558.58
534.86	37294.10
535.03	37521.13
535.20	37759.86
535.37	37701.35
535.54	37890.93
535.71	37287.07
535.88	37930.72
536.05	37771.57
536.22	37909.66
536.38	38188.18
536.55	38029.02
536.72	37816.04
536.89	37804.33
537.06	38087.54
537.23	38183.50
537.40	38164.78
537.57	37989.24
537.74	38106.26
537.91	38483.09
538.08	38602.46
538.25	38099.24
538.42	38279.46
538.59	39103.33
538.75	38246.69
538.92	38445.64
539.09	38792.04
539.26	38967.58
539.43	38775.66
539.60	39072.90
539.77	38857.57
539.94	38824.81
540.11	39049.50
540.28	39124.40
540.44	39292.91
540.61	39019.07
540.78	39147.80
540.95	38770.97
541.12	38993.32
541.29	39351.43
541.46	39210.99
541.62	39145.46
541.79	39449.73
541.96	39108.01
542.13	39079.92
542.30	39590.16
542.47	39192.27
542.63	39416.96
542.80	39571.44
542.97	40091.04
543.14	40149.55
543.31	39866.34
543.48	39812.51
543.64	40299.34
543.81	40095.72
543.98	40313.39
544.15	39878.05
544.32	40458.50
544.48	40428.07
544.65	40329.77
544.82	40156.57
544.99	40257.21
545.16	40187.00
545.32	40329.77
545.49	40627.02
545.66	40811.92
545.83	40308.71
546.00	40886.82
546.16	40617.66
546.33	40854.05
546.50	40589.57
546.67	40917.25
546.83	40320.41
547.00	41036.61
547.17	40877.46
547.34	40914.90
547.50	41078.74
547.67	40938.31
547.84	41324.50
548.00	41354.93
548.17	41450.89
548.34	41399.40
548.51	41338.54
548.67	41336.20
548.84	41172.36
549.01	41076.40
549.18	41359.61
549.34	41457.91
549.51	41687.28
549.68	41694.30
549.84	41422.80
550.01	41710.69
550.18	41317.48
550.34	41588.98
550.51	42136.66
550.68	41577.28
550.84	41649.83
551.01	42101.56
551.18	41514.08
551.34	41977.51
551.51	41874.52
551.68	41989.21
551.84	41741.11
552.01	41851.12
552.18	42164.75
552.34	42270.08
552.51	41853.46
552.68	42012.62
552.84	42064.11
553.01	42286.46
553.18	42033.68
553.34	41848.78
553.51	42124.96
553.67	42579.03
553.84	42361.36
554.01	42670.31
554.17	42719.46
554.34	42777.97
554.51	42609.45
554.67	43026.07
554.84	42752.23
555.00	42478.38
555.17	42344.97
555.33	42862.23
555.50	42684.35
555.67	43091.60
555.83	42794.36
556.00	42997.98
556.16	43243.74
556.33	42988.62
556.50	42834.14
556.66	43068.20
556.83	42656.26
556.99	43313.95
557.16	43159.48
557.32	43056.50
557.49	43068.20
557.65	42651.58
557.82	43335.02
557.98	42806.06
558.15	43524.60
558.32	42927.77
558.48	42838.83
558.65	43267.14
558.81	43117.35
558.98	43005.00
559.14	43379.49
559.31	43358.42
559.47	43138.41
559.64	43618.22
559.80	43702.48
559.97	43999.73
560.13	43239.06
560.30	43494.18
560.46	43508.22
560.63	43913.13
560.79	43646.31
560.96	44072.29
561.12	43428.64
561.29	43709.50
561.45	44074.63
561.61	43941.22
561.78	43475.45
561.94	43948.24
562.11	43847.60
562.27	43880.36
562.44	43842.92
562.60	43873.34
562.77	44072.29
562.93	43758.66
563.10	44034.84
563.26	43735.25
563.42	44399.96
563.59	44250.17
563.75	43894.41
563.92	44175.27
564.08	44144.84
564.24	44147.18
564.41	44353.15
564.57	44037.18
564.74	44186.97
564.90	43903.77
565.07	43955.26
565.23	43985.69
565.39	44271.23
565.56	44243.15
565.72	43976.33
565.88	44472.52
566.05	44582.52
566.21	44247.83
566.38	44224.42
566.54	43943.56
566.70	44343.79
566.87	44336.77
567.03	44093.35
567.19	44563.80
567.36	44486.56
567.52	44652.74
567.68	44697.21
567.85	44722.96
568.01	44521.67
568.17	44512.31
568.34	44790.83
568.50	44348.47
568.66	44734.66
568.83	44697.21
568.99	44289.96
569.15	44676.15
569.32	44472.52
569.48	44446.77
569.64	45008.50
569.81	44481.88
569.97	44657.42
570.13	45048.29
570.30	44491.24
570.46	44301.66
570.62	44713.59
570.78	44348.47
570.95	44498.26
571.11	45368.94
571.27	44601.25
571.43	44215.06
571.60	44423.37
571.76	44540.39
571.92	44521.67
572.09	44900.84
572.25	44715.93
572.41	44900.84
572.57	44835.30
572.74	45148.93
572.90	45102.12
573.06	45345.54
573.22	44481.88
573.38	45214.47
573.55	45368.94
573.71	45076.38
573.87	44751.04
574.03	44549.76
574.20	45027.23
574.36	44921.90
574.52	45165.32
574.68	45186.38
574.84	45174.68
575.01	45308.09
575.17	45333.84
575.33	45120.85
575.49	45099.78
575.65	45305.75
575.82	45514.06
575.98	45474.27
576.14	45287.03
576.30	45244.90
576.46	45134.89
576.62	44816.58
576.79	45436.82
576.95	45041.27
577.11	44994.46
577.27	44900.84
577.43	44786.15
577.59	45467.25
577.75	44938.29
577.92	44849.35
578.08	45172.34
578.24	45345.54
578.40	45359.58
578.56	45322.13
578.72	45703.64
578.88	45174.68
579.04	44884.45
579.21	45179.36
579.37	45263.62
579.53	45507.04
579.69	45001.48
579.85	45375.97
580.01	45336.18
580.17	45057.65
580.33	45132.55
580.49	45085.74
580.65	45500.01
580.82	45207.45
580.98	45188.72
581.14	44823.60
581.30	45052.97
581.46	45099.78
581.62	44842.32
581.78	45029.57
581.94	45258.94
582.10	45090.42
582.26	45673.21
582.42	45237.87
582.58	45600.66
582.74	45017.86
582.90	45284.68
583.06	44992.12
583.22	45439.16
583.38	45600.66
583.54	45495.33
583.70	45329.16
583.86	45340.86
584.02	45109.14
584.18	45647.47
584.34	45928.33
584.50	45471.93
584.66	45874.50
584.82	45565.55
584.98	45745.77
585.14	45198.09
585.30	45354.90
585.46	45750.45
585.62	45230.85
585.78	45179.36
585.94	45099.78
586.10	44877.43
586.26	45375.97
586.42	45411.07
586.58	45177.02
586.74	45177.02
586.90	45205.11
587.06	45511.72
587.22	45769.18
587.38	45567.89
587.54	45820.67
587.70	45790.24
587.86	45652.15
588.02	45694.28
588.18	45228.51
588.34	45713.00
588.49	45530.44
588.65	44996.80
588.81	45277.66
588.97	45584.27
589.13	45511.72
589.29	45703.64
589.45	45787.90
589.61	45310.43
589.77	45530.44
589.93	45687.26
590.08	45652.15
590.24	46000.89
590.40	46263.03
590.56	45806.62
590.72	45745.77
590.88	45879.18
591.04	45652.15
591.20	46031.32
591.35	45902.59
591.51	46546.23
591.67	45883.86
591.83	46169.41
591.99	45902.59
592.15	46136.64
592.31	45787.90
592.46	45823.01
592.62	46241.96
592.78	46401.12
592.94	46300.48
593.10	46410.48
593.26	46370.69
593.41	46143.66
593.57	45975.14
593.73	46045.36
593.89	45984.51
594.05	46302.82
594.20	46143.66
594.36	46405.80
594.52	45806.62
594.68	45752.79
594.84	45942.38
594.99	46108.55
595.15	46136.64
595.31	46412.82
595.47	45717.68
595.62	46073.45
595.78	45783.22
595.94	46211.54
596.10	46066.42
596.25	46012.59
596.41	46171.75
596.57	46248.99
596.73	46225.58
596.88	46192.81
597.04	45993.87
597.20	46036.00
597.36	46504.10
597.51	46265.37
597.67	46153.02
597.83	45942.38
597.99	46342.61
598.14	46153.02
598.30	46368.35
598.46	46183.45
598.61	46754.54
598.77	46204.52
598.93	46394.10
599.09	46391.76
599.24	46710.07
599.40	45972.80
599.56	46344.95
599.71	46770.93
599.87	46864.55
600.03	46749.86
600.18	46625.81
600.34	46457.29
600.50	46258.35
600.65	46277.07
600.81	46759.22
600.97	46316.86
601.12	46642.20
601.28	46494.74
601.44	46307.50
601.59	46588.36
601.75	46164.73
601.91	46195.15
602.06	46028.98
602.22	46452.61
602.37	46522.83
602.53	46078.13
602.69	46684.33
602.84	46113.23
603.00	45935.35
603.16	45914.29
603.31	46197.49
603.47	46670.28
603.62	46431.55
603.78	46429.21
603.94	46232.60
604.09	46110.89
604.25	45993.87
604.40	46571.98
604.56	46216.22
604.71	46679.64
604.87	46150.68
605.03	46349.63
605.18	46642.20
605.34	46501.76
605.49	45930.67
605.65	46777.95
605.80	46040.68
605.96	46171.75
606.12	46735.82
606.27	45925.99
606.43	45928.33
606.58	46258.35
606.74	46347.29
606.89	46099.19
607.05	46450.27
607.20	46106.21
607.36	45914.29
607.51	45635.77
607.67	46136.64
607.82	45757.47
607.98	46401.12
608.13	46094.51
608.29	45996.21
608.44	46204.52
608.60	46110.89
608.75	45858.12
608.91	46103.87
609.06	45982.16
609.22	46096.85
609.37	45996.21
609.53	46368.35
609.68	46597.73
609.84	46586.02
609.99	46099.19
610.15	46188.13
610.30	46148.34
610.46	45750.45
610.61	46057.06
610.76	45832.37
610.92	45558.53
611.07	45951.74
611.23	45811.31
611.38	45844.07
611.54	46136.64
611.69	45839.39
611.84	46014.93
612.00	46082.81
612.15	45759.81
612.31	45907.27
612.46	45492.99
612.62	45780.88
612.77	46138.98
612.92	45886.20
613.08	45801.94
613.23	45815.99
613.39	45577.25
613.54	45640.45
613.69	45925.99
613.85	45542.14
614.00	45364.26
614.15	45860.46
614.31	45497.67
614.46	45411.07
614.62	45413.41
614.77	45794.92
614.92	45806.62
615.08	45713.00
615.23	45951.74
615.38	45624.06
615.54	45921.31
615.69	45925.99
615.84	45382.99
616.00	45951.74
616.15	45509.38
616.30	45600.66
616.46	45347.88
616.61	45399.37
616.76	45277.66
616.92	45193.40
617.07	45460.23
617.22	45193.40
617.37	45017.86
617.53	45546.82
617.68	45322.13
617.83	45310.43
617.99	46078.13
618.14	45588.95
618.29	45205.11
618.45	45378.31
618.60	44940.63
618.75	44603.59
618.90	45088.08
619.06	45488.31
619.21	44989.78
619.36	45542.14
619.51	45130.21
619.67	45057.65
619.82	44479.54
619.97	45272.98
620.12	44608.27
620.28	44769.77
620.43	45216.81
620.58	45734.07
620.73	44704.23
620.89	45235.53
621.04	45289.37
621.19	44854.03
621.34	44610.61
621.49	44596.57
621.65	44924.24
621.80	45242.56
621.95	44596.57
622.10	44790.83
622.25	44842.32
622.41	45235.53
622.56	44516.99
622.71	44472.52
622.86	44940.63
623.01	45116.17
623.16	44512.31
623.32	44786.15
623.47	44577.84
623.62	44346.13
623.77	44509.97
623.92	44744.02
624.07	44334.43
624.23	44676.15
624.38	44428.05
624.53	44575.50
624.68	43873.34
624.83	44329.75
624.98	44083.99
625.13	43620.56
625.29	43978.67
625.44	44172.93
625.59	44123.78
625.74	44397.62
625.89	44046.54
626.04	43936.54
626.19	44119.10
626.34	43517.58
626.49	44243.15
626.65	43613.54
626.80	43887.39
626.95	43842.92
627.10	43672.06
627.25	44144.84
627.40	44201.02
627.55	44121.44
627.70	43941.22
627.85	44055.90
628.00	44102.71
628.15	44037.18
628.30	43255.44
628.45	43746.95
628.60	43019.05
628.76	43714.19
628.91	43550.35
629.06	43372.47
629.21	43536.30
629.36	43580.78
629.51	43789.08
629.66	43901.43
629.81	43236.72
629.96	43650.99
630.11	43503.54
630.26	43302.25
630.41	43510.56
630.56	43096.28
630.71	43295.23
630.86	43398.21
631.01	43274.16
631.16	43035.43
631.31	43103.31
631.46	43370.13
631.61	43597.16
631.76	42880.95
631.91	43236.72
632.06	43718.87
632.21	43550.35
632.36	43267.14
632.51	42953.51
632.66	42974.58
632.81	42932.45
632.96	43049.47
633.10	42815.42
633.25	43159.48
633.40	42841.17
633.55	43040.11
633.70	43491.83
633.85	43000.32
634.00	42710.10
634.15	42768.61
634.30	42710.10
634.45	42632.86
634.60	42609.45
634.75	42677.33
634.90	42707.76
635.05	42309.86
635.19	42567.32
635.34	42859.89
635.49	42698.39
635.64	42698.39
635.79	42815.42
635.94	42667.97
636.09	42738.18
636.24	42567.32
636.39	42569.66
636.53	42569.66
636.68	42417.53
636.83	41998.57
636.98	42408.17
637.13	42202.20
637.28	42195.18
637.43	42536.90
637.57	42464.34
637.72	41715.37
637.87	42178.79
638.02	42408.17
638.17	42108.58
638.32	42026.66
638.46	41766.86
638.61	41951.76
638.76	41586.64
638.91	41897.93
639.06	41792.61
639.20	41879.21
639.35	41680.26
639.50	41586.64
639.65	41989.21
639.80	41991.55
639.94	42019.64
640.09	41907.29
640.24	41769.20
640.39	41848.78
640.54	41432.16
640.68	41603.02
640.83	42190.50
640.98	41942.40
641.13	41558.55
641.27	41848.78
641.42	41600.68
641.57	41521.10
641.72	41537.49
641.86	41624.09
642.01	41490.68
642.16	41340.88
642.31	40933.63
642.45	41801.97
642.60	41060.02
642.75	41254.28
642.90	41773.88
643.04	41399.40
643.19	41090.44
643.34	41361.95
643.48	40910.22
643.63	41392.37
643.78	41249.60
643.93	41380.67
644.07	41324.50
644.22	41083.42
644.37	41214.49
644.51	41333.86
644.66	41338.54
644.81	41200.45
644.95	41532.81
645.10	41160.66
645.25	41258.96
645.39	40825.96
645.54	40678.51
645.69	40378.92
645.83	40760.43
645.98	40950.01
646.13	40931.29
646.27	40500.63
646.42	40577.87
646.57	40559.14
646.71	40699.58
646.86	40762.77
647.00	40301.68
647.15	40907.88
647.30	40790.86
647.44	40912.56
647.59	40751.07
647.74	40491.27
647.88	40683.19
648.03	40992.14
648.17	40840.01
648.32	40545.10
648.47	40549.78
648.61	40746.39
648.76	40231.47
648.90	40191.68
649.05	40219.77
649.20	40144.87
649.34	40332.11
649.49	40313.39
649.63	40811.92
649.78	40435.10
649.92	40467.86
650.07	40744.05
650.21	41193.43
650.36	40732.34
650.51	40299.34
650.65	40322.75
650.80	40261.90
650.94	40367.22
651.09	40020.82
651.23	39765.70
651.38	40191.68
651.52	39899.11
651.67	39761.02
651.81	40491.27
651.96	39789.11
652.10	39927.20
652.25	39494.20
652.39	40018.48
652.54	40170.61
652.68	39618.25
652.83	39796.13
652.97	40341.47
653.12	39784.43
653.26	40006.78
653.41	39590.16
653.55	39672.08
653.70	39810.17
653.84	39833.58
653.99	39746.98
654.13	39620.59
654.27	39578.46
654.42	40032.52
654.56	39386.54
654.71	39496.54
654.85	39599.52
655.00	39393.56
655.14	39751.66
655.29	39716.55
655.43	39763.36
655.57	39526.97
655.72	39005.03
655.86	39068.22
656.01	39250.78
656.15	38572.03
656.30	38967.58
656.44	39384.19
656.58	39414.62
656.73	39636.97
656.87	38586.07
657.01	38707.78
657.16	39044.82
657.30	39189.93
657.45	38785.02
657.59	38967.58
657.73	38450.32
657.88	38670.33
658.02	39030.77
658.16	38972.26
658.31	39168.87
658.45	39145.46
658.60	38447.98
658.74	38803.74
658.88	38726.50
659.03	38567.35
659.17	38649.27
659.31	38572.03
659.46	38146.05
659.60	38536.92
659.74	38286.48
659.89	38366.06
660.03	37902.64
660.17	38352.02
660.32	38143.71
660.46	37895.61
660.60	38171.80
660.74	37778.59
660.89	37965.83
661.03	38129.67
661.17	37397.08
661.32	37841.78
661.46	37869.87
661.60	37551.56
661.74	37916.68
661.89	37617.09
662.03	37677.94
662.17	37956.47
662.31	37371.33
662.46	37462.61
662.60	37514.11
662.74	37591.34
662.88	37530.49
663.03	37233.24
663.17	37113.87
663.31	37544.53
663.45	37371.33
663.60	37530.49
663.74	37537.51
663.88	37212.18
664.02	36875.14
664.17	36989.83
664.31	36938.33
664.45	36732.37
664.59	36718.32
664.73	36680.88
664.88	37102.17
665.02	36505.34
665.16	36715.98
665.30	36605.98
665.44	36191.70
665.59	36257.24
665.73	36208.09
665.87	36187.02
666.01	35990.42
666.15	36327.45
666.29	35878.07
666.44	36655.13
666.58	35842.96
666.72	36091.06
666.86	35967.01
667.00	36250.22
667.14	35821.90
667.28	36004.46
667.43	35505.93
667.57	35754.02
667.71	35480.18
667.85	35424.01
667.99	35367.84
668.13	35704.87
668.27	35316.34
668.41	35349.11
668.56	34614.18
668.70	35199.32
668.84	35086.97
668.98	35058.88
669.12	34925.47
669.26	34941.86
669.40	34817.81
669.54	34859.94
669.68	34768.66
669.82	34616.52
669.96	34553.33
670.10	34473.75
670.25	34630.57
670.39	34515.88
670.53	34511.20
670.67	34277.15
670.81	34546.31
670.95	34232.68
671.09	33865.21
671.23	34211.61
671.37	34377.79
671.51	33420.51
671.65	33944.79
671.79	33729.46
671.93	34075.86
672.07	34190.55
672.21	33989.26
672.35	33312.84
672.49	33340.93
672.63	33427.53
672.77	33263.69
672.91	33474.34
673.05	32980.49
673.19	33024.96
673.33	32910.27
673.47	33191.14
673.61	32772.18
673.75	32765.16
673.89	33069.43
674.03	32577.92
674.17	32900.91
674.31	32236.20
674.45	32278.33
674.59	32488.98
674.73	32570.90
674.87	31896.82
675.01	31957.67
675.15	32041.93
675.29	31618.30
675.43	31899.16
675.56	32039.59
675.70	31768.09
675.84	31761.07
675.98	30651.66
676.12	31417.01
676.26	31356.16
676.40	31335.09
676.54	31323.39
676.68	30785.07
676.82	31023.80
676.96	31082.31
677.10	31541.06
677.23	30506.54
677.37	30649.32
677.51	30792.09
677.65	30670.38
677.79	30738.26
677.93	30838.90
678.07	30118.01
678.21	30352.07
678.34	30185.89
678.48	29914.39
678.62	29858.21
678.76	29670.97
678.90	29734.17
679.04	29598.41
679.18	29766.93
679.31	29170.10
679.45	29457.98
679.59	29146.69
679.73	29116.26
679.87	29429.90
680.00	28872.85
680.14	29006.26
680.28	28924.34
680.42	28659.86
680.56	28690.29
680.70	28343.89
680.83	28437.51
680.97	28203.46
681.11	28390.70
681.25	28362.61
681.39	28308.78
681.52	28088.77
681.66	27412.35
681.80	27410.01
681.94	27578.53
682.07	27164.26
682.21	27641.73
682.35	27253.20
682.49	27218.09
682.62	27513.00
682.76	27255.54
682.90	26918.50
683.04	27056.59
683.17	27129.15
683.31	27072.98
683.45	26752.32
683.59	26387.20
683.72	26457.42
683.86	26515.93
684.00	26298.26
684.13	26129.74
684.27	25893.35
684.41	25750.57
684.55	25809.09
684.68	25516.52
684.82	25425.24
684.96	25652.27
685.09	25390.13
685.23	25565.67
685.37	25612.48
685.50	25439.28
685.64	25539.93
685.78	25289.49
685.91	24917.34
686.05	24683.29
686.19	24105.18
686.32	24662.22
686.46	24486.68
686.60	24049.00
686.73	24201.14
686.87	24254.97
687.01	24510.09
687.14	24327.53
687.28	24257.31
687.42	24311.14
687.55	24177.73
687.69	23819.63
687.82	23618.35
687.96	23651.11
688.10	23756.44
688.23	24009.22
688.37	23693.24
688.50	23688.56
688.64	23194.71
688.78	23496.64
688.91	23075.34
689.05	23278.97
689.18	22742.99
689.32	22752.35
689.46	22544.04
689.59	22635.32
689.73	22892.78
689.86	22852.99
690.00	22541.70
690.13	22555.74
690.27	22192.96
690.41	22258.49
690.54	21984.65
690.68	22015.08
690.81	21816.13
690.95	21682.72
691.08	21385.47
691.22	21406.54
691.35	21160.78
691.49	21539.95
691.62	21427.60
691.76	20947.79
691.89	20634.16
692.03	20919.71
692.16	20919.71
692.30	20971.20
692.43	20643.52
692.57	20559.27
692.70	20629.48
692.84	20297.13
692.97	20119.24
693.11	20362.66
693.24	20203.50
693.38	19990.52
693.51	20212.87
693.65	20060.73
693.78	20100.52
693.92	19744.76
694.05	19585.60
694.19	19800.93
694.32	19770.51
694.45	19796.25
694.59	19695.61
694.72	19796.25
694.86	19129.20
694.99	19154.94
695.13	18941.96
695.26	18778.12
695.39	18675.13
695.53	18759.39
695.66	18792.16
695.80	18487.89
695.93	18429.38
696.07	18579.17
696.20	18293.63
696.33	18052.55
696.47	17933.18
696.60	17813.82
696.73	17987.02
696.87	18169.58
697.00	18057.23
697.14	17968.29
697.27	17525.93
697.40	17535.29
697.54	17823.18
697.67	17474.44
697.80	17530.61
697.94	17563.38
698.07	16987.61
698.21	17142.08
698.34	17060.16
698.47	16833.13
698.61	16491.41
698.74	16816.75
698.87	16589.72
699.01	16652.91
699.14	16559.29
699.27	16519.50
699.40	16379.07
699.54	16428.22
699.67	16248.00
699.80	16400.13
699.94	16145.02
700.07	16145.02
700.20	16166.08
700.34	16046.71
700.47	15950.75
700.60	16100.55
700.73	15922.66
700.87	15590.31
701.00	15367.96
701.13	15414.77
701.26	15484.98
701.40	15318.81
701.53	15197.10
701.66	14934.96
701.79	15066.03
701.93	15026.24
702.06	14918.57
702.19	15026.24
702.32	14855.38
702.46	15103.48
702.59	14717.29
702.72	14766.44
702.85	14649.41
702.99	14871.76
703.12	14523.02
703.25	14113.43
703.38	14279.61
703.51	14171.94
703.65	14295.99
703.78	14071.30
703.91	13802.14
704.04	13764.69
704.17	13764.69
704.31	13898.10
704.44	13523.62
704.57	13654.69
704.70	13626.60
704.83	13633.62
704.96	13380.84
705.10	13362.12
705.23	13195.94
>>>>>End Processed Spectral Data<<<<<
