SpectraSuite Data File
++++++++++++++++++++++++++++++++++++
Date: Fri Oct 25 11:33:39 EDT 2013
User: price-jones
Dark Spectrum Present: No
Reference Spectrum Present: No
Number of Sampled Component Spectra: 1
Spectrometers: USB2+H05261
Integration Time (usec): 100000 (USB2+H05261)
Spectra Averaged: 1 (USB2+H05261)
Boxcar Smoothing: 0 (USB2+H05261)
Correct for Electrical Dark: No (USB2+H05261)
Strobe/Lamp Enabled: No (USB2+H05261)
Correct for Detector Non-linearity: No (USB2+H05261)
Correct for Stray Light: No (USB2+H05261)
Number of Pixels in Processed Spectrum: 2048
>>>>>Begin Processed Spectral Data<<<<<
365.73	276.18
365.92	276.18
366.12	276.18
366.32	259.80
366.52	133.41
366.72	243.42
366.91	142.77
367.11	119.37
367.31	147.45
367.51	175.54
367.70	161.50
367.90	168.52
368.10	212.99
368.30	140.43
368.49	117.03
368.69	243.42
368.89	156.82
369.09	124.05
369.28	229.37
369.48	208.31
369.68	168.52
369.87	236.39
370.07	248.10
370.27	252.78
370.47	372.15
370.66	493.85
370.86	517.26
371.06	521.94
371.25	653.01
371.45	554.71
371.65	582.79
371.84	592.16
372.04	479.81
372.24	620.24
372.44	585.13
372.63	622.58
372.83	641.31
373.03	648.33
373.22	596.84
373.42	582.79
373.62	615.56
373.81	634.29
374.01	613.22
374.21	650.67
374.40	594.50
374.60	641.31
374.79	587.47
374.99	669.39
375.19	606.20
375.38	664.71
375.58	664.71
375.78	620.24
375.97	667.05
376.17	760.67
376.37	664.71
376.56	622.58
376.76	592.16
376.95	704.50
377.15	678.76
377.35	697.48
377.54	688.12
377.74	678.76
377.93	636.63
378.13	641.31
378.33	671.73
378.52	685.78
378.72	674.07
378.91	690.46
379.11	645.99
379.31	723.23
379.50	713.86
379.70	784.08
379.89	695.14
380.09	690.46
380.28	723.23
380.48	739.61
380.68	730.25
380.87	741.95
381.07	737.27
381.26	777.06
381.46	772.38
381.65	737.27
381.85	826.21
382.04	748.97
382.24	809.83
382.43	882.38
382.63	805.14
382.83	713.86
383.02	791.10
383.22	784.08
383.41	763.01
383.61	819.19
383.80	922.17
384.00	798.12
384.19	814.51
384.39	847.27
384.58	840.25
384.78	774.72
384.97	809.83
385.17	889.40
385.36	854.30
385.56	854.30
385.75	898.77
385.95	837.91
386.14	854.30
386.34	868.34
386.53	912.81
386.72	847.27
386.92	833.23
387.11	926.85
387.31	891.74
387.50	903.45
387.70	978.34
387.89	896.43
388.09	868.34
388.28	889.40
388.48	861.32
388.67	880.04
388.86	863.66
389.06	931.53
389.25	966.64
389.45	919.83
389.64	940.90
389.84	884.72
390.03	1006.43
390.22	966.64
390.42	968.98
390.61	971.32
390.81	950.26
391.00	1004.09
391.19	1046.22
391.39	1046.22
391.58	997.07
391.78	1020.47
391.97	1039.20
392.16	957.28
392.36	1114.10
392.55	1060.26
392.75	1064.94
392.94	1053.24
393.13	1025.15
393.33	1043.88
393.52	1029.84
393.71	1093.03
393.91	1029.84
394.10	1036.86
394.29	1086.01
394.49	1034.52
394.68	1172.61
394.88	1170.27
395.07	1191.33
395.26	1205.38
395.46	1231.12
395.65	1146.86
395.84	1179.63
396.04	1226.44
396.23	1177.29
396.42	1196.01
396.62	1252.19
396.81	1196.01
397.00	1245.16
397.19	1203.04
397.39	1277.93
397.58	1282.61
397.77	1273.25
397.97	1219.42
398.16	1289.64
398.35	1284.95
398.55	1259.21
398.74	1233.46
398.93	1299.00
399.12	1329.42
399.32	1308.36
399.51	1336.45
399.70	1329.42
399.90	1385.60
400.09	1350.49
400.28	1425.39
400.47	1476.88
400.67	1352.83
400.86	1383.26
401.05	1322.40
401.24	1409.00
401.44	1451.13
401.63	1446.45
401.82	1462.83
402.01	1462.83
402.21	1481.56
402.40	1542.41
402.59	1493.26
402.78	1519.01
402.97	1533.05
403.17	1568.16
403.36	1540.07
403.55	1605.61
403.74	1537.73
403.93	1526.03
404.13	1605.61
404.32	1572.84
404.51	1563.48
404.70	1591.56
404.89	1654.76
405.09	1755.40
405.28	1701.57
405.47	1685.19
405.66	1739.02
405.85	1790.51
406.05	1783.49
406.24	1713.27
406.43	1771.79
406.62	1851.36
406.81	1844.34
407.00	1823.28
407.20	1673.48
407.39	1783.49
407.58	1846.68
407.77	1926.26
407.96	1921.58
408.15	1914.56
408.34	1893.49
408.54	1893.49
408.73	1900.52
408.92	1949.67
409.11	1895.83
409.30	1930.94
409.49	1982.43
409.68	2062.01
409.87	1973.07
410.07	2003.50
410.26	2036.27
410.45	1954.35
410.64	2118.18
410.83	2153.29
411.02	2134.57
411.21	2188.40
411.40	2176.70
411.59	2179.04
411.78	2225.85
411.98	2188.40
412.17	2242.23
412.36	2310.11
412.55	2200.10
412.74	2349.90
412.93	2361.60
413.12	2246.91
413.31	2394.37
413.50	2349.90
413.69	2483.31
413.88	2466.92
414.07	2532.46
414.26	2427.14
414.45	2434.16
414.64	2523.10
414.83	2558.21
415.02	2605.02
415.22	2689.28
415.41	2757.15
415.60	2686.94
415.79	2719.70
415.98	2766.51
416.17	2771.19
416.36	2642.46
416.55	2771.19
416.74	2775.88
416.93	2780.56
417.12	2806.30
417.31	2778.22
417.50	2899.92
417.69	3082.49
417.88	2993.55
418.07	2857.79
418.26	2993.55
418.45	2930.35
418.64	3035.67
418.83	3070.78
419.02	2956.10
419.21	3077.80
419.39	3222.92
419.58	3122.27
419.77	3131.64
419.96	3204.19
420.15	3253.34
420.34	3150.36
420.53	3169.09
420.72	3227.60
420.91	3122.27
421.10	3276.75
421.29	3241.64
421.48	3218.24
421.67	3262.71
421.86	3260.37
422.05	3260.37
422.24	3243.98
422.43	3288.45
422.61	3337.60
422.80	3461.65
422.99	3365.69
423.18	3386.76
423.37	3384.41
423.56	3262.71
423.75	3368.03
423.94	3335.26
424.13	3197.17
424.32	3274.41
424.50	3300.16
424.69	3414.84
424.88	3508.46
425.07	3328.24
425.26	3508.46
425.45	3424.20
425.64	3449.95
425.83	3421.86
426.01	3494.42
426.20	3480.38
426.39	3522.51
426.58	3506.12
426.77	3482.72
426.96	3538.89
427.15	3555.27
427.33	3616.13
427.52	3520.17
427.71	3522.51
427.90	3524.85
428.09	3735.50
428.28	3737.84
428.46	3597.40
428.65	3595.06
428.84	3840.82
429.03	3684.00
429.22	3702.73
429.40	3672.30
429.59	3691.02
429.78	3669.96
429.97	3658.26
430.16	3791.67
430.34	3892.31
430.53	3833.80
430.72	3880.61
430.91	3810.39
431.10	3819.75
431.28	3988.27
431.47	3852.52
431.66	4084.23
431.85	3936.78
432.03	4032.74
432.22	4095.94
432.41	4154.45
432.60	4044.45
432.79	4016.36
432.97	4074.87
433.16	4086.58
433.35	4009.34
433.54	4173.18
433.72	4362.76
433.91	4315.95
434.10	4257.43
434.28	4177.86
434.47	4102.96
434.66	4236.37
434.85	4367.44
435.03	4271.48
435.22	4280.84
435.41	4447.02
435.59	4369.78
435.78	4461.06
435.97	4416.59
436.16	4409.57
436.34	4344.03
436.53	4404.89
436.72	4627.24
436.90	4608.51
437.09	4629.58
437.28	4468.08
437.46	4573.41
437.65	4440.00
437.84	4695.11
438.02	4608.51
438.21	4535.96
438.40	4610.86
438.58	4865.97
438.77	4734.90
438.96	4765.33
439.14	4971.30
439.33	4915.12
439.52	4830.87
439.70	4858.95
439.89	4980.66
440.08	4980.66
440.26	5046.20
440.45	4971.30
440.63	5125.77
440.82	5125.77
441.01	5069.60
441.19	5195.99
441.38	5277.91
441.57	5200.67
441.75	5408.98
441.94	5310.68
442.12	5430.04
442.31	5432.38
442.50	5558.77
442.68	5273.23
442.87	5350.46
443.05	5514.30
443.24	5605.58
443.43	5483.88
443.61	5507.28
443.80	5825.59
443.98	5460.47
444.17	5296.63
444.35	5582.18
444.54	5837.30
444.73	5638.35
444.91	5654.73
445.10	5626.65
445.28	5701.54
445.47	5724.95
445.65	5495.58
445.84	5802.19
446.02	5696.86
446.21	5696.86
446.39	5673.46
446.58	5937.94
446.77	5561.11
446.95	5589.20
447.14	5661.76
447.32	5905.17
447.51	5762.40
447.69	5554.09
447.88	5921.56
448.06	5696.86
448.25	5816.23
448.43	5898.15
448.62	5900.49
448.80	5841.98
448.99	5944.96
449.17	5947.30
449.36	5982.41
449.54	6087.73
449.73	5912.19
449.91	6146.25
450.10	6097.10
450.28	6164.97
450.46	6143.91
450.65	6010.50
450.83	5991.77
451.02	5998.79
451.20	6267.95
451.39	6073.69
451.57	6237.53
451.76	6211.78
451.94	6328.81
452.13	6368.60
452.31	6242.21
452.49	6223.48
452.68	6349.87
452.86	6347.53
453.05	6546.48
453.23	6455.20
453.42	6218.80
453.60	6368.60
453.78	6361.58
453.97	6305.40
454.15	6506.69
454.34	6331.15
454.52	6560.52
454.70	6693.93
454.89	6604.99
455.07	6527.75
455.26	6555.84
455.44	6661.16
455.62	6548.82
455.81	6761.81
455.99	6832.02
456.17	6764.15
456.36	6820.32
456.54	7016.93
456.73	6932.67
456.91	7229.91
457.09	6942.03
457.28	7187.79
457.46	6897.56
457.64	6972.46
457.83	7049.69
458.01	7045.01
458.19	7222.89
458.38	7115.23
458.56	7281.41
458.74	7192.47
458.93	7091.82
459.11	7335.24
459.29	7204.17
459.48	7386.73
459.66	7152.68
459.84	7316.51
460.03	7456.95
460.21	7293.11
460.39	7349.28
460.57	7463.97
460.76	7377.37
460.94	7562.27
461.12	7499.08
461.31	7513.12
461.49	7456.95
461.67	7616.10
461.85	7623.12
462.04	7749.51
462.22	8009.31
462.40	7871.22
462.59	7754.19
462.77	7775.26
462.95	7730.79
463.13	7880.58
463.32	7674.62
463.50	7913.35
463.68	7733.13
463.86	7831.43
464.05	7712.07
464.23	7929.74
464.41	7854.84
464.59	7925.05
464.78	8030.38
464.96	8002.29
465.14	8095.91
465.32	8095.91
465.50	8128.68
465.69	8189.53
465.87	7976.55
466.05	8217.62
466.23	8297.20
466.41	8187.19
466.60	8318.26
466.78	7992.93
466.96	8248.05
467.14	8365.07
467.32	8313.58
467.51	8252.73
467.69	7976.55
467.87	8306.56
468.05	8442.31
468.23	8533.59
468.41	8400.18
468.60	8313.58
468.78	8472.74
468.96	8568.70
469.14	8549.98
469.32	8769.99
469.50	8505.51
469.69	8580.40
469.87	8655.30
470.05	8676.37
470.23	8777.01
470.41	8798.07
470.59	8849.57
470.77	8816.80
470.95	8908.08
471.14	8987.66
471.32	8872.97
471.50	9020.42
471.68	8865.95
471.86	9083.62
472.04	9268.52
472.22	9294.27
472.40	9132.77
472.58	9266.18
472.77	9090.64
472.95	9362.14
473.13	9701.52
473.31	9394.91
473.49	9261.50
473.67	9322.35
473.85	9540.02
474.03	9738.97
474.21	9713.22
474.39	9462.79
474.57	9797.48
474.75	9977.70
474.93	9743.65
475.12	10057.28
475.30	9940.26
475.48	10155.58
475.66	10134.52
475.84	10087.71
476.02	10260.91
476.20	10200.05
476.38	10429.43
476.56	10544.11
476.74	10546.45
476.92	10565.18
477.10	10534.75
477.28	10443.47
477.46	10736.04
477.64	10843.70
477.82	11000.52
478.00	11066.05
478.18	10993.50
478.36	11288.40
478.54	11206.48
478.72	11131.59
478.90	11527.14
479.08	11620.76
479.26	11473.31
479.44	11721.40
479.62	11723.74
479.80	11590.33
479.98	11943.75
480.16	12205.89
480.34	12051.42
480.52	12287.81
480.70	12241.00
480.88	12339.30
481.06	12222.28
481.24	12374.41
481.41	12535.91
481.59	12713.79
481.77	12952.52
481.95	12828.48
482.13	13004.02
482.31	12912.74
482.49	13231.05
482.67	13144.45
482.85	13373.82
483.03	13401.91
483.21	13593.83
483.39	13982.36
483.57	13626.60
483.74	13928.53
483.92	13968.32
484.10	13884.06
484.28	14253.86
484.46	14342.80
484.64	14492.60
484.82	14485.58
485.00	14626.01
485.18	14843.68
485.35	15250.93
485.53	14930.28
485.71	15318.81
485.89	15463.92
486.07	15218.16
486.25	15391.36
486.43	15728.40
486.61	15735.42
486.78	16002.24
486.96	15819.68
487.14	15941.39
487.32	16245.66
487.50	16271.40
487.68	16231.62
487.85	16484.39
488.03	16657.59
488.21	16936.12
488.39	17071.87
488.57	17151.45
488.75	17378.48
488.92	17289.54
489.10	17591.47
489.28	17598.49
489.46	17738.92
489.64	17596.15
489.81	17851.27
489.99	18321.71
490.17	18209.37
490.35	18443.42
490.53	18544.06
490.70	18885.78
490.88	18855.36
491.06	18766.42
491.24	18993.45
491.41	19154.94
491.59	19161.97
491.77	18918.55
491.95	19646.46
492.13	19669.86
492.30	19510.71
492.48	19793.91
492.66	19716.67
492.84	19847.74
493.01	20049.03
493.19	19690.93
493.37	20339.26
493.54	20402.45
493.72	20713.74
493.90	20716.08
494.08	21018.01
494.25	21099.93
494.43	21132.70
494.61	21092.91
494.79	21467.39
494.96	21032.05
495.14	21589.10
495.32	21778.68
495.49	21575.06
495.67	21862.94
495.85	22073.59
496.02	22366.16
496.20	22455.10
496.38	22211.68
496.55	22331.05
496.73	22810.86
496.91	22644.68
497.09	22789.80
497.26	23051.94
497.44	22775.75
497.62	22689.15
497.79	23388.97
497.97	23164.28
498.14	23718.99
498.32	23864.10
498.50	23718.99
498.67	23814.95
498.85	23955.38
499.03	24252.63
499.20	24053.69
499.38	24128.58
499.56	24269.01
499.73	24493.71
499.91	24599.03
500.08	24685.63
500.26	24432.85
500.44	24910.32
500.61	24601.37
500.79	25029.69
500.97	24933.73
501.14	25336.30
501.32	25488.43
501.49	25226.29
501.67	25319.92
501.84	25467.37
502.02	25266.08
502.20	25415.88
502.37	25724.83
502.55	25736.53
502.72	25675.68
502.90	25876.96
503.07	25773.98
503.25	25944.84
503.43	26199.96
503.60	26263.15
503.78	26143.78
503.95	26651.68
504.13	26536.99
504.30	26761.69
504.48	26581.46
504.65	26771.05
504.83	27152.55
505.01	27194.68
505.18	27117.45
505.36	27363.20
505.53	27110.43
505.71	27295.33
505.88	27587.89
506.06	27278.94
506.23	27597.26
506.41	27573.85
506.58	27864.08
506.76	27948.34
506.93	27873.44
507.11	28194.09
507.28	28135.58
507.46	28463.25
507.63	28311.12
507.81	28217.50
507.98	28158.99
508.16	28718.37
508.33	28512.41
508.50	28613.05
508.68	28685.61
508.85	29053.07
509.03	28903.28
509.20	29085.84
509.38	29125.63
509.55	29467.34
509.73	29483.73
509.90	29177.12
510.08	29322.23
510.25	29387.77
510.42	29673.31
510.60	29582.03
510.77	29811.40
510.95	29750.55
511.12	30003.33
511.30	29916.73
511.47	30309.94
511.64	30087.59
511.82	30256.11
511.99	30192.91
512.17	30291.21
512.34	30333.34
512.51	30897.41
512.69	30691.44
512.86	31049.55
513.04	31065.93
513.21	30995.71
513.38	31248.49
513.56	31035.50
513.73	31297.64
513.90	30759.32
514.08	31349.14
514.25	31751.71
514.43	31112.74
514.60	31824.26
514.77	31480.21
514.95	31477.86
515.12	31695.53
515.29	31620.64
515.47	32030.23
515.64	31894.48
515.81	31859.37
515.99	32308.76
516.16	31908.52
516.33	32496.00
516.51	32577.92
516.68	32643.45
516.85	32610.68
517.03	32718.35
517.20	32840.06
517.37	32734.73
517.54	32620.05
517.72	32760.48
517.89	32947.72
518.06	33123.26
518.24	32982.83
518.41	32870.48
518.58	33457.96
518.75	33109.22
518.93	33413.49
519.10	33464.98
519.27	33560.94
519.45	33546.90
519.62	33766.91
519.79	33860.53
519.96	33469.66
520.14	33942.45
520.31	33539.88
520.48	34092.24
520.65	34164.80
520.83	34284.17
521.00	34288.85
521.17	34040.75
521.34	34558.01
521.52	34429.28
521.69	34426.94
521.86	34724.19
522.03	34710.14
522.20	34700.78
522.38	35164.21
522.55	35124.42
522.72	34717.17
522.89	34803.77
523.07	35676.79
523.24	35356.13
523.41	35234.42
523.58	35442.73
523.75	35728.28
523.92	35161.87
524.10	35775.09
524.27	35627.63
524.44	36046.59
524.61	35697.85
524.78	35739.98
524.96	36077.02
525.13	35793.81
525.30	36084.04
525.47	35835.94
525.64	36362.56
525.81	36505.34
525.98	36446.82
526.16	35992.76
526.33	36074.68
526.50	36584.91
526.67	36308.73
526.84	36718.32
527.01	36673.85
527.18	36566.19
527.36	36687.90
527.53	36833.01
527.70	36793.22
527.87	36858.76
528.04	36914.93
528.21	36589.59
528.38	37137.28
528.55	37151.32
528.72	37354.95
528.89	37027.28
529.07	36982.80
529.24	37062.38
529.41	37336.23
529.58	37221.54
529.75	37317.50
529.92	37441.55
530.09	37567.94
530.26	37401.76
530.43	37834.76
530.60	37535.17
530.77	37504.74
530.94	37893.27
531.11	37471.98
531.28	38096.90
531.46	37991.58
531.63	38195.20
531.80	38401.17
531.97	38073.49
532.14	38288.82
532.31	38178.82
532.48	38672.67
532.65	38527.56
532.82	38754.59
532.99	38773.31
533.16	38569.69
533.33	38724.16
533.50	39021.41
533.67	38614.16
533.84	38473.73
534.01	38607.14
534.18	38593.09
534.35	39306.96
534.52	39105.67
534.69	39058.86
534.86	39253.12
535.03	38990.98
535.20	39299.94
535.37	39377.17
535.54	39716.55
535.71	39328.02
535.88	39253.12
536.05	39536.33
536.22	39379.51
536.38	39503.56
536.55	39498.88
536.72	39847.62
536.89	39707.19
537.06	39494.20
537.23	40215.08
537.40	39971.67
537.57	39529.31
537.74	39821.87
537.91	40257.21
538.08	39992.73
538.25	40322.75
538.42	40170.61
538.59	40329.77
538.75	40376.58
538.92	40577.87
539.09	40196.36
539.26	40673.83
539.43	40645.74
539.60	40678.51
539.77	40786.18
539.94	40898.52
540.11	41060.02
540.28	40715.96
540.44	40765.11
540.61	40685.53
540.78	40437.44
540.95	40734.68
541.12	41076.40
541.29	40765.11
541.46	40886.82
541.62	41048.32
541.79	41427.48
541.96	41123.21
542.13	40804.90
542.30	41038.95
542.47	41113.85
542.63	41076.40
542.80	41378.33
542.97	41790.27
543.14	41649.83
543.31	41860.48
543.48	41766.86
543.64	42127.30
543.81	41961.12
543.98	42043.04
544.15	41937.72
544.32	42469.02
544.48	42195.18
544.65	42239.65
544.82	42188.16
544.99	42337.95
545.16	42174.11
545.32	42164.75
545.49	42635.20
545.66	42569.66
545.83	42909.04
546.00	42885.64
546.16	43093.94
546.33	42454.98
546.50	42213.90
546.67	42567.32
546.83	42471.36
547.00	42768.61
547.17	42749.88
547.34	42953.51
547.50	42883.30
547.67	43297.57
547.84	42424.55
548.00	42665.63
548.17	43391.19
548.34	43129.05
548.51	43309.27
548.67	43257.78
548.84	43379.49
549.01	43260.12
549.18	43372.47
549.34	43423.96
549.51	43391.19
549.68	43517.58
549.84	43475.45
550.01	43756.32
550.18	43538.65
550.34	44002.07
550.51	43629.93
550.68	44037.18
550.84	43318.64
551.01	44156.55
551.18	44093.35
551.34	43697.80
551.51	43744.61
551.68	43653.33
551.84	43894.41
552.01	44079.31
552.18	43955.26
552.34	43878.02
552.51	44280.60
552.68	44002.07
552.84	43824.19
553.01	44367.20
553.18	43969.30
553.34	44158.89
553.51	44442.09
553.67	44268.89
553.84	44671.46
554.01	44215.06
554.17	44147.18
554.34	44594.23
554.51	44442.09
554.67	44737.00
554.84	44563.80
555.00	44458.48
555.17	45092.76
555.33	44643.38
555.50	44713.59
555.67	44678.49
555.83	44961.69
556.00	44535.71
556.16	45289.37
556.33	44814.24
556.50	44619.97
556.66	44886.79
556.83	44814.24
556.99	45113.83
557.16	45399.37
557.32	44961.69
557.49	45088.08
557.65	44465.50
557.82	45228.51
557.98	45233.19
558.15	45170.00
558.32	45483.63
558.48	44884.45
558.65	45284.68
558.81	45059.99
558.98	45464.91
559.14	45397.03
559.31	45113.83
559.47	44914.88
559.64	45532.78
559.80	45432.14
559.97	45556.19
560.13	45141.91
560.30	45495.33
560.46	46038.34
560.63	45287.03
560.79	45542.14
560.96	46248.99
561.12	45766.84
561.29	45544.48
561.45	45441.50
561.61	45691.94
561.78	45918.97
561.94	46134.30
562.11	45284.68
562.27	45560.87
562.44	45860.46
562.60	46057.06
562.77	45745.77
562.93	45914.29
563.10	46302.82
563.26	45553.85
563.42	46550.91
563.59	45933.01
563.75	45893.22
563.92	45886.20
564.08	45879.18
564.24	46124.94
564.41	45909.61
564.57	45792.58
564.74	46021.95
564.90	45792.58
565.07	45801.94
565.23	45982.16
565.39	45869.82
565.56	46211.54
565.72	46323.88
565.88	45977.48
566.05	46307.50
566.21	46024.29
566.38	46064.08
566.54	46227.92
566.70	46351.97
566.87	46508.79
567.03	46036.00
567.19	46604.75
567.36	46784.97
567.52	46206.86
567.68	46464.32
567.85	46248.99
568.01	46710.07
568.17	46454.95
568.34	46583.68
568.50	46581.34
568.66	46363.67
568.83	46810.71
568.99	46169.41
569.15	46370.69
569.32	46349.63
569.48	46450.27
569.64	46646.88
569.81	46747.52
569.97	46628.15
570.13	46754.54
570.30	46871.57
570.46	46527.51
570.62	46799.01
570.78	46834.12
570.95	46803.69
571.11	46681.98
571.27	46513.47
571.43	46499.42
571.60	46412.82
571.76	46602.41
571.92	46351.97
572.09	46735.82
572.25	46555.60
572.41	46422.19
572.57	46958.17
572.74	47009.66
572.90	46396.44
573.06	47334.99
573.22	46955.83
573.38	46848.16
573.55	46834.12
573.71	47098.60
573.87	47210.95
574.03	46749.86
574.20	47220.31
574.36	46674.96
574.52	47297.55
574.68	47063.49
574.84	47311.59
575.01	47056.47
575.17	47246.05
575.33	47021.36
575.49	46930.08
575.65	46880.93
575.82	47070.51
575.98	46824.76
576.14	47035.41
576.30	47562.03
576.46	47070.51
576.62	47178.18
576.79	47220.31
576.95	46543.89
577.11	47103.28
577.27	47007.32
577.43	46967.53
577.59	47049.45
577.75	46920.72
577.92	46782.63
578.08	46820.08
578.24	46969.87
578.40	47103.28
578.56	46911.36
578.72	46756.88
578.88	47400.53
579.04	46665.60
579.21	47171.16
579.37	47040.09
579.53	47461.38
579.69	47126.69
579.85	47030.72
580.01	47217.97
580.17	46712.41
580.33	47206.26
580.49	47487.13
580.65	47232.01
580.82	47653.31
580.98	46969.87
581.14	46969.87
581.30	47002.64
581.46	46850.50
581.62	47299.89
581.78	47159.45
581.94	47274.14
582.10	47192.22
582.26	47189.88
582.42	47257.76
582.58	47262.44
582.74	47576.07
582.90	47276.48
583.06	47470.75
583.22	47154.77
583.38	47423.93
583.54	47365.42
583.70	47241.37
583.86	47372.44
584.02	46967.53
584.18	47618.20
584.34	47400.53
584.50	47540.96
584.66	47627.56
584.82	47517.56
584.98	47878.00
585.14	47461.38
585.30	47449.68
585.46	47246.05
585.62	47449.68
585.78	47519.90
585.94	46855.18
586.10	47302.23
586.26	46937.10
586.42	47033.07
586.58	47351.38
586.74	47363.08
586.90	47096.26
587.06	47337.33
587.22	47437.98
587.38	47650.97
587.54	47728.20
587.70	47393.51
587.86	47683.73
588.02	47402.87
588.18	47112.64
588.34	47400.53
588.49	47557.35
588.65	47501.17
588.81	47426.28
588.97	47395.85
589.13	47072.85
589.29	47325.63
589.45	48006.73
589.61	47360.74
589.77	47840.55
589.93	47597.13
590.08	47831.19
590.24	47777.36
590.40	48123.75
590.56	48163.54
590.72	47952.90
590.88	47679.05
591.04	47522.24
591.20	47924.81
591.35	47936.51
591.51	48083.97
591.67	48034.81
591.83	48189.29
591.99	48039.50
592.15	47578.41
592.31	47737.57
592.46	47927.15
592.62	47938.85
592.78	48367.17
592.94	47983.32
593.10	47838.21
593.26	48299.30
593.41	48243.12
593.57	48086.31
593.73	47679.05
593.89	48346.11
594.05	48247.80
594.20	48098.01
594.36	48577.82
594.52	48093.33
594.68	48339.08
594.84	47737.57
594.99	48596.54
595.15	48018.43
595.31	48200.99
595.47	48233.76
595.62	48004.39
595.78	48020.77
595.94	48074.60
596.10	48067.58
596.25	47910.77
596.41	48479.52
596.57	47856.93
596.73	48182.27
596.88	47805.44
597.04	48055.88
597.20	48151.84
597.36	47826.51
597.51	48318.02
597.67	48247.80
597.83	48055.88
597.99	48168.22
598.14	48215.04
598.30	48610.59
598.46	48030.13
598.61	48453.77
598.77	48341.42
598.93	48238.44
599.09	47917.79
599.24	48516.96
599.40	48086.31
599.56	48280.57
599.71	48718.25
599.87	48891.45
600.03	48591.86
600.18	47861.61
600.34	48093.33
600.50	48671.44
600.65	48343.77
600.81	48903.15
600.97	48526.33
601.12	48353.13
601.28	48280.57
601.44	48144.82
601.59	48200.99
601.75	47938.85
601.91	48374.19
602.06	48355.47
602.22	48619.95
602.37	48353.13
602.53	48282.91
602.69	48449.09
602.84	48254.82
603.00	48135.46
603.16	48526.33
603.31	48371.85
603.47	48442.07
603.62	48463.13
603.78	48919.54
603.94	48619.95
604.09	48449.09
604.25	48121.41
604.40	48098.01
604.56	48514.62
604.71	48619.95
604.87	48147.16
605.03	47990.34
605.18	48257.17
605.34	48432.71
605.49	48114.39
605.65	48243.12
605.80	47990.34
605.96	47817.14
606.12	48098.01
606.27	48645.69
606.43	47845.23
606.58	48137.80
606.74	47957.58
606.89	48306.32
607.05	48367.17
607.20	48465.47
607.36	48397.60
607.51	48193.97
607.67	48240.78
607.82	48219.72
607.98	48147.16
608.13	48182.27
608.29	47641.60
608.44	48402.28
608.60	47973.96
608.75	47875.66
608.91	48058.22
609.06	47936.51
609.22	48191.63
609.37	47735.23
609.53	48339.08
609.68	48287.59
609.84	48137.80
609.99	48327.38
610.15	48133.12
610.30	48086.31
610.46	47646.29
610.61	47896.72
610.76	48121.41
610.92	47599.47
611.07	47629.90
611.23	48013.75
611.38	47482.45
611.54	48041.84
611.69	48109.71
611.84	48481.86
612.00	48060.56
612.15	47943.53
612.31	47679.05
612.46	47739.91
612.62	47360.74
612.77	47749.27
612.92	48212.70
613.08	47798.42
613.23	47674.37
613.39	47887.36
613.54	47501.17
613.69	47728.20
613.85	47533.94
614.00	47299.89
614.15	47819.49
614.31	47227.33
614.46	47437.98
614.62	47398.19
614.77	47199.24
614.92	47878.00
615.08	47838.21
615.23	47611.18
615.38	48039.50
615.54	47805.44
615.69	47728.20
615.84	47910.77
616.00	47482.45
616.15	47571.39
616.30	47562.03
616.46	47276.48
616.61	47213.29
616.76	47395.85
616.92	47330.31
617.07	47370.10
617.22	47569.05
617.37	47136.05
617.53	47356.06
617.68	46944.12
617.83	47517.56
617.99	47779.70
618.14	47789.06
618.29	47058.81
618.45	47257.76
618.60	47592.45
618.75	46768.58
618.90	47133.71
619.06	47021.36
619.21	46791.99
619.36	47393.51
619.51	46937.10
619.67	47042.43
619.82	46632.83
619.97	47187.54
620.12	47480.11
620.28	46941.78
620.43	47351.38
620.58	47210.95
620.73	47201.58
620.89	47168.82
621.04	47166.48
621.19	47084.56
621.34	46920.72
621.49	46735.82
621.65	46834.12
621.80	47140.73
621.95	46855.18
622.10	47140.73
622.25	46609.43
622.41	46686.67
622.56	46791.99
622.71	46972.21
622.86	46590.70
623.01	46794.33
623.16	46213.88
623.32	46230.26
623.47	46794.33
623.62	46426.87
623.77	46923.06
623.92	46487.72
624.07	46660.92
624.23	46583.68
624.38	46649.22
624.53	46270.05
624.68	46092.17
624.83	46314.52
624.98	46696.03
625.13	46129.62
625.29	45778.54
625.44	46436.23
625.59	46305.16
625.74	45904.93
625.89	46010.25
626.04	46050.04
626.19	46054.72
626.34	45792.58
626.49	45853.44
626.65	45680.24
626.80	46155.36
626.95	45933.01
627.10	45364.26
627.25	45865.14
627.40	46099.19
627.55	46244.30
627.70	45914.29
627.85	46050.04
628.00	45586.61
628.15	45792.58
628.30	45214.47
628.45	45684.92
628.60	45155.96
628.76	45593.64
628.91	45626.40
629.06	45588.95
629.21	45265.96
629.36	45153.62
629.51	45579.59
629.66	46192.81
629.81	45581.93
629.96	46071.10
630.11	45525.76
630.26	45146.59
630.41	45806.62
630.56	45715.34
630.71	45546.82
630.86	45045.95
631.01	45378.31
631.16	45624.06
631.31	45155.96
631.46	45324.47
631.61	45214.47
631.76	45467.25
631.91	45127.87
632.06	46043.02
632.21	45237.87
632.36	46092.17
632.51	45120.85
632.66	45153.62
632.81	44989.78
632.96	45226.17
633.10	45041.27
633.25	44999.14
633.40	45162.98
633.55	45041.27
633.70	44957.01
633.85	44692.53
634.00	44687.85
634.15	44748.70
634.30	44643.38
634.45	44713.59
634.60	44664.44
634.75	45139.57
634.90	44673.81
635.05	44807.22
635.19	44722.96
635.34	45078.72
635.49	44732.32
635.64	44421.03
635.79	44619.97
635.94	44554.44
636.09	44863.39
636.24	44289.96
636.39	44596.57
636.53	44584.86
636.68	44278.25
636.83	44137.82
636.98	44301.66
637.13	44296.98
637.28	43992.71
637.43	44144.84
637.57	44657.42
637.72	43917.81
637.87	44257.19
638.02	44360.17
638.17	44243.15
638.32	44037.18
638.46	44091.01
638.61	43725.89
638.76	43674.40
638.91	44034.84
639.06	43503.54
639.20	43662.69
639.35	43868.66
639.50	43868.66
639.65	44048.88
639.80	44252.51
639.94	44154.21
640.09	43681.42
640.24	44350.81
640.39	43648.65
640.54	43580.78
640.68	43491.83
640.83	43791.42
640.98	43377.15
641.13	43683.76
641.27	43627.59
641.42	43742.27
641.57	43536.30
641.72	43421.62
641.86	43559.71
642.01	43358.42
642.16	43821.85
642.31	43091.60
642.45	43540.99
642.60	43311.61
642.75	43084.58
642.90	43688.44
643.04	43676.74
643.19	43838.23
643.34	43005.00
643.48	42883.30
643.63	43012.02
643.78	43739.93
643.93	43688.44
644.07	43419.28
644.22	43269.48
644.37	43344.38
644.51	43133.73
644.66	43159.48
644.81	43129.05
644.95	43335.02
645.10	43328.00
645.25	42541.58
645.39	42724.14
645.54	42733.50
645.69	42609.45
645.83	42677.33
645.98	43079.90
646.13	42609.45
646.27	42902.02
646.42	42539.24
646.57	42370.72
646.71	42909.04
646.86	43402.89
647.00	42787.33
647.15	42579.03
647.30	42890.32
647.44	42838.83
647.59	42553.28
647.74	42630.52
647.88	43028.41
648.03	42822.44
648.17	42476.04
648.32	42885.64
648.47	42822.44
648.61	42160.07
648.76	42440.93
648.90	42373.06
649.05	42686.69
649.20	42405.83
649.34	42553.28
649.49	42382.42
649.63	42403.49
649.78	42703.07
649.92	42557.96
650.07	42763.93
650.21	42452.64
650.36	42682.01
650.51	42398.80
650.65	42485.40
650.80	42653.92
650.94	42314.55
651.09	42136.66
651.23	41823.03
651.38	41738.77
651.52	41769.20
651.67	41808.99
651.81	42382.42
651.96	42148.37
652.10	41745.80
652.25	42033.68
652.39	42085.17
652.54	41794.95
652.68	41818.35
652.83	41799.63
652.97	41766.86
653.12	41858.14
653.26	41577.28
653.41	42209.22
653.55	41338.54
653.70	41631.11
653.84	41977.51
653.99	41867.50
654.13	41504.72
654.27	41572.60
654.42	41883.89
654.56	41579.62
654.71	41490.68
654.85	41352.58
655.00	41427.48
655.14	41713.03
655.29	41865.16
655.43	41631.11
655.57	41572.60
655.72	40982.78
655.86	41179.39
656.01	40999.16
656.15	41228.54
656.30	41078.74
656.44	41432.16
656.58	41390.03
656.73	41233.22
656.87	40673.83
657.01	40673.83
657.16	41027.25
657.30	40910.22
657.45	41003.85
657.59	40896.18
657.73	40713.62
657.88	41219.17
658.02	41022.57
658.16	41153.64
658.31	40746.39
658.45	40556.80
658.60	40734.68
658.74	40893.84
658.88	40767.45
659.03	40657.45
659.17	40622.34
659.31	40091.04
659.46	40055.93
659.60	40634.04
659.74	40692.55
659.89	39962.31
660.03	39782.09
660.17	40301.68
660.32	39789.11
660.46	39892.09
660.60	39934.22
660.74	39693.15
660.89	40226.79
661.03	40107.42
661.17	39576.12
661.32	39763.36
661.46	39730.59
661.60	39562.08
661.74	40062.95
661.89	39634.63
662.03	39819.53
662.17	39173.55
662.31	39597.18
662.46	39262.49
662.60	39398.24
662.74	39288.23
662.88	39012.05
663.03	38721.82
663.17	38754.59
663.31	38745.23
663.45	39033.11
663.60	39267.17
663.74	39253.12
663.88	38948.85
664.02	38684.37
664.17	39110.35
664.31	38595.43
664.45	38485.43
664.59	38436.28
664.73	38567.35
664.88	38667.99
665.02	38377.76
665.16	38237.33
665.30	38848.21
665.44	38359.04
665.59	38239.67
665.73	37820.72
665.87	37600.71
666.01	38195.20
666.15	38064.13
666.29	37816.04
666.44	38192.86
666.58	37668.58
666.72	37942.42
666.86	37319.84
667.00	38040.73
667.14	37696.67
667.28	37776.25
667.43	37972.85
667.57	37621.77
667.71	37525.81
667.85	37778.59
667.99	37471.98
668.13	37427.51
668.27	36996.85
668.41	37130.26
668.56	36732.37
668.70	36973.44
668.84	36699.60
668.98	36463.21
669.12	37085.79
669.26	37230.90
669.40	36921.95
669.54	36631.72
669.68	36856.42
669.82	36617.68
669.96	36701.94
670.10	36512.36
670.25	36198.73
670.39	36282.98
670.53	36278.30
670.67	36112.13
670.81	36280.64
670.95	36151.91
671.09	36116.81
671.23	35938.93
671.37	36107.44
671.51	35346.77
671.65	35384.22
671.79	35468.48
671.93	35541.03
672.07	35857.01
672.21	35688.49
672.35	35288.26
672.49	35634.66
672.63	35395.92
672.77	34988.67
672.91	35365.49
673.05	35290.60
673.19	35056.54
673.33	34445.66
673.47	35054.20
673.61	34581.42
673.75	34206.93
673.89	34178.84
674.03	34286.51
674.17	34487.79
674.31	34127.35
674.45	34066.50
674.59	34237.36
674.73	34164.80
674.87	33675.63
675.01	34036.07
675.15	33680.31
675.29	33202.84
675.43	33645.20
675.56	33771.59
675.70	33797.34
675.84	33312.84
675.98	32385.99
676.12	33029.64
676.26	33488.38
676.40	32821.33
676.54	32945.38
676.68	33036.66
676.82	32194.07
676.96	32989.85
677.10	32598.98
677.23	32730.05
677.37	32507.70
677.51	32776.86
677.65	32301.73
677.79	32063.00
677.93	32044.27
678.07	32378.97
678.21	31913.20
678.34	31302.32
678.48	31747.03
678.62	31180.62
678.76	31204.02
678.90	31157.21
679.04	31393.61
679.18	31463.82
679.31	31150.19
679.45	30691.44
679.59	30906.77
679.73	31077.63
679.87	30822.51
680.00	30501.86
680.14	30602.50
680.28	30410.58
680.42	30494.84
680.56	29839.49
680.70	30071.20
680.83	29928.43
680.97	30045.46
681.11	29989.28
681.25	29603.10
681.39	29785.66
681.52	29249.67
681.66	29198.18
681.80	28907.96
681.94	28896.25
682.07	29090.52
682.21	28254.95
682.35	28680.92
682.49	28954.77
682.62	28584.96
682.76	28650.50
682.90	28608.37
683.04	28451.55
683.17	28730.08
683.31	27889.82
683.45	27889.82
683.59	27737.69
683.72	27828.97
683.86	27630.02
684.00	27435.76
684.13	27805.56
684.27	27285.97
684.41	27395.97
684.55	27543.42
684.68	27346.82
684.82	26977.01
684.96	27007.44
685.09	27047.23
685.23	27220.43
685.37	27360.86
685.50	27206.39
685.64	26969.99
685.78	26534.65
685.91	26295.92
686.05	26127.40
686.19	25923.77
686.32	26094.63
686.46	26059.52
686.60	25214.59
686.73	26015.05
686.87	25729.51
687.01	25610.14
687.14	25668.66
687.28	25593.76
687.42	25331.62
687.55	25017.99
687.69	24739.46
687.82	24744.14
687.96	24980.54
688.10	24732.44
688.23	24758.19
688.37	24751.17
688.50	24884.58
688.64	24802.66
688.78	24393.06
688.91	24552.22
689.05	24259.65
689.18	24166.03
689.32	23618.35
689.46	23843.04
689.59	23936.66
689.73	24168.37
689.86	24018.58
690.00	23946.02
690.13	23688.56
690.27	23410.04
690.41	23328.12
690.54	22967.68
690.68	23117.47
690.81	22923.21
690.95	22824.90
691.08	22939.59
691.22	22595.53
691.35	22436.38
691.49	22965.34
691.62	22661.07
691.76	22207.00
691.89	22286.58
692.03	22019.76
692.16	21565.70
692.30	22101.68
692.43	22174.24
692.57	21865.28
692.70	21570.38
692.84	21764.64
692.97	21156.10
693.11	21556.33
693.24	21451.01
693.38	20999.29
693.51	20788.64
693.65	21025.03
693.78	21032.05
693.92	20641.18
694.05	20521.82
694.19	20608.42
694.32	20521.82
694.45	20760.55
694.59	20648.21
694.72	20879.92
694.86	20563.95
694.99	20044.35
695.13	20020.94
695.26	19538.79
695.39	19545.81
695.53	19620.71
695.66	20133.29
695.80	19543.47
695.93	19477.94
696.07	19187.71
696.20	18984.09
696.33	18932.59
696.47	19063.66
696.60	19173.67
696.73	19360.91
696.87	19131.54
697.00	18625.98
697.14	18705.56
697.27	18787.48
697.40	18827.27
697.54	18366.18
697.67	18302.99
697.80	18335.76
697.94	18054.89
698.07	18190.64
698.21	17907.44
698.34	18157.88
698.47	17851.27
698.61	17549.34
698.74	17727.22
698.87	17781.05
699.01	17348.05
699.14	17600.83
699.27	17341.03
699.40	17303.58
699.54	17322.30
699.67	17296.56
699.80	17282.52
699.94	17099.95
700.07	17074.21
700.20	16772.28
700.34	16798.02
700.47	16657.59
700.60	16936.12
700.73	16872.92
700.87	16634.19
701.00	16159.06
701.13	16187.14
701.26	16027.99
701.40	16196.51
701.53	16100.55
701.66	15953.09
701.79	16098.20
701.93	15468.60
702.06	15321.15
702.19	15599.67
702.32	15667.55
702.46	15690.95
702.59	15723.72
702.72	15695.63
702.85	15494.35
702.99	15719.04
703.12	15330.51
703.25	15028.58
703.38	14927.94
703.51	14941.98
703.65	14944.32
703.78	14899.85
703.91	14527.71
704.04	14623.67
704.17	14579.20
704.31	14359.19
704.44	14614.30
704.57	14384.93
704.70	14127.47
704.83	14291.31
704.96	14270.25
705.10	13937.89
705.23	13956.61
>>>>>End Processed Spectral Data<<<<<
