SpectraSuite Data File
++++++++++++++++++++++++++++++++++++
Date: Fri Oct 25 10:43:28 EDT 2013
User: price-jones
Dark Spectrum Present: No
Reference Spectrum Present: No
Number of Sampled Component Spectra: 1
Spectrometers: USB2+H05261
Integration Time (usec): 100000 (USB2+H05261)
Spectra Averaged: 1 (USB2+H05261)
Boxcar Smoothing: 0 (USB2+H05261)
Correct for Electrical Dark: No (USB2+H05261)
Strobe/Lamp Enabled: No (USB2+H05261)
Correct for Detector Non-linearity: No (USB2+H05261)
Correct for Stray Light: No (USB2+H05261)
Number of Pixels in Processed Spectrum: 2048
>>>>>Begin Processed Spectral Data<<<<<
365.73	126.39
365.92	126.39
366.12	126.39
366.32	77.24
366.52	32.77
366.72	2.34
366.91	30.43
367.11	0.00
367.31	51.49
367.51	42.13
367.70	77.24
367.90	37.45
368.10	32.77
368.30	88.94
368.49	53.83
368.69	79.58
368.89	58.51
369.09	110.01
369.28	53.83
369.48	16.38
369.68	88.94
369.87	65.54
370.07	117.03
370.27	163.84
370.47	166.18
370.66	346.40
370.86	435.34
371.06	479.81
371.25	550.03
371.45	477.47
371.65	465.77
371.84	451.72
372.04	423.64
372.24	507.90
372.44	521.94
372.63	528.96
372.83	465.77
373.03	454.06
373.22	367.46
373.42	498.53
373.62	479.81
373.81	578.11
374.01	578.11
374.21	538.32
374.40	552.37
374.60	531.30
374.79	496.19
374.99	524.28
375.19	608.54
375.38	634.29
375.58	550.03
375.78	627.26
375.97	564.07
376.17	571.09
376.37	641.31
376.56	610.88
376.76	615.56
376.95	599.18
377.15	594.50
377.35	533.64
377.54	608.54
377.74	568.75
377.93	631.94
378.13	617.90
378.33	641.31
378.52	594.50
378.72	641.31
378.91	711.52
379.11	564.07
379.31	592.16
379.50	592.16
379.70	692.80
379.89	755.99
380.09	683.44
380.28	631.94
380.48	613.22
380.68	753.65
380.87	631.94
381.07	653.01
381.26	753.65
381.46	636.63
381.65	713.86
381.85	702.16
382.04	669.39
382.24	760.67
382.43	781.74
382.63	664.71
382.83	674.07
383.02	692.80
383.22	826.21
383.41	770.04
383.61	732.59
383.80	751.31
384.00	781.74
384.19	732.59
384.39	805.14
384.58	877.70
384.78	791.10
384.97	819.19
385.17	816.85
385.36	823.87
385.56	816.85
385.75	812.17
385.95	793.44
386.14	770.04
386.34	805.14
386.53	863.66
386.72	835.57
386.92	837.91
387.11	826.21
387.31	891.74
387.50	889.40
387.70	800.46
387.89	805.14
388.09	772.38
388.28	898.77
388.48	880.04
388.67	936.21
388.86	929.19
389.06	882.38
389.25	987.71
389.45	959.62
389.64	1027.50
389.84	1046.22
390.03	950.26
390.22	898.77
390.42	1020.47
390.61	999.41
390.81	1036.86
391.00	1083.67
391.19	1083.67
391.39	999.41
391.58	1076.65
391.78	997.07
391.97	1043.88
392.16	980.68
392.36	1046.22
392.55	947.92
392.75	976.00
392.94	959.62
393.13	933.87
393.33	1013.45
393.52	1067.28
393.71	1097.71
393.91	1177.29
394.10	1043.88
394.29	1181.97
394.49	1090.69
394.68	1188.99
394.88	1240.48
395.07	1219.42
395.26	1196.01
395.46	1219.42
395.65	1203.04
395.84	1233.46
396.04	1287.29
396.23	1268.57
396.42	1146.86
396.62	1174.95
396.81	1060.26
397.00	1210.06
397.19	1280.27
397.39	1284.95
397.58	1399.64
397.77	1350.49
397.97	1458.15
398.16	1373.89
398.35	1476.88
398.55	1434.75
398.74	1451.13
398.93	1476.88
399.12	1404.32
399.32	1455.81
399.51	1511.99
399.70	1511.99
399.90	1593.90
400.09	1673.48
400.28	1511.99
400.47	1523.69
400.67	1767.10
400.86	1533.05
401.05	1640.72
401.24	1678.16
401.44	1778.81
401.63	1696.89
401.82	1636.03
402.01	1612.63
402.21	1776.47
402.40	1724.97
402.59	1685.19
402.78	1713.27
402.97	1729.66
403.17	1792.85
403.36	1746.04
403.55	1776.47
403.74	1820.94
403.93	1809.23
404.13	1921.58
404.32	1844.34
404.51	1886.47
404.70	1849.02
404.89	1865.41
405.09	1977.75
405.28	1886.47
405.47	1961.37
405.66	1853.70
405.85	1940.30
406.05	1933.28
406.24	2015.20
406.43	1935.62
406.62	1966.05
406.81	2064.35
407.00	1944.99
407.20	1989.46
407.39	2069.03
407.58	2087.76
407.77	2193.08
407.96	2200.10
408.15	2150.95
408.34	2260.96
408.54	2249.25
408.73	2251.60
408.92	2321.81
409.11	2258.62
409.30	2253.94
409.49	2253.94
409.68	2118.18
409.87	2260.96
410.07	2326.49
410.26	2251.60
410.45	2340.54
410.64	2310.11
410.83	2380.32
411.02	2509.05
411.21	2555.86
411.40	2473.95
411.59	2675.23
411.78	2630.76
411.98	2569.91
412.17	2715.02
412.36	2621.40
412.55	2628.42
412.74	2661.19
412.93	2736.09
413.12	2656.51
413.31	2864.82
413.50	2752.47
413.69	2764.17
413.88	2965.46
414.07	2883.54
414.26	2822.69
414.45	2949.08
414.64	2998.23
414.83	3047.38
415.02	2939.71
415.22	2972.48
415.41	3002.91
415.60	3190.15
415.79	3166.74
415.98	3248.66
416.17	3225.26
416.36	3143.34
416.55	3157.38
416.74	3286.11
416.93	3279.09
417.12	3286.11
417.31	3321.22
417.50	3302.50
417.69	3522.51
417.88	3330.58
418.07	3309.52
418.26	3279.09
418.45	3321.22
418.64	3625.49
418.83	3686.34
419.02	3478.04
419.21	3552.93
419.39	3503.78
419.58	3445.27
419.77	3552.93
419.96	3564.64
420.15	3768.26
420.34	3794.01
420.53	3808.05
420.72	3775.28
420.91	3812.73
421.10	3705.07
421.29	3728.47
421.48	3763.58
421.67	3791.67
421.86	3709.75
422.05	3667.62
422.24	3726.13
422.43	3794.01
422.61	3768.26
422.80	3889.97
422.99	3871.25
423.18	3838.48
423.37	3960.19
423.56	3957.85
423.75	3913.38
423.94	3908.69
424.13	3684.00
424.32	3712.09
424.50	3913.38
424.69	3948.48
424.88	3995.29
425.07	3850.18
425.26	3978.91
425.45	3721.45
425.64	3836.14
425.83	3901.67
426.01	3992.95
426.20	3906.35
426.39	3997.64
426.58	3887.63
426.77	3864.22
426.96	3978.91
427.15	4109.98
427.33	4044.45
427.52	3999.98
427.71	4107.64
427.90	4018.70
428.09	4117.00
428.28	4119.34
428.46	4098.28
428.65	4098.28
428.84	4049.13
429.03	4252.75
429.22	4128.70
429.40	4058.49
429.59	4081.89
429.78	3822.09
429.97	3822.09
430.16	4030.40
430.34	4145.09
430.53	4086.58
430.72	4086.58
430.91	4154.45
431.10	4198.92
431.28	4535.96
431.47	4517.23
431.66	4566.39
431.85	4437.66
432.03	4550.00
432.22	4519.57
432.41	4512.55
432.60	4631.92
432.79	4573.41
432.97	4545.32
433.16	4674.05
433.35	4730.22
433.54	4561.70
433.72	4662.35
433.91	4599.15
434.10	4772.35
434.28	4723.20
434.47	4819.16
434.66	4802.78
434.85	4826.18
435.03	4903.42
435.22	4875.34
435.41	5156.20
435.59	4924.49
435.78	5039.17
435.97	5268.55
436.16	5064.92
436.34	5093.01
436.53	5114.07
436.72	5245.14
436.90	5090.67
437.09	5015.77
437.28	5184.29
437.46	4950.23
437.65	5015.77
437.84	5118.75
438.02	5149.18
438.21	5050.88
438.40	5022.79
438.58	5118.75
438.77	5327.06
438.96	5343.44
439.14	5420.68
439.33	5427.70
439.52	5598.56
439.70	5518.98
439.89	5591.54
440.08	5708.57
440.26	5586.86
440.45	5657.07
440.63	5701.54
440.82	6024.54
441.01	5935.60
441.19	5970.71
441.38	6022.20
441.57	5991.77
441.75	6052.63
441.94	6153.27
442.12	6015.18
442.31	6216.46
442.50	6111.14
442.68	6127.52
442.87	6368.60
443.05	6307.74
443.24	6258.59
443.43	6359.24
443.61	6326.47
443.80	6616.69
443.98	6260.93
444.17	6169.65
444.35	6565.20
444.54	6546.48
444.73	6583.93
444.91	6469.24
445.10	6265.61
445.28	6452.86
445.47	6216.46
445.65	6328.81
445.84	6562.86
446.02	6527.75
446.21	6558.18
446.39	6640.10
446.58	6703.29
446.77	6443.49
446.95	6551.16
447.14	6565.20
447.32	6637.76
447.51	6525.41
447.69	6506.69
447.88	6595.63
448.06	6546.48
448.25	6724.36
448.43	6799.26
448.62	6775.85
448.80	6682.23
448.99	6754.79
449.17	6649.46
449.36	6682.23
449.54	6895.22
449.73	6897.56
449.91	7009.90
450.10	7035.65
450.28	7068.42
450.46	7159.70
450.65	7063.74
450.83	7222.89
451.02	7236.94
451.20	7138.63
451.39	7143.32
451.57	7077.78
451.76	7094.16
451.94	7089.48
452.13	7105.87
452.31	7159.70
452.49	7101.19
452.68	7073.10
452.86	6892.88
453.05	7176.08
453.23	7253.32
453.42	7208.85
453.60	7246.30
453.78	7335.24
453.97	7183.10
454.15	7279.07
454.34	7152.68
454.52	7503.76
454.70	7482.69
454.89	7442.90
455.07	7389.07
455.26	7644.19
455.44	7552.91
455.62	7602.06
455.81	7674.62
455.99	7868.88
456.17	7611.42
456.36	7637.17
456.54	7754.19
456.73	7719.09
456.91	7976.55
457.09	8147.40
457.28	8205.92
457.46	7836.11
457.64	8138.04
457.83	7955.48
458.01	7896.97
458.19	8187.19
458.38	8191.88
458.56	8109.96
458.74	8238.69
458.93	8173.15
459.11	8063.15
459.29	8161.45
459.48	8234.00
459.66	8243.37
459.84	8259.75
460.03	8430.61
460.21	8540.61
460.39	8351.03
460.57	8255.07
460.76	8351.03
460.94	8493.80
461.12	8493.80
461.31	8507.85
461.49	8573.38
461.67	8365.07
461.85	8753.60
462.04	8755.94
462.22	9104.68
462.40	8898.72
462.59	8580.40
462.77	8779.35
462.95	8901.06
463.13	8748.92
463.32	8671.68
463.50	8779.35
463.68	8905.74
463.86	9050.85
464.05	8781.69
464.23	8842.54
464.41	9043.83
464.59	8854.25
464.78	9036.81
464.96	9043.83
465.14	8809.78
465.32	9025.11
465.50	9137.45
465.69	9228.73
465.87	8992.34
466.05	9151.49
466.23	9088.30
466.41	9149.15
466.60	9329.38
466.78	9018.08
466.96	9125.75
467.14	9308.31
467.32	9453.42
467.51	9275.54
467.69	9125.75
467.87	9329.38
468.05	9378.53
468.23	9217.03
468.41	9315.33
468.60	9275.54
468.78	9500.23
468.96	9432.36
469.14	9509.60
469.32	9575.13
469.50	9621.94
469.69	9474.49
469.87	9750.67
470.05	9933.23
470.23	9612.58
470.41	9767.06
470.59	9673.43
470.77	9710.88
470.95	9743.65
471.14	9928.55
471.32	9858.34
471.50	10043.24
471.68	10080.69
471.86	10326.44
472.04	10441.13
472.22	10464.54
472.40	9942.60
472.58	10413.04
472.77	10338.15
472.95	10527.73
473.13	10876.47
473.31	10326.44
473.49	10410.70
473.67	10534.75
473.85	10555.82
474.03	10757.10
474.21	10747.74
474.39	10932.64
474.57	10803.91
474.75	10876.47
474.93	11206.48
475.12	10902.22
475.30	11201.80
475.48	11054.35
475.66	11089.46
475.84	11052.01
476.02	11400.75
476.20	11192.44
476.38	11417.13
476.56	11817.36
476.74	11698.00
476.92	11700.34
477.10	11700.34
477.28	11843.11
477.46	11726.08
477.64	12081.85
477.82	11943.75
478.00	12404.84
478.18	12339.30
478.36	12430.59
478.54	12390.80
478.72	12461.01
478.90	12650.60
479.08	12744.22
479.26	13092.96
479.44	12889.33
479.62	13046.15
479.80	13095.30
479.98	13181.90
480.16	13617.24
480.34	13455.74
480.52	13422.97
480.70	13479.15
480.88	13474.46
481.06	13818.52
481.24	13631.28
481.41	14078.32
481.59	13912.14
481.77	13898.10
481.95	14235.14
482.13	14356.85
482.31	14244.50
482.49	15028.58
482.67	14551.11
482.85	14836.66
483.03	15030.92
483.21	15281.36
483.39	15295.40
483.57	15070.71
483.74	15087.09
483.92	15456.90
484.10	15227.53
484.28	15592.65
484.46	16020.97
484.64	16212.89
484.82	15854.79
485.00	15784.57
485.18	16114.59
485.35	16119.27
485.53	15873.51
485.71	16088.84
485.89	16599.08
486.07	16051.39
486.25	16442.26
486.43	16629.51
486.61	16877.60
486.78	16968.88
486.96	17055.48
487.14	17390.18
487.32	17434.65
487.50	17722.54
487.68	17797.43
487.85	18207.03
488.03	18214.05
488.21	18258.52
488.39	18342.78
488.57	18347.46
488.75	18410.65
488.92	18974.72
489.10	19213.46
489.28	18789.82
489.46	19400.70
489.64	19421.77
489.81	19845.40
489.99	19936.68
490.17	19707.31
490.35	20161.37
490.53	19946.05
490.70	19988.18
490.88	20374.36
491.06	20587.35
491.24	20568.63
491.41	20592.03
491.59	20491.39
491.77	20709.06
491.95	20915.03
492.13	20872.90
492.30	21308.24
492.48	21074.18
492.66	21544.63
492.84	21617.19
493.01	21689.74
493.19	21919.12
493.37	22190.62
493.54	21926.14
493.72	22239.77
493.90	22097.00
494.08	22876.40
494.25	23058.96
494.43	23049.60
494.61	23037.89
494.79	23461.53
494.96	23335.14
495.14	23414.72
495.32	23555.15
495.49	23405.36
495.67	23428.76
495.85	23906.23
496.02	24151.99
496.20	24084.11
496.38	24135.60
496.55	24388.38
496.73	24826.06
496.91	24163.69
497.09	24460.94
497.26	24664.57
497.44	24875.21
497.62	24781.59
497.79	24954.79
497.97	24936.07
498.14	25179.48
498.32	25476.73
498.50	25130.33
498.67	25663.97
498.85	25738.87
499.03	25891.01
499.20	25874.62
499.38	25668.66
499.56	26033.78
499.73	25968.24
499.91	26366.13
500.08	26118.04
500.26	26082.93
500.44	26277.19
500.61	26576.78
500.79	26305.28
500.97	26403.58
501.14	26639.98
501.32	26679.77
501.49	26852.97
501.67	26892.76
501.84	27063.61
502.02	27250.86
502.20	27475.55
502.37	27260.22
502.55	27435.76
502.72	27878.12
502.90	27793.86
503.07	27737.69
503.25	27803.22
503.43	27342.14
503.60	28112.17
503.78	27913.23
503.95	28100.47
504.13	28166.01
504.30	27983.44
504.48	28652.84
504.65	28701.99
504.83	28390.70
505.01	28889.23
505.18	28840.08
505.36	28898.59
505.53	29041.37
505.71	29579.69
505.88	29399.47
506.06	28982.85
506.23	29282.44
506.41	29256.70
506.58	29745.87
506.76	29385.43
506.93	29476.71
507.11	29666.29
507.28	29858.21
507.46	29656.93
507.63	29947.15
507.81	29928.43
507.98	29661.61
508.16	30394.20
508.33	30342.70
508.50	30349.73
508.68	30476.12
508.85	30408.24
509.03	30845.92
509.20	30782.73
509.38	30773.36
509.55	30726.55
509.73	31058.91
509.90	30984.01
510.08	31051.89
510.25	30801.45
510.42	31122.10
510.60	31218.07
510.77	31456.80
510.95	31538.72
511.12	31508.29
511.30	31723.62
511.47	32013.85
511.64	31711.92
511.82	32016.19
511.99	31988.10
512.17	31578.51
512.34	32074.70
512.51	32437.48
512.69	32315.78
512.86	32521.74
513.04	32641.11
513.21	32865.80
513.38	32739.41
513.56	32451.53
513.73	32016.19
513.90	32521.74
514.08	32566.21
514.25	32936.02
514.43	32673.88
514.60	32535.79
514.77	32851.76
514.95	33394.76
515.12	32996.87
515.29	33010.92
515.47	33617.11
515.64	33837.12
515.81	33425.19
515.99	33560.94
516.16	33259.01
516.33	33275.40
516.51	33436.89
516.68	32931.34
516.85	32772.18
517.03	33139.65
517.20	33771.59
517.37	33965.85
517.54	34314.59
517.72	33823.08
517.89	33635.84
518.06	33701.37
518.24	33720.10
518.41	34033.73
518.58	34211.61
518.75	34349.70
518.93	34574.39
519.10	34675.04
519.27	34693.76
519.45	34754.61
519.62	34714.83
519.79	34913.77
519.96	35047.18
520.14	35051.86
520.31	34852.92
520.48	34995.69
520.65	35101.01
520.83	35377.20
521.00	35496.56
521.17	35864.03
521.34	35377.20
521.52	35456.78
521.69	35620.61
521.86	36102.76
522.03	36074.68
522.20	35585.50
522.38	35955.31
522.55	36023.19
522.72	35721.26
522.89	36172.98
523.07	36201.07
523.24	36102.76
523.41	36666.83
523.58	36505.34
523.75	37195.79
523.92	36608.32
524.10	36676.19
524.27	36828.33
524.44	36978.12
524.61	36692.58
524.78	36994.51
524.96	37137.28
525.13	37214.52
525.30	37221.54
525.47	37219.20
525.64	37041.32
525.81	37102.17
525.98	37170.05
526.16	36905.57
526.33	36706.62
526.50	37511.77
526.67	36800.24
526.84	37303.46
527.01	36837.69
527.18	37001.53
527.36	37614.75
527.53	37640.50
527.70	38265.42
527.87	38040.73
528.04	37603.05
528.21	38129.67
528.38	38057.11
528.55	38183.50
528.72	38637.56
528.89	37982.21
529.07	38478.41
529.24	38426.92
529.41	38274.78
529.58	38307.55
529.75	38380.10
529.92	38590.75
530.09	38850.55
530.26	38965.24
530.43	38625.86
530.60	38476.07
530.77	38387.13
530.94	39047.16
531.11	39143.12
531.28	39264.83
531.46	38859.91
531.63	38998.01
531.80	39040.14
531.97	39079.92
532.14	38705.44
532.31	39218.02
532.48	38611.82
532.65	39002.69
532.82	39145.46
532.99	39391.22
533.16	39714.21
533.33	39653.36
533.50	39592.50
533.67	39255.46
533.84	39264.83
534.01	39400.58
534.18	39335.04
534.35	39983.37
534.52	39489.52
534.69	39807.83
534.86	39985.71
535.03	40055.93
535.20	40266.58
535.37	40414.03
535.54	40643.40
535.71	40287.64
535.88	39966.99
536.05	40105.08
536.22	40332.11
536.38	40582.55
536.55	40456.16
536.72	40268.92
536.89	40069.97
537.06	40238.49
537.23	40903.20
537.40	40233.81
537.57	40346.15
537.74	40247.85
537.91	40460.84
538.08	40608.29
538.25	40498.29
538.42	40722.98
538.59	40730.00
538.75	40404.67
538.92	40416.37
539.09	40737.02
539.26	40498.29
539.43	40816.60
539.60	40711.28
539.77	41031.93
539.94	40683.19
540.11	40809.58
540.28	41022.57
540.44	41694.30
540.61	41455.57
540.78	40926.61
540.95	41530.47
541.12	41017.89
541.29	41280.03
541.46	41090.44
541.62	41675.58
541.79	41928.36
541.96	40266.58
542.13	41462.59
542.30	41336.20
542.47	41373.65
542.63	41469.61
542.80	41687.28
542.97	42019.64
543.14	42337.95
543.31	42171.77
543.48	42394.12
543.64	41928.36
543.81	42649.24
543.98	41790.27
544.15	42452.64
544.32	42490.09
544.48	42560.30
544.65	42298.16
544.82	42693.71
544.99	42064.11
545.16	42354.33
545.32	41977.51
545.49	42665.63
545.66	42913.72
545.83	42782.65
546.00	43051.81
546.16	42845.85
546.33	42794.36
546.50	42497.11
546.67	42902.02
546.83	42288.80
547.00	42808.40
547.17	42560.30
547.34	42548.60
547.50	42911.38
547.67	43283.53
547.84	43072.88
548.00	43372.47
548.17	43475.45
548.34	43236.72
548.51	43475.45
548.67	43395.87
548.84	43356.08
549.01	43377.15
549.18	43161.82
549.34	43461.41
549.51	43042.45
549.68	43550.35
549.84	43311.61
550.01	43833.55
550.18	43344.38
550.34	43386.51
550.51	43358.42
550.68	43260.12
550.84	42890.32
551.01	43208.63
551.18	43271.82
551.34	43707.16
551.51	43875.68
551.68	43973.98
551.84	43819.51
552.01	43562.05
552.18	43782.06
552.34	43442.68
552.51	43962.28
552.68	43882.70
552.84	43807.81
553.01	44329.75
553.18	43772.70
553.34	43903.77
553.51	43819.51
553.67	43938.88
553.84	44484.22
554.01	44215.06
554.17	43936.54
554.34	44362.51
554.51	44481.88
554.67	44119.10
554.84	44191.65
555.00	44268.89
555.17	44189.31
555.33	44622.31
555.50	44509.97
555.67	44659.76
555.83	44182.29
556.00	44189.31
556.16	44882.11
556.33	44484.22
556.50	44442.09
556.66	44360.17
556.83	44245.49
556.99	44367.20
557.16	44917.22
557.32	44505.29
557.49	44673.81
557.65	44121.44
557.82	44287.62
557.98	45123.19
558.15	44786.15
558.32	44957.01
558.48	44250.17
558.65	44266.55
558.81	44332.09
558.98	44418.69
559.14	44828.28
559.31	44502.95
559.47	44556.78
559.64	44851.69
559.80	44849.35
559.97	44940.63
560.13	44753.38
560.30	44664.44
560.46	44931.26
560.63	44926.58
560.79	44657.42
560.96	44964.03
561.12	44802.53
561.29	44879.77
561.45	44882.11
561.61	44802.53
561.78	44739.34
561.94	44802.53
562.11	44601.25
562.27	44755.72
562.44	45057.65
562.60	45113.83
562.77	45120.85
562.93	44982.76
563.10	45294.05
563.26	44729.98
563.42	45301.07
563.59	45078.72
563.75	44650.40
563.92	45329.16
564.08	45326.81
564.24	45385.33
564.41	45230.85
564.57	44896.16
564.74	45525.76
564.90	45425.12
565.07	44931.26
565.23	45298.73
565.39	45069.36
565.56	45223.83
565.72	45291.71
565.88	45151.27
566.05	44802.53
566.21	45022.54
566.38	45148.93
566.54	44844.66
566.70	45743.43
566.87	45390.01
567.03	45155.96
567.19	45888.54
567.36	45504.70
567.52	45294.05
567.68	45268.30
567.85	45413.41
568.01	45535.12
568.17	45497.67
568.34	45612.36
568.50	45160.64
568.66	45244.90
568.83	45404.05
568.99	45184.04
569.15	45401.71
569.32	45244.90
569.48	45600.66
569.64	45418.10
569.81	45439.16
569.97	45773.86
570.13	45525.76
570.30	45207.45
570.46	44989.78
570.62	44964.03
570.78	45125.53
570.95	44905.52
571.11	45364.26
571.27	45282.34
571.43	45125.53
571.60	45331.50
571.76	45368.94
571.92	45464.91
572.09	45851.09
572.25	45584.27
572.41	45841.73
572.57	45633.42
572.74	46150.68
572.90	45511.72
573.06	45722.37
573.22	45701.30
573.38	45481.29
573.55	45076.38
573.71	45738.75
573.87	45661.51
574.03	45397.03
574.20	45523.42
574.36	45020.20
574.52	45099.78
574.68	45476.61
574.84	45605.34
575.01	45584.27
575.17	45457.88
575.33	45469.59
575.49	44947.65
575.65	45382.99
575.82	45701.30
575.98	45453.20
576.14	45867.48
576.30	45530.44
576.46	45736.41
576.62	45724.71
576.79	45251.92
576.95	45628.74
577.11	45624.06
577.27	45595.98
577.43	45698.96
577.59	45373.63
577.75	45181.70
577.92	45064.67
578.08	45162.98
578.24	45272.98
578.40	45530.44
578.56	45595.98
578.72	45329.16
578.88	45820.67
579.04	46188.13
579.21	45249.58
579.37	45394.69
579.53	45818.33
579.69	45759.81
579.85	45537.46
580.01	45848.75
580.17	45605.34
580.33	45614.70
580.49	45542.14
580.65	45272.98
580.82	45750.45
580.98	45647.47
581.14	45666.19
581.30	45937.69
581.46	45509.38
581.62	45701.30
581.78	45626.40
581.94	45851.09
582.10	45329.16
582.26	45731.73
582.42	45563.21
582.58	45497.67
582.74	45682.58
582.90	46108.55
583.06	45797.26
583.22	46443.25
583.38	45944.72
583.54	45839.39
583.70	45705.98
583.86	45846.41
584.02	45598.32
584.18	45621.72
584.34	46085.15
584.50	46059.40
584.66	45652.15
584.82	45710.66
584.98	46019.61
585.14	45422.78
585.30	45682.58
585.46	45675.55
585.62	45352.56
585.78	45528.10
585.94	45429.80
586.10	45855.78
586.26	45605.34
586.42	45769.18
586.58	45904.93
586.74	45691.94
586.90	45736.41
587.06	45556.19
587.22	45783.22
587.38	45893.22
587.54	46183.45
587.70	45703.64
587.86	45631.08
588.02	45949.40
588.18	45675.55
588.34	45511.72
588.49	45223.83
588.65	45125.53
588.81	44847.00
588.97	45249.58
589.13	45137.23
589.29	45287.03
589.45	45471.93
589.61	45588.95
589.77	46181.11
589.93	45518.74
590.08	45675.55
590.24	45696.62
590.40	46171.75
590.56	46005.57
590.72	46134.30
590.88	45691.94
591.04	46005.57
591.20	46490.06
591.35	46103.87
591.51	46405.80
591.67	46024.29
591.83	46017.27
591.99	45581.93
592.15	45748.11
592.31	46064.08
592.46	45628.74
592.62	45815.99
592.78	45916.63
592.94	46232.60
593.10	46064.08
593.26	45944.72
593.41	46480.70
593.57	45708.32
593.73	45752.79
593.89	46092.17
594.05	46078.13
594.20	45502.35
594.36	46309.84
594.52	45949.40
594.68	45909.61
594.84	45717.68
594.99	46616.45
595.15	45544.48
595.31	46351.97
595.47	45778.54
595.62	45876.84
595.78	46007.91
595.94	45951.74
596.10	45968.12
596.25	45844.07
596.41	45743.43
596.57	45556.19
596.73	45855.78
596.88	45675.55
597.04	46204.52
597.20	46253.67
597.36	45696.62
597.51	46253.67
597.67	45844.07
597.83	45752.79
597.99	46185.79
598.14	45830.03
598.30	46071.10
598.46	45815.99
598.61	46204.52
598.77	45940.04
598.93	45441.50
599.09	46295.80
599.24	46232.60
599.40	46108.55
599.56	46218.56
599.71	45610.02
599.87	46176.43
600.03	46028.98
600.18	45776.20
600.34	45720.02
600.50	45846.41
600.65	45591.30
600.81	46061.74
600.97	46272.39
601.12	46188.13
601.28	45855.78
601.44	45696.62
601.59	45593.64
601.75	45397.03
601.91	45720.02
602.06	45558.53
602.22	46019.61
602.37	46033.66
602.53	45804.28
602.69	45710.66
602.84	45581.93
603.00	45902.59
603.16	45883.86
603.31	45453.20
603.47	46043.02
603.62	45563.21
603.78	46351.97
603.94	46057.06
604.09	45937.69
604.25	45649.81
604.40	45691.94
604.56	45998.55
604.71	46143.66
604.87	45750.45
605.03	45715.34
605.18	45813.65
605.34	45715.34
605.49	45207.45
605.65	45698.96
605.80	45876.84
605.96	45956.42
606.12	45684.92
606.27	45869.82
606.43	45853.44
606.58	45787.90
606.74	45642.79
606.89	45825.35
607.05	45977.48
607.20	45734.07
607.36	46028.98
607.51	46265.37
607.67	45593.64
607.82	45841.73
607.98	45710.66
608.13	45507.04
608.29	45488.31
608.44	45368.94
608.60	44931.26
608.75	45675.55
608.91	45621.72
609.06	45188.72
609.22	45553.85
609.37	45399.37
609.53	45509.38
609.68	45247.24
609.84	45361.92
609.99	45088.08
610.15	45382.99
610.30	45333.84
610.46	44989.78
610.61	44849.35
610.76	45289.37
610.92	45656.83
611.07	45680.24
611.23	45324.47
611.38	45340.86
611.54	45088.08
611.69	44865.73
611.84	45113.83
612.00	44865.73
612.15	44374.22
612.31	44910.20
612.46	45272.98
612.62	45427.46
612.77	44905.52
612.92	45460.23
613.08	44907.86
613.23	44900.84
613.39	44371.88
613.54	44552.10
613.69	45041.27
613.85	44746.36
614.00	44619.97
614.15	44896.16
614.31	44830.62
614.46	44882.11
614.62	44715.93
614.77	44722.96
614.92	44456.14
615.08	44423.37
615.23	44673.81
615.38	44449.11
615.54	44744.02
615.69	44781.47
615.84	44336.77
616.00	44626.99
616.15	44809.56
616.30	44720.62
616.46	44774.45
616.61	44140.16
616.76	44311.02
616.92	44318.04
617.07	44477.20
617.22	44414.01
617.37	44025.48
617.53	44198.68
617.68	44509.97
617.83	44399.96
617.99	44027.82
618.14	44378.90
618.29	44411.67
618.45	43746.95
618.60	43784.40
618.75	43580.78
618.90	43906.11
619.06	43438.00
619.21	43899.09
619.36	43962.28
619.51	43758.66
619.67	43711.84
619.82	43817.17
619.97	43824.19
620.12	43650.99
620.28	43709.50
620.43	43882.70
620.58	43650.99
620.73	43510.56
620.89	43491.83
621.04	43295.23
621.19	43660.35
621.34	43522.26
621.49	43239.06
621.65	43477.79
621.80	43770.36
621.95	43969.30
622.10	43037.77
622.25	43580.78
622.41	43819.51
622.56	43112.67
622.71	43615.88
622.86	43220.33
623.01	43346.72
623.16	43557.37
623.32	43147.78
623.47	43566.73
623.62	43353.74
623.77	43269.48
623.92	43650.99
624.07	42937.13
624.23	42995.64
624.38	43210.97
624.53	43185.22
624.68	43304.59
624.83	43051.81
624.98	42815.42
625.13	42944.15
625.29	42829.46
625.44	42799.04
625.59	42649.24
625.74	43033.09
625.89	42644.56
626.04	42726.48
626.19	42883.30
626.34	42902.02
626.49	42667.97
626.65	42279.44
626.80	42527.53
626.95	42438.59
627.10	42443.27
627.25	42520.51
627.40	42464.34
627.55	42253.69
627.70	42019.64
627.85	42492.43
628.00	42040.70
628.15	42698.39
628.30	42160.07
628.45	42457.32
628.60	42265.39
628.76	42256.03
628.91	42408.17
629.06	42033.68
629.21	42045.38
629.36	41570.25
629.51	42089.85
629.66	42073.47
629.81	41799.63
629.96	42190.50
630.11	41806.65
630.26	42335.61
630.41	42375.40
630.56	41963.46
630.71	41909.63
630.86	41684.94
631.01	41682.60
631.16	41336.20
631.31	41865.16
631.46	41539.83
631.61	41628.77
631.76	41495.36
631.91	41670.90
632.06	42129.64
632.21	42068.79
632.36	41673.24
632.51	41336.20
632.66	41490.68
632.81	41317.48
632.96	41432.16
633.10	41457.91
633.25	41291.73
633.40	41844.10
633.55	41188.75
633.70	41352.58
633.85	41439.18
634.00	41766.86
634.15	41265.99
634.30	40893.84
634.45	41057.68
634.60	40985.12
634.75	40980.44
634.90	41111.51
635.05	41415.78
635.19	40917.25
635.34	41448.55
635.49	40877.46
635.64	40989.80
635.79	40957.03
635.94	41036.61
636.09	40561.48
636.24	40582.55
636.39	40706.60
636.53	40912.56
636.68	41050.66
636.83	40474.88
636.98	40486.59
637.13	40634.04
637.28	41202.79
637.43	41212.15
637.57	40608.29
637.72	40552.12
637.87	40608.29
638.02	40753.41
638.17	41027.25
638.32	40535.74
638.46	40779.15
638.61	40364.88
638.76	40357.86
638.91	40217.43
639.06	40304.02
639.20	40687.87
639.35	40524.04
639.50	40261.90
639.65	40179.98
639.80	40472.54
639.94	40203.38
640.09	40435.10
640.24	40032.52
640.39	40428.07
640.54	39782.09
640.68	39484.84
640.83	40032.52
640.98	40030.18
641.13	39985.71
641.27	40313.39
641.42	40016.14
641.57	39962.31
641.72	40556.80
641.86	40098.06
642.01	40002.10
642.16	39758.68
642.31	39428.66
642.45	40278.28
642.60	39414.62
642.75	39276.53
642.90	39910.82
643.04	39849.96
643.19	39344.41
643.34	39608.89
643.48	39475.48
643.63	39564.42
643.78	39428.66
643.93	39995.07
644.07	39419.30
644.22	39192.27
644.37	39201.63
644.51	39180.57
644.66	39683.78
644.81	39810.17
644.95	39498.88
645.10	39744.64
645.25	39393.56
645.39	39370.15
645.54	39278.87
645.69	39393.56
645.83	39512.92
645.98	39157.16
646.13	38862.26
646.27	39030.77
646.42	38756.93
646.57	38663.31
646.71	38920.77
646.86	38923.11
647.00	39068.22
647.15	38494.79
647.30	39269.51
647.44	38429.26
647.59	38560.33
647.74	38597.77
647.88	38644.59
648.03	38726.50
648.17	38808.42
648.32	38780.34
648.47	38581.39
648.61	38546.28
648.76	38934.81
648.90	38583.73
649.05	38616.50
649.20	38675.01
649.34	38808.42
649.49	38134.35
649.63	38817.78
649.78	38583.73
649.92	38401.17
650.07	38745.23
650.21	38583.73
650.36	38562.67
650.51	38569.69
650.65	38958.22
650.80	38775.66
650.94	38691.40
651.09	38312.23
651.23	38014.98
651.38	37907.32
651.52	38057.11
651.67	38010.30
651.81	37970.51
651.96	37947.11
652.10	38457.34
652.25	37963.49
652.39	38675.01
652.54	38092.22
652.68	37607.73
652.83	38272.44
652.97	38515.86
653.12	37738.80
653.26	37572.62
653.41	37830.08
653.55	37893.27
653.70	37916.68
653.84	37912.00
653.99	37481.34
654.13	37638.15
654.27	37642.84
654.42	37806.67
654.56	37907.32
654.71	37516.45
654.85	37591.34
655.00	37586.66
655.14	37392.40
655.29	37469.64
655.43	37181.75
655.57	36833.01
655.72	37249.63
655.86	36748.75
656.01	36603.64
656.15	36811.95
656.30	36605.98
656.44	36643.43
656.58	37280.05
656.73	37060.04
656.87	37186.43
657.01	36947.70
657.16	37113.87
657.30	36856.42
657.45	36517.04
657.59	36772.16
657.73	36781.52
657.88	36549.81
658.02	37315.16
658.16	37163.03
658.31	36999.19
658.45	37275.37
658.60	36741.73
658.74	37076.43
658.88	36804.92
659.03	36615.34
659.17	36411.71
659.31	36392.99
659.46	36226.81
659.60	36582.57
659.74	36060.63
659.89	36388.31
660.03	35941.27
660.17	36835.35
660.32	36313.41
660.46	36577.89
660.60	36435.12
660.74	36151.91
660.89	36165.96
661.03	35852.33
661.17	36215.11
661.32	35838.28
661.46	35859.35
661.60	35653.38
661.74	35725.94
661.89	35931.90
662.03	35857.01
662.17	35438.05
662.31	35702.53
662.46	36144.89
662.60	35744.66
662.74	36074.68
662.88	35501.25
663.03	35452.09
663.17	35140.80
663.31	35037.82
663.45	35370.18
663.60	35344.43
663.74	35091.65
663.88	35482.52
664.02	34815.47
664.17	35204.00
664.31	34883.34
664.45	34944.20
664.59	34944.20
664.73	34733.55
664.88	34806.11
665.02	34073.52
665.16	34728.87
665.30	34560.35
665.44	34125.01
665.59	34089.90
665.73	34457.37
665.87	34548.65
666.01	33972.88
666.15	34405.88
666.29	34052.45
666.44	34323.96
666.58	34160.12
666.72	34380.13
666.86	33986.92
667.00	34190.55
667.14	33799.68
667.28	33909.68
667.43	33652.22
667.57	33841.81
667.71	33802.02
667.85	33919.04
667.99	34122.67
668.13	33848.83
668.27	33792.65
668.41	33748.18
668.56	33759.89
668.70	33518.81
668.84	33151.35
668.98	33301.14
669.12	33366.68
669.26	33256.67
669.40	33179.43
669.54	32987.51
669.68	32652.81
669.82	32496.00
669.96	32458.55
670.10	32596.64
670.25	32718.35
670.39	32641.11
670.53	32278.33
670.67	32549.83
670.81	32739.41
670.95	32404.72
671.09	32552.17
671.23	32327.48
671.37	32175.34
671.51	32334.50
671.65	32210.45
671.79	31920.23
671.93	31737.66
672.07	31948.31
672.21	31580.85
672.35	31777.45
672.49	31648.72
672.63	31864.05
672.77	31606.59
672.91	31676.81
673.05	31857.03
673.19	31398.29
673.33	31147.85
673.47	31213.38
673.61	31367.86
673.75	31159.55
673.89	31433.39
674.03	31215.72
674.17	30895.07
674.31	30920.82
674.45	31208.70
674.59	31182.96
674.73	30955.93
674.87	30749.96
675.01	30689.10
675.15	30609.53
675.29	30511.22
675.43	30738.26
675.56	30588.46
675.70	30195.25
675.84	30445.69
675.98	29261.38
676.12	30319.30
676.26	29979.92
676.40	30110.99
676.54	29783.32
676.68	30092.27
676.82	29507.13
676.96	29575.01
677.10	29357.34
677.23	29598.41
677.37	29397.13
677.51	29242.65
677.65	28926.68
677.79	28671.56
677.93	29006.26
678.07	28484.32
678.21	28254.95
678.34	28369.63
678.48	28233.88
678.62	28858.81
678.76	28299.42
678.90	27964.72
679.04	28343.89
679.18	28037.28
679.31	28037.28
679.45	27672.15
679.59	27709.60
679.73	27653.43
679.87	27843.01
680.00	27669.81
680.14	27529.38
680.28	27702.58
680.42	27185.32
680.56	27248.52
680.70	27021.48
680.83	27035.53
680.97	26852.97
681.11	27250.86
681.25	27349.16
681.39	26895.10
681.52	26944.25
681.66	26724.24
681.80	26607.21
681.94	26300.60
682.07	26270.17
682.21	26246.77
682.35	25879.30
682.49	25841.85
682.62	26038.46
682.76	25689.72
682.90	26197.62
683.04	25614.82
683.17	25568.01
683.31	25668.66
683.45	25535.24
683.59	25638.23
683.72	25238.00
683.86	25240.34
684.00	25270.76
684.13	24954.79
684.27	24769.89
684.41	25053.09
684.55	24449.24
684.68	24964.15
684.82	24568.60
684.96	24765.21
685.09	24643.50
685.23	24180.07
685.37	24648.18
685.50	24311.14
685.64	24292.42
685.78	24364.98
685.91	24407.11
686.05	23978.79
686.19	23775.16
686.32	23728.35
686.46	23477.91
686.60	23281.31
686.73	23192.37
686.87	23208.75
687.01	22712.56
687.14	22721.92
687.28	23051.94
687.42	22525.32
687.55	22789.80
687.69	22925.55
687.82	22661.07
687.96	22864.69
688.10	22394.25
688.23	22431.69
688.37	22497.23
688.50	22466.80
688.64	22384.88
688.78	22408.29
688.91	21610.17
689.05	22080.61
689.18	21839.54
689.32	21235.68
689.46	21979.97
689.59	22061.89
689.73	22010.40
689.86	21727.19
690.00	21563.36
690.13	21642.93
690.27	21338.66
690.41	21095.25
690.54	20814.38
690.68	21163.12
690.81	21254.40
690.95	20924.39
691.08	20774.60
691.22	20823.75
691.35	20863.54
691.49	20994.61
691.62	20479.69
691.76	20755.87
691.89	20662.25
692.03	20215.21
692.16	20390.75
692.30	20236.27
692.43	20210.53
692.57	20156.69
692.70	19789.23
692.84	19637.09
692.97	19459.21
693.11	19646.46
693.24	19527.09
693.38	19447.51
693.51	19669.86
693.65	18953.66
693.78	19550.49
693.92	19381.98
694.05	19080.05
694.19	19080.05
694.32	19133.88
694.45	18930.25
694.59	19112.81
694.72	18860.04
694.86	18782.80
694.99	18808.54
695.13	18778.12
695.26	18492.57
695.39	18539.38
695.53	18539.38
695.66	18375.55
695.80	18174.26
695.93	18244.48
696.07	18153.20
696.20	17963.61
696.33	18050.21
696.47	17877.01
696.60	17881.69
696.73	17661.68
696.87	17619.55
697.00	17591.47
697.14	17607.85
697.27	17114.00
697.40	17369.12
697.54	17357.41
697.67	17090.59
697.80	16971.22
697.94	17179.53
698.07	16926.75
698.21	17022.72
698.34	16903.35
698.47	16868.24
698.61	16688.02
698.74	16830.79
698.87	16655.25
699.01	16262.04
699.14	16137.99
699.27	16407.16
699.40	16372.05
699.54	16327.58
699.67	15936.71
699.80	15978.84
699.94	16013.95
700.07	15962.45
700.20	15765.85
700.34	15719.04
700.47	16025.65
700.60	15620.74
700.73	15955.43
700.87	15466.26
701.00	15272.00
701.13	15466.26
701.26	15187.74
701.40	15279.02
701.53	15117.52
701.66	15119.86
701.79	15068.37
701.93	14944.32
702.06	14888.15
702.19	14677.50
702.32	14738.35
702.46	14651.75
702.59	14871.76
702.72	14668.14
702.85	14464.51
702.99	14457.49
703.12	14368.55
703.25	14483.24
703.38	14340.46
703.51	14291.31
703.65	14270.25
703.78	13860.65
703.91	13708.52
704.04	14005.77
704.17	13628.94
704.31	13699.16
704.44	13731.92
704.57	13635.96
704.70	13582.13
704.83	13696.82
704.96	13540.00
705.10	13696.82
705.23	13184.24
>>>>>End Processed Spectral Data<<<<<
