SpectraSuite Data File
++++++++++++++++++++++++++++++++++++
Date: Fri Oct 25 11:33:48 EDT 2013
User: price-jones
Dark Spectrum Present: No
Reference Spectrum Present: No
Number of Sampled Component Spectra: 1
Spectrometers: USB2+H05261
Integration Time (usec): 100000 (USB2+H05261)
Spectra Averaged: 1 (USB2+H05261)
Boxcar Smoothing: 0 (USB2+H05261)
Correct for Electrical Dark: No (USB2+H05261)
Strobe/Lamp Enabled: No (USB2+H05261)
Correct for Detector Non-linearity: No (USB2+H05261)
Correct for Stray Light: No (USB2+H05261)
Number of Pixels in Processed Spectrum: 2048
>>>>>Begin Processed Spectral Data<<<<<
365.73	278.52
365.92	278.52
366.12	278.52
366.32	184.90
366.52	187.24
366.72	203.63
366.91	147.45
367.11	119.37
367.31	205.97
367.51	191.92
367.70	168.52
367.90	227.03
368.10	95.96
368.30	170.86
368.49	170.86
368.69	184.90
368.89	119.37
369.09	182.56
369.28	259.80
369.48	177.88
369.68	222.35
369.87	208.31
370.07	203.63
370.27	215.33
370.47	252.78
370.66	528.96
370.86	538.32
371.06	496.19
371.25	571.09
371.45	531.30
371.65	521.94
371.84	589.82
372.04	601.52
372.24	538.32
372.44	601.52
372.63	587.47
372.83	622.58
373.03	608.54
373.22	620.24
373.42	655.35
373.62	624.92
373.81	676.41
374.01	674.07
374.21	627.26
374.40	615.56
374.60	627.26
374.79	641.31
374.99	655.35
375.19	653.01
375.38	657.69
375.58	671.73
375.78	676.41
375.97	699.82
376.17	718.54
376.37	653.01
376.56	718.54
376.76	657.69
376.95	641.31
377.15	674.07
377.35	655.35
377.54	655.35
377.74	734.93
377.93	725.57
378.13	704.50
378.33	704.50
378.52	685.78
378.72	711.52
378.91	732.59
379.11	638.97
379.31	751.31
379.50	697.48
379.70	716.20
379.89	777.06
380.09	753.65
380.28	720.88
380.48	685.78
380.68	767.70
380.87	851.96
381.07	830.89
381.26	770.04
381.46	718.54
381.65	751.31
381.85	716.20
382.04	767.70
382.24	777.06
382.43	819.19
382.63	746.63
382.83	781.74
383.02	702.16
383.22	809.83
383.41	781.74
383.61	751.31
383.80	929.19
384.00	858.98
384.19	805.14
384.39	777.06
384.58	765.36
384.78	858.98
384.97	786.42
385.17	851.96
385.36	830.89
385.56	812.17
385.75	870.68
385.95	851.96
386.14	940.90
386.34	889.40
386.53	922.17
386.72	863.66
386.92	917.49
387.11	819.19
387.31	896.43
387.50	851.96
387.70	912.81
387.89	919.83
388.09	903.45
388.28	968.98
388.48	929.19
388.67	952.60
388.86	912.81
389.06	884.72
389.25	926.85
389.45	978.34
389.64	912.81
389.84	1032.18
390.03	922.17
390.22	954.94
390.42	1006.43
390.61	901.11
390.81	964.30
391.00	1015.79
391.19	978.34
391.39	1020.47
391.58	1032.18
391.78	1069.62
391.97	1055.58
392.16	1069.62
392.36	1078.99
392.55	1137.50
392.75	1036.86
392.94	985.37
393.13	1039.20
393.33	1041.54
393.52	1118.78
393.71	1151.54
393.91	1069.62
394.10	1060.26
394.29	1104.73
394.49	1118.78
394.68	1191.33
394.88	1137.50
395.07	1102.39
395.26	1158.57
395.46	1160.91
395.65	1294.32
395.84	1142.18
396.04	1146.86
396.23	1196.01
396.42	1158.57
396.62	1273.25
396.81	1198.35
397.00	1165.59
397.19	1212.40
397.39	1203.04
397.58	1233.46
397.77	1268.57
397.97	1249.85
398.16	1263.89
398.35	1263.89
398.55	1270.91
398.74	1224.10
398.93	1380.92
399.12	1291.98
399.32	1343.47
399.51	1465.18
399.70	1434.75
399.90	1390.28
400.09	1357.51
400.28	1413.68
400.47	1343.47
400.67	1455.81
400.86	1385.60
401.05	1404.32
401.24	1483.90
401.44	1453.47
401.63	1411.34
401.82	1490.92
402.01	1502.62
402.21	1530.71
402.40	1453.47
402.59	1554.12
402.78	1561.14
402.97	1528.37
403.17	1586.88
403.36	1486.24
403.55	1519.01
403.74	1596.25
403.93	1554.12
404.13	1664.12
404.32	1591.56
404.51	1671.14
404.70	1556.46
404.89	1589.22
405.09	1741.36
405.28	1621.99
405.47	1643.06
405.66	1710.93
405.85	1703.91
406.05	1762.42
406.24	1746.04
406.43	1708.59
406.62	1867.75
406.81	1832.64
407.00	1750.72
407.20	1741.36
407.39	1886.47
407.58	1753.06
407.77	1795.19
407.96	1902.86
408.15	1851.36
408.34	1846.68
408.54	1874.77
408.73	1989.46
408.92	1909.88
409.11	1973.07
409.30	1991.80
409.49	1975.41
409.68	2019.88
409.87	2054.99
410.07	2003.50
410.26	2125.21
410.45	2087.76
410.64	2003.50
410.83	2080.74
411.02	2062.01
411.21	2190.74
411.40	2193.08
411.59	2214.15
411.78	2253.94
411.98	2111.16
412.17	2293.72
412.36	2179.04
412.55	2251.60
412.74	2394.37
412.93	2417.77
413.12	2275.00
413.31	2420.11
413.50	2338.20
413.69	2340.54
413.88	2368.62
414.07	2473.95
414.26	2534.80
414.45	2410.75
414.64	2403.73
414.83	2511.39
415.02	2626.08
415.22	2644.81
415.41	2759.49
415.60	2672.89
415.79	2614.38
415.98	2773.53
416.17	2834.39
416.36	2677.57
416.55	2761.83
416.74	2750.13
416.93	2780.56
417.12	2775.88
417.31	2869.50
417.50	2869.50
417.69	2960.78
417.88	2906.95
418.07	2916.31
418.26	3009.93
418.45	3068.44
418.64	3075.46
418.83	2951.42
419.02	2972.48
419.21	3094.19
419.39	3194.83
419.58	3028.65
419.77	2967.80
419.96	3159.72
420.15	3169.09
420.34	3084.83
420.53	3148.02
420.72	3321.22
420.91	3199.51
421.10	3159.72
421.29	3316.54
421.48	3222.92
421.67	3393.78
421.86	3267.39
422.05	3351.65
422.24	3269.73
422.43	3358.67
422.61	3393.78
422.80	3438.25
422.99	3398.46
423.18	3487.40
423.37	3426.54
423.56	3475.70
423.75	3375.05
423.94	3396.12
424.13	3197.17
424.32	3337.60
424.50	3468.67
424.69	3632.51
424.88	3391.44
425.07	3379.73
425.26	3431.23
425.45	3545.91
425.64	3665.28
425.83	3569.32
426.01	3641.87
426.20	3513.14
426.39	3527.19
426.58	3480.38
426.77	3445.27
426.96	3506.12
427.15	3555.27
427.33	3456.97
427.52	3581.02
427.71	3613.79
427.90	3653.58
428.09	3826.78
428.28	3784.65
428.46	3712.09
428.65	3686.34
428.84	3801.03
429.03	3791.67
429.22	3658.26
429.40	3831.46
429.59	3726.13
429.78	3684.00
429.97	3641.87
430.16	3733.15
430.34	3751.88
430.53	3847.84
430.72	3964.87
430.91	4007.00
431.10	3829.12
431.28	3796.35
431.47	3971.89
431.66	3948.48
431.85	3805.71
432.03	4081.89
432.22	4161.47
432.41	4051.47
432.60	4049.13
432.79	4100.62
432.97	4170.83
433.16	4084.23
433.35	4053.81
433.54	4114.66
433.72	4294.88
433.91	4255.09
434.10	4358.08
434.28	4161.47
434.47	4231.69
434.66	4292.54
434.85	4205.94
435.03	4332.33
435.22	4266.80
435.41	4334.67
435.59	4580.43
435.78	4397.87
435.97	4360.42
436.16	4301.90
436.34	4292.54
436.53	4463.40
436.72	4550.00
436.90	4386.16
437.09	4580.43
437.28	4456.38
437.46	4545.32
437.65	4472.76
437.84	4631.92
438.02	4669.37
438.21	4697.46
438.40	4531.28
438.58	4851.93
438.77	4807.46
438.96	4851.93
439.14	4903.42
439.33	5048.54
439.52	4961.94
439.70	4973.64
439.89	5034.49
440.08	4947.89
440.26	5081.30
440.45	5032.15
440.63	5074.28
440.82	5200.67
441.01	5130.45
441.19	5191.31
441.38	5233.44
441.57	5301.31
441.75	5448.77
441.94	5390.25
442.12	5425.36
442.31	5448.77
442.50	5507.28
442.68	5425.36
442.87	5420.68
443.05	5467.49
443.24	5661.76
443.43	5631.33
443.61	5650.05
443.80	5661.76
443.98	5551.75
444.17	5401.96
444.35	5448.77
444.54	5610.26
444.73	5729.63
444.91	5626.65
445.10	5493.24
445.28	5504.94
445.47	5589.20
445.65	5556.43
445.84	5741.33
446.02	5778.78
446.21	5724.95
446.39	5795.17
446.58	5851.34
446.77	5788.14
446.95	5614.95
447.14	5715.59
447.32	5762.40
447.51	5813.89
447.69	5818.57
447.88	5645.37
448.06	5886.45
448.25	5720.27
448.43	5900.49
448.62	5853.68
448.80	5776.44
448.99	5923.90
449.17	5961.34
449.36	5874.74
449.54	5837.30
449.73	6097.10
449.91	6190.72
450.10	6108.80
450.28	6087.73
450.46	6080.71
450.65	6015.18
450.83	6296.04
451.02	6031.56
451.20	5994.11
451.39	6361.58
451.57	6188.38
451.76	6209.44
451.94	6118.16
452.13	6197.74
452.31	6167.31
452.49	5937.94
452.68	6207.10
452.86	6441.15
453.05	6356.90
453.23	6270.30
453.42	6338.17
453.60	6324.13
453.78	6574.56
453.97	6452.86
454.15	6459.88
454.34	6445.84
454.52	6656.48
454.70	6628.40
454.89	6700.95
455.07	6483.28
455.26	6649.46
455.44	6717.34
455.62	6731.38
455.81	6689.25
455.99	6906.92
456.17	6754.79
456.36	6726.70
456.54	6684.57
456.73	6916.28
456.91	6998.20
457.09	6857.77
457.28	7192.47
457.46	7103.53
457.64	7105.87
457.83	7016.93
458.01	7148.00
458.19	7260.34
458.38	7019.27
458.56	7344.60
458.74	7482.69
458.93	7190.13
459.11	7283.75
459.29	7213.53
459.48	7332.90
459.66	7421.84
459.84	7391.41
460.03	7517.80
460.21	7543.55
460.39	7227.57
460.57	7421.84
460.76	7630.15
460.94	7506.10
461.12	7307.15
461.31	7466.31
461.49	7494.40
461.67	7569.29
461.85	7578.65
462.04	7419.50
462.22	8093.57
462.40	7784.62
462.59	7843.14
462.77	7768.24
462.95	7791.64
463.13	7772.92
463.32	7918.03
463.50	7964.84
463.68	7875.90
463.86	7988.25
464.05	7906.33
464.23	8037.40
464.41	8046.76
464.59	7782.28
464.78	8124.00
464.96	8107.62
465.14	7964.84
465.32	8126.34
465.50	8142.72
465.69	8152.09
465.87	8184.85
466.05	8116.98
466.23	8145.06
466.41	8175.49
466.60	8273.79
466.78	8299.54
466.96	8140.38
467.14	8236.35
467.32	8376.78
467.51	8283.16
467.69	8191.88
467.87	8348.69
468.05	8280.82
468.23	8353.37
468.41	8435.29
468.60	8519.55
468.78	8620.19
468.96	8407.20
469.14	8580.40
469.32	8791.05
469.50	8587.43
469.69	8905.74
469.87	8877.65
470.05	8685.73
470.23	8704.45
470.41	8924.46
470.59	8781.69
470.77	8751.26
470.95	9046.17
471.14	9041.49
471.32	8896.38
471.50	8987.66
471.68	9247.46
471.86	9184.26
472.04	9221.71
472.22	9130.43
472.40	9144.47
472.58	9308.31
472.77	9156.18
472.95	9296.61
473.13	9638.33
473.31	9427.68
473.49	9266.18
473.67	9460.45
473.85	9547.05
474.03	9631.30
474.21	9565.77
474.39	9797.48
474.57	9764.72
474.75	9825.57
474.93	9963.66
475.12	10050.26
475.30	10134.52
475.48	9958.98
475.66	10094.73
475.84	10122.82
476.02	10221.12
476.20	10150.90
476.38	10338.15
476.56	10593.26
476.74	10607.31
476.92	10511.35
477.10	10438.79
477.28	10707.95
477.46	10480.92
477.64	10934.98
477.82	10888.17
478.00	11246.27
478.18	11066.05
478.36	11449.90
478.54	11417.13
478.72	11433.52
478.90	11456.92
479.08	11723.74
479.26	11585.65
479.44	11557.57
479.62	11882.90
479.80	11833.75
479.98	11889.92
480.16	12343.99
480.34	12035.03
480.52	12393.14
480.70	12334.62
480.88	12025.67
481.06	12351.01
481.24	12482.08
481.41	12690.38
481.59	12769.96
481.77	12882.31
481.95	13064.87
482.13	12989.97
482.31	13160.83
482.49	13392.55
482.67	13392.55
482.85	13724.90
483.03	13668.73
483.21	13516.59
483.39	13664.05
483.57	13668.73
483.74	13855.97
483.92	14059.60
484.10	13965.98
484.28	14225.78
484.46	14310.04
484.64	14789.85
484.82	14597.92
485.00	14558.13
485.18	14796.87
485.35	15143.27
485.53	15152.63
485.71	15353.91
485.89	15548.18
486.07	15283.70
486.25	15548.18
486.43	15435.83
486.61	15768.19
486.78	15929.69
486.96	15859.47
487.14	16203.53
487.32	16273.74
487.50	16196.51
487.68	16517.16
487.85	16456.31
488.03	16690.36
488.21	17167.83
488.39	16901.01
488.57	17027.40
488.75	17186.55
488.92	17720.20
489.10	17380.82
489.28	17376.14
489.46	17837.22
489.64	18054.89
489.81	18260.86
489.99	18068.94
490.17	18485.55
490.35	18492.57
490.53	18614.28
490.70	18415.34
490.88	18359.16
491.06	18932.59
491.24	18820.25
491.41	19089.41
491.59	19281.33
491.77	19234.52
491.95	19641.78
492.13	19220.48
492.30	19686.25
492.48	19470.92
492.66	19632.41
492.84	19824.34
493.01	20065.41
493.19	19922.64
493.37	20203.50
493.54	20795.66
493.72	20790.98
493.90	20711.40
494.08	20950.14
494.25	20954.82
494.43	20781.62
494.61	21186.53
494.79	21273.13
494.96	20943.11
495.14	21317.60
495.32	21605.49
495.49	21380.79
495.67	21827.84
495.85	21820.81
496.02	21977.63
496.20	22490.21
496.38	22211.68
496.55	22689.15
496.73	23152.58
496.91	22733.62
497.09	22618.94
497.26	22803.84
497.44	22899.80
497.62	23283.65
497.79	23527.06
497.97	23393.65
498.14	23433.44
498.32	23655.79
498.50	23992.83
498.67	23660.48
498.85	24135.60
499.03	24046.66
499.20	24065.39
499.38	24159.01
499.56	24704.35
499.73	23974.11
499.91	24826.06
500.08	24992.24
500.26	24449.24
500.44	24933.73
500.61	24905.64
500.79	24821.38
500.97	24919.68
501.14	25158.42
501.32	25287.15
501.49	25254.38
501.67	25280.13
501.84	25500.14
502.02	25617.16
502.20	25766.96
502.37	25717.81
502.55	25790.36
502.72	25912.07
502.90	25909.73
503.07	25731.85
503.25	26209.32
503.43	26120.38
503.60	26618.91
503.78	26597.85
503.95	26246.77
504.13	26590.83
504.30	26766.37
504.48	26630.62
504.65	26857.65
504.83	27208.73
505.01	26902.12
505.18	27105.74
505.36	27257.88
505.53	26960.63
505.71	27648.75
505.88	27459.16
506.06	27136.17
506.23	27955.36
506.41	27772.80
506.58	28002.17
506.76	27864.08
506.93	28243.24
507.11	28198.77
507.28	28313.46
507.46	27838.33
507.63	28245.58
507.81	28655.18
507.98	28350.91
508.16	28491.34
508.33	28687.95
508.50	28760.50
508.68	29106.90
508.85	29043.71
509.03	28790.93
509.20	28823.70
509.38	29179.46
509.55	29413.51
509.73	29350.32
509.90	29542.24
510.08	29118.60
510.25	29846.51
510.42	29474.37
510.60	29876.94
510.77	29933.11
510.95	30246.74
511.12	29996.31
511.30	29792.68
511.47	30359.09
511.64	30223.34
511.82	30487.82
511.99	30157.80
512.17	30801.45
512.34	30661.02
512.51	30614.21
512.69	31147.85
512.86	31014.44
513.04	30923.16
513.21	31129.12
513.38	31049.55
513.56	30930.18
513.73	31192.32
513.90	31084.65
514.08	31185.30
514.25	31468.50
514.43	31349.14
514.60	31651.06
514.77	31615.96
514.95	31861.71
515.12	31880.44
515.29	31917.89
515.47	31917.89
515.64	32343.86
515.81	32027.89
515.99	32217.47
516.16	32245.56
516.33	32437.48
516.51	32851.76
516.68	32507.70
516.85	32547.49
517.03	32765.16
517.20	32673.88
517.37	32631.75
517.54	33003.89
517.72	32678.56
517.89	32999.21
518.06	32954.74
518.24	33017.94
518.41	33118.58
518.58	33319.87
518.75	33141.99
518.93	33574.98
519.10	33181.77
519.27	33338.59
519.45	33589.03
519.62	34010.32
519.79	33610.09
519.96	33940.11
520.14	33949.47
520.31	33813.72
520.48	34174.16
520.65	34026.71
520.83	34419.92
521.00	34543.97
521.17	34443.32
521.34	34361.40
521.52	34459.71
521.69	34609.50
521.86	34836.53
522.03	34323.96
522.20	34873.98
522.38	35061.22
522.55	34817.81
522.72	35147.82
522.89	35037.82
523.07	35353.79
523.24	35154.85
523.41	35145.48
523.58	35206.34
523.75	35644.02
523.92	35475.50
524.10	35608.91
524.27	35739.98
524.44	35599.55
524.61	35512.95
524.78	35849.99
524.96	35908.50
525.13	36023.19
525.30	36041.91
525.47	35997.44
525.64	35873.39
525.81	36383.63
525.98	36273.62
526.16	36570.87
526.33	36257.24
526.50	36809.61
526.67	36313.41
526.84	36608.32
527.01	36203.41
527.18	36720.66
527.36	36526.40
527.53	37062.38
527.70	37167.71
527.87	37364.31
528.04	37546.87
528.21	37235.58
528.38	37163.03
528.55	37277.71
528.72	37378.36
528.89	37233.24
529.07	37263.67
529.24	37097.49
529.41	37516.45
529.58	37336.23
529.75	37563.26
529.92	37551.56
530.09	37916.68
530.26	37757.52
530.43	37401.76
530.60	37652.20
530.77	38143.71
530.94	37759.86
531.11	37921.36
531.28	38274.78
531.46	38312.23
531.63	38211.59
531.80	38211.59
531.97	38284.14
532.14	38593.09
532.31	38080.52
532.48	38705.44
532.65	39049.50
532.82	38436.28
532.99	38593.09
533.16	38574.37
533.33	39000.35
533.50	38653.95
533.67	38946.51
533.84	38848.21
534.01	38738.21
534.18	38799.06
534.35	39269.51
534.52	39218.02
534.69	39215.68
534.86	39171.21
535.03	39159.50
535.20	39957.63
535.37	39285.89
535.54	39613.57
535.71	39601.86
535.88	39585.48
536.05	39831.24
536.22	39440.37
536.38	39533.99
536.55	40023.16
536.72	39810.17
536.89	39674.42
537.06	40006.78
537.23	39864.00
537.40	40187.00
537.57	40004.44
537.74	39786.77
537.91	40414.03
538.08	40217.43
538.25	39653.36
538.42	40215.08
538.59	40315.73
538.75	40271.26
538.92	40428.07
539.09	40547.44
539.26	40458.50
539.43	40549.78
539.60	40669.15
539.77	40414.03
539.94	40919.59
540.11	40797.88
540.28	41205.13
540.44	41015.55
540.61	40788.52
540.78	40851.71
540.95	40797.88
541.12	40774.47
541.29	40563.82
541.46	41270.67
541.62	41270.67
541.79	41209.81
541.96	40746.39
542.13	41067.04
542.30	41401.74
542.47	41373.65
542.63	41322.16
542.80	41277.69
542.97	41846.44
543.14	41911.97
543.31	41631.11
543.48	41762.18
543.64	42459.66
543.81	41972.83
543.98	41804.31
544.15	41797.29
544.32	42059.43
544.48	42244.33
544.65	42356.67
544.82	42068.79
544.99	41977.51
545.16	42183.48
545.32	42784.99
545.49	42813.08
545.66	42927.77
545.83	42574.34
546.00	42611.79
546.16	42459.66
546.33	42724.14
546.50	42550.94
546.67	42539.24
546.83	42424.55
547.00	42511.15
547.17	43007.34
547.34	42932.45
547.50	43058.84
547.67	43107.99
547.84	43325.66
548.00	43260.12
548.17	43196.93
548.34	43494.18
548.51	43372.47
548.67	43330.34
548.84	43283.53
549.01	43192.25
549.18	42885.64
549.34	42965.21
549.51	43821.85
549.68	43573.75
549.84	42974.58
550.01	43562.05
550.18	43243.74
550.34	43281.19
550.51	43526.94
550.68	44065.27
550.84	43405.23
551.01	43709.50
551.18	43454.39
551.34	44044.20
551.51	43700.14
551.68	43655.67
551.84	43714.19
552.01	43983.35
552.18	43819.51
552.34	44011.43
552.51	43997.39
552.68	43613.54
552.84	44112.08
553.01	44163.57
553.18	44212.72
553.34	44306.34
553.51	43475.45
553.67	44381.24
553.84	44779.13
554.01	44575.50
554.17	44622.31
554.34	44598.91
554.51	44615.29
554.67	45020.20
554.84	44732.32
555.00	44868.07
555.17	44540.39
555.33	44879.77
555.50	44547.42
555.67	44807.22
555.83	45113.83
556.00	44882.11
556.16	45488.31
556.33	44748.70
556.50	45043.61
556.66	45127.87
556.83	44699.55
556.99	45151.27
557.16	45490.65
557.32	45074.04
557.49	45312.77
557.65	44765.09
557.82	45460.23
557.98	44746.36
558.15	44818.92
558.32	45134.89
558.48	45015.52
558.65	45413.41
558.81	45134.89
558.98	44952.33
559.14	45244.90
559.31	45642.79
559.47	45240.21
559.64	45502.35
559.80	45240.21
559.97	45247.24
560.13	45539.80
560.30	45287.03
560.46	45366.60
560.63	45752.79
560.79	45944.72
560.96	45722.37
561.12	45619.38
561.29	45776.20
561.45	45701.30
561.61	45549.17
561.78	45869.82
561.94	45645.13
562.11	45427.46
562.27	45404.05
562.44	45670.87
562.60	45876.84
562.77	46230.26
562.93	45766.84
563.10	46033.66
563.26	45640.45
563.42	46326.22
563.59	46134.30
563.75	45570.23
563.92	45759.81
564.08	45944.72
564.24	45851.09
564.41	46223.24
564.57	46033.66
564.74	46211.54
564.90	45748.11
565.07	45500.01
565.23	46241.96
565.39	45942.38
565.56	46417.50
565.72	46134.30
565.88	45825.35
566.05	46454.95
566.21	46185.79
566.38	46483.04
566.54	46223.24
566.70	46387.08
566.87	46667.94
567.03	46286.43
567.19	46188.13
567.36	46286.43
567.52	46059.40
567.68	46869.23
567.85	46284.09
568.01	46693.69
568.17	46258.35
568.34	46211.54
568.50	46604.75
568.66	46256.01
568.83	46581.34
568.99	46735.82
569.15	46504.10
569.32	46167.07
569.48	46887.95
569.64	46782.63
569.81	46314.52
569.97	46705.39
570.13	46745.18
570.30	46398.78
570.46	46637.51
570.62	46256.01
570.78	47065.83
570.95	46667.94
571.11	47000.30
571.27	46614.11
571.43	47091.58
571.60	46742.84
571.76	46377.72
571.92	46326.22
572.09	46857.52
572.25	46752.20
572.41	46593.04
572.57	46714.75
572.74	47262.44
572.90	47063.49
573.06	47370.10
573.22	47063.49
573.38	47143.07
573.55	46843.48
573.71	47063.49
573.87	46946.47
574.03	47009.66
574.20	47260.10
574.36	46632.83
574.52	47065.83
574.68	46902.00
574.84	46852.84
575.01	47161.79
575.17	47147.75
575.33	47068.17
575.49	46747.52
575.65	47117.32
575.82	47077.54
575.98	46323.88
576.14	47210.95
576.30	46904.34
576.46	46932.42
576.62	46700.71
576.79	46993.28
576.95	47021.36
577.11	46967.53
577.27	46829.44
577.43	47098.60
577.59	47379.46
577.75	46543.89
577.92	47180.52
578.08	47126.69
578.24	47028.38
578.40	47199.24
578.56	47112.64
578.72	46946.47
578.88	46815.40
579.04	47269.46
579.21	46997.96
579.37	46981.57
579.53	47290.52
579.69	47009.66
579.85	46614.11
580.01	46885.61
580.17	47065.83
580.33	47091.58
580.49	47257.76
580.65	47253.08
580.82	46962.85
580.98	46885.61
581.14	47000.30
581.30	47086.90
581.46	47114.98
581.62	47014.34
581.78	46564.96
581.94	47014.34
582.10	47311.59
582.26	47246.05
582.42	47318.61
582.58	47290.52
582.74	47419.25
582.90	47089.24
583.06	47388.83
583.22	46932.42
583.38	47012.00
583.54	47215.63
583.70	47304.57
583.86	47129.03
584.02	47318.61
584.18	47536.28
584.34	47302.23
584.50	47243.71
584.66	47543.30
584.82	47342.02
584.98	47819.49
585.14	47721.18
585.30	47264.78
585.46	47505.85
585.62	47100.94
585.78	47224.99
585.94	47185.20
586.10	47285.84
586.26	46859.87
586.42	47206.26
586.58	47814.80
586.74	47531.60
586.90	47260.10
587.06	47192.22
587.22	47852.25
587.38	47168.82
587.54	47519.90
587.70	47700.12
587.86	47585.43
588.02	47980.98
588.18	47449.68
588.34	47524.58
588.49	47185.20
588.65	47283.50
588.81	47217.97
588.97	47721.18
589.13	47313.93
589.29	47297.55
589.45	47777.36
589.61	47278.82
589.77	47550.32
589.93	47693.10
590.08	47545.64
590.24	48074.60
590.40	47997.37
590.56	48126.10
590.72	47988.00
590.88	47557.35
591.04	47807.78
591.20	47913.11
591.35	48245.46
591.51	47641.60
591.67	48023.11
591.83	48439.73
591.99	47782.04
592.15	48037.16
592.31	47805.44
592.46	47601.82
592.62	48011.41
592.78	48175.25
592.94	48320.36
593.10	48093.33
593.26	48048.86
593.41	48098.01
593.57	48062.90
593.73	47782.04
593.89	48451.43
594.05	48357.81
594.20	48107.37
594.36	48343.77
594.52	48137.80
594.68	48252.48
594.84	48193.97
594.99	48217.38
595.15	48200.99
595.31	48020.77
595.47	48336.74
595.62	48231.42
595.78	47929.49
595.94	48140.14
596.10	48053.54
596.25	48212.70
596.41	48432.71
596.57	47980.98
596.73	48411.64
596.88	48177.59
597.04	48395.26
597.20	47955.24
597.36	47863.96
597.51	47838.21
597.67	48186.95
597.83	48002.05
597.99	48266.53
598.14	48172.91
598.30	48041.84
598.46	47803.10
598.61	48479.52
598.77	47971.62
598.93	48121.41
599.09	48093.33
599.24	48540.37
599.40	48142.48
599.56	48575.48
599.71	48664.42
599.87	48736.98
600.03	48542.71
600.18	48037.16
600.34	48432.71
600.50	48072.26
600.65	48376.53
600.81	48811.87
600.97	48931.24
601.12	48020.77
601.28	48327.38
601.44	48472.49
601.59	48308.66
601.75	47760.97
601.91	48519.31
602.06	48390.58
602.22	48481.86
602.37	48538.03
602.53	48268.87
602.69	48236.10
602.84	47899.06
603.00	48172.91
603.16	48259.51
603.31	48638.67
603.47	48095.67
603.62	48360.15
603.78	48325.04
603.94	48198.65
604.09	48067.58
604.25	48364.83
604.40	47971.62
604.56	48355.47
604.71	48395.26
604.87	48336.74
605.03	47833.53
605.18	48252.48
605.34	48280.57
605.49	47807.78
605.65	48498.24
605.80	48046.52
605.96	47707.14
606.12	48222.06
606.27	47971.62
606.43	48449.09
606.58	48545.05
606.74	48212.70
606.89	48318.02
607.05	48114.39
607.20	47786.72
607.36	48140.14
607.51	48102.69
607.67	48090.99
607.82	48142.48
607.98	48004.39
608.13	48079.28
608.29	47686.07
608.44	48502.92
608.60	47599.47
608.75	48320.36
608.91	48500.58
609.06	47524.58
609.22	47838.21
609.37	48357.81
609.53	48296.95
609.68	48301.64
609.84	48006.73
609.99	47889.70
610.15	48062.90
610.30	47702.46
610.46	47938.85
610.61	47817.14
610.76	47882.68
610.92	47636.92
611.07	48154.18
611.23	47971.62
611.38	48062.90
611.54	47948.21
611.69	48172.91
611.84	47971.62
612.00	48051.20
612.15	47737.57
612.31	48170.57
612.46	47285.84
612.62	48123.75
612.77	47707.14
612.92	48102.69
613.08	47749.27
613.23	47805.44
613.39	47599.47
613.54	47861.61
613.69	47997.37
613.85	47697.78
614.00	47482.45
614.15	47887.36
614.31	47657.99
614.46	47779.70
614.62	47782.04
614.77	47749.27
614.92	47650.97
615.08	47824.17
615.23	47564.37
615.38	48032.47
615.54	47381.80
615.69	47824.17
615.84	47473.09
616.00	47786.72
616.15	47557.35
616.30	47473.09
616.46	47524.58
616.61	46962.85
616.76	48123.75
616.92	47152.43
617.07	47466.06
617.22	47030.72
617.37	47180.52
617.53	47103.28
617.68	46880.93
617.83	47119.66
617.99	47089.24
618.14	47133.71
618.29	47356.06
618.45	47100.94
618.60	46808.37
618.75	46808.37
618.90	47084.56
619.06	47164.14
619.21	46866.89
619.36	47110.30
619.51	46958.17
619.67	47063.49
619.82	47110.30
619.97	46866.89
620.12	46866.89
620.28	47152.43
620.43	47524.58
620.58	47278.82
620.73	47199.24
620.89	47007.32
621.04	47220.31
621.19	46684.33
621.34	46719.43
621.49	46717.09
621.65	46859.87
621.80	47089.24
621.95	47009.66
622.10	46866.89
622.25	46719.43
622.41	46803.69
622.56	46749.86
622.71	46944.12
622.86	46892.63
623.01	46543.89
623.16	46831.78
623.32	46742.84
623.47	46740.50
623.62	46239.62
623.77	46209.20
623.92	46504.10
624.07	46628.15
624.23	46597.73
624.38	46539.21
624.53	46756.88
624.68	46244.30
624.83	46326.22
624.98	46298.14
625.13	46185.79
625.29	46183.45
625.44	46401.12
625.59	46108.55
625.74	46478.36
625.89	45930.67
626.04	46014.93
626.19	46167.07
626.34	45830.03
626.49	46248.99
626.65	45766.84
626.80	46122.60
626.95	45762.15
627.10	45542.14
627.25	45954.08
627.40	45794.92
627.55	46246.65
627.70	45879.18
627.85	46024.29
628.00	45797.26
628.15	46260.69
628.30	45221.49
628.45	45375.97
628.60	45464.91
628.76	45471.93
628.91	45607.68
629.06	45214.47
629.21	45329.16
629.36	45502.35
629.51	45729.39
629.66	45968.12
629.81	45284.68
629.96	45184.04
630.11	45162.98
630.26	45069.36
630.41	45242.56
630.56	45235.53
630.71	45357.24
630.86	45352.56
631.01	45088.08
631.16	44849.35
631.31	44999.14
631.46	45158.30
631.61	45361.92
631.76	45511.72
631.91	45251.92
632.06	45537.46
632.21	45453.20
632.36	45642.79
632.51	44982.76
632.66	45635.77
632.81	44891.48
632.96	44973.39
633.10	44816.58
633.25	44968.71
633.40	44811.90
633.55	45242.56
633.70	44987.44
633.85	45027.23
634.00	44741.68
634.15	44664.44
634.30	44453.79
634.45	44432.73
634.60	45127.87
634.75	44917.22
634.90	44790.83
635.05	44772.11
635.19	44673.81
635.34	45305.75
635.49	44861.05
635.64	44390.60
635.79	44690.19
635.94	44547.42
636.09	44758.06
636.24	44535.71
636.39	44488.90
636.53	44430.39
636.68	43812.49
636.83	44119.10
636.98	44149.53
637.13	44144.84
637.28	44034.84
637.43	44465.50
637.57	44521.67
637.72	43910.79
637.87	44318.04
638.02	44458.48
638.17	44423.37
638.32	44044.20
638.46	43887.39
638.61	43658.01
638.76	43648.65
638.91	43835.89
639.06	43840.57
639.20	43643.97
639.35	43786.74
639.50	43875.68
639.65	44318.04
639.80	43803.13
639.94	44343.79
640.09	44243.15
640.24	44266.55
640.39	43540.99
640.54	43503.54
640.68	43931.86
640.83	43962.28
640.98	43686.10
641.13	43318.64
641.27	43887.39
641.42	43426.30
641.57	43906.11
641.72	43723.55
641.86	43615.88
642.01	43103.31
642.16	43463.75
642.31	42775.63
642.45	43496.52
642.60	43105.65
642.75	43412.26
642.90	43356.08
643.04	43592.48
643.19	43014.37
643.34	42967.55
643.48	43154.80
643.63	43075.22
643.78	43753.97
643.93	43569.07
644.07	43330.34
644.22	43683.76
644.37	42990.96
644.51	42960.53
644.66	42913.72
644.81	42997.98
644.95	42733.50
645.10	43339.70
645.25	42878.61
645.39	42885.64
645.54	42808.40
645.69	42738.18
645.83	42590.73
645.98	42684.35
646.13	42579.03
646.27	42646.90
646.42	43007.34
646.57	42651.58
646.71	43299.91
646.86	42997.98
647.00	42609.45
647.15	42328.59
647.30	42806.06
647.44	42457.32
647.59	42930.11
647.74	42160.07
647.88	42745.20
648.03	42902.02
648.17	42698.39
648.32	42691.37
648.47	42932.45
648.61	42726.48
648.76	42033.68
648.90	42232.63
649.05	42494.77
649.20	42525.19
649.34	42433.91
649.49	42344.97
649.63	42469.02
649.78	42450.30
649.92	42520.51
650.07	42485.40
650.21	42445.62
650.36	42380.08
650.51	42213.90
650.65	42003.25
650.80	42167.09
650.94	42052.41
651.09	42024.32
651.23	41605.36
651.38	42082.83
651.52	41881.55
651.67	42150.71
651.81	41710.69
651.96	41689.62
652.10	41661.54
652.25	41930.70
652.39	41612.38
652.54	42040.70
652.68	41743.45
652.83	42024.32
652.97	42148.37
653.12	41275.35
653.26	41268.33
653.41	41668.56
653.55	41874.52
653.70	42036.02
653.84	41989.21
653.99	41729.41
654.13	41504.72
654.27	41345.56
654.42	41666.22
654.56	41408.76
654.71	41830.05
654.85	41511.74
655.00	41862.82
655.14	41394.71
655.29	41500.04
655.43	41649.83
655.57	41038.95
655.72	41181.73
655.86	41577.28
656.01	40664.47
656.15	40669.15
656.30	41490.68
656.44	41378.33
656.58	41244.92
656.73	41003.85
656.87	41036.61
657.01	40711.28
657.16	41223.86
657.30	41347.90
657.45	41153.64
657.59	40950.01
657.73	40322.75
657.88	40830.65
658.02	40786.18
658.16	40807.24
658.31	40776.81
658.45	41310.46
658.60	40722.98
658.74	40627.02
658.88	40800.22
659.03	40687.87
659.17	40121.46
659.31	40285.30
659.46	40411.69
659.60	40449.14
659.74	39983.37
659.89	39744.64
660.03	39576.12
660.17	40362.54
660.32	40011.46
660.46	40327.43
660.60	39391.22
660.74	39805.49
660.89	40205.72
661.03	39456.75
661.17	39622.93
661.32	38972.26
661.46	39838.26
661.60	39548.03
661.74	39306.96
661.89	39445.05
662.03	39739.96
662.17	39784.43
662.31	39185.25
662.46	39157.16
662.60	39143.12
662.74	39000.35
662.88	38976.94
663.03	38625.86
663.17	38892.68
663.31	38593.09
663.45	38976.94
663.60	39285.89
663.74	39225.04
663.88	38990.98
664.02	38892.68
664.17	39295.25
664.31	38710.12
664.45	38632.88
664.59	38389.47
664.73	38569.69
664.88	38546.28
665.02	38314.57
665.16	38424.57
665.30	38298.19
665.44	38232.65
665.59	38024.34
665.73	37968.17
665.87	37743.48
666.01	38202.22
666.15	38106.26
666.29	37834.76
666.44	37844.12
666.58	37816.04
666.72	37755.18
666.86	37848.80
667.00	37247.29
667.14	37247.29
667.28	37242.60
667.43	37727.10
667.57	37673.26
667.71	37900.29
667.85	37893.27
667.99	37163.03
668.13	37120.90
668.27	36809.61
668.41	37158.34
668.56	36690.24
668.70	36603.64
668.84	36547.47
668.98	36783.86
669.12	37062.38
669.26	36458.52
669.40	36526.40
669.54	36617.68
669.68	36896.20
669.82	36753.43
669.96	35938.93
670.10	36058.29
670.25	36224.47
670.39	36449.16
670.53	36086.38
670.67	35927.22
670.81	36395.33
670.95	36039.57
671.09	35857.01
671.23	35604.23
671.37	35910.84
671.51	35449.75
671.65	35475.50
671.79	35548.06
671.93	35634.66
672.07	35552.74
672.21	35545.72
672.35	35220.38
672.49	35021.44
672.63	35456.78
672.77	34852.92
672.91	35044.84
673.05	34855.26
673.19	34824.83
673.33	34815.47
673.47	34815.47
673.61	34415.24
673.75	34649.29
673.89	34230.33
674.03	34216.29
674.17	34000.96
674.31	33968.19
674.45	33893.30
674.59	34237.36
674.73	33848.83
674.87	33830.10
675.01	33481.36
675.15	33715.42
675.29	33359.66
675.43	33385.40
675.56	33738.82
675.70	33277.74
675.84	33322.21
675.98	32231.52
676.12	33305.82
676.26	33617.11
676.40	33200.50
676.54	32809.63
676.68	32921.98
676.82	32163.64
676.96	33001.55
677.10	32364.93
677.23	32505.36
677.37	33008.58
677.51	32449.19
677.65	32093.43
677.79	31756.39
677.93	32067.68
678.07	31812.56
678.21	31791.50
678.34	31360.84
678.48	31061.25
678.62	31447.44
678.76	31164.23
678.90	31215.72
679.04	31037.84
679.18	31765.75
679.31	31204.02
679.45	30754.64
679.59	30885.71
679.73	30637.61
679.87	30497.18
680.00	30497.18
680.14	30263.13
680.28	30356.75
680.42	30031.41
680.56	29818.42
680.70	30134.40
680.83	30024.39
680.97	29642.88
681.11	29612.46
681.25	29340.96
681.39	29743.53
681.52	29315.21
681.66	29184.14
681.80	28627.09
681.94	28709.01
682.07	28861.15
682.21	28835.40
682.35	28758.16
682.49	28559.22
682.62	28795.61
682.76	28364.95
682.90	28704.33
683.04	28430.49
683.17	28470.28
683.31	28072.39
683.45	28362.61
683.59	27864.08
683.72	27487.25
683.86	27704.92
684.00	27662.79
684.13	27433.42
684.27	27641.73
684.41	27417.04
684.55	27431.08
684.68	27349.16
684.82	26759.34
684.96	26993.40
685.09	26796.79
685.23	27000.42
685.37	27208.73
685.50	27344.48
685.64	26930.20
685.78	26700.83
685.91	26340.39
686.05	25979.95
686.19	25600.78
686.32	26015.05
686.46	25549.29
686.60	25364.39
686.73	25593.76
686.87	25727.17
687.01	25659.29
687.14	25528.22
687.28	25689.72
687.42	25357.36
687.55	25254.38
687.69	24924.36
687.82	25088.20
687.96	24718.40
688.10	24922.02
688.23	24863.51
688.37	24924.36
688.50	24943.09
688.64	24503.07
688.78	24423.49
688.91	24477.32
689.05	24584.99
689.18	24166.03
689.32	23772.82
689.46	23506.00
689.59	23630.05
689.73	23665.16
689.86	24233.91
690.00	23627.71
690.13	23630.05
690.27	23463.87
690.41	23339.82
690.54	22998.10
690.68	23267.27
690.81	23007.47
690.95	23042.57
691.08	22785.12
691.22	22562.76
691.35	22436.38
691.49	22775.75
691.62	22347.44
691.76	22120.40
691.89	21884.01
692.03	22015.08
692.16	21809.11
692.30	21734.21
692.43	21858.26
692.57	21792.73
692.70	21352.71
692.84	21546.97
692.97	21231.00
693.11	21362.07
693.24	21301.22
693.38	21212.28
693.51	20800.34
693.65	21029.71
693.78	20655.23
693.92	20610.76
694.05	20418.83
694.19	20334.57
694.32	20739.49
694.45	20596.71
694.59	20657.57
694.72	20645.87
694.86	20381.38
694.99	20027.96
695.13	20013.92
695.26	19763.48
695.39	19878.17
695.53	19618.37
695.66	19609.01
695.80	19592.62
695.93	19599.65
696.07	19463.90
696.20	19026.21
696.33	18979.40
696.47	19192.39
696.60	18988.77
696.73	19058.98
696.87	19012.17
697.00	18682.16
697.14	18523.00
697.27	18611.94
697.40	18602.58
697.54	18445.76
697.67	18548.75
697.80	18427.04
697.94	18422.36
698.07	18195.32
698.21	18127.45
698.34	17984.68
698.47	17898.08
698.61	17635.94
698.74	17458.06
698.87	17467.42
699.01	17406.56
699.14	17411.25
699.27	17294.22
699.40	17479.12
699.54	17303.58
699.67	17057.82
699.80	17053.14
699.94	17029.74
700.07	17123.36
700.20	16709.08
700.34	16578.01
700.47	16580.36
700.60	16807.39
700.73	16603.76
700.87	16374.39
701.00	16255.02
701.13	16107.57
701.26	16128.63
701.40	16058.42
701.53	16004.58
701.66	16152.04
701.79	15796.28
701.93	15892.24
702.06	15655.84
702.19	15714.36
702.32	15655.84
702.46	15749.46
702.59	15435.83
702.72	15885.22
702.85	15508.39
702.99	15456.90
703.12	15157.31
703.25	15225.18
703.38	15094.11
703.51	15126.88
703.65	14670.48
703.78	14621.33
703.91	14382.59
704.04	14574.52
704.17	14516.00
704.31	14436.42
704.44	14518.34
704.57	14331.10
704.70	14363.87
704.83	14284.29
704.96	14284.29
705.10	14036.19
705.23	13949.59
>>>>>End Processed Spectral Data<<<<<
