SpectraSuite Data File
++++++++++++++++++++++++++++++++++++
Date: Fri Oct 25 10:43:17 EDT 2013
User: price-jones
Dark Spectrum Present: No
Reference Spectrum Present: No
Number of Sampled Component Spectra: 1
Spectrometers: USB2+H05261
Integration Time (usec): 100000 (USB2+H05261)
Spectra Averaged: 1 (USB2+H05261)
Boxcar Smoothing: 0 (USB2+H05261)
Correct for Electrical Dark: No (USB2+H05261)
Strobe/Lamp Enabled: No (USB2+H05261)
Correct for Detector Non-linearity: No (USB2+H05261)
Correct for Stray Light: No (USB2+H05261)
Number of Pixels in Processed Spectrum: 2048
>>>>>Begin Processed Spectral Data<<<<<
365.73	110.01
365.92	110.01
366.12	110.01
366.32	16.38
366.52	7.02
366.72	77.24
366.91	9.36
367.11	46.81
367.31	0.00
367.51	53.83
367.70	18.72
367.90	42.13
368.10	0.00
368.30	0.00
368.49	0.00
368.69	32.77
368.89	51.49
369.09	23.41
369.28	58.51
369.48	25.75
369.68	63.19
369.87	0.00
370.07	42.13
370.27	142.77
370.47	189.58
370.66	376.83
370.86	390.87
371.06	418.96
371.25	526.62
371.45	444.70
371.65	475.13
371.84	428.32
372.04	444.70
372.24	456.40
372.44	468.11
372.63	468.11
372.83	526.62
373.03	528.96
373.22	479.81
373.42	484.49
373.62	489.17
373.81	496.19
374.01	550.03
374.21	550.03
374.40	566.41
374.60	507.90
374.79	491.51
374.99	580.45
375.19	564.07
375.38	615.56
375.58	613.22
375.78	643.65
375.97	585.13
376.17	653.01
376.37	571.09
376.56	594.50
376.76	608.54
376.95	538.32
377.15	690.46
377.35	650.67
377.54	547.69
377.74	596.84
377.93	664.71
378.13	709.18
378.33	617.90
378.52	718.54
378.72	678.76
378.91	669.39
379.11	676.41
379.31	615.56
379.50	617.90
379.70	610.88
379.89	643.65
380.09	699.82
380.28	706.84
380.48	650.67
380.68	723.23
380.87	615.56
381.07	709.18
381.26	725.57
381.46	638.97
381.65	629.60
381.85	697.48
382.04	629.60
382.24	772.38
382.43	713.86
382.63	786.42
382.83	697.48
383.02	737.27
383.22	739.61
383.41	713.86
383.61	758.33
383.80	777.06
384.00	725.57
384.19	713.86
384.39	765.36
384.58	763.01
384.78	828.55
384.97	795.78
385.17	767.70
385.36	765.36
385.56	748.97
385.75	835.57
385.95	851.96
386.14	898.77
386.34	830.89
386.53	753.65
386.72	763.01
386.92	905.79
387.11	807.48
387.31	828.55
387.50	770.04
387.70	849.61
387.89	837.91
388.09	866.00
388.28	842.59
388.48	866.00
388.67	889.40
388.86	917.49
389.06	952.60
389.25	858.98
389.45	971.32
389.64	983.02
389.84	880.04
390.03	877.70
390.22	947.92
390.42	973.66
390.61	950.26
390.81	990.05
391.00	1022.81
391.19	1071.97
391.39	1032.18
391.58	1071.97
391.78	1090.69
391.97	992.39
392.16	1043.88
392.36	1013.45
392.55	999.41
392.75	1029.84
392.94	961.96
393.13	1067.28
393.33	940.90
393.52	999.41
393.71	1046.22
393.91	1100.05
394.10	1153.88
394.29	1179.63
394.49	1226.44
394.68	1177.29
394.88	1174.95
395.07	1235.80
395.26	1186.65
395.46	1153.88
395.65	1109.41
395.84	1240.48
396.04	1306.02
396.23	1160.91
396.42	1095.37
396.62	1198.35
396.81	1210.06
397.00	1188.99
397.19	1203.04
397.39	1294.32
397.58	1404.32
397.77	1320.06
397.97	1371.55
398.16	1355.17
398.35	1493.26
398.55	1507.30
398.74	1483.90
398.93	1521.35
399.12	1500.28
399.32	1488.58
399.51	1465.18
399.70	1603.27
399.90	1605.61
400.09	1575.18
400.28	1610.29
400.47	1645.40
400.67	1582.20
400.86	1598.59
401.05	1633.69
401.24	1598.59
401.44	1659.44
401.63	1750.72
401.82	1631.35
402.01	1706.25
402.21	1668.80
402.40	1769.44
402.59	1652.42
402.78	1600.93
402.97	1776.47
403.17	1741.36
403.36	1771.79
403.55	1813.92
403.74	1785.83
403.93	1844.34
404.13	1816.26
404.32	1830.30
404.51	1874.77
404.70	1863.07
404.89	1937.96
405.09	1923.92
405.28	1989.46
405.47	1994.14
405.66	1933.28
405.85	1968.39
406.05	1952.01
406.24	2038.61
406.43	1959.03
406.62	2071.37
406.81	2085.42
407.00	2111.16
407.20	2026.90
407.39	1947.33
407.58	2064.35
407.77	2104.14
407.96	2275.00
408.15	2263.30
408.34	2169.68
408.54	2312.45
408.73	2204.78
408.92	2207.13
409.11	2380.32
409.30	2286.70
409.49	2251.60
409.68	2253.94
409.87	2361.60
410.07	2312.45
410.26	2429.48
410.45	2413.09
410.64	2399.05
410.83	2415.43
411.02	2377.98
411.21	2572.25
411.40	2516.08
411.59	2619.06
411.78	2640.12
411.98	2581.61
412.17	2686.94
412.36	2551.18
412.55	2679.91
412.74	2684.59
412.93	2738.43
413.12	2759.49
413.31	2796.94
413.50	2810.98
413.69	2918.65
413.88	2883.54
414.07	2883.54
414.26	2881.20
414.45	2944.39
414.64	3002.91
414.83	3021.63
415.02	3035.67
415.22	3145.68
415.41	2977.16
415.60	3187.81
415.79	3215.90
415.98	3222.92
416.17	3225.26
416.36	3150.36
416.55	3335.26
416.74	3293.13
416.93	3194.83
417.12	3222.92
417.31	3405.48
417.50	3428.88
417.69	3391.44
417.88	3323.56
418.07	3309.52
418.26	3356.33
418.45	3543.57
418.64	3627.83
418.83	3585.70
419.02	3604.42
419.21	3604.42
419.39	3623.15
419.58	3531.87
419.77	3564.64
419.96	3581.02
420.15	3637.19
420.34	3646.55
420.53	3772.94
420.72	3868.91
420.91	3716.77
421.10	3892.31
421.29	3794.01
421.48	3763.58
421.67	3925.08
421.86	3728.47
422.05	3786.99
422.24	3854.86
422.43	3845.50
422.61	3873.59
422.80	3936.78
422.99	3943.80
423.18	3840.82
423.37	3880.61
423.56	3782.31
423.75	3864.22
423.94	3850.18
424.13	3618.47
424.32	3824.44
424.50	3936.78
424.69	3911.04
424.88	3850.18
425.07	3985.93
425.26	3868.91
425.45	3843.16
425.64	3864.22
425.83	4002.32
426.01	4007.00
426.20	4018.70
426.39	3985.93
426.58	3971.89
426.77	4002.32
426.96	3859.54
427.15	3922.74
427.33	3957.85
427.52	4028.06
427.71	4088.92
427.90	4161.47
428.09	4175.52
428.28	4149.77
428.46	4135.73
428.65	4098.28
428.84	4276.16
429.03	4203.60
429.22	4067.85
429.40	4032.74
429.59	4058.49
429.78	3859.54
429.97	3953.16
430.16	4030.40
430.34	4140.41
430.53	4234.03
430.72	4039.76
430.91	4168.49
431.10	4201.26
431.28	4526.60
431.47	4400.21
431.66	4664.69
431.85	4475.10
432.03	4596.81
432.22	4482.13
432.41	4465.74
432.60	4634.26
432.79	4685.75
432.97	4589.79
433.16	4741.93
433.35	4634.26
433.54	4643.62
433.72	4671.71
433.91	4601.49
434.10	4734.90
434.28	4706.82
434.47	4884.70
434.66	4915.12
434.85	4983.00
435.03	4952.57
435.22	4758.31
435.41	5226.42
435.59	5097.69
435.78	5032.15
435.97	5139.82
436.16	5060.24
436.34	5188.97
436.53	5055.56
436.72	5308.34
436.90	5158.54
437.09	5203.01
437.28	5130.45
437.46	5193.65
437.65	5137.48
437.84	4983.00
438.02	5060.24
438.21	5142.16
438.40	5238.12
438.58	5338.76
438.77	5416.00
438.96	5430.04
439.14	5575.16
439.33	5497.92
439.52	5474.51
439.70	5631.33
439.89	5563.45
440.08	5809.21
440.26	5591.54
440.45	5640.69
440.63	5708.57
440.82	5900.49
441.01	5919.21
441.19	6026.88
441.38	5982.41
441.57	5968.37
441.75	6111.14
441.94	6155.61
442.12	6277.32
442.31	6193.06
442.50	6363.92
442.68	6164.97
442.87	6305.40
443.05	6434.13
443.24	6392.00
443.43	6286.68
443.61	6431.79
443.80	6684.57
443.98	6392.00
444.17	6174.33
444.35	6576.91
444.54	6663.51
444.73	6396.68
444.91	6410.73
445.10	6487.96
445.28	6431.79
445.47	6506.69
445.65	6293.70
445.84	6459.88
446.02	6595.63
446.21	6420.09
446.39	6527.75
446.58	6651.80
446.77	6502.01
446.95	6436.47
447.14	6628.40
447.32	6869.47
447.51	6771.17
447.69	6616.69
447.88	6705.63
448.06	6642.44
448.25	6626.06
448.43	6717.34
448.62	6768.83
448.80	6609.67
448.99	6775.85
449.17	6719.68
449.36	6670.53
449.54	6953.73
449.73	7047.35
449.91	7136.29
450.10	7236.94
450.28	7103.53
450.46	7000.54
450.65	7138.63
450.83	7206.51
451.02	7208.85
451.20	7288.43
451.39	7206.51
451.57	7138.63
451.76	7260.34
451.94	7194.81
452.13	7119.91
452.31	7119.91
452.49	7019.27
452.68	7164.38
452.86	7190.13
453.05	6984.16
453.23	7265.02
453.42	7218.21
453.60	7307.15
453.78	7543.55
453.97	7358.64
454.15	7339.92
454.34	7417.16
454.52	7363.33
454.70	7379.71
454.89	7499.08
455.07	7524.82
455.26	7492.05
455.44	7639.51
455.62	7735.47
455.81	7714.41
455.99	7819.73
456.17	7817.39
456.36	7922.71
456.54	7721.43
456.73	8100.59
456.91	8065.49
457.09	8102.93
457.28	8180.17
457.46	7840.79
457.64	7976.55
457.83	7985.91
458.01	8086.55
458.19	8224.64
458.38	8159.11
458.56	8159.11
458.74	8304.22
458.93	8276.13
459.11	8231.66
459.29	8276.13
459.48	8264.43
459.66	8226.98
459.84	8418.91
460.03	8615.51
460.21	8526.57
460.39	8620.19
460.57	8416.57
460.76	8510.19
460.94	8620.19
461.12	8510.19
461.31	8727.86
461.49	8807.44
461.67	8533.59
461.85	8704.45
462.04	8692.75
462.22	9514.28
462.40	9032.13
462.59	8821.48
462.77	8861.27
462.95	8877.65
463.13	8854.25
463.32	9013.40
463.50	9078.94
463.68	9050.85
463.86	9074.26
464.05	8896.38
464.23	8882.33
464.41	9090.64
464.59	8954.89
464.78	9156.18
464.96	9053.19
465.14	8917.44
465.32	9238.09
465.50	9151.49
465.69	9301.29
465.87	9029.79
466.05	9132.77
466.23	9212.35
466.41	9399.59
466.60	9371.50
466.78	8968.93
466.96	9415.98
467.14	9385.55
467.32	9273.20
467.51	9469.81
467.69	9144.47
467.87	9453.42
468.05	9488.53
468.23	9570.45
468.41	9369.16
468.60	9530.66
468.78	9563.43
468.96	9490.87
469.14	9589.17
469.32	9731.95
469.50	9380.87
469.69	9738.97
469.87	9827.91
470.05	9544.70
470.23	9844.29
470.41	9755.35
470.59	9802.16
470.77	9851.31
470.95	9998.77
471.14	10010.47
471.32	9940.26
471.50	10148.56
471.68	10113.45
471.86	10420.06
472.04	10450.49
472.22	10403.68
472.40	10246.87
472.58	10253.89
472.77	10658.80
472.95	10431.77
473.13	10932.64
473.31	10244.52
473.49	10473.90
473.67	10796.89
473.85	10670.50
474.03	10778.17
474.21	10953.71
474.39	11105.84
474.57	10958.39
474.75	10890.51
474.93	11066.05
475.12	11035.63
475.30	11129.25
475.48	11110.52
475.66	11119.89
475.84	11267.34
476.02	11346.92
476.20	11339.90
476.38	11740.13
476.56	11871.20
476.74	11761.19
476.92	11899.28
477.10	11768.21
477.28	11953.12
477.46	12168.45
477.64	12189.51
477.82	12365.05
478.00	12383.77
478.18	12664.64
478.36	12674.00
478.54	12753.58
478.72	12468.03
478.90	12828.48
479.08	13139.77
479.26	13067.21
479.44	12872.95
479.62	13165.51
479.80	13130.41
479.98	13369.14
480.16	13509.57
480.34	13628.94
480.52	13734.26
480.70	13769.37
480.88	13600.85
481.06	13804.48
481.24	13872.36
481.41	14178.97
481.59	14455.15
481.77	14328.76
481.95	14548.77
482.13	14291.31
482.31	14609.62
482.49	14738.35
482.67	14857.72
482.85	15021.56
483.03	15225.18
483.21	14972.41
483.39	15257.95
483.57	15211.14
483.74	15161.99
483.92	15513.07
484.10	15585.63
484.28	15815.00
484.46	15758.83
484.64	16236.30
484.82	16004.58
485.00	15833.72
485.18	16470.35
485.35	16198.85
485.53	16002.24
485.71	16180.12
485.89	16262.04
486.07	16510.14
486.25	16620.14
486.43	16823.77
486.61	16627.17
486.78	17142.08
486.96	17050.80
487.14	17539.97
487.32	17579.76
487.50	18066.60
487.68	17902.76
487.85	18602.58
488.03	18506.62
488.21	18483.21
488.39	18265.54
488.57	18593.22
488.75	18487.89
488.92	19089.41
489.10	19358.57
489.28	19288.35
489.46	19683.91
489.64	19541.13
489.81	20030.30
489.99	20119.24
490.17	20030.30
490.35	20315.85
490.53	20133.29
490.70	20322.87
490.88	20463.30
491.06	20503.09
491.24	20788.64
491.41	20446.92
491.59	20964.18
491.77	20582.67
491.95	21064.82
492.13	21266.11
492.30	21453.35
492.48	22038.48
492.66	21565.70
492.84	21633.57
493.01	22054.87
493.19	21923.80
493.37	22061.89
493.54	22541.70
493.72	22419.99
493.90	22644.68
494.08	22820.22
494.25	23033.21
494.43	23063.64
494.61	23009.81
494.79	23133.86
494.96	23335.14
495.14	23637.07
495.32	23936.66
495.49	23555.15
495.67	23658.14
495.85	23974.11
496.02	23936.66
496.20	24556.90
496.38	23889.85
496.55	24449.24
496.73	25039.05
496.91	24582.65
497.09	24737.12
497.26	24907.98
497.44	24947.77
497.62	25053.09
497.79	24994.58
497.97	25139.69
498.14	25476.73
498.32	25427.58
498.50	25490.77
498.67	25893.35
498.85	25373.75
499.03	25963.56
499.20	26026.76
499.38	26185.91
499.56	26120.38
499.73	26302.94
499.91	26281.88
500.08	26345.07
500.26	26260.81
500.44	26597.85
500.61	26740.62
500.79	26391.88
500.97	26857.65
501.14	26515.93
501.32	27051.91
501.49	26836.58
501.67	27197.02
501.84	27285.97
502.02	27236.81
502.20	27585.55
502.37	27576.19
502.55	27459.16
502.72	27697.90
502.90	27812.59
503.07	27817.27
503.25	28278.35
503.43	27906.21
503.60	28056.00
503.78	27880.46
503.95	28034.94
504.13	28531.13
504.30	28465.60
504.48	28421.13
504.65	28823.70
504.83	28765.18
505.01	29413.51
505.18	29053.07
505.36	29415.85
505.53	29460.32
505.71	29390.11
505.88	29607.78
506.06	29256.70
506.23	29504.79
506.41	29228.61
506.58	29542.24
506.76	29607.78
506.93	29926.09
507.11	29439.26
507.28	30103.97
507.46	30118.01
507.63	29783.32
507.81	29975.24
507.98	29895.66
508.16	30139.08
508.33	30345.05
508.50	30387.18
508.68	30604.84
508.85	30801.45
509.03	30892.73
509.20	30962.95
509.38	31131.47
509.55	31311.69
509.73	30918.48
509.90	31070.61
510.08	31234.45
510.25	31417.01
510.42	31543.40
510.60	31276.58
510.77	31480.21
510.95	31945.97
511.12	31496.59
511.30	31873.42
511.47	32147.26
511.64	32357.91
511.82	32224.50
511.99	32191.73
512.17	32063.00
512.34	32088.74
512.51	32299.39
512.69	32222.16
512.86	32500.68
513.04	32779.20
513.21	32844.74
513.38	32357.91
513.56	32676.22
513.73	32582.60
513.90	32835.38
514.08	32652.81
514.25	33062.41
514.43	32957.08
514.60	33287.10
514.77	33214.54
514.95	33542.22
515.12	33146.67
515.29	33715.42
515.47	33759.89
515.64	33965.85
515.81	33694.35
515.99	33380.72
516.16	33607.75
516.33	33186.46
516.51	33511.79
516.68	32891.55
516.85	33141.99
517.03	33284.76
517.20	33692.01
517.37	34054.79
517.54	34171.82
517.72	33834.78
517.89	33759.89
518.06	33780.95
518.24	33970.54
518.41	34033.73
518.58	34167.14
518.75	34366.09
518.93	34637.59
519.10	34579.07
519.27	35035.48
519.45	34597.80
519.62	34869.30
519.79	35388.90
519.96	34979.31
520.14	35351.45
520.31	35318.68
520.48	35555.08
520.65	35278.89
520.83	35274.21
521.00	35674.45
521.17	35487.20
521.34	35639.34
521.52	35697.85
521.69	36297.03
521.86	36112.13
522.03	36051.27
522.20	36287.67
522.38	35990.42
522.55	36336.82
522.72	36217.45
522.89	36189.36
523.07	36531.08
523.24	36432.78
523.41	36851.73
523.58	36687.90
523.75	37221.54
523.92	36786.20
524.10	36919.61
524.27	36994.51
524.44	36886.84
524.61	37312.82
524.78	37017.91
524.96	36889.18
525.13	37247.29
525.30	37642.84
525.47	37390.06
525.64	37467.30
525.81	37457.93
525.98	37326.86
526.16	37158.34
526.33	37198.13
526.50	37368.99
526.67	36837.69
526.84	37099.83
527.01	37340.91
527.18	37434.53
527.36	38071.15
527.53	37806.67
527.70	38719.48
527.87	37848.80
528.04	38052.43
528.21	38579.05
528.38	38117.96
528.55	38405.85
528.72	38576.71
528.89	38642.24
529.07	38279.46
529.24	38281.80
529.41	38834.17
529.58	38527.56
529.75	38487.77
529.92	39218.02
530.09	38866.94
530.26	38667.99
530.43	38803.74
530.60	38939.49
530.77	38623.52
530.94	39323.34
531.11	39218.02
531.28	39323.34
531.46	39007.37
531.63	39423.98
531.80	39124.40
531.97	39512.92
532.14	38932.47
532.31	38852.89
532.48	39227.38
532.65	39594.84
532.82	39194.61
532.99	39405.26
533.16	39091.63
533.33	39552.71
533.50	40039.54
533.67	39754.00
533.84	39777.40
534.01	39658.04
534.18	39674.42
534.35	40266.58
534.52	40142.53
534.69	40371.90
534.86	40229.13
535.03	40315.73
535.20	40437.44
535.37	40994.48
535.54	40851.71
535.71	40521.69
535.88	40587.23
536.05	40692.55
536.22	40318.07
536.38	40327.43
536.55	40306.37
536.72	40385.94
536.89	40313.39
537.06	40786.18
537.23	40779.15
537.40	40741.71
537.57	40854.05
537.74	40985.12
537.91	41219.17
538.08	41153.64
538.25	40947.67
538.42	40905.54
538.59	41020.23
538.75	40664.47
538.92	41158.32
539.09	41184.07
539.26	40814.26
539.43	41563.23
539.60	41514.08
539.77	41045.97
539.94	41153.64
540.11	41659.20
540.28	41193.43
540.44	41177.04
540.61	41331.52
540.78	41516.42
540.95	40861.07
541.12	41116.19
541.29	41179.39
541.46	41785.58
541.62	41720.05
541.79	41684.94
541.96	41390.03
542.13	41640.47
542.30	41825.37
542.47	42160.07
542.63	41661.54
542.80	42274.76
542.97	41914.31
543.14	42417.53
543.31	42370.72
543.48	42190.50
543.64	42300.50
543.81	43126.71
543.98	42852.87
544.15	42487.74
544.32	42848.19
544.48	43164.16
544.65	42663.28
544.82	42761.59
544.99	41930.70
545.16	42181.13
545.32	42450.30
545.49	42670.31
545.66	43402.89
545.83	42712.44
546.00	43180.54
546.16	42625.84
546.33	43051.81
546.50	42738.18
546.67	42902.02
546.83	42525.19
547.00	42918.40
547.17	42742.86
547.34	42955.85
547.50	42871.59
547.67	43295.23
547.84	43105.65
548.00	43363.11
548.17	43454.39
548.34	43320.98
548.51	43398.21
548.67	43454.39
548.84	43512.90
549.01	43522.26
549.18	43147.78
549.34	43552.69
549.51	43379.49
549.68	43517.58
549.84	44046.54
550.01	44072.29
550.18	43618.22
550.34	43831.21
550.51	43505.88
550.68	43845.26
550.84	43213.31
551.01	44355.49
551.18	43580.78
551.34	43768.02
551.51	43742.27
551.68	43779.72
551.84	43695.46
552.01	43775.04
552.18	43878.02
552.34	43683.76
552.51	44051.22
552.68	44383.58
552.84	43908.45
553.01	44353.15
553.18	43768.02
553.34	44245.49
553.51	44109.74
553.67	44135.48
553.84	44779.13
554.01	44961.69
554.17	44428.05
554.34	44521.67
554.51	44275.91
554.67	44634.02
554.84	44673.81
555.00	43793.76
555.17	44243.15
555.33	44952.33
555.50	44854.03
555.67	44371.88
555.83	44477.20
556.00	44374.22
556.16	44875.09
556.33	44526.35
556.50	44737.00
556.66	44821.26
556.83	44339.11
556.99	44978.07
557.16	44662.10
557.32	44385.92
557.49	44992.12
557.65	44465.50
557.82	44741.68
557.98	44563.80
558.15	44713.59
558.32	44542.74
558.48	44961.69
558.65	44687.85
558.81	44818.92
558.98	44526.35
559.14	44919.56
559.31	44659.76
559.47	44949.99
559.64	44650.40
559.80	44896.16
559.97	44704.23
560.13	44524.01
560.30	44912.54
560.46	45139.57
560.63	45268.30
560.79	45003.82
560.96	45270.64
561.12	44758.06
561.29	44898.50
561.45	45364.26
561.61	44868.07
561.78	45165.32
561.94	45324.47
562.11	45162.98
562.27	44847.00
562.44	45111.49
562.60	45364.26
562.77	45113.83
562.93	45289.37
563.10	45598.32
563.26	44966.37
563.42	45631.08
563.59	45329.16
563.75	45134.89
563.92	45427.46
564.08	45617.04
564.24	45123.19
564.41	45233.19
564.57	45008.50
564.74	45244.90
564.90	45280.00
565.07	45542.14
565.23	45296.39
565.39	45109.14
565.56	45116.17
565.72	45228.51
565.88	45563.21
566.05	45078.72
566.21	44751.04
566.38	45193.40
566.54	45233.19
566.70	45336.18
566.87	45832.37
567.03	45766.84
567.19	45834.71
567.36	45689.60
567.52	45546.82
567.68	45628.74
567.85	45034.25
568.01	45462.57
568.17	45694.28
568.34	45640.45
568.50	45635.77
568.66	45296.39
568.83	45591.30
568.99	45345.54
569.15	45418.10
569.32	45705.98
569.48	45649.81
569.64	46066.42
569.81	45808.96
569.97	45406.39
570.13	45549.17
570.30	45125.53
570.46	45471.93
570.62	45284.68
570.78	44825.94
570.95	45237.87
571.11	45715.34
571.27	45577.25
571.43	45755.13
571.60	45272.98
571.76	45184.04
571.92	45642.79
572.09	45635.77
572.25	45549.17
572.41	45549.17
572.57	46019.61
572.74	45785.56
572.90	45652.15
573.06	45949.40
573.22	45675.55
573.38	46204.52
573.55	45851.09
573.71	46000.89
573.87	46033.66
574.03	45443.84
574.20	45401.71
574.36	45881.52
574.52	46164.73
574.68	45645.13
574.84	45619.38
575.01	45558.53
575.17	45848.75
575.33	45694.28
575.49	45574.91
575.65	45373.63
575.82	45998.55
575.98	45233.19
576.14	45823.01
576.30	46099.19
576.46	45656.83
576.62	45160.64
576.79	45635.77
576.95	45485.97
577.11	46108.55
577.27	45790.24
577.43	45834.71
577.59	45813.65
577.75	45460.23
577.92	45446.18
578.08	45631.08
578.24	45755.13
578.40	45731.73
578.56	45570.23
578.72	45647.47
578.88	46171.75
579.04	45954.08
579.21	45619.38
579.37	45713.00
579.53	45631.08
579.69	45521.08
579.85	45647.47
580.01	45546.82
580.17	45888.54
580.33	45684.92
580.49	45771.52
580.65	45954.08
580.82	45633.42
580.98	45736.41
581.14	45759.81
581.30	45949.40
581.46	45757.47
581.62	45986.85
581.78	45841.73
581.94	46075.79
582.10	46078.13
582.26	46256.01
582.42	45818.33
582.58	45787.90
582.74	45532.78
582.90	45804.28
583.06	46248.99
583.22	46204.52
583.38	46241.96
583.54	45965.78
583.70	45860.46
583.86	45937.69
584.02	45546.82
584.18	45930.67
584.34	45705.98
584.50	46391.76
584.66	45815.99
584.82	45820.67
584.98	45867.48
585.14	46277.07
585.30	45579.59
585.46	45799.60
585.62	45530.44
585.78	45872.16
585.94	45654.49
586.10	45862.80
586.26	45797.26
586.42	45972.80
586.58	45909.61
586.74	45830.03
586.90	45865.14
587.06	46110.89
587.22	46251.33
587.38	45818.33
587.54	45858.12
587.70	46253.67
587.86	45918.97
588.02	46019.61
588.18	45998.55
588.34	45797.26
588.49	45184.04
588.65	45453.20
588.81	45481.29
588.97	45457.88
589.13	45495.33
589.29	45771.52
589.45	45345.54
589.61	45839.39
589.77	46019.61
589.93	46059.40
590.08	45853.44
590.24	45830.03
590.40	46195.15
590.56	46321.54
590.72	45993.87
590.88	45715.34
591.04	46021.95
591.20	46003.23
591.35	46623.47
591.51	46616.45
591.67	45961.10
591.83	45961.10
591.99	45708.32
592.15	45977.48
592.31	46017.27
592.46	45832.37
592.62	46218.56
592.78	46302.82
592.94	46099.19
593.10	46040.68
593.26	46361.33
593.41	46213.88
593.57	45769.18
593.73	46068.76
593.89	45911.95
594.05	46136.64
594.20	45720.02
594.36	46120.26
594.52	45963.44
594.68	46021.95
594.84	45710.66
594.99	46305.16
595.15	45607.68
595.31	46398.78
595.47	46169.41
595.62	46068.76
595.78	46321.54
595.94	46204.52
596.10	46155.36
596.25	46174.09
596.41	46003.23
596.57	45467.25
596.73	45869.82
596.88	45745.77
597.04	46183.45
597.20	46103.87
597.36	46277.07
597.51	46218.56
597.67	45989.19
597.83	45752.79
597.99	46171.75
598.14	46122.60
598.30	46010.25
598.46	46433.89
598.61	46335.59
598.77	45958.76
598.93	46188.13
599.09	46211.54
599.24	46305.16
599.40	46609.43
599.56	46225.58
599.71	45942.38
599.87	46298.14
600.03	46045.36
600.18	45991.53
600.34	45881.52
600.50	45701.30
600.65	45717.68
600.81	46454.95
600.97	46511.13
601.12	46312.18
601.28	46136.64
601.44	45748.11
601.59	45764.49
601.75	45785.56
601.91	45858.12
602.06	45954.08
602.22	46160.05
602.37	45869.82
602.53	46043.02
602.69	46110.89
602.84	45979.82
603.00	46031.32
603.16	46279.41
603.31	45790.24
603.47	46047.70
603.62	45729.39
603.78	46110.89
603.94	46045.36
604.09	46422.19
604.25	46080.47
604.40	45921.31
604.56	46052.38
604.71	46155.36
604.87	46124.94
605.03	45698.96
605.18	45617.04
605.34	46230.26
605.49	45862.80
605.65	46108.55
605.80	45399.37
605.96	45844.07
606.12	45766.84
606.27	46199.83
606.43	45867.48
606.58	45787.90
606.74	45366.60
606.89	45640.45
607.05	45333.84
607.20	46450.27
607.36	45687.26
607.51	45778.54
607.67	45970.46
607.82	45574.91
607.98	45492.99
608.13	45275.32
608.29	45799.60
608.44	45205.11
608.60	45270.64
608.75	45942.38
608.91	45228.51
609.06	45064.67
609.22	45844.07
609.37	46033.66
609.53	45666.19
609.68	45675.55
609.84	45324.47
609.99	45502.35
610.15	45429.80
610.30	45689.60
610.46	45614.70
610.61	45078.72
610.76	45635.77
610.92	45778.54
611.07	45462.57
611.23	45579.59
611.38	45970.46
611.54	45411.07
611.69	45336.18
611.84	44985.10
612.00	45104.46
612.15	45158.30
612.31	45544.48
612.46	44907.86
612.62	45272.98
612.77	45272.98
612.92	45212.13
613.08	45207.45
613.23	44481.88
613.39	44601.25
613.54	44889.13
613.69	44914.88
613.85	44797.85
614.00	44830.62
614.15	45167.66
614.31	45048.29
614.46	45003.82
614.62	45219.15
614.77	44463.16
614.92	44753.38
615.08	44648.06
615.23	44751.04
615.38	44828.28
615.54	44540.39
615.69	44516.99
615.84	44547.42
616.00	44643.38
616.15	44376.56
616.30	44734.66
616.46	44589.55
616.61	44257.19
616.76	44294.64
616.92	44018.46
617.07	44774.45
617.22	44238.47
617.37	44334.43
617.53	44905.52
617.68	44577.84
617.83	44425.71
617.99	44215.06
618.14	44858.71
618.29	44582.52
618.45	44177.61
618.60	44296.98
618.75	44041.86
618.90	43908.45
619.06	44189.31
619.21	44030.16
619.36	44165.91
619.51	43531.62
619.67	43613.54
619.82	43896.75
619.97	43599.50
620.12	43643.97
620.28	43393.53
620.43	44030.16
620.58	43772.70
620.73	44004.41
620.89	43826.53
621.04	44463.16
621.19	43992.71
621.34	43868.66
621.49	43562.05
621.65	43512.90
621.80	43683.76
621.95	43543.33
622.10	43681.42
622.25	43447.36
622.41	43892.07
622.56	43639.29
622.71	43901.43
622.86	43615.88
623.01	43517.58
623.16	43866.32
623.32	43512.90
623.47	43419.28
623.62	43789.08
623.77	43227.35
623.92	42827.12
624.07	43136.07
624.23	43021.39
624.38	43360.76
624.53	43320.98
624.68	42948.83
624.83	43339.70
624.98	43122.03
625.13	42995.64
625.29	42988.62
625.44	43381.83
625.59	42927.77
625.74	42799.04
625.89	42625.84
626.04	42293.48
626.19	42869.25
626.34	42834.14
626.49	42642.22
626.65	42953.51
626.80	43019.05
626.95	42347.31
627.10	42607.11
627.25	42576.69
627.40	42759.25
627.55	42834.14
627.70	42190.50
627.85	42394.12
628.00	42679.67
628.15	42567.32
628.30	42609.45
628.45	42801.38
628.60	42541.58
628.76	42754.57
628.91	42426.89
629.06	41909.63
629.21	42005.59
629.36	42211.56
629.51	41741.11
629.66	42293.48
629.81	42143.69
629.96	42040.70
630.11	42164.75
630.26	42190.50
630.41	42398.80
630.56	42141.35
630.71	42000.91
630.86	41769.20
631.01	41560.89
631.16	41605.36
631.31	41839.42
631.46	41507.06
631.61	41673.24
631.76	41708.35
631.91	42153.05
632.06	42047.72
632.21	41830.05
632.36	41949.42
632.51	41706.01
632.66	41869.84
632.81	41488.34
632.96	41476.63
633.10	41652.17
633.25	41249.60
633.40	41385.35
633.55	41741.11
633.70	41167.68
633.85	41607.70
634.00	41888.57
634.15	41710.69
634.30	41408.76
634.45	41404.08
634.60	41212.15
634.75	41280.03
634.90	41256.62
635.05	41345.56
635.19	41289.39
635.34	41254.28
635.49	41280.03
635.64	41155.98
635.79	40938.31
635.94	41247.26
636.09	40739.36
636.24	40886.82
636.39	40589.57
636.53	41146.62
636.68	40627.02
636.83	40975.76
636.98	41123.21
637.13	40788.52
637.28	41303.43
637.43	41118.53
637.57	40739.36
637.72	40847.03
637.87	40634.04
638.02	41265.99
638.17	40760.43
638.32	40428.07
638.46	40587.23
638.61	40313.39
638.76	40320.41
638.91	40500.63
639.06	40636.38
639.20	40648.08
639.35	40865.75
639.50	39875.71
639.65	40524.04
639.80	40451.48
639.94	40407.01
640.09	40519.35
640.24	40800.22
640.39	40013.80
640.54	39908.47
640.68	40004.44
640.83	40149.55
640.98	40236.15
641.13	39615.91
641.27	39847.62
641.42	39756.34
641.57	40076.99
641.72	39868.69
641.86	39864.00
642.01	39454.41
642.16	40236.15
642.31	39688.46
642.45	40179.98
642.60	39321.00
642.75	39819.53
642.90	39934.22
643.04	39854.64
643.19	39660.38
643.34	39777.40
643.48	39484.84
643.63	39632.29
643.78	39360.79
643.93	39431.01
644.07	39484.84
644.22	39295.25
644.37	39058.86
644.51	39054.18
644.66	39618.25
644.81	39243.76
644.95	39548.03
645.10	39365.47
645.25	39187.59
645.39	39306.96
645.54	39590.16
645.69	39173.55
645.83	38714.80
645.98	39112.69
646.13	39084.61
646.27	39210.99
646.42	38822.47
646.57	39449.73
646.71	39213.34
646.86	39210.99
647.00	39108.01
647.15	38892.68
647.30	39026.09
647.44	38955.88
647.59	39157.16
647.74	38651.61
647.88	39033.11
648.03	39150.14
648.17	38403.51
648.32	38897.36
648.47	38850.55
648.61	38277.12
648.76	38988.64
648.90	38698.42
649.05	38824.81
649.20	38981.62
649.34	38618.84
649.49	38555.64
649.63	38810.76
649.78	38321.59
649.92	38557.99
650.07	38955.88
650.21	38803.74
650.36	38714.80
650.51	38415.21
650.65	38983.96
650.80	39082.27
650.94	38731.18
651.09	38623.52
651.23	37780.93
651.38	37818.38
651.52	37916.68
651.67	37923.70
651.81	37755.18
651.96	37844.12
652.10	38148.39
652.25	38284.14
652.39	38632.88
652.54	38300.53
652.68	38073.49
652.83	38005.62
652.97	38560.33
653.12	38019.66
653.26	37780.93
653.41	37708.37
653.55	37853.48
653.70	37998.60
653.84	37750.50
653.99	37631.13
654.13	37509.43
654.27	37933.06
654.42	37661.56
654.56	37989.24
654.71	37965.83
654.85	37535.17
655.00	38438.62
655.14	37675.60
655.29	37106.85
655.43	37539.85
655.57	37001.53
655.72	36973.44
655.86	37116.22
656.01	36830.67
656.15	36903.23
656.30	37062.38
656.44	36954.72
656.58	37251.97
656.73	37268.35
656.87	37153.66
657.01	37247.29
657.16	36856.42
657.30	36643.43
657.45	36933.65
657.59	36643.43
657.73	36837.69
657.88	37010.89
658.02	36975.78
658.16	36414.05
658.31	37013.23
658.45	37212.18
658.60	37109.19
658.74	37172.39
658.88	37221.54
659.03	36687.90
659.17	36730.03
659.31	36797.90
659.46	36268.94
659.60	36332.14
659.74	36484.27
659.89	36531.08
660.03	36421.08
660.17	36790.88
660.32	36669.17
660.46	36432.78
660.60	35892.12
660.74	36187.02
660.89	36453.84
661.03	36268.94
661.17	36025.53
661.32	36030.21
661.46	35644.02
661.60	35747.00
661.74	35716.58
661.89	35686.15
662.03	35765.73
662.17	35700.19
662.31	35915.52
662.46	36231.49
662.60	35835.94
662.74	35761.05
662.88	35702.53
663.03	35578.48
663.17	35491.88
663.31	35349.11
663.45	35653.38
663.60	35292.94
663.74	35988.08
663.88	35082.29
664.02	35199.32
664.17	35112.72
664.31	35367.84
664.45	34986.33
664.59	35248.47
664.73	35236.77
664.88	35061.22
665.02	34738.23
665.16	34349.70
665.30	34480.77
665.44	34637.59
665.59	34319.28
665.73	34651.63
665.87	34380.13
666.01	34190.55
666.15	34305.23
666.29	34515.88
666.44	34476.09
666.58	34469.07
666.72	34288.85
666.86	34181.18
667.00	34153.10
667.14	33890.96
667.28	34010.32
667.43	34223.31
667.57	33886.28
667.71	34017.35
667.85	33895.64
667.99	33776.27
668.13	33703.71
668.27	34223.31
668.41	33827.76
668.56	33638.18
668.70	33584.35
668.84	33722.44
668.98	33322.21
669.12	33500.09
669.26	33656.90
669.40	33031.98
669.54	32781.54
669.68	33123.26
669.82	32573.24
669.96	33022.62
670.10	32861.12
670.25	33020.28
670.39	32765.16
670.53	33116.24
670.67	32584.94
670.81	33029.64
670.95	32659.84
671.09	32404.72
671.23	32542.81
671.37	32533.45
671.51	32266.63
671.65	32404.72
671.79	32287.69
671.93	31997.46
672.07	32130.87
672.21	31831.29
672.35	31732.98
672.49	31962.36
672.63	31716.60
672.77	31615.96
672.91	31814.90
673.05	32065.34
673.19	31503.61
673.33	31365.52
673.47	31234.45
673.61	31395.95
673.75	31101.04
673.89	31281.26
674.03	30569.74
674.17	31194.66
674.31	31215.72
674.45	31112.74
674.59	31295.30
674.73	31122.10
674.87	31250.83
675.01	30909.11
675.15	30843.58
675.29	30726.55
675.43	30651.66
675.56	30904.43
675.70	30302.92
675.84	30483.14
675.98	29785.66
676.12	30258.45
676.26	30050.14
676.40	30483.14
676.54	30295.89
676.68	30136.74
676.82	29198.18
676.96	29888.64
677.10	29773.95
677.23	29535.22
677.37	29289.46
677.51	29359.68
677.65	29055.41
677.79	28863.49
677.93	28879.87
678.07	28404.74
678.21	28788.59
678.34	28751.14
678.48	28470.28
678.62	28596.67
678.76	28304.10
678.90	28191.75
679.04	28257.29
679.18	28182.39
679.31	28238.56
679.45	27702.58
679.59	27908.55
679.73	27835.99
679.87	27419.38
680.00	27672.15
680.14	27494.27
680.28	27433.42
680.42	27344.48
680.56	27459.16
680.70	27775.14
680.83	27096.38
680.97	27070.64
681.11	26871.69
681.25	26883.39
681.39	27065.96
681.52	26637.64
681.66	26728.92
681.80	26618.91
681.94	26707.85
682.07	26267.83
682.21	26321.66
682.35	26408.26
682.49	26199.96
682.62	25883.98
682.76	26284.22
682.90	26047.82
683.04	26040.80
683.17	25659.29
683.31	25336.30
683.45	25809.09
683.59	25364.39
683.72	25348.00
683.86	25242.68
684.00	24959.47
684.13	24882.24
684.27	24840.11
684.41	24730.10
684.55	24737.12
684.68	24741.80
684.82	24730.10
684.96	24730.10
685.09	24470.30
685.23	24631.80
685.37	24460.94
685.50	24545.20
685.64	24482.00
685.78	24474.98
685.91	24297.10
686.05	23461.53
686.19	24067.73
686.32	23878.15
686.46	23545.79
686.60	22977.04
686.73	22913.84
686.87	23157.26
687.01	23063.64
687.14	22920.87
687.28	23077.68
687.42	22618.94
687.55	22930.23
687.69	23058.96
687.82	22874.06
687.96	22778.09
688.10	22628.30
688.23	22387.22
688.37	22408.29
688.50	22494.89
688.64	22216.36
688.78	22237.43
688.91	22033.80
689.05	21937.84
689.18	21874.65
689.32	21631.23
689.46	21895.71
689.59	21928.48
689.73	21755.28
689.86	21827.84
690.00	21633.57
690.13	21685.06
690.27	20999.29
690.41	21256.75
690.54	21025.03
690.68	21231.00
690.81	21188.87
690.95	20755.87
691.08	21188.87
691.22	21022.69
691.35	20912.69
691.49	20783.96
691.62	20786.30
691.76	20865.88
691.89	20702.04
692.03	20203.50
692.16	20339.26
692.30	20252.66
692.43	20355.64
692.57	19807.95
692.70	19962.43
692.84	19697.95
692.97	19964.77
693.11	19681.56
693.24	19487.30
693.38	19248.57
693.51	19491.98
693.65	19562.20
693.78	19534.11
693.92	19351.55
694.05	19185.37
694.19	19225.16
694.32	18974.72
694.45	19234.52
694.59	18913.87
694.72	18899.83
694.86	18752.37
694.99	18663.43
695.13	18719.60
695.26	18443.42
695.39	18396.61
695.53	18670.45
695.66	18441.08
695.80	18338.10
695.93	18246.82
696.07	18024.47
696.20	18061.91
696.33	18045.53
696.47	17844.24
696.60	17710.83
696.73	17806.80
696.87	17539.97
697.00	17397.20
697.14	17476.78
697.27	17160.81
697.40	17053.14
697.54	17238.05
697.67	16954.84
697.80	17280.18
697.94	16917.39
698.07	17179.53
698.21	17172.51
698.34	16917.39
698.47	17118.68
698.61	16517.16
698.74	16641.21
698.87	16809.73
699.01	16386.09
699.14	16264.38
699.27	16121.61
699.40	16519.50
699.54	16030.33
699.67	16177.78
699.80	16175.44
699.94	15992.88
700.07	16189.49
700.20	15988.20
700.34	16095.86
700.47	15721.38
700.60	15559.88
700.73	16046.71
700.87	15384.34
701.00	15204.12
701.13	15201.78
701.26	15227.53
701.40	15066.03
701.53	14967.73
701.66	15117.52
701.79	15051.99
701.93	15105.82
702.06	15154.97
702.19	14501.96
702.32	14888.15
702.46	14738.35
702.59	14876.44
702.72	14831.97
702.85	14771.12
702.99	14342.80
703.12	14546.43
703.25	14347.48
703.38	14331.10
703.51	14214.07
703.65	14057.26
703.78	13987.04
703.91	14087.68
704.04	14167.26
704.17	13921.51
704.31	14066.62
704.44	13853.63
704.57	13720.22
704.70	13790.44
704.83	13607.87
704.96	13406.59
705.10	13532.98
705.23	13341.05
>>>>>End Processed Spectral Data<<<<<
