SpectraSuite Data File
++++++++++++++++++++++++++++++++++++
Date: Fri Oct 25 11:34:02 EDT 2013
User: price-jones
Dark Spectrum Present: No
Reference Spectrum Present: No
Number of Sampled Component Spectra: 1
Spectrometers: USB2+H05261
Integration Time (usec): 100000 (USB2+H05261)
Spectra Averaged: 1 (USB2+H05261)
Boxcar Smoothing: 0 (USB2+H05261)
Correct for Electrical Dark: No (USB2+H05261)
Strobe/Lamp Enabled: No (USB2+H05261)
Correct for Detector Non-linearity: No (USB2+H05261)
Correct for Stray Light: No (USB2+H05261)
Number of Pixels in Processed Spectrum: 2048
>>>>>Begin Processed Spectral Data<<<<<
365.73	334.70
365.92	334.70
366.12	334.70
366.32	212.99
366.52	131.07
366.72	184.90
366.91	210.65
367.11	224.69
367.31	156.82
367.51	161.50
367.70	163.84
367.90	175.54
368.10	187.24
368.30	187.24
368.49	208.31
368.69	154.48
368.89	215.33
369.09	170.86
369.28	227.03
369.48	194.26
369.68	290.23
369.87	217.67
370.07	227.03
370.27	187.24
370.47	294.91
370.66	491.51
370.86	557.05
371.06	458.74
371.25	507.90
371.45	538.32
371.65	521.94
371.84	538.32
372.04	470.45
372.24	521.94
372.44	550.03
372.63	557.05
372.83	557.05
373.03	547.69
373.22	575.77
373.42	688.12
373.62	629.60
373.81	631.94
374.01	645.99
374.21	690.46
374.40	662.37
374.60	704.50
374.79	578.11
374.99	622.58
375.19	587.47
375.38	655.35
375.58	545.34
375.78	688.12
375.97	592.16
376.17	634.29
376.37	692.80
376.56	676.41
376.76	620.24
376.95	669.39
377.15	601.52
377.35	638.97
377.54	643.65
377.74	660.03
377.93	688.12
378.13	624.92
378.33	690.46
378.52	713.86
378.72	723.23
378.91	662.37
379.11	713.86
379.31	669.39
379.50	706.84
379.70	748.97
379.89	713.86
380.09	744.29
380.28	730.25
380.48	641.31
380.68	667.05
380.87	734.93
381.07	709.18
381.26	741.95
381.46	671.73
381.65	755.99
381.85	734.93
382.04	770.04
382.24	674.07
382.43	774.72
382.63	753.65
382.83	765.36
383.02	741.95
383.22	786.42
383.41	739.61
383.61	779.40
383.80	805.14
384.00	800.46
384.19	821.53
384.39	739.61
384.58	802.80
384.78	858.98
384.97	863.66
385.17	830.89
385.36	805.14
385.56	767.70
385.75	821.53
385.95	826.21
386.14	837.91
386.34	816.85
386.53	821.53
386.72	779.40
386.92	873.02
387.11	910.47
387.31	812.17
387.50	898.77
387.70	851.96
387.89	968.98
388.09	905.79
388.28	912.81
388.48	809.83
388.67	837.91
388.86	880.04
389.06	922.17
389.25	945.58
389.45	870.68
389.64	1015.79
389.84	950.26
390.03	887.06
390.22	950.26
390.42	929.19
390.61	884.72
390.81	931.53
391.00	1001.75
391.19	980.68
391.39	868.34
391.58	912.81
391.78	1069.62
391.97	987.71
392.16	1057.92
392.36	1057.92
392.55	978.34
392.75	1149.20
392.94	1067.28
393.13	1020.47
393.33	1036.86
393.52	1067.28
393.71	1050.90
393.91	1076.65
394.10	1086.01
394.29	1130.48
394.49	1097.71
394.68	1062.60
394.88	1050.90
395.07	1139.84
395.26	1207.72
395.46	1170.27
395.65	1132.82
395.84	1111.75
396.04	1179.63
396.23	1100.05
396.42	1249.85
396.62	1210.06
396.81	1186.65
397.00	1174.95
397.19	1217.08
397.39	1221.76
397.58	1296.66
397.77	1289.64
397.97	1224.10
398.16	1280.27
398.35	1263.89
398.55	1334.11
398.74	1217.08
398.93	1366.87
399.12	1327.08
399.32	1254.53
399.51	1371.55
399.70	1481.56
399.90	1401.98
400.09	1327.08
400.28	1369.21
400.47	1416.02
400.67	1345.81
400.86	1409.00
401.05	1348.15
401.24	1432.41
401.44	1432.41
401.63	1334.11
401.82	1444.11
402.01	1376.24
402.21	1401.98
402.40	1474.54
402.59	1502.62
402.78	1488.58
402.97	1483.90
403.17	1504.96
403.36	1462.83
403.55	1530.71
403.74	1556.46
403.93	1537.73
404.13	1521.35
404.32	1570.50
404.51	1629.01
404.70	1591.56
404.89	1659.44
405.09	1685.19
405.28	1664.12
405.47	1554.12
405.66	1671.14
405.85	1720.29
406.05	1671.14
406.24	1703.91
406.43	1727.32
406.62	1851.36
406.81	1769.44
407.00	1713.27
407.20	1769.44
407.39	1762.42
407.58	1732.00
407.77	1746.04
407.96	1877.11
408.15	1891.15
408.34	1912.22
408.54	1863.07
408.73	1884.13
408.92	1935.62
409.11	1900.52
409.30	2031.58
409.49	1977.75
409.68	1942.64
409.87	1923.92
410.07	2029.24
410.26	2029.24
410.45	2078.40
410.64	2031.58
410.83	2188.40
411.02	2026.90
411.21	2172.02
411.40	2033.93
411.59	2150.95
411.78	2113.50
411.98	2176.70
412.17	2134.57
412.36	2263.30
412.55	2324.15
412.74	2387.35
412.93	2347.56
413.12	2216.49
413.31	2354.58
413.50	2417.77
413.69	2354.58
413.88	2361.60
414.07	2380.32
414.26	2530.12
414.45	2448.20
414.64	2483.31
414.83	2511.39
415.02	2560.55
415.22	2572.25
415.41	2703.32
415.60	2579.27
415.79	2595.65
415.98	2656.51
416.17	2717.36
416.36	2656.51
416.55	2726.72
416.74	2724.38
416.93	2789.92
417.12	2857.79
417.31	2820.35
417.50	2759.49
417.69	2825.03
417.88	2799.28
418.07	2963.12
418.26	2864.82
418.45	2986.52
418.64	2986.52
418.83	2986.52
419.02	3087.17
419.21	3012.27
419.39	3016.95
419.58	2967.80
419.77	3012.27
419.96	3206.53
420.15	3276.75
420.34	3178.45
420.53	3091.85
420.72	3199.51
420.91	3155.04
421.10	3159.72
421.29	3159.72
421.48	3251.00
421.67	3269.73
421.86	3117.59
422.05	3267.39
422.24	3260.37
422.43	3323.56
422.61	3368.03
422.80	3461.65
422.99	3302.50
423.18	3431.23
423.37	3379.73
423.56	3204.19
423.75	3386.76
423.94	3201.85
424.13	3246.32
424.32	3361.01
424.50	3342.28
424.69	3342.28
424.88	3433.57
425.07	3304.84
425.26	3396.12
425.45	3309.52
425.64	3368.03
425.83	3393.78
426.01	3335.26
426.20	3496.76
426.39	3368.03
426.58	3424.20
426.77	3199.51
426.96	3543.57
427.15	3358.67
427.33	3426.54
427.52	3475.70
427.71	3529.53
427.90	3468.67
428.09	3595.06
428.28	3709.75
428.46	3576.34
428.65	3492.08
428.84	3639.53
429.03	3758.90
429.22	3758.90
429.40	3620.81
429.59	3735.50
429.78	3590.38
429.97	3651.24
430.16	3763.58
430.34	3768.26
430.53	3789.33
430.72	3758.90
430.91	3812.73
431.10	3880.61
431.28	3904.01
431.47	3904.01
431.66	3873.59
431.85	3899.33
432.03	3847.84
432.22	4173.18
432.41	3964.87
432.60	4025.72
432.79	3976.57
432.97	4203.60
433.16	4053.81
433.35	4142.75
433.54	4131.05
433.72	4191.90
433.91	4184.88
434.10	3960.19
434.28	4109.98
434.47	4182.54
434.66	4198.92
434.85	4365.10
435.03	4219.99
435.22	4107.64
435.41	4334.67
435.59	4273.82
435.78	4341.69
435.97	4451.70
436.16	4376.80
436.34	4374.46
436.53	4421.27
436.72	4442.34
436.90	4348.72
437.09	4402.55
437.28	4337.01
437.46	4608.51
437.65	4428.29
437.84	4573.41
438.02	4510.21
438.21	4552.34
438.40	4376.80
438.58	4833.21
438.77	4770.01
438.96	4711.50
439.14	4702.14
439.33	4854.27
439.52	4784.06
439.70	4828.53
439.89	4835.55
440.08	4929.17
440.26	5022.79
440.45	4912.78
440.63	4901.08
440.82	5109.39
441.01	4950.23
441.19	5050.88
441.38	5181.95
441.57	5048.54
441.75	5210.03
441.94	5371.53
442.12	5270.89
442.31	5231.10
442.50	5345.78
442.68	5074.28
442.87	5408.98
443.05	5518.98
443.24	5336.42
443.43	5441.75
443.61	5479.19
443.80	5521.32
443.98	5394.93
444.17	5322.38
444.35	5572.82
444.54	5572.82
444.73	5614.95
444.91	5488.56
445.10	5652.39
445.28	5610.26
445.47	5628.99
445.65	5654.73
445.84	5731.97
446.02	5746.02
446.21	5558.77
446.39	5645.37
446.58	5659.42
446.77	5640.69
446.95	5518.98
447.14	5682.82
447.32	5715.59
447.51	5614.95
447.69	5687.50
447.88	5696.86
448.06	5849.00
448.25	5652.39
448.43	5654.73
448.62	5692.18
448.80	5631.33
448.99	5678.14
449.17	5781.12
449.36	5785.80
449.54	5706.23
449.73	6099.44
449.91	5963.68
450.10	6064.33
450.28	6090.07
450.46	6183.70
450.65	6026.88
450.83	6054.97
451.02	6036.24
451.20	6059.65
451.39	6186.04
451.57	6069.01
451.76	6094.76
451.94	6036.24
452.13	6040.92
452.31	6157.95
452.49	6050.28
452.68	6209.44
452.86	6256.25
453.05	6174.33
453.23	6399.02
453.42	6097.10
453.60	6207.10
453.78	6256.25
453.97	6204.76
454.15	6232.85
454.34	6284.34
454.52	6448.18
454.70	6354.55
454.89	6530.09
455.07	6464.56
455.26	6523.07
455.44	6604.99
455.62	6574.56
455.81	6597.97
455.99	6675.21
456.17	6743.08
456.36	6642.44
456.54	6860.11
456.73	6836.70
456.91	6932.67
457.09	7066.08
457.28	7056.72
457.46	6913.94
457.64	6956.07
457.83	6864.79
458.01	6890.54
458.19	7096.50
458.38	7012.24
458.56	7222.89
458.74	7077.78
458.93	7070.76
459.11	7026.29
459.29	7108.21
459.48	7112.89
459.66	7089.48
459.84	7194.81
460.03	7262.68
460.21	7250.98
460.39	7162.04
460.57	7283.75
460.76	7253.32
460.94	7391.41
461.12	7440.56
461.31	7403.11
461.49	7171.40
461.67	7431.20
461.85	7302.47
462.04	7709.72
462.22	7845.48
462.40	7634.83
462.59	7555.25
462.77	7585.68
462.95	7632.49
463.13	7522.48
463.32	7623.12
463.50	7674.62
463.68	7749.51
463.86	7854.84
464.05	7681.64
464.23	7627.81
464.41	7808.03
464.59	7651.21
464.78	7962.50
464.96	7948.46
465.14	7796.32
465.32	7981.23
465.50	7939.10
465.69	7934.42
465.87	7943.78
466.05	8004.63
466.23	7864.20
466.41	7981.23
466.60	8224.64
466.78	7999.95
466.96	8049.10
467.14	8119.32
467.32	8142.72
467.51	8252.73
467.69	8056.12
467.87	8114.64
468.05	8226.98
468.23	8124.00
468.41	8093.57
468.60	8226.98
468.78	8231.66
468.96	8177.83
469.14	8463.38
469.32	8463.38
469.50	8344.01
469.69	8594.45
469.87	8421.25
470.05	8578.06
470.23	8496.14
470.41	8662.32
470.59	8697.43
470.77	8664.66
470.95	8711.47
471.14	8854.25
471.32	8732.54
471.50	8884.67
471.68	8987.66
471.86	8947.87
472.04	8849.57
472.22	9252.14
472.40	9036.81
472.58	9067.24
472.77	9207.67
472.95	9153.84
473.13	9650.03
473.31	9315.33
473.49	9238.09
473.67	9219.37
473.85	9404.27
474.03	9748.33
474.21	9467.47
474.39	9544.70
474.57	9547.05
474.75	9643.01
474.93	9928.55
475.12	9586.83
475.30	9837.27
475.48	9720.24
475.66	10024.51
475.84	9799.82
476.02	10033.88
476.20	9921.53
476.38	10141.54
476.56	10565.18
476.74	10455.17
476.92	10703.27
477.10	10244.52
477.28	10675.18
477.46	10410.70
477.64	10761.78
477.82	10539.43
478.00	11105.84
478.18	10799.23
478.36	11028.60
478.54	10977.11
478.72	11171.38
478.90	11440.54
479.08	11489.69
479.26	11543.52
479.44	11393.73
479.62	11583.31
479.80	11674.59
479.98	11782.26
480.16	12177.81
480.34	11943.75
480.52	12044.40
480.70	12002.27
480.88	11908.65
481.06	12006.95
481.24	12283.13
481.41	12404.84
481.59	12706.77
481.77	12540.59
481.95	12650.60
482.13	12812.09
482.31	13027.42
482.49	13217.01
482.67	13172.54
482.85	13114.02
483.03	13453.40
483.21	13282.54
483.39	13827.88
483.57	13446.38
483.74	13511.91
483.92	13774.05
484.10	13865.33
484.28	14019.81
484.46	14427.06
484.64	14530.05
484.82	14253.86
485.00	14193.01
485.18	14906.87
485.35	14813.25
485.53	14853.04
485.71	15012.20
485.89	15515.41
486.07	15279.02
486.25	15040.28
486.43	15227.53
486.61	15634.78
486.78	15594.99
486.96	15545.84
487.14	15843.09
487.32	15721.38
487.50	16119.27
487.68	16189.49
487.85	16465.67
488.03	16477.37
488.21	16681.00
488.39	16631.85
488.57	16741.85
488.75	16718.45
488.92	17106.98
489.10	17242.73
489.28	17415.93
489.46	17593.81
489.64	17460.40
489.81	18031.49
489.99	17811.48
490.17	18181.28
490.35	18207.03
490.53	17930.84
490.70	18221.07
490.88	18153.20
491.06	18595.56
491.24	18567.47
491.41	18970.04
491.59	19166.65
491.77	18918.55
491.95	19164.31
492.13	19215.80
492.30	19260.27
492.48	19667.52
492.66	19613.69
492.84	19676.88
493.01	19594.96
493.19	20121.59
493.37	19953.07
493.54	20002.22
493.72	20149.67
493.90	20467.98
494.08	20505.43
494.25	20432.88
494.43	20631.82
494.61	20680.97
494.79	20882.26
494.96	20741.83
495.14	20978.22
495.32	21298.88
495.49	21111.63
495.67	21418.24
495.85	21509.52
496.02	21446.33
496.20	22017.42
496.38	21930.82
496.55	21963.59
496.73	22824.90
496.91	22211.68
497.09	22319.35
497.26	22630.64
497.44	22427.01
497.62	22459.78
497.79	23005.13
497.97	23077.68
498.14	23175.98
498.32	23288.33
498.50	23190.03
498.67	23819.63
498.85	23740.05
499.03	23583.24
499.20	23864.10
499.38	23353.87
499.56	24236.25
499.73	24053.69
499.91	24189.44
500.08	24290.08
500.26	24023.26
500.44	24430.51
500.61	24493.71
500.79	24514.77
500.97	24568.60
501.14	24793.29
501.32	25020.33
501.49	24741.80
501.67	24849.47
501.84	25680.36
502.02	25088.20
502.20	25240.34
502.37	25123.31
502.55	25504.82
502.72	25390.13
502.90	25755.26
503.07	25563.33
503.25	25834.83
503.43	25685.04
503.60	25642.91
503.78	25820.79
503.95	25656.95
504.13	25926.11
504.30	26434.01
504.48	26405.92
504.65	26431.67
504.83	26321.66
505.01	26932.54
505.18	26878.71
505.36	26829.56
505.53	26803.82
505.71	26551.04
505.88	27300.01
506.06	27103.40
506.23	27047.23
506.41	27023.83
506.58	27330.44
506.76	27349.16
506.93	27480.23
507.11	27494.27
507.28	27454.48
507.46	27604.28
507.63	27693.22
507.81	28173.03
507.98	27957.70
508.16	28095.79
508.33	28091.11
508.50	28360.27
508.68	28311.12
508.85	28474.96
509.03	28226.86
509.20	28456.23
509.38	28748.80
509.55	28849.44
509.73	28884.55
509.90	28687.95
510.08	28917.32
510.25	29214.57
510.42	28526.45
510.60	29221.59
510.77	29259.04
510.95	29778.64
511.12	29525.86
511.30	29418.19
511.47	29373.72
511.64	29614.80
511.82	29919.07
511.99	29766.93
512.17	30230.36
512.34	30398.88
512.51	30223.34
512.69	30436.33
512.86	30356.75
513.04	30525.27
513.21	30455.05
513.38	30738.26
513.56	30724.21
513.73	30450.37
513.90	30614.21
514.08	30682.08
514.25	30719.53
514.43	30897.41
514.60	30764.00
514.77	30911.46
514.95	31653.40
515.12	31026.14
515.29	31056.57
515.47	31351.48
515.64	31784.48
515.81	31658.09
515.99	31770.43
516.16	32077.04
516.33	31604.25
516.51	31903.84
516.68	31658.09
516.85	32114.49
517.03	32128.53
517.20	32308.76
517.37	32023.21
517.54	32123.85
517.72	32187.05
517.89	32451.53
518.06	32533.45
518.24	32613.02
518.41	32187.05
518.58	32575.58
518.75	32367.27
518.93	33017.94
519.10	32802.61
519.27	32783.88
519.45	32893.89
519.62	33156.03
519.79	32952.40
519.96	33170.07
520.14	33434.55
520.31	33287.10
520.48	33455.62
520.65	33345.61
520.83	33858.19
521.00	33652.22
521.17	33633.50
521.34	33764.57
521.52	33736.48
521.69	33846.49
521.86	33935.43
522.03	34333.32
522.20	34422.26
522.38	34291.19
522.55	34700.78
522.72	34176.50
522.89	34576.73
523.07	34969.94
523.24	34789.72
523.41	34967.60
523.58	34274.80
523.75	35070.59
523.92	34703.12
524.10	34714.83
524.27	35166.55
524.44	34852.92
524.61	35545.72
524.78	35204.00
524.96	35587.85
525.13	35026.12
525.30	35555.08
525.47	35847.64
525.64	35248.47
525.81	35693.17
525.98	35819.56
526.16	35821.90
526.33	35545.72
526.50	36322.77
526.67	35859.35
526.84	36119.15
527.01	35931.90
527.18	35910.84
527.36	36297.03
527.53	36421.08
527.70	36528.74
527.87	36442.14
528.04	36601.30
528.21	36594.28
528.38	36484.27
528.55	36662.15
528.72	36603.64
528.89	36926.63
529.07	36711.30
529.24	36589.59
529.41	36767.48
529.58	36458.52
529.75	36795.56
529.92	37268.35
530.09	36872.80
530.26	37439.21
530.43	36783.86
530.60	36954.72
530.77	37144.30
530.94	37453.25
531.11	37148.98
531.28	37488.36
531.46	37137.28
531.63	37420.48
531.80	37766.88
531.97	37713.05
532.14	37287.07
532.31	38029.02
532.48	37720.07
532.65	38281.80
532.82	37553.90
532.99	38190.52
533.16	37991.58
533.33	38106.26
533.50	37984.55
533.67	38232.65
533.84	37902.64
534.01	38375.42
534.18	38459.68
534.35	38677.35
534.52	38286.48
534.69	38923.11
534.86	38745.23
535.03	38902.04
535.20	38698.42
535.37	38841.19
535.54	39040.14
535.71	38953.54
535.88	38981.62
536.05	38689.06
536.22	38857.57
536.38	39009.71
536.55	39295.25
536.72	39093.97
536.89	38831.83
537.06	39344.41
537.23	39206.31
537.40	39093.97
537.57	39105.67
537.74	39124.40
537.91	39531.65
538.08	39297.59
538.25	39267.17
538.42	39405.26
538.59	39861.66
538.75	39487.18
538.92	39966.99
539.09	40112.10
539.26	40411.69
539.43	40062.95
539.60	40020.82
539.77	40076.99
539.94	40074.65
540.11	39660.38
540.28	40053.59
540.44	40119.12
540.61	40109.76
540.78	40079.33
540.95	40339.13
541.12	40297.00
541.29	40399.99
541.46	40304.02
541.62	40392.97
541.79	40421.05
541.96	40397.65
542.13	40076.99
542.30	40238.49
542.47	40748.73
542.63	40772.13
542.80	41247.26
542.97	41303.43
543.14	41303.43
543.31	41083.42
543.48	41029.59
543.64	40924.27
543.81	40978.10
543.98	41024.91
544.15	41343.22
544.32	41258.96
544.48	41837.08
544.65	41717.71
544.82	41799.63
544.99	41408.76
545.16	41469.61
545.32	41387.69
545.49	41998.57
545.66	42040.70
545.83	41846.44
546.00	41914.31
546.16	41759.84
546.33	41677.92
546.50	41731.75
546.67	41579.62
546.83	41429.82
547.00	41741.11
547.17	42092.19
547.34	42017.30
547.50	42241.99
547.67	42485.40
547.84	42405.83
548.00	42036.02
548.17	42536.90
548.34	42368.38
548.51	42485.40
548.67	42539.24
548.84	42419.87
549.01	42508.81
549.18	42323.91
549.34	42873.93
549.51	42799.04
549.68	42384.76
549.84	42890.32
550.01	42747.54
550.18	42572.00
550.34	42522.85
550.51	42813.08
550.68	43615.88
550.84	43100.97
551.01	43349.06
551.18	42883.30
551.34	42885.64
551.51	43157.14
551.68	43082.24
551.84	43119.69
552.01	42721.80
552.18	43452.05
552.34	43248.42
552.51	43225.01
552.68	43241.40
552.84	43005.00
553.01	43363.11
553.18	43421.62
553.34	43658.01
553.51	43061.18
553.67	43501.20
553.84	43697.80
554.01	43676.74
554.17	43922.49
554.34	43730.57
554.51	43765.68
554.67	44041.86
554.84	44041.86
555.00	43629.93
555.17	43775.04
555.33	44091.01
555.50	43835.89
555.67	43810.15
555.83	44140.16
556.00	44091.01
556.16	44048.88
556.33	44257.19
556.50	44030.16
556.66	44521.67
556.83	44210.38
556.99	44442.09
557.16	44594.23
557.32	44781.47
557.49	44566.14
557.65	44030.16
557.82	44449.11
557.98	44172.93
558.15	44697.21
558.32	44397.62
558.48	44666.78
558.65	44388.26
558.81	44505.29
558.98	44921.90
559.14	44388.26
559.31	44273.57
559.47	44353.15
559.64	44711.25
559.80	44467.84
559.97	44437.41
560.13	44694.87
560.30	44449.11
560.46	44774.45
560.63	44889.13
560.79	44809.56
560.96	45359.58
561.12	45050.63
561.29	45052.97
561.45	45020.20
561.61	44629.34
561.78	44992.12
561.94	45008.50
562.11	44884.45
562.27	45001.48
562.44	45111.49
562.60	45195.74
562.77	45029.57
562.93	45134.89
563.10	45333.84
563.26	45380.65
563.42	45720.02
563.59	45240.21
563.75	45055.31
563.92	45214.47
564.08	45631.08
564.24	45851.09
564.41	45453.20
564.57	45153.62
564.74	45228.51
564.90	45195.74
565.07	45364.26
565.23	45471.93
565.39	45291.71
565.56	45635.77
565.72	45205.11
565.88	45633.42
566.05	45497.67
566.21	45652.15
566.38	45923.65
566.54	45366.60
566.70	45511.72
566.87	45921.31
567.03	45485.97
567.19	45656.83
567.36	45722.37
567.52	45621.72
567.68	45811.31
567.85	45764.49
568.01	45900.25
568.17	45523.42
568.34	45638.11
568.50	45727.05
568.66	45687.26
568.83	46293.46
568.99	45703.64
569.15	45853.44
569.32	46047.70
569.48	45448.52
569.64	45947.06
569.81	45986.85
569.97	45872.16
570.13	45778.54
570.30	45495.33
570.46	45855.78
570.62	45921.31
570.78	45993.87
570.95	46234.94
571.11	46288.77
571.27	45537.46
571.43	45586.61
571.60	46248.99
571.76	46204.52
571.92	45588.95
572.09	45846.41
572.25	45666.19
572.41	45794.92
572.57	46248.99
572.74	46274.73
572.90	46040.68
573.06	46316.86
573.22	45813.65
573.38	46368.35
573.55	46625.81
573.71	46452.61
573.87	46630.49
574.03	46192.81
574.20	46181.11
574.36	46511.13
574.52	46377.72
574.68	46216.22
574.84	46630.49
575.01	46691.35
575.17	46213.88
575.33	46693.69
575.49	46403.46
575.65	46396.44
575.82	46649.22
575.98	46520.49
576.14	46178.77
576.30	46703.05
576.46	46476.02
576.62	46057.06
576.79	45996.21
576.95	45642.79
577.11	46129.62
577.27	46003.23
577.43	46244.30
577.59	46347.29
577.75	46033.66
577.92	45872.16
578.08	45947.06
578.24	46220.90
578.40	46593.04
578.56	46700.71
578.72	46405.80
578.88	46731.14
579.04	46480.70
579.21	46363.67
579.37	46429.21
579.53	46391.76
579.69	46337.93
579.85	46358.99
580.01	46454.95
580.17	46122.60
580.33	47185.20
580.49	46457.29
580.65	46567.30
580.82	46335.59
580.98	46511.13
581.14	46316.86
581.30	46742.84
581.46	46373.03
581.62	46534.53
581.78	46492.40
581.94	46780.29
582.10	46174.09
582.26	46574.32
582.42	46244.30
582.58	46670.28
582.74	46494.74
582.90	46234.94
583.06	46834.12
583.22	46227.92
583.38	46506.44
583.54	46824.76
583.70	46564.96
583.86	46454.95
584.02	46230.26
584.18	47377.12
584.34	46450.27
584.50	46899.65
584.66	46447.93
584.82	46780.29
584.98	46714.75
585.14	46604.75
585.30	46499.42
585.46	46333.24
585.62	46621.13
585.78	46602.41
585.94	46138.98
586.10	46525.17
586.26	46433.89
586.42	46815.40
586.58	46710.07
586.74	46312.18
586.90	46522.83
587.06	46838.80
587.22	46541.55
587.38	46485.38
587.54	47000.30
587.70	46904.34
587.86	46852.84
588.02	47093.92
588.18	46513.47
588.34	46550.91
588.49	46740.50
588.65	46810.71
588.81	46469.00
588.97	47082.22
589.13	46674.96
589.29	47016.68
589.45	47234.35
589.61	47150.09
589.77	46974.55
589.93	47157.11
590.08	47185.20
590.24	46965.19
590.40	47519.90
590.56	47367.76
590.72	47566.71
590.88	46983.91
591.04	46616.45
591.20	47037.75
591.35	47260.10
591.51	47756.29
591.67	47636.92
591.83	47356.06
591.99	47330.31
592.15	47150.09
592.31	47063.49
592.46	46745.18
592.62	46782.63
592.78	47274.14
592.94	47334.99
593.10	47887.36
593.26	47697.78
593.41	47285.84
593.57	47232.01
593.73	47615.86
593.89	47805.44
594.05	47812.46
594.20	47426.28
594.36	47636.92
594.52	47079.88
594.68	47246.05
594.84	47393.51
594.99	47381.80
595.15	47503.51
595.31	47676.71
595.47	47775.02
595.62	47185.20
595.78	47077.54
595.94	47578.41
596.10	47210.95
596.25	47505.85
596.41	47409.89
596.57	47033.07
596.73	47475.43
596.88	47470.75
597.04	47423.93
597.20	47246.05
597.36	47313.93
597.51	47812.46
597.67	47065.83
597.83	47487.13
597.99	47501.17
598.14	46951.15
598.30	47461.38
598.46	47299.89
598.61	47578.41
598.77	47592.45
598.93	47847.57
599.09	47676.71
599.24	47723.52
599.40	47550.32
599.56	47571.39
599.71	47913.11
599.87	48102.69
600.03	47648.63
600.18	47625.22
600.34	47782.04
600.50	47463.72
600.65	47812.46
600.81	47690.76
600.97	47845.23
601.12	47552.66
601.28	47632.24
601.44	47725.86
601.59	47346.70
601.75	47391.17
601.91	47573.73
602.06	47760.97
602.22	47885.02
602.37	47182.86
602.53	47749.27
602.69	47917.79
602.84	47868.64
603.00	47168.82
603.16	47700.12
603.31	48037.16
603.47	47863.96
603.62	47952.90
603.78	47765.65
603.94	47430.96
604.09	47622.88
604.25	47342.02
604.40	47543.30
604.56	47859.27
604.71	48032.47
604.87	47510.53
605.03	47051.79
605.18	47452.02
605.34	47639.26
605.49	47592.45
605.65	47393.51
605.80	47419.25
605.96	47269.46
606.12	47182.86
606.27	47229.67
606.43	47269.46
606.58	47856.93
606.74	47192.22
606.89	47210.95
607.05	47892.04
607.20	47606.50
607.36	47267.12
607.51	47171.16
607.67	47255.42
607.82	47311.59
607.98	47576.07
608.13	47662.67
608.29	47320.95
608.44	47236.69
608.60	47269.46
608.75	47416.91
608.91	47152.43
609.06	47185.20
609.22	47318.61
609.37	47161.79
609.53	47463.72
609.68	47704.80
609.84	46941.78
609.99	47372.44
610.15	47096.26
610.30	47173.50
610.46	47210.95
610.61	47210.95
610.76	47243.71
610.92	46892.63
611.07	47136.05
611.23	47311.59
611.38	47061.15
611.54	47351.38
611.69	47033.07
611.84	47054.13
612.00	47143.07
612.15	47276.48
612.31	47512.88
612.46	46777.95
612.62	46810.71
612.77	46787.31
612.92	47133.71
613.08	46827.10
613.23	46859.87
613.39	46773.27
613.54	46569.64
613.69	47299.89
613.85	46700.71
614.00	47173.50
614.15	46960.51
614.31	46705.39
614.46	46913.70
614.62	46763.90
614.77	46590.70
614.92	47119.66
615.08	46887.95
615.23	46742.84
615.38	47065.83
615.54	47175.84
615.69	46946.47
615.84	46740.50
616.00	47236.69
616.15	46906.68
616.30	46799.01
616.46	46248.99
616.61	46351.97
616.76	47035.41
616.92	46981.57
617.07	46763.90
617.22	46745.18
617.37	46239.62
617.53	46724.11
617.68	46443.25
617.83	46506.44
617.99	46824.76
618.14	46663.26
618.29	46396.44
618.45	46293.46
618.60	46211.54
618.75	46174.09
618.90	46043.02
619.06	46618.79
619.21	46237.28
619.36	46712.41
619.51	46185.79
619.67	46157.70
619.82	46122.60
619.97	46679.64
620.12	46204.52
620.28	46185.79
620.43	46412.82
620.58	46216.22
620.73	46616.45
620.89	46649.22
621.04	46277.07
621.19	46522.83
621.34	46234.94
621.49	46454.95
621.65	45617.04
621.80	46272.39
621.95	46064.08
622.10	46199.83
622.25	45794.92
622.41	45729.39
622.56	46028.98
622.71	45736.41
622.86	45853.44
623.01	46176.43
623.16	46155.36
623.32	45652.15
623.47	46244.30
623.62	45935.35
623.77	45741.09
623.92	45813.65
624.07	45577.25
624.23	45605.34
624.38	46127.28
624.53	45333.84
624.68	45413.41
624.83	45399.37
624.98	45818.33
625.13	45478.95
625.29	45436.82
625.44	45654.49
625.59	45450.86
625.74	45729.39
625.89	45345.54
626.04	45382.99
626.19	45378.31
626.34	45198.09
626.49	45174.68
626.65	44816.58
626.80	44854.03
626.95	44994.46
627.10	44872.75
627.25	45640.45
627.40	45368.94
627.55	45001.48
627.70	44856.37
627.85	45310.43
628.00	45001.48
628.15	45003.82
628.30	44509.97
628.45	44999.14
628.60	44240.81
628.76	44814.24
628.91	45106.80
629.06	44924.24
629.21	44776.79
629.36	44823.60
629.51	45081.06
629.66	45247.24
629.81	44914.88
629.96	44374.22
630.11	44446.77
630.26	44247.83
630.41	44809.56
630.56	44596.57
630.71	44900.84
630.86	44570.82
631.01	44313.36
631.16	44437.41
631.31	44751.04
631.46	44626.99
631.61	44732.32
631.76	44357.83
631.91	44797.85
632.06	44399.96
632.21	44636.36
632.36	44767.43
632.51	43882.70
632.66	44348.47
632.81	44158.89
632.96	44828.28
633.10	44147.18
633.25	44729.98
633.40	44357.83
633.55	44507.63
633.70	44196.34
633.85	44102.71
634.00	43903.77
634.15	43854.62
634.30	44079.31
634.45	44266.55
634.60	44421.03
634.75	44355.49
634.90	44399.96
635.05	43981.01
635.19	44315.70
635.34	43777.38
635.49	43627.59
635.64	44119.10
635.79	43812.49
635.94	43461.41
636.09	43948.24
636.24	43585.46
636.39	44191.65
636.53	43922.49
636.68	43578.43
636.83	43587.80
636.98	43536.30
637.13	43313.95
637.28	43405.23
637.43	43732.91
637.57	43669.72
637.72	42972.24
637.87	43463.75
638.02	43477.79
638.17	43955.26
638.32	43377.15
638.46	42897.34
638.61	43056.50
638.76	43536.30
638.91	43269.48
639.06	43262.46
639.20	42775.63
639.35	43037.77
639.50	43007.34
639.65	43276.51
639.80	43194.59
639.94	43440.34
640.09	43391.19
640.24	42972.24
640.39	43063.52
640.54	42815.42
640.68	42857.55
640.83	42979.26
640.98	43133.73
641.13	42689.03
641.27	42885.64
641.42	43175.86
641.57	43009.68
641.72	42471.36
641.86	42635.20
642.01	42637.54
642.16	42923.08
642.31	42506.47
642.45	42841.17
642.60	42373.06
642.75	42389.44
642.90	43168.84
643.04	42354.33
643.19	42705.41
643.34	42520.51
643.48	42492.43
643.63	42740.52
643.78	43119.69
643.93	43009.68
644.07	42710.10
644.22	42705.41
644.37	42511.15
644.51	42459.66
644.66	42286.46
644.81	42274.76
644.95	42766.27
645.10	42696.05
645.25	42192.84
645.39	41771.54
645.54	42305.18
645.69	41837.08
645.83	41748.14
645.98	42043.04
646.13	41984.53
646.27	42019.64
646.42	41727.07
646.57	41949.42
646.71	42419.87
646.86	41757.50
647.00	42010.28
647.15	42094.53
647.30	41876.86
647.44	41497.70
647.59	41553.87
647.74	41600.68
647.88	42410.51
648.03	42029.00
648.17	42354.33
648.32	42260.71
648.47	42227.95
648.61	41694.30
648.76	42157.73
648.90	41691.96
649.05	41596.00
649.20	41656.85
649.34	41663.88
649.49	41785.58
649.63	41584.30
649.78	41439.18
649.92	41450.89
650.07	41949.42
650.21	41488.34
650.36	42274.76
650.51	41621.75
650.65	41448.55
650.80	42024.32
650.94	41287.05
651.09	41448.55
651.23	41024.91
651.38	41177.04
651.52	40987.46
651.67	40879.80
651.81	41186.41
651.96	40987.46
652.10	41022.57
652.25	41053.00
652.39	40554.46
652.54	41577.28
652.68	40673.83
652.83	41092.79
652.97	41380.67
653.12	41366.63
653.26	41113.85
653.41	40957.03
653.55	41038.95
653.70	40959.38
653.84	41118.53
653.99	41043.63
654.13	41172.36
654.27	40708.94
654.42	41064.70
654.56	40739.36
654.71	41008.53
654.85	40992.14
655.00	40917.25
655.14	40940.65
655.29	40891.50
655.43	40854.05
655.57	40795.54
655.72	40301.68
655.86	40287.64
656.01	40006.78
656.15	39887.41
656.30	40280.62
656.44	40687.87
656.58	40355.52
656.73	40612.98
656.87	40182.32
657.01	40027.84
657.16	40285.30
657.30	40102.74
657.45	40484.25
657.59	40109.76
657.73	39936.56
657.88	40100.40
658.02	40189.34
658.16	40795.54
658.31	40266.58
658.45	40081.67
658.60	39658.04
658.74	40236.15
658.88	40013.80
659.03	39861.66
659.17	39440.37
659.31	39555.05
659.46	39037.80
659.60	40165.93
659.74	39615.91
659.89	39068.22
660.03	39445.05
660.17	39557.39
660.32	39428.66
660.46	39512.92
660.60	38728.84
660.74	39328.02
660.89	39625.27
661.03	39112.69
661.17	38869.28
661.32	39044.82
661.46	38796.72
661.60	39012.05
661.74	39007.37
661.89	39110.35
662.03	39012.05
662.17	38401.17
662.31	38375.42
662.46	38565.01
662.60	38555.64
662.74	38244.35
662.88	38103.92
663.03	38211.59
663.17	38574.37
663.31	37783.27
663.45	38483.09
663.60	38588.41
663.74	38256.06
663.88	38029.02
664.02	38092.22
664.17	38525.22
664.31	37373.67
664.45	37902.64
664.59	37748.16
664.73	38019.66
664.88	37937.74
665.02	37495.38
665.16	37757.52
665.30	37624.11
665.44	37553.90
665.59	37493.04
665.73	37387.72
665.87	37160.69
666.01	37450.91
666.15	37401.76
666.29	37368.99
666.44	37673.26
666.58	37226.22
666.72	37006.21
666.86	37165.37
667.00	36872.80
667.14	36856.42
667.28	36741.73
667.43	36828.33
667.57	37015.57
667.71	36741.73
667.85	37013.23
667.99	36935.99
668.13	36978.12
668.27	36168.30
668.41	36617.68
668.56	35959.99
668.70	36407.03
668.84	36151.91
668.98	36091.06
669.12	36290.01
669.26	36109.78
669.40	35608.91
669.54	36100.42
669.68	35828.92
669.82	36128.51
669.96	35751.68
670.10	35208.68
670.25	35674.45
670.39	35651.04
670.53	35833.60
670.67	35658.06
670.81	35714.23
670.95	35810.20
671.09	35119.74
671.23	34920.79
671.37	35339.75
671.51	34651.63
671.65	34590.78
671.79	34815.47
671.93	34986.33
672.07	35253.15
672.21	35044.84
672.35	34223.31
672.49	34429.28
672.63	34672.70
672.77	34345.02
672.91	34728.87
673.05	34197.57
673.19	34115.65
673.33	34359.06
673.47	34136.71
673.61	33809.04
673.75	33647.54
673.89	33956.49
674.03	33654.56
674.17	33041.34
674.31	33450.94
674.45	33256.67
674.59	33305.82
674.73	33525.83
674.87	33593.71
675.01	33017.94
675.15	32847.08
675.29	32994.53
675.43	32877.51
675.56	33137.30
675.70	32577.92
675.84	32243.22
675.98	32095.77
676.12	32865.80
676.26	32858.78
676.40	32245.56
676.54	32053.64
676.68	32393.01
676.82	31772.77
676.96	32257.26
677.10	32041.93
677.23	31967.04
677.37	31660.43
677.51	31796.18
677.65	31646.38
677.79	31482.55
677.93	31580.85
678.07	31613.62
678.21	31103.38
678.34	31307.01
678.48	30874.01
678.62	30930.18
678.76	30672.72
678.90	30686.76
679.04	31014.44
679.18	30948.90
679.31	30473.78
679.45	30256.11
679.59	30361.43
679.73	30302.92
679.87	30197.59
680.00	29930.77
680.14	29916.73
680.28	29937.79
680.42	29902.68
680.56	29663.95
680.70	29523.52
680.83	29165.42
680.97	29502.45
681.11	29123.29
681.25	29244.99
681.39	29111.58
681.52	28737.10
681.66	28547.51
681.80	28135.58
681.94	28011.53
682.07	28599.01
682.21	28093.45
682.35	27948.34
682.49	28198.77
682.62	28357.93
682.76	28325.16
682.90	27852.38
683.04	27875.78
683.17	27700.24
683.31	27452.14
683.45	27463.85
683.59	27225.11
683.72	27047.23
683.86	27051.91
684.00	27002.76
684.13	26705.51
684.27	26757.00
684.41	26899.78
684.55	26923.18
684.68	26600.19
684.82	26335.71
684.96	26726.58
685.09	26630.62
685.23	26293.58
685.37	26368.48
685.50	26668.06
685.64	26155.49
685.78	26073.57
685.91	25750.57
686.05	25869.94
686.19	25202.89
686.32	25266.08
686.46	25006.28
686.60	25256.72
686.73	25371.41
686.87	24849.47
687.01	25223.95
687.14	25165.44
687.28	24968.84
687.42	25113.95
687.55	24884.58
687.69	24379.02
687.82	24596.69
687.96	24655.20
688.10	24376.68
688.23	24259.65
688.37	24664.57
688.50	24219.86
688.64	24130.92
688.78	24046.66
688.91	23700.26
689.05	24233.91
689.18	23590.26
689.32	23122.15
689.46	23218.11
689.59	23269.61
689.73	23527.06
689.86	23405.36
690.00	23381.95
690.13	23075.34
690.27	23007.47
690.41	22960.66
690.54	22583.83
690.68	22895.12
690.81	22412.97
690.95	22569.79
691.08	22108.70
691.22	22403.61
691.35	22356.80
691.49	22256.15
691.62	22125.08
691.76	21816.13
691.89	21820.81
692.03	21535.27
692.16	21364.41
692.30	21514.20
692.43	21493.14
692.57	21238.02
692.70	21418.24
692.84	21507.18
692.97	20924.39
693.11	20933.75
693.24	20814.38
693.38	20695.02
693.51	20215.21
693.65	20489.05
693.78	20130.95
693.92	20308.83
694.05	20421.17
694.19	20198.82
694.32	20325.21
694.45	20362.66
694.59	20376.70
694.72	20159.03
694.86	20196.48
694.99	19634.75
695.13	19627.73
695.26	19365.59
695.39	19522.41
695.53	19489.64
695.66	19592.62
695.80	19194.73
695.93	19058.98
696.07	18820.25
696.20	18963.02
696.33	18794.50
696.47	18483.21
696.60	18356.82
696.73	18775.78
696.87	18630.66
697.00	18827.27
697.14	18263.20
697.27	18448.10
697.40	18223.41
697.54	17984.68
697.67	18036.17
697.80	17923.82
697.94	17935.53
698.07	17818.50
698.21	17626.57
698.34	17565.72
698.47	17509.55
698.61	17352.73
698.74	17441.67
698.87	17343.37
699.01	16933.78
699.14	17296.56
699.27	17097.61
699.40	17081.23
699.54	16910.37
699.67	16793.34
699.80	16903.35
699.94	16695.04
700.07	16568.65
700.20	16608.44
700.34	16432.90
700.47	16411.84
700.60	16381.41
700.73	16334.60
700.87	16343.96
701.00	15896.92
701.13	15964.79
701.26	16023.31
701.40	15990.54
701.53	15873.51
701.66	15761.17
701.79	15625.42
701.93	15169.01
702.06	15447.54
702.19	15332.85
702.32	15405.41
702.46	15463.92
702.59	15173.69
702.72	15255.61
702.85	15353.91
702.99	15101.14
703.12	15056.67
703.25	14813.25
703.38	14736.01
703.51	14436.42
703.65	14696.22
703.78	14441.11
703.91	14235.14
704.04	14197.69
704.17	14052.58
704.31	14288.97
704.44	14197.69
704.57	14232.80
704.70	13930.87
704.83	14005.77
704.96	13811.50
705.10	13717.88
705.23	13893.42
>>>>>End Processed Spectral Data<<<<<
