SpectraSuite Data File
++++++++++++++++++++++++++++++++++++
Date: Fri Oct 25 11:34:24 EDT 2013
User: price-jones
Dark Spectrum Present: No
Reference Spectrum Present: No
Number of Sampled Component Spectra: 1
Spectrometers: USB2+H05261
Integration Time (usec): 100000 (USB2+H05261)
Spectra Averaged: 1 (USB2+H05261)
Boxcar Smoothing: 0 (USB2+H05261)
Correct for Electrical Dark: No (USB2+H05261)
Strobe/Lamp Enabled: No (USB2+H05261)
Correct for Detector Non-linearity: No (USB2+H05261)
Correct for Stray Light: No (USB2+H05261)
Number of Pixels in Processed Spectrum: 2048
>>>>>Begin Processed Spectral Data<<<<<
365.73	341.72
365.92	341.72
366.12	341.72
366.32	224.69
366.52	170.86
366.72	212.99
366.91	131.07
367.11	159.16
367.31	128.73
367.51	173.20
367.70	203.63
367.90	173.20
368.10	191.92
368.30	187.24
368.49	189.58
368.69	180.22
368.89	252.78
369.09	220.01
369.28	196.60
369.48	243.42
369.68	187.24
369.87	301.93
370.07	215.33
370.27	297.25
370.47	271.50
370.66	416.62
370.86	503.22
371.06	531.30
371.25	582.79
371.45	559.39
371.65	657.69
371.84	524.28
372.04	564.07
372.24	645.99
372.44	517.26
372.63	554.71
372.83	561.73
373.03	585.13
373.22	482.15
373.42	606.20
373.62	568.75
373.81	566.41
374.01	660.03
374.21	580.45
374.40	669.39
374.60	657.69
374.79	610.88
374.99	608.54
375.19	585.13
375.38	622.58
375.58	718.54
375.78	554.71
375.97	706.84
376.17	741.95
376.37	601.52
376.56	657.69
376.76	688.12
376.95	634.29
377.15	648.33
377.35	683.44
377.54	657.69
377.74	671.73
377.93	676.41
378.13	631.94
378.33	688.12
378.52	709.18
378.72	737.27
378.91	730.25
379.11	648.33
379.31	716.20
379.50	793.44
379.70	774.72
379.89	699.82
380.09	683.44
380.28	772.38
380.48	760.67
380.68	676.41
380.87	755.99
381.07	772.38
381.26	770.04
381.46	737.27
381.65	767.70
381.85	802.80
382.04	807.48
382.24	744.29
382.43	725.57
382.63	814.51
382.83	737.27
383.02	844.93
383.22	772.38
383.41	678.76
383.61	746.63
383.80	887.06
384.00	786.42
384.19	772.38
384.39	739.61
384.58	765.36
384.78	798.12
384.97	816.85
385.17	774.72
385.36	812.17
385.56	770.04
385.75	816.85
385.95	767.70
386.14	856.64
386.34	784.08
386.53	816.85
386.72	767.70
386.92	936.21
387.11	887.06
387.31	833.23
387.50	842.59
387.70	777.06
387.89	870.68
388.09	915.15
388.28	880.04
388.48	842.59
388.67	922.17
388.86	774.72
389.06	952.60
389.25	887.06
389.45	898.77
389.64	901.11
389.84	999.41
390.03	910.47
390.22	959.62
390.42	964.30
390.61	936.21
390.81	912.81
391.00	1041.54
391.19	945.58
391.39	976.00
391.58	994.73
391.78	1006.43
391.97	1057.92
392.16	976.00
392.36	966.64
392.55	943.24
392.75	1013.45
392.94	1083.67
393.13	1114.10
393.33	1008.77
393.52	997.07
393.71	1048.56
393.91	1057.92
394.10	1062.60
394.29	1107.07
394.49	973.66
394.68	1146.86
394.88	1011.11
395.07	1125.80
395.26	1121.12
395.46	1081.33
395.65	1121.12
395.84	1081.33
396.04	1210.06
396.23	1121.12
396.42	1025.15
396.62	1200.69
396.81	1156.22
397.00	1205.38
397.19	1170.27
397.39	1156.22
397.58	1256.87
397.77	1123.46
397.97	1186.65
398.16	1198.35
398.35	1200.69
398.55	1355.17
398.74	1245.16
398.93	1270.91
399.12	1226.44
399.32	1359.85
399.51	1219.42
399.70	1359.85
399.90	1240.48
400.09	1277.93
400.28	1324.74
400.47	1401.98
400.67	1376.24
400.86	1371.55
401.05	1334.11
401.24	1416.02
401.44	1451.13
401.63	1383.26
401.82	1399.64
402.01	1362.19
402.21	1474.54
402.40	1376.24
402.59	1390.28
402.78	1460.49
402.97	1418.36
403.17	1526.03
403.36	1533.05
403.55	1437.09
403.74	1558.80
403.93	1504.96
404.13	1614.97
404.32	1488.58
404.51	1455.81
404.70	1556.46
404.89	1554.12
405.09	1582.20
405.28	1577.52
405.47	1689.87
405.66	1638.38
405.85	1619.65
406.05	1682.85
406.24	1689.87
406.43	1706.25
406.62	1769.44
406.81	1661.78
407.00	1675.82
407.20	1748.38
407.39	1783.49
407.58	1799.87
407.77	1724.97
407.96	1830.30
408.15	1842.00
408.34	1823.28
408.54	1891.15
408.73	1809.23
408.92	1839.66
409.11	1846.68
409.30	2101.80
409.49	1949.67
409.68	1872.43
409.87	1935.62
410.07	2015.20
410.26	1912.22
410.45	1961.37
410.64	2101.80
410.83	2033.93
411.02	2101.80
411.21	2132.23
411.40	2087.76
411.59	2160.31
411.78	2059.67
411.98	2129.89
412.17	2197.76
412.36	2200.10
412.55	2289.04
412.74	2235.21
412.93	2188.40
413.12	2260.96
413.31	2408.41
413.50	2148.61
413.69	2246.91
413.88	2387.35
414.07	2298.41
414.26	2415.43
414.45	2462.24
414.64	2413.09
414.83	2392.03
415.02	2516.08
415.22	2511.39
415.41	2462.24
415.60	2607.36
415.79	2471.61
415.98	2623.74
416.17	2583.95
416.36	2677.57
416.55	2644.81
416.74	2733.75
416.93	2668.21
417.12	2764.17
417.31	2684.59
417.50	2829.71
417.69	2883.54
417.88	2874.18
418.07	2820.35
418.26	2829.71
418.45	2794.60
418.64	2998.23
418.83	2998.23
419.02	2846.09
419.21	3014.61
419.39	2925.67
419.58	2949.08
419.77	3042.70
419.96	3028.65
420.15	3009.93
420.34	3070.78
420.53	3148.02
420.72	3129.30
420.91	3180.79
421.10	3136.32
421.29	3176.11
421.48	3052.06
421.67	3208.87
421.86	3038.02
422.05	3126.96
422.24	3138.66
422.43	3204.19
422.61	3199.51
422.80	3192.49
422.99	3346.97
423.18	3185.47
423.37	3363.35
423.56	3222.92
423.75	3260.37
423.94	3232.28
424.13	3171.43
424.32	3220.58
424.50	3258.03
424.69	3339.94
424.88	3534.21
425.07	3272.07
425.26	3267.39
425.45	3375.05
425.64	3286.11
425.83	3293.13
426.01	3260.37
426.20	3286.11
426.39	3379.73
426.58	3328.24
426.77	3424.20
426.96	3515.48
427.15	3581.02
427.33	3489.74
427.52	3564.64
427.71	3445.27
427.90	3452.29
428.09	3571.66
428.28	3592.72
428.46	3536.55
428.65	3501.44
428.84	3658.26
429.03	3761.24
429.22	3468.67
429.40	3676.98
429.59	3531.87
429.78	3487.40
429.97	3449.95
430.16	3646.55
430.34	3609.11
430.53	3632.51
430.72	3819.75
430.91	3742.52
431.10	3719.11
431.28	3836.14
431.47	3866.56
431.66	3915.72
431.85	3873.59
432.03	3920.40
432.22	3967.21
432.41	3847.84
432.60	3899.33
432.79	3939.12
432.97	3913.38
433.16	3887.63
433.35	4030.40
433.54	3929.76
433.72	4072.53
433.91	4086.58
434.10	3983.59
434.28	4060.83
434.47	4107.64
434.66	4182.54
434.85	4219.99
435.03	4093.60
435.22	4102.96
435.41	4234.03
435.59	4215.30
435.78	4292.54
435.97	4271.48
436.16	4177.86
436.34	4304.25
436.53	4203.60
436.72	4283.18
436.90	4241.05
437.09	4397.87
437.28	4365.10
437.46	4234.03
437.65	4276.16
437.84	4414.25
438.02	4386.16
438.21	4444.68
438.40	4306.59
438.58	4589.79
438.77	4643.62
438.96	4631.92
439.14	4720.86
439.33	4699.80
439.52	4765.33
439.70	4730.22
439.89	4819.16
440.08	4762.99
440.26	4919.81
440.45	4882.36
440.63	4901.08
440.82	5046.20
441.01	4999.38
441.19	4985.34
441.38	5102.37
441.57	5078.96
441.75	5144.50
441.94	5303.65
442.12	5217.05
442.31	5254.50
442.50	5261.52
442.68	5118.75
442.87	5121.09
443.05	5355.15
443.24	5371.53
443.43	5254.50
443.61	5238.12
443.80	5542.39
443.98	5261.52
444.17	5149.18
444.35	5357.49
444.54	5502.60
444.73	5406.64
444.91	5313.02
445.10	5605.58
445.28	5348.12
445.47	5458.13
445.65	5315.36
445.84	5572.82
446.02	5455.79
446.21	5514.30
446.39	5537.71
446.58	5500.26
446.77	5502.60
446.95	5437.06
447.14	5518.98
447.32	5554.09
447.51	5544.73
447.69	5598.56
447.88	5500.26
448.06	5589.20
448.25	5516.64
448.43	5518.98
448.62	5687.50
448.80	5446.43
448.99	5708.57
449.17	5790.49
449.36	5514.30
449.54	5722.61
449.73	5849.00
449.91	5937.94
450.10	5863.04
450.28	6026.88
450.46	5799.85
450.65	5937.94
450.83	5956.66
451.02	5867.72
451.20	6038.58
451.39	5830.27
451.57	5788.14
451.76	6045.60
451.94	5940.28
452.13	6190.72
452.31	6099.44
452.49	5888.79
452.68	5921.56
452.86	6057.31
453.05	6033.90
453.23	6228.17
453.42	6036.24
453.60	6040.92
453.78	6230.51
453.97	6122.84
454.15	6284.34
454.34	6239.87
454.52	6214.12
454.70	6251.57
454.89	6242.21
455.07	6211.78
455.26	6408.39
455.44	6492.65
455.62	6319.45
455.81	6296.04
455.99	6523.07
456.17	6546.48
456.36	6513.71
456.54	6588.61
456.73	6710.32
456.91	6825.00
457.09	6656.48
457.28	6853.09
457.46	6740.74
457.64	6712.66
457.83	6963.09
458.01	6700.95
458.19	7023.95
458.38	6719.68
458.56	6841.39
458.74	6977.14
458.93	7089.48
459.11	6808.62
459.29	6963.09
459.48	6974.80
459.66	6977.14
459.84	7140.97
460.03	7372.69
460.21	7180.76
460.39	6965.43
460.57	7040.33
460.76	7274.38
460.94	7101.19
461.12	7307.15
461.31	7258.00
461.49	7262.68
461.67	7115.23
461.85	7456.95
462.04	7412.48
462.22	7559.93
462.40	7478.01
462.59	7279.07
462.77	7447.58
462.95	7485.03
463.13	7309.49
463.32	7754.19
463.50	7667.60
463.68	7555.25
463.86	7683.98
464.05	7489.71
464.23	7585.68
464.41	7714.41
464.59	7616.10
464.78	7829.09
464.96	7599.72
465.14	7524.82
465.32	7838.45
465.50	7749.51
465.69	7925.05
465.87	7737.81
466.05	7669.94
466.23	7808.03
466.41	7887.61
466.60	7882.92
466.78	7854.84
466.96	7826.75
467.14	7695.68
467.32	8018.68
467.51	8023.36
467.69	7749.51
467.87	7960.16
468.05	8070.17
468.23	7918.03
468.41	8072.51
468.60	8140.38
468.78	8142.72
468.96	7983.57
469.14	8004.63
469.32	8278.47
469.50	8236.35
469.69	8283.16
469.87	8652.96
470.05	8505.51
470.23	8409.54
470.41	8407.20
470.59	8404.86
470.77	8372.10
470.95	8423.59
471.14	8461.04
471.32	8451.67
471.50	8781.69
471.68	8826.16
471.86	8882.33
472.04	8884.67
472.22	9020.42
472.40	8858.93
472.58	8833.18
472.77	8980.64
472.95	9158.52
473.13	9357.46
473.31	8877.65
473.49	9327.03
473.67	9170.22
473.85	9107.02
474.03	9376.19
474.21	9359.80
474.39	9380.87
474.57	9357.46
474.75	9423.00
474.93	9504.92
475.12	9565.77
475.30	9668.75
475.48	9554.07
475.66	9760.03
475.84	9696.84
476.02	9671.09
476.20	9823.23
476.38	10008.13
476.56	10214.10
476.74	10148.56
476.92	10190.69
477.10	10195.37
477.28	10319.42
477.46	10174.31
477.64	10298.36
477.82	10539.43
478.00	10867.11
478.18	10614.33
478.36	10871.79
478.54	10757.10
478.72	10897.53
478.90	10934.98
479.08	11066.05
479.26	11068.39
479.44	11211.17
479.62	11372.66
479.80	11145.63
479.98	11534.16
480.16	11707.36
480.34	11693.32
480.52	11751.83
480.70	11803.32
480.88	11566.93
481.06	11892.26
481.24	11932.05
481.41	12283.13
481.59	12381.43
481.77	12173.13
481.95	12336.96
482.13	12475.06
482.31	12479.74
482.49	13062.53
482.67	12819.11
482.85	13156.15
483.03	12795.71
483.21	13099.98
483.39	13249.77
483.57	13111.68
483.74	13139.77
483.92	13376.16
484.10	13434.68
484.28	13781.07
484.46	13937.89
484.64	13879.38
484.82	13881.72
485.00	13996.40
485.18	14176.62
485.35	14640.05
485.53	14422.38
485.71	14391.95
485.89	14747.72
486.07	14457.49
486.25	14815.59
486.43	14717.29
486.61	15180.71
486.78	15257.95
486.96	15274.34
487.14	15484.98
487.32	15597.33
487.50	15625.42
487.68	15829.04
487.85	15616.05
488.03	16294.81
488.21	16245.66
488.39	16350.98
488.57	16236.30
488.75	16336.94
488.92	16800.37
489.10	17011.01
489.28	16786.32
489.46	17008.67
489.64	17226.34
489.81	17406.56
489.99	17343.37
490.17	17338.69
490.35	17556.36
490.53	17696.79
490.70	18026.81
490.88	17968.29
491.06	18019.78
491.24	17989.36
491.41	18417.68
491.59	18345.12
491.77	18377.89
491.95	18595.56
492.13	18743.01
492.30	18735.99
492.48	18904.51
492.66	19021.53
492.84	19311.76
493.01	18939.62
493.19	19613.69
493.37	19508.37
493.54	19494.32
493.72	19604.33
493.90	19901.58
494.08	19707.31
494.25	19976.47
494.43	20140.31
494.61	20402.45
494.79	20648.21
494.96	20247.97
495.14	20444.58
495.32	20783.96
495.49	20849.49
495.67	21067.16
495.85	20989.92
496.02	21647.61
496.20	21364.41
496.38	21408.88
496.55	21212.28
496.73	21942.52
496.91	21694.43
497.09	22001.04
497.26	22038.48
497.44	22192.96
497.62	22150.83
497.79	22305.31
497.97	22387.22
498.14	22476.16
498.32	22574.47
498.50	22724.26
498.67	22955.97
498.85	22841.29
499.03	22789.80
499.20	23019.17
499.38	23262.58
499.56	23096.41
499.73	23363.23
499.91	23470.89
500.08	23723.67
500.26	23887.51
500.44	23793.89
500.61	23676.86
500.79	23850.06
500.97	23953.04
501.14	23978.79
501.32	24140.29
501.49	24334.55
501.67	24769.89
501.84	24627.12
502.02	24753.51
502.20	24526.47
502.37	24510.09
502.55	24746.48
502.72	25085.86
502.90	24692.65
503.07	24456.26
503.25	25067.14
503.43	24926.71
503.60	25179.48
503.78	25282.47
503.95	25181.82
504.13	25240.34
504.30	25439.28
504.48	25858.24
504.65	25727.17
504.83	25640.57
505.01	25879.30
505.18	25989.31
505.36	26064.21
505.53	26066.55
505.71	26274.85
505.88	26162.51
506.06	26242.09
506.23	27094.04
506.41	26405.92
506.58	26625.93
506.76	26426.99
506.93	27035.53
507.11	26764.03
507.28	26850.63
507.46	26951.27
507.63	27222.77
507.81	27239.15
507.98	27175.96
508.16	27325.75
508.33	27325.75
508.50	27218.09
508.68	27695.56
508.85	27835.99
509.03	27564.49
509.20	27639.39
509.38	28023.23
509.55	28086.43
509.73	27934.29
509.90	28381.34
510.08	28306.44
510.25	28231.54
510.42	28278.35
510.60	28760.50
510.77	28489.00
510.95	28868.17
511.12	28868.17
511.30	28870.51
511.47	28882.21
511.64	28889.23
511.82	29099.88
511.99	28978.17
512.17	29214.57
512.34	29252.02
512.51	29537.56
512.69	29764.59
512.86	29694.38
513.04	29626.50
513.21	29521.18
513.38	29909.71
513.56	30195.25
513.73	29806.72
513.90	29677.99
514.08	29764.59
514.25	30043.12
514.43	30029.07
514.60	30162.48
514.77	30139.08
514.95	30429.30
515.12	30382.49
515.29	30441.01
515.47	30412.92
515.64	30349.73
515.81	30656.34
515.99	30588.46
516.16	31009.76
516.33	31285.94
516.51	31246.15
516.68	30866.98
516.85	31054.23
517.03	31166.57
517.20	31269.56
517.37	31108.06
517.54	31166.57
517.72	31735.32
517.89	31321.05
518.06	31531.70
518.24	31690.85
518.41	31913.20
518.58	31789.16
518.75	31400.63
518.93	32142.58
519.10	31908.52
519.27	31945.97
519.45	32154.28
519.62	32245.56
519.79	32594.30
519.96	32353.23
520.14	32549.83
520.31	32552.17
520.48	32439.82
520.65	32601.32
520.83	33170.07
521.00	32617.71
521.17	32786.22
521.34	32655.15
521.52	32919.63
521.69	33249.65
521.86	33553.92
522.03	33266.03
522.20	33284.76
522.38	33722.44
522.55	33621.80
522.72	33736.48
522.89	34057.14
523.07	33998.62
523.24	33855.85
523.41	33663.93
523.58	33755.21
523.75	33895.64
523.92	34031.39
524.10	34330.98
524.27	34923.13
524.44	34438.64
524.61	34288.85
524.78	34536.94
524.96	34799.08
525.13	34298.21
525.30	34768.66
525.47	34834.19
525.64	34796.74
525.81	34773.34
525.98	35150.17
526.16	34752.27
526.33	34813.13
526.50	35311.66
526.67	34396.51
526.84	34522.90
527.01	35311.66
527.18	35164.21
527.36	35328.05
527.53	35138.46
527.70	35690.83
527.87	35529.33
528.04	35157.19
528.21	35754.02
528.38	35164.21
528.55	35711.89
528.72	35861.69
528.89	35555.08
529.07	35796.15
529.24	35721.26
529.41	35929.56
529.58	35931.90
529.75	35845.30
529.92	36170.64
530.09	36177.66
530.26	36091.06
530.43	36217.45
530.60	36257.24
530.77	36187.02
530.94	36360.22
531.11	36055.95
531.28	36353.20
531.46	36507.68
531.63	36769.82
531.80	36325.11
531.97	36650.45
532.14	36570.87
532.31	36833.01
532.48	37123.24
532.65	37123.24
532.82	36964.08
532.99	37476.66
533.16	37015.57
533.33	37322.18
533.50	37085.79
533.67	36896.20
533.84	37404.10
534.01	37600.71
534.18	37404.10
534.35	37734.12
534.52	37310.48
534.69	37858.17
534.86	37790.29
535.03	37347.93
535.20	37706.03
535.37	37610.07
535.54	38319.25
535.71	37666.24
535.88	37757.52
536.05	37928.38
536.22	38033.71
536.38	37970.51
536.55	38272.44
536.72	38188.18
536.89	38071.15
537.06	38073.49
537.23	38529.90
537.40	38141.37
537.57	38174.14
537.74	38431.60
537.91	38480.75
538.08	38501.81
538.25	38274.78
538.42	38555.64
538.59	38525.22
538.75	38464.36
538.92	38607.14
539.09	38785.02
539.26	38845.87
539.43	39225.04
539.60	38785.02
539.77	38756.93
539.94	39138.44
540.11	39058.86
540.28	39143.12
540.44	39049.50
540.61	38911.41
540.78	39035.45
540.95	39236.74
541.12	39218.02
541.29	38904.38
541.46	39384.19
541.62	39749.32
541.79	39878.05
541.96	39133.76
542.13	39449.73
542.30	39690.80
542.47	39690.80
542.63	39636.97
542.80	39882.73
542.97	40240.83
543.14	40189.34
543.31	40350.84
543.48	40297.00
543.64	40624.68
543.81	40198.70
543.98	40044.23
544.15	40151.89
544.32	40414.03
544.48	40921.93
544.65	40594.25
544.82	40575.53
544.99	40156.57
545.16	40355.52
545.32	40715.96
545.49	40582.55
545.66	40776.81
545.83	40730.00
546.00	40601.27
546.16	40676.17
546.33	40938.31
546.50	40973.42
546.67	41155.98
546.83	40334.45
547.00	40676.17
547.17	40591.91
547.34	40914.90
547.50	41270.67
547.67	41528.13
547.84	41343.22
548.00	41516.42
548.17	41780.90
548.34	41635.79
548.51	41464.93
548.67	41937.72
548.84	41556.21
549.01	41422.80
549.18	41141.94
549.34	41790.27
549.51	42085.17
549.68	41736.43
549.84	41633.45
550.01	41860.48
550.18	41495.36
550.34	41797.29
550.51	41813.67
550.68	42071.13
550.84	41783.24
551.01	42066.45
551.18	41706.01
551.34	41982.19
551.51	42356.67
551.68	42312.20
551.84	42277.10
552.01	41963.46
552.18	42216.24
552.34	41776.22
552.51	42415.19
552.68	42136.66
552.84	42188.16
553.01	42293.48
553.18	42440.93
553.34	42206.88
553.51	42419.87
553.67	42300.50
553.84	42768.61
554.01	42553.28
554.17	42487.74
554.34	43615.88
554.51	42665.63
554.67	42796.70
554.84	43178.20
555.00	42909.04
555.17	42476.04
555.33	43173.52
555.50	42838.83
555.67	42824.78
555.83	43185.22
556.00	43182.88
556.16	43210.97
556.33	43316.29
556.50	42997.98
556.66	43005.00
556.83	42799.04
556.99	43012.02
557.16	43487.15
557.32	43580.78
557.49	43700.14
557.65	43391.19
557.82	42951.17
557.98	43489.49
558.15	43215.65
558.32	43447.36
558.48	43358.42
558.65	43620.56
558.81	43650.99
558.98	43391.19
559.14	43894.41
559.31	43557.37
559.47	43143.09
559.64	43225.01
559.80	43510.56
559.97	43552.69
560.13	43477.79
560.30	43770.36
560.46	43976.33
560.63	44027.82
560.79	44360.17
560.96	43952.92
561.12	44196.34
561.29	44327.41
561.45	43859.30
561.61	43959.94
561.78	43599.50
561.94	43929.51
562.11	44156.55
562.27	44093.35
562.44	43695.46
562.60	44109.74
562.77	44041.86
562.93	43842.92
563.10	43772.70
563.26	44105.06
563.42	44016.11
563.59	44231.44
563.75	43985.69
563.92	44011.43
564.08	44224.42
564.24	44793.17
564.41	44451.45
564.57	44327.41
564.74	43941.22
564.90	44032.50
565.07	44229.10
565.23	44421.03
565.39	44385.92
565.56	44446.77
565.72	44074.63
565.88	44140.16
566.05	44065.27
566.21	44533.37
566.38	44299.32
566.54	44486.56
566.70	44547.42
566.87	44856.37
567.03	44163.57
567.19	44404.64
567.36	44554.44
567.52	44776.79
567.68	45200.43
567.85	44624.65
568.01	44835.30
568.17	44591.89
568.34	45071.70
568.50	44891.48
568.66	44250.17
568.83	44367.20
568.99	44961.69
569.15	44547.42
569.32	44598.91
569.48	44481.88
569.64	45076.38
569.81	44648.06
569.97	44823.60
570.13	44669.12
570.30	44842.32
570.46	44835.30
570.62	45127.87
570.78	44655.08
570.95	44715.93
571.11	45006.16
571.27	44720.62
571.43	44355.49
571.60	44467.84
571.76	45083.40
571.92	44797.85
572.09	44659.76
572.25	44774.45
572.41	44603.59
572.57	44964.03
572.74	45553.85
572.90	44823.60
573.06	44903.18
573.22	45071.70
573.38	45050.63
573.55	45081.06
573.71	45282.34
573.87	45139.57
574.03	45118.51
574.20	45181.70
574.36	45265.96
574.52	45099.78
574.68	45195.74
574.84	45280.00
575.01	45666.19
575.17	45106.80
575.33	45233.19
575.49	45052.97
575.65	45436.82
575.82	45134.89
575.98	44734.66
576.14	45605.34
576.30	45778.54
576.46	45509.38
576.62	45212.13
576.79	45308.09
576.95	45120.85
577.11	45059.99
577.27	45525.76
577.43	45638.11
577.59	45490.65
577.75	45223.83
577.92	44786.15
578.08	45088.08
578.24	45118.51
578.40	45364.26
578.56	45214.47
578.72	45551.51
578.88	45605.34
579.04	45394.69
579.21	44957.01
579.37	45558.53
579.53	45790.24
579.69	45160.64
579.85	45237.87
580.01	45420.44
580.17	45567.89
580.33	45467.25
580.49	45537.46
580.65	45284.68
580.82	45247.24
580.98	45291.71
581.14	45123.19
581.30	45436.82
581.46	45603.00
581.62	44959.35
581.78	45174.68
581.94	45251.92
582.10	45118.51
582.26	45432.14
582.42	45584.27
582.58	45647.47
582.74	45450.86
582.90	45443.84
583.06	45776.20
583.22	45422.78
583.38	45310.43
583.54	45387.67
583.70	45584.27
583.86	45773.86
584.02	45443.84
584.18	45492.99
584.34	45364.26
584.50	45986.85
584.66	45935.35
584.82	45448.52
584.98	45736.41
585.14	45593.64
585.30	45373.63
585.46	45720.02
585.62	45478.95
585.78	45698.96
585.94	45535.12
586.10	45205.11
586.26	45771.52
586.42	45418.10
586.58	45694.28
586.74	45436.82
586.90	45329.16
587.06	45773.86
587.22	45911.95
587.38	45155.96
587.54	45647.47
587.70	46227.92
587.86	45659.17
588.02	45258.94
588.18	45661.51
588.34	45614.70
588.49	45453.20
588.65	45607.68
588.81	45586.61
588.97	45914.29
589.13	45713.00
589.29	45624.06
589.45	46124.94
589.61	45853.44
589.77	45705.98
589.93	46021.95
590.08	45830.03
590.24	45874.50
590.40	46232.60
590.56	46457.29
590.72	45970.46
590.88	46057.06
591.04	46087.49
591.20	45888.54
591.35	46316.86
591.51	46256.01
591.67	46586.02
591.83	45823.01
591.99	46071.10
592.15	46007.91
592.31	45846.41
592.46	45975.14
592.62	46138.98
592.78	46394.10
592.94	46344.95
593.10	46419.84
593.26	46511.13
593.41	46698.37
593.57	46143.66
593.73	46401.12
593.89	46850.50
594.05	46440.91
594.20	46445.59
594.36	46588.36
594.52	46174.09
594.68	46429.21
594.84	46073.45
594.99	46754.54
595.15	46218.56
595.31	46632.83
595.47	46611.77
595.62	46328.56
595.78	46082.81
595.94	46429.21
596.10	45989.19
596.25	46375.37
596.41	46691.35
596.57	46323.88
596.73	46450.27
596.88	46689.01
597.04	46431.55
597.20	46581.34
597.36	46178.77
597.51	46246.65
597.67	45963.44
597.83	46003.23
597.99	46230.26
598.14	46120.26
598.30	46068.76
598.46	46583.68
598.61	46749.86
598.77	46700.71
598.93	46649.22
599.09	46202.18
599.24	46656.24
599.40	46646.88
599.56	46546.23
599.71	46518.15
599.87	46707.73
600.03	46913.70
600.18	46497.08
600.34	46410.48
600.50	46546.23
600.65	46698.37
600.81	46583.68
600.97	46586.02
601.12	47098.60
601.28	46433.89
601.44	46408.14
601.59	46742.84
601.75	45993.87
601.91	46808.37
602.06	46291.12
602.22	46597.73
602.37	46581.34
602.53	46759.22
602.69	46440.91
602.84	46185.79
603.00	46216.22
603.16	46483.04
603.31	46639.86
603.47	46794.33
603.62	46469.00
603.78	46801.35
603.94	46511.13
604.09	46562.62
604.25	46007.91
604.40	45933.01
604.56	46422.19
604.71	46997.96
604.87	46497.08
605.03	45991.53
605.18	46382.40
605.34	46316.86
605.49	46548.57
605.65	46574.32
605.80	46155.36
605.96	46092.17
606.12	46010.25
606.27	46499.42
606.43	46281.75
606.58	47112.64
606.74	46415.16
606.89	46323.88
607.05	46539.21
607.20	46597.73
607.36	46579.00
607.51	46101.53
607.67	46550.91
607.82	46153.02
607.98	46213.88
608.13	46291.12
608.29	46227.92
608.44	46106.21
608.60	46099.19
608.75	45958.76
608.91	46007.91
609.06	46014.93
609.22	46579.00
609.37	46087.49
609.53	45989.19
609.68	46354.31
609.84	46450.27
609.99	46553.26
610.15	45794.92
610.30	46424.53
610.46	46115.58
610.61	46131.96
610.76	46218.56
610.92	45797.26
611.07	45773.86
611.23	45881.52
611.38	46073.45
611.54	46000.89
611.69	46129.62
611.84	46141.32
612.00	45825.35
612.15	46073.45
612.31	46064.08
612.46	45500.01
612.62	45696.62
612.77	45914.29
612.92	46534.53
613.08	46043.02
613.23	46326.22
613.39	45832.37
613.54	45584.27
613.69	45825.35
613.85	45904.93
614.00	45944.72
614.15	46043.02
614.31	45420.44
614.46	45935.35
614.62	45469.59
614.77	46103.87
614.92	45825.35
615.08	45813.65
615.23	45610.02
615.38	45507.04
615.54	45535.12
615.69	46452.61
615.84	45277.66
616.00	45963.44
616.15	45612.36
616.30	45872.16
616.46	45326.81
616.61	45492.99
616.76	45654.49
616.92	45352.56
617.07	45448.52
617.22	45230.85
617.37	45488.31
617.53	45263.62
617.68	45392.35
617.83	45209.79
617.99	45942.38
618.14	45701.30
618.29	45202.77
618.45	45261.28
618.60	45074.04
618.75	44837.64
618.90	44655.08
619.06	45422.78
619.21	44924.24
619.36	45560.87
619.51	45312.77
619.67	44758.06
619.82	45251.92
619.97	45586.61
620.12	45715.34
620.28	45165.32
620.43	45450.86
620.58	45364.26
620.73	45146.59
620.89	45563.21
621.04	45492.99
621.19	44694.87
621.34	44912.54
621.49	45106.80
621.65	45125.53
621.80	45146.59
621.95	44931.26
622.10	44893.82
622.25	45172.34
622.41	44886.79
622.56	44493.58
622.71	44676.15
622.86	45141.91
623.01	44879.77
623.16	45242.56
623.32	45125.53
623.47	44879.77
623.62	44765.09
623.77	45050.63
623.92	44624.65
624.07	44629.34
624.23	44631.68
624.38	45008.50
624.53	44751.04
624.68	44797.85
624.83	44811.90
624.98	44158.89
625.13	44596.57
625.29	44161.23
625.44	44531.03
625.59	44098.03
625.74	44002.07
625.89	44137.82
626.04	44109.74
626.19	44374.22
626.34	44268.89
626.49	43990.37
626.65	43889.73
626.80	43901.43
626.95	43992.71
627.10	43868.66
627.25	44421.03
627.40	44425.71
627.55	44053.56
627.70	43973.98
627.85	44306.34
628.00	44385.92
628.15	43995.05
628.30	43634.61
628.45	43737.59
628.60	43592.48
628.76	43569.07
628.91	43821.85
629.06	43157.14
629.21	43658.01
629.36	43590.14
629.51	43583.12
629.66	43761.00
629.81	43636.95
629.96	43597.16
630.11	43856.96
630.26	42981.60
630.41	43447.36
630.56	43412.26
630.71	43791.42
630.86	43124.37
631.01	43269.48
631.16	43564.39
631.31	43665.03
631.46	43433.32
631.61	43746.95
631.76	43782.06
631.91	43325.66
632.06	43423.96
632.21	43416.94
632.36	43524.60
632.51	43236.72
632.66	43105.65
632.81	43105.65
632.96	43250.76
633.10	42698.39
633.25	43388.85
633.40	43248.42
633.55	43723.55
633.70	43260.12
633.85	42658.60
634.00	42983.94
634.15	43210.97
634.30	42866.91
634.45	43164.16
634.60	42930.11
634.75	42969.90
634.90	43189.91
635.05	43049.47
635.19	42541.58
635.34	43363.11
635.49	43196.93
635.64	43009.68
635.79	43349.06
635.94	43098.62
636.09	42766.27
636.24	42401.14
636.39	43014.37
636.53	42862.23
636.68	42710.10
636.83	42602.43
636.98	42389.44
637.13	41933.04
637.28	42487.74
637.43	42129.64
637.57	42808.40
637.72	42738.18
637.87	42323.91
638.02	42253.69
638.17	42745.20
638.32	42178.79
638.46	42377.74
638.61	42321.57
638.76	42110.92
638.91	42864.57
639.06	42064.11
639.20	42003.25
639.35	42124.96
639.50	41785.58
639.65	42309.86
639.80	42550.94
639.94	42553.28
640.09	42583.71
640.24	42150.71
640.39	41923.68
640.54	41713.03
640.68	41961.12
640.83	42220.92
640.98	42164.75
641.13	41841.76
641.27	42204.54
641.42	41624.09
641.57	41830.05
641.72	41808.99
641.86	41628.77
642.01	41797.29
642.16	41347.90
642.31	41216.83
642.45	41780.90
642.60	41261.30
642.75	41855.80
642.90	41949.42
643.04	41277.69
643.19	41385.35
643.34	41319.82
643.48	41577.28
643.63	41207.47
643.78	41134.92
643.93	41324.50
644.07	41476.63
644.22	41731.75
644.37	41490.68
644.51	41684.94
644.66	41645.15
644.81	40832.99
644.95	41600.68
645.10	41151.30
645.25	40907.88
645.39	41109.17
645.54	41085.76
645.69	40816.60
645.83	40713.62
645.98	40835.33
646.13	41102.15
646.27	40832.99
646.42	40669.15
646.57	40914.90
646.71	40903.20
646.86	40722.98
647.00	40659.79
647.15	40959.38
647.30	40528.72
647.44	40816.60
647.59	40788.52
647.74	40847.03
647.88	40741.71
648.03	40957.03
648.17	41205.13
648.32	40622.34
648.47	41097.47
648.61	40472.54
648.76	40722.98
648.90	40594.25
649.05	40753.41
649.20	40465.52
649.34	40591.91
649.49	40889.16
649.63	40339.13
649.78	40442.12
649.92	40875.12
650.07	41193.43
650.21	40774.47
650.36	40905.54
650.51	40292.32
650.65	40631.70
650.80	40315.73
650.94	40622.34
651.09	40587.23
651.23	40353.18
651.38	40194.02
651.52	39842.94
651.67	40116.78
651.81	40130.83
651.96	40004.44
652.10	39594.84
652.25	39910.82
652.39	39976.35
652.54	40154.23
652.68	39847.62
652.83	39927.20
652.97	39821.87
653.12	39875.71
653.26	39728.25
653.41	39892.09
653.55	39903.79
653.70	39969.33
653.84	40407.01
653.99	40219.77
654.13	39793.79
654.27	39442.71
654.42	39955.29
654.56	39646.33
654.71	39948.26
654.85	39938.90
655.00	39924.86
655.14	39824.22
655.29	40254.87
655.43	40144.87
655.57	39269.51
655.72	39342.06
655.86	39323.34
656.01	39213.34
656.15	38738.21
656.30	39587.82
656.44	39384.19
656.58	39367.81
656.73	39477.82
656.87	39402.92
657.01	38801.40
657.16	39592.50
657.30	38946.51
657.45	39440.37
657.59	39044.82
657.73	38504.15
657.88	39068.22
658.02	39487.18
658.16	39363.13
658.31	39154.82
658.45	38852.89
658.60	38770.97
658.74	39075.24
658.88	39124.40
659.03	38806.08
659.17	38497.13
659.31	39009.71
659.46	38164.78
659.60	38728.84
659.74	38391.81
659.89	38667.99
660.03	37881.57
660.17	38513.52
660.32	38249.03
660.46	37963.49
660.60	37944.76
660.74	38326.27
660.89	38522.88
661.03	37865.19
661.17	38036.05
661.32	38057.11
661.46	38029.02
661.60	37818.38
661.74	37764.54
661.89	37956.47
662.03	37996.26
662.17	37764.54
662.31	38010.30
662.46	37975.19
662.60	37158.34
662.74	37202.82
662.88	37706.03
663.03	36957.06
663.17	37624.11
663.31	37020.25
663.45	37340.91
663.60	37376.01
663.74	37378.36
663.88	37291.76
664.02	36957.06
664.17	37486.02
664.31	36905.57
664.45	36348.52
664.59	36940.68
664.73	36879.82
664.88	37017.91
665.02	36563.85
665.16	36669.17
665.30	36957.06
665.44	36383.63
665.59	36311.07
665.73	36294.69
665.87	36322.77
666.01	36718.32
666.15	36442.14
666.29	36395.33
666.44	36416.40
666.58	36294.69
666.72	36788.54
666.86	35920.20
667.00	36077.02
667.14	36165.96
667.28	35665.08
667.43	36343.84
667.57	35995.10
667.71	35763.39
667.85	36306.39
667.99	35662.74
668.13	35508.27
668.27	35311.66
668.41	35447.41
668.56	35419.33
668.70	35105.70
668.84	34768.66
668.98	35260.17
669.12	35157.19
669.26	35208.68
669.40	35234.42
669.54	35292.94
669.68	35311.66
669.82	35023.78
669.96	34621.20
670.10	34967.60
670.25	34646.95
670.39	34686.74
670.53	34670.36
670.67	34866.96
670.81	34450.35
670.95	34295.87
671.09	34843.56
671.23	34265.44
671.37	34583.76
671.51	33928.41
671.65	34033.73
671.79	33881.60
671.93	34199.91
672.07	34469.07
672.21	34073.52
672.35	33495.41
672.49	33848.83
672.63	33876.91
672.77	33340.93
672.91	33558.60
673.05	33048.36
673.19	33312.84
673.33	33462.64
673.47	33081.13
673.61	32685.58
673.75	32973.47
673.89	32804.95
674.03	32510.04
674.17	32718.35
674.31	32800.27
674.45	32711.33
674.59	32343.86
674.73	32589.62
674.87	32505.36
675.01	32474.93
675.15	31997.46
675.29	32182.37
675.43	32039.59
675.56	32266.63
675.70	32016.19
675.84	31988.10
675.98	31030.82
676.12	31737.66
676.26	31910.86
676.40	31704.90
676.54	31339.77
676.68	31089.34
676.82	30649.32
676.96	31005.08
677.10	31037.84
677.23	30771.02
677.37	31204.02
677.51	30710.17
677.65	30691.44
677.79	30932.52
677.93	30654.00
678.07	30499.52
678.21	30099.29
678.34	30033.75
678.48	30003.33
678.62	29841.83
678.76	29989.28
678.90	29893.32
679.04	29872.26
679.18	30043.12
679.31	29436.92
679.45	29497.77
679.59	29270.74
679.73	29219.25
679.87	29223.93
680.00	29270.74
680.14	29324.57
680.28	29097.54
680.42	29074.13
680.56	29053.07
680.70	28760.50
680.83	28584.96
680.97	28664.54
681.11	28634.11
681.25	28360.27
681.39	27852.38
681.52	28259.63
681.66	27716.62
681.80	27424.06
681.94	27503.64
682.07	27702.58
682.21	27821.95
682.35	27225.11
682.49	27470.87
682.62	27236.81
682.76	27344.48
682.90	27407.67
683.04	27218.09
683.17	27068.30
683.31	27283.62
683.45	26728.92
683.59	26637.64
683.72	26431.67
683.86	26265.49
684.00	26412.95
684.13	26295.92
684.27	26162.51
684.41	26043.14
684.55	26426.99
684.68	25862.92
684.82	25743.55
684.96	25631.21
685.09	25404.17
685.23	26061.87
685.37	25881.64
685.50	26068.89
685.64	25443.96
685.78	25289.49
685.91	25048.41
686.05	24788.61
686.19	24650.52
686.32	24599.03
686.46	24159.01
686.60	24360.30
686.73	24877.55
686.87	24332.21
687.01	24629.46
687.14	24603.71
687.28	24180.07
687.42	24313.48
687.55	24151.99
687.69	24044.32
687.82	23838.36
687.96	23594.94
688.10	23955.38
688.23	23836.02
688.37	23522.38
688.50	23513.02
688.64	23459.19
688.78	23550.47
688.91	23264.92
689.05	23316.42
689.18	23157.26
689.32	22822.56
689.46	22958.31
689.59	22494.89
689.73	22829.59
689.86	22881.08
690.00	22679.79
690.13	22537.02
690.27	22192.96
690.41	22492.55
690.54	22192.96
690.68	22394.25
690.81	21703.79
690.95	21521.23
691.08	21661.66
691.22	21696.77
691.35	21659.32
691.49	21886.35
691.62	21364.41
691.76	21336.32
691.89	20924.39
692.03	20936.09
692.16	20826.09
692.30	21057.80
692.43	20772.25
692.57	20458.62
692.70	20739.49
692.84	20629.48
692.97	20304.15
693.11	20292.44
693.24	20325.21
693.38	20276.06
693.51	20030.30
693.65	20079.46
693.78	19852.42
693.92	19688.59
694.05	19974.13
694.19	19681.56
694.32	19742.42
694.45	19679.22
694.59	19548.15
694.72	19578.58
694.86	19328.14
694.99	19112.81
695.13	19171.33
695.26	18700.88
695.39	18574.49
695.53	18862.38
695.66	18752.37
695.80	18820.25
695.93	18609.60
696.07	18394.27
696.20	18066.60
696.33	18251.50
696.47	18036.17
696.60	17865.31
696.73	18548.75
696.87	18190.64
697.00	18178.94
697.14	17788.07
697.27	17886.37
697.40	17528.27
697.54	17762.33
697.67	17752.96
697.80	17359.75
697.94	17277.83
698.07	17261.45
698.21	17240.39
698.34	17572.74
698.47	16980.59
698.61	16650.57
698.74	16767.60
698.87	16851.86
699.01	16458.65
699.14	16500.78
699.27	16472.69
699.40	16486.73
699.54	16568.65
699.67	16498.44
699.80	16425.88
699.94	16259.70
700.07	16184.80
700.20	16177.78
700.34	16243.32
700.47	15999.90
700.60	16023.31
700.73	15976.50
700.87	15630.10
701.00	15494.35
701.13	15304.76
701.26	15192.42
701.40	15550.52
701.53	15236.89
701.66	15342.21
701.79	15342.21
701.93	14846.02
702.06	14977.09
702.19	14958.36
702.32	15049.64
702.46	14787.50
702.59	14853.04
702.72	14855.38
702.85	14801.55
702.99	14719.63
703.12	14359.19
703.25	14466.85
703.38	14223.44
703.51	14420.04
703.65	14097.05
703.78	14235.14
703.91	13893.42
704.04	13886.40
704.17	13879.38
704.31	13699.16
704.44	13624.26
704.57	13706.18
704.70	13792.78
704.83	13720.22
704.96	13589.15
705.10	13385.52
705.23	13418.29
>>>>>End Processed Spectral Data<<<<<
