SpectraSuite Data File
++++++++++++++++++++++++++++++++++++
Date: Fri Oct 25 10:44:21 EDT 2013
User: price-jones
Dark Spectrum Present: No
Reference Spectrum Present: No
Number of Sampled Component Spectra: 1
Spectrometers: USB2+H05261
Integration Time (usec): 100000 (USB2+H05261)
Spectra Averaged: 1 (USB2+H05261)
Boxcar Smoothing: 0 (USB2+H05261)
Correct for Electrical Dark: No (USB2+H05261)
Strobe/Lamp Enabled: No (USB2+H05261)
Correct for Detector Non-linearity: No (USB2+H05261)
Correct for Stray Light: No (USB2+H05261)
Number of Pixels in Processed Spectrum: 2048
>>>>>Begin Processed Spectral Data<<<<<
365.73	126.39
365.92	126.39
366.12	126.39
366.32	35.11
366.52	25.75
366.72	79.58
366.91	0.00
367.11	42.13
367.31	0.00
367.51	51.49
367.70	56.17
367.90	35.11
368.10	9.36
368.30	79.58
368.49	67.88
368.69	65.54
368.89	46.81
369.09	28.09
369.28	0.00
369.48	81.92
369.68	91.28
369.87	77.24
370.07	74.90
370.27	110.01
370.47	173.20
370.66	306.61
370.86	454.06
371.06	470.45
371.25	421.30
371.45	484.49
371.65	477.47
371.84	400.23
372.04	475.13
372.24	521.94
372.44	519.60
372.63	475.13
372.83	561.73
373.03	514.92
373.22	519.60
373.42	519.60
373.62	557.05
373.81	580.45
374.01	538.32
374.21	554.71
374.40	543.00
374.60	608.54
374.79	519.60
374.99	645.99
375.19	531.30
375.38	535.98
375.58	613.22
375.78	575.77
375.97	648.33
376.17	653.01
376.37	580.45
376.56	615.56
376.76	554.71
376.95	552.37
377.15	688.12
377.35	681.10
377.54	653.01
377.74	655.35
377.93	671.73
378.13	709.18
378.33	645.99
378.52	699.82
378.72	655.35
378.91	683.44
379.11	627.26
379.31	641.31
379.50	690.46
379.70	746.63
379.89	755.99
380.09	730.25
380.28	746.63
380.48	655.35
380.68	723.23
380.87	655.35
381.07	713.86
381.26	720.88
381.46	777.06
381.65	744.29
381.85	725.57
382.04	727.91
382.24	699.82
382.43	704.50
382.63	660.03
382.83	692.80
383.02	695.14
383.22	854.30
383.41	741.95
383.61	777.06
383.80	765.36
384.00	767.70
384.19	816.85
384.39	870.68
384.58	774.72
384.78	755.99
384.97	777.06
385.17	763.01
385.36	793.44
385.56	821.53
385.75	753.65
385.95	896.43
386.14	828.55
386.34	858.98
386.53	896.43
386.72	882.38
386.92	1022.81
387.11	940.90
387.31	903.45
387.50	926.85
387.70	936.21
387.89	997.07
388.09	926.85
388.28	950.26
388.48	926.85
388.67	1006.43
388.86	957.28
389.06	1008.77
389.25	931.53
389.45	1013.45
389.64	985.37
389.84	992.39
390.03	961.96
390.22	1081.33
390.42	1013.45
390.61	1046.22
390.81	1046.22
391.00	1071.97
391.19	1048.56
391.39	1062.60
391.58	1041.54
391.78	1064.94
391.97	1102.39
392.16	1067.28
392.36	1130.48
392.55	1132.82
392.75	959.62
392.94	994.73
393.13	1015.79
393.33	1029.84
393.52	1064.94
393.71	1062.60
393.91	1095.37
394.10	1114.10
394.29	1137.50
394.49	1224.10
394.68	1205.38
394.88	1303.68
395.07	1240.48
395.26	1348.15
395.46	1280.27
395.65	1299.00
395.84	1280.27
396.04	1329.42
396.23	1214.74
396.42	1217.08
396.62	1102.39
396.81	1348.15
397.00	1261.55
397.19	1392.62
397.39	1401.98
397.58	1451.13
397.77	1394.96
397.97	1411.34
398.16	1462.83
398.35	1497.94
398.55	1514.33
398.74	1511.99
398.93	1703.91
399.12	1551.78
399.32	1577.52
399.51	1659.44
399.70	1631.35
399.90	1774.13
400.09	1631.35
400.28	1586.88
400.47	1673.48
400.67	1640.72
400.86	1717.95
401.05	1701.57
401.24	1748.38
401.44	1830.30
401.63	1748.38
401.82	1710.93
402.01	1713.27
402.21	1806.89
402.40	1820.94
402.59	1797.53
402.78	1874.77
402.97	1797.53
403.17	1874.77
403.36	1877.11
403.55	1952.01
403.74	1968.39
403.93	1982.43
404.13	2036.27
404.32	1893.49
404.51	1849.02
404.70	1935.62
404.89	1989.46
405.09	2134.57
405.28	2076.06
405.47	2104.14
405.66	2038.61
405.85	2083.08
406.05	2029.24
406.24	2052.65
406.43	2059.67
406.62	2118.18
406.81	2272.66
407.00	2146.27
407.20	2186.06
407.39	2104.14
407.58	2190.74
407.77	2394.37
407.96	2291.38
408.15	2340.54
408.34	2382.67
408.54	2406.07
408.73	2415.43
408.92	2394.37
409.11	2457.56
409.30	2385.01
409.49	2385.01
409.68	2279.68
409.87	2324.15
410.07	2410.75
410.26	2363.94
410.45	2464.58
410.64	2532.46
410.83	2504.37
411.02	2724.38
411.21	2733.75
411.40	2705.66
411.59	2670.55
411.78	2691.62
411.98	2717.36
412.17	2813.32
412.36	2745.45
412.55	2899.92
412.74	2825.03
412.93	2925.67
413.12	2839.07
413.31	2951.42
413.50	2958.44
413.69	3033.33
413.88	2963.12
414.07	2988.86
414.26	3138.66
414.45	3045.04
414.64	3155.04
414.83	3105.89
415.02	3269.73
415.22	3248.66
415.41	3353.99
415.60	3302.50
415.79	3318.88
415.98	3332.92
416.17	3325.90
416.36	3386.76
416.55	3323.56
416.74	3435.91
416.93	3365.69
417.12	3412.50
417.31	3468.67
417.50	3541.23
417.69	3634.85
417.88	3665.28
418.07	3471.01
418.26	3534.21
418.45	3620.81
418.64	3723.79
418.83	3627.83
419.02	3665.28
419.21	3616.13
419.39	3581.02
419.58	3700.39
419.77	3623.15
419.96	3789.33
420.15	3791.67
420.34	3838.48
420.53	3819.75
420.72	3920.40
420.91	3871.25
421.10	3971.89
421.29	4084.23
421.48	3889.97
421.67	3990.61
421.86	4004.66
422.05	3967.21
422.24	3915.72
422.43	3946.14
422.61	4114.66
422.80	4109.98
422.99	4051.47
423.18	4147.43
423.37	4109.98
423.56	4124.02
423.75	4131.05
423.94	4023.38
424.13	3854.86
424.32	4049.13
424.50	4241.05
424.69	4119.34
424.88	4149.77
425.07	4093.60
425.26	4154.45
425.45	4121.68
425.64	3955.51
425.83	3997.64
426.01	3960.19
426.20	4163.81
426.39	4180.20
426.58	4126.36
426.77	4077.21
426.96	4117.00
427.15	4255.09
427.33	4175.52
427.52	4198.92
427.71	4205.94
427.90	4243.39
428.09	4241.05
428.28	4329.99
428.46	4269.14
428.65	4358.08
428.84	4514.89
429.03	4599.15
429.22	4337.01
429.40	4128.70
429.59	4173.18
429.78	4044.45
429.97	4016.36
430.16	4201.26
430.34	4147.43
430.53	4367.44
430.72	4367.44
430.91	4278.50
431.10	4447.02
431.28	4627.24
431.47	4716.18
431.66	4812.14
431.85	4690.43
432.03	4706.82
432.22	4943.21
432.41	4910.44
432.60	4880.02
432.79	4861.29
432.97	4980.66
433.16	5006.41
433.35	4933.85
433.54	4620.22
433.72	4882.36
433.91	4837.89
434.10	4837.89
434.28	5008.75
434.47	4908.10
434.66	5128.11
434.85	5125.77
435.03	5156.20
435.22	5128.11
435.41	5212.37
435.59	5305.99
435.78	5280.25
435.97	5174.92
436.16	5280.25
436.34	5214.71
436.53	5298.97
436.72	5329.40
436.90	5336.42
437.09	5530.69
437.28	5446.43
437.46	5355.15
437.65	5523.66
437.84	5385.57
438.02	5313.02
438.21	5404.30
438.40	5364.51
438.58	5533.03
438.77	5551.75
438.96	5579.84
439.14	5900.49
439.33	5767.08
439.52	6052.63
439.70	5870.06
439.89	5888.79
440.08	5919.21
440.26	5935.60
440.45	6024.54
440.63	6036.24
440.82	6090.07
441.01	6146.25
441.19	6181.35
441.38	6338.17
441.57	6420.09
441.75	6347.53
441.94	6588.61
442.12	6530.09
442.31	6773.51
442.50	6752.45
442.68	6600.31
442.87	6726.70
443.05	6612.01
443.24	6785.21
443.43	6656.48
443.61	6696.27
443.80	6993.52
443.98	6747.76
444.17	6576.91
444.35	6942.03
444.54	6738.40
444.73	6651.80
444.91	6773.51
445.10	6696.27
445.28	6661.16
445.47	6604.99
445.65	6658.82
445.84	6759.47
446.02	6836.70
446.21	6815.64
446.39	6869.47
446.58	6977.14
446.77	6960.75
446.95	6745.42
447.14	6897.56
447.32	6979.48
447.51	7021.61
447.69	6920.96
447.88	6707.98
448.06	6888.20
448.25	6895.22
448.43	7002.88
448.62	6904.58
448.80	7030.97
448.99	7115.23
449.17	7019.27
449.36	6932.67
449.54	7215.87
449.73	7119.91
449.91	7330.56
450.10	7328.22
450.28	7414.82
450.46	7492.05
450.65	7513.12
450.83	7386.73
451.02	7389.07
451.20	7660.57
451.39	7566.95
451.57	7566.95
451.76	7290.77
451.94	7494.40
452.13	7548.23
452.31	7466.31
452.49	7428.86
452.68	7772.92
452.86	7513.12
453.05	7442.90
453.23	7529.50
453.42	7667.60
453.60	7625.47
453.78	7625.47
453.97	7688.66
454.15	7845.48
454.34	7557.59
454.52	7939.10
454.70	7920.37
454.89	7831.43
455.07	7988.25
455.26	7929.74
455.44	8241.03
455.62	8009.31
455.81	7950.80
455.99	7997.61
456.17	7999.95
456.36	7995.27
456.54	8306.56
456.73	8306.56
456.91	8517.21
457.09	8421.25
457.28	8702.11
457.46	8294.86
457.64	8470.40
457.83	8432.95
458.01	8290.18
458.19	8620.19
458.38	8421.25
458.56	8608.49
458.74	8510.19
458.93	8428.27
459.11	8664.66
459.29	8585.08
459.48	8493.80
459.66	8526.57
459.84	8500.83
460.03	8833.18
460.21	8807.44
460.39	8802.75
460.57	8863.61
460.76	8903.40
460.94	9029.79
461.12	8990.00
461.31	8940.85
461.49	9142.13
461.67	8889.35
461.85	9228.73
462.04	9100.00
462.22	9100.00
462.40	9261.50
462.59	9085.96
462.77	9338.74
462.95	9268.52
463.13	9268.52
463.32	9142.13
463.50	9376.19
463.68	9341.08
463.86	9263.84
464.05	9298.95
464.23	9193.62
464.41	9324.69
464.59	9357.46
464.78	9579.81
464.96	9504.92
465.14	9448.74
465.32	9430.02
465.50	9724.93
465.69	9570.45
465.87	9551.73
466.05	9537.68
466.23	9493.21
466.41	9401.93
466.60	9738.97
466.78	9633.64
466.96	9577.47
467.14	9476.83
467.32	9841.95
467.51	10092.39
467.69	9696.84
467.87	9504.92
468.05	9858.34
468.23	10024.51
468.41	9977.70
468.60	9921.53
468.78	10071.33
468.96	10045.58
469.14	10125.16
469.32	10181.33
469.50	9872.38
469.69	9944.94
469.87	10022.17
470.05	10071.33
470.23	10097.07
470.41	10153.24
470.59	10176.65
470.77	10506.66
470.95	10345.17
471.14	10415.38
471.32	10160.27
471.50	10665.82
471.68	10633.05
471.86	10565.18
472.04	10553.48
472.22	10932.64
472.40	10684.55
472.58	10827.32
472.77	10995.84
472.95	11063.71
473.13	11314.15
473.31	10995.84
473.49	11180.74
473.67	10923.28
473.85	11239.25
474.03	11412.45
474.21	11426.50
474.39	11524.80
474.57	11541.18
474.75	11665.23
474.93	11812.68
475.12	11714.38
475.30	11712.04
475.48	11571.61
475.66	11800.98
475.84	11719.06
476.02	12035.03
476.20	11786.94
476.38	11957.80
476.56	12170.79
476.74	12208.23
476.92	12386.12
477.10	12280.79
477.28	12741.88
477.46	12442.29
477.64	12606.13
477.82	12676.34
478.00	13018.06
478.18	13085.94
478.36	12936.14
478.54	13202.96
478.72	13371.48
478.90	13476.80
479.08	13645.32
479.26	13750.65
479.44	13500.21
479.62	13919.17
479.80	13755.33
479.98	13940.23
480.16	14218.75
480.34	14057.26
480.52	14263.22
480.70	14295.99
480.88	14380.25
481.06	14586.22
481.24	14637.71
481.41	14618.99
481.59	14916.23
481.77	14808.57
481.95	14946.66
482.13	15213.48
482.31	14822.61
482.49	15412.43
482.67	15169.01
482.85	15576.27
483.03	15770.53
483.21	15805.64
483.39	15602.01
483.57	15960.11
483.74	15960.11
483.92	16149.70
484.10	15903.94
484.28	16226.93
484.46	16402.47
484.64	16879.94
484.82	16730.15
485.00	16713.77
485.18	17020.38
485.35	17181.87
485.53	16613.12
485.71	16559.29
485.89	16837.81
486.07	16999.31
486.25	17319.96
486.43	17270.81
486.61	17579.76
486.78	17731.90
486.96	17860.63
487.14	18192.98
487.32	18412.99
487.50	18555.77
487.68	18909.19
487.85	18932.59
488.03	19241.54
488.21	19234.52
488.39	19286.01
488.57	19454.53
488.75	19346.87
488.92	19620.71
489.10	19817.32
489.28	19913.28
489.46	20482.03
489.64	20329.89
489.81	20879.92
489.99	20835.45
490.17	20772.25
490.35	21128.02
490.53	20947.79
490.70	21167.80
490.88	21228.66
491.06	21673.36
491.24	21500.16
491.41	21781.03
491.59	21474.42
491.77	21483.78
491.95	21706.13
492.13	22073.59
492.30	22239.77
492.48	22284.24
492.66	22728.94
492.84	22342.75
493.01	22906.82
493.19	22534.68
493.37	23040.23
493.54	23349.18
493.72	23440.47
493.90	23470.89
494.08	23456.85
494.25	23873.46
494.43	24091.13
494.61	24233.91
494.79	24198.80
494.96	24123.90
495.14	24353.27
495.32	24636.48
495.49	24474.98
495.67	24891.60
495.85	24788.61
496.02	25266.08
496.20	25097.56
496.38	24950.11
496.55	25315.23
496.73	25715.47
496.91	25671.00
497.09	26064.21
497.26	26087.61
497.44	25825.47
497.62	25951.86
497.79	26363.79
497.97	25986.97
498.14	26075.91
498.32	26155.49
498.50	26529.97
498.67	26810.84
498.85	26941.91
499.03	27150.21
499.20	27014.46
499.38	27117.45
499.56	27325.75
499.73	27215.75
499.91	27302.35
500.08	27161.92
500.26	26883.39
500.44	27431.08
500.61	27639.39
500.79	27269.58
500.97	27955.36
501.14	28070.04
501.32	27798.54
501.49	28051.32
501.67	27845.35
501.84	28577.94
502.02	28603.69
502.20	28390.70
502.37	28772.21
502.55	28664.54
502.72	28987.53
502.90	29090.52
503.07	28603.69
503.25	29067.11
503.43	28814.34
503.60	29425.22
503.78	29027.32
503.95	29092.86
504.13	29373.72
504.30	29708.42
504.48	29785.66
504.65	29703.74
504.83	29677.99
505.01	30096.95
505.18	30012.69
505.36	30363.77
505.53	30426.96
505.71	30499.52
505.88	30710.17
506.06	30181.21
506.23	30588.46
506.41	30307.60
506.58	30778.04
506.76	31105.72
506.93	30892.73
507.11	31007.42
507.28	31000.40
507.46	30703.15
507.63	30852.94
507.81	30855.28
507.98	31185.30
508.16	31442.76
508.33	31503.61
508.50	31878.10
508.68	32058.32
508.85	31990.44
509.03	32034.91
509.20	32173.00
509.38	32556.85
509.55	31913.20
509.73	31997.46
509.90	31744.69
510.08	32290.03
510.25	32205.77
510.42	32734.73
510.60	32701.96
510.77	32697.28
510.95	33057.73
511.12	32634.09
511.30	33125.60
511.47	33668.61
511.64	33558.60
511.82	33649.88
511.99	33247.31
512.17	33544.56
512.34	33031.98
512.51	33647.54
512.69	33701.37
512.86	33839.47
513.04	33797.34
513.21	33680.31
513.38	33699.03
513.56	33621.80
513.73	33532.86
513.90	33481.36
514.08	34288.85
514.25	34089.90
514.43	34363.75
514.60	34368.43
514.77	34611.84
514.95	34827.17
515.12	34724.19
515.29	34717.17
515.47	35070.59
515.64	35150.17
515.81	34766.32
515.99	34778.02
516.16	34698.44
516.33	34368.43
516.51	34656.31
516.68	34562.69
516.85	34054.79
517.03	34665.67
517.20	35239.11
517.37	35035.48
517.54	35426.35
517.72	35091.65
517.89	34763.98
518.06	35157.19
518.24	35030.80
518.41	35241.45
518.58	35295.28
518.75	35402.94
518.93	35929.56
519.10	35772.75
519.27	35599.55
519.45	35737.64
519.62	36266.60
519.79	36416.40
519.96	36100.42
520.14	37010.89
520.31	36531.08
520.48	36018.50
520.65	36505.34
520.83	36964.08
521.00	36772.16
521.17	37212.18
521.34	36828.33
521.52	36978.12
521.69	37408.78
521.86	37326.86
522.03	37354.95
522.20	37518.79
522.38	37399.42
522.55	37666.24
522.72	37174.73
522.89	37450.91
523.07	37312.82
523.24	37280.05
523.41	38192.86
523.58	37879.23
523.75	38335.63
523.92	37984.55
524.10	38246.69
524.27	38857.57
524.44	38426.92
524.61	38082.86
524.78	38483.09
524.96	38450.32
525.13	38717.14
525.30	39203.97
525.47	38653.95
525.64	38721.82
525.81	39147.80
525.98	38132.01
526.16	38576.71
526.33	38050.09
526.50	38082.86
526.67	38667.99
526.84	38054.77
527.01	38789.70
527.18	38773.31
527.36	39328.02
527.53	39054.18
527.70	39622.93
527.87	39421.64
528.04	39182.91
528.21	39580.80
528.38	39353.77
528.55	40102.74
528.72	40086.36
528.89	40488.93
529.07	39910.82
529.24	39517.60
529.41	39763.36
529.58	39742.30
529.75	39782.09
529.92	39784.43
530.09	39938.90
530.26	40147.21
530.43	40170.61
530.60	40278.28
530.77	40292.32
530.94	40402.33
531.11	40219.77
531.28	40299.34
531.46	40706.60
531.63	40624.68
531.80	40666.81
531.97	40435.10
532.14	40355.52
532.31	39985.71
532.48	40524.04
532.65	40966.40
532.82	40708.94
532.99	41134.92
533.16	40811.92
533.33	40807.24
533.50	40957.03
533.67	40926.61
533.84	40753.41
534.01	40858.73
534.18	40835.33
534.35	41453.23
534.52	40910.22
534.69	41645.15
534.86	41881.55
535.03	41411.10
535.20	41848.78
535.37	41734.09
535.54	42019.64
535.71	42026.66
535.88	41560.89
536.05	41207.47
536.22	41766.86
536.38	41844.10
536.55	42082.83
536.72	42019.64
536.89	41373.65
537.06	41556.21
537.23	41731.75
537.40	42036.02
537.57	41982.19
537.74	42134.32
537.91	42307.52
538.08	42155.39
538.25	42319.23
538.42	42333.27
538.59	42621.16
538.75	42192.84
538.92	42349.65
539.09	42150.71
539.26	42459.66
539.43	42536.90
539.60	42607.11
539.77	42323.91
539.94	42272.42
540.11	42272.42
540.28	42422.21
540.44	42415.19
540.61	42567.32
540.78	42204.54
540.95	42522.85
541.12	42052.41
541.29	42239.65
541.46	43000.32
541.62	43358.42
541.79	43356.08
541.96	42330.93
542.13	42864.57
542.30	43000.32
542.47	43103.31
542.63	43159.48
542.80	43044.79
542.97	43461.41
543.14	43672.06
543.31	43618.22
543.48	43646.31
543.64	43999.73
543.81	44009.09
543.98	43564.39
544.15	44027.82
544.32	43810.15
544.48	44133.14
544.65	43515.24
544.82	44353.15
544.99	43842.92
545.16	43999.73
545.32	44219.74
545.49	44495.92
545.66	44275.91
545.83	44179.95
546.00	44648.06
546.16	44222.08
546.33	44067.61
546.50	44065.27
546.67	44460.82
546.83	44329.75
547.00	44268.89
547.17	44591.89
547.34	44339.11
547.50	44004.41
547.67	44577.84
547.84	44432.73
548.00	44327.41
548.17	44837.64
548.34	44739.34
548.51	45034.25
548.67	44641.04
548.84	44643.38
549.01	45123.19
549.18	44713.59
549.34	44858.71
549.51	45095.10
549.68	44973.39
549.84	44938.29
550.01	45067.02
550.18	44732.32
550.34	45017.86
550.51	44992.12
550.68	44882.11
550.84	44692.53
551.01	45340.86
551.18	44765.09
551.34	45160.64
551.51	45198.09
551.68	44975.73
551.84	45399.37
552.01	45127.87
552.18	45144.25
552.34	45148.93
552.51	45179.36
552.68	45350.22
552.84	45102.12
553.01	45558.53
553.18	45443.84
553.34	45579.59
553.51	45270.64
553.67	45336.18
553.84	45663.85
554.01	45787.90
554.17	45378.31
554.34	45808.96
554.51	45544.48
554.67	45748.11
554.84	45511.72
555.00	45581.93
555.17	45689.60
555.33	45804.28
555.50	45923.65
555.67	45727.05
555.83	45518.74
556.00	46110.89
556.16	46017.27
556.33	45729.39
556.50	45581.93
556.66	45762.15
556.83	45851.09
556.99	46122.60
557.16	46171.75
557.32	46017.27
557.49	45921.31
557.65	46059.40
557.82	46052.38
557.98	46178.77
558.15	46206.86
558.32	45855.78
558.48	46279.41
558.65	46225.58
558.81	45680.24
558.98	45759.81
559.14	46485.38
559.31	45471.93
559.47	46272.39
559.64	46298.14
559.80	46192.81
559.97	45954.08
560.13	46256.01
560.30	46450.27
560.46	46113.23
560.63	46518.15
560.79	46363.67
560.96	46588.36
561.12	46520.49
561.29	46265.37
561.45	45989.19
561.61	46136.64
561.78	46363.67
561.94	46260.69
562.11	46394.10
562.27	46375.37
562.44	46253.67
562.60	46604.75
562.77	46646.88
562.93	46272.39
563.10	46749.86
563.26	46169.41
563.42	46672.62
563.59	46373.03
563.75	46494.74
563.92	46335.59
564.08	46721.77
564.24	46789.65
564.41	46384.74
564.57	46574.32
564.74	46588.36
564.90	46611.77
565.07	46319.20
565.23	46518.15
565.39	46190.47
565.56	46689.01
565.72	46674.96
565.88	46644.54
566.05	46501.76
566.21	46689.01
566.38	46483.04
566.54	46600.07
566.70	46831.78
566.87	47402.87
567.03	46492.40
567.19	47133.71
567.36	46784.97
567.52	46412.82
567.68	46607.09
567.85	46799.01
568.01	46564.96
568.17	46705.39
568.34	46897.31
568.50	47009.66
568.66	46894.97
568.83	46878.59
568.99	46632.83
569.15	46923.06
569.32	47332.65
569.48	46546.23
569.64	46581.34
569.81	46927.74
569.97	46817.74
570.13	46731.14
570.30	46328.56
570.46	46541.55
570.62	46438.57
570.78	46403.46
570.95	46719.43
571.11	47224.99
571.27	46724.11
571.43	46497.08
571.60	46913.70
571.76	46857.52
571.92	47203.92
572.09	47086.90
572.25	46791.99
572.41	46527.51
572.57	47213.29
572.74	47421.59
572.90	46902.00
573.06	47260.10
573.22	46803.69
573.38	46883.27
573.55	46852.84
573.71	46923.06
573.87	46960.51
574.03	46878.59
574.20	47105.62
574.36	47007.32
574.52	47248.39
574.68	46672.62
574.84	46866.89
575.01	47208.61
575.17	46686.67
575.33	46646.88
575.49	46976.89
575.65	46904.34
575.82	46944.12
575.98	46937.10
576.14	46997.96
576.30	47124.35
576.46	46930.08
576.62	47243.71
576.79	47220.31
576.95	46646.88
577.11	46852.84
577.27	46848.16
577.43	47002.64
577.59	46710.07
577.75	46674.96
577.92	46703.05
578.08	46466.66
578.24	46555.60
578.40	47014.34
578.56	47093.92
578.72	46976.89
578.88	46969.87
579.04	47051.79
579.21	46923.06
579.37	46768.58
579.53	47035.41
579.69	46389.42
579.85	47075.19
580.01	47007.32
580.17	46993.28
580.33	47608.84
580.49	47255.42
580.65	46866.89
580.82	47391.17
580.98	47091.58
581.14	46586.02
581.30	47456.70
581.46	47161.79
581.62	46899.65
581.78	47063.49
581.94	47363.08
582.10	46920.72
582.26	47257.76
582.42	46920.72
582.58	46948.81
582.74	46890.29
582.90	47208.61
583.06	47519.90
583.22	47072.85
583.38	47136.05
583.54	47367.76
583.70	47133.71
583.86	47466.06
584.02	47185.20
584.18	47044.77
584.34	47110.30
584.50	47061.15
584.66	47044.77
584.82	46665.60
584.98	47295.21
585.14	47206.26
585.30	47419.25
585.46	46885.61
585.62	46700.71
585.78	46960.51
585.94	46909.02
586.10	46993.28
586.26	46710.07
586.42	47337.33
586.58	47367.76
586.74	47201.58
586.90	46960.51
587.06	46894.97
587.22	47159.45
587.38	46766.24
587.54	47377.12
587.70	47182.86
587.86	46904.34
588.02	47037.75
588.18	47171.16
588.34	46960.51
588.49	46281.75
588.65	46361.33
588.81	46520.49
588.97	46461.97
589.13	46602.41
589.29	46658.58
589.45	46993.28
589.61	46859.87
589.77	47269.46
589.93	47114.98
590.08	47463.72
590.24	47388.83
590.40	47295.21
590.56	47168.82
590.72	47264.78
590.88	47093.92
591.04	47473.09
591.20	47826.51
591.35	47753.95
591.51	47672.03
591.67	47260.10
591.83	47379.46
591.99	47047.11
592.15	47309.25
592.31	46981.57
592.46	47201.58
592.62	47580.75
592.78	47477.77
592.94	47416.91
593.10	47051.79
593.26	47295.21
593.41	47086.90
593.57	47110.30
593.73	47117.32
593.89	47281.16
594.05	47112.64
594.20	47040.09
594.36	47126.69
594.52	47056.47
594.68	46763.90
594.84	47096.26
594.99	47089.24
595.15	47274.14
595.31	47248.39
595.47	47122.01
595.62	47241.37
595.78	47297.55
595.94	47402.87
596.10	47468.40
596.25	47000.30
596.41	47552.66
596.57	47367.76
596.73	47760.97
596.88	47250.74
597.04	47353.72
597.20	47470.75
597.36	47239.03
597.51	47693.10
597.67	47576.07
597.83	47456.70
597.99	47395.85
598.14	47423.93
598.30	46768.58
598.46	47208.61
598.61	47030.72
598.77	46880.93
598.93	46820.08
599.09	47306.91
599.24	47540.96
599.40	47370.10
599.56	47161.79
599.71	47585.43
599.87	47484.79
600.03	47075.19
600.18	47084.56
600.34	47562.03
600.50	47547.98
600.65	47107.96
600.81	47547.98
600.97	47299.89
601.12	47639.26
601.28	47526.92
601.44	47306.91
601.59	47168.82
601.75	46815.40
601.91	47124.35
602.06	47004.98
602.22	47271.80
602.37	46827.10
602.53	47056.47
602.69	47679.05
602.84	47257.76
603.00	47187.54
603.16	47119.66
603.31	47337.33
603.47	47402.87
603.62	46789.65
603.78	47224.99
603.94	47110.30
604.09	47599.47
604.25	47246.05
604.40	47180.52
604.56	47056.47
604.71	47178.18
604.87	46513.47
605.03	47012.00
605.18	46995.62
605.34	47056.47
605.49	46754.54
605.65	47285.84
605.80	46836.46
605.96	47157.11
606.12	47072.85
606.27	47166.48
606.43	47152.43
606.58	47117.32
606.74	46590.70
606.89	47175.84
607.05	47023.70
607.20	46862.21
607.36	46997.96
607.51	46859.87
607.67	46698.37
607.82	46693.69
607.98	46174.09
608.13	46681.98
608.29	46700.71
608.44	46614.11
608.60	46492.40
608.75	46305.16
608.91	46424.53
609.06	46789.65
609.22	46693.69
609.37	46405.80
609.53	46557.94
609.68	45860.46
609.84	46204.52
609.99	46829.44
610.15	46054.72
610.30	46307.50
610.46	46600.07
610.61	46389.42
610.76	46642.20
610.92	46726.46
611.07	46670.28
611.23	46607.09
611.38	46461.97
611.54	46518.15
611.69	46333.24
611.84	46174.09
612.00	46604.75
612.15	46611.77
612.31	46429.21
612.46	45841.73
612.62	46155.36
612.77	46539.21
612.92	46358.99
613.08	45874.50
613.23	45942.38
613.39	46124.94
613.54	46181.11
613.69	46122.60
613.85	45825.35
614.00	45982.16
614.15	46417.50
614.31	46403.46
614.46	46120.26
614.62	46410.48
614.77	46080.47
614.92	45729.39
615.08	45933.01
615.23	45837.05
615.38	45790.24
615.54	45577.25
615.69	45600.66
615.84	45656.83
616.00	45858.12
616.15	45507.04
616.30	45890.88
616.46	45193.40
616.61	45214.47
616.76	45558.53
616.92	45099.78
617.07	45076.38
617.22	45413.41
617.37	45139.57
617.53	45993.87
617.68	45872.16
617.83	45729.39
617.99	45240.21
618.14	45888.54
618.29	45399.37
618.45	45429.80
618.60	45584.27
618.75	45188.72
618.90	45588.95
619.06	45413.41
619.21	45502.35
619.36	45769.18
619.51	45305.75
619.67	44954.67
619.82	45911.95
619.97	45305.75
620.12	45134.89
620.28	44966.37
620.43	45109.14
620.58	45045.95
620.73	44928.92
620.89	44816.58
621.04	45059.99
621.19	44673.81
621.34	45186.38
621.49	45193.40
621.65	44664.44
621.80	45076.38
621.95	44828.28
622.10	44800.19
622.25	44041.86
622.41	44315.70
622.56	44388.26
622.71	44940.63
622.86	44467.84
623.01	44933.60
623.16	44538.05
623.32	44575.50
623.47	44458.48
623.62	44484.22
623.77	44238.47
623.92	44800.19
624.07	44287.62
624.23	44371.88
624.38	44224.42
624.53	44203.36
624.68	44126.12
624.83	44016.11
624.98	44259.53
625.13	44191.65
625.29	44088.67
625.44	43988.03
625.59	43641.63
625.74	44032.50
625.89	43992.71
626.04	43859.30
626.19	43990.37
626.34	44261.87
626.49	44058.24
626.65	44149.53
626.80	43934.20
626.95	44154.21
627.10	43805.47
627.25	43798.44
627.40	43732.91
627.55	43442.68
627.70	42909.04
627.85	43356.08
628.00	43232.04
628.15	43175.86
628.30	43400.55
628.45	43386.51
628.60	43587.80
628.76	43395.87
628.91	43906.11
629.06	43302.25
629.21	43306.93
629.36	43426.30
629.51	42983.94
629.66	42670.31
629.81	42834.14
629.96	42871.59
630.11	42993.30
630.26	43358.42
630.41	43526.94
630.56	43271.82
630.71	42670.31
630.86	43079.90
631.01	43007.34
631.16	42635.20
631.31	42728.82
631.46	42670.31
631.61	42965.21
631.76	43164.16
631.91	43157.14
632.06	42796.70
632.21	42911.38
632.36	43005.00
632.51	42658.60
632.66	42983.94
632.81	42153.05
632.96	43033.09
633.10	42511.15
633.25	42705.41
633.40	42880.95
633.55	42878.61
633.70	42007.94
633.85	42204.54
634.00	42234.97
634.15	42459.66
634.30	42373.06
634.45	42260.71
634.60	42635.20
634.75	42576.69
634.90	42548.60
635.05	42010.28
635.19	42176.45
635.34	42417.53
635.49	42188.16
635.64	42033.68
635.79	42230.29
635.94	42419.87
636.09	42089.85
636.24	41949.42
636.39	41956.44
636.53	41539.83
636.68	41701.32
636.83	42134.32
636.98	42373.06
637.13	41818.35
637.28	42197.52
637.43	41876.86
637.57	42263.05
637.72	42199.86
637.87	41926.02
638.02	42075.81
638.17	41713.03
638.32	41942.40
638.46	41514.08
638.61	41703.67
638.76	41703.67
638.91	41883.89
639.06	41401.74
639.20	41596.00
639.35	41542.17
639.50	41984.53
639.65	41869.84
639.80	41385.35
639.94	41179.39
640.09	41457.91
640.24	40884.48
640.39	41394.71
640.54	40666.81
640.68	41188.75
640.83	41537.49
640.98	41331.52
641.13	40856.39
641.27	41120.87
641.42	41116.19
641.57	40926.61
641.72	41111.51
641.86	41263.64
642.01	40577.87
642.16	40528.72
642.31	40458.50
642.45	41170.02
642.60	40938.31
642.75	41247.26
642.90	40734.68
643.04	40718.30
643.19	40460.84
643.34	40924.27
643.48	40559.14
643.63	40236.15
643.78	40509.99
643.93	40229.13
644.07	40685.53
644.22	40907.88
644.37	40643.40
644.51	40435.10
644.66	40472.54
644.81	40474.88
644.95	40568.51
645.10	40428.07
645.25	40376.58
645.39	40898.52
645.54	40519.35
645.69	40240.83
645.83	40112.10
645.98	40774.47
646.13	40470.20
646.27	40378.92
646.42	40528.72
646.57	40058.27
646.71	39915.50
646.86	40137.85
647.00	40163.59
647.15	40498.29
647.30	39976.35
647.44	40154.23
647.59	39988.05
647.74	39707.19
647.88	40086.36
648.03	40002.10
648.17	39948.26
648.32	39716.55
648.47	39831.24
648.61	39517.60
648.76	40336.79
648.90	39704.85
649.05	40109.76
649.20	39665.06
649.34	39768.04
649.49	39491.86
649.63	39494.20
649.78	39194.61
649.92	39793.79
650.07	39833.58
650.21	39096.31
650.36	39512.92
650.51	39100.99
650.65	39936.56
650.80	40261.90
650.94	39779.74
651.09	39248.44
651.23	39510.58
651.38	39468.45
651.52	39442.71
651.67	39325.68
651.81	38979.28
651.96	39005.03
652.10	39098.65
652.25	39054.18
652.39	38911.41
652.54	39456.75
652.68	39407.60
652.83	39508.24
652.97	39529.31
653.12	39470.79
653.26	38974.60
653.41	38504.15
653.55	38679.69
653.70	38803.74
653.84	39199.29
653.99	39349.09
654.13	38553.30
654.27	38747.57
654.42	38415.21
654.56	38511.17
654.71	38981.62
654.85	38937.15
655.00	38513.52
655.14	38356.70
655.29	38424.57
655.43	37963.49
655.57	38572.03
655.72	38197.54
655.86	38040.73
656.01	37701.35
656.15	37537.51
656.30	37890.93
656.44	38249.03
656.58	37794.97
656.73	37832.42
656.87	38017.32
657.01	38286.48
657.16	38005.62
657.30	38129.67
657.45	37647.52
657.59	37888.59
657.73	37827.74
657.88	38249.03
658.02	38045.41
658.16	38078.18
658.31	38347.34
658.45	37876.89
658.60	37696.67
658.74	38232.65
658.88	37834.76
659.03	37724.75
659.17	37687.31
659.31	37390.06
659.46	37516.45
659.60	37687.31
659.74	37544.53
659.89	37689.65
660.03	37537.51
660.17	37427.51
660.32	37471.98
660.46	37546.87
660.60	37235.58
660.74	37502.40
660.89	37474.32
661.03	37298.78
661.17	36690.24
661.32	36898.55
661.46	37097.49
661.60	36961.74
661.74	36608.32
661.89	36786.20
662.03	36833.01
662.17	36503.00
662.31	36451.50
662.46	36746.41
662.60	36505.34
662.74	36182.34
662.88	36669.17
663.03	36687.90
663.17	36126.17
663.31	36198.73
663.45	36446.82
663.60	36746.41
663.74	36329.80
663.88	36020.84
664.02	35910.84
664.17	36327.45
664.31	35838.28
664.45	35985.74
664.59	35697.85
664.73	36163.62
664.88	35971.69
665.02	35491.88
665.16	35634.66
665.30	35365.49
665.44	35761.05
665.59	35145.48
665.73	35594.87
665.87	35328.05
666.01	35564.44
666.15	35416.99
666.29	35227.40
666.44	35693.17
666.58	35213.36
666.72	35306.98
666.86	34859.94
667.00	35309.32
667.14	35093.99
667.28	34660.99
667.43	34782.70
667.57	35192.30
667.71	34618.86
667.85	34859.94
667.99	34490.13
668.13	34483.11
668.27	34450.35
668.41	34991.01
668.56	34408.22
668.70	34796.74
668.84	34227.99
668.98	34160.12
669.12	33846.49
669.26	34085.22
669.40	33998.62
669.54	33905.00
669.68	33785.63
669.82	33553.92
669.96	33708.40
670.10	33696.69
670.25	33886.28
670.39	33706.05
670.53	33195.82
670.67	33413.49
670.81	34085.22
670.95	33352.63
671.09	33481.36
671.23	33490.73
671.37	33130.28
671.51	33364.34
671.65	33029.64
671.79	32968.79
671.93	33275.40
672.07	33010.92
672.21	32996.87
672.35	33282.42
672.49	32879.85
672.63	33078.79
672.77	32491.32
672.91	32496.00
673.05	32776.86
673.19	32512.38
673.33	32582.60
673.47	32163.64
673.61	31934.27
673.75	31983.42
673.89	32236.20
674.03	31847.67
674.17	31981.08
674.31	31543.40
674.45	31740.00
674.59	31590.21
674.73	31669.79
674.87	31920.23
675.01	31709.58
675.15	31519.99
675.29	31936.61
675.43	31002.74
675.56	31452.12
675.70	31276.58
675.84	31370.20
675.98	30249.08
676.12	30539.31
676.26	30796.77
676.40	30993.37
676.54	31091.68
676.68	31108.06
676.82	30347.39
676.96	30295.89
677.10	30401.22
677.23	30256.11
677.37	30167.16
677.51	29940.13
677.65	29713.10
677.79	29879.28
677.93	29923.75
678.07	29638.20
678.21	29193.50
678.34	29717.78
678.48	29132.65
678.62	29111.58
678.76	29039.03
678.90	28929.02
679.04	28938.38
679.18	28945.41
679.31	28905.62
679.45	28886.89
679.59	28383.68
679.73	28517.09
679.87	28339.21
680.00	28519.43
680.14	28264.31
680.28	28144.94
680.42	28236.22
680.56	28381.34
680.70	28126.22
680.83	28329.84
680.97	27908.55
681.11	27751.73
681.25	27754.07
681.39	27538.74
681.52	27775.14
681.66	27740.03
681.80	27197.02
681.94	27367.88
682.07	27281.28
682.21	27227.45
682.35	27044.89
682.49	27314.05
682.62	27063.61
682.76	26913.82
682.90	27014.46
683.04	26426.99
683.17	26389.54
683.31	26216.34
683.45	26099.31
683.59	26398.90
683.72	25788.02
683.86	25993.99
684.00	25961.22
684.13	26164.85
684.27	25809.09
684.41	25500.14
684.55	25652.27
684.68	25692.06
684.82	25748.23
684.96	25511.84
685.09	25535.24
685.23	25111.61
685.37	25113.95
685.50	25153.74
685.64	25221.61
685.78	24615.41
685.91	24959.47
686.05	24613.07
686.19	24573.28
686.32	24521.79
686.46	24102.84
686.60	23648.77
686.73	23864.10
686.87	23637.07
687.01	23452.17
687.14	23531.75
687.28	23503.66
687.42	23564.51
687.55	23543.45
687.69	23250.88
687.82	23391.31
687.96	23393.65
688.10	23377.27
688.23	23119.81
688.37	22623.62
688.50	23098.75
688.64	23009.81
688.78	22726.60
688.91	22738.30
689.05	22848.31
689.18	22925.55
689.32	22340.41
689.46	22768.73
689.59	22405.95
689.73	22583.83
689.86	22258.49
690.00	22157.85
690.13	22089.98
690.27	21734.21
690.41	21949.54
690.54	21488.46
690.68	21472.07
690.81	21703.79
690.95	21359.73
691.08	21214.62
691.22	21642.93
691.35	21486.12
691.49	21511.86
691.62	21319.94
691.76	21362.07
691.89	21130.36
692.03	20924.39
692.16	21181.85
692.30	20624.80
692.43	20650.55
692.57	20706.72
692.70	20156.69
692.84	20123.93
692.97	20491.39
693.11	20177.76
693.24	20271.38
693.38	20269.04
693.51	19894.55
693.65	20285.42
693.78	20046.69
693.92	19901.58
694.05	20030.30
694.19	19672.20
694.32	19719.01
694.45	19578.58
694.59	19257.93
694.72	19274.31
694.86	19152.60
694.99	19215.80
695.13	19030.90
695.26	18808.54
695.39	18843.65
695.53	19094.09
695.66	18836.63
695.80	19119.84
695.93	18567.47
696.07	18586.19
696.20	18499.59
696.33	18616.62
696.47	18480.87
696.60	18377.89
696.73	18291.29
696.87	18211.71
697.00	18068.94
697.14	18038.51
697.27	17928.50
697.40	17823.18
697.54	17823.18
697.67	17977.65
697.80	17380.82
697.94	17427.63
698.07	17427.63
698.21	17338.69
698.34	17315.28
698.47	17055.48
698.61	16819.09
698.74	16973.56
698.87	17048.46
699.01	16631.85
699.14	16673.98
699.27	16475.03
699.40	16561.63
699.54	16563.97
699.67	16304.17
699.80	16482.05
699.94	16189.49
700.07	16154.38
700.20	16173.10
700.34	16243.32
700.47	16121.61
700.60	16599.08
700.73	16217.57
700.87	16081.82
701.00	15922.66
701.13	16025.65
701.26	15983.52
701.40	15655.84
701.53	15346.89
701.66	15641.80
701.79	15337.53
701.93	15545.84
702.06	15211.14
702.19	14836.66
702.32	15311.78
702.46	15023.90
702.59	15040.28
702.72	15192.42
702.85	15393.70
702.99	15124.54
703.12	15033.26
703.25	14721.97
703.38	14530.05
703.51	14771.12
703.65	14937.30
703.78	14611.96
703.91	14597.92
704.04	14375.57
704.17	14270.25
704.31	14331.10
704.44	14183.65
704.57	14092.37
704.70	14026.83
704.83	13989.38
704.96	14057.26
705.10	13975.34
705.23	14040.87
>>>>>End Processed Spectral Data<<<<<
