SpectraSuite Data File
++++++++++++++++++++++++++++++++++++
Date: Fri Oct 25 10:47:54 EDT 2013
User: price-jones
Dark Spectrum Present: No
Reference Spectrum Present: No
Number of Sampled Component Spectra: 1
Spectrometers: USB2+H05261
Integration Time (usec): 100000 (USB2+H05261)
Spectra Averaged: 1 (USB2+H05261)
Boxcar Smoothing: 0 (USB2+H05261)
Correct for Electrical Dark: No (USB2+H05261)
Strobe/Lamp Enabled: No (USB2+H05261)
Correct for Detector Non-linearity: No (USB2+H05261)
Correct for Stray Light: No (USB2+H05261)
Number of Pixels in Processed Spectrum: 2048
>>>>>Begin Processed Spectral Data<<<<<
365.73	182.56
365.92	182.56
366.12	182.56
366.32	44.47
366.52	21.06
366.72	25.75
366.91	0.00
367.11	42.13
367.31	23.41
367.51	95.96
367.70	42.13
367.90	51.49
368.10	110.01
368.30	44.47
368.49	7.02
368.69	110.01
368.89	119.37
369.09	58.51
369.28	42.13
369.48	70.22
369.68	95.96
369.87	0.00
370.07	72.56
370.27	128.73
370.47	283.20
370.66	351.08
370.86	353.42
371.06	346.40
371.25	447.04
371.45	411.93
371.65	477.47
371.84	528.96
372.04	404.91
372.24	524.28
372.44	486.83
372.63	482.15
372.83	458.74
373.03	482.15
373.22	475.13
373.42	407.25
373.62	557.05
373.81	512.58
374.01	596.84
374.21	643.65
374.40	557.05
374.60	519.60
374.79	535.98
374.99	540.66
375.19	547.69
375.38	568.75
375.58	638.97
375.78	550.03
375.97	636.63
376.17	615.56
376.37	660.03
376.56	540.66
376.76	568.75
376.95	512.58
377.15	631.94
377.35	610.88
377.54	608.54
377.74	667.05
377.93	524.28
378.13	587.47
378.33	638.97
378.52	589.82
378.72	699.82
378.91	669.39
379.11	587.47
379.31	674.07
379.50	587.47
379.70	613.22
379.89	603.86
380.09	678.76
380.28	629.60
380.48	636.63
380.68	699.82
380.87	751.31
381.07	765.36
381.26	748.97
381.46	620.24
381.65	641.31
381.85	624.92
382.04	739.61
382.24	608.54
382.43	667.05
382.63	627.26
382.83	641.31
383.02	702.16
383.22	692.80
383.41	709.18
383.61	662.37
383.80	716.20
384.00	720.88
384.19	770.04
384.39	812.17
384.58	753.65
384.78	734.93
384.97	730.25
385.17	744.29
385.36	746.63
385.56	706.84
385.75	781.74
385.95	725.57
386.14	823.87
386.34	730.25
386.53	791.10
386.72	786.42
386.92	851.96
387.11	727.91
387.31	847.27
387.50	744.29
387.70	748.97
387.89	814.51
388.09	802.80
388.28	884.72
388.48	809.83
388.67	854.30
388.86	938.55
389.06	849.61
389.25	863.66
389.45	903.45
389.64	828.55
389.84	882.38
390.03	959.62
390.22	971.32
390.42	950.26
390.61	1029.84
390.81	929.19
391.00	985.37
391.19	973.66
391.39	891.74
391.58	1004.09
391.78	978.34
391.97	950.26
392.16	917.49
392.36	1048.56
392.55	943.24
392.75	1050.90
392.94	964.30
393.13	1001.75
393.33	1036.86
393.52	945.58
393.71	1111.75
393.91	1102.39
394.10	1013.45
394.29	1036.86
394.49	1074.31
394.68	1015.79
394.88	1118.78
395.07	1107.07
395.26	1128.14
395.46	1165.59
395.65	1200.69
395.84	1139.84
396.04	1118.78
396.23	1235.80
396.42	1074.31
396.62	1191.33
396.81	1135.16
397.00	1132.82
397.19	1203.04
397.39	1233.46
397.58	1238.14
397.77	1125.80
397.97	1203.04
398.16	1235.80
398.35	1277.93
398.55	1306.02
398.74	1322.40
398.93	1327.08
399.12	1306.02
399.32	1315.38
399.51	1282.61
399.70	1383.26
399.90	1327.08
400.09	1453.47
400.28	1490.92
400.47	1338.79
400.67	1458.15
400.86	1439.43
401.05	1476.88
401.24	1474.54
401.44	1584.54
401.63	1411.34
401.82	1591.56
402.01	1444.11
402.21	1409.00
402.40	1535.39
402.59	1551.78
402.78	1551.78
402.97	1589.22
403.17	1593.90
403.36	1652.42
403.55	1554.12
403.74	1706.25
403.93	1708.59
404.13	1720.29
404.32	1706.25
404.51	1710.93
404.70	1682.85
404.89	1727.32
405.09	1799.87
405.28	1689.87
405.47	1809.23
405.66	1760.08
405.85	1816.26
406.05	1729.66
406.24	1790.51
406.43	1781.15
406.62	1839.66
406.81	1898.17
407.00	1846.68
407.20	1823.28
407.39	1870.09
407.58	1937.96
407.77	1982.43
407.96	1900.52
408.15	1987.11
408.34	1970.73
408.54	2005.84
408.73	1980.09
408.92	2005.84
409.11	1935.62
409.30	2066.69
409.49	2050.31
409.68	2012.86
409.87	2029.24
410.07	2092.44
410.26	2115.84
410.45	2143.93
410.64	2157.97
410.83	2157.97
411.02	2148.61
411.21	2331.17
411.40	2307.77
411.59	2270.32
411.78	2324.15
411.98	2333.51
412.17	2380.32
412.36	2382.67
412.55	2380.32
412.74	2399.05
412.93	2333.51
413.12	2382.67
413.31	2532.46
413.50	2459.90
413.69	2532.46
413.88	2576.93
414.07	2595.65
414.26	2647.15
414.45	2602.68
414.64	2656.51
414.83	2754.81
415.02	2665.87
415.22	2651.83
415.41	2722.04
415.60	2743.11
415.79	2775.88
415.98	2810.98
416.17	2949.08
416.36	2864.82
416.55	3047.38
416.74	2832.05
416.93	2850.77
417.12	2860.13
417.31	3014.61
417.50	2822.69
417.69	3002.91
417.88	3007.59
418.07	3035.67
418.26	3084.83
418.45	3124.62
418.64	3169.09
418.83	3258.03
419.02	3136.32
419.21	3171.43
419.39	3178.45
419.58	3122.27
419.77	3131.64
419.96	3035.67
420.15	3265.05
420.34	3288.45
420.53	3335.26
420.72	3424.20
420.91	3370.37
421.10	3344.63
421.29	3433.57
421.48	3328.24
421.67	3407.82
421.86	3419.52
422.05	3445.27
422.24	3396.12
422.43	3581.02
422.61	3492.08
422.80	3480.38
422.99	3461.65
423.18	3637.19
423.37	3620.81
423.56	3676.98
423.75	3597.40
423.94	3391.44
424.13	3363.35
424.32	3379.73
424.50	3716.77
424.69	3557.61
424.88	3630.17
425.07	3459.31
425.26	3487.40
425.45	3407.82
425.64	3480.38
425.83	3527.19
426.01	3648.90
426.20	3583.36
426.39	3431.23
426.58	3557.61
426.77	3669.96
426.96	3782.31
427.15	3557.61
427.33	3695.71
427.52	3524.85
427.71	3698.05
427.90	3735.50
428.09	3857.20
428.28	3829.12
428.46	3836.14
428.65	3719.11
428.84	3866.56
429.03	3815.07
429.22	3756.56
429.40	3742.52
429.59	3836.14
429.78	3634.85
429.97	3789.33
430.16	3735.50
430.34	3742.52
430.53	3845.50
430.72	3794.01
430.91	3906.35
431.10	3850.18
431.28	4044.45
431.47	4121.68
431.66	4023.38
431.85	3985.93
432.03	4126.36
432.22	4294.88
432.41	4198.92
432.60	4077.21
432.79	4222.33
432.97	4189.56
433.16	4294.88
433.35	4217.65
433.54	4201.26
433.72	4168.49
433.91	4241.05
434.10	4292.54
434.28	4346.37
434.47	4535.96
434.66	4486.81
434.85	4489.15
435.03	4479.79
435.22	4491.49
435.41	4650.64
435.59	4535.96
435.78	4615.54
435.97	4596.81
436.16	4650.64
436.34	4468.08
436.53	4615.54
436.72	4734.90
436.90	4580.43
437.09	4760.65
437.28	4599.15
437.46	4615.54
437.65	4720.86
437.84	4655.33
438.02	4720.86
438.21	4762.99
438.40	4716.18
438.58	4870.65
438.77	4987.68
438.96	4812.14
439.14	5004.07
439.33	5036.83
439.52	5203.01
439.70	5022.79
439.89	5097.69
440.08	5083.64
440.26	5088.32
440.45	5228.76
440.63	5177.26
440.82	5364.51
441.01	5362.17
441.19	5289.61
441.38	5453.45
441.57	5423.02
441.75	5509.62
441.94	5619.63
442.12	5565.79
442.31	5668.78
442.50	5715.59
442.68	5589.20
442.87	5561.11
443.05	5673.46
443.24	5577.50
443.43	5647.71
443.61	5724.95
443.80	5877.09
443.98	5757.72
444.17	5612.60
444.35	5867.72
444.54	5849.00
444.73	5977.73
444.91	5753.04
445.10	5785.80
445.28	5846.66
445.47	5731.97
445.65	5657.07
445.84	6029.22
446.02	6071.35
446.21	5736.65
446.39	5757.72
446.58	5907.51
446.77	5902.83
446.95	5799.85
447.14	5942.62
447.32	6085.39
447.51	5860.70
447.69	5933.26
447.88	6031.56
448.06	5832.62
448.25	5989.43
448.43	6017.52
448.62	5989.43
448.80	5980.07
448.99	6106.46
449.17	6026.88
449.36	6239.87
449.54	6277.32
449.73	6239.87
449.91	6312.42
450.10	6366.26
450.28	6497.33
450.46	6370.94
450.65	6267.95
450.83	6377.96
451.02	6438.81
451.20	6480.94
451.39	6415.41
451.57	6392.00
451.76	6586.27
451.94	6590.95
452.13	6516.05
452.31	6511.37
452.49	6354.55
452.68	6551.16
452.86	6537.12
453.05	6614.35
453.23	6560.52
453.42	6586.27
453.60	6436.47
453.78	6743.08
453.97	6621.38
454.15	6551.16
454.34	6623.72
454.52	6700.95
454.70	6773.51
454.89	6906.92
455.07	6862.45
455.26	6920.96
455.44	7063.74
455.62	6846.07
455.81	6972.46
455.99	6988.84
456.17	7206.51
456.36	6974.80
456.54	6904.58
456.73	7075.44
456.91	7360.98
457.09	7157.36
457.28	7431.20
457.46	7318.86
457.64	7129.27
457.83	7192.47
458.01	7068.42
458.19	7585.68
458.38	7461.63
458.56	7623.12
458.74	7480.35
458.93	7571.63
459.11	7559.93
459.29	7470.99
459.48	7562.27
459.66	7573.97
459.84	7524.82
460.03	7653.55
460.21	7599.72
460.39	7709.72
460.57	7667.60
460.76	7810.37
460.94	7805.69
461.12	7772.92
461.31	7665.25
461.49	7763.56
461.67	7789.30
461.85	7840.79
462.04	7868.88
462.22	8451.67
462.40	7981.23
462.59	8060.80
462.77	7838.45
462.95	8133.36
463.13	8070.17
463.32	7974.21
463.50	8182.51
463.68	8259.75
463.86	8159.11
464.05	8011.65
464.23	8166.13
464.41	8215.28
464.59	8259.75
464.78	8224.64
464.96	8365.07
465.14	8336.99
465.32	8238.69
465.50	8297.20
465.69	8423.59
465.87	8355.71
466.05	8229.32
466.23	8215.28
466.41	8236.35
466.60	8711.47
466.78	8472.74
466.96	8407.20
467.14	8418.91
467.32	8559.34
467.51	8510.19
467.69	8262.09
467.87	8634.24
468.05	8596.79
468.23	8341.67
468.41	8531.25
468.60	8477.42
468.78	8737.22
468.96	8830.84
469.14	8734.88
469.32	8882.33
469.50	8531.25
469.69	8826.16
469.87	8922.12
470.05	8992.34
470.23	8889.35
470.41	9006.38
470.59	9111.71
470.77	8992.34
470.95	9135.11
471.14	9219.37
471.32	9107.02
471.50	9240.44
471.68	9303.63
471.86	9427.68
472.04	9348.10
472.22	9537.68
472.40	9355.12
472.58	9392.57
472.77	9666.41
472.95	9720.24
473.13	9738.97
473.31	9507.26
473.49	9488.53
473.67	9703.86
473.85	9785.78
474.03	9919.19
474.21	10036.22
474.39	9713.22
474.57	9970.68
474.75	9963.66
474.93	10356.87
475.12	10160.27
475.30	10225.80
475.48	10389.64
475.66	10289.00
475.84	10431.77
476.02	10361.55
476.20	10251.55
476.38	10665.82
476.56	10832.00
476.74	10527.73
476.92	10590.92
477.10	10803.91
477.28	10738.38
477.46	10960.73
477.64	11037.97
477.82	11154.99
478.00	11510.75
478.18	11269.68
478.36	11279.04
478.54	11473.31
478.72	11550.54
478.90	11803.32
479.08	11824.39
479.26	11894.60
479.44	12081.85
479.62	12004.61
479.80	12163.76
479.98	12250.36
480.16	12458.67
480.34	12374.41
480.52	12561.66
480.70	12236.32
480.88	12362.71
481.06	12512.50
481.24	12617.83
481.41	12793.37
481.59	13006.36
481.77	12870.61
481.95	13034.44
482.13	13357.44
482.31	13158.49
482.49	13348.08
482.67	13593.83
482.85	13902.78
483.03	13818.52
483.21	13968.32
483.39	13954.27
483.57	14050.24
483.74	13970.66
483.92	14083.00
484.10	14097.05
484.28	14214.07
484.46	14820.27
484.64	14677.50
484.82	14604.94
485.00	14672.82
485.18	15178.37
485.35	15094.11
485.53	15115.18
485.71	15117.52
485.89	15246.25
486.07	15272.00
486.25	15232.21
486.43	16023.31
486.61	15917.98
486.78	16032.67
486.96	15770.53
487.14	16350.98
487.32	16140.33
487.50	16093.52
487.68	16659.93
487.85	17132.72
488.03	16711.42
488.21	17106.98
488.39	16833.13
488.57	16912.71
488.75	17411.25
488.92	17376.14
489.10	17781.05
489.28	17642.96
489.46	17816.16
489.64	17998.72
489.81	18085.32
489.99	18380.23
490.17	18410.65
490.35	18813.23
490.53	18735.99
490.70	18867.06
490.88	18665.77
491.06	19007.49
491.24	18946.64
491.41	19082.39
491.59	19318.78
491.77	18951.32
491.95	19564.54
492.13	19571.56
492.30	19831.36
492.48	20149.67
492.66	20086.48
492.84	19990.52
493.01	20219.89
493.19	20238.61
493.37	20500.75
493.54	20676.29
493.72	20828.43
493.90	20774.60
494.08	20954.82
494.25	21231.00
494.43	21235.68
494.61	21766.98
494.79	21392.50
494.96	21458.03
495.14	21518.89
495.32	21869.97
495.49	21605.49
495.67	21919.12
495.85	21902.73
496.02	22253.81
496.20	22260.84
496.38	22412.97
496.55	22452.76
496.73	23122.15
496.91	22710.22
497.09	22778.09
497.26	23087.04
497.44	22993.42
497.62	23096.41
497.79	23454.51
497.97	23211.09
498.14	23674.52
498.32	23721.33
498.50	23508.34
498.67	24034.96
498.85	24070.07
499.03	24201.14
499.20	24187.10
499.38	24208.16
499.56	24355.61
499.73	24388.38
499.91	24151.99
500.08	24655.20
500.26	24556.90
500.44	24299.44
500.61	24594.35
500.79	24814.36
500.97	24938.41
501.14	25551.63
501.32	25245.02
501.49	25532.90
501.67	25102.25
501.84	25256.72
502.02	25535.24
502.20	25500.14
502.37	25481.41
502.55	25930.80
502.72	25792.70
502.90	26017.40
503.07	25734.19
503.25	26253.79
503.43	25839.51
503.60	26368.48
503.78	26260.81
503.95	26181.23
504.13	26129.74
504.30	26349.75
504.48	26452.73
504.65	26656.36
504.83	26930.20
505.01	27012.12
505.18	26993.40
505.36	27608.96
505.53	27161.92
505.71	27384.27
505.88	27597.26
506.06	27241.50
506.23	27461.51
506.41	27119.79
506.58	28032.60
506.76	27665.13
506.93	27981.10
507.11	28004.51
507.28	27845.35
507.46	27618.32
507.63	27763.43
507.81	28222.18
507.98	27999.83
508.16	28041.96
508.33	28077.07
508.50	28549.85
508.68	28491.34
508.85	28992.22
509.03	28428.15
509.20	29069.45
509.38	29010.94
509.55	28849.44
509.73	29109.24
509.90	29453.30
510.08	29146.69
510.25	29282.44
510.42	29099.88
510.60	29668.63
510.77	29537.56
510.95	29954.18
511.12	29830.13
511.30	29970.56
511.47	30363.77
511.64	30143.76
511.82	30328.66
511.99	29860.55
512.17	29928.43
512.34	29867.58
512.51	30448.03
512.69	30263.13
512.86	30239.72
513.04	30677.40
513.21	31087.00
513.38	30321.64
513.56	30707.83
513.73	30621.23
513.90	31131.47
514.08	30836.56
514.25	31007.42
514.43	30899.75
514.60	31084.65
514.77	31260.20
514.95	31711.92
515.12	30923.16
515.29	31377.22
515.47	31894.48
515.64	32306.41
515.81	32079.38
515.99	31688.51
516.16	31910.86
516.33	31569.15
516.51	31665.11
516.68	31267.22
516.85	31433.39
517.03	31711.92
517.20	31903.84
517.37	32063.00
517.54	31840.65
517.72	32208.11
517.89	32285.35
518.06	32491.32
518.24	32243.22
518.41	32432.80
518.58	32638.77
518.75	32793.25
518.93	32807.29
519.10	33010.92
519.27	33153.69
519.45	32671.54
519.62	33345.61
519.79	33130.28
519.96	33120.92
520.14	33544.56
520.31	33156.03
520.48	32767.50
520.65	33120.92
520.83	33759.89
521.00	33621.80
521.17	33783.29
521.34	33404.13
521.52	33996.28
521.69	33656.90
521.86	33912.02
522.03	33982.24
522.20	34115.65
522.38	34361.40
522.55	34230.33
522.72	34099.26
522.89	34045.43
523.07	34340.34
523.24	34113.31
523.41	34696.10
523.58	34607.16
523.75	34930.16
523.92	35157.19
524.10	35288.26
524.27	34934.84
524.44	34836.53
524.61	34885.68
524.78	35243.79
524.96	35267.19
525.13	35201.66
525.30	35414.65
525.47	35613.59
525.64	35613.59
525.81	35735.30
525.98	35487.20
526.16	35431.03
526.33	35171.23
526.50	35651.04
526.67	35470.82
526.84	35374.86
527.01	35611.25
527.18	35943.61
527.36	35608.91
527.53	36006.80
527.70	36107.44
527.87	36109.78
528.04	36009.14
528.21	35873.39
528.38	36158.94
528.55	36762.79
528.72	36357.88
528.89	36549.81
529.07	36708.96
529.24	36554.49
529.41	36947.70
529.58	36517.04
529.75	36701.94
529.92	36723.01
530.09	36725.35
530.26	37118.56
530.43	37127.92
530.60	36687.90
530.77	36816.63
530.94	37453.25
531.11	37191.11
531.28	37230.90
531.46	36730.03
531.63	37172.39
531.80	36945.36
531.97	37425.17
532.14	37406.44
532.31	36863.44
532.48	37298.78
532.65	37654.54
532.82	37467.30
532.99	37560.92
533.16	37322.18
533.33	37581.98
533.50	37996.26
533.67	37951.79
533.84	37652.20
534.01	37794.97
534.18	37600.71
534.35	38328.61
534.52	37783.27
534.69	37944.76
534.86	38256.06
535.03	38071.15
535.20	38813.10
535.37	38756.93
535.54	38361.38
535.71	38586.07
535.88	38431.60
536.05	38478.41
536.22	38354.36
536.38	38443.30
536.55	38665.65
536.72	38897.36
536.89	38043.07
537.06	38513.52
537.23	39225.04
537.40	38932.47
537.57	38618.84
537.74	39072.90
537.91	39290.57
538.08	38925.45
538.25	39040.14
538.42	38740.55
538.59	39234.40
538.75	38785.02
538.92	38993.32
539.09	39323.34
539.26	39222.70
539.43	39061.20
539.60	39377.17
539.77	39552.71
539.94	39433.35
540.11	39349.09
540.28	39243.76
540.44	39716.55
540.61	39330.36
540.78	39386.54
540.95	39648.68
541.12	39716.55
541.29	39468.45
541.46	39658.04
541.62	39955.29
541.79	40039.54
541.96	39889.75
542.13	40074.65
542.30	39646.33
542.47	39667.40
542.63	39674.42
542.80	40072.31
542.97	40549.78
543.14	40629.36
543.31	40231.47
543.48	40978.10
543.64	40879.80
543.81	40589.57
543.98	40580.21
544.15	40446.80
544.32	40844.69
544.48	41219.17
544.65	40664.47
544.82	40891.50
544.99	40634.04
545.16	40973.42
545.32	40968.74
545.49	41120.87
545.66	41373.65
545.83	41340.88
546.00	41696.64
546.16	41130.23
546.33	40919.59
546.50	40512.33
546.67	41191.09
546.83	40800.22
547.00	40945.33
547.17	41172.36
547.34	41085.76
547.50	41563.23
547.67	41867.50
547.84	41401.74
548.00	41436.84
548.17	41467.27
548.34	41186.41
548.51	41670.90
548.67	41926.02
548.84	41481.31
549.01	41748.14
549.18	41432.16
549.34	41766.86
549.51	42197.52
549.68	42000.91
549.84	42050.06
550.01	42223.26
550.18	41874.52
550.34	41734.09
550.51	41904.95
550.68	41654.51
550.84	41703.67
551.01	42087.51
551.18	42031.34
551.34	42085.17
551.51	42136.66
551.68	42506.47
551.84	42546.26
552.01	41937.72
552.18	42579.03
552.34	42323.91
552.51	42092.19
552.68	42405.83
552.84	42513.49
553.01	42749.88
553.18	42546.26
553.34	42408.17
553.51	42085.17
553.67	42902.02
553.84	42969.90
554.01	42639.88
554.17	42703.07
554.34	42841.17
554.51	42862.23
554.67	43086.92
554.84	42799.04
555.00	42672.65
555.17	42433.91
555.33	42658.60
555.50	43316.29
555.67	42820.10
555.83	43026.07
556.00	42934.79
556.16	43405.23
556.33	43138.41
556.50	43161.82
556.66	43400.55
556.83	42810.74
556.99	43552.69
557.16	43337.36
557.32	42880.95
557.49	42990.96
557.65	43047.13
557.82	43103.31
557.98	42988.62
558.15	43447.36
558.32	43072.88
558.48	43042.45
558.65	43372.47
558.81	42876.27
558.98	43416.94
559.14	43248.42
559.31	43171.18
559.47	43213.31
559.64	43744.61
559.80	43753.97
559.97	42965.21
560.13	43573.75
560.30	43463.75
560.46	43950.58
560.63	43779.72
560.79	43569.07
560.96	43889.73
561.12	43662.69
561.29	43643.97
561.45	43447.36
561.61	43732.91
561.78	43501.20
561.94	43505.88
562.11	43976.33
562.27	43784.40
562.44	43868.66
562.60	43992.71
562.77	44268.89
562.93	43845.26
563.10	43791.42
563.26	43985.69
563.42	44327.41
563.59	43889.73
563.75	43971.64
563.92	44011.43
564.08	43955.26
564.24	43957.60
564.41	43859.30
564.57	44009.09
564.74	44126.12
564.90	44107.40
565.07	43983.35
565.23	43798.44
565.39	43681.42
565.56	44215.06
565.72	44065.27
565.88	44119.10
566.05	43981.01
566.21	43938.88
566.38	44069.95
566.54	43711.84
566.70	44266.55
566.87	44650.40
567.03	44027.82
567.19	44350.81
567.36	44086.33
567.52	44102.71
567.68	44048.88
567.85	43962.28
568.01	44243.15
568.17	44093.35
568.34	44287.62
568.50	44182.29
568.66	43859.30
568.83	44151.87
568.99	44055.90
569.15	44088.67
569.32	44746.36
569.48	44329.75
569.64	44435.07
569.81	44570.82
569.97	44430.39
570.13	44416.35
570.30	43887.39
570.46	44161.23
570.62	44470.18
570.78	44018.46
570.95	44140.16
571.11	44528.69
571.27	44250.17
571.43	44191.65
571.60	44210.38
571.76	44367.20
571.92	44055.90
572.09	44392.94
572.25	44896.16
572.41	44215.06
572.57	44418.69
572.74	44414.01
572.90	44325.07
573.06	44566.14
573.22	44488.90
573.38	44264.21
573.55	44182.29
573.71	44800.19
573.87	44769.77
574.03	44477.20
574.20	44870.41
574.36	44634.02
574.52	44378.90
574.68	44444.43
574.84	44725.30
575.01	44715.93
575.17	44615.29
575.33	44076.97
575.49	44313.36
575.65	44720.62
575.82	45177.02
575.98	44645.72
576.14	44783.81
576.30	44919.56
576.46	44362.51
576.62	44301.66
576.79	44126.12
576.95	44252.51
577.11	44301.66
577.27	44533.37
577.43	44790.83
577.59	44357.83
577.75	44786.15
577.92	44266.55
578.08	44594.23
578.24	44161.23
578.40	44847.00
578.56	44538.05
578.72	44924.24
578.88	44631.68
579.04	44783.81
579.21	44268.89
579.37	44332.09
579.53	44683.17
579.69	44414.01
579.85	44425.71
580.01	44823.60
580.17	44971.05
580.33	44945.31
580.49	45067.02
580.65	44746.36
580.82	44601.25
580.98	44694.87
581.14	44442.09
581.30	44886.79
581.46	44456.14
581.62	44828.28
581.78	44807.22
581.94	45359.58
582.10	44580.18
582.26	44311.02
582.42	44722.96
582.58	44891.48
582.74	44156.55
582.90	44928.92
583.06	44940.63
583.22	44907.86
583.38	44687.85
583.54	44807.22
583.70	44931.26
583.86	44769.77
584.02	44332.09
584.18	45141.91
584.34	44786.15
584.50	44959.35
584.66	44748.70
584.82	44584.86
584.98	44818.92
585.14	45043.61
585.30	44664.44
585.46	44505.29
585.62	44577.84
585.78	44903.18
585.94	44406.98
586.10	44800.19
586.26	44472.52
586.42	44739.34
586.58	45237.87
586.74	44938.29
586.90	44528.69
587.06	44587.21
587.22	44949.99
587.38	44416.35
587.54	45207.45
587.70	45287.03
587.86	44935.95
588.02	44690.19
588.18	45298.73
588.34	44928.92
588.49	44849.35
588.65	44509.97
588.81	44425.71
588.97	44584.86
589.13	44540.39
589.29	44566.14
589.45	44947.65
589.61	44875.09
589.77	45043.61
589.93	44835.30
590.08	44856.37
590.24	45310.43
590.40	45048.29
590.56	45125.53
590.72	45188.72
590.88	44704.23
591.04	44870.41
591.20	45375.97
591.35	45125.53
591.51	45228.51
591.67	45034.25
591.83	44807.22
591.99	44725.30
592.15	44961.69
592.31	45160.64
592.46	44989.78
592.62	44725.30
592.78	45160.64
592.94	45008.50
593.10	45123.19
593.26	45371.28
593.41	45048.29
593.57	44776.79
593.73	45202.77
593.89	45198.09
594.05	45270.64
594.20	44905.52
594.36	44865.73
594.52	45387.67
594.68	45155.96
594.84	44959.35
594.99	45624.06
595.15	45312.77
595.31	45212.13
595.47	45294.05
595.62	44999.14
595.78	45191.06
595.94	44945.31
596.10	45214.47
596.25	45418.10
596.41	45530.44
596.57	44889.13
596.73	45544.48
596.88	45202.77
597.04	45186.38
597.20	45099.78
597.36	45289.37
597.51	45720.02
597.67	45354.90
597.83	45029.57
597.99	45357.24
598.14	45282.34
598.30	44760.40
598.46	44903.18
598.61	45429.80
598.77	45095.10
598.93	45223.83
599.09	45319.79
599.24	45588.95
599.40	45265.96
599.56	45539.80
599.71	45167.66
599.87	45368.94
600.03	45083.40
600.18	45249.58
600.34	45165.32
600.50	45408.73
600.65	45067.02
600.81	45390.01
600.97	45160.64
601.12	45790.24
601.28	45186.38
601.44	45048.29
601.59	45247.24
601.75	45036.59
601.91	45312.77
602.06	45256.60
602.22	45207.45
602.37	44961.69
602.53	45492.99
602.69	44985.10
602.84	45195.74
603.00	45397.03
603.16	45076.38
603.31	44847.00
603.47	45237.87
603.62	44842.32
603.78	45588.95
603.94	44839.98
604.09	45420.44
604.25	45228.51
604.40	44720.62
604.56	44900.84
604.71	45162.98
604.87	44992.12
605.03	45514.06
605.18	44720.62
605.34	45464.91
605.49	44919.56
605.65	45069.36
605.80	44949.99
605.96	44814.24
606.12	44931.26
606.27	45457.88
606.43	44933.60
606.58	44772.11
606.74	44945.31
606.89	44816.58
607.05	44961.69
607.20	44961.69
607.36	45532.78
607.51	45214.47
607.67	44933.60
607.82	45127.87
607.98	44919.56
608.13	44957.01
608.29	44898.50
608.44	44507.63
608.60	44685.51
608.75	44538.05
608.91	44903.18
609.06	44755.72
609.22	45272.98
609.37	44409.32
609.53	44795.51
609.68	44973.39
609.84	44832.96
609.99	44783.81
610.15	44549.76
610.30	44875.09
610.46	44772.11
610.61	44755.72
610.76	44769.77
610.92	44432.73
611.07	44556.78
611.23	44617.63
611.38	45003.82
611.54	44397.62
611.69	44346.13
611.84	44657.42
612.00	44713.59
612.15	44421.03
612.31	44781.47
612.46	44872.75
612.62	44657.42
612.77	44610.61
612.92	44631.68
613.08	44444.43
613.23	44755.72
613.39	44715.93
613.54	44451.45
613.69	43803.13
613.85	44149.53
614.00	44622.31
614.15	44626.99
614.31	44250.17
614.46	44765.09
614.62	44531.03
614.77	44294.64
614.92	44072.29
615.08	44392.94
615.23	44437.41
615.38	44189.31
615.54	44004.41
615.69	43796.10
615.84	43555.03
616.00	44306.34
616.15	43625.25
616.30	44339.11
616.46	43849.94
616.61	43648.65
616.76	43585.46
616.92	43863.98
617.07	43578.43
617.22	43548.01
617.37	43545.67
617.53	43892.07
617.68	43948.24
617.83	43583.12
617.99	43915.47
618.14	43917.81
618.29	43615.88
618.45	43810.15
618.60	43838.23
618.75	43501.20
618.90	43449.70
619.06	43817.17
619.21	43449.70
619.36	43590.14
619.51	43683.76
619.67	43456.73
619.82	43428.64
619.97	43489.49
620.12	43236.72
620.28	43028.41
620.43	43030.75
620.58	43555.03
620.73	43564.39
620.89	42918.40
621.04	43739.93
621.19	43229.69
621.34	43339.70
621.49	43005.00
621.65	43234.38
621.80	43503.54
621.95	43377.15
622.10	42902.02
622.25	43075.22
622.41	42946.49
622.56	43243.74
622.71	43428.64
622.86	42937.13
623.01	43077.56
623.16	43414.60
623.32	43084.58
623.47	43393.53
623.62	42990.96
623.77	43063.52
623.92	42639.88
624.07	42471.36
624.23	42419.87
624.38	42569.66
624.53	42579.03
624.68	42684.35
624.83	42967.55
624.98	42787.33
625.13	42450.30
625.29	42464.34
625.44	42674.99
625.59	42686.69
625.74	42141.35
625.89	41907.29
626.04	42136.66
626.19	42295.82
626.34	42473.70
626.49	41986.87
626.65	42480.72
626.80	42309.86
626.95	41993.89
627.10	42494.77
627.25	41574.94
627.40	42129.64
627.55	41961.12
627.70	41591.32
627.85	41588.98
628.00	41958.78
628.15	41851.12
628.30	42115.60
628.45	42106.24
628.60	42019.64
628.76	42092.19
628.91	41989.21
629.06	41851.12
629.21	41823.03
629.36	41691.96
629.51	41495.36
629.66	41734.09
629.81	41375.99
629.96	41439.18
630.11	41546.85
630.26	41563.23
630.41	41867.50
630.56	41858.14
630.71	41464.93
630.86	41743.45
631.01	41556.21
631.16	41645.15
631.31	41336.20
631.46	41027.25
631.61	41607.70
631.76	41546.85
631.91	41340.88
632.06	41411.10
632.21	41254.28
632.36	41432.16
632.51	41413.44
632.66	41392.37
632.81	41010.87
632.96	41352.58
633.10	40517.01
633.25	40847.03
633.40	41041.29
633.55	41462.59
633.70	41109.17
633.85	40938.31
634.00	41132.57
634.15	41193.43
634.30	41053.00
634.45	40814.26
634.60	40425.73
634.75	41420.46
634.90	40903.20
635.05	41165.34
635.19	41050.66
635.34	40744.05
635.49	41284.71
635.64	40795.54
635.79	40802.56
635.94	40781.49
636.09	40605.95
636.24	40704.26
636.39	40584.89
636.53	40463.18
636.68	40725.32
636.83	40442.12
636.98	40439.78
637.13	40252.53
637.28	40451.48
637.43	40517.01
637.57	40861.07
637.72	40582.55
637.87	40584.89
638.02	40247.85
638.17	40074.65
638.32	39831.24
638.46	39786.77
638.61	40161.25
638.76	40081.67
638.91	40479.57
639.06	40552.12
639.20	40163.59
639.35	40376.58
639.50	40102.74
639.65	40079.33
639.80	40612.98
639.94	39957.63
640.09	40100.40
640.24	40084.01
640.39	39526.97
640.54	39543.35
640.68	39793.79
640.83	39826.56
640.98	39548.03
641.13	39393.56
641.27	39948.26
641.42	39693.15
641.57	39721.23
641.72	39480.16
641.86	39295.25
642.01	39313.98
642.16	39524.63
642.31	39501.22
642.45	39681.44
642.60	39192.27
642.75	39173.55
642.90	39227.38
643.04	39260.15
643.19	39302.28
643.34	39119.71
643.48	39697.83
643.63	39086.95
643.78	39339.72
643.93	39173.55
644.07	39084.61
644.22	39063.54
644.37	39016.73
644.51	39072.90
644.66	39295.25
644.81	39363.13
644.95	39264.83
645.10	39143.12
645.25	39187.59
645.39	39290.57
645.54	39161.84
645.69	38955.88
645.83	39409.94
645.98	39360.79
646.13	39248.44
646.27	38794.38
646.42	39271.85
646.57	39065.88
646.71	38700.76
646.86	39323.34
647.00	39098.65
647.15	38504.15
647.30	38932.47
647.44	39058.86
647.59	39122.05
647.74	38815.44
647.88	38646.93
648.03	38403.51
648.17	38721.82
648.32	38424.57
648.47	38937.15
648.61	38279.46
648.76	38920.77
648.90	38396.49
649.05	38258.40
649.20	38155.41
649.34	38658.63
649.49	38525.22
649.63	38740.55
649.78	38279.46
649.92	38445.64
650.07	38604.80
650.21	38422.23
650.36	38340.32
650.51	37928.38
650.65	38749.91
650.80	38822.47
650.94	38361.38
651.09	38457.34
651.23	37867.53
651.38	37984.55
651.52	38431.60
651.67	38103.92
651.81	38054.77
651.96	37930.72
652.10	38024.34
652.25	37715.39
652.39	37624.11
652.54	37986.89
652.68	38462.02
652.83	37619.43
652.97	37869.87
653.12	37860.51
653.26	37748.16
653.41	37832.42
653.55	37743.48
653.70	37586.66
653.84	37673.26
653.99	37607.73
654.13	37874.55
654.27	37022.59
654.42	37387.72
654.56	37617.09
654.71	37862.85
654.85	37226.22
655.00	37390.06
655.14	37481.34
655.29	37516.45
655.43	37258.99
655.57	36748.75
655.72	36886.84
655.86	36964.08
656.01	37535.17
656.15	36720.66
656.30	36865.78
656.44	37397.08
656.58	36704.28
656.73	37113.87
656.87	36584.91
657.01	36507.68
657.16	37081.11
657.30	36804.92
657.45	36498.31
657.59	36758.11
657.73	37095.15
657.88	36835.35
658.02	36463.21
658.16	37132.60
658.31	37083.45
658.45	36701.94
658.60	36744.07
658.74	36772.16
658.88	36400.01
659.03	36584.91
659.17	36285.33
659.31	36575.55
659.46	36123.83
659.60	36273.62
659.74	36259.58
659.89	36074.68
660.03	36254.90
660.17	35990.42
660.32	36222.13
660.46	36566.19
660.60	36271.28
660.74	36280.64
660.89	36133.19
661.03	35538.69
661.17	35999.78
661.32	35683.81
661.46	35810.20
661.60	35871.05
661.74	35849.99
661.89	36208.09
662.03	35639.34
662.17	35690.83
662.31	35405.28
662.46	35807.86
662.60	35842.96
662.74	35306.98
662.88	35281.24
663.03	35122.08
663.17	35548.06
663.31	35262.51
663.45	35501.25
663.60	35082.29
663.74	34806.11
663.88	34906.75
664.02	34948.88
664.17	35702.53
664.31	34752.27
664.45	34649.29
664.59	34738.23
664.73	35253.15
664.88	35491.88
665.02	34677.38
665.16	34623.54
665.30	34370.77
665.44	34546.31
665.59	34401.19
665.73	34143.74
665.87	34581.42
666.01	34146.08
666.15	33919.04
666.29	34328.64
666.44	34323.96
666.58	34487.79
666.72	34094.58
666.86	34054.79
667.00	34499.50
667.14	34005.64
667.28	33734.14
667.43	33738.82
667.57	33883.94
667.71	33649.88
667.85	33647.54
667.99	33511.79
668.13	33509.45
668.27	33846.49
668.41	33769.25
668.56	33310.50
668.70	33172.41
668.84	33460.30
668.98	33305.82
669.12	33071.77
669.26	33418.17
669.40	32964.10
669.54	32879.85
669.68	33163.05
669.82	33144.33
669.96	32858.78
670.10	32996.87
670.25	32978.15
670.39	32575.58
670.53	32699.62
670.67	32474.93
670.81	33050.70
670.95	32830.69
671.09	32844.74
671.23	32411.74
671.37	32982.83
671.51	32458.55
671.65	32407.06
671.79	32488.98
671.93	32027.89
672.07	31908.52
672.21	32077.04
672.35	31742.35
672.49	31929.59
672.63	32158.96
672.77	32116.83
672.91	31833.63
673.05	31491.91
673.19	31562.12
673.33	31763.41
673.47	31538.72
673.61	31559.78
673.75	31079.97
673.89	30909.11
674.03	30794.43
674.17	31023.80
674.31	30803.79
674.45	31283.60
674.59	31124.44
674.73	30986.35
674.87	30948.90
675.01	31063.59
675.15	30965.29
675.29	30803.79
675.43	30506.54
675.56	30551.01
675.70	30415.26
675.84	30040.78
675.98	29336.27
676.12	30040.78
676.26	30242.06
676.40	30209.29
676.54	30211.64
676.68	30251.42
676.82	29411.17
676.96	29455.64
677.10	29420.53
677.23	29139.67
677.37	29706.08
677.51	29422.87
677.65	29163.08
677.79	28987.53
677.93	28861.15
678.07	28959.45
678.21	28542.83
678.34	28783.91
678.48	28945.41
678.62	28582.62
678.76	28268.99
678.90	28709.01
679.04	28100.47
679.18	28362.61
679.31	28364.95
679.45	27875.78
679.59	27838.33
679.73	27800.88
679.87	28212.82
680.00	28013.87
680.14	27740.03
680.28	27290.65
680.42	27047.23
680.56	27632.36
680.70	27459.16
680.83	27140.85
680.97	27461.51
681.11	26874.03
681.25	27115.11
681.39	26696.15
681.52	26740.62
681.66	27236.81
681.80	26859.99
681.94	26607.21
682.07	26333.37
682.21	26745.30
682.35	26026.76
682.49	26106.34
682.62	26120.38
682.76	26223.36
682.90	26103.99
683.04	26284.22
683.17	25989.31
683.31	25785.68
683.45	25813.77
683.59	25357.36
683.72	25123.31
683.86	25053.09
684.00	25326.94
684.13	25572.69
684.27	25287.15
684.41	25032.03
684.55	24903.30
684.68	24835.42
684.82	24739.46
684.96	24606.05
685.09	24580.31
685.23	24573.28
685.37	24423.49
685.50	24711.38
685.64	24657.54
685.78	24458.60
685.91	24414.13
686.05	23990.49
686.19	23885.17
686.32	24182.42
686.46	23789.20
686.60	23431.10
686.73	23278.97
686.87	23323.44
687.01	22965.34
687.14	23035.55
687.28	23297.69
687.42	23077.68
687.55	23030.87
687.69	23520.04
687.82	22757.03
687.96	23218.11
688.10	22899.80
688.23	22934.91
688.37	22359.14
688.50	22368.50
688.64	22403.61
688.78	22129.77
688.91	22134.45
689.05	21869.97
689.18	22225.73
689.32	21771.66
689.46	22167.21
689.59	22026.78
689.73	21923.80
689.86	21750.60
690.00	21778.68
690.13	21907.41
690.27	21422.92
690.41	21216.96
690.54	21167.80
690.68	21355.05
690.81	20872.90
690.95	20947.79
691.08	20865.88
691.22	21008.65
691.35	20835.45
691.49	20828.43
691.62	20961.84
691.76	21060.14
691.89	20910.35
692.03	20559.27
692.16	20238.61
692.30	20367.34
692.43	20610.76
692.57	20163.72
692.70	20095.84
692.84	19740.08
692.97	19922.64
693.11	19693.27
693.24	19637.09
693.38	19522.41
693.51	19625.39
693.65	19875.83
693.78	19653.48
693.92	19569.22
694.05	19096.43
694.19	19428.79
694.32	19108.13
694.45	19047.28
694.59	19087.07
694.72	18759.39
694.86	18757.05
694.99	18820.25
695.13	18820.25
695.26	18380.23
695.39	18382.57
695.53	18551.09
695.66	18597.90
695.80	18483.21
695.93	18139.15
696.07	17956.59
696.20	18228.09
696.33	18054.89
696.47	18001.06
696.60	17935.53
696.73	18019.78
696.87	17659.34
697.00	17708.49
697.14	17694.45
697.27	17296.56
697.40	17158.47
697.54	17369.12
697.67	17614.87
697.80	17436.99
697.94	17312.94
698.07	16989.95
698.21	16931.44
698.34	17224.00
698.47	16723.13
698.61	16863.56
698.74	16512.48
698.87	16610.78
699.01	16395.45
699.14	16388.43
699.27	16362.69
699.40	16418.86
699.54	16252.68
699.67	16056.08
699.80	16212.89
699.94	15927.35
700.07	16009.26
700.20	16044.37
700.34	15623.08
700.47	15859.47
700.60	15719.04
700.73	15672.23
700.87	15749.46
701.00	15417.11
701.13	15414.77
701.26	15473.28
701.40	15534.14
701.53	15241.57
701.66	15239.23
701.79	15061.35
701.93	14958.36
702.06	15009.86
702.19	15007.52
702.32	14918.57
702.46	14888.15
702.59	14658.78
702.72	14902.19
702.85	14658.78
702.99	14668.14
703.12	14941.98
703.25	14420.04
703.38	14359.19
703.51	14370.89
703.65	14527.71
703.78	14361.53
703.91	14134.50
704.04	13928.53
704.17	13909.80
704.31	13774.05
704.44	13668.73
704.57	13645.32
704.70	13610.22
704.83	13521.27
704.96	13818.52
705.10	13666.39
705.23	13731.92
>>>>>End Processed Spectral Data<<<<<
