SpectraSuite Data File
++++++++++++++++++++++++++++++++++++
Date: Fri Oct 25 11:33:50 EDT 2013
User: price-jones
Dark Spectrum Present: No
Reference Spectrum Present: No
Number of Sampled Component Spectra: 1
Spectrometers: USB2+H05261
Integration Time (usec): 100000 (USB2+H05261)
Spectra Averaged: 1 (USB2+H05261)
Boxcar Smoothing: 0 (USB2+H05261)
Correct for Electrical Dark: No (USB2+H05261)
Strobe/Lamp Enabled: No (USB2+H05261)
Correct for Detector Non-linearity: No (USB2+H05261)
Correct for Stray Light: No (USB2+H05261)
Number of Pixels in Processed Spectrum: 2048
>>>>>Begin Processed Spectral Data<<<<<
365.73	273.84
365.92	273.84
366.12	273.84
366.32	227.03
366.52	107.66
366.72	222.35
366.91	163.84
367.11	191.92
367.31	184.90
367.51	203.63
367.70	133.41
367.90	191.92
368.10	86.60
368.30	187.24
368.49	180.22
368.69	196.60
368.89	191.92
369.09	175.54
369.28	170.86
369.48	224.69
369.68	212.99
369.87	217.67
370.07	224.69
370.27	271.50
370.47	285.55
370.66	430.66
370.86	491.51
371.06	580.45
371.25	589.82
371.45	526.62
371.65	585.13
371.84	540.66
372.04	521.94
372.24	524.28
372.44	622.58
372.63	582.79
372.83	568.75
373.03	601.52
373.22	561.73
373.42	594.50
373.62	561.73
373.81	585.13
374.01	688.12
374.21	610.88
374.40	648.33
374.60	688.12
374.79	657.69
374.99	645.99
375.19	603.86
375.38	655.35
375.58	650.67
375.78	699.82
375.97	636.63
376.17	812.17
376.37	617.90
376.56	603.86
376.76	695.14
376.95	638.97
377.15	695.14
377.35	636.63
377.54	660.03
377.74	622.58
377.93	669.39
378.13	695.14
378.33	697.48
378.52	748.97
378.72	725.57
378.91	699.82
379.11	685.78
379.31	636.63
379.50	657.69
379.70	746.63
379.89	716.20
380.09	730.25
380.28	688.12
380.48	763.01
380.68	641.31
380.87	767.70
381.07	753.65
381.26	781.74
381.46	821.53
381.65	816.85
381.85	765.36
382.04	662.37
382.24	739.61
382.43	777.06
382.63	828.55
382.83	795.78
383.02	861.32
383.22	863.66
383.41	807.48
383.61	903.45
383.80	887.06
384.00	770.04
384.19	777.06
384.39	833.23
384.58	774.72
384.78	847.27
384.97	844.93
385.17	854.30
385.36	788.76
385.56	889.40
385.75	837.91
385.95	887.06
386.14	880.04
386.34	873.02
386.53	851.96
386.72	837.91
386.92	863.66
387.11	933.87
387.31	968.98
387.50	814.51
387.70	847.27
387.89	901.11
388.09	894.08
388.28	905.79
388.48	896.43
388.67	882.38
388.86	882.38
389.06	950.26
389.25	947.92
389.45	877.70
389.64	945.58
389.84	947.92
390.03	910.47
390.22	926.85
390.42	1001.75
390.61	945.58
390.81	1027.50
391.00	1001.75
391.19	992.39
391.39	1078.99
391.58	1043.88
391.78	1149.20
391.97	1036.86
392.16	1053.24
392.36	1123.46
392.55	1022.81
392.75	1069.62
392.94	1011.11
393.13	1006.43
393.33	1060.26
393.52	1050.90
393.71	1060.26
393.91	1062.60
394.10	1132.82
394.29	1071.97
394.49	1125.80
394.68	1130.48
394.88	1097.71
395.07	1207.72
395.26	1116.44
395.46	1263.89
395.65	1203.04
395.84	1228.78
396.04	1254.53
396.23	1203.04
396.42	1181.97
396.62	1203.04
396.81	1193.67
397.00	1093.03
397.19	1210.06
397.39	1291.98
397.58	1163.25
397.77	1238.14
397.97	1322.40
398.16	1254.53
398.35	1294.32
398.55	1343.47
398.74	1310.70
398.93	1373.89
399.12	1289.64
399.32	1263.89
399.51	1303.68
399.70	1343.47
399.90	1306.02
400.09	1383.26
400.28	1373.89
400.47	1362.19
400.67	1380.92
400.86	1416.02
401.05	1535.39
401.24	1399.64
401.44	1392.62
401.63	1446.45
401.82	1497.94
402.01	1425.39
402.21	1406.66
402.40	1502.62
402.59	1371.55
402.78	1490.92
402.97	1537.73
403.17	1509.65
403.36	1507.30
403.55	1645.40
403.74	1565.82
403.93	1551.78
404.13	1561.14
404.32	1584.54
404.51	1636.03
404.70	1528.37
404.89	1533.05
405.09	1687.53
405.28	1668.80
405.47	1795.19
405.66	1554.12
405.85	1678.16
406.05	1652.42
406.24	1636.03
406.43	1750.72
406.62	1748.38
406.81	1842.00
407.00	1764.76
407.20	1748.38
407.39	1769.44
407.58	1802.21
407.77	1825.62
407.96	1844.34
408.15	1902.86
408.34	1902.86
408.54	1853.70
408.73	1879.45
408.92	1949.67
409.11	1905.20
409.30	1912.22
409.49	2005.84
409.68	2129.89
409.87	2038.61
410.07	2052.65
410.26	2092.44
410.45	1989.46
410.64	2146.27
410.83	2101.80
411.02	2195.42
411.21	2120.53
411.40	2169.68
411.59	2139.25
411.78	2115.84
411.98	2179.04
412.17	2275.00
412.36	2286.70
412.55	2174.36
412.74	2218.83
412.93	2286.70
413.12	2427.14
413.31	2495.01
413.50	2457.56
413.69	2413.09
413.88	2532.46
414.07	2492.67
414.26	2541.82
414.45	2527.78
414.64	2663.53
414.83	2480.97
415.02	2583.95
415.22	2628.42
415.41	2630.76
415.60	2689.28
415.79	2600.34
415.98	2722.04
416.17	2780.56
416.36	2675.23
416.55	2719.70
416.74	2778.22
416.93	2806.30
417.12	2839.07
417.31	2839.07
417.50	2986.52
417.69	3019.29
417.88	2939.71
418.07	2843.75
418.26	2920.99
418.45	3016.95
418.64	3035.67
418.83	2965.46
419.02	3014.61
419.21	3066.10
419.39	3119.93
419.58	3016.95
419.77	3129.30
419.96	3229.94
420.15	3117.59
420.34	3260.37
420.53	3332.92
420.72	3316.54
420.91	3332.92
421.10	3204.19
421.29	3339.94
421.48	3105.89
421.67	3391.44
421.86	3307.18
422.05	3346.97
422.24	3295.47
422.43	3428.88
422.61	3300.16
422.80	3520.17
422.99	3330.58
423.18	3440.59
423.37	3452.29
423.56	3368.03
423.75	3386.76
423.94	3358.67
424.13	3208.87
424.32	3220.58
424.50	3386.76
424.69	3468.67
424.88	3541.23
425.07	3379.73
425.26	3468.67
425.45	3414.84
425.64	3407.82
425.83	3438.25
426.01	3466.33
426.20	3487.40
426.39	3529.53
426.58	3461.65
426.77	3466.33
426.96	3527.19
427.15	3487.40
427.33	3646.55
427.52	3562.30
427.71	3574.00
427.90	3644.21
428.09	3772.94
428.28	3674.64
428.46	3559.95
428.65	3639.53
428.84	3784.65
429.03	3833.80
429.22	3524.85
429.40	3702.73
429.59	3623.15
429.78	3597.40
429.97	3609.11
430.16	3709.75
430.34	3808.05
430.53	3831.46
430.72	3866.56
430.91	3918.06
431.10	3779.97
431.28	3866.56
431.47	4011.68
431.66	3899.33
431.85	3988.27
432.03	4086.58
432.22	4154.45
432.41	4025.72
432.60	3992.95
432.79	4098.28
432.97	4018.70
433.16	4135.73
433.35	4105.30
433.54	4156.79
433.72	4035.08
433.91	4081.89
434.10	4252.75
434.28	4210.62
434.47	4191.90
434.66	4107.64
434.85	4159.13
435.03	4159.13
435.22	4353.40
435.41	4461.06
435.59	4379.14
435.78	4334.67
435.97	4362.76
436.16	4374.46
436.34	4344.03
436.53	4482.13
436.72	4428.29
436.90	4458.72
437.09	4589.79
437.28	4566.39
437.46	4496.17
437.65	4606.17
437.84	4507.87
438.02	4657.67
438.21	4631.92
438.40	4615.54
438.58	4868.31
438.77	4746.61
438.96	4762.99
439.14	4732.56
439.33	4821.50
439.52	4952.57
439.70	4828.53
439.89	5036.83
440.08	5205.35
440.26	5048.54
440.45	4915.12
440.63	5029.81
440.82	5156.20
441.01	5022.79
441.19	5277.91
441.38	5118.75
441.57	5256.84
441.75	5291.95
441.94	5371.53
442.12	5378.55
442.31	5607.92
442.50	5301.31
442.68	5469.83
442.87	5296.63
443.05	5570.48
443.24	5488.56
443.43	5603.24
443.61	5717.93
443.80	5631.33
443.98	5514.30
444.17	5467.49
444.35	5654.73
444.54	5731.97
444.73	5453.45
444.91	5619.63
445.10	5694.52
445.28	5682.82
445.47	5579.84
445.65	5631.33
445.84	5781.12
446.02	5685.16
446.21	5523.66
446.39	5713.25
446.58	5942.62
446.77	5687.50
446.95	5572.82
447.14	5687.50
447.32	5820.91
447.51	5757.72
447.69	5743.67
447.88	5731.97
448.06	5806.87
448.25	5790.49
448.43	5661.76
448.62	5675.80
448.80	5870.06
448.99	5706.23
449.17	5874.74
449.36	5710.91
449.54	5900.49
449.73	5989.43
449.91	5996.45
450.10	6104.12
450.28	6085.39
450.46	6167.31
450.65	6057.31
450.83	6160.29
451.02	6090.07
451.20	6214.12
451.39	6148.59
451.57	6106.46
451.76	6171.99
451.94	6218.80
452.13	6221.14
452.31	6296.04
452.49	6183.70
452.68	6413.07
452.86	6349.87
453.05	6387.32
453.23	6394.34
453.42	6410.73
453.60	6270.30
453.78	6293.70
453.97	6396.68
454.15	6427.11
454.34	6387.32
454.52	6583.93
454.70	6431.79
454.89	6609.67
455.07	6576.91
455.26	6616.69
455.44	6740.74
455.62	6630.74
455.81	6541.80
455.99	6640.10
456.17	6843.73
456.36	6965.43
456.54	6857.77
456.73	6836.70
456.91	6829.68
457.09	7145.66
457.28	7066.08
457.46	6951.39
457.64	7178.42
457.83	7091.82
458.01	6920.96
458.19	7276.73
458.38	7183.10
458.56	7159.70
458.74	7234.60
458.93	7178.42
459.11	7258.00
459.29	7246.30
459.48	7187.79
459.66	7091.82
459.84	7377.37
460.03	7501.42
460.21	7478.01
460.39	7419.50
460.57	7396.09
460.76	7564.61
460.94	7431.20
461.12	7435.88
461.31	7454.61
461.49	7733.13
461.67	7508.44
461.85	7545.89
462.04	7480.35
462.22	7969.52
462.40	7747.17
462.59	7826.75
462.77	7660.57
462.95	7801.01
463.13	7735.47
463.32	7796.32
463.50	8021.02
463.68	7990.59
463.86	7871.22
464.05	7742.49
464.23	7805.69
464.41	7971.86
464.59	7836.11
464.78	8126.34
464.96	7985.91
465.14	8037.40
465.32	8042.08
465.50	8039.74
465.69	8074.85
465.87	8021.02
466.05	8140.38
466.23	8173.15
466.41	8147.40
466.60	8304.22
466.78	8154.43
466.96	8131.02
467.14	8238.69
467.32	8334.65
467.51	8276.13
467.69	8198.90
467.87	8442.31
468.05	8503.17
468.23	8334.65
468.41	8418.91
468.60	8360.39
468.78	8533.59
468.96	8339.33
469.14	8423.59
469.32	8613.17
469.50	8432.95
469.69	8676.37
469.87	8734.88
470.05	8617.85
470.23	8676.37
470.41	8903.40
470.59	8954.89
470.77	8681.05
470.95	8793.39
471.14	9163.20
471.32	8774.67
471.50	9128.09
471.68	8898.72
471.86	9184.26
472.04	9076.60
472.22	9174.90
472.40	8889.35
472.58	9069.58
472.77	9312.99
472.95	9352.78
473.13	9493.21
473.31	9401.93
473.49	9563.43
473.67	9411.29
473.85	9359.80
474.03	9699.18
474.21	9687.48
474.39	9722.59
474.57	9874.72
474.75	9816.21
474.93	10134.52
475.12	9851.31
475.30	10050.26
475.48	9898.13
475.66	10113.45
475.84	10090.05
476.02	10193.03
476.20	10239.84
476.38	10399.00
476.56	10600.29
476.74	10494.96
476.92	10359.21
477.10	10523.05
477.28	10848.38
477.46	10719.65
477.64	10778.17
477.82	10876.47
478.00	11180.74
478.18	10846.04
478.36	11311.81
478.54	11225.21
478.72	11513.10
478.90	11477.99
479.08	11501.39
479.26	11534.16
479.44	11721.40
479.62	11733.11
479.80	11939.07
479.98	11737.79
480.16	12149.72
480.34	11920.35
480.52	12217.60
480.70	12231.64
480.88	12013.97
481.06	12402.50
481.24	12257.39
481.41	12685.70
481.59	12514.84
481.77	12812.09
481.95	12603.78
482.13	13027.42
482.31	13027.42
482.49	13167.85
482.67	13331.69
482.85	13453.40
483.03	13376.16
483.21	13940.23
483.39	13919.17
483.57	13724.90
483.74	13963.64
483.92	13944.91
484.10	13895.76
484.28	14101.73
484.46	14410.68
484.64	14609.62
484.82	14663.46
485.00	14698.56
485.18	14878.79
485.35	15145.61
485.53	15002.83
485.71	15112.84
485.89	15192.42
486.07	15426.47
486.25	15452.22
486.43	15686.27
486.61	15534.14
486.78	15939.05
486.96	15709.68
487.14	15967.13
487.32	15868.83
487.50	16460.99
487.68	16322.90
487.85	16849.52
488.03	16589.72
488.21	16666.95
488.39	16877.60
488.57	17121.02
488.75	17003.99
488.92	17577.42
489.10	17521.25
489.28	17694.45
489.46	17771.69
489.64	17584.44
489.81	18047.87
489.99	17951.91
490.17	18223.41
490.35	18176.60
490.53	18398.95
490.70	18654.07
490.88	18412.99
491.06	18967.70
491.24	18459.81
491.41	19236.86
491.59	19271.97
491.77	19271.97
491.95	19372.61
492.13	19445.17
492.30	19803.27
492.48	19552.84
492.66	19742.42
492.84	19997.54
493.01	20093.50
493.19	20140.31
493.37	20395.43
493.54	20655.23
493.72	20819.07
493.90	20758.21
494.08	20989.92
494.25	20695.02
494.43	20912.69
494.61	21006.31
494.79	21390.16
494.96	21172.49
495.14	21575.06
495.32	21682.72
495.49	21841.88
495.67	21490.80
495.85	21933.16
496.02	22125.08
496.20	22239.77
496.38	22445.74
496.55	22185.94
496.73	23068.32
496.91	22441.06
497.09	22993.42
497.26	22946.61
497.44	22745.33
497.62	23159.60
497.79	23513.02
497.97	22857.67
498.14	23660.48
498.32	23697.92
498.50	24030.28
498.67	23969.43
498.85	23854.74
499.03	24198.80
499.20	24163.69
499.38	24144.97
499.56	24615.41
499.73	23967.09
499.91	24582.65
500.08	24613.07
500.26	24435.19
500.44	24823.72
500.61	24709.04
500.79	24889.26
500.97	24936.07
501.14	25336.30
501.32	25319.92
501.49	25458.01
501.67	25666.31
501.84	25149.06
502.02	25469.71
502.20	25450.99
502.37	25865.26
502.55	25912.07
502.72	25898.03
502.90	25970.58
503.07	26174.21
503.25	26108.68
503.43	25867.60
503.60	26590.83
503.78	26307.62
503.95	26340.39
504.13	26469.12
504.30	26443.37
504.48	26625.93
504.65	26838.92
504.83	26899.78
505.01	26899.78
505.18	27021.48
505.36	27145.53
505.53	26962.97
505.71	27056.59
505.88	27370.22
506.06	26967.65
506.23	27653.43
506.41	27571.51
506.58	27828.97
506.76	27875.78
506.93	28273.67
507.11	27838.33
507.28	28041.96
507.46	28088.77
507.63	27960.04
507.81	28236.22
507.98	28168.35
508.16	28460.91
508.33	28690.29
508.50	28725.39
508.68	29015.62
508.85	29172.44
509.03	28882.21
509.20	29116.26
509.38	29282.44
509.55	29039.03
509.73	28982.85
509.90	29247.33
510.08	29198.18
510.25	29638.20
510.42	29635.86
510.60	29741.19
510.77	29799.70
510.95	29628.84
511.12	29504.79
511.30	30225.68
511.47	29883.96
511.64	29851.19
511.82	30614.21
511.99	30583.78
512.17	30345.05
512.34	30286.53
512.51	30883.37
512.69	30499.52
512.86	30815.49
513.04	30913.80
513.21	30726.55
513.38	31173.60
513.56	30824.86
513.73	30932.52
513.90	31014.44
514.08	31094.02
514.25	31494.25
514.43	31318.71
514.60	31461.48
514.77	31522.34
514.95	31756.39
515.12	31644.04
515.29	31838.31
515.47	31936.61
515.64	32067.68
515.81	31679.15
515.99	32187.05
516.16	32308.76
516.33	31976.40
516.51	32634.09
516.68	32395.35
516.85	32442.17
517.03	32449.19
517.20	32322.80
517.37	32442.17
517.54	32730.05
517.72	32870.48
517.89	32840.06
518.06	33090.49
518.24	32907.93
518.41	33291.78
518.58	33177.09
518.75	32755.80
518.93	32842.40
519.10	33233.27
519.27	33429.87
519.45	33336.25
519.62	34157.78
519.79	33565.62
519.96	33624.14
520.14	33516.47
520.31	33312.84
520.48	33963.51
520.65	34043.09
520.83	34850.58
521.00	34197.57
521.17	34513.54
521.34	34506.52
521.52	34316.93
521.69	34494.82
521.86	34558.01
522.03	34817.81
522.20	34443.32
522.38	35075.27
522.55	35105.70
522.72	34597.80
522.89	34939.52
523.07	34937.18
523.24	35115.06
523.41	34946.54
523.58	35196.98
523.75	35278.89
523.92	35482.52
524.10	35599.55
524.27	35962.33
524.44	35342.09
524.61	35716.58
524.78	35306.98
524.96	35866.37
525.13	36126.17
525.30	36259.58
525.47	35557.42
525.64	35742.32
525.81	36196.38
525.98	36383.63
526.16	36404.69
526.33	36091.06
526.50	36252.56
526.67	36175.32
526.84	36620.02
527.01	36584.91
527.18	36500.65
527.36	36570.87
527.53	36985.15
527.70	36968.76
527.87	37055.36
528.04	36833.01
528.21	37172.39
528.38	36975.78
528.55	37254.31
528.72	37209.84
528.89	37151.32
529.07	37001.53
529.24	37354.95
529.41	37275.37
529.58	37593.68
529.75	37401.76
529.92	37708.37
530.09	37315.16
530.26	37532.83
530.43	37432.19
530.60	37720.07
530.77	37455.59
530.94	37914.34
531.11	37565.60
531.28	37895.61
531.46	38220.95
531.63	38033.71
531.80	38117.96
531.97	38440.96
532.14	38218.61
532.31	38253.72
532.48	38621.18
532.65	38527.56
532.82	38305.21
532.99	38698.42
533.16	38185.84
533.33	38574.37
533.50	38527.56
533.67	38621.18
533.84	38705.44
534.01	38527.56
534.18	38813.10
534.35	38796.72
534.52	38630.54
534.69	39210.99
534.86	39306.96
535.03	38927.79
535.20	38967.58
535.37	39351.43
535.54	39648.68
535.71	39335.04
535.88	39620.59
536.05	39786.77
536.22	39414.62
536.38	39817.19
536.55	39597.18
536.72	39557.39
536.89	39615.91
537.06	39643.99
537.23	40088.70
537.40	39470.79
537.57	39812.51
537.74	39641.65
537.91	40598.93
538.08	40203.38
538.25	39702.51
538.42	40231.47
538.59	40371.90
538.75	40095.72
538.92	40016.14
539.09	40079.33
539.26	40254.87
539.43	40060.61
539.60	40294.66
539.77	40493.61
539.94	40772.13
540.11	40622.34
540.28	40645.74
540.44	40512.33
540.61	40935.97
540.78	40711.28
540.95	41031.93
541.12	40390.62
541.29	40795.54
541.46	40697.24
541.62	41261.30
541.79	41359.61
541.96	40463.18
542.13	40580.21
542.30	40638.72
542.47	41722.39
542.63	41158.32
542.80	41453.23
542.97	41504.72
543.14	41785.58
543.31	41607.70
543.48	41741.11
543.64	41982.19
543.81	41916.65
543.98	42085.17
544.15	41722.39
544.32	41787.92
544.48	42321.57
544.65	42220.92
544.82	41944.74
544.99	42146.03
545.16	42546.26
545.32	42195.18
545.49	42396.46
545.66	42686.69
545.83	42745.20
546.00	42344.97
546.16	42574.34
546.33	42572.00
546.50	42450.30
546.67	42745.20
546.83	42330.93
547.00	42593.07
547.17	42670.31
547.34	42649.24
547.50	43098.62
547.67	43274.16
547.84	42759.25
548.00	43068.20
548.17	42965.21
548.34	43346.72
548.51	43606.52
548.67	43253.10
548.84	42944.15
549.01	42862.23
549.18	43070.54
549.34	43248.42
549.51	43515.24
549.68	43414.60
549.84	43246.08
550.01	43402.89
550.18	43115.01
550.34	43423.96
550.51	43648.65
550.68	43583.12
550.84	43325.66
551.01	43721.21
551.18	43035.43
551.34	43257.78
551.51	43798.44
551.68	44114.42
551.84	43761.00
552.01	43599.50
552.18	43543.33
552.34	43618.22
552.51	44156.55
552.68	43496.52
552.84	44032.50
553.01	44027.82
553.18	44341.45
553.34	44247.83
553.51	44058.24
553.67	43896.75
553.84	44397.62
554.01	44280.60
554.17	44390.60
554.34	44514.65
554.51	44465.50
554.67	45205.11
554.84	44919.56
555.00	44444.43
555.17	44395.28
555.33	44891.48
555.50	44823.60
555.67	44416.35
555.83	44718.28
556.00	44608.27
556.16	44921.90
556.33	44786.15
556.50	44414.01
556.66	44875.09
556.83	44488.90
556.99	45113.83
557.16	45148.93
557.32	45083.40
557.49	45184.04
557.65	44399.96
557.82	44842.32
557.98	44893.82
558.15	44800.19
558.32	45294.05
558.48	45048.29
558.65	45312.77
558.81	45207.45
558.98	45036.59
559.14	44725.30
559.31	45118.51
559.47	45223.83
559.64	45020.20
559.80	45305.75
559.97	45022.54
560.13	45212.13
560.30	45242.56
560.46	45544.48
560.63	45605.34
560.79	45654.49
560.96	45544.48
561.12	45617.04
561.29	45525.76
561.45	45375.97
561.61	45427.46
561.78	45633.42
561.94	45621.72
562.11	45453.20
562.27	45750.45
562.44	45617.04
562.60	45148.93
562.77	45778.54
562.93	45193.40
563.10	45993.87
563.26	45745.77
563.42	46429.21
563.59	45720.02
563.75	45502.35
563.92	46103.87
564.08	45717.68
564.24	46078.13
564.41	45593.64
564.57	45844.07
564.74	46141.32
564.90	45778.54
565.07	46092.17
565.23	45659.17
565.39	45886.20
565.56	46085.15
565.72	46171.75
565.88	45937.69
566.05	46141.32
566.21	46124.94
566.38	46068.76
566.54	46103.87
566.70	45872.16
566.87	46080.47
567.03	45680.24
567.19	46183.45
567.36	46309.84
567.52	46513.47
567.68	46073.45
567.85	46012.59
568.01	46094.51
568.17	46122.60
568.34	46595.38
568.50	46649.22
568.66	45940.04
568.83	46138.98
568.99	46131.96
569.15	46270.05
569.32	46344.95
569.48	45916.63
569.64	46852.84
569.81	46499.42
569.97	46714.75
570.13	46506.44
570.30	46295.80
570.46	46588.36
570.62	46925.40
570.78	46593.04
570.95	46478.36
571.11	46504.10
571.27	46394.10
571.43	46469.00
571.60	46600.07
571.76	46288.77
571.92	46630.49
572.09	46742.84
572.25	46569.64
572.41	46721.77
572.57	46710.07
572.74	47098.60
572.90	46623.47
573.06	46972.21
573.22	46773.27
573.38	47028.38
573.55	46560.28
573.71	47136.05
573.87	46787.31
574.03	46656.24
574.20	46981.57
574.36	46674.96
574.52	46820.08
574.68	47028.38
574.84	47159.45
575.01	47126.69
575.17	46813.05
575.33	46494.74
575.49	46543.89
575.65	46855.18
575.82	46824.76
575.98	46623.47
576.14	47070.51
576.30	47295.21
576.46	46983.91
576.62	47070.51
576.79	47004.98
576.95	46169.41
577.11	46436.23
577.27	46653.90
577.43	47154.77
577.59	46899.65
577.75	46824.76
577.92	46330.90
578.08	46796.67
578.24	46934.76
578.40	47210.95
578.56	46831.78
578.72	46447.93
578.88	46836.46
579.04	47063.49
579.21	47107.96
579.37	47199.24
579.53	47309.25
579.69	46721.77
579.85	47145.41
580.01	47323.29
580.17	46871.57
580.33	47283.50
580.49	46894.97
580.65	47112.64
580.82	47201.58
580.98	46424.53
581.14	46646.88
581.30	46948.81
581.46	47234.35
581.62	47257.76
581.78	46674.96
581.94	47203.92
582.10	46960.51
582.26	47456.70
582.42	47075.19
582.58	47379.46
582.74	47217.97
582.90	47349.04
583.06	47295.21
583.22	46932.42
583.38	47274.14
583.54	47695.44
583.70	47295.21
583.86	46960.51
584.02	47201.58
584.18	47494.15
584.34	47330.31
584.50	47349.04
584.66	47152.43
584.82	47246.05
584.98	47498.83
585.14	47613.52
585.30	46969.87
585.46	46871.57
585.62	47250.74
585.78	47260.10
585.94	47117.32
586.10	47482.45
586.26	46965.19
586.42	47344.36
586.58	47402.87
586.74	47318.61
586.90	46784.97
587.06	47510.53
587.22	47150.09
587.38	47264.78
587.54	47363.08
587.70	47452.02
587.86	47498.83
588.02	47416.91
588.18	46712.41
588.34	47463.72
588.49	47552.66
588.65	47140.73
588.81	47400.53
588.97	47648.63
589.13	47423.93
589.29	47201.58
589.45	47550.32
589.61	47360.74
589.77	47639.26
589.93	47253.08
590.08	47571.39
590.24	47796.08
590.40	47686.07
590.56	47505.85
590.72	48318.02
590.88	47365.42
591.04	47543.30
591.20	47505.85
591.35	47608.84
591.51	48023.11
591.67	47503.51
591.83	47971.62
591.99	47737.57
592.15	47400.53
592.31	47564.37
592.46	47519.90
592.62	47344.36
592.78	47461.38
592.94	48233.76
593.10	47821.83
593.26	48240.78
593.41	48332.06
593.57	47753.95
593.73	48303.98
593.89	48259.51
594.05	48259.51
594.20	47868.64
594.36	48144.82
594.52	48168.22
594.68	47882.68
594.84	47646.29
594.99	47969.28
595.15	47934.17
595.31	48016.09
595.47	48002.05
595.62	47882.68
595.78	47959.92
595.94	47870.98
596.10	47770.33
596.25	48430.36
596.41	48397.60
596.57	47868.64
596.73	48411.64
596.88	48048.86
597.04	47978.64
597.20	48418.66
597.36	48161.20
597.51	48067.58
597.67	48067.58
597.83	48289.93
597.99	48172.91
598.14	48072.26
598.30	47767.99
598.46	47688.42
598.61	48383.55
598.77	48467.81
598.93	48034.81
599.09	48292.27
599.24	48479.52
599.40	47826.51
599.56	48034.81
599.71	48446.75
599.87	48332.06
600.03	48580.16
600.18	48086.31
600.34	48233.76
600.50	48243.12
600.65	48456.11
600.81	48411.64
600.97	48215.04
601.12	48013.75
601.28	48208.01
601.44	47957.58
601.59	48009.07
601.75	47945.87
601.91	48435.05
602.06	48306.32
602.22	48467.81
602.37	47901.40
602.53	48222.06
602.69	48481.86
602.84	47990.34
603.00	47735.23
603.16	48318.02
603.31	48030.13
603.47	48172.91
603.62	47992.68
603.78	48549.73
603.94	48151.84
604.09	47679.05
604.25	47927.15
604.40	47910.77
604.56	47959.92
604.71	48615.27
604.87	48100.35
605.03	48156.52
605.18	47831.19
605.34	47976.30
605.49	48025.45
605.65	48273.55
605.80	48072.26
605.96	47920.13
606.12	47828.85
606.27	47887.36
606.43	48044.18
606.58	47985.66
606.74	48083.97
606.89	47980.98
607.05	48273.55
607.20	47992.68
607.36	47978.64
607.51	47922.47
607.67	47786.72
607.82	47971.62
607.98	48046.52
608.13	47765.65
608.29	47995.03
608.44	47833.53
608.60	47796.08
608.75	47915.45
608.91	47540.96
609.06	47999.71
609.22	48184.61
609.37	47594.79
609.53	47922.47
609.68	47798.42
609.84	47938.85
609.99	48081.63
610.15	47856.93
610.30	48086.31
610.46	47484.79
610.61	47861.61
610.76	47723.52
610.92	47327.97
611.07	47655.65
611.23	47576.07
611.38	47964.60
611.54	47536.28
611.69	47819.49
611.84	48109.71
612.00	47466.06
612.15	47386.49
612.31	47889.70
612.46	47749.27
612.62	47454.36
612.77	47512.88
612.92	48119.07
613.08	47416.91
613.23	47608.84
613.39	47533.94
613.54	47526.92
613.69	47569.05
613.85	47562.03
614.00	47721.18
614.15	47863.96
614.31	47384.15
614.46	47159.45
614.62	47379.46
614.77	46981.57
614.92	47503.51
615.08	47421.59
615.23	47430.96
615.38	47590.11
615.54	47171.16
615.69	47262.44
615.84	47641.60
616.00	47526.92
616.15	47409.89
616.30	47606.50
616.46	47103.28
616.61	47454.36
616.76	47407.55
616.92	47147.75
617.07	47711.82
617.22	47093.92
617.37	47063.49
617.53	47222.65
617.68	47367.76
617.83	46997.96
617.99	47515.22
618.14	47365.42
618.29	47370.10
618.45	46714.75
618.60	47203.92
618.75	46756.88
618.90	46674.96
619.06	46909.02
619.21	46990.94
619.36	47100.94
619.51	46796.67
619.67	46731.14
619.82	46782.63
619.97	47365.42
620.12	46836.46
620.28	47278.82
620.43	46630.49
620.58	46714.75
620.73	46731.14
620.89	47129.03
621.04	46820.08
621.19	46817.74
621.34	46663.26
621.49	46630.49
621.65	46625.81
621.80	47086.90
621.95	46546.23
622.10	46768.58
622.25	46990.94
622.41	46742.84
622.56	46656.24
622.71	46696.03
622.86	46686.67
623.01	46815.40
623.16	46314.52
623.32	46630.49
623.47	46307.50
623.62	46555.60
623.77	46398.78
623.92	46361.33
624.07	46635.17
624.23	46511.13
624.38	46520.49
624.53	46469.00
624.68	46466.66
624.83	46101.53
624.98	46120.26
625.13	46096.85
625.29	45703.64
625.44	46082.81
625.59	46457.29
625.74	45867.48
625.89	45649.81
626.04	45691.94
626.19	46260.69
626.34	45633.42
626.49	45595.98
626.65	45553.85
626.80	46124.94
626.95	45621.72
627.10	45455.54
627.25	45827.69
627.40	45446.18
627.55	46354.31
627.70	45769.18
627.85	45497.67
628.00	45834.71
628.15	45500.01
628.30	45200.43
628.45	45509.38
628.60	45027.23
628.76	45415.76
628.91	45933.01
629.06	44926.58
629.21	44952.33
629.36	45291.71
629.51	45038.93
629.66	45661.51
629.81	45656.83
629.96	45989.19
630.11	45485.97
630.26	45425.12
630.41	45340.86
630.56	45198.09
630.71	45448.52
630.86	45280.00
631.01	45057.65
631.16	44563.80
631.31	45277.66
631.46	45322.13
631.61	45382.99
631.76	45642.79
631.91	45172.34
632.06	45160.64
632.21	45247.24
632.36	45357.24
632.51	44975.73
632.66	44996.80
632.81	44725.30
632.96	44945.31
633.10	44783.81
633.25	44671.46
633.40	45052.97
633.55	45312.77
633.70	44626.99
633.85	44760.40
634.00	44547.42
634.15	44603.59
634.30	44636.36
634.45	44362.51
634.60	44755.72
634.75	44622.31
634.90	44418.69
635.05	44762.75
635.19	44973.39
635.34	44451.45
635.49	44549.76
635.64	44802.53
635.79	44208.04
635.94	44577.84
636.09	44360.17
636.24	44261.87
636.39	44559.12
636.53	43990.37
636.68	44074.63
636.83	43995.05
636.98	44116.76
637.13	43775.04
637.28	44114.42
637.43	44313.36
637.57	44233.78
637.72	43899.09
637.87	43875.68
638.02	44259.53
638.17	44130.80
638.32	43952.92
638.46	43803.13
638.61	43660.35
638.76	43140.75
638.91	44098.03
639.06	43798.44
639.20	43859.30
639.35	43351.40
639.50	43814.83
639.65	44161.23
639.80	43894.41
639.94	44105.06
640.09	43871.00
640.24	43615.88
640.39	43276.51
640.54	42976.92
640.68	43643.97
640.83	43707.16
640.98	43856.96
641.13	43501.20
641.27	43901.43
641.42	43625.25
641.57	43381.83
641.72	43690.78
641.86	43508.22
642.01	42754.57
642.16	43122.03
642.31	42763.93
642.45	43409.92
642.60	43269.48
642.75	43063.52
642.90	43821.85
643.04	43220.33
643.19	43173.52
643.34	42997.98
643.48	42665.63
643.63	43040.11
643.78	43288.21
643.93	43358.42
644.07	43033.09
644.22	43271.82
644.37	43299.91
644.51	42885.64
644.66	43098.62
644.81	42705.41
644.95	43178.20
645.10	42946.49
645.25	42660.94
645.39	42539.24
645.54	42775.63
645.69	42630.52
645.83	42506.47
645.98	43124.37
646.13	42483.06
646.27	42454.98
646.42	42321.57
646.57	42663.28
646.71	42614.13
646.86	43180.54
647.00	42487.74
647.15	43023.73
647.30	42499.45
647.44	42424.55
647.59	42462.00
647.74	43021.39
647.88	42532.22
648.03	42782.65
648.17	42396.46
648.32	42682.01
648.47	42557.96
648.61	42239.65
648.76	42305.18
648.90	42108.58
649.05	42078.15
649.20	41858.14
649.34	42548.60
649.49	42036.02
649.63	42073.47
649.78	42417.53
649.92	42569.66
650.07	42906.70
650.21	42274.76
650.36	42499.45
650.51	42281.78
650.65	42684.35
650.80	41984.53
650.94	42082.83
651.09	41942.40
651.23	41495.36
651.38	41706.01
651.52	41748.14
651.67	41656.85
651.81	42064.11
651.96	41883.89
652.10	41420.46
652.25	41558.55
652.39	41488.34
652.54	41628.77
652.68	41521.10
652.83	41909.63
652.97	41930.70
653.12	41649.83
653.26	41860.48
653.41	41375.99
653.55	41586.64
653.70	41668.56
653.84	41237.90
653.99	41610.04
654.13	41743.45
654.27	41457.91
654.42	41331.52
654.56	41535.15
654.71	41280.03
654.85	41708.35
655.00	41811.33
655.14	41488.34
655.29	41296.41
655.43	41794.95
655.57	41518.76
655.72	41010.87
655.86	40968.74
656.01	41144.28
656.15	41368.97
656.30	41137.26
656.44	40847.03
656.58	41062.36
656.73	41331.52
656.87	40554.46
657.01	40673.83
657.16	40914.90
657.30	40964.06
657.45	40711.28
657.59	40601.27
657.73	40739.36
657.88	40823.62
658.02	40751.07
658.16	41148.96
658.31	40954.69
658.45	41085.76
658.60	40697.24
658.74	40627.02
658.88	40187.00
659.03	40287.64
659.17	40360.20
659.31	40292.32
659.46	40179.98
659.60	40549.78
659.74	40369.56
659.89	39674.42
660.03	39761.02
660.17	40517.01
660.32	39519.95
660.46	40023.16
660.60	39536.33
660.74	40275.94
660.89	39770.38
661.03	39533.99
661.17	39037.80
661.32	39683.78
661.46	39466.11
661.60	39447.39
661.74	39306.96
661.89	39271.85
662.03	39583.14
662.17	39426.32
662.31	39262.49
662.46	39112.69
662.60	38962.90
662.74	38738.21
662.88	39208.65
663.03	38476.07
663.17	38604.80
663.31	38462.02
663.45	39009.71
663.60	39000.35
663.74	38995.67
663.88	38902.04
664.02	38525.22
664.17	39290.57
664.31	38560.33
664.45	38787.36
664.59	38424.57
664.73	38511.17
664.88	38370.74
665.02	37951.79
665.16	38405.85
665.30	38281.80
665.44	37797.31
665.59	37486.02
665.73	38164.78
665.87	37584.32
666.01	37727.10
666.15	37858.17
666.29	37633.47
666.44	37755.18
666.58	37895.61
666.72	37572.62
666.86	37453.25
667.00	37663.90
667.14	37560.92
667.28	37656.88
667.43	37411.12
667.57	37504.74
667.71	37514.11
667.85	37350.27
667.99	37001.53
668.13	36767.48
668.27	37031.96
668.41	37099.83
668.56	36905.57
668.70	36697.26
668.84	36601.30
668.98	36280.64
669.12	36751.09
669.26	36596.62
669.40	36442.14
669.54	36580.23
669.68	36685.56
669.82	36376.61
669.96	36463.21
670.10	36041.91
670.25	35875.73
670.39	35985.74
670.53	36018.50
670.67	35714.23
670.81	36163.62
670.95	35948.29
671.09	35433.37
671.23	35569.12
671.37	36217.45
671.51	35566.78
671.65	35625.29
671.79	35515.29
671.93	35873.39
672.07	35754.02
672.21	35409.96
672.35	34923.13
672.49	35234.42
672.63	34822.49
672.77	35189.95
672.91	35096.33
673.05	34951.22
673.19	34611.84
673.33	34562.69
673.47	34878.66
673.61	34354.38
673.75	34431.62
673.89	34129.69
674.03	34347.36
674.17	34146.08
674.31	33816.06
674.45	33900.32
674.59	34316.93
674.73	34089.90
674.87	33558.60
675.01	33376.04
675.15	33455.62
675.29	33593.71
675.43	33301.14
675.56	33624.14
675.70	33406.47
675.84	33036.66
675.98	32177.68
676.12	32657.49
676.26	33141.99
676.40	32720.69
676.54	32414.08
676.68	32524.08
676.82	32364.93
676.96	32652.81
677.10	32622.39
677.23	32479.61
677.37	32217.47
677.51	31894.48
677.65	32357.91
677.79	31833.63
677.93	31969.38
678.07	31555.10
678.21	31407.65
678.34	31164.23
678.48	31426.37
678.62	31314.03
678.76	31342.11
678.90	30913.80
679.04	31349.14
679.18	31672.13
679.31	30672.72
679.45	30925.50
679.59	30874.01
679.73	30733.57
679.87	30426.96
680.00	30307.60
680.14	30766.34
680.28	30536.97
680.42	30185.89
680.56	29965.88
680.70	29748.21
680.83	29539.90
680.97	29661.61
681.11	29504.79
681.25	29338.62
681.39	29106.90
681.52	29324.57
681.66	29032.00
681.80	28938.38
681.94	28608.37
682.07	28905.62
682.21	28547.51
682.35	28657.52
682.49	28460.91
682.62	28301.76
682.76	28891.57
682.90	28582.62
683.04	28191.75
683.17	28119.20
683.31	27819.61
683.45	27981.10
683.59	27613.64
683.72	27548.11
683.86	27924.93
684.00	27749.39
684.13	27332.78
684.27	27463.85
684.41	27019.14
684.55	27339.80
684.68	27211.07
684.82	26719.56
684.96	26909.14
685.09	26780.41
685.23	26733.60
685.37	27410.01
685.50	27101.06
685.64	26719.56
685.78	26443.37
685.91	26441.03
686.05	25724.83
686.19	25748.23
686.32	25898.03
686.46	25617.16
686.60	25614.82
686.73	25905.05
686.87	25834.83
687.01	25862.92
687.14	26092.29
687.28	25308.21
687.42	25207.57
687.55	25104.59
687.69	25078.84
687.82	24774.57
687.96	24613.07
688.10	24748.82
688.23	24882.24
688.37	24950.11
688.50	24907.98
688.64	24643.50
688.78	24140.29
688.91	24322.85
689.05	23917.93
689.18	23697.92
689.32	23798.57
689.46	23531.75
689.59	23763.46
689.73	24098.16
689.86	23995.17
690.00	23821.97
690.13	23569.19
690.27	23077.68
690.41	23683.88
690.54	22927.89
690.68	23276.63
690.81	23000.44
690.95	22895.12
691.08	22647.02
691.22	22815.54
691.35	22476.16
691.49	22707.88
691.62	22408.29
691.76	22419.99
691.89	22125.08
692.03	21912.10
692.16	21722.51
692.30	21977.63
692.43	21598.46
692.57	21575.06
692.70	21806.77
692.84	21476.76
692.97	21366.75
693.11	21432.29
693.24	21174.83
693.38	21207.59
693.51	20636.50
693.65	20987.58
693.78	20896.30
693.92	20741.83
694.05	20374.36
694.19	20538.20
694.32	20460.96
694.45	20549.90
694.59	20631.82
694.72	20453.94
694.86	20327.55
694.99	19901.58
695.13	19744.76
695.26	19700.29
695.39	19693.27
695.53	19623.05
695.66	19515.39
695.80	19311.76
695.93	19644.12
696.07	19442.83
696.20	18972.38
696.33	18698.54
696.47	18782.80
696.60	18878.76
696.73	19232.18
696.87	18897.49
697.00	19040.26
697.14	18422.36
697.27	18476.19
697.40	18703.22
697.54	18679.82
697.67	18548.75
697.80	18256.18
697.94	18265.54
698.07	18436.40
698.21	17874.67
698.34	17998.72
698.47	17977.65
698.61	17584.44
698.74	17535.29
698.87	17598.49
699.01	17317.62
699.14	17692.11
699.27	17696.79
699.40	17022.72
699.54	17151.45
699.67	17205.28
699.80	17404.22
699.94	17001.65
700.07	17057.82
700.20	16849.52
700.34	16636.53
700.47	16798.02
700.60	16872.92
700.73	16606.10
700.87	16407.16
701.00	16025.65
701.13	16294.81
701.26	16273.74
701.40	16135.65
701.53	16063.10
701.66	16039.69
701.79	15819.68
701.93	15723.72
702.06	15255.61
702.19	15468.60
702.32	15627.76
702.46	15494.35
702.59	15445.20
702.72	15517.75
702.85	15403.07
702.99	15370.30
703.12	15269.66
703.25	15201.78
703.38	14925.60
703.51	14906.87
703.65	14806.23
703.78	14810.91
703.91	14415.36
704.04	14455.15
704.17	14640.05
704.31	14356.85
704.44	14464.51
704.57	14284.29
704.70	14256.20
704.83	14108.75
704.96	13902.78
705.10	13973.00
705.23	14019.81
>>>>>End Processed Spectral Data<<<<<
