SpectraSuite Data File
++++++++++++++++++++++++++++++++++++
Date: Fri Oct 25 10:47:30 EDT 2013
User: price-jones
Dark Spectrum Present: No
Reference Spectrum Present: No
Number of Sampled Component Spectra: 1
Spectrometers: USB2+H05261
Integration Time (usec): 100000 (USB2+H05261)
Spectra Averaged: 1 (USB2+H05261)
Boxcar Smoothing: 0 (USB2+H05261)
Correct for Electrical Dark: No (USB2+H05261)
Strobe/Lamp Enabled: No (USB2+H05261)
Correct for Detector Non-linearity: No (USB2+H05261)
Correct for Stray Light: No (USB2+H05261)
Number of Pixels in Processed Spectrum: 2048
>>>>>Begin Processed Spectral Data<<<<<
365.73	159.16
365.92	159.16
366.12	159.16
366.32	21.06
366.52	65.54
366.72	79.58
366.91	65.54
367.11	72.56
367.31	7.02
367.51	37.45
367.70	56.17
367.90	63.19
368.10	44.47
368.30	84.26
368.49	7.02
368.69	70.22
368.89	112.35
369.09	49.15
369.28	70.22
369.48	100.64
369.68	63.19
369.87	105.32
370.07	95.96
370.27	49.15
370.47	182.56
370.66	379.17
370.86	407.25
371.06	416.62
371.25	526.62
371.45	451.72
371.65	447.04
371.84	428.32
372.04	498.53
372.24	468.11
372.44	437.68
372.63	500.87
372.83	404.91
373.03	486.83
373.22	430.66
373.42	552.37
373.62	496.19
373.81	468.11
374.01	514.92
374.21	545.34
374.40	552.37
374.60	585.13
374.79	557.05
374.99	538.32
375.19	606.20
375.38	594.50
375.58	580.45
375.78	587.47
375.97	669.39
376.17	557.05
376.37	533.64
376.56	578.11
376.76	631.94
376.95	519.60
377.15	641.31
377.35	575.77
377.54	557.05
377.74	564.07
377.93	601.52
378.13	561.73
378.33	550.03
378.52	631.94
378.72	620.24
378.91	657.69
379.11	648.33
379.31	645.99
379.50	535.98
379.70	645.99
379.89	723.23
380.09	631.94
380.28	650.67
380.48	678.76
380.68	575.77
380.87	622.58
381.07	561.73
381.26	650.67
381.46	660.03
381.65	650.67
381.85	599.18
382.04	685.78
382.24	723.23
382.43	655.35
382.63	664.71
382.83	709.18
383.02	662.37
383.22	664.71
383.41	690.46
383.61	608.54
383.80	692.80
384.00	681.10
384.19	805.14
384.39	763.01
384.58	753.65
384.78	781.74
384.97	828.55
385.17	744.29
385.36	748.97
385.56	713.86
385.75	699.82
385.95	692.80
386.14	748.97
386.34	767.70
386.53	760.67
386.72	784.08
386.92	777.06
387.11	826.21
387.31	884.72
387.50	875.36
387.70	772.38
387.89	767.70
388.09	788.76
388.28	849.61
388.48	800.46
388.67	889.40
388.86	856.64
389.06	957.28
389.25	917.49
389.45	917.49
389.64	873.02
389.84	945.58
390.03	954.94
390.22	922.17
390.42	889.40
390.61	922.17
390.81	922.17
391.00	901.11
391.19	947.92
391.39	929.19
391.58	961.96
391.78	896.43
391.97	978.34
392.16	1004.09
392.36	992.39
392.55	1015.79
392.75	929.19
392.94	959.62
393.13	978.34
393.33	990.05
393.52	1004.09
393.71	966.64
393.91	1013.45
394.10	1036.86
394.29	957.28
394.49	1074.31
394.68	1083.67
394.88	1109.41
395.07	1020.47
395.26	1064.94
395.46	1121.12
395.65	1048.56
395.84	1100.05
396.04	1210.06
396.23	1116.44
396.42	1006.43
396.62	1151.54
396.81	1167.93
397.00	1083.67
397.19	1071.97
397.39	1139.84
397.58	1219.42
397.77	1196.01
397.97	1107.07
398.16	1303.68
398.35	1132.82
398.55	1200.69
398.74	1219.42
398.93	1383.26
399.12	1289.64
399.32	1203.04
399.51	1369.21
399.70	1320.06
399.90	1306.02
400.09	1275.59
400.28	1430.07
400.47	1336.45
400.67	1444.11
400.86	1317.72
401.05	1359.85
401.24	1376.24
401.44	1411.34
401.63	1378.58
401.82	1427.73
402.01	1437.09
402.21	1448.79
402.40	1486.24
402.59	1387.94
402.78	1448.79
402.97	1441.77
403.17	1636.03
403.36	1521.35
403.55	1572.84
403.74	1636.03
403.93	1530.71
404.13	1540.07
404.32	1596.25
404.51	1547.09
404.70	1572.84
404.89	1633.69
405.09	1713.27
405.28	1668.80
405.47	1565.82
405.66	1795.19
405.85	1760.08
406.05	1708.59
406.24	1739.02
406.43	1741.36
406.62	1722.63
406.81	1736.68
407.00	1703.91
407.20	1720.29
407.39	1888.81
407.58	1872.43
407.77	1860.73
407.96	1898.17
408.15	1893.49
408.34	1846.68
408.54	1933.28
408.73	1916.90
408.92	1970.73
409.11	2010.52
409.30	2010.52
409.49	1921.58
409.68	2047.97
409.87	1930.94
410.07	2001.16
410.26	2139.25
410.45	2054.99
410.64	2186.06
410.83	2183.72
411.02	2132.23
411.21	2232.87
411.40	2155.63
411.59	2181.38
411.78	2356.92
411.98	2160.31
412.17	2204.78
412.36	2235.21
412.55	2242.23
412.74	2356.92
412.93	2406.07
413.12	2207.13
413.31	2511.39
413.50	2445.86
413.69	2445.86
413.88	2495.01
414.07	2455.22
414.26	2562.89
414.45	2558.21
414.64	2513.74
414.83	2644.81
415.02	2677.57
415.22	2602.68
415.41	2672.89
415.60	2642.46
415.79	2724.38
415.98	2855.45
416.17	2733.75
416.36	2782.90
416.55	2782.90
416.74	2785.24
416.93	2810.98
417.12	2853.11
417.31	2918.65
417.50	3005.25
417.69	2913.97
417.88	2970.14
418.07	2991.20
418.26	3103.55
418.45	2963.12
418.64	3082.49
418.83	3049.72
419.02	3059.08
419.21	3215.90
419.39	3105.89
419.58	3162.06
419.77	3089.51
419.96	3187.81
420.15	3169.09
420.34	3222.92
420.53	3234.62
420.72	3232.28
420.91	3225.26
421.10	3227.60
421.29	3370.37
421.48	3262.71
421.67	3337.60
421.86	3368.03
422.05	3283.77
422.24	3234.62
422.43	3349.31
422.61	3323.56
422.80	3431.23
422.99	3447.61
423.18	3496.76
423.37	3482.72
423.56	3538.89
423.75	3480.38
423.94	3375.05
424.13	3290.79
424.32	3314.20
424.50	3403.14
424.69	3445.27
424.88	3480.38
425.07	3536.55
425.26	3485.06
425.45	3375.05
425.64	3391.44
425.83	3548.25
426.01	3611.45
426.20	3501.44
426.39	3407.82
426.58	3541.23
426.77	3471.01
426.96	3513.14
427.15	3639.53
427.33	3658.26
427.52	3602.08
427.71	3761.24
427.90	3578.68
428.09	3667.62
428.28	3705.07
428.46	3611.45
428.65	3648.90
428.84	3684.00
429.03	3967.21
429.22	3747.20
429.40	3744.86
429.59	3803.37
429.78	3639.53
429.97	3648.90
430.16	3695.71
430.34	3812.73
430.53	3693.37
430.72	3934.44
430.91	3864.22
431.10	3789.33
431.28	3786.99
431.47	3953.16
431.66	4140.41
431.85	3955.51
432.03	4088.92
432.22	4121.68
432.41	4191.90
432.60	4079.55
432.79	4049.13
432.97	4131.05
433.16	4203.60
433.35	4037.42
433.54	4168.49
433.72	4252.75
433.91	4030.40
434.10	4248.07
434.28	4084.23
434.47	4114.66
434.66	4205.94
434.85	4440.00
435.03	4390.84
435.22	4442.34
435.41	4578.09
435.59	4550.00
435.78	4547.66
435.97	4524.26
436.16	4442.34
436.34	4411.91
436.53	4533.62
436.72	4461.06
436.90	4414.25
437.09	4491.49
437.28	4479.79
437.46	4610.86
437.65	4507.87
437.84	4578.09
438.02	4603.83
438.21	4770.01
438.40	4578.09
438.58	4697.46
438.77	4674.05
438.96	4755.97
439.14	4847.25
439.33	4950.23
439.52	4807.46
439.70	4856.61
439.89	4975.98
440.08	4999.38
440.26	4983.00
440.45	5053.22
440.63	5088.32
440.82	5179.61
441.01	5207.69
441.19	5287.27
441.38	5181.95
441.57	5425.36
441.75	5408.98
441.94	5291.95
442.12	5465.15
442.31	5516.64
442.50	5467.49
442.68	5453.45
442.87	5647.71
443.05	5682.82
443.24	5638.35
443.43	5720.27
443.61	5650.05
443.80	5827.93
443.98	5544.73
444.17	5310.68
444.35	5610.26
444.54	5720.27
444.73	5764.74
444.91	5572.82
445.10	5444.09
445.28	5467.49
445.47	5547.07
445.65	5554.09
445.84	5736.65
446.02	5863.04
446.21	5685.16
446.39	5806.87
446.58	5874.74
446.77	5692.18
446.95	5729.63
447.14	5743.67
447.32	5834.96
447.51	5797.51
447.69	5902.83
447.88	5884.11
448.06	5912.19
448.25	5947.30
448.43	5834.96
448.62	5909.85
448.80	5853.68
448.99	5832.62
449.17	6101.78
449.36	5982.41
449.54	6022.20
449.73	5987.09
449.91	6186.04
450.10	6164.97
450.28	6279.66
450.46	6052.63
450.65	6340.51
450.83	6291.36
451.02	6183.70
451.20	6251.57
451.39	6244.55
451.57	6380.30
451.76	6394.34
451.94	6225.82
452.13	6544.14
452.31	6193.06
452.49	6176.67
452.68	6246.89
452.86	6377.96
453.05	6410.73
453.23	6530.09
453.42	6555.84
453.60	6499.67
453.78	6658.82
453.97	6462.22
454.15	6380.30
454.34	6595.63
454.52	6569.88
454.70	6560.52
454.89	6513.71
455.07	6630.74
455.26	6504.35
455.44	6703.29
455.62	6750.10
455.81	6715.00
455.99	6700.95
456.17	6855.43
456.36	6761.81
456.54	7054.37
456.73	7030.97
456.91	7115.23
457.09	7105.87
457.28	7246.30
457.46	7115.23
457.64	7040.33
457.83	7148.00
458.01	7077.78
458.19	7105.87
458.38	7145.66
458.56	7143.32
458.74	7377.37
458.93	7241.62
459.11	7276.73
459.29	7283.75
459.48	7442.90
459.66	7220.55
459.84	7281.41
460.03	7482.69
460.21	7379.71
460.39	7428.86
460.57	7499.08
460.76	7531.84
460.94	7632.49
461.12	7538.87
461.31	7503.76
461.49	7557.59
461.67	7513.12
461.85	7793.98
462.04	7688.66
462.22	8016.33
462.40	7793.98
462.59	7646.53
462.77	7672.28
462.95	7880.58
463.13	7932.08
463.32	7971.86
463.50	7955.48
463.68	7960.16
463.86	8046.76
464.05	7960.16
464.23	7878.24
464.41	8135.70
464.59	7892.29
464.78	7953.14
464.96	7864.20
465.14	7791.64
465.32	8145.06
465.50	8308.90
465.69	8318.26
465.87	8273.79
466.05	8285.50
466.23	8124.00
466.41	8116.98
466.60	8100.59
466.78	8234.00
466.96	8353.37
467.14	8203.58
467.32	8294.86
467.51	8531.25
467.69	8084.21
467.87	8208.26
468.05	8379.12
468.23	8299.54
468.41	8329.97
468.60	8479.76
468.78	8505.51
468.96	8383.80
469.14	8390.82
469.32	8512.53
469.50	8191.88
469.69	8702.11
469.87	8945.53
470.05	8854.25
470.23	8812.12
470.41	8795.73
470.59	8952.55
470.77	8999.36
470.95	8922.12
471.14	8968.93
471.32	8837.86
471.50	8980.64
471.68	9022.77
471.86	9081.28
472.04	9137.45
472.22	9301.29
472.40	9128.09
472.58	9144.47
472.77	9202.99
472.95	9228.73
473.13	9664.07
473.31	9228.73
473.49	9296.61
473.67	9385.55
473.85	9376.19
474.03	9884.08
474.21	9755.35
474.39	9802.16
474.57	9891.10
474.75	9860.68
474.93	9982.38
475.12	9584.49
475.30	10059.62
475.48	9678.12
475.66	10015.15
475.84	10054.94
476.02	10207.08
476.20	10134.52
476.38	10342.83
476.56	10560.50
476.74	10637.73
476.92	10391.98
477.10	10394.32
477.28	10766.46
477.46	10670.50
477.64	10963.07
477.82	11049.67
478.00	11070.73
478.18	11375.00
478.36	11218.19
478.54	11325.85
478.72	11243.93
478.90	11400.75
479.08	11363.30
479.26	11800.98
479.44	11796.30
479.62	11655.87
479.80	11903.96
479.98	12009.29
480.16	12187.17
480.34	11995.25
480.52	12407.18
480.70	12189.51
480.88	12053.76
481.06	12231.64
481.24	12421.22
481.41	12800.39
481.59	12861.24
481.77	12697.41
481.95	12875.29
482.13	12959.55
482.31	13085.94
482.49	13231.05
482.67	13174.88
482.85	13364.46
483.03	13600.85
483.21	13504.89
483.39	13841.93
483.57	13593.83
483.74	13848.95
483.92	13797.46
484.10	13818.52
484.28	14181.31
484.46	14354.51
484.64	14630.69
484.82	14398.98
485.00	14356.85
485.18	14782.82
485.35	14885.81
485.53	14647.07
485.71	14981.77
485.89	15005.17
486.07	14904.53
486.25	15218.16
486.43	15253.27
486.61	15384.34
486.78	15517.75
486.96	15569.24
487.14	15899.26
487.32	15915.64
487.50	15985.86
487.68	16128.63
487.85	16470.35
488.03	16610.78
488.21	16776.96
488.39	16617.80
488.57	16807.39
488.75	17156.13
488.92	17048.46
489.10	17245.07
489.28	17301.24
489.46	17720.20
489.64	17350.39
489.81	18036.17
489.99	17905.10
490.17	18216.39
490.35	18279.58
490.53	18038.51
490.70	18480.87
490.88	18485.55
491.06	18628.32
491.24	18649.39
491.41	18480.87
491.59	18787.48
491.77	18963.02
491.95	18974.72
492.13	18813.23
492.30	19761.14
492.48	19426.45
492.66	19686.25
492.84	19740.08
493.01	19566.88
493.19	19597.31
493.37	19992.86
493.54	20149.67
493.72	20226.91
493.90	20259.68
494.08	20517.14
494.25	20695.02
494.43	21018.01
494.61	21020.35
494.79	20915.03
494.96	20908.01
495.14	20945.45
495.32	21422.92
495.49	21261.43
495.67	21612.51
495.85	21371.43
496.02	21764.64
496.20	21928.48
496.38	21591.44
496.55	22553.40
496.73	22462.12
496.91	22415.31
497.09	22164.87
497.26	22792.14
497.44	22651.70
497.62	23112.79
497.79	23049.60
497.97	22726.60
498.14	23314.08
498.32	23178.33
498.50	23014.49
498.67	23531.75
498.85	23548.13
499.03	23410.04
499.20	23765.80
499.38	23793.89
499.56	23948.36
499.73	23885.17
499.91	23901.55
500.08	24077.09
500.26	24016.24
500.44	24100.50
500.61	24020.92
500.79	24147.31
500.97	24308.80
501.14	24900.96
501.32	24484.34
501.49	24814.36
501.67	24652.86
501.84	25064.80
502.02	24872.87
502.20	25090.54
502.37	25282.47
502.55	25188.85
502.72	25291.83
502.90	25280.13
503.07	25387.79
503.25	25560.99
503.43	25200.55
503.60	25989.31
503.78	25713.13
503.95	25736.53
504.13	26230.38
504.30	26260.81
504.48	26096.97
504.65	26536.99
504.83	26391.88
505.01	26948.93
505.18	26419.97
505.36	27047.23
505.53	26448.05
505.71	26817.86
505.88	26546.36
506.06	26838.92
506.23	27321.07
506.41	26593.17
506.58	27047.23
506.76	27002.76
506.93	27023.83
507.11	27402.99
507.28	27534.06
507.46	27513.00
507.63	27363.20
507.81	27391.29
507.98	27875.78
508.16	27648.75
508.33	28048.98
508.50	27784.50
508.68	28154.30
508.85	28432.83
509.03	28299.42
509.20	28013.87
509.38	28318.14
509.55	28231.54
509.73	28652.84
509.90	28341.55
510.08	28451.55
510.25	28500.70
510.42	28737.10
510.60	29291.80
510.77	28821.36
510.95	29235.63
511.12	29083.50
511.30	29270.74
511.47	29551.60
511.64	29614.80
511.82	29179.46
511.99	29425.22
512.17	29792.68
512.34	29460.32
512.51	29778.64
512.69	30331.00
512.86	29860.55
513.04	30003.33
513.21	29839.49
513.38	30146.10
513.56	30548.67
513.73	30066.52
513.90	30298.23
514.08	30218.66
514.25	30452.71
514.43	30398.88
514.60	30700.81
514.77	30546.33
514.95	30913.80
515.12	30719.53
515.29	30768.68
515.47	31129.12
515.64	31545.74
515.81	31056.57
515.99	31344.45
516.16	31028.48
516.33	30843.58
516.51	31168.91
516.68	31101.04
516.85	31047.21
517.03	31337.43
517.20	31409.99
517.37	31578.51
517.54	31772.77
517.72	31812.56
517.89	32140.24
518.06	31934.27
518.24	31828.95
518.41	31737.66
518.58	31934.27
518.75	31864.05
518.93	32226.84
519.10	32170.66
519.27	32437.48
519.45	32762.82
519.62	32708.99
519.79	32409.40
519.96	32685.58
520.14	33202.84
520.31	32465.57
520.48	32954.74
520.65	32940.70
520.83	32840.06
521.00	33170.07
521.17	33347.95
521.34	33092.83
521.52	33420.51
521.69	33734.14
521.86	33549.24
522.03	33001.55
522.20	33673.29
522.38	33790.31
522.55	33907.34
522.72	33797.34
522.89	33464.98
523.07	34132.03
523.24	33846.49
523.41	33968.19
523.58	33790.31
523.75	34527.58
523.92	34181.18
524.10	34529.92
524.27	34462.05
524.44	34487.79
524.61	34726.53
524.78	34328.64
524.96	34419.92
525.13	34686.74
525.30	34754.61
525.47	34721.85
525.64	34932.50
525.81	35047.18
525.98	34838.87
526.16	34696.10
526.33	34724.19
526.50	34831.85
526.67	34845.90
526.84	34892.71
527.01	35138.46
527.18	34991.01
527.36	35412.31
527.53	35150.17
527.70	35864.03
527.87	36048.93
528.04	35416.99
528.21	35571.46
528.38	35917.86
528.55	35634.66
528.72	35838.28
528.89	36107.44
529.07	35807.86
529.24	35992.76
529.41	36002.12
529.58	35629.98
529.75	35749.34
529.92	35786.79
530.09	36318.09
530.26	36339.16
530.43	36821.31
530.60	35995.10
530.77	36336.82
530.94	36175.32
531.11	36175.32
531.28	36641.09
531.46	36793.22
531.63	36903.23
531.80	36847.05
531.97	36524.06
532.14	36900.89
532.31	36713.64
532.48	36772.16
532.65	36748.75
532.82	37046.00
532.99	37090.47
533.16	36758.11
533.33	37148.98
533.50	37516.45
533.67	37357.29
533.84	37050.68
534.01	37160.69
534.18	37392.40
534.35	37617.09
534.52	37277.71
534.69	37656.88
534.86	37607.73
535.03	37450.91
535.20	37565.60
535.37	37551.56
535.54	37921.36
535.71	37991.58
535.88	37560.92
536.05	37654.54
536.22	37930.72
536.38	37942.42
536.55	37809.01
536.72	37708.37
536.89	37619.43
537.06	37951.79
537.23	38167.12
537.40	37947.11
537.57	38052.43
537.74	38167.12
537.91	38843.53
538.08	38380.10
538.25	38518.20
538.42	38213.93
538.59	38579.05
538.75	38223.29
538.92	39077.58
539.09	38876.30
539.26	39028.43
539.43	38927.79
539.60	38459.68
539.77	38433.94
539.94	38962.90
540.11	38698.42
540.28	39070.56
540.44	39082.27
540.61	38932.47
540.78	38649.27
540.95	39002.69
541.12	38981.62
541.29	39166.52
541.46	38923.11
541.62	39196.95
541.79	39433.35
541.96	39115.03
542.13	39412.28
542.30	39461.43
542.47	39292.91
542.63	39351.43
542.80	39751.66
542.97	40086.36
543.14	39927.20
543.31	39992.73
543.48	40357.86
543.64	40549.78
543.81	39992.73
543.98	40044.23
544.15	40224.45
544.32	40247.85
544.48	40760.43
544.65	40486.59
544.82	40215.08
544.99	40112.10
545.16	40399.99
545.32	40030.18
545.49	40388.28
545.66	40568.51
545.83	40643.40
546.00	41120.87
546.16	40835.33
546.33	40460.84
546.50	40205.72
546.67	40669.15
546.83	39917.84
547.00	40652.76
547.17	40818.94
547.34	40823.62
547.50	40872.78
547.67	41069.38
547.84	40912.56
548.00	41427.48
548.17	41195.77
548.34	40835.33
548.51	41165.34
548.67	41343.22
548.84	41394.71
549.01	41296.41
549.18	40868.09
549.34	41588.98
549.51	41378.33
549.68	41165.34
549.84	41670.90
550.01	41560.89
550.18	41249.60
550.34	41661.54
550.51	41202.79
550.68	41191.09
550.84	41450.89
551.01	41731.75
551.18	41710.69
551.34	41640.47
551.51	41780.90
551.68	41991.55
551.84	41808.99
552.01	41394.71
552.18	41808.99
552.34	41621.75
552.51	41722.39
552.68	42054.75
552.84	41525.78
553.01	42293.48
553.18	41869.84
553.34	41776.22
553.51	41832.39
553.67	41628.77
553.84	42298.16
554.01	42213.90
554.17	42483.06
554.34	42602.43
554.51	42134.32
554.67	42724.14
554.84	42342.63
555.00	41855.80
555.17	42398.80
555.33	42508.81
555.50	42384.76
555.67	42426.89
555.83	42314.55
556.00	42974.58
556.16	42953.51
556.33	42649.24
556.50	42522.85
556.66	42707.76
556.83	42436.25
556.99	42539.24
557.16	42581.37
557.32	43082.24
557.49	42263.05
557.65	42335.61
557.82	42469.02
557.98	42431.57
558.15	42543.92
558.32	42925.42
558.48	42838.83
558.65	42782.65
558.81	42754.57
558.98	42792.01
559.14	42855.21
559.31	42656.26
559.47	43075.22
559.64	42717.12
559.80	43260.12
559.97	43608.86
560.13	42831.80
560.30	43000.32
560.46	43054.15
560.63	42567.32
560.79	43084.58
560.96	43129.05
561.12	43346.72
561.29	43409.92
561.45	43152.46
561.61	43166.50
561.78	43227.35
561.94	43313.95
562.11	42920.74
562.27	43658.01
562.44	42883.30
562.60	43206.29
562.77	43587.80
562.93	43629.93
563.10	43227.35
563.26	42822.44
563.42	43494.18
563.59	43386.51
563.75	43377.15
563.92	43505.88
564.08	43578.43
564.24	43824.19
564.41	43585.46
564.57	43648.65
564.74	43466.09
564.90	43742.27
565.07	43789.08
565.23	43526.94
565.39	43627.59
565.56	43798.44
565.72	43601.84
565.88	43594.82
566.05	43765.68
566.21	43260.12
566.38	43449.70
566.54	43548.01
566.70	43374.81
566.87	44074.63
567.03	43988.03
567.19	44196.34
567.36	43742.27
567.52	43695.46
567.68	43985.69
567.85	43856.96
568.01	44135.48
568.17	43866.32
568.34	43882.70
568.50	43562.05
568.66	43583.12
568.83	43973.98
568.99	43761.00
569.15	43723.55
569.32	43672.06
569.48	43744.61
569.64	44538.05
569.81	43824.19
569.97	43665.03
570.13	43452.05
570.30	43164.16
570.46	43524.60
570.62	43543.33
570.78	44004.41
570.95	43690.78
571.11	43768.02
571.27	43536.30
571.43	44058.24
571.60	43700.14
571.76	43704.82
571.92	43833.55
572.09	43711.84
572.25	43899.09
572.41	43985.69
572.57	43543.33
572.74	44648.06
572.90	43538.65
573.06	43962.28
573.22	44201.02
573.38	44165.91
573.55	43852.28
573.71	44168.25
573.87	43674.40
574.03	43583.12
574.20	44215.06
574.36	44201.02
574.52	44360.17
574.68	44002.07
574.84	44002.07
575.01	44137.82
575.17	44399.96
575.33	44261.87
575.49	43945.90
575.65	44488.90
575.82	44643.38
575.98	43690.78
576.14	44318.04
576.30	44091.01
576.46	43784.40
576.62	43779.72
576.79	44002.07
576.95	43667.37
577.11	43959.94
577.27	44107.40
577.43	44498.26
577.59	44044.20
577.75	44245.49
577.92	43924.83
578.08	44540.39
578.24	43999.73
578.40	43882.70
578.56	43819.51
578.72	44673.81
578.88	43927.17
579.04	44294.64
579.21	43973.98
579.37	44060.58
579.53	44095.69
579.69	43807.81
579.85	44182.29
580.01	44449.11
580.17	44245.49
580.33	44409.32
580.49	44037.18
580.65	44804.88
580.82	44301.66
580.98	44339.11
581.14	44320.38
581.30	44516.99
581.46	44505.29
581.62	44343.79
581.78	44067.61
581.94	44458.48
582.10	44306.34
582.26	44411.67
582.42	44266.55
582.58	44009.09
582.74	43903.77
582.90	44282.94
583.06	44130.80
583.22	44238.47
583.38	44411.67
583.54	44364.85
583.70	44491.24
583.86	44360.17
584.02	43894.41
584.18	44580.18
584.34	44240.81
584.50	44765.09
584.66	44678.49
584.82	44037.18
584.98	44591.89
585.14	44161.23
585.30	43973.98
585.46	44034.84
585.62	44137.82
585.78	44524.01
585.94	44044.20
586.10	44006.75
586.26	44182.29
586.42	44385.92
586.58	44231.44
586.74	44332.09
586.90	44247.83
587.06	44371.88
587.22	44170.59
587.38	44268.89
587.54	44727.64
587.70	44706.57
587.86	44992.12
588.02	44692.53
588.18	44545.08
588.34	44428.05
588.49	44275.91
588.65	43871.00
588.81	43751.63
588.97	44219.74
589.13	44280.60
589.29	44264.21
589.45	44421.03
589.61	44142.50
589.77	44844.66
589.93	44444.43
590.08	44423.37
590.24	44250.17
590.40	44109.74
590.56	44648.06
590.72	44762.75
590.88	44481.88
591.04	44964.03
591.20	45003.82
591.35	44758.06
591.51	44971.05
591.67	44133.14
591.83	44306.34
591.99	44521.67
592.15	44299.32
592.31	44664.44
592.46	44430.39
592.62	44636.36
592.78	44809.56
592.94	44610.61
593.10	44737.00
593.26	45071.70
593.41	44664.44
593.57	44854.03
593.73	44479.54
593.89	44746.36
594.05	44676.15
594.20	44781.47
594.36	45195.74
594.52	44514.65
594.68	44676.15
594.84	44722.96
594.99	44898.50
595.15	44542.74
595.31	44875.09
595.47	44626.99
595.62	44528.69
595.78	44959.35
595.94	44903.18
596.10	45052.97
596.25	44919.56
596.41	44673.81
596.57	44673.81
596.73	44758.06
596.88	44037.18
597.04	44453.79
597.20	44554.44
597.36	44886.79
597.51	44809.56
597.67	45139.57
597.83	44917.22
597.99	45200.43
598.14	44900.84
598.30	44914.88
598.46	44968.71
598.61	44629.34
598.77	44940.63
598.93	44875.09
599.09	44500.61
599.24	45464.91
599.40	45151.27
599.56	44458.48
599.71	44889.13
599.87	45052.97
600.03	44872.75
600.18	45050.63
600.34	45439.16
600.50	44734.66
600.65	44797.85
600.81	45083.40
600.97	45097.44
601.12	44940.63
601.28	45097.44
601.44	44580.18
601.59	45036.59
601.75	44903.18
601.91	44694.87
602.06	44481.88
602.22	44659.76
602.37	44854.03
602.53	44198.68
602.69	45291.71
602.84	44800.19
603.00	44676.15
603.16	44671.46
603.31	44659.76
603.47	44470.18
603.62	44594.23
603.78	44722.96
603.94	44896.16
604.09	44856.37
604.25	44891.48
604.40	44905.52
604.56	45134.89
604.71	44921.90
604.87	44343.79
605.03	44598.91
605.18	44423.37
605.34	44669.12
605.49	44577.84
605.65	44725.30
605.80	44884.45
605.96	44964.03
606.12	44807.22
606.27	45015.52
606.43	44446.77
606.58	44451.45
606.74	44650.40
606.89	44484.22
607.05	44886.79
607.20	44573.16
607.36	44636.36
607.51	44821.26
607.67	45006.16
607.82	44596.57
607.98	44442.09
608.13	44519.33
608.29	44985.10
608.44	44233.78
608.60	43838.23
608.75	44060.58
608.91	44062.93
609.06	44140.16
609.22	44608.27
609.37	44282.94
609.53	44631.68
609.68	44566.14
609.84	44409.32
609.99	44250.17
610.15	44172.93
610.30	44282.94
610.46	44105.06
610.61	44301.66
610.76	44168.25
610.92	43871.00
611.07	43894.41
611.23	44051.22
611.38	44018.46
611.54	44034.84
611.69	44287.62
611.84	44072.29
612.00	44074.63
612.15	44250.17
612.31	44243.15
612.46	43845.26
612.62	44722.96
612.77	43779.72
612.92	44257.19
613.08	43669.72
613.23	44032.50
613.39	43845.26
613.54	43936.54
613.69	44292.30
613.85	43711.84
614.00	44238.47
614.15	44055.90
614.31	44046.54
614.46	43922.49
614.62	43817.17
614.77	43812.49
614.92	43910.79
615.08	44282.94
615.23	43665.03
615.38	43772.70
615.54	43578.43
615.69	43622.90
615.84	43379.49
616.00	43412.26
616.15	43730.57
616.30	43646.31
616.46	43524.60
616.61	43419.28
616.76	43351.40
616.92	43208.63
617.07	43435.66
617.22	43232.04
617.37	43318.64
617.53	43639.29
617.68	43288.21
617.83	43868.66
617.99	43718.87
618.14	43292.89
618.29	43374.81
618.45	43264.80
618.60	43555.03
618.75	43271.82
618.90	43482.47
619.06	43496.52
619.21	43288.21
619.36	43632.27
619.51	43416.94
619.67	43217.99
619.82	43328.00
619.97	43335.02
620.12	42857.55
620.28	42635.20
620.43	43232.04
620.58	43152.46
620.73	42906.70
620.89	42712.44
621.04	43349.06
621.19	43201.61
621.34	42873.93
621.49	42553.28
621.65	42663.28
621.80	43126.71
621.95	42682.01
622.10	42658.60
622.25	42689.03
622.41	42733.50
622.56	42447.96
622.71	43058.84
622.86	42890.32
623.01	42843.51
623.16	42593.07
623.32	42850.53
623.47	42763.93
623.62	42799.04
623.77	41846.44
623.92	42337.95
624.07	42188.16
624.23	42363.70
624.38	42129.64
624.53	42560.30
624.68	42689.03
624.83	42843.51
624.98	42536.90
625.13	41872.18
625.29	41886.23
625.44	42286.46
625.59	42036.02
625.74	42171.77
625.89	41776.22
626.04	42005.59
626.19	42000.91
626.34	42389.44
626.49	42127.30
626.65	41827.71
626.80	41378.33
626.95	41745.80
627.10	41977.51
627.25	41666.22
627.40	41411.10
627.55	41422.80
627.70	41010.87
627.85	41619.41
628.00	41654.51
628.15	42019.64
628.30	41855.80
628.45	41937.72
628.60	41701.32
628.76	41745.80
628.91	41855.80
629.06	41965.81
629.21	41680.26
629.36	41214.49
629.51	41542.17
629.66	41495.36
629.81	41085.76
629.96	41528.13
630.11	41312.80
630.26	41319.82
630.41	41188.75
630.56	41631.11
630.71	41287.05
630.86	41151.30
631.01	41567.91
631.16	41404.08
631.31	40781.49
631.46	40753.41
631.61	40886.82
631.76	41490.68
631.91	41209.81
632.06	41053.00
632.21	41099.81
632.36	41200.45
632.51	40914.90
632.66	41333.86
632.81	40945.33
632.96	40940.65
633.10	40758.09
633.25	40917.25
633.40	40854.05
633.55	41277.69
633.70	40662.13
633.85	40676.17
634.00	40676.17
634.15	40854.05
634.30	40425.73
634.45	40603.61
634.60	40832.99
634.75	40444.46
634.90	40449.14
635.05	40657.45
635.19	40751.07
635.34	40856.39
635.49	41017.89
635.64	40282.96
635.79	40371.90
635.94	39985.71
636.09	40753.41
636.24	40477.22
636.39	40194.02
636.53	40067.63
636.68	39915.50
636.83	39899.11
636.98	40280.62
637.13	40114.44
637.28	39763.36
637.43	39910.82
637.57	40060.61
637.72	40065.29
637.87	40339.13
638.02	39660.38
638.17	40076.99
638.32	39777.40
638.46	39868.69
638.61	39922.52
638.76	39632.29
638.91	39868.69
639.06	39917.84
639.20	39924.86
639.35	40172.96
639.50	39838.26
639.65	40142.53
639.80	39943.58
639.94	39910.82
640.09	39438.03
640.24	39440.37
640.39	39510.58
640.54	39861.66
640.68	39536.33
640.83	39728.25
640.98	39683.78
641.13	39313.98
641.27	39613.57
641.42	39316.32
641.57	39620.59
641.72	39512.92
641.86	39168.87
642.01	39281.21
642.16	39335.04
642.31	38934.81
642.45	39222.70
642.60	38998.01
642.75	39019.07
642.90	38962.90
643.04	39299.94
643.19	38838.85
643.34	39019.07
643.48	39124.40
643.63	39054.18
643.78	38995.67
643.93	38857.57
644.07	38419.89
644.22	38209.25
644.37	38738.21
644.51	38920.77
644.66	38656.29
644.81	39257.81
644.95	38946.51
645.10	38960.56
645.25	38986.30
645.39	39061.20
645.54	38920.77
645.69	38490.11
645.83	38565.01
645.98	38600.12
646.13	38890.34
646.27	38983.96
646.42	38567.35
646.57	38981.62
646.71	38749.91
646.86	38579.05
647.00	38897.36
647.15	38958.22
647.30	38707.78
647.44	38249.03
647.59	38646.93
647.74	38129.67
647.88	38501.81
648.03	38518.20
648.17	38136.69
648.32	38071.15
648.47	38106.26
648.61	37895.61
648.76	38576.71
648.90	37893.27
649.05	37783.27
649.20	38073.49
649.34	38487.77
649.49	38000.94
649.63	37890.93
649.78	38047.75
649.92	37937.74
650.07	38691.40
650.21	37628.79
650.36	38169.46
650.51	37787.95
650.65	38705.44
650.80	38080.52
650.94	38115.62
651.09	37942.42
651.23	37914.34
651.38	37745.82
651.52	37801.99
651.67	37785.61
651.81	37748.16
651.96	37916.68
652.10	37502.40
652.25	37565.60
652.39	37713.05
652.54	37680.28
652.68	37890.93
652.83	37809.01
652.97	37572.62
653.12	37488.36
653.26	37249.63
653.41	37563.26
653.55	37434.53
653.70	37242.60
653.84	37654.54
653.99	37504.74
654.13	37312.82
654.27	37645.18
654.42	37324.52
654.56	37139.62
654.71	37787.95
654.85	37464.96
655.00	37109.19
655.14	36870.46
655.29	36856.42
655.43	36905.57
655.57	36650.45
655.72	36966.42
655.86	36737.05
656.01	37081.11
656.15	36744.07
656.30	36582.57
656.44	36746.41
656.58	36891.52
656.73	36765.14
656.87	36825.99
657.01	36500.65
657.16	36282.98
657.30	36570.87
657.45	36371.92
657.59	36620.02
657.73	36460.87
657.88	36652.79
658.02	36114.47
658.16	36264.26
658.31	36900.89
658.45	36697.26
658.60	36222.13
658.74	36704.28
658.88	36872.80
659.03	36460.87
659.17	35915.52
659.31	36100.42
659.46	36027.87
659.60	36224.47
659.74	36261.92
659.89	35730.62
660.03	35838.28
660.17	35887.43
660.32	36002.12
660.46	36112.13
660.60	35983.40
660.74	36313.41
660.89	35950.63
661.03	35667.42
661.17	35812.54
661.32	35241.45
661.46	35395.92
661.60	35206.34
661.74	35644.02
661.89	34895.05
662.03	35735.30
662.17	35178.25
662.31	35182.93
662.46	35833.60
662.60	35346.77
662.74	35042.50
662.88	35206.34
663.03	34918.45
663.17	35461.46
663.31	34885.68
663.45	35288.26
663.60	34679.72
663.74	34967.60
663.88	34775.68
664.02	34682.06
664.17	35208.68
664.31	34576.73
664.45	34675.04
664.59	34637.59
664.73	34642.27
664.88	34333.32
665.02	34190.55
665.16	34485.45
665.30	34370.77
665.44	34003.30
665.59	34054.79
665.73	34007.98
665.87	34239.70
666.01	34099.26
666.15	34073.52
666.29	33834.78
666.44	34756.96
666.58	34197.57
666.72	33970.54
666.86	33703.71
667.00	33926.07
667.14	33528.17
667.28	33603.07
667.43	33284.76
667.57	33909.68
667.71	33376.04
667.85	33369.02
667.99	33530.51
668.13	33230.93
668.27	33324.55
668.41	33436.89
668.56	33165.39
668.70	33043.68
668.84	33141.99
668.98	32912.61
669.12	33184.12
669.26	33305.82
669.40	32797.93
669.54	33029.64
669.68	32788.56
669.82	32369.61
669.96	32533.45
670.10	32011.51
670.25	32594.30
670.39	32870.48
670.53	32765.16
670.67	32350.88
670.81	32343.86
670.95	32524.08
671.09	32367.27
671.23	32301.73
671.37	32343.86
671.51	32065.34
671.65	32320.46
671.79	32041.93
671.93	31976.40
672.07	32327.48
672.21	32311.10
672.35	31686.17
672.49	31316.37
672.63	32004.49
672.77	31772.77
672.91	31791.50
673.05	31679.15
673.19	31271.90
673.33	31108.06
673.47	31454.46
673.61	31351.48
673.75	31152.53
673.89	31035.50
674.03	30941.88
674.17	30513.56
674.31	30775.70
674.45	30586.12
674.59	30834.22
674.73	31161.89
674.87	30775.70
675.01	30497.18
675.15	30740.60
675.29	30586.12
675.43	30096.95
675.56	30375.47
675.70	29989.28
675.84	30321.64
675.98	29200.52
676.12	30024.39
676.26	29867.58
676.40	29591.39
676.54	29659.27
676.68	29680.33
676.82	29235.63
676.96	29443.94
677.10	29275.42
677.23	29252.02
677.37	29146.69
677.51	29043.71
677.65	28957.11
677.79	28657.52
677.93	29090.52
678.07	28819.02
678.21	28449.21
678.34	28507.72
678.48	28568.58
678.62	28336.87
678.76	28020.89
678.90	27786.84
679.04	28512.41
679.18	28311.12
679.31	28140.26
679.45	27709.60
679.59	27950.68
679.73	27592.58
679.87	27646.41
680.00	27821.95
680.14	27262.56
680.28	27725.99
680.42	27482.57
680.56	27222.77
680.70	27112.77
680.83	27040.21
680.97	26981.70
681.11	26845.94
681.25	26560.40
681.39	26902.12
681.52	26733.60
681.66	26719.56
681.80	26544.02
681.94	26164.85
682.07	26426.99
682.21	26363.79
682.35	26314.64
682.49	26155.49
682.62	26096.97
682.76	25841.85
682.90	25607.80
683.04	25689.72
683.17	25921.43
683.31	25741.21
683.45	25656.95
683.59	25694.40
683.72	25287.15
683.86	25046.07
684.00	24922.02
684.13	25172.46
684.27	25263.74
684.41	25149.06
684.55	24697.33
684.68	24842.45
684.82	24706.70
684.96	24858.83
685.09	24395.40
685.23	24119.22
685.37	24278.38
685.50	24130.92
685.64	24261.99
685.78	24088.79
685.91	24086.45
686.05	23880.49
686.19	23510.68
686.32	23793.89
686.46	23562.17
686.60	23398.34
686.73	23227.48
686.87	23506.00
687.01	23370.25
687.14	23594.94
687.28	22820.22
687.42	23204.07
687.55	22827.24
687.69	23094.07
687.82	23035.55
687.96	22759.37
688.10	22656.39
688.23	22506.59
688.37	22412.97
688.50	22284.24
688.64	22368.50
688.78	21984.65
688.91	22125.08
689.05	22403.61
689.18	21839.54
689.32	21427.60
689.46	21530.59
689.59	22031.46
689.73	21956.57
689.86	21879.33
690.00	21858.26
690.13	21638.25
690.27	21530.59
690.41	21097.59
690.54	21003.97
690.68	20924.39
690.81	20798.00
690.95	20783.96
691.08	20669.27
691.22	20863.54
691.35	20849.49
691.49	21064.82
691.62	20769.91
691.76	20659.91
691.89	20334.57
692.03	20292.44
692.16	20020.94
692.30	20128.61
692.43	20336.91
692.57	20058.39
692.70	19674.54
692.84	20037.33
692.97	19950.73
693.11	19967.11
693.24	19637.09
693.38	19536.45
693.51	19339.85
693.65	19524.75
693.78	19484.96
693.92	19147.92
694.05	19545.81
694.19	19332.82
694.32	18806.20
694.45	19073.03
694.59	18764.07
694.72	18796.84
694.86	18803.86
694.99	18487.89
695.13	18326.39
695.26	18368.52
695.39	18078.30
695.53	18242.14
695.66	17970.63
695.80	18375.55
695.93	18200.01
696.07	17855.95
696.20	18008.08
696.33	17877.01
696.47	17811.48
696.60	18099.36
696.73	17556.36
696.87	17624.23
697.00	17607.85
697.14	17790.41
697.27	17226.34
697.40	17837.22
697.54	17401.88
697.67	17294.22
697.80	17228.68
697.94	17319.96
698.07	16943.14
698.21	17132.72
698.34	17139.74
698.47	16952.50
698.61	16332.26
698.74	16519.50
698.87	16713.77
699.01	16339.28
699.14	16091.18
699.27	16243.32
699.40	16201.19
699.54	16025.65
699.67	15838.41
699.80	16215.23
699.94	16145.02
700.07	16058.42
700.20	15648.82
700.34	15796.28
700.47	15503.71
700.60	15948.41
700.73	15932.03
700.87	15316.47
701.00	15243.91
701.13	15452.22
701.26	15321.15
701.40	15323.49
701.53	15119.86
701.66	15143.27
701.79	14958.36
701.93	14963.04
702.06	14618.99
702.19	14609.62
702.32	14860.06
702.46	14630.69
702.59	14569.83
702.72	14604.94
702.85	14714.95
702.99	14644.73
703.12	14743.03
703.25	14546.43
703.38	14420.04
703.51	14342.80
703.65	14141.52
703.78	13764.69
703.91	13956.61
704.04	13958.96
704.17	14057.26
704.31	13542.34
704.44	13610.22
704.57	13736.60
704.70	13441.70
704.83	13547.02
704.96	13661.71
705.10	13507.23
705.23	13645.32
>>>>>End Processed Spectral Data<<<<<
