SpectraSuite Data File
++++++++++++++++++++++++++++++++++++
Date: Fri Oct 25 11:33:47 EDT 2013
User: price-jones
Dark Spectrum Present: No
Reference Spectrum Present: No
Number of Sampled Component Spectra: 1
Spectrometers: USB2+H05261
Integration Time (usec): 100000 (USB2+H05261)
Spectra Averaged: 1 (USB2+H05261)
Boxcar Smoothing: 0 (USB2+H05261)
Correct for Electrical Dark: No (USB2+H05261)
Strobe/Lamp Enabled: No (USB2+H05261)
Correct for Detector Non-linearity: No (USB2+H05261)
Correct for Stray Light: No (USB2+H05261)
Number of Pixels in Processed Spectrum: 2048
>>>>>Begin Processed Spectral Data<<<<<
365.73	269.16
365.92	269.16
366.12	269.16
366.32	259.80
366.52	222.35
366.72	231.71
366.91	191.92
367.11	173.20
367.31	173.20
367.51	187.24
367.70	238.73
367.90	220.01
368.10	159.16
368.30	257.46
368.49	184.90
368.69	170.86
368.89	175.54
369.09	205.97
369.28	215.33
369.48	175.54
369.68	273.84
369.87	196.60
370.07	271.50
370.27	238.73
370.47	301.93
370.66	531.30
370.86	503.22
371.06	493.85
371.25	503.22
371.45	442.36
371.65	594.50
371.84	601.52
372.04	601.52
372.24	653.01
372.44	622.58
372.63	554.71
372.83	580.45
373.03	606.20
373.22	514.92
373.42	580.45
373.62	641.31
373.81	723.23
374.01	617.90
374.21	664.71
374.40	582.79
374.60	683.44
374.79	631.94
374.99	657.69
375.19	653.01
375.38	702.16
375.58	617.90
375.78	638.97
375.97	603.86
376.17	662.37
376.37	688.12
376.56	585.13
376.76	688.12
376.95	620.24
377.15	704.50
377.35	655.35
377.54	685.78
377.74	732.59
377.93	650.67
378.13	676.41
378.33	758.33
378.52	709.18
378.72	746.63
378.91	767.70
379.11	765.36
379.31	779.40
379.50	657.69
379.70	807.48
379.89	786.42
380.09	692.80
380.28	767.70
380.48	791.10
380.68	720.88
380.87	699.82
381.07	795.78
381.26	828.55
381.46	802.80
381.65	774.72
381.85	695.14
382.04	744.29
382.24	746.63
382.43	802.80
382.63	751.31
382.83	737.27
383.02	767.70
383.22	837.91
383.41	798.12
383.61	847.27
383.80	847.27
384.00	812.17
384.19	842.59
384.39	791.10
384.58	772.38
384.78	833.23
384.97	875.36
385.17	873.02
385.36	866.00
385.56	823.87
385.75	765.36
385.95	816.85
386.14	828.55
386.34	828.55
386.53	854.30
386.72	887.06
386.92	947.92
387.11	894.08
387.31	854.30
387.50	833.23
387.70	905.79
387.89	990.05
388.09	875.36
388.28	912.81
388.48	917.49
388.67	919.83
388.86	875.36
389.06	891.74
389.25	964.30
389.45	1001.75
389.64	938.55
389.84	945.58
390.03	954.94
390.22	917.49
390.42	964.30
390.61	985.37
390.81	903.45
391.00	990.05
391.19	1027.50
391.39	1004.09
391.58	1020.47
391.78	987.71
391.97	1046.22
392.16	978.34
392.36	1039.20
392.55	1116.44
392.75	1020.47
392.94	1048.56
393.13	1078.99
393.33	1081.33
393.52	1015.79
393.71	1149.20
393.91	1123.46
394.10	1109.41
394.29	1039.20
394.49	1102.39
394.68	1142.18
394.88	1078.99
395.07	1149.20
395.26	1083.67
395.46	1057.92
395.65	1179.63
395.84	1132.82
396.04	1263.89
396.23	1139.84
396.42	1191.33
396.62	1277.93
396.81	1153.88
397.00	1149.20
397.19	1254.53
397.39	1247.51
397.58	1275.59
397.77	1231.12
397.97	1317.72
398.16	1289.64
398.35	1343.47
398.55	1273.25
398.74	1306.02
398.93	1317.72
399.12	1254.53
399.32	1369.21
399.51	1364.53
399.70	1336.45
399.90	1322.40
400.09	1406.66
400.28	1378.58
400.47	1420.71
400.67	1425.39
400.86	1392.62
401.05	1399.64
401.24	1507.30
401.44	1448.79
401.63	1451.13
401.82	1423.05
402.01	1469.86
402.21	1446.45
402.40	1439.43
402.59	1486.24
402.78	1439.43
402.97	1612.63
403.17	1591.56
403.36	1521.35
403.55	1502.62
403.74	1614.97
403.93	1614.97
404.13	1619.65
404.32	1680.50
404.51	1631.35
404.70	1577.52
404.89	1600.93
405.09	1675.82
405.28	1710.93
405.47	1689.87
405.66	1736.68
405.85	1717.95
406.05	1746.04
406.24	1732.00
406.43	1739.02
406.62	1813.92
406.81	1837.32
407.00	1713.27
407.20	1764.76
407.39	1832.64
407.58	1785.83
407.77	1837.32
407.96	1881.79
408.15	1916.90
408.34	1863.07
408.54	1935.62
408.73	1954.35
408.92	1907.54
409.11	1928.60
409.30	1949.67
409.49	2040.95
409.68	2026.90
409.87	2064.35
410.07	2026.90
410.26	2059.67
410.45	2118.18
410.64	2064.35
410.83	2141.59
411.02	2078.40
411.21	2256.28
411.40	2090.10
411.59	2235.21
411.78	2127.55
411.98	2150.95
412.17	2256.28
412.36	2305.43
412.55	2326.49
412.74	2385.01
412.93	2396.71
413.12	2326.49
413.31	2427.14
413.50	2436.50
413.69	2413.09
413.88	2495.01
414.07	2471.61
414.26	2443.52
414.45	2483.31
414.64	2576.93
414.83	2480.97
415.02	2541.82
415.22	2654.17
415.41	2850.77
415.60	2715.02
415.79	2637.78
415.98	2794.60
416.17	2733.75
416.36	2703.32
416.55	2787.58
416.74	2775.88
416.93	2834.39
417.12	2834.39
417.31	2860.13
417.50	2843.75
417.69	3119.93
417.88	2897.58
418.07	2935.03
418.26	2871.84
418.45	3035.67
418.64	3117.59
418.83	3183.13
419.02	3049.72
419.21	3047.38
419.39	3105.89
419.58	3152.70
419.77	3045.04
419.96	3112.91
420.15	3136.32
420.34	3215.90
420.53	3148.02
420.72	3124.62
420.91	3251.00
421.10	3293.13
421.29	3234.62
421.48	3141.00
421.67	3276.75
421.86	3262.71
422.05	3321.22
422.24	3295.47
422.43	3368.03
422.61	3353.99
422.80	3389.10
422.99	3482.72
423.18	3386.76
423.37	3421.86
423.56	3351.65
423.75	3382.07
423.94	3414.84
424.13	3255.69
424.32	3407.82
424.50	3478.04
424.69	3494.42
424.88	3606.77
425.07	3428.88
425.26	3297.81
425.45	3417.18
425.64	3339.94
425.83	3342.28
426.01	3426.54
426.20	3496.76
426.39	3478.04
426.58	3463.99
426.77	3438.25
426.96	3620.81
427.15	3496.76
427.33	3517.83
427.52	3550.59
427.71	3599.74
427.90	3754.22
428.09	3552.93
428.28	3721.45
428.46	3644.21
428.65	3754.22
428.84	3857.20
429.03	3775.28
429.22	3569.32
429.40	3742.52
429.59	3641.87
429.78	3761.24
429.97	3548.25
430.16	3852.52
430.34	3882.95
430.53	3824.44
430.72	3826.78
430.91	3864.22
431.10	3880.61
431.28	3964.87
431.47	4070.19
431.66	4023.38
431.85	3847.84
432.03	4201.26
432.22	4058.49
432.41	4056.15
432.60	4177.86
432.79	4067.85
432.97	4236.37
433.16	4161.47
433.35	3896.99
433.54	4175.52
433.72	4201.26
433.91	4255.09
434.10	4304.25
434.28	4222.33
434.47	4168.49
434.66	4297.22
434.85	4280.84
435.03	4409.57
435.22	4271.48
435.41	4430.63
435.59	4432.97
435.78	4468.08
435.97	4337.01
436.16	4388.50
436.34	4521.92
436.53	4351.06
436.72	4482.13
436.90	4423.61
437.09	4557.02
437.28	4470.42
437.46	4498.51
437.65	4402.55
437.84	4526.60
438.02	4650.64
438.21	4697.46
438.40	4503.19
438.58	4823.84
438.77	4898.74
438.96	4760.65
439.14	4840.23
439.33	4957.25
439.52	4908.10
439.70	4985.34
439.89	5114.07
440.08	5139.82
440.26	5060.24
440.45	4912.78
440.63	5020.45
440.82	5205.35
441.01	5060.24
441.19	5181.95
441.38	5383.23
441.57	5289.61
441.75	5207.69
441.94	5266.21
442.12	5181.95
442.31	5320.04
442.50	5586.86
442.68	5441.75
442.87	5284.93
443.05	5521.32
443.24	5481.53
443.43	5488.56
443.61	5624.31
443.80	5575.16
443.98	5626.65
444.17	5437.06
444.35	5657.07
444.54	5668.78
444.73	5600.90
444.91	5617.29
445.10	5717.93
445.28	5607.92
445.47	5577.50
445.65	5626.65
445.84	5689.84
446.02	5877.09
446.21	5685.16
446.39	5771.76
446.58	5867.72
446.77	5811.55
446.95	5593.88
447.14	5680.48
447.32	5837.30
447.51	5867.72
447.69	5757.72
447.88	5795.17
448.06	5790.49
448.25	5788.14
448.43	5837.30
448.62	5743.67
448.80	5994.11
448.99	5937.94
449.17	5886.45
449.36	5727.29
449.54	5813.89
449.73	6024.54
449.91	6127.52
450.10	6047.94
450.28	6031.56
450.46	6073.69
450.65	5966.03
450.83	6183.70
451.02	6164.97
451.20	6298.38
451.39	6239.87
451.57	6317.11
451.76	6265.61
451.94	6118.16
452.13	6289.02
452.31	6319.45
452.49	6209.44
452.68	6389.66
452.86	6239.87
453.05	6392.00
453.23	6541.80
453.42	6403.71
453.60	6321.79
453.78	6562.86
453.97	6347.53
454.15	6349.87
454.34	6359.24
454.52	6562.86
454.70	6764.15
454.89	6485.62
455.07	6743.08
455.26	6682.23
455.44	6771.17
455.62	6705.63
455.81	6658.82
455.99	6757.13
456.17	6773.51
456.36	6899.90
456.54	6820.32
456.73	7012.24
456.91	7045.01
457.09	6953.73
457.28	7227.57
457.46	7185.44
457.64	7133.95
457.83	6995.86
458.01	7047.35
458.19	7176.08
458.38	7080.12
458.56	7424.18
458.74	7311.83
458.93	7185.44
459.11	7250.98
459.29	7211.19
459.48	7349.28
459.66	7293.11
459.84	7372.69
460.03	7449.93
460.21	7339.92
460.39	7417.16
460.57	7470.99
460.76	7274.38
460.94	7384.39
461.12	7548.23
461.31	7405.46
461.49	7583.34
461.67	7571.63
461.85	7737.81
462.04	7714.41
462.22	8081.87
462.40	7822.07
462.59	7838.45
462.77	7733.13
462.95	7946.12
463.13	7880.58
463.32	7695.68
463.50	7927.39
463.68	7943.78
463.86	7953.14
464.05	7903.99
464.23	7836.11
464.41	8030.38
464.59	7882.92
464.78	8128.68
464.96	8098.25
465.14	8025.70
465.32	8009.31
465.50	7932.08
465.69	8241.03
465.87	7997.61
466.05	8245.71
466.23	8161.45
466.41	8077.19
466.60	8425.93
466.78	8175.49
466.96	8138.04
467.14	7992.93
467.32	8252.73
467.51	8353.37
467.69	8196.56
467.87	8461.04
468.05	8655.30
468.23	8252.73
468.41	8456.36
468.60	8479.76
468.78	8758.28
468.96	8496.14
469.14	8549.98
469.32	8566.36
469.50	8444.65
469.69	8638.92
469.87	8681.05
470.05	8861.27
470.23	8826.16
470.41	8812.12
470.59	8868.29
470.77	8800.41
470.95	8753.60
471.14	8990.00
471.32	8648.28
471.50	9088.30
471.68	9001.70
471.86	9142.13
472.04	9217.03
472.22	9170.22
472.40	9135.11
472.58	9121.07
472.77	9170.22
472.95	9640.67
473.13	9666.41
473.31	9296.61
473.49	9352.78
473.67	9446.40
473.85	9437.04
474.03	9572.79
474.21	9755.35
474.39	9858.34
474.57	9607.90
474.75	9776.42
474.93	10047.92
475.12	9956.64
475.30	10139.20
475.48	9881.74
475.66	9947.28
475.84	10005.79
476.02	10038.56
476.20	10267.93
476.38	10363.89
476.56	10530.07
476.74	10457.51
476.92	10607.31
477.10	10604.97
477.28	10651.78
477.46	10752.42
477.64	10726.68
477.82	10817.96
478.00	11236.91
478.18	11236.91
478.36	11297.77
478.54	11199.46
478.72	11178.40
478.90	11639.48
479.08	11639.48
479.26	11620.76
479.44	11669.91
479.62	11714.38
479.80	11946.09
479.98	11990.56
480.16	12339.30
480.34	11894.60
480.52	12184.83
480.70	12498.46
480.88	12250.36
481.06	12477.40
481.24	12381.43
481.41	12734.85
481.59	12821.45
481.77	12697.41
481.95	12856.56
482.13	13259.13
482.31	12882.31
482.49	13359.78
482.67	13319.99
482.85	13434.68
483.03	13448.72
483.21	13818.52
483.39	13825.54
483.57	13884.06
483.74	13762.35
483.92	13951.93
484.10	13919.17
484.28	14270.25
484.46	14471.53
484.64	14696.22
484.82	14588.56
485.00	14518.34
485.18	14871.76
485.35	15199.44
485.53	15070.71
485.71	14984.11
485.89	15159.65
486.07	15576.27
486.25	15480.30
486.43	15597.33
486.61	15623.08
486.78	15927.35
486.96	15910.96
487.14	16109.91
487.32	16416.52
487.50	16346.30
487.68	16512.48
487.85	16779.30
488.03	16718.45
488.21	17135.06
488.39	16901.01
488.57	17338.69
488.75	17415.93
488.92	17432.31
489.10	17729.56
489.28	17664.02
489.46	18019.78
489.64	17649.98
489.81	18260.86
489.99	18258.52
490.17	18176.60
490.35	18436.40
490.53	18841.31
490.70	18490.23
490.88	18869.40
491.06	19082.39
491.24	18848.33
491.41	18731.31
491.59	19239.20
491.77	19248.57
491.95	19218.14
492.13	19609.01
492.30	19847.74
492.48	19920.30
492.66	19917.96
492.84	19985.83
493.01	20016.26
493.19	19988.18
493.37	20266.70
493.54	20472.67
493.72	20442.24
493.90	20847.15
494.08	20854.17
494.25	20807.36
494.43	20802.68
494.61	21235.68
494.79	21394.84
494.96	21228.66
495.14	21221.64
495.32	21621.87
495.49	21699.11
495.67	21802.09
495.85	22265.52
496.02	22307.65
496.20	22160.19
496.38	22387.22
496.55	22199.98
496.73	22682.13
496.91	22944.27
497.09	22719.58
497.26	22752.35
497.44	23157.26
497.62	22955.97
497.79	23194.71
497.97	23126.83
498.14	23229.82
498.32	24067.73
498.50	23730.69
498.67	24102.84
498.85	23707.29
499.03	24020.92
499.20	24170.71
499.38	24276.04
499.56	24142.63
499.73	24308.80
499.91	24608.39
500.08	24823.72
500.26	24465.62
500.44	24758.19
500.61	24587.33
500.79	24704.35
500.97	25001.60
501.14	25177.14
501.32	25202.89
501.49	25102.25
501.67	25476.73
501.84	25633.55
502.02	25294.17
502.20	25472.05
502.37	25769.30
502.55	25443.96
502.72	25682.70
502.90	25902.71
503.07	26036.12
503.25	26284.22
503.43	25888.67
503.60	26345.07
503.78	26443.37
503.95	26389.54
504.13	26565.08
504.30	26609.55
504.48	26768.71
504.65	27161.92
504.83	27204.05
505.01	27302.35
505.18	27068.30
505.36	27150.21
505.53	27534.06
505.71	27426.40
505.88	27267.24
506.06	27040.21
506.23	27758.75
506.41	27524.70
506.58	27817.27
506.76	27894.50
506.93	28339.21
507.11	28072.39
507.28	28151.96
507.46	28219.84
507.63	28400.06
507.81	29127.97
507.98	28622.41
508.16	28463.25
508.33	28369.63
508.50	28854.12
508.68	28811.99
508.85	28837.74
509.03	28744.12
509.20	29111.58
509.38	29289.46
509.55	29312.87
509.73	29560.97
509.90	29022.64
510.08	29268.40
510.25	29242.65
510.42	29535.22
510.60	29860.55
510.77	29769.27
510.95	30031.41
511.12	29893.32
511.30	30225.68
511.47	30506.54
511.64	30082.91
511.82	30113.33
511.99	30354.41
512.17	30366.11
512.34	30583.78
512.51	30480.80
512.69	30485.48
512.86	30670.38
513.04	31035.50
513.21	30834.22
513.38	31042.53
513.56	31094.02
513.73	31084.65
513.90	30995.71
514.08	30827.20
514.25	31346.79
514.43	31615.96
514.60	31812.56
514.77	31885.12
514.95	31749.37
515.12	31599.57
515.29	31847.67
515.47	32039.59
515.64	32034.91
515.81	31934.27
515.99	31964.70
516.16	32587.28
516.33	32428.12
516.51	32446.85
516.68	32411.74
516.85	32240.88
517.03	32425.78
517.20	32933.68
517.37	32716.01
517.54	32638.77
517.72	32708.99
517.89	33039.00
518.06	32755.80
518.24	33134.96
518.41	32851.76
518.58	33249.65
518.75	33020.28
518.93	33369.02
519.10	33343.27
519.27	33469.66
519.45	33516.47
519.62	34356.72
519.79	33802.02
519.96	33759.89
520.14	33338.59
520.31	33610.09
520.48	33738.82
520.65	34403.53
520.83	34607.16
521.00	34742.91
521.17	34398.85
521.34	34384.81
521.52	34103.95
521.69	34422.26
521.86	34639.93
522.03	35157.19
522.20	34969.94
522.38	35433.37
522.55	35283.58
522.72	34878.66
522.89	35061.22
523.07	35531.67
523.24	35201.66
523.41	35269.53
523.58	35061.22
523.75	35456.78
523.92	35594.87
524.10	35601.89
524.27	35412.31
524.44	35545.72
524.61	35871.05
524.78	35917.86
524.96	36205.75
525.13	36306.39
525.30	35988.08
525.47	36484.27
525.64	36058.29
525.81	36381.29
525.98	36493.63
526.16	36332.14
526.33	36215.11
526.50	36397.67
526.67	36287.67
526.84	36704.28
527.01	36524.06
527.18	36594.28
527.36	36765.14
527.53	36926.63
527.70	37244.94
527.87	37298.78
528.04	37298.78
528.21	37008.55
528.38	36849.39
528.55	37186.43
528.72	37305.80
528.89	37226.22
529.07	37263.67
529.24	37167.71
529.41	37752.84
529.58	37401.76
529.75	37352.61
529.92	37418.14
530.09	37827.74
530.26	37626.45
530.43	38007.96
530.60	37301.12
530.77	37539.85
530.94	38366.06
531.11	37902.64
531.28	37727.10
531.46	38115.62
531.63	37942.42
531.80	38298.19
531.97	38333.29
532.14	38258.40
532.31	38361.38
532.48	38993.32
532.65	38937.15
532.82	38597.77
532.99	38588.41
533.16	38408.19
533.33	38981.62
533.50	38789.70
533.67	39005.03
533.84	38370.74
534.01	38953.54
534.18	38766.29
534.35	39328.02
534.52	38967.58
534.69	39491.86
534.86	39454.41
535.03	38976.94
535.20	39311.64
535.37	39168.87
535.54	39189.93
535.71	39435.69
535.88	39484.84
536.05	39309.30
536.22	39407.60
536.38	39508.24
536.55	39765.70
536.72	39611.23
536.89	39842.94
537.06	39791.45
537.23	40053.59
537.40	39688.46
537.57	39931.88
537.74	39196.95
537.91	40264.24
538.08	40123.80
538.25	39985.71
538.42	40142.53
538.59	40554.46
538.75	40062.95
538.92	40336.79
539.09	40886.82
539.26	40203.38
539.43	40570.85
539.60	40851.71
539.77	40495.95
539.94	40804.90
540.11	40634.04
540.28	40446.80
540.44	40795.54
540.61	41167.68
540.78	40868.09
540.95	40877.46
541.12	40767.45
541.29	40786.18
541.46	41085.76
541.62	40935.97
541.79	41764.52
541.96	40739.36
542.13	41090.44
542.30	41308.11
542.47	41415.78
542.63	41188.75
542.80	41563.23
542.97	41425.14
543.14	42113.26
543.31	41771.54
543.48	41486.00
543.64	42440.93
543.81	41862.82
543.98	41855.80
544.15	41724.73
544.32	42417.53
544.48	42602.43
544.65	42403.49
544.82	42096.88
544.99	42178.79
545.16	42080.49
545.32	42600.09
545.49	42770.95
545.66	42806.06
545.83	42499.45
546.00	42796.70
546.16	42705.41
546.33	42581.37
546.50	42717.12
546.67	42614.13
546.83	42129.64
547.00	42986.28
547.17	42717.12
547.34	42700.73
547.50	43166.50
547.67	43290.55
547.84	43091.60
548.00	43007.34
548.17	43421.62
548.34	43407.58
548.51	43203.95
548.67	43344.38
548.84	43739.93
549.01	43082.24
549.18	43306.93
549.34	43370.13
549.51	43927.17
549.68	43405.23
549.84	43665.03
550.01	43669.72
550.18	43145.44
550.34	43672.06
550.51	43908.45
550.68	43931.86
550.84	43559.71
551.01	43936.54
551.18	43594.82
551.34	43580.78
551.51	43735.25
551.68	43803.13
551.84	44053.56
552.01	43620.56
552.18	43983.35
552.34	43793.76
552.51	43966.96
552.68	43824.19
552.84	43739.93
553.01	44732.32
553.18	44140.16
553.34	44196.34
553.51	43856.96
553.67	44165.91
553.84	44467.84
554.01	44802.53
554.17	44357.83
554.34	44484.22
554.51	44158.89
554.67	44865.73
554.84	44797.85
555.00	45013.18
555.17	44449.11
555.33	44994.46
555.50	44444.43
555.67	44872.75
555.83	44729.98
556.00	44612.95
556.16	45291.71
556.33	45160.64
556.50	44711.25
556.66	44659.76
556.83	44774.45
556.99	45249.58
557.16	45013.18
557.32	45282.34
557.49	45186.38
557.65	45104.46
557.82	44765.09
557.98	45303.41
558.15	45120.85
558.32	45380.65
558.48	45017.86
558.65	44957.01
558.81	45207.45
558.98	45160.64
559.14	45195.74
559.31	45043.61
559.47	45242.56
559.64	45666.19
559.80	45652.15
559.97	45478.95
560.13	45170.00
560.30	45027.23
560.46	45523.42
560.63	45298.73
560.79	45420.44
560.96	45769.18
561.12	45696.62
561.29	45322.13
561.45	45666.19
561.61	45689.60
561.78	45691.94
561.94	45380.65
562.11	45797.26
562.27	46174.09
562.44	45373.63
562.60	45853.44
562.77	46087.49
562.93	45549.17
563.10	45865.14
563.26	45787.90
563.42	46033.66
563.59	46007.91
563.75	45790.24
563.92	46181.11
564.08	46351.97
564.24	45862.80
564.41	45748.11
564.57	46281.75
564.74	46143.66
564.90	46206.86
565.07	45663.85
565.23	45823.01
565.39	46021.95
565.56	46260.69
565.72	46082.81
565.88	46094.51
566.05	46609.43
566.21	46387.08
566.38	46176.43
566.54	46347.29
566.70	46483.04
566.87	46291.12
567.03	46122.60
567.19	46241.96
567.36	46328.56
567.52	46176.43
567.68	46742.84
567.85	46082.81
568.01	46930.08
568.17	46160.05
568.34	46078.13
568.50	46358.99
568.66	46328.56
568.83	46288.77
568.99	46483.04
569.15	46506.44
569.32	46749.86
569.48	46277.07
569.64	46700.71
569.81	46803.69
569.97	46852.84
570.13	46630.49
570.30	46504.10
570.46	46469.00
570.62	46766.24
570.78	46960.51
570.95	46642.20
571.11	46646.88
571.27	46686.67
571.43	46567.30
571.60	46974.55
571.76	46831.78
571.92	46735.82
572.09	46646.88
572.25	46522.83
572.41	46539.21
572.57	46522.83
572.74	47093.92
572.90	46588.36
573.06	46658.58
573.22	46681.98
573.38	46859.87
573.55	46925.40
573.71	46906.68
573.87	47363.08
574.03	47002.64
574.20	47346.70
574.36	46845.82
574.52	46862.21
574.68	46801.35
574.84	47173.50
575.01	47168.82
575.17	47445.00
575.33	46770.93
575.49	46614.11
575.65	47098.60
575.82	47339.68
575.98	46719.43
576.14	47318.61
576.30	47210.95
576.46	47461.38
576.62	47201.58
576.79	47089.24
576.95	46181.11
577.11	46850.50
577.27	46988.60
577.43	46997.96
577.59	46974.55
577.75	46689.01
577.92	46948.81
578.08	46766.24
578.24	47253.08
578.40	47288.18
578.56	47084.56
578.72	46806.03
578.88	47299.89
579.04	47292.86
579.21	47255.42
579.37	47360.74
579.53	47414.57
579.69	47072.85
579.85	46897.31
580.01	47482.45
580.17	47012.00
580.33	47419.25
580.49	47267.12
580.65	47508.19
580.82	47222.65
580.98	46946.47
581.14	46902.00
581.30	47550.32
581.46	47154.77
581.62	47260.10
581.78	47091.58
581.94	47543.30
582.10	47437.98
582.26	47538.62
582.42	47175.84
582.58	47468.40
582.74	47592.45
582.90	47131.37
583.06	47482.45
583.22	47344.36
583.38	47334.99
583.54	47309.25
583.70	47760.97
583.86	47646.29
584.02	47187.54
584.18	47285.84
584.34	47339.68
584.50	47253.08
584.66	47760.97
584.82	47578.41
584.98	47775.02
585.14	47737.57
585.30	47222.65
585.46	47267.12
585.62	47131.37
585.78	47489.47
585.94	46937.10
586.10	47590.11
586.26	47070.51
586.42	47234.35
586.58	47222.65
586.74	47398.19
586.90	47288.18
587.06	47449.68
587.22	47360.74
587.38	47089.24
587.54	47414.57
587.70	47672.03
587.86	47531.60
588.02	47325.63
588.18	47543.30
588.34	47449.68
588.49	47964.60
588.65	47274.14
588.81	47302.23
588.97	47379.46
589.13	47454.36
589.29	47517.56
589.45	47742.25
589.61	47435.64
589.77	47875.66
589.93	48100.35
590.08	47749.27
590.24	47927.15
590.40	48046.52
590.56	48016.09
590.72	47980.98
590.88	47320.95
591.04	47477.77
591.20	48226.74
591.35	48193.97
591.51	48596.54
591.67	48240.78
591.83	48158.86
591.99	47892.04
592.15	47681.39
592.31	47833.53
592.46	47721.18
592.62	47845.23
592.78	48383.55
592.94	48154.18
593.10	47969.28
593.26	47983.32
593.41	48519.31
593.57	47969.28
593.73	48128.44
593.89	48135.46
594.05	48184.61
594.20	47728.20
594.36	48231.42
594.52	48296.95
594.68	48037.16
594.84	47861.61
594.99	48442.07
595.15	48320.36
595.31	48032.47
595.47	47901.40
595.62	48219.72
595.78	48011.41
595.94	48233.76
596.10	47980.98
596.25	48121.41
596.41	48449.09
596.57	47924.81
596.73	48292.27
596.88	48421.00
597.04	48315.68
597.20	48299.30
597.36	47901.40
597.51	48519.31
597.67	47681.39
597.83	48238.44
597.99	48533.35
598.14	47805.44
598.30	48285.25
598.46	47936.51
598.61	48856.34
598.77	48559.09
598.93	48165.88
599.09	48130.78
599.24	48690.16
599.40	48308.66
599.56	48601.22
599.71	48509.94
599.87	48659.74
600.03	48589.52
600.18	48451.43
600.34	48233.76
600.50	48381.21
600.65	48444.41
600.81	48533.35
600.97	48399.94
601.12	48619.95
601.28	48563.78
601.44	48156.52
601.59	48327.38
601.75	48222.06
601.91	48327.38
602.06	48226.74
602.22	48334.40
602.37	48212.70
602.53	47980.98
602.69	48470.15
602.84	47854.59
603.00	47952.90
603.16	48320.36
603.31	47999.71
603.47	48430.36
603.62	48942.94
603.78	48439.73
603.94	48360.15
604.09	48292.27
604.25	47920.13
604.40	48147.16
604.56	48329.72
604.71	48296.95
604.87	48512.28
605.03	48238.44
605.18	47903.74
605.34	48123.75
605.49	47861.61
605.65	48037.16
605.80	48236.10
605.96	47941.19
606.12	48261.85
606.27	47971.62
606.43	48423.34
606.58	48392.92
606.74	48229.08
606.89	48083.97
607.05	48495.90
607.20	48254.82
607.36	47927.15
607.51	48467.81
607.67	47868.64
607.82	47945.87
607.98	48350.79
608.13	47826.51
608.29	48261.85
608.44	48079.28
608.60	47828.85
608.75	47936.51
608.91	47842.89
609.06	47709.48
609.22	48090.99
609.37	47952.90
609.53	48289.93
609.68	48303.98
609.84	47749.27
609.99	47903.74
610.15	47934.17
610.30	48116.73
610.46	47632.24
610.61	48062.90
610.76	47763.31
610.92	47980.98
611.07	47772.67
611.23	47639.26
611.38	47618.20
611.54	47901.40
611.69	47952.90
611.84	47885.02
612.00	47756.29
612.15	47611.18
612.31	48175.25
612.46	47283.50
612.62	47327.97
612.77	47758.63
612.92	48006.73
613.08	47772.67
613.23	47906.08
613.39	47653.31
613.54	47524.58
613.69	47463.72
613.85	47349.04
614.00	47365.42
614.15	47810.12
614.31	47262.44
614.46	47611.18
614.62	47744.59
614.77	47650.97
614.92	47742.25
615.08	47498.83
615.23	47796.08
615.38	47756.29
615.54	47688.42
615.69	47426.28
615.84	47697.78
616.00	47470.75
616.15	47775.02
616.30	47447.34
616.46	47033.07
616.61	47281.16
616.76	47627.56
616.92	47098.60
617.07	47290.52
617.22	47243.71
617.37	47035.41
617.53	47665.01
617.68	47306.91
617.83	47271.80
617.99	47508.19
618.14	47084.56
618.29	46731.14
618.45	47283.50
618.60	47103.28
618.75	46714.75
618.90	46960.51
619.06	46974.55
619.21	46834.12
619.36	47316.27
619.51	46834.12
619.67	46616.45
619.82	47201.58
619.97	47070.51
620.12	46595.38
620.28	46883.27
620.43	47412.23
620.58	47075.19
620.73	47182.86
620.89	47089.24
621.04	46824.76
621.19	46646.88
621.34	46609.43
621.49	47180.52
621.65	46724.11
621.80	46813.05
621.95	46967.53
622.10	46824.76
622.25	46754.54
622.41	46569.64
622.56	46447.93
622.71	46810.71
622.86	46576.66
623.01	47030.72
623.16	46576.66
623.32	46518.15
623.47	46588.36
623.62	46520.49
623.77	46752.20
623.92	46679.64
624.07	46597.73
624.23	47075.19
624.38	46618.79
624.53	46036.00
624.68	46256.01
624.83	46511.13
624.98	46660.92
625.13	46436.23
625.29	46307.50
625.44	46337.93
625.59	46373.03
625.74	46326.22
625.89	45933.01
626.04	46471.34
626.19	46127.28
626.34	46089.83
626.49	45787.90
626.65	46078.13
626.80	45762.15
626.95	45808.96
627.10	45289.37
627.25	45687.26
627.40	45862.80
627.55	45909.61
627.70	45514.06
627.85	46279.41
628.00	46087.49
628.15	45972.80
628.30	45584.27
628.45	45640.45
628.60	45553.85
628.76	45469.59
628.91	45509.38
629.06	45537.46
629.21	45682.58
629.36	45572.57
629.51	45158.30
629.66	45495.33
629.81	45198.09
629.96	45460.23
630.11	45247.24
630.26	45242.56
630.41	45820.67
630.56	45188.72
630.71	45521.08
630.86	45244.90
631.01	45064.67
631.16	45085.74
631.31	44973.39
631.46	45198.09
631.61	45265.96
631.76	45429.80
631.91	45102.12
632.06	45628.74
632.21	45120.85
632.36	45626.40
632.51	44982.76
632.66	45560.87
632.81	45118.51
632.96	45006.16
633.10	44837.64
633.25	44645.72
633.40	45312.77
633.55	45443.84
633.70	44563.80
633.85	44673.81
634.00	44636.36
634.15	44610.61
634.30	44428.05
634.45	44683.17
634.60	44842.32
634.75	45067.02
634.90	44755.72
635.05	44861.05
635.19	44669.12
635.34	45132.55
635.49	44673.81
635.64	44741.68
635.79	45099.78
635.94	44481.88
636.09	44919.56
636.24	44322.72
636.39	44598.91
636.53	44650.40
636.68	44563.80
636.83	44369.54
636.98	44114.42
637.13	44196.34
637.28	44191.65
637.43	44116.76
637.57	44296.98
637.72	43995.05
637.87	44390.60
638.02	44486.56
638.17	44154.21
638.32	44067.61
638.46	44133.14
638.61	44149.53
638.76	43697.80
638.91	44023.14
639.06	43929.51
639.20	43650.99
639.35	43896.75
639.50	43461.41
639.65	44332.09
639.80	43927.17
639.94	43941.22
640.09	44238.47
640.24	44006.75
640.39	43714.19
640.54	43288.21
640.68	43854.62
640.83	43990.37
640.98	43770.36
641.13	43700.14
641.27	44388.26
641.42	43477.79
641.57	43452.05
641.72	43398.21
641.86	43751.63
642.01	43370.13
642.16	43276.51
642.31	42733.50
642.45	43370.13
642.60	43107.99
642.75	43100.97
642.90	43323.32
643.04	43302.25
643.19	43232.04
643.34	43318.64
643.48	43068.20
643.63	42906.70
643.78	42792.01
643.93	43365.45
644.07	43323.32
644.22	43299.91
644.37	43143.09
644.51	43470.77
644.66	42843.51
644.81	43012.02
644.95	43178.20
645.10	42513.49
645.25	42522.85
645.39	42848.19
645.54	42773.29
645.69	42796.70
645.83	42719.46
645.98	42623.50
646.13	42494.77
646.27	42960.53
646.42	42312.20
646.57	42670.31
646.71	42581.37
646.86	42787.33
647.00	42986.28
647.15	43079.90
647.30	42738.18
647.44	42843.51
647.59	42230.29
647.74	42569.66
647.88	42555.62
648.03	43115.01
648.17	42834.14
648.32	43140.75
648.47	42941.81
648.61	42206.88
648.76	42553.28
648.90	42836.48
649.05	42284.12
649.20	42279.44
649.34	42497.11
649.49	42705.41
649.63	42382.42
649.78	42319.23
649.92	42223.26
650.07	42923.08
650.21	42696.05
650.36	42810.74
650.51	42679.67
650.65	42583.71
650.80	42377.74
650.94	42213.90
651.09	42007.94
651.23	41794.95
651.38	41696.64
651.52	41663.88
651.67	41734.09
651.81	41614.72
651.96	41642.81
652.10	41799.63
652.25	41804.31
652.39	41727.07
652.54	41881.55
652.68	41724.73
652.83	41722.39
652.97	42052.41
653.12	41628.77
653.26	41507.06
653.41	41886.23
653.55	41827.71
653.70	42241.99
653.84	41546.85
653.99	41888.57
654.13	41542.17
654.27	41390.03
654.42	41418.12
654.56	41474.29
654.71	41895.59
654.85	41717.71
655.00	41581.96
655.14	41797.29
655.29	41921.34
655.43	41586.64
655.57	41471.95
655.72	41109.17
655.86	41172.36
656.01	41148.96
656.15	40832.99
656.30	40832.99
656.44	41209.81
656.58	40783.83
656.73	40921.93
656.87	40577.87
657.01	40821.28
657.16	41081.08
657.30	40921.93
657.45	40727.66
657.59	40741.71
657.73	40765.11
657.88	40769.79
658.02	40996.82
658.16	40865.75
658.31	40919.59
658.45	40662.13
658.60	40753.41
658.74	40383.60
658.88	40559.14
659.03	40980.44
659.17	40259.55
659.31	40135.51
659.46	40165.93
659.60	40629.36
659.74	40039.54
659.89	39913.16
660.03	39842.94
660.17	40212.74
660.32	40498.29
660.46	40238.49
660.60	39927.20
660.74	39339.72
660.89	39878.05
661.03	39826.56
661.17	39772.72
661.32	39840.60
661.46	40306.37
661.60	39716.55
661.74	39962.31
661.89	39456.75
662.03	39665.06
662.17	39276.53
662.31	39068.22
662.46	39761.02
662.60	39510.58
662.74	38962.90
662.88	39000.35
663.03	39033.11
663.17	39047.16
663.31	38801.40
663.45	38792.04
663.60	39187.59
663.74	39129.08
663.88	39112.69
664.02	38621.18
664.17	39133.76
664.31	38724.16
664.45	38644.59
664.59	38763.95
664.73	38607.14
664.88	38550.96
665.02	38307.55
665.16	38174.14
665.30	38532.24
665.44	38534.58
665.59	37809.01
665.73	37907.32
665.87	37635.81
666.01	37977.53
666.15	37801.99
666.29	37928.38
666.44	38134.35
666.58	38237.33
666.72	37888.59
666.86	37457.93
667.00	37792.63
667.14	37467.30
667.28	37682.62
667.43	37516.45
667.57	37834.76
667.71	37490.70
667.85	37888.59
667.99	37638.15
668.13	37132.60
668.27	37053.02
668.41	37130.26
668.56	36774.50
668.70	36985.15
668.84	36336.82
668.98	36727.69
669.12	36430.44
669.26	36554.49
669.40	36641.09
669.54	37125.58
669.68	36458.52
669.82	36650.45
669.96	36549.81
670.10	36039.57
670.25	36062.97
670.39	36238.51
670.53	36282.98
670.67	36322.77
670.81	36725.35
670.95	36259.58
671.09	35896.80
671.23	35524.65
671.37	35789.13
671.51	35913.18
671.65	35438.05
671.79	35229.74
671.93	35906.16
672.07	35662.74
672.21	35555.08
672.35	35065.91
672.49	35290.60
672.63	35250.81
672.77	34890.37
672.91	35260.17
673.05	35021.44
673.19	34721.85
673.33	34916.11
673.47	34656.31
673.61	34539.29
673.75	34342.68
673.89	34433.96
674.03	34115.65
674.17	34007.98
674.31	34160.12
674.45	34366.09
674.59	34010.32
674.73	34316.93
674.87	33865.21
675.01	33610.09
675.15	33900.32
675.29	33500.09
675.43	33661.58
675.56	33502.43
675.70	33516.47
675.84	33420.51
675.98	32336.84
676.12	32989.85
676.26	33411.15
676.40	32999.21
676.54	32664.52
676.68	32943.04
676.82	31974.06
676.96	33216.88
677.10	32304.07
677.23	32158.96
677.37	32341.52
677.51	32304.07
677.65	31835.97
677.79	31793.84
677.93	32182.37
678.07	31758.73
678.21	31573.83
678.34	31833.63
678.48	31604.25
678.62	31166.57
678.76	31215.72
678.90	31274.24
679.04	31248.49
679.18	31157.21
679.31	30899.75
679.45	30642.29
679.59	30925.50
679.73	30806.13
679.87	30604.84
680.00	30494.84
680.14	30586.12
680.28	30497.18
680.42	30057.16
680.56	30221.00
680.70	30008.01
680.83	29795.02
680.97	29853.53
681.11	29661.61
681.25	29113.92
681.39	29551.60
681.52	29582.03
681.66	29390.11
681.80	28980.51
681.94	28926.68
682.07	28903.28
682.21	28774.55
682.35	28706.67
682.49	28556.88
682.62	28765.18
682.76	28479.64
682.90	28524.11
683.04	28456.23
683.17	28320.48
683.31	28051.32
683.45	28287.71
683.59	28053.66
683.72	28013.87
683.86	27807.90
684.00	27711.94
684.13	27718.96
684.27	27372.57
684.41	27372.57
684.55	27356.18
684.68	27522.36
684.82	26881.05
684.96	27307.03
685.09	26644.66
685.23	26869.35
685.37	27414.69
685.50	27208.73
685.64	26965.31
685.78	26693.81
685.91	26195.28
686.05	26085.27
686.19	25687.38
686.32	26026.76
686.46	25535.24
686.60	25322.26
686.73	25956.54
686.87	25699.08
687.01	25766.96
687.14	25453.33
687.28	25500.14
687.42	25624.18
687.55	25090.54
687.69	24982.88
687.82	24812.02
687.96	24861.17
688.10	25097.56
688.23	24776.91
688.37	24961.81
688.50	24994.58
688.64	24837.76
688.78	24383.70
688.91	24264.33
689.05	24254.97
689.18	23810.27
689.32	23583.24
689.46	23489.62
689.59	23784.52
689.73	23812.61
689.86	24151.99
690.00	23655.79
690.13	23651.11
690.27	23283.65
690.41	23501.32
690.54	22918.53
690.68	23000.44
690.81	22796.82
690.95	22733.62
691.08	22757.03
691.22	22513.61
691.35	22890.44
691.49	22862.35
691.62	22904.48
691.76	22588.51
691.89	22167.21
692.03	21947.20
692.16	22043.17
692.30	21921.46
692.43	21956.57
692.57	21635.91
692.70	21413.56
692.84	21336.32
692.97	21233.34
693.11	21394.84
693.24	20966.52
693.38	21099.93
693.51	21238.02
693.65	20926.73
693.78	20751.19
693.92	20631.82
694.05	20577.99
694.19	20922.05
694.32	20783.96
694.45	20788.64
694.59	20748.85
694.72	20549.90
694.86	20236.27
694.99	20046.69
695.13	20156.69
695.26	19908.60
695.39	19396.02
695.53	19679.22
695.66	19719.01
695.80	19440.49
695.93	19688.59
696.07	19506.02
696.20	19108.13
696.33	18677.48
696.47	18895.14
696.60	19154.94
696.73	18927.91
696.87	19061.32
697.00	18867.06
697.14	18633.00
697.27	18448.10
697.40	18611.94
697.54	18785.14
697.67	18539.38
697.80	18345.12
697.94	18267.88
698.07	18024.47
698.21	17858.29
698.34	18284.26
698.47	18167.24
698.61	17455.72
698.74	17446.35
698.87	17844.24
699.01	17635.94
699.14	17537.63
699.27	17263.79
699.40	17432.31
699.54	17331.67
699.67	17628.92
699.80	17050.80
699.94	16980.59
700.07	17069.53
700.20	16819.09
700.34	16671.64
700.47	16662.27
700.60	16776.96
700.73	16901.01
700.87	16292.47
701.00	16292.47
701.13	16343.96
701.26	16271.40
701.40	15997.56
701.53	16049.05
701.66	15999.90
701.79	15903.94
701.93	15653.50
702.06	15625.42
702.19	15592.65
702.32	15840.75
702.46	15751.81
702.59	15592.65
702.72	15609.03
702.85	15480.30
702.99	15241.57
703.12	15157.31
703.25	15040.28
703.38	15136.24
703.51	14904.53
703.65	14984.11
703.78	14764.10
703.91	14480.89
704.04	14780.48
704.17	14651.75
704.31	14820.27
704.44	14459.83
704.57	14293.65
704.70	14167.26
704.83	14258.54
704.96	14078.32
705.10	13736.60
705.23	13905.12
>>>>>End Processed Spectral Data<<<<<
