SpectraSuite Data File
++++++++++++++++++++++++++++++++++++
Date: Fri Oct 25 10:44:19 EDT 2013
User: price-jones
Dark Spectrum Present: No
Reference Spectrum Present: No
Number of Sampled Component Spectra: 1
Spectrometers: USB2+H05261
Integration Time (usec): 100000 (USB2+H05261)
Spectra Averaged: 1 (USB2+H05261)
Boxcar Smoothing: 0 (USB2+H05261)
Correct for Electrical Dark: No (USB2+H05261)
Strobe/Lamp Enabled: No (USB2+H05261)
Correct for Detector Non-linearity: No (USB2+H05261)
Correct for Stray Light: No (USB2+H05261)
Number of Pixels in Processed Spectrum: 2048
>>>>>Begin Processed Spectral Data<<<<<
365.73	168.52
365.92	168.52
366.12	168.52
366.32	58.51
366.52	42.13
366.72	42.13
366.91	63.19
367.11	0.00
367.31	0.00
367.51	49.15
367.70	2.34
367.90	25.75
368.10	56.17
368.30	86.60
368.49	0.00
368.69	49.15
368.89	44.47
369.09	67.88
369.28	32.77
369.48	95.96
369.68	88.94
369.87	215.33
370.07	74.90
370.27	98.30
370.47	189.58
370.66	337.04
370.86	442.36
371.06	503.22
371.25	503.22
371.45	416.62
371.65	512.58
371.84	390.87
372.04	500.87
372.24	557.05
372.44	550.03
372.63	533.64
372.83	664.71
373.03	554.71
373.22	564.07
373.42	568.75
373.62	545.34
373.81	543.00
374.01	631.94
374.21	589.82
374.40	531.30
374.60	582.79
374.79	575.77
374.99	676.41
375.19	596.84
375.38	573.43
375.58	641.31
375.78	624.92
375.97	573.43
376.17	603.86
376.37	681.10
376.56	681.10
376.76	648.33
376.95	631.94
377.15	667.05
377.35	664.71
377.54	681.10
377.74	676.41
377.93	634.29
378.13	655.35
378.33	697.48
378.52	641.31
378.72	702.16
378.91	753.65
379.11	697.48
379.31	667.05
379.50	702.16
379.70	772.38
379.89	624.92
380.09	741.95
380.28	709.18
380.48	772.38
380.68	779.40
380.87	655.35
381.07	730.25
381.26	678.76
381.46	837.91
381.65	770.04
381.85	739.61
382.04	711.52
382.24	732.59
382.43	732.59
382.63	739.61
382.83	699.82
383.02	779.40
383.22	751.31
383.41	725.57
383.61	748.97
383.80	828.55
384.00	753.65
384.19	758.33
384.39	835.57
384.58	816.85
384.78	917.49
384.97	898.77
385.17	774.72
385.36	826.21
385.56	807.48
385.75	767.70
385.95	880.04
386.14	889.40
386.34	798.12
386.53	816.85
386.72	833.23
386.92	816.85
387.11	868.34
387.31	894.08
387.50	858.98
387.70	922.17
387.89	849.61
388.09	994.73
388.28	894.08
388.48	877.70
388.67	882.38
388.86	954.94
389.06	1060.26
389.25	1020.47
389.45	985.37
389.64	1029.84
389.84	1006.43
390.03	1067.28
390.22	1022.81
390.42	1015.79
390.61	1022.81
390.81	1076.65
391.00	1132.82
391.19	1093.03
391.39	1139.84
391.58	1123.46
391.78	1107.07
391.97	1114.10
392.16	1034.52
392.36	1015.79
392.55	1078.99
392.75	954.94
392.94	1027.50
393.13	971.32
393.33	919.83
393.52	1118.78
393.71	1174.95
393.91	1130.48
394.10	1088.35
394.29	1165.59
394.49	1219.42
394.68	1210.06
394.88	1310.70
395.07	1266.23
395.26	1324.74
395.46	1254.53
395.65	1233.46
395.84	1224.10
396.04	1284.95
396.23	1179.63
396.42	1221.76
396.62	1196.01
396.81	1217.08
397.00	1217.08
397.19	1224.10
397.39	1380.92
397.58	1383.26
397.77	1427.73
397.97	1448.79
398.16	1476.88
398.35	1387.94
398.55	1371.55
398.74	1519.01
398.93	1659.44
399.12	1631.35
399.32	1528.37
399.51	1612.63
399.70	1603.27
399.90	1486.24
400.09	1591.56
400.28	1659.44
400.47	1624.33
400.67	1645.40
400.86	1673.48
401.05	1790.51
401.24	1652.42
401.44	1732.00
401.63	1799.87
401.82	1804.55
402.01	1713.27
402.21	1757.74
402.40	1851.36
402.59	1809.23
402.78	1816.26
402.97	1774.13
403.17	1769.44
403.36	1776.47
403.55	1874.77
403.74	1952.01
403.93	1912.22
404.13	1966.05
404.32	1902.86
404.51	1942.64
404.70	1881.79
404.89	2026.90
405.09	1977.75
405.28	1987.11
405.47	2064.35
405.66	2043.29
405.85	2071.37
406.05	2071.37
406.24	2090.10
406.43	2108.82
406.62	2045.63
406.81	2134.57
407.00	2176.70
407.20	2113.50
407.39	2165.00
407.58	2181.38
407.77	2298.41
407.96	2235.21
408.15	2305.43
408.34	2244.57
408.54	2328.83
408.73	2413.09
408.92	2375.64
409.11	2375.64
409.30	2452.88
409.49	2235.21
409.68	2349.90
409.87	2352.24
410.07	2354.58
410.26	2478.63
410.45	2586.29
410.64	2483.31
410.83	2527.78
411.02	2464.58
411.21	2729.06
411.40	2684.59
411.59	2729.06
411.78	2679.91
411.98	2597.99
412.17	2871.84
412.36	2759.49
412.55	2719.70
412.74	2920.99
412.93	2796.94
413.12	2916.31
413.31	2974.82
413.50	2923.33
413.69	2939.71
413.88	3047.38
414.07	2937.37
414.26	3045.04
414.45	3005.25
414.64	2965.46
414.83	3129.30
415.02	2988.86
415.22	3199.51
415.41	3180.79
415.60	3295.47
415.79	3218.24
415.98	3372.71
416.17	3262.71
416.36	3346.97
416.55	3403.14
416.74	3208.87
416.93	3227.60
417.12	3428.88
417.31	3424.20
417.50	3440.59
417.69	3513.14
417.88	3569.32
418.07	3456.97
418.26	3433.57
418.45	3461.65
418.64	3625.49
418.83	3627.83
419.02	3702.73
419.21	3597.40
419.39	3709.75
419.58	3698.05
419.77	3606.77
419.96	3698.05
420.15	3866.56
420.34	3740.18
420.53	3918.06
420.72	3885.29
420.91	3920.40
421.10	3808.05
421.29	4011.68
421.48	3875.93
421.67	3803.37
421.86	3857.20
422.05	4109.98
422.24	3779.97
422.43	3861.88
422.61	3822.09
422.80	3997.64
422.99	4016.36
423.18	4072.53
423.37	4049.13
423.56	4056.15
423.75	3899.33
423.94	3981.25
424.13	3812.73
424.32	3941.46
424.50	4063.17
424.69	4142.75
424.88	4159.13
425.07	4037.42
425.26	3976.57
425.45	3939.12
425.64	3988.27
425.83	4032.74
426.01	4166.15
426.20	4124.02
426.39	4227.01
426.58	4067.85
426.77	4077.21
426.96	3976.57
427.15	4126.36
427.33	4140.41
427.52	4154.45
427.71	4285.52
427.90	4219.99
428.09	4131.05
428.28	4341.69
428.46	4229.35
428.65	4205.94
428.84	4248.07
429.03	4327.65
429.22	4283.18
429.40	4276.16
429.59	4201.26
429.78	3941.46
429.97	3911.04
430.16	4042.11
430.34	4269.14
430.53	4168.49
430.72	4166.15
430.91	4344.03
431.10	4493.83
431.28	4643.62
431.47	4664.69
431.66	4861.29
431.85	4514.89
432.03	4650.64
432.22	4760.65
432.41	4851.93
432.60	4650.64
432.79	4762.99
432.97	4880.02
433.16	4849.59
433.35	4791.08
433.54	4842.57
433.72	4718.52
433.91	4734.90
434.10	4917.47
434.28	4816.82
434.47	5036.83
434.66	5032.15
434.85	5062.58
435.03	5177.26
435.22	5114.07
435.41	5282.59
435.59	5139.82
435.78	5247.48
435.97	5324.72
436.16	5200.67
436.34	5270.89
436.53	5397.28
436.72	5448.77
436.90	5210.03
437.09	5378.55
437.28	5266.21
437.46	5242.80
437.65	5289.61
437.84	5315.36
438.02	5153.86
438.21	5348.12
438.40	5111.73
438.58	5373.87
438.77	5397.28
438.96	5647.71
439.14	5701.54
439.33	5516.64
439.52	5783.46
439.70	5771.76
439.89	5811.55
440.08	5933.26
440.26	5830.27
440.45	5914.53
440.63	5912.19
440.82	6157.95
441.01	5933.26
441.19	6183.70
441.38	6235.19
441.57	6417.75
441.75	6452.86
441.94	6394.34
442.12	6354.55
442.31	6576.91
442.50	6303.06
442.68	6314.77
442.87	6455.20
443.05	6553.50
443.24	6586.27
443.43	6619.04
443.61	6574.56
443.80	6862.45
443.98	6497.33
444.17	6401.37
444.35	6679.89
444.54	6803.94
444.73	6712.66
444.91	6593.29
445.10	6565.20
445.28	6626.06
445.47	6658.82
445.65	6633.08
445.84	6703.29
446.02	6675.21
446.21	6810.96
446.39	6923.30
446.58	6841.39
446.77	6944.37
446.95	6707.98
447.14	6874.15
447.32	6752.45
447.51	6902.24
447.69	6927.99
447.88	6986.50
448.06	6696.27
448.25	6724.36
448.43	7000.54
448.62	6965.43
448.80	7000.54
448.99	6899.90
449.17	7042.67
449.36	6888.20
449.54	7005.22
449.73	7133.95
449.91	7241.62
450.10	7302.47
450.28	7318.86
450.46	7213.53
450.65	7454.61
450.83	7412.48
451.02	7316.51
451.20	7358.64
451.39	7583.34
451.57	7274.38
451.76	7398.43
451.94	7470.99
452.13	7417.16
452.31	7269.70
452.49	7349.28
452.68	7360.98
452.86	7323.54
453.05	7496.74
453.23	7585.68
453.42	7510.78
453.60	7564.61
453.78	7726.11
453.97	7452.27
454.15	7707.38
454.34	7810.37
454.52	7744.83
454.70	7679.30
454.89	7686.32
455.07	7658.23
455.26	7798.66
455.44	7868.88
455.62	7875.90
455.81	7985.91
455.99	7878.24
456.17	7995.27
456.36	8035.06
456.54	8131.02
456.73	8306.56
456.91	8332.31
457.09	8318.26
457.28	8500.83
457.46	8290.18
457.64	8311.24
457.83	8444.65
458.01	8236.35
458.19	8381.46
458.38	8313.58
458.56	8498.49
458.74	8554.66
458.93	8503.17
459.11	8468.06
459.29	8615.51
459.48	8552.32
459.66	8517.21
459.84	8442.31
460.03	8718.50
460.21	8922.12
460.39	8620.19
460.57	8671.68
460.76	8746.58
460.94	8631.90
461.12	8929.14
461.31	8959.57
461.49	8683.39
461.67	8772.33
461.85	9053.19
462.04	8887.01
462.22	9270.86
462.40	9193.62
462.59	9263.84
462.77	8964.25
462.95	9200.65
463.13	9284.91
463.32	9064.89
463.50	9345.76
463.68	9317.67
463.86	9212.35
464.05	8940.85
464.23	9345.76
464.41	9308.31
464.59	8919.78
464.78	9451.08
464.96	9380.87
465.14	9170.22
465.32	9472.15
465.50	9577.47
465.69	9556.41
465.87	9256.82
466.05	9731.95
466.23	9324.69
466.41	9355.12
466.60	9776.42
466.78	9163.20
466.96	9380.87
467.14	9453.42
467.32	9753.01
467.51	9811.53
467.69	9350.44
467.87	9607.90
468.05	9699.18
468.23	9703.86
468.41	9479.17
468.60	9556.41
468.78	9863.02
468.96	9668.75
469.14	10064.30
469.32	9907.49
469.50	9682.80
469.69	9935.57
469.87	10040.90
470.05	10230.48
470.23	9940.26
470.41	10040.90
470.59	10083.03
470.77	10031.54
470.95	9973.02
471.14	10396.66
471.32	10038.56
471.50	10628.37
471.68	10569.86
471.86	10637.73
472.04	10698.59
472.22	10920.94
472.40	10162.61
472.58	10640.08
472.77	10857.75
472.95	10834.34
473.13	10916.26
473.31	10834.34
473.49	10689.23
473.67	10942.00
473.85	11136.27
474.03	11229.89
474.21	11150.31
474.39	11435.86
474.57	11204.14
474.75	11307.13
474.93	11414.79
475.12	11372.66
475.30	11405.43
475.48	11421.81
475.66	11548.20
475.84	11534.16
476.02	11501.39
476.20	11571.61
476.38	11665.23
476.56	12028.01
476.74	12175.47
476.92	11906.31
477.10	12023.33
477.28	12446.97
477.46	12271.43
477.64	12397.82
477.82	12737.20
478.00	12784.01
478.18	12861.24
478.36	12840.18
478.54	12940.82
478.72	12982.95
478.90	13032.10
479.08	13261.48
479.26	13434.68
479.44	13441.70
479.62	13591.49
479.80	13734.26
479.98	13940.23
480.16	13860.65
480.34	13589.15
480.52	14061.94
480.70	13907.46
480.88	13996.40
481.06	14326.42
481.24	14150.88
481.41	14506.64
481.59	14649.41
481.77	14621.33
481.95	14696.22
482.13	14939.64
482.31	14771.12
482.49	15321.15
482.67	15276.68
482.85	15623.08
483.03	15609.03
483.21	15740.10
483.39	15695.63
483.57	15693.29
483.74	16020.97
483.92	15786.91
484.10	15992.88
484.28	16166.08
484.46	16430.56
484.64	16800.37
484.82	16280.77
485.00	16313.53
485.18	16631.85
485.35	16903.35
485.53	16215.23
485.71	16460.99
485.89	16615.46
486.07	16912.71
486.25	16910.37
486.43	17001.65
486.61	17415.93
486.78	17694.45
486.96	17818.50
487.14	17846.58
487.32	18150.85
487.50	18328.74
487.68	18403.63
487.85	18581.51
488.03	18647.05
488.21	19005.15
488.39	18801.52
488.57	18930.25
488.75	19379.64
488.92	19367.93
489.10	19779.87
489.28	19852.42
489.46	20280.74
489.64	20058.39
489.81	20809.70
489.99	20559.27
490.17	20627.14
490.35	21041.42
490.53	20624.80
490.70	20802.68
490.88	20828.43
491.06	21315.26
491.24	21036.74
491.41	21156.10
491.59	21359.73
491.77	21186.53
491.95	21710.81
492.13	21617.19
492.30	21930.82
492.48	22286.58
492.66	22118.06
492.84	21919.12
493.01	22759.37
493.19	22501.91
493.37	23002.78
493.54	22881.08
493.72	23140.88
493.90	22913.84
494.08	23300.03
494.25	23850.06
494.43	23672.18
494.61	24261.99
494.79	24016.24
494.96	23953.04
495.14	24278.38
495.32	23765.80
495.49	24369.66
495.67	24421.15
495.85	24797.98
496.02	24463.28
496.20	24723.08
496.38	24840.11
496.55	24863.51
496.73	25404.17
496.91	25200.55
497.09	25467.37
497.26	25575.03
497.44	25706.10
497.62	25867.60
497.79	25872.28
497.97	25532.90
498.14	26113.36
498.32	26015.05
498.50	26293.58
498.67	26441.03
498.85	26111.02
499.03	26785.09
499.20	27138.51
499.38	27007.44
499.56	26829.56
499.73	26876.37
499.91	26686.79
500.08	27133.83
500.26	26918.50
500.44	27592.58
500.61	27182.98
500.79	27197.02
500.97	27548.11
501.14	27517.68
501.32	27763.43
501.49	27747.05
501.67	27321.07
501.84	28023.23
502.02	27976.42
502.20	27955.36
502.37	28261.97
502.55	28182.39
502.72	28720.71
502.90	28362.61
503.07	28552.20
503.25	28734.76
503.43	28648.16
503.60	28882.21
503.78	28657.52
503.95	28907.96
504.13	28926.68
504.30	29373.72
504.48	29174.78
504.65	28994.56
504.83	30000.99
505.01	29394.79
505.18	29879.28
505.36	30059.50
505.53	29916.73
505.71	30064.18
505.88	30403.56
506.06	29963.54
506.23	30342.70
506.41	30452.71
506.58	30342.70
506.76	30817.83
506.93	30859.96
507.11	30560.37
507.28	30485.48
507.46	30712.51
507.63	30429.30
507.81	30988.69
507.98	30511.22
508.16	31154.87
508.33	31290.62
508.50	31400.63
508.68	31374.88
508.85	31632.34
509.03	31601.91
509.20	31723.62
509.38	31639.36
509.55	31758.73
509.73	32048.96
509.90	31737.66
510.08	31941.29
510.25	31896.82
510.42	32163.64
510.60	32713.67
510.77	32325.14
510.95	32823.67
511.12	32678.56
511.30	32425.78
511.47	33090.49
511.64	33034.32
511.82	33036.66
511.99	32631.75
512.17	33369.02
512.34	32622.39
512.51	33364.34
512.69	33308.16
512.86	33296.46
513.04	33727.12
513.21	33219.22
513.38	33380.72
513.56	33502.43
513.73	33003.89
513.90	33523.49
514.08	33528.17
514.25	33741.16
514.43	33745.84
514.60	33827.76
514.77	34087.56
514.95	34211.61
515.12	34295.87
515.29	34597.80
515.47	34733.55
515.64	34745.25
515.81	34239.70
515.99	34272.46
516.16	34492.47
516.33	34455.03
516.51	34068.84
516.68	33802.02
516.85	34000.96
517.03	33909.68
517.20	34333.32
517.37	35000.37
517.54	35218.04
517.72	34504.18
517.89	34998.03
518.06	34382.47
518.24	34520.56
518.41	34946.54
518.58	34969.94
518.75	35199.32
518.93	35414.65
519.10	35531.67
519.27	35007.39
519.45	35517.63
519.62	35821.90
519.79	36086.38
519.96	35817.22
520.14	36432.78
520.31	35779.77
520.48	35857.01
520.65	36215.11
520.83	36914.93
521.00	36657.47
521.17	36430.44
521.34	36613.00
521.52	36575.55
521.69	36701.94
521.86	36861.10
522.03	36914.93
522.20	37179.41
522.38	37277.71
522.55	36912.59
522.72	36947.70
522.89	36968.76
523.07	37340.91
523.24	37008.55
523.41	37464.96
523.58	37319.84
523.75	37893.27
523.92	37827.74
524.10	37989.24
524.27	38129.67
524.44	37759.86
524.61	38045.41
524.78	38005.62
524.96	38096.90
525.13	37944.76
525.30	38415.21
525.47	38497.13
525.64	38345.00
525.81	37998.60
525.98	38550.96
526.16	38096.90
526.33	38026.68
526.50	38347.34
526.67	37916.68
526.84	37961.15
527.01	37769.22
527.18	38183.50
527.36	38756.93
527.53	39070.56
527.70	39009.71
527.87	38773.31
528.04	39000.35
528.21	39285.89
528.38	39077.58
528.55	39484.84
528.72	39494.20
528.89	39702.51
529.07	39370.15
529.24	39494.20
529.41	39370.15
529.58	39498.88
529.75	39763.36
529.92	39456.75
530.09	39622.93
530.26	40060.61
530.43	39824.22
530.60	39789.11
530.77	39945.92
530.94	39964.65
531.11	40282.96
531.28	39922.52
531.46	40453.82
531.63	40140.19
531.80	40259.55
531.97	39990.39
532.14	40023.16
532.31	40196.36
532.48	40163.59
532.65	40062.95
532.82	40098.06
532.99	40458.50
533.16	40329.77
533.33	40521.69
533.50	40877.46
533.67	40952.35
533.84	40627.02
534.01	40411.69
534.18	40601.27
534.35	40985.12
534.52	41001.50
534.69	41151.30
534.86	41242.58
535.03	40699.58
535.20	41453.23
535.37	41897.93
535.54	41918.99
535.71	41631.11
535.88	41614.72
536.05	41460.25
536.22	41509.40
536.38	41221.52
536.55	41380.67
536.72	41406.42
536.89	41357.27
537.06	41518.76
537.23	41698.98
537.40	41331.52
537.57	41808.99
537.74	41921.34
537.91	42000.91
538.08	42005.59
538.25	41766.86
538.42	42017.30
538.59	41991.55
538.75	41731.75
538.92	41579.62
539.09	41893.25
539.26	42436.25
539.43	42220.92
539.60	41886.23
539.77	41820.69
539.94	42005.59
540.11	41691.96
540.28	42087.51
540.44	41743.45
540.61	42103.90
540.78	42113.26
540.95	41881.55
541.12	42274.76
541.29	42274.76
541.46	42813.08
541.62	42384.76
541.79	42637.54
541.96	42590.73
542.13	42333.27
542.30	42607.11
542.47	42527.53
542.63	42499.45
542.80	42829.46
542.97	43033.09
543.14	43196.93
543.31	43068.20
543.48	43112.67
543.64	43763.34
543.81	43538.65
543.98	43643.97
544.15	43648.65
544.32	43524.60
544.48	43386.51
544.65	43510.56
544.82	43606.52
544.99	43367.79
545.16	43278.85
545.32	43449.70
545.49	43929.51
545.66	44030.16
545.83	43402.89
546.00	43775.04
546.16	43985.69
546.33	43669.72
546.50	43828.87
546.67	43643.97
546.83	43335.02
547.00	43676.74
547.17	44219.74
547.34	43463.75
547.50	43646.31
547.67	44154.21
547.84	43746.95
548.00	44296.98
548.17	44823.60
548.34	44229.10
548.51	44538.05
548.67	44580.18
548.84	44201.02
549.01	44259.53
549.18	44325.07
549.34	44446.77
549.51	44687.85
549.68	44622.31
549.84	44603.59
550.01	44626.99
550.18	44470.18
550.34	44446.77
550.51	44521.67
550.68	44683.17
550.84	43957.60
551.01	44893.82
551.18	44952.33
551.34	44423.37
551.51	45132.55
551.68	45081.06
551.84	44851.69
552.01	44842.32
552.18	45141.91
552.34	44804.88
552.51	44762.75
552.68	44680.83
552.84	45148.93
553.01	45324.47
553.18	44748.70
553.34	45448.52
553.51	44994.46
553.67	45064.67
553.84	45638.11
554.01	45441.50
554.17	45736.41
554.34	45553.85
554.51	45174.68
554.67	45422.78
554.84	45237.87
555.00	45132.55
555.17	45287.03
555.33	45717.68
555.50	45242.56
555.67	45507.04
555.83	45436.82
556.00	45280.00
556.16	45790.24
556.33	45600.66
556.50	45284.68
556.66	45614.70
556.83	45141.91
556.99	45766.84
557.16	45584.27
557.32	45837.05
557.49	46045.36
557.65	45282.34
557.82	45556.19
557.98	45715.34
558.15	45724.71
558.32	45595.98
558.48	45556.19
558.65	45406.39
558.81	45406.39
558.98	45635.77
559.14	45825.35
559.31	46007.91
559.47	45984.51
559.64	46511.13
559.80	46059.40
559.97	45727.05
560.13	45867.48
560.30	46134.30
560.46	46071.10
560.63	46206.86
560.79	45769.18
560.96	46122.60
561.12	45937.69
561.29	45773.86
561.45	45806.62
561.61	45827.69
561.78	45846.41
561.94	45965.78
562.11	46150.68
562.27	46270.05
562.44	46059.40
562.60	46452.61
562.77	46363.67
562.93	46267.71
563.10	46162.39
563.26	45993.87
563.42	46363.67
563.59	46253.67
563.75	46073.45
563.92	46192.81
564.08	46319.20
564.24	46445.59
564.41	46199.83
564.57	46440.91
564.74	46588.36
564.90	46066.42
565.07	46806.03
565.23	46157.70
565.39	46312.18
565.56	45977.48
565.72	45574.91
565.88	46450.27
566.05	46384.74
566.21	45844.07
566.38	46028.98
566.54	46218.56
566.70	46419.84
566.87	46614.11
567.03	46504.10
567.19	46525.17
567.36	46384.74
567.52	46270.05
567.68	46469.00
567.85	46143.66
568.01	46363.67
568.17	46424.53
568.34	46646.88
568.50	46438.57
568.66	46438.57
568.83	46693.69
568.99	46270.05
569.15	46426.87
569.32	46326.22
569.48	46239.62
569.64	46220.90
569.81	46323.88
569.97	46150.68
570.13	46356.65
570.30	46415.16
570.46	46241.96
570.62	45874.50
570.78	45839.39
570.95	46234.94
571.11	46681.98
571.27	46138.98
571.43	46581.34
571.60	46106.21
571.76	46314.52
571.92	46630.49
572.09	46506.44
572.25	46700.71
572.41	46569.64
572.57	46707.73
572.74	46817.74
572.90	46593.04
573.06	46518.15
573.22	46248.99
573.38	46635.17
573.55	46366.01
573.71	47026.04
573.87	46600.07
574.03	46248.99
574.20	46684.33
574.36	46791.99
574.52	46394.10
574.68	46602.41
574.84	46766.24
575.01	46403.46
575.17	46555.60
575.33	46351.97
575.49	46480.70
575.65	46700.71
575.82	46775.61
575.98	46885.61
576.14	46476.02
576.30	46759.22
576.46	46791.99
576.62	46885.61
576.79	46761.56
576.95	46284.09
577.11	46555.60
577.27	46553.26
577.43	46476.02
577.59	46452.61
577.75	46244.30
577.92	45853.44
578.08	46635.17
578.24	45942.38
578.40	46330.90
578.56	46600.07
578.72	46939.44
578.88	47271.80
579.04	46761.56
579.21	46534.53
579.37	46429.21
579.53	46244.30
579.69	46546.23
579.85	46625.81
580.01	46653.90
580.17	46976.89
580.33	46983.91
580.49	46749.86
580.65	47100.94
580.82	46698.37
580.98	46600.07
581.14	46223.24
581.30	46724.11
581.46	46796.67
581.62	46536.87
581.78	46607.09
581.94	47112.64
582.10	46691.35
582.26	47056.47
582.42	46569.64
582.58	47000.30
582.74	46574.32
582.90	47112.64
583.06	46616.45
583.22	46749.86
583.38	47122.01
583.54	47068.17
583.70	46932.42
583.86	47072.85
584.02	46377.72
584.18	46997.96
584.34	46579.00
584.50	47173.50
584.66	46773.27
584.82	46569.64
584.98	46913.70
585.14	47016.68
585.30	46562.62
585.46	46803.69
585.62	46700.71
585.78	46773.27
585.94	46459.63
586.10	47086.90
586.26	46787.31
586.42	47274.14
586.58	47030.72
586.74	46323.88
586.90	46665.60
587.06	46677.30
587.22	46801.35
587.38	46653.90
587.54	47105.62
587.70	46686.67
587.86	46543.89
588.02	46726.46
588.18	46911.36
588.34	46604.75
588.49	46017.27
588.65	46040.68
588.81	46162.39
588.97	46326.22
589.13	46274.73
589.29	46265.37
589.45	46658.58
589.61	46368.35
589.77	46965.19
589.93	46426.87
590.08	46808.37
590.24	46717.09
590.40	47222.65
590.56	47037.75
590.72	46974.55
590.88	46946.47
591.04	47014.34
591.20	47185.20
591.35	46972.21
591.51	46995.62
591.67	47049.45
591.83	46923.06
591.99	46951.15
592.15	47047.11
592.31	47119.66
592.46	46693.69
592.62	46646.88
592.78	46632.83
592.94	47201.58
593.10	47012.00
593.26	46838.80
593.41	46972.21
593.57	46827.10
593.73	46848.16
593.89	46740.50
594.05	46681.98
594.20	46923.06
594.36	47061.15
594.52	47096.26
594.68	46876.25
594.84	46775.61
594.99	46951.15
595.15	46740.50
595.31	47271.80
595.47	47037.75
595.62	47311.59
595.78	46815.40
595.94	47292.86
596.10	47084.56
596.25	47217.97
596.41	47107.96
596.57	47035.41
596.73	47023.70
596.88	46391.76
597.04	46464.32
597.20	47206.26
597.36	47028.38
597.51	47220.31
597.67	47423.93
597.83	47103.28
597.99	47093.92
598.14	46777.95
598.30	46927.74
598.46	46880.93
598.61	46880.93
598.77	46623.47
598.93	46803.69
599.09	47246.05
599.24	47742.25
599.40	47491.81
599.56	47164.14
599.71	46862.21
599.87	46761.56
600.03	47107.96
600.18	46719.43
600.34	46583.68
600.50	46857.52
600.65	46925.40
600.81	47159.45
600.97	47166.48
601.12	47405.21
601.28	47082.22
601.44	46651.56
601.59	46834.12
601.75	46703.05
601.91	46850.50
602.06	46621.13
602.22	47229.67
602.37	46878.59
602.53	46733.48
602.69	47271.80
602.84	47138.39
603.00	47021.36
603.16	46813.05
603.31	46630.49
603.47	47028.38
603.62	46869.23
603.78	46918.38
603.94	47173.50
604.09	47014.34
604.25	46784.97
604.40	46997.96
604.56	47051.79
604.71	46857.52
604.87	46773.27
605.03	46728.80
605.18	46164.73
605.34	46686.67
605.49	46536.87
605.65	46784.97
605.80	46937.10
605.96	46703.05
606.12	46775.61
606.27	47379.46
606.43	46557.94
606.58	46859.87
606.74	46724.11
606.89	46749.86
607.05	46557.94
607.20	46990.94
607.36	46195.15
607.51	46794.33
607.67	46948.81
607.82	46712.41
607.98	46894.97
608.13	46586.02
608.29	46382.40
608.44	46457.29
608.60	46031.32
608.75	46260.69
608.91	46431.55
609.06	46366.01
609.22	46515.81
609.37	46234.94
609.53	46555.60
609.68	46426.87
609.84	46106.21
609.99	46319.20
610.15	45984.51
610.30	46330.90
610.46	45663.85
610.61	46143.66
610.76	46148.34
610.92	46366.01
611.07	46263.03
611.23	46520.49
611.38	46305.16
611.54	46017.27
611.69	46176.43
611.84	46071.10
612.00	45961.10
612.15	45514.06
612.31	46340.27
612.46	45736.41
612.62	46021.95
612.77	45535.12
612.92	46562.62
613.08	45888.54
613.23	46005.57
613.39	46094.51
613.54	45900.25
613.69	46043.02
613.85	46064.08
614.00	46127.28
614.15	46206.86
614.31	45911.95
614.46	45963.44
614.62	45947.06
614.77	45787.90
614.92	45858.12
615.08	45701.30
615.23	45628.74
615.38	45397.03
615.54	45036.59
615.69	45418.10
615.84	45270.64
616.00	45537.46
616.15	45333.84
616.30	45415.76
616.46	45343.20
616.61	45256.60
616.76	44842.32
616.92	44987.44
617.07	45146.59
617.22	44917.22
617.37	45146.59
617.53	45502.35
617.68	45158.30
617.83	45041.27
617.99	45603.00
618.14	45317.45
618.29	45123.19
618.45	45380.65
618.60	44839.98
618.75	45085.74
618.90	45258.94
619.06	45179.36
619.21	45450.86
619.36	45038.93
619.51	44919.56
619.67	44971.05
619.82	45186.38
619.97	45207.45
620.12	44643.38
620.28	44889.13
620.43	44516.99
620.58	44711.25
620.73	44715.93
620.89	44605.93
621.04	44568.48
621.19	44357.83
621.34	44952.33
621.49	44722.96
621.65	44392.94
621.80	44823.60
621.95	44236.12
622.10	44636.36
622.25	44411.67
622.41	44460.82
622.56	44177.61
622.71	44575.50
622.86	44540.39
623.01	44769.77
623.16	44308.68
623.32	43545.67
623.47	44425.71
623.62	44060.58
623.77	43992.71
623.92	44355.49
624.07	43950.58
624.23	43924.83
624.38	43810.15
624.53	44009.09
624.68	43714.19
624.83	43999.73
624.98	43735.25
625.13	43278.85
625.29	44105.06
625.44	44191.65
625.59	43737.59
625.74	43498.86
625.89	43473.11
626.04	43311.61
626.19	43454.39
626.34	43606.52
626.49	43842.92
626.65	43814.83
626.80	44119.10
626.95	43447.36
627.10	43325.66
627.25	43522.26
627.40	42979.26
627.55	43061.18
627.70	42817.76
627.85	43079.90
628.00	43100.97
628.15	42925.42
628.30	43047.13
628.45	43377.15
628.60	43213.31
628.76	43243.74
628.91	43587.80
629.06	43166.50
629.21	43093.94
629.36	43505.88
629.51	42410.51
629.66	42581.37
629.81	42677.33
629.96	42733.50
630.11	42880.95
630.26	43044.79
630.41	43269.48
630.56	43117.35
630.71	42974.58
630.86	42562.64
631.01	42529.87
631.16	42925.42
631.31	42576.69
631.46	42160.07
631.61	42770.95
631.76	42810.74
631.91	42401.14
632.06	42543.92
632.21	42946.49
632.36	42941.81
632.51	41935.38
632.66	42532.22
632.81	41979.85
632.96	42682.01
633.10	41811.33
633.25	42604.77
633.40	42590.73
633.55	42529.87
633.70	42351.99
633.85	41937.72
634.00	42447.96
634.15	42522.85
634.30	42139.00
634.45	41780.90
634.60	42220.92
634.75	42031.34
634.90	41982.19
635.05	41361.95
635.19	41970.49
635.34	42160.07
635.49	41930.70
635.64	42302.84
635.79	41551.53
635.94	42080.49
636.09	41544.51
636.24	41930.70
636.39	41677.92
636.53	41792.61
636.68	41832.39
636.83	41528.13
636.98	41811.33
637.13	41361.95
637.28	41794.95
637.43	41918.99
637.57	41823.03
637.72	41462.59
637.87	41558.55
638.02	42029.00
638.17	41797.29
638.32	41619.41
638.46	41649.83
638.61	41240.24
638.76	41591.32
638.91	41530.47
639.06	41455.57
639.20	41556.21
639.35	41666.22
639.50	41399.40
639.65	41549.19
639.80	41357.27
639.94	41095.13
640.09	40954.69
640.24	41076.40
640.39	40706.60
640.54	41076.40
640.68	41345.56
640.83	40989.80
640.98	41067.04
641.13	40964.06
641.27	41001.50
641.42	40697.24
641.57	40526.38
641.72	40704.26
641.86	40659.79
642.01	41265.99
642.16	40458.50
642.31	40605.95
642.45	40451.48
642.60	40465.52
642.75	40495.95
642.90	40517.01
643.04	40746.39
643.19	40343.81
643.34	40648.08
643.48	40273.60
643.63	40187.00
643.78	40282.96
643.93	40219.77
644.07	40648.08
644.22	40325.09
644.37	39896.77
644.51	40367.22
644.66	40615.32
644.81	40624.68
644.95	40545.10
645.10	40142.53
645.25	40545.10
645.39	40449.14
645.54	40421.05
645.69	39934.22
645.83	39873.37
645.98	40355.52
646.13	40191.68
646.27	39995.07
646.42	40126.14
646.57	40184.66
646.71	39290.57
646.86	39583.14
647.00	39981.03
647.15	40154.23
647.30	39463.77
647.44	39711.87
647.59	39351.43
647.74	39845.28
647.88	39744.64
648.03	39955.29
648.17	39512.92
648.32	38960.56
648.47	39384.19
648.61	39433.35
648.76	39655.70
648.90	39075.24
649.05	39571.44
649.20	39468.45
649.34	39269.51
649.49	39325.68
649.63	38820.13
649.78	39138.44
649.92	39028.43
650.07	39201.63
650.21	39082.27
650.36	39344.41
650.51	38876.30
650.65	39646.33
650.80	39758.68
650.94	39789.11
651.09	39019.07
651.23	39049.50
651.38	38930.13
651.52	39274.19
651.67	38960.56
651.81	39147.80
651.96	38838.85
652.10	39119.71
652.25	38354.36
652.39	38712.46
652.54	38806.08
652.68	38883.32
652.83	38785.02
652.97	39042.48
653.12	39063.54
653.26	38707.78
653.41	38419.89
653.55	38794.38
653.70	38845.87
653.84	38827.15
653.99	38710.12
654.13	38412.87
654.27	38616.50
654.42	37801.99
654.56	38368.40
654.71	38581.39
654.85	38298.19
655.00	38660.97
655.14	37820.72
655.29	37862.85
655.43	38237.33
655.57	37680.28
655.72	37401.76
655.86	37675.60
656.01	37727.10
656.15	37380.70
656.30	37551.56
656.44	37893.27
656.58	37895.61
656.73	37816.04
656.87	37762.20
657.01	38316.91
657.16	37961.15
657.30	37872.21
657.45	37647.52
657.59	37439.21
657.73	37237.92
657.88	38181.16
658.02	38026.68
658.16	38328.61
658.31	37951.79
658.45	37523.47
658.60	37589.00
658.74	37818.38
658.88	37584.32
659.03	37528.15
659.17	37376.01
659.31	37216.86
659.46	37462.61
659.60	37706.03
659.74	37593.68
659.89	36842.37
660.03	36975.78
660.17	36666.83
660.32	37354.95
660.46	37471.98
660.60	37074.09
660.74	37053.02
660.89	37172.39
661.03	37064.72
661.17	37130.26
661.32	36313.41
661.46	36931.31
661.60	36575.55
661.74	36458.52
661.89	36893.86
662.03	37097.49
662.17	36636.41
662.31	36264.26
662.46	36811.95
662.60	36708.96
662.74	36601.30
662.88	36236.17
663.03	35906.16
663.17	36287.67
663.31	35988.08
663.45	36002.12
663.60	35969.35
663.74	35608.91
663.88	35887.43
664.02	35688.49
664.17	36282.98
664.31	35604.23
664.45	36112.13
664.59	35674.45
664.73	35775.09
664.88	35496.56
665.02	35899.14
665.16	35487.20
665.30	35550.40
665.44	35178.25
665.59	35129.10
665.73	35337.41
665.87	35353.79
666.01	34962.92
666.15	35260.17
666.29	34941.86
666.44	35412.31
666.58	34998.03
666.72	34920.79
666.86	35185.27
667.00	34771.00
667.14	34721.85
667.28	34679.72
667.43	34714.83
667.57	34691.42
667.71	34546.31
667.85	34429.28
667.99	34550.99
668.13	34476.09
668.27	34155.44
668.41	34742.91
668.56	34223.31
668.70	34466.73
668.84	33958.83
668.98	33724.78
669.12	33797.34
669.26	33914.36
669.40	33614.77
669.54	34071.18
669.68	33741.16
669.82	33586.69
669.96	33429.87
670.10	33385.40
670.25	33832.44
670.39	33303.48
670.53	33219.22
670.67	33022.62
670.81	33619.46
670.95	33406.47
671.09	33202.84
671.23	33282.42
671.37	33254.33
671.51	32826.01
671.65	32804.95
671.79	32552.17
671.93	32699.62
672.07	33214.54
672.21	33181.77
672.35	32617.71
672.49	32837.72
672.63	33010.92
672.77	32273.65
672.91	32320.46
673.05	32418.76
673.19	32680.90
673.33	32245.56
673.47	31859.37
673.61	31981.08
673.75	31711.92
673.89	31910.86
674.03	31948.31
674.17	31360.84
674.31	31449.78
674.45	31367.86
674.59	31761.07
674.73	31931.93
674.87	31438.08
675.01	31508.29
675.15	31360.84
675.29	31421.69
675.43	31126.78
675.56	31098.70
675.70	30941.88
675.84	31072.95
675.98	30260.79
676.12	30859.96
676.26	30675.06
676.40	30686.76
676.54	30726.55
676.68	30838.90
676.82	29809.06
676.96	30560.37
677.10	29930.77
677.23	30190.57
677.37	30052.48
677.51	30005.67
677.65	29799.70
677.79	29642.88
677.93	29703.74
678.07	29385.43
678.21	29067.11
678.34	29385.43
678.48	29146.69
678.62	29202.86
678.76	29062.43
678.90	28807.31
679.04	28599.01
679.18	29022.64
679.31	28290.06
679.45	28521.77
679.59	28261.97
679.73	28463.25
679.87	28290.06
680.00	28112.17
680.14	28322.82
680.28	27974.08
680.42	27985.79
680.56	27971.74
680.70	27709.60
680.83	28032.60
680.97	27833.65
681.11	27775.14
681.25	27143.19
681.39	27597.26
681.52	27695.56
681.66	27615.98
681.80	27222.77
681.94	27218.09
682.07	27129.15
682.21	27140.85
682.35	26827.22
682.49	26925.52
682.62	26911.48
682.76	26607.21
682.90	26761.69
683.04	26324.01
683.17	26356.77
683.31	25972.92
683.45	25970.58
683.59	26038.46
683.72	25937.82
683.86	25944.84
684.00	25867.60
684.13	25661.63
684.27	25748.23
684.41	25565.67
684.55	25137.35
684.68	25469.71
684.82	25572.69
684.96	25755.26
685.09	25130.33
685.23	24996.92
685.37	25142.03
685.50	25043.73
685.64	24821.38
685.78	24755.85
685.91	24781.59
686.05	24290.08
686.19	24383.70
686.32	24381.36
686.46	23742.39
686.60	23892.19
686.73	23555.15
686.87	23669.84
687.01	23489.62
687.14	23213.43
687.28	23058.96
687.42	23384.29
687.55	23480.25
687.69	23871.12
687.82	23168.96
687.96	23386.63
688.10	23220.45
688.23	23126.83
688.37	22635.32
688.50	22473.82
688.64	22775.75
688.78	22895.12
688.91	22733.62
689.05	22562.76
689.18	22597.87
689.32	22033.80
689.46	21965.93
689.59	22396.59
689.73	22249.13
689.86	22338.07
690.00	21886.35
690.13	21937.84
690.27	21832.52
690.41	21656.98
690.54	21406.54
690.68	21624.21
690.81	21558.67
690.95	21565.70
691.08	20882.26
691.22	21245.04
691.35	21352.71
691.49	21664.00
691.62	21165.46
691.76	20936.09
691.89	21118.65
692.03	20900.98
692.16	20793.32
692.30	20776.94
692.43	20636.50
692.57	20374.36
692.70	20386.07
692.84	20418.83
692.97	20133.29
693.11	20065.41
693.24	19953.07
693.38	20205.84
693.51	19836.04
693.65	20184.78
693.78	19934.34
693.92	19639.44
694.05	19964.77
694.19	19742.42
694.32	19360.91
694.45	19316.44
694.59	18831.95
694.72	18895.14
694.86	19201.76
694.99	18956.00
695.13	18911.53
695.26	18883.44
695.39	18787.48
695.53	18829.61
695.66	18747.69
695.80	18850.67
695.93	18801.52
696.07	18616.62
696.20	18546.40
696.33	18087.66
696.47	18190.64
696.60	18129.79
696.73	18019.78
696.87	18080.64
697.00	17970.63
697.14	17818.50
697.27	18052.55
697.40	17565.72
697.54	17809.14
697.67	17476.78
697.80	17666.36
697.94	17020.38
698.07	17165.49
698.21	17111.66
698.34	17088.25
698.47	17130.38
698.61	17104.64
698.74	16769.94
698.87	16638.87
699.01	16709.08
699.14	16669.30
699.27	16468.01
699.40	16496.10
699.54	16390.77
699.67	16514.82
699.80	16418.86
699.94	16690.36
700.07	16470.35
700.20	15939.05
700.34	16016.29
700.47	16063.10
700.60	16325.24
700.73	15990.54
700.87	15892.24
701.00	15976.50
701.13	15747.12
701.26	15758.83
701.40	15543.50
701.53	15522.43
701.66	15637.12
701.79	15330.51
701.93	15351.57
702.06	15201.78
702.19	15007.52
702.32	14902.19
702.46	14965.39
702.59	15005.17
702.72	14794.53
702.85	14913.89
702.99	15012.20
703.12	14546.43
703.25	14764.10
703.38	14560.47
703.51	14305.35
703.65	14279.61
703.78	14633.03
703.91	14436.42
704.04	14157.90
704.17	14230.46
704.31	14427.06
704.44	14026.83
704.57	14040.87
704.70	14061.94
704.83	13973.00
704.96	13935.55
705.10	13743.63
705.23	13673.41
>>>>>End Processed Spectral Data<<<<<
