SpectraSuite Data File
++++++++++++++++++++++++++++++++++++
Date: Thu Oct 24 13:21:20 EDT 2013
User: stostad
Dark Spectrum Present: No
Reference Spectrum Present: No
Number of Sampled Component Spectra: 1
Spectrometers: USB2+H05261
Integration Time (usec): 100000 (USB2+H05261)
Spectra Averaged: 1 (USB2+H05261)
Boxcar Smoothing: 0 (USB2+H05261)
Correct for Electrical Dark: No (USB2+H05261)
Strobe/Lamp Enabled: No (USB2+H05261)
Correct for Detector Non-linearity: No (USB2+H05261)
Correct for Stray Light: No (USB2+H05261)
Number of Pixels in Processed Spectrum: 2048
>>>>>Begin Processed Spectral Data<<<<<
365.73	578.11
365.92	578.11
366.12	578.11
366.32	475.13
366.52	484.49
366.72	472.79
366.91	493.85
367.11	463.43
367.31	461.09
367.51	449.38
367.70	404.91
367.90	461.09
368.10	458.74
368.30	465.77
368.49	472.79
368.69	491.51
368.89	489.17
369.09	433.00
369.28	468.11
369.48	447.04
369.68	601.52
369.87	554.71
370.07	510.24
370.27	587.47
370.47	657.69
370.66	779.40
370.86	844.93
371.06	823.87
371.25	833.23
371.45	889.40
371.65	903.45
371.84	912.81
372.04	917.49
372.24	912.81
372.44	964.30
372.63	919.83
372.83	891.74
373.03	905.79
373.22	917.49
373.42	940.90
373.62	983.02
373.81	973.66
374.01	929.19
374.21	976.00
374.40	1067.28
374.60	1090.69
374.79	1008.77
374.99	964.30
375.19	936.21
375.38	973.66
375.58	1043.88
375.78	1076.65
375.97	919.83
376.17	990.05
376.37	1022.81
376.56	990.05
376.76	1067.28
376.95	1029.84
377.15	1036.86
377.35	1050.90
377.54	1046.22
377.74	1036.86
377.93	961.96
378.13	1029.84
378.33	1118.78
378.52	1013.45
378.72	1029.84
378.91	1069.62
379.11	1095.37
379.31	1067.28
379.50	1069.62
379.70	1053.24
379.89	1067.28
380.09	1095.37
380.28	1165.59
380.48	1144.52
380.68	1111.75
380.87	1015.79
381.07	1074.31
381.26	1114.10
381.46	1181.97
381.65	1043.88
381.85	1214.74
382.04	1121.12
382.24	1156.22
382.43	1146.86
382.63	1102.39
382.83	1146.86
383.02	1214.74
383.22	1196.01
383.41	1172.61
383.61	1226.44
383.80	1163.25
384.00	1163.25
384.19	1217.08
384.39	1160.91
384.58	1184.31
384.78	1153.88
384.97	1179.63
385.17	1228.78
385.36	1205.38
385.56	1256.87
385.75	1181.97
385.95	1247.51
386.14	1268.57
386.34	1219.42
386.53	1238.14
386.72	1174.95
386.92	1289.64
387.11	1212.40
387.31	1296.66
387.50	1291.98
387.70	1348.15
387.89	1270.91
388.09	1299.00
388.28	1301.34
388.48	1310.70
388.67	1299.00
388.86	1270.91
389.06	1357.51
389.25	1301.34
389.45	1327.08
389.64	1296.66
389.84	1345.81
390.03	1385.60
390.22	1437.09
390.42	1352.83
390.61	1399.64
390.81	1378.58
391.00	1357.51
391.19	1329.42
391.39	1430.07
391.58	1458.15
391.78	1348.15
391.97	1441.77
392.16	1427.73
392.36	1369.21
392.55	1467.52
392.75	1434.75
392.94	1430.07
393.13	1472.20
393.33	1540.07
393.52	1469.86
393.71	1469.86
393.91	1526.03
394.10	1495.60
394.29	1486.24
394.49	1535.39
394.68	1523.69
394.88	1612.63
395.07	1500.28
395.26	1600.93
395.46	1554.12
395.65	1504.96
395.84	1586.88
396.04	1664.12
396.23	1579.86
396.42	1661.78
396.62	1584.54
396.81	1636.03
397.00	1624.33
397.19	1591.56
397.39	1605.61
397.58	1586.88
397.77	1633.69
397.97	1724.97
398.16	1659.44
398.35	1774.13
398.55	1664.12
398.74	1767.10
398.93	1799.87
399.12	1764.76
399.32	1741.36
399.51	1760.08
399.70	1739.02
399.90	1858.39
400.09	1776.47
400.28	1888.81
400.47	1851.36
400.67	1774.13
400.86	1877.11
401.05	1886.47
401.24	1844.34
401.44	1902.86
401.63	1923.92
401.82	1872.43
402.01	1937.96
402.21	1942.64
402.40	2029.24
402.59	1933.28
402.78	1872.43
402.97	2019.88
403.17	1994.14
403.36	1952.01
403.55	1944.99
403.74	2012.86
403.93	2033.93
404.13	2132.23
404.32	2094.78
404.51	2066.69
404.70	2115.84
404.89	2094.78
405.09	2157.97
405.28	2113.50
405.47	2216.49
405.66	2211.81
405.85	2200.10
406.05	2174.36
406.24	2153.29
406.43	2303.09
406.62	2221.17
406.81	2223.51
407.00	2197.76
407.20	2209.47
407.39	2267.98
407.58	2394.37
407.77	2286.70
407.96	2359.26
408.15	2415.43
408.34	2298.41
408.54	2394.37
408.73	2476.29
408.92	2469.27
409.11	2565.23
409.30	2389.69
409.49	2532.46
409.68	2466.92
409.87	2466.92
410.07	2574.59
410.26	2473.95
410.45	2480.97
410.64	2527.78
410.83	2576.93
411.02	2705.66
411.21	2640.12
411.40	2633.10
411.59	2668.21
411.78	2740.77
411.98	2808.64
412.17	2724.38
412.36	2754.81
412.55	2825.03
412.74	2726.72
412.93	2890.56
413.12	2829.71
413.31	2988.86
413.50	2944.39
413.69	2836.73
413.88	3068.44
414.07	3012.27
414.26	2885.88
414.45	3082.49
414.64	3026.31
414.83	3145.68
415.02	3047.38
415.22	3180.79
415.41	3138.66
415.60	3225.26
415.79	3236.96
415.98	3232.28
416.17	3269.73
416.36	3314.20
416.55	3208.87
416.74	3283.77
416.93	3297.81
417.12	3384.41
417.31	3375.05
417.50	3311.86
417.69	3426.54
417.88	3468.67
418.07	3342.28
418.26	3461.65
418.45	3494.42
418.64	3588.04
418.83	3529.53
419.02	3630.17
419.21	3672.30
419.39	3508.46
419.58	3555.27
419.77	3585.70
419.96	3672.30
420.15	3646.55
420.34	3740.18
420.53	3836.14
420.72	3716.77
420.91	3763.58
421.10	3758.90
421.29	3885.29
421.48	3669.96
421.67	3538.89
421.86	3723.79
422.05	3749.54
422.24	3784.65
422.43	3777.62
422.61	4039.76
422.80	3925.08
422.99	3995.29
423.18	3777.62
423.37	3922.74
423.56	3901.67
423.75	3950.82
423.94	3878.27
424.13	3651.24
424.32	3868.91
424.50	4007.00
424.69	3934.44
424.88	3960.19
425.07	3866.56
425.26	3880.61
425.45	3824.44
425.64	4060.83
425.83	3934.44
426.01	4037.42
426.20	4105.30
426.39	4002.32
426.58	3992.95
426.77	3974.23
426.96	3971.89
427.15	4072.53
427.33	4037.42
427.52	4100.62
427.71	4117.00
427.90	4131.05
428.09	4198.92
428.28	4161.47
428.46	4255.09
428.65	4142.75
428.84	4299.56
429.03	4381.48
429.22	4184.88
429.40	4311.27
429.59	4234.03
429.78	4224.67
429.97	4264.46
430.16	4299.56
430.34	4414.25
430.53	4465.74
430.72	4395.53
430.91	4468.08
431.10	4329.99
431.28	4582.77
431.47	4575.75
431.66	4627.24
431.85	4304.25
432.03	4533.62
432.22	4662.35
432.41	4629.58
432.60	4510.21
432.79	4674.05
432.97	4498.51
433.16	4634.26
433.35	4531.28
433.54	4697.46
433.72	4706.82
433.91	4702.14
434.10	4695.11
434.28	4589.79
434.47	4788.74
434.66	4830.87
434.85	4992.36
435.03	5025.13
435.22	5083.64
435.41	5188.97
435.59	5270.89
435.78	5116.41
435.97	5158.54
436.16	5022.79
436.34	5039.17
436.53	5027.47
436.72	5139.82
436.90	4938.53
437.09	5177.26
437.28	4973.64
437.46	5088.32
437.65	5149.18
437.84	5160.88
438.02	5130.45
438.21	5303.65
438.40	5224.08
438.58	5404.30
438.77	5397.28
438.96	5247.48
439.14	5408.98
439.33	5565.79
439.52	5476.85
439.70	5504.94
439.89	5563.45
440.08	5689.84
440.26	5703.89
440.45	5476.85
440.63	5624.31
440.82	5783.46
441.01	5624.31
441.19	5762.40
441.38	6076.03
441.57	5830.27
441.75	5898.15
441.94	6171.99
442.12	5949.64
442.31	5928.58
442.50	6054.97
442.68	5940.28
442.87	6097.10
443.05	6193.06
443.24	6083.05
443.43	6260.93
443.61	5994.11
443.80	6272.64
443.98	6104.12
444.17	5996.45
444.35	6195.40
444.54	6317.11
444.73	6202.42
444.91	6415.41
445.10	6277.32
445.28	6274.98
445.47	6129.86
445.65	6218.80
445.84	6406.05
446.02	6558.18
446.21	6270.30
446.39	6431.79
446.58	6567.54
446.77	6478.60
446.95	6305.40
447.14	6565.20
447.32	6513.71
447.51	6422.43
447.69	6174.33
447.88	6431.79
448.06	6462.22
448.25	6457.54
448.43	6417.75
448.62	6525.41
448.80	6471.58
448.99	6410.73
449.17	6651.80
449.36	6532.44
449.54	6637.76
449.73	6782.87
449.91	6817.98
450.10	6846.07
450.28	6757.13
450.46	6677.55
450.65	6775.85
450.83	6899.90
451.02	6619.04
451.20	6815.64
451.39	6740.74
451.57	6829.68
451.76	6764.15
451.94	6778.19
452.13	7082.46
452.31	6836.70
452.49	6939.69
452.68	7052.03
452.86	7192.47
453.05	7073.10
453.23	6993.52
453.42	7056.72
453.60	7077.78
453.78	7192.47
453.97	7016.93
454.15	6979.48
454.34	7002.88
454.52	7389.07
454.70	7279.07
454.89	7246.30
455.07	7243.96
455.26	7356.30
455.44	7356.30
455.62	7496.74
455.81	7494.40
455.99	7501.42
456.17	7473.33
456.36	7552.91
456.54	7723.77
456.73	7726.11
456.91	7763.56
457.09	7595.04
457.28	7908.67
457.46	7651.21
457.64	7758.88
457.83	7726.11
458.01	7714.41
458.19	7953.14
458.38	7796.32
458.56	8016.33
458.74	7985.91
458.93	7913.35
459.11	7995.27
459.29	7894.63
459.48	8063.15
459.66	8107.62
459.84	8056.12
460.03	8159.11
460.21	8147.40
460.39	8140.38
460.57	8114.64
460.76	8259.75
460.94	8287.84
461.12	8339.33
461.31	8124.00
461.49	8219.96
461.67	8353.37
461.85	8423.59
462.04	8262.09
462.22	8702.11
462.40	8362.73
462.59	8585.08
462.77	8393.16
462.95	8435.29
463.13	8404.86
463.32	8461.04
463.50	8854.25
463.68	8620.19
463.86	8589.77
464.05	8617.85
464.23	8678.71
464.41	8711.47
464.59	8629.56
464.78	8730.20
464.96	8744.24
465.14	8854.25
465.32	8769.99
465.50	8781.69
465.69	8758.28
465.87	8889.35
466.05	8652.96
466.23	8915.10
466.41	8910.42
466.60	9249.80
466.78	8982.98
466.96	9107.02
467.14	8854.25
467.32	9268.52
467.51	8964.25
467.69	8931.48
467.87	8943.19
468.05	9296.61
468.23	8999.36
468.41	9284.91
468.60	9235.75
468.78	9235.75
468.96	9357.46
469.14	9434.70
469.32	9446.40
469.50	9240.44
469.69	9322.35
469.87	9584.49
470.05	9633.64
470.23	9565.77
470.41	9713.22
470.59	9652.37
470.77	9549.39
470.95	9493.21
471.14	9989.41
471.32	9755.35
471.50	9813.87
471.68	9837.27
471.86	10010.47
472.04	9963.66
472.22	10080.69
472.40	9949.62
472.58	10190.69
472.77	10129.84
472.95	10068.98
473.13	10373.25
473.31	10272.61
473.49	10277.29
473.67	10396.66
473.85	10436.45
474.03	10677.52
474.21	10698.59
474.39	10567.52
474.57	10527.73
474.75	10841.36
474.93	10930.30
475.12	11005.20
475.30	10848.38
475.48	10778.17
475.66	11122.23
475.84	10848.38
476.02	10958.39
476.20	11089.46
476.38	11206.48
476.56	11562.25
476.74	11351.60
476.92	11410.11
477.10	11552.88
477.28	11761.19
477.46	11796.30
477.64	11871.20
477.82	11740.13
478.00	12053.76
478.18	12107.59
478.36	12170.79
478.54	12524.21
478.72	12334.62
478.90	12404.84
479.08	12566.34
479.26	12676.34
479.44	12711.45
479.62	12812.09
479.80	12891.67
479.98	12751.24
480.16	13334.03
480.34	13191.26
480.52	13411.27
480.70	13444.04
480.88	13067.21
481.06	13460.42
481.24	13575.11
481.41	13752.99
481.59	13738.94
481.77	13987.04
481.95	13977.68
482.13	14197.69
482.31	14071.30
482.49	14413.02
482.67	14427.06
482.85	14588.56
483.03	14740.69
483.21	14857.72
483.39	14958.36
483.57	15066.03
483.74	15126.88
483.92	15356.25
484.10	15566.90
484.28	15536.48
484.46	15669.89
484.64	15936.71
484.82	15868.83
485.00	15864.15
485.18	16299.49
485.35	16421.20
485.53	16610.78
485.71	16493.76
485.89	16793.34
486.07	16556.95
486.25	16807.39
486.43	16800.37
486.61	17074.21
486.78	17109.32
486.96	17341.03
487.14	17467.42
487.32	17750.62
487.50	17649.98
487.68	17635.94
487.85	18078.30
488.03	18099.36
488.21	18319.37
488.39	18038.51
488.57	18539.38
488.75	18633.00
488.92	18766.42
489.10	18977.06
489.28	19005.15
489.46	19271.97
489.64	19269.63
489.81	19639.44
489.99	19578.58
490.17	19770.51
490.35	19772.85
490.53	20147.33
490.70	20292.44
490.88	20255.00
491.06	20407.13
491.24	20205.84
491.41	20739.49
491.59	20730.12
491.77	21083.55
491.95	20917.37
492.13	21387.82
492.30	21291.85
492.48	21341.00
492.66	21214.62
492.84	21612.51
493.01	21661.66
493.19	21694.43
493.37	22092.32
493.54	21869.97
493.72	22094.66
493.90	22384.88
494.08	22450.42
494.25	22530.00
494.43	22522.98
494.61	22635.32
494.79	22710.22
494.96	22855.33
495.14	23152.58
495.32	23274.29
495.49	23487.28
495.67	23309.40
495.85	23747.08
496.02	23740.05
496.20	24205.82
496.38	23967.09
496.55	24013.90
496.73	24814.36
496.91	24716.06
497.09	24615.41
497.26	24587.33
497.44	24568.60
497.62	24861.17
497.79	25135.01
497.97	25212.25
498.14	25364.39
498.32	25429.92
498.50	25474.39
498.67	25525.88
498.85	25373.75
499.03	25895.69
499.20	25811.43
499.38	25970.58
499.56	26513.59
499.73	26199.96
499.91	26302.94
500.08	26366.13
500.26	26499.55
500.44	26459.76
500.61	26754.66
500.79	26787.43
500.97	26965.31
501.14	27145.53
501.32	27374.91
501.49	27154.90
501.67	27580.87
501.84	27459.16
502.02	27702.58
502.20	27208.73
502.37	28009.19
502.55	27693.22
502.72	27651.09
502.90	28109.83
503.07	27885.14
503.25	28163.67
503.43	27955.36
503.60	28273.67
503.78	28418.78
503.95	28479.64
504.13	28348.57
504.30	28716.03
504.48	28643.48
504.65	28858.81
504.83	28851.78
505.01	29137.33
505.18	29029.66
505.36	29247.33
505.53	29294.14
505.71	29390.11
505.88	29315.21
506.06	29453.30
506.23	29659.27
506.41	29371.38
506.58	29476.71
506.76	29593.73
506.93	30272.49
507.11	29769.27
507.28	30455.05
507.46	30433.99
507.63	30607.19
507.81	30326.32
507.98	29855.87
508.16	30384.83
508.33	30242.06
508.50	30600.16
508.68	30850.60
508.85	31119.76
509.03	31182.96
509.20	30810.81
509.38	31236.79
509.55	31536.38
509.73	31934.27
509.90	31606.59
510.08	31648.72
510.25	31225.09
510.42	31756.39
510.60	31599.57
510.77	32098.11
510.95	32081.72
511.12	32051.30
511.30	32435.14
511.47	32203.43
511.64	32376.63
511.82	32664.52
511.99	32629.41
512.17	32044.27
512.34	32744.09
512.51	32833.04
512.69	32725.37
512.86	33120.92
513.04	33343.27
513.21	33031.98
513.38	33165.39
513.56	33537.54
513.73	33401.79
513.90	33493.07
514.08	33399.44
514.25	33937.77
514.43	33951.81
514.60	33677.97
514.77	33902.66
514.95	33816.06
515.12	33820.74
515.29	33874.57
515.47	34029.05
515.64	34646.95
515.81	33961.17
515.99	34536.94
516.16	34426.94
516.33	34448.00
516.51	34892.71
516.68	34412.90
516.85	34717.17
517.03	34965.26
517.20	34675.04
517.37	34789.72
517.54	34930.16
517.72	34738.23
517.89	34859.94
518.06	35159.53
518.24	36020.84
518.41	35306.98
518.58	35353.79
518.75	35681.47
518.93	35608.91
519.10	35412.31
519.27	35641.68
519.45	35913.18
519.62	36107.44
519.79	36130.85
519.96	36018.50
520.14	36212.77
520.31	35550.40
520.48	36112.13
520.65	36411.71
520.83	36519.38
521.00	36825.99
521.17	36449.16
521.34	36596.62
521.52	36781.52
521.69	36556.83
521.86	36748.75
522.03	36678.54
522.20	36903.23
522.38	37376.01
522.55	37350.27
522.72	37165.37
522.89	36605.98
523.07	37244.94
523.24	37240.26
523.41	37696.67
523.58	37134.94
523.75	38148.39
523.92	37589.00
524.10	38014.98
524.27	37701.35
524.44	38153.07
524.61	37853.48
524.78	38022.00
524.96	38064.13
525.13	38305.21
525.30	38220.95
525.47	38799.06
525.64	38440.96
525.81	38293.50
525.98	38911.41
526.16	37942.42
526.33	38721.82
526.50	38597.77
526.67	38759.27
526.84	39093.97
527.01	39241.42
527.18	38873.96
527.36	39185.25
527.53	39241.42
527.70	39707.19
527.87	38995.67
528.04	39143.12
528.21	39772.72
528.38	39564.42
528.55	39761.02
528.72	39402.92
528.89	39393.56
529.07	39452.07
529.24	39613.57
529.41	39903.79
529.58	39519.95
529.75	39800.81
529.92	39632.29
530.09	40257.21
530.26	40123.80
530.43	39744.64
530.60	39782.09
530.77	40053.59
530.94	40130.83
531.11	40652.76
531.28	40477.22
531.46	40968.74
531.63	40514.67
531.80	40608.29
531.97	40563.82
532.14	40830.65
532.31	40318.07
532.48	40762.77
532.65	41003.85
532.82	40577.87
532.99	40994.48
533.16	41062.36
533.33	41329.18
533.50	41104.49
533.67	41500.04
533.84	41357.27
534.01	41174.70
534.18	41352.58
534.35	41710.69
534.52	41347.90
534.69	41500.04
534.86	41624.09
535.03	41390.03
535.20	41851.12
535.37	41588.98
535.54	42064.11
535.71	41888.57
535.88	42089.85
536.05	42462.00
536.22	42597.75
536.38	42146.03
536.55	42064.11
536.72	41897.93
536.89	42183.48
537.06	42398.80
537.23	42597.75
537.40	42581.37
537.57	42314.55
537.74	42499.45
537.91	42574.34
538.08	42670.31
538.25	42206.88
538.42	42644.56
538.59	43112.67
538.75	42682.01
538.92	42536.90
539.09	43147.78
539.26	42588.39
539.43	43037.77
539.60	43171.18
539.77	43161.82
539.94	43714.19
540.11	43667.37
540.28	43232.04
540.44	43564.39
540.61	43707.16
540.78	43445.02
540.95	43662.69
541.12	43618.22
541.29	43377.15
541.46	43606.52
541.62	44086.33
541.79	43910.79
541.96	43643.97
542.13	43505.88
542.30	43920.15
542.47	44093.35
542.63	44243.15
542.80	44018.46
542.97	44828.28
543.14	44861.05
543.31	44643.38
543.48	44519.33
543.64	44793.17
543.81	44701.89
543.98	44488.90
544.15	44704.23
544.32	44912.54
544.48	45265.96
544.65	45088.08
544.82	45017.86
544.99	44481.88
545.16	44924.24
545.32	45064.67
545.49	45485.97
545.66	45731.73
545.83	45771.52
546.00	45771.52
546.16	46005.57
546.33	45652.15
546.50	45015.52
546.67	45390.01
546.83	45291.71
547.00	45155.96
547.17	45177.02
547.34	45556.19
547.50	44973.39
547.67	45823.01
547.84	45694.28
548.00	46003.23
548.17	45961.10
548.34	45460.23
548.51	46024.29
548.67	45790.24
548.84	46061.74
549.01	45928.33
549.18	45675.55
549.34	45844.07
549.51	46092.17
549.68	46024.29
549.84	46270.05
550.01	45937.69
550.18	45841.73
550.34	45970.46
550.51	45511.72
550.68	46050.04
550.84	45876.84
551.01	45773.86
551.18	46019.61
551.34	45617.04
551.51	45483.63
551.68	46632.83
551.84	46096.85
552.01	45982.16
552.18	46281.75
552.34	46408.14
552.51	46712.41
552.68	46836.46
552.84	46827.10
553.01	46522.83
553.18	46869.23
553.34	46394.10
553.51	46508.79
553.67	46794.33
553.84	47072.85
554.01	47274.14
554.17	47107.96
554.34	46934.76
554.51	47000.30
554.67	46878.59
554.84	46789.65
555.00	46670.28
555.17	46497.08
555.33	47026.04
555.50	47049.45
555.67	47246.05
555.83	46948.81
556.00	47012.00
556.16	47608.84
556.33	47201.58
556.50	47166.48
556.66	47239.03
556.83	46588.36
556.99	47522.24
557.16	47648.63
557.32	47819.49
557.49	47985.66
557.65	47388.83
557.82	47447.34
557.98	47320.95
558.15	47004.98
558.32	47592.45
558.48	47157.11
558.65	47498.83
558.81	48030.13
558.98	47784.38
559.14	47650.97
559.31	47683.73
559.47	47358.40
559.64	47945.87
559.80	47903.74
559.97	47356.06
560.13	47901.40
560.30	47629.90
560.46	48030.13
560.63	47805.44
560.79	48069.92
560.96	48086.31
561.12	47512.88
561.29	48170.57
561.45	47908.43
561.61	48179.93
561.78	47948.21
561.94	47662.67
562.11	48425.68
562.27	48449.09
562.44	48353.13
562.60	48233.76
562.77	48603.56
562.93	47665.01
563.10	48554.41
563.26	47803.10
563.42	48177.59
563.59	48488.88
563.75	48418.66
563.92	48825.92
564.08	48224.40
564.24	48362.49
564.41	48406.96
564.57	48636.33
564.74	48378.87
564.90	48470.15
565.07	48336.74
565.23	48725.27
565.39	48477.18
565.56	48814.21
565.72	48327.38
565.88	48793.15
566.05	48842.30
566.21	48236.10
566.38	48336.74
566.54	48713.57
566.70	48772.08
566.87	48809.53
567.03	48662.08
567.19	48896.13
567.36	48978.05
567.52	48793.15
567.68	48678.46
567.85	48713.57
568.01	48870.39
568.17	48687.82
568.34	48882.09
568.50	48619.95
568.66	48664.42
568.83	49186.36
568.99	48795.49
569.15	48842.30
569.32	48919.54
569.48	48659.74
569.64	48790.81
569.81	49081.03
569.97	48348.45
570.13	48783.79
570.30	48856.34
570.46	48968.69
570.62	48903.15
570.78	48472.49
570.95	48638.67
571.11	49265.94
571.27	48638.67
571.43	48800.17
571.60	48545.05
571.76	48926.56
571.92	49109.12
572.09	49329.13
572.25	49258.91
572.41	49413.39
572.57	49006.14
572.74	49464.88
572.90	48531.01
573.06	49279.98
573.22	48554.41
573.38	48926.56
573.55	48917.20
573.71	49411.05
573.87	49368.92
574.03	48978.05
574.20	49397.01
574.36	49457.86
574.52	49476.58
574.68	48872.73
574.84	49177.00
575.01	49528.08
575.17	49317.43
575.33	49265.94
575.49	49162.95
575.65	49436.80
575.82	49605.31
575.98	49331.47
576.14	49336.15
576.30	49565.52
576.46	49319.77
576.62	49357.22
576.79	49499.99
576.95	49287.00
577.11	49347.86
577.27	49652.12
577.43	49401.69
577.59	49422.75
577.75	49696.59
577.92	48928.90
578.08	49148.91
578.24	49591.27
578.40	49425.09
578.56	49649.78
578.72	49144.23
578.88	49694.25
579.04	49518.71
579.21	49308.07
579.37	50136.62
579.53	49951.71
579.69	49233.17
579.85	49738.72
580.01	49610.00
580.17	49752.77
580.33	49347.86
580.49	49560.84
580.65	49565.52
580.82	49427.43
580.98	49429.77
581.14	49471.90
581.30	49858.09
581.46	49329.13
581.62	49270.62
581.78	49542.12
581.94	49345.51
582.10	49179.34
582.26	49860.43
582.42	49778.51
582.58	49324.45
582.74	49586.59
582.90	49092.74
583.06	49794.90
583.22	49748.09
583.38	49469.56
583.54	49294.02
583.70	49228.49
583.86	49659.15
584.02	49544.46
584.18	49684.89
584.34	49696.59
584.50	49525.74
584.66	49343.17
584.82	49492.97
584.98	49443.82
585.14	49420.41
585.30	49673.19
585.46	49635.74
585.62	49270.62
585.78	49820.64
585.94	49656.81
586.10	50082.78
586.26	49897.88
586.42	50150.66
586.58	49911.92
586.74	49745.75
586.90	49624.04
587.06	49628.72
587.22	50237.26
587.38	49902.56
587.54	50192.79
587.70	50391.73
587.86	50052.36
588.02	49904.90
588.18	50377.69
588.34	50047.68
588.49	49972.78
588.65	49701.28
588.81	49694.25
588.97	49935.33
589.13	49944.69
589.29	49963.42
589.45	50115.55
589.61	50012.57
589.77	50064.06
589.93	49703.62
590.08	50124.91
590.24	49837.03
590.40	50232.58
590.56	50145.98
590.72	49984.48
590.88	50134.28
591.04	49633.40
591.20	50108.53
591.35	50136.62
591.51	50665.58
591.67	50443.23
591.83	50459.61
591.99	50183.43
592.15	49815.96
592.31	50085.12
592.46	50377.69
592.62	50064.06
592.78	50019.59
592.94	50225.56
593.10	50225.56
593.26	50574.30
593.41	50597.70
593.57	50101.51
593.73	50255.98
593.89	50504.08
594.05	49888.52
594.20	49806.60
594.36	50003.20
594.52	50230.24
594.68	50244.28
594.84	50064.06
594.99	50611.74
595.15	50408.12
595.31	50375.35
595.47	50511.10
595.62	50373.01
595.78	50085.12
595.94	50143.64
596.10	50028.95
596.25	50223.22
596.41	50326.20
596.57	50071.08
596.73	50408.12
596.88	50298.11
597.04	50459.61
597.20	50223.22
597.36	50080.44
597.51	50305.13
597.67	50085.12
597.83	50099.17
597.99	50351.94
598.14	50382.37
598.30	50141.30
598.46	50553.23
598.61	50515.78
598.77	50333.22
598.93	50508.76
599.09	49951.71
599.24	50651.53
599.40	50272.37
599.56	50328.54
599.71	50244.28
599.87	50571.96
600.03	50616.43
600.18	50511.10
600.34	50340.24
600.50	50197.47
600.65	50213.85
600.81	50660.90
600.97	50595.36
601.12	50670.26
601.28	50684.30
601.44	50396.42
601.59	50387.05
601.75	50295.77
601.91	50494.72
602.06	50073.42
602.22	50611.74
602.37	50419.82
602.53	50244.28
602.69	50569.61
602.84	50763.88
603.00	50511.10
603.16	50541.53
603.31	50628.13
603.47	50239.60
603.62	50614.08
603.78	50440.89
603.94	49993.84
604.09	50459.61
604.25	50478.33
604.40	50766.22
604.56	50387.05
604.71	50506.42
604.87	50246.62
605.03	50307.47
605.18	50197.47
605.34	50480.67
605.49	49827.66
605.65	50160.02
605.80	50094.49
605.96	50677.28
606.12	50422.16
606.27	51070.49
606.43	50698.34
606.58	50817.71
606.74	50719.41
606.89	50354.29
607.05	50387.05
607.20	50108.53
607.36	49762.13
607.51	50106.19
607.67	50216.19
607.82	50220.87
607.98	50150.66
608.13	50499.40
608.29	50321.52
608.44	50412.80
608.60	50691.32
608.75	50096.83
608.91	50504.08
609.06	49961.08
609.22	50548.55
609.37	49890.86
609.53	49947.03
609.68	50085.12
609.84	49797.24
609.99	50356.63
610.15	50380.03
610.30	50480.67
610.46	50536.85
610.61	50181.09
610.76	50892.61
610.92	50728.77
611.07	50595.36
611.23	50721.75
611.38	50798.99
611.54	50672.60
611.69	50752.18
611.84	50377.69
612.00	50546.21
612.15	50714.73
612.31	50806.01
612.46	50564.93
612.62	50328.54
612.77	50178.75
612.92	50515.78
613.08	49900.22
613.23	50195.13
613.39	49715.32
613.54	49961.08
613.69	50508.76
613.85	49893.20
614.00	50553.23
614.15	50113.21
614.31	49982.14
614.46	49750.43
614.62	50092.15
614.77	50003.20
614.92	49696.59
615.08	49574.89
615.23	49759.79
615.38	49858.09
615.54	49317.43
615.69	49455.52
615.84	49336.15
616.00	50010.23
616.15	49790.22
616.30	49822.98
616.46	49631.06
616.61	49467.22
616.76	49137.21
616.92	49212.10
617.07	49228.49
617.22	49312.75
617.37	49478.92
617.53	49221.47
617.68	49427.43
617.83	49453.18
617.99	49443.82
618.14	49736.38
618.29	49214.44
618.45	49205.08
618.60	49268.28
618.75	48725.27
618.90	48498.24
619.06	48659.74
619.21	48669.10
619.36	49043.59
619.51	48687.82
619.67	48711.23
619.82	48879.75
619.97	49120.82
620.12	49387.64
620.28	49165.29
620.43	49132.53
620.58	49141.89
620.73	49200.40
620.89	48802.51
621.04	48942.94
621.19	48767.40
621.34	49139.55
621.49	49057.63
621.65	48788.47
621.80	48830.60
621.95	48849.32
622.10	49052.95
622.25	48823.58
622.41	49181.68
622.56	48713.57
622.71	48694.85
622.86	48509.94
623.01	48079.28
623.16	48671.44
623.32	48514.62
623.47	48687.82
623.62	48687.82
623.77	48854.00
623.92	48868.05
624.07	48945.28
624.23	48858.68
624.38	48680.80
624.53	48765.06
624.68	48746.34
624.83	48339.08
624.98	48142.48
625.13	48095.67
625.29	48332.06
625.44	48659.74
625.59	48067.58
625.74	48549.73
625.89	48137.80
626.04	48156.52
626.19	47838.21
626.34	48020.77
626.49	48193.97
626.65	47992.68
626.80	47878.00
626.95	48076.94
627.10	47377.12
627.25	47349.04
627.40	47559.69
627.55	47620.54
627.70	47784.38
627.85	48009.07
628.00	47812.46
628.15	47927.15
628.30	47395.85
628.45	47601.82
628.60	47662.67
628.76	47920.13
628.91	47973.96
629.06	47590.11
629.21	47400.53
629.36	47098.60
629.51	47648.63
629.66	47739.91
629.81	47540.96
629.96	47435.64
630.11	47618.20
630.26	47594.79
630.41	47749.27
630.56	47398.19
630.71	47962.26
630.86	47615.86
631.01	47519.90
631.16	47349.04
631.31	47124.35
631.46	46876.25
631.61	47374.78
631.76	47297.55
631.91	47138.39
632.06	46866.89
632.21	46667.94
632.36	47084.56
632.51	46834.12
632.66	47077.54
632.81	46848.16
632.96	46958.17
633.10	47019.02
633.25	46808.37
633.40	46799.01
633.55	47056.47
633.70	46684.33
633.85	46335.59
634.00	46803.69
634.15	46651.56
634.30	46424.53
634.45	46597.73
634.60	46642.20
634.75	46911.36
634.90	46660.92
635.05	46562.62
635.19	46384.74
635.34	46342.61
635.49	46597.73
635.64	46574.32
635.79	46436.23
635.94	46326.22
636.09	46284.09
636.24	46375.37
636.39	46113.23
636.53	47056.47
636.68	46394.10
636.83	45970.46
636.98	46511.13
637.13	46342.61
637.28	46120.26
637.43	45673.21
637.57	46333.24
637.72	45619.38
637.87	45883.86
638.02	46410.48
638.17	46188.13
638.32	45921.31
638.46	46064.08
638.61	45502.35
638.76	45933.01
638.91	45965.78
639.06	45750.45
639.20	46206.86
639.35	46298.14
639.50	45741.09
639.65	45787.90
639.80	45675.55
639.94	45668.53
640.09	45392.35
640.24	45289.37
640.39	45570.23
640.54	45612.36
640.68	45357.24
640.83	45752.79
640.98	45610.02
641.13	45301.07
641.27	45605.34
641.42	45724.71
641.57	45312.77
641.72	45350.22
641.86	44837.64
642.01	44273.57
642.16	44807.22
642.31	44842.32
642.45	45523.42
642.60	45247.24
642.75	44800.19
642.90	45268.30
643.04	45013.18
643.19	44744.02
643.34	45518.74
643.48	45483.63
643.63	45036.59
643.78	44484.22
643.93	44975.73
644.07	45010.84
644.22	45067.02
644.37	44423.37
644.51	44769.77
644.66	44828.28
644.81	45228.51
644.95	45076.38
645.10	44786.15
645.25	44842.32
645.39	45102.12
645.54	44868.07
645.69	45095.10
645.83	45249.58
645.98	45184.04
646.13	44987.44
646.27	44884.45
646.42	44964.03
646.57	44612.95
646.71	44638.70
646.86	44301.66
647.00	44854.03
647.15	44648.06
647.30	44954.67
647.44	44650.40
647.59	44425.71
647.74	44428.05
647.88	44236.12
648.03	44458.48
648.17	44236.12
648.32	43550.35
648.47	44350.81
648.61	44112.08
648.76	44107.40
648.90	44371.88
649.05	43690.78
649.20	44313.36
649.34	44505.29
649.49	44589.55
649.63	44779.13
649.78	44636.36
649.92	43999.73
650.07	44479.54
650.21	44465.50
650.36	44395.28
650.51	43688.44
650.65	44002.07
650.80	44308.68
650.94	43854.62
651.09	44083.99
651.23	44130.80
651.38	44016.11
651.52	43732.91
651.67	44236.12
651.81	44184.63
651.96	43770.36
652.10	43653.33
652.25	43494.18
652.39	43700.14
652.54	43023.73
652.68	43538.65
652.83	42913.72
652.97	43531.62
653.12	43105.65
653.26	43725.89
653.41	43817.17
653.55	43702.48
653.70	43793.76
653.84	43985.69
653.99	43234.38
654.13	43562.05
654.27	43398.21
654.42	43129.05
654.56	43129.05
654.71	42965.21
654.85	43187.56
655.00	43328.00
655.14	42941.81
655.29	43091.60
655.43	42932.45
655.57	42745.20
655.72	42431.57
655.86	43278.85
656.01	42866.91
656.15	42398.80
656.30	42728.82
656.44	43248.42
656.58	42682.01
656.73	42777.97
656.87	42731.16
657.01	42707.76
657.16	42902.02
657.30	43054.15
657.45	42272.42
657.59	42515.83
657.73	42412.85
657.88	42326.25
658.02	42817.76
658.16	42440.93
658.31	42834.14
658.45	42595.41
658.60	42607.11
658.74	41954.10
658.88	42415.19
659.03	41823.03
659.17	41900.27
659.31	41986.87
659.46	42059.43
659.60	42089.85
659.74	41801.97
659.89	42277.10
660.03	41516.42
660.17	42326.25
660.32	41120.87
660.46	41670.90
660.60	41029.59
660.74	41642.81
660.89	41862.82
661.03	41256.62
661.17	41823.03
661.32	41710.69
661.46	41333.86
661.60	41270.67
661.74	40865.75
661.89	41081.08
662.03	41258.96
662.17	41041.29
662.31	41212.15
662.46	41228.54
662.60	41017.89
662.74	40786.18
662.88	40954.69
663.03	40760.43
663.17	41017.89
663.31	40774.47
663.45	41022.57
663.60	40514.67
663.74	40739.36
663.88	40423.39
664.02	40280.62
664.17	40046.57
664.31	40264.24
664.45	40432.75
664.59	40189.34
664.73	40350.84
664.88	40769.79
665.02	39842.94
665.16	40509.99
665.30	40603.61
665.44	40414.03
665.59	39566.76
665.73	39941.24
665.87	39716.55
666.01	39742.30
666.15	39854.64
666.29	39798.47
666.44	39550.37
666.58	39049.50
666.72	38946.51
666.86	39536.33
667.00	39482.50
667.14	39393.56
667.28	39344.41
667.43	39171.21
667.57	39541.01
667.71	38801.40
667.85	39466.11
667.99	39070.56
668.13	38787.36
668.27	38316.91
668.41	39253.12
668.56	38665.65
668.70	38553.30
668.84	38127.33
668.98	38120.31
669.12	38122.65
669.26	38251.38
669.40	38682.03
669.54	38555.64
669.68	38405.85
669.82	38302.87
669.96	38045.41
670.10	38377.76
670.25	38293.50
670.39	37883.91
670.53	37415.80
670.67	37600.71
670.81	37890.93
670.95	37656.88
671.09	37130.26
671.23	37273.03
671.37	37673.26
671.51	37511.77
671.65	37432.19
671.79	38143.71
671.93	37743.48
672.07	37216.86
672.21	37436.87
672.35	37303.46
672.49	37010.89
672.63	36933.65
672.77	37163.03
672.91	37001.53
673.05	36730.03
673.19	36418.74
673.33	36369.58
673.47	36119.15
673.61	36734.71
673.75	36498.31
673.89	36402.35
674.03	36453.84
674.17	36343.84
674.31	36371.92
674.45	36617.68
674.59	36524.06
674.73	36327.45
674.87	35917.86
675.01	35927.22
675.15	35632.32
675.29	36025.53
675.43	35269.53
675.56	35262.51
675.70	35566.78
675.84	34991.01
675.98	34127.35
676.12	34824.83
676.26	34841.21
676.40	35009.73
676.54	35246.13
676.68	35086.97
676.82	34581.42
676.96	34728.87
677.10	35030.80
677.23	34778.02
677.37	34824.83
677.51	34270.12
677.65	34155.44
677.79	33804.36
677.93	33926.07
678.07	33518.81
678.21	33418.17
678.34	33589.03
678.48	33504.77
678.62	33205.18
678.76	32940.70
678.90	33081.13
679.04	33369.02
679.18	33179.43
679.31	32524.08
679.45	32641.11
679.59	33287.10
679.73	33043.68
679.87	32613.02
680.00	32163.64
680.14	32271.31
680.28	32425.78
680.42	32414.08
680.56	32526.42
680.70	32397.70
680.83	31695.53
680.97	31482.55
681.11	31857.03
681.25	31604.25
681.39	31461.48
681.52	31798.52
681.66	31964.70
681.80	31335.09
681.94	31185.30
682.07	31707.24
682.21	31388.92
682.35	31491.91
682.49	31026.14
682.62	31213.38
682.76	31044.87
682.90	30785.07
683.04	30630.59
683.17	30705.49
683.31	30274.83
683.45	30422.28
683.59	30096.95
683.72	29982.26
683.86	30024.39
684.00	29984.60
684.13	29954.18
684.27	29633.52
684.41	29591.39
684.55	29675.65
684.68	29642.88
684.82	29174.78
684.96	29076.48
685.09	29036.69
685.23	29230.95
685.37	29186.48
685.50	29090.52
685.64	28730.08
685.78	28804.97
685.91	28968.81
686.05	28559.22
686.19	28116.86
686.32	28025.57
686.46	28215.16
686.60	28474.96
686.73	28278.35
686.87	28182.39
687.01	28187.07
687.14	28367.29
687.28	27683.86
687.42	28011.53
687.55	27672.15
687.69	27894.50
687.82	27496.61
687.96	27316.39
688.10	27175.96
688.23	27562.15
688.37	27358.52
688.50	27288.31
688.64	26796.79
688.78	27150.21
688.91	27033.19
689.05	26848.29
689.18	26829.56
689.32	25881.64
689.46	26443.37
689.59	25909.73
689.73	26288.90
689.86	25865.26
690.00	25961.22
690.13	25832.49
690.27	26003.35
690.41	26022.08
690.54	25427.58
690.68	25596.10
690.81	25455.67
690.95	25738.87
691.08	25240.34
691.22	25099.90
691.35	24781.59
691.49	25132.67
691.62	25469.71
691.76	25165.44
691.89	25324.60
692.03	25088.20
692.16	24592.01
692.30	24580.31
692.43	24273.70
692.57	24308.80
692.70	24505.41
692.84	24500.73
692.97	24278.38
693.11	24023.26
693.24	23843.04
693.38	23981.13
693.51	23756.44
693.65	23716.65
693.78	23693.24
693.92	23644.09
694.05	23288.33
694.19	23370.25
694.32	23637.07
694.45	23288.33
694.59	23243.86
694.72	22757.03
694.86	22473.82
694.99	22663.41
695.13	22321.69
695.26	22340.41
695.39	22127.42
695.53	22614.26
695.66	22448.08
695.80	22073.59
695.93	22232.75
696.07	21832.52
696.20	22291.26
696.33	21869.97
696.47	21715.49
696.60	21879.33
696.73	21851.24
696.87	21696.77
697.00	21727.19
697.14	21568.04
697.27	21242.70
697.40	21097.59
697.54	21050.78
697.67	20833.11
697.80	20758.21
697.94	20982.90
698.07	20819.07
698.21	20774.60
698.34	20060.73
698.47	20425.86
698.61	19955.41
698.74	20226.91
698.87	20348.62
699.01	20318.19
699.14	20322.87
699.27	19894.55
699.40	20327.55
699.54	20114.56
699.67	20018.60
699.80	19609.01
699.94	19454.53
700.07	19379.64
700.20	19089.41
700.34	19206.44
700.47	18991.11
700.60	19183.03
700.73	19300.06
700.87	18902.17
701.00	18822.59
701.13	18600.24
701.26	18731.31
701.40	18623.64
701.53	18410.65
701.66	18293.63
701.79	18157.88
701.93	18466.83
702.06	18637.69
702.19	18445.76
702.32	18209.37
702.46	18073.62
702.59	17598.49
702.72	17668.70
702.85	17603.17
702.99	17411.25
703.12	17544.66
703.25	17689.77
703.38	17385.50
703.51	17373.80
703.65	17224.00
703.78	17263.79
703.91	17329.33
704.04	17434.65
704.17	17165.49
704.31	17242.73
704.44	17032.08
704.57	16891.65
704.70	16416.52
704.83	16657.59
704.96	16617.80
705.10	16500.78
705.23	16318.22
>>>>>End Processed Spectral Data<<<<<
