SpectraSuite Data File
++++++++++++++++++++++++++++++++++++
Date: Thu Oct 24 13:21:15 EDT 2013
User: stostad
Dark Spectrum Present: No
Reference Spectrum Present: No
Number of Sampled Component Spectra: 1
Spectrometers: USB2+H05261
Integration Time (usec): 100000 (USB2+H05261)
Spectra Averaged: 1 (USB2+H05261)
Boxcar Smoothing: 0 (USB2+H05261)
Correct for Electrical Dark: No (USB2+H05261)
Strobe/Lamp Enabled: No (USB2+H05261)
Correct for Detector Non-linearity: No (USB2+H05261)
Correct for Stray Light: No (USB2+H05261)
Number of Pixels in Processed Spectrum: 2048
>>>>>Begin Processed Spectral Data<<<<<
365.73	643.65
365.92	643.65
366.12	643.65
366.32	645.99
366.52	400.23
366.72	447.04
366.91	437.68
367.11	454.06
367.31	428.32
367.51	407.25
367.70	428.32
367.90	491.51
368.10	442.36
368.30	461.09
368.49	475.13
368.69	477.47
368.89	475.13
369.09	472.79
369.28	465.77
369.48	470.45
369.68	491.51
369.87	552.37
370.07	528.96
370.27	540.66
370.47	610.88
370.66	784.08
370.86	739.61
371.06	770.04
371.25	842.59
371.45	805.14
371.65	800.46
371.84	777.06
372.04	819.19
372.24	844.93
372.44	802.80
372.63	828.55
372.83	880.04
373.03	823.87
373.22	755.99
373.42	922.17
373.62	849.61
373.81	856.64
374.01	863.66
374.21	851.96
374.40	894.08
374.60	947.92
374.79	936.21
374.99	877.70
375.19	901.11
375.38	854.30
375.58	940.90
375.78	873.02
375.97	901.11
376.17	936.21
376.37	912.81
376.56	901.11
376.76	912.81
376.95	856.64
377.15	961.96
377.35	990.05
377.54	961.96
377.74	901.11
377.93	952.60
378.13	1041.54
378.33	1067.28
378.52	968.98
378.72	1050.90
378.91	994.73
379.11	999.41
379.31	959.62
379.50	957.28
379.70	957.28
379.89	987.71
380.09	954.94
380.28	983.02
380.48	978.34
380.68	943.24
380.87	959.62
381.07	966.64
381.26	990.05
381.46	1032.18
381.65	978.34
381.85	1027.50
382.04	1004.09
382.24	983.02
382.43	1022.81
382.63	1015.79
382.83	966.64
383.02	997.07
383.22	1029.84
383.41	1036.86
383.61	1090.69
383.80	1043.88
384.00	973.66
384.19	1097.71
384.39	1083.67
384.58	978.34
384.78	1090.69
384.97	1060.26
385.17	1027.50
385.36	1034.52
385.56	1057.92
385.75	1071.97
385.95	1144.52
386.14	1095.37
386.34	1053.24
386.53	1102.39
386.72	1144.52
386.92	1076.65
387.11	1130.48
387.31	1107.07
387.50	1156.22
387.70	1097.71
387.89	1109.41
388.09	1158.57
388.28	1055.58
388.48	1128.14
388.67	1146.86
388.86	1146.86
389.06	1212.40
389.25	1128.14
389.45	1221.76
389.64	1191.33
389.84	1125.80
390.03	1179.63
390.22	1160.91
390.42	1093.03
390.61	1128.14
390.81	1184.31
391.00	1149.20
391.19	1184.31
391.39	1238.14
391.58	1151.54
391.78	1261.55
391.97	1280.27
392.16	1172.61
392.36	1338.79
392.55	1249.85
392.75	1263.89
392.94	1160.91
393.13	1263.89
393.33	1247.51
393.52	1179.63
393.71	1306.02
393.91	1301.34
394.10	1247.51
394.29	1355.17
394.49	1336.45
394.68	1247.51
394.88	1338.79
395.07	1327.08
395.26	1238.14
395.46	1315.38
395.65	1357.51
395.84	1336.45
396.04	1394.96
396.23	1369.21
396.42	1411.34
396.62	1392.62
396.81	1369.21
397.00	1352.83
397.19	1397.30
397.39	1371.55
397.58	1495.60
397.77	1434.75
397.97	1474.54
398.16	1486.24
398.35	1411.34
398.55	1420.71
398.74	1486.24
398.93	1465.18
399.12	1432.41
399.32	1444.11
399.51	1455.81
399.70	1460.49
399.90	1523.69
400.09	1511.99
400.28	1537.73
400.47	1558.80
400.67	1584.54
400.86	1607.95
401.05	1654.76
401.24	1659.44
401.44	1558.80
401.63	1549.43
401.82	1589.22
402.01	1638.38
402.21	1540.07
402.40	1577.52
402.59	1612.63
402.78	1591.56
402.97	1598.59
403.17	1659.44
403.36	1678.16
403.55	1621.99
403.74	1781.15
403.93	1818.60
404.13	1837.32
404.32	1823.28
404.51	1661.78
404.70	1638.38
404.89	1764.76
405.09	1802.21
405.28	1734.34
405.47	1750.72
405.66	1827.96
405.85	1788.17
406.05	1734.34
406.24	1912.22
406.43	1870.09
406.62	1940.30
406.81	1879.45
407.00	1874.77
407.20	1884.13
407.39	1842.00
407.58	1991.80
407.77	1923.92
407.96	1919.24
408.15	1928.60
408.34	1940.30
408.54	2012.86
408.73	2050.31
408.92	1930.94
409.11	2062.01
409.30	2057.33
409.49	2019.88
409.68	1919.24
409.87	2050.31
410.07	2094.78
410.26	2062.01
410.45	2092.44
410.64	2129.89
410.83	2106.48
411.02	2010.52
411.21	2195.42
411.40	2181.38
411.59	2232.87
411.78	2153.29
411.98	2214.15
412.17	2207.13
412.36	2342.88
412.55	2387.35
412.74	2277.34
412.93	2275.00
413.12	2204.78
413.31	2546.50
413.50	2385.01
413.69	2389.69
413.88	2506.71
414.07	2471.61
414.26	2520.76
414.45	2429.48
414.64	2429.48
414.83	2569.91
415.02	2548.84
415.22	2525.44
415.41	2593.31
415.60	2651.83
415.79	2686.94
415.98	2661.19
416.17	2682.25
416.36	2654.17
416.55	2640.12
416.74	2612.04
416.93	2661.19
417.12	2675.23
417.31	2712.68
417.50	2775.88
417.69	2764.17
417.88	2832.05
418.07	2846.09
418.26	2794.60
418.45	2902.26
418.64	2899.92
418.83	2928.01
419.02	3059.08
419.21	3169.09
419.39	2899.92
419.58	2806.30
419.77	2829.71
419.96	2925.67
420.15	2984.18
420.34	2953.76
420.53	2923.33
420.72	3038.02
420.91	3108.23
421.10	3049.72
421.29	2977.16
421.48	2981.84
421.67	2995.89
421.86	3091.85
422.05	3098.87
422.24	3007.59
422.43	3117.59
422.61	3089.51
422.80	3255.69
422.99	3332.92
423.18	3185.47
423.37	3246.32
423.56	3133.98
423.75	3119.93
423.94	3105.89
424.13	2932.69
424.32	3052.06
424.50	3211.22
424.69	3300.16
424.88	3215.90
425.07	3199.51
425.26	3173.77
425.45	3251.00
425.64	3176.11
425.83	3103.55
426.01	3274.41
426.20	3243.98
426.39	3251.00
426.58	3173.77
426.77	3258.03
426.96	3201.85
427.15	3407.82
427.33	3353.99
427.52	3267.39
427.71	3185.47
427.90	3330.58
428.09	3349.31
428.28	3325.90
428.46	3412.50
428.65	3442.93
428.84	3543.57
429.03	3417.18
429.22	3445.27
429.40	3398.46
429.59	3442.93
429.78	3442.93
429.97	3421.86
430.16	3536.55
430.34	3487.40
430.53	3583.36
430.72	3440.59
430.91	3578.68
431.10	3590.38
431.28	3496.76
431.47	3557.61
431.66	3719.11
431.85	3627.83
432.03	3688.68
432.22	3833.80
432.41	3723.79
432.60	3679.32
432.79	3735.50
432.97	3819.75
433.16	3758.90
433.35	3616.13
433.54	3857.20
433.72	3714.43
433.91	3859.54
434.10	3854.86
434.28	3871.25
434.47	3948.48
434.66	3887.63
434.85	3861.88
435.03	3896.99
435.22	4194.24
435.41	4362.76
435.59	4234.03
435.78	4131.05
435.97	4156.79
436.16	4100.62
436.34	4067.85
436.53	3997.64
436.72	4198.92
436.90	3950.82
437.09	4070.19
437.28	3936.78
437.46	4065.51
437.65	4095.94
437.84	3962.53
438.02	4184.88
438.21	4198.92
438.40	4152.11
438.58	4248.07
438.77	4243.39
438.96	4255.09
439.14	4465.74
439.33	4358.08
439.52	4346.37
439.70	4348.72
439.89	4496.17
440.08	4510.21
440.26	4503.19
440.45	4524.26
440.63	4449.36
440.82	4603.83
441.01	4568.73
441.19	4638.94
441.38	4699.80
441.57	4470.42
441.75	4690.43
441.94	4755.97
442.12	4706.82
442.31	4847.25
442.50	4720.86
442.68	4901.08
442.87	4903.42
443.05	4978.32
443.24	4952.57
443.43	4954.91
443.61	4950.23
443.80	5085.98
443.98	4880.02
444.17	4777.03
444.35	4861.29
444.54	4980.66
444.73	4966.62
444.91	4985.34
445.10	5020.45
445.28	5069.60
445.47	4971.30
445.65	5032.15
445.84	4947.89
446.02	5046.20
446.21	5018.11
446.39	5064.92
446.58	5004.07
446.77	5025.13
446.95	4980.66
447.14	4954.91
447.32	5254.50
447.51	5100.03
447.69	5123.43
447.88	5144.50
448.06	5146.84
448.25	5210.03
448.43	5123.43
448.62	5327.06
448.80	5151.52
448.99	5174.92
449.17	5188.97
449.36	5203.01
449.54	5277.91
449.73	5366.85
449.91	5310.68
450.10	5165.56
450.28	5460.47
450.46	5404.30
450.65	5296.63
450.83	5336.42
451.02	5359.83
451.20	5430.04
451.39	5310.68
451.57	5404.30
451.76	5399.62
451.94	5416.00
452.13	5579.84
452.31	5530.69
452.49	5425.36
452.68	5666.44
452.86	5516.64
453.05	5568.13
453.23	5598.56
453.42	5462.81
453.60	5462.81
453.78	5631.33
453.97	5570.48
454.15	5603.24
454.34	5650.05
454.52	5671.12
454.70	5764.74
454.89	5727.29
455.07	5664.10
455.26	5729.63
455.44	5722.61
455.62	5909.85
455.81	5788.14
455.99	5666.44
456.17	5731.97
456.36	5776.44
456.54	5928.58
456.73	5963.68
456.91	6083.05
457.09	6125.18
457.28	6190.72
457.46	6054.97
457.64	6197.74
457.83	5975.39
458.01	6155.61
458.19	6057.31
458.38	6258.59
458.56	6176.67
458.74	6452.86
458.93	6307.74
459.11	6197.74
459.29	6239.87
459.48	6335.83
459.66	6267.95
459.84	6160.29
460.03	6476.26
460.21	6490.31
460.39	6370.94
460.57	6349.87
460.76	6403.71
460.94	6417.75
461.12	6548.82
461.31	6656.48
461.49	6581.59
461.67	6436.47
461.85	6696.27
462.04	6602.65
462.22	6846.07
462.40	6766.49
462.59	6614.35
462.77	6785.21
462.95	6691.59
463.13	6677.55
463.32	6705.63
463.50	6658.82
463.68	6853.09
463.86	6757.13
464.05	6532.44
464.23	6829.68
464.41	6841.39
464.59	6754.79
464.78	6810.96
464.96	6853.09
465.14	6736.06
465.32	6956.07
465.50	6972.46
465.69	6867.13
465.87	6918.62
466.05	7073.10
466.23	7009.90
466.41	7087.14
466.60	7318.86
466.78	7049.69
466.96	7068.42
467.14	7096.50
467.32	7108.21
467.51	7162.04
467.69	6846.07
467.87	7080.12
468.05	7302.47
468.23	7178.42
468.41	7133.95
468.60	7197.15
468.78	7414.82
468.96	7349.28
469.14	7304.81
469.32	7363.33
469.50	7105.87
469.69	7400.77
469.87	7414.82
470.05	7279.07
470.23	7522.48
470.41	7534.18
470.59	7625.47
470.77	7660.57
470.95	7613.76
471.14	7733.13
471.32	7723.77
471.50	7573.97
471.68	7775.26
471.86	7798.66
472.04	7796.32
472.22	8065.49
472.40	7819.73
472.58	7981.23
472.77	7967.18
472.95	7962.50
473.13	8215.28
473.31	7978.89
473.49	8053.78
473.67	8086.55
473.85	7906.33
474.03	8226.98
474.21	8194.22
474.39	8299.54
474.57	8395.50
474.75	8503.17
474.93	8552.32
475.12	8489.12
475.30	8519.55
475.48	8418.91
475.66	8484.44
475.84	8578.06
476.02	8732.54
476.20	8613.17
476.38	8865.95
476.56	8926.80
476.74	9146.81
476.92	8868.29
477.10	8894.04
477.28	9156.18
477.46	9249.80
477.64	9191.28
477.82	9114.05
478.00	9268.52
478.18	9289.59
478.36	9507.26
478.54	9664.07
478.72	9570.45
478.90	9792.80
479.08	9820.89
479.26	9923.87
479.44	9893.44
479.62	9966.00
479.80	9848.97
479.98	10260.91
480.16	10272.61
480.34	10076.01
480.52	10218.78
480.70	10427.09
480.88	10178.99
481.06	10417.72
481.24	10410.70
481.41	10427.09
481.59	10729.02
481.77	10661.14
481.95	10860.09
482.13	10885.83
482.31	10780.51
482.49	11152.65
482.67	11234.57
482.85	11342.24
483.03	11419.47
483.21	11499.05
483.39	11674.59
483.57	11503.73
483.74	11915.67
483.92	11709.70
484.10	11583.31
484.28	11880.56
484.46	12084.19
484.64	12224.62
484.82	12271.43
485.00	12482.08
485.18	12578.04
485.35	12624.85
485.53	12428.24
485.71	12819.11
485.89	12926.78
486.07	12713.79
486.25	12975.93
486.43	12922.10
486.61	13249.77
486.78	13160.83
486.96	13448.72
487.14	13504.89
487.32	13413.61
487.50	13561.06
487.68	13481.49
487.85	14171.94
488.03	14200.03
488.21	14106.41
488.39	14052.58
488.57	14115.77
488.75	14511.32
488.92	14546.43
489.10	14611.96
489.28	14586.22
489.46	15002.83
489.64	14895.17
489.81	15073.05
489.99	15192.42
490.17	15389.02
490.35	15566.90
490.53	15407.75
490.70	15557.54
490.88	15386.68
491.06	15702.65
491.24	15775.21
491.41	15793.94
491.59	15962.45
491.77	15756.49
491.95	16180.12
492.13	16147.36
492.30	16233.96
492.48	16233.96
492.66	16556.95
492.84	16362.69
493.01	16540.57
493.19	16631.85
493.37	16716.11
493.54	16713.77
493.72	17245.07
493.90	17029.74
494.08	17256.77
494.25	17380.82
494.43	17401.88
494.61	17610.19
494.79	17476.78
494.96	17593.81
495.14	17652.32
495.32	18066.60
495.49	17996.38
495.67	17699.13
495.85	18267.88
496.02	18132.13
496.20	18092.34
496.38	18214.05
496.55	18518.32
496.73	18890.46
496.91	18808.54
497.09	18979.40
497.26	18780.46
497.44	18881.10
497.62	19014.51
497.79	19356.23
497.97	19264.95
498.14	19599.65
498.32	19522.41
498.50	19477.94
498.67	19719.01
498.85	19609.01
499.03	19541.13
499.20	20070.09
499.38	19941.36
499.56	19871.15
499.73	20011.58
499.91	19861.79
500.08	20259.68
500.26	20140.31
500.44	20613.10
500.61	20636.50
500.79	20290.10
500.97	20634.16
501.14	21146.74
501.32	20559.27
501.49	20819.07
501.67	20765.23
501.84	21032.05
502.02	21130.36
502.20	21179.51
502.37	20945.45
502.55	21261.43
502.72	21394.84
502.90	21509.52
503.07	21074.18
503.25	21453.35
503.43	21406.54
503.60	21668.68
503.78	22052.53
503.95	21525.91
504.13	21984.65
504.30	21626.55
504.48	21778.68
504.65	21907.41
504.83	22118.06
505.01	22214.02
505.18	22232.75
505.36	22317.01
505.53	22265.52
505.71	22235.09
505.88	22354.46
506.06	22345.09
506.23	22377.86
506.41	22735.96
506.58	22923.21
506.76	22583.83
506.93	22864.69
507.11	22691.49
507.28	23089.38
507.46	22857.67
507.63	23227.48
507.81	23314.08
507.98	23183.01
508.16	23147.90
508.33	23325.78
508.50	23424.08
508.68	23456.85
508.85	23655.79
509.03	23796.23
509.20	23880.49
509.38	23974.11
509.55	23990.49
509.73	24004.53
509.90	24327.53
510.08	24397.74
510.25	24313.48
510.42	24140.29
510.60	24283.06
510.77	24477.32
510.95	24173.05
511.12	24372.00
511.30	24458.60
511.47	24945.43
511.64	24400.08
511.82	24615.41
511.99	24758.19
512.17	24833.08
512.34	25043.73
512.51	25254.38
512.69	25123.31
512.86	25195.87
513.04	25631.21
513.21	25397.15
513.38	25364.39
513.56	25408.86
513.73	25355.02
513.90	25633.55
514.08	25568.01
514.25	25593.76
514.43	25848.88
514.60	25809.09
514.77	25926.11
514.95	26064.21
515.12	26029.10
515.29	25797.38
515.47	26125.06
515.64	26490.18
515.81	26073.57
515.99	26195.28
516.16	26417.63
516.33	26515.93
516.51	26242.09
516.68	26338.05
516.85	26373.16
517.03	27140.85
517.20	26955.95
517.37	26525.29
517.54	26836.58
517.72	26838.92
517.89	26672.74
518.06	26974.67
518.24	26885.73
518.41	26885.73
518.58	27019.14
518.75	26923.18
518.93	27145.53
519.10	27173.62
519.27	27410.01
519.45	27728.33
519.62	27686.20
519.79	27796.20
519.96	27438.10
520.14	27527.04
520.31	27356.18
520.48	27915.57
520.65	27772.80
520.83	27861.74
521.00	28151.96
521.17	27555.13
521.34	27873.44
521.52	27868.76
521.69	27906.21
521.86	27938.97
522.03	28381.34
522.20	28126.22
522.38	28854.12
522.55	28240.90
522.72	28444.53
522.89	28313.46
523.07	28615.39
523.24	28563.90
523.41	28622.41
523.58	28594.32
523.75	28858.81
523.92	29003.92
524.10	28861.15
524.27	28896.25
524.44	29010.94
524.61	29177.12
524.78	28982.85
524.96	28950.09
525.13	29041.37
525.30	29420.53
525.47	29350.32
525.64	29432.24
525.81	29312.87
525.98	29701.40
526.16	29357.34
526.33	29834.81
526.50	29818.42
526.67	29523.52
526.84	29827.79
527.01	29942.47
527.18	29776.30
527.36	29921.41
527.53	30040.78
527.70	30022.05
527.87	30148.44
528.04	30122.69
528.21	30263.13
528.38	30513.56
528.55	30096.95
528.72	30293.55
528.89	30567.40
529.07	29853.53
529.24	30216.32
529.41	30478.46
529.58	30602.50
529.75	30635.27
529.92	30579.10
530.09	30841.24
530.26	30817.83
530.43	30672.72
530.60	30342.70
530.77	30628.25
530.94	31005.08
531.11	31192.32
531.28	30841.24
531.46	31047.21
531.63	31337.43
531.80	31218.07
531.97	31136.15
532.14	31295.30
532.31	31051.89
532.48	31517.65
532.65	31274.24
532.82	31215.72
532.99	31299.98
533.16	30937.20
533.33	31613.62
533.50	31665.11
533.67	31674.47
533.84	31318.71
534.01	31625.32
534.18	31763.41
534.35	31833.63
534.52	31749.37
534.69	32294.71
534.86	31812.56
535.03	31545.74
535.20	31707.24
535.37	32137.90
535.54	32301.73
535.71	31952.99
535.88	31990.44
536.05	32219.81
536.22	32009.17
536.38	32254.92
536.55	32449.19
536.72	32788.56
536.89	32336.84
537.06	32474.93
537.23	32790.91
537.40	32535.79
537.57	32570.90
537.74	32252.58
537.91	32362.59
538.08	32493.66
538.25	32315.78
538.42	32648.13
538.59	33074.11
538.75	32896.23
538.92	32624.73
539.09	33013.26
539.26	32664.52
539.43	32842.40
539.60	33291.78
539.77	33031.98
539.94	33439.23
540.11	33280.08
540.28	33282.42
540.44	33441.57
540.61	33546.90
540.78	33401.79
540.95	33661.58
541.12	33479.02
541.29	33638.18
541.46	33511.79
541.62	34246.72
541.79	33652.22
541.96	33703.71
542.13	33926.07
542.30	33710.74
542.47	33851.17
542.63	33993.94
542.80	34579.07
542.97	34600.14
543.14	34277.15
543.31	34389.49
543.48	34326.30
543.64	34787.38
543.81	34693.76
543.98	34209.27
544.15	34745.25
544.32	34525.24
544.48	35108.04
544.65	34665.67
544.82	34553.33
544.99	34625.89
545.16	34572.05
545.32	34630.57
545.49	35012.07
545.66	35491.88
545.83	35496.56
546.00	35845.30
546.16	35138.46
546.33	34991.01
546.50	34670.36
546.67	35042.50
546.83	35070.59
547.00	35290.60
547.17	34787.38
547.34	34754.61
547.50	35072.93
547.67	35283.58
547.84	35438.05
548.00	35412.31
548.17	35414.65
548.34	35002.71
548.51	35370.18
548.67	35484.86
548.84	35531.67
549.01	35323.36
549.18	35658.06
549.34	35597.21
549.51	35140.80
549.68	35466.14
549.84	35534.01
550.01	35510.61
550.18	35433.37
550.34	35290.60
550.51	35424.01
550.68	35550.40
550.84	35372.52
551.01	35627.63
551.18	35454.44
551.34	35419.33
551.51	35779.77
551.68	35550.40
551.84	35407.62
552.01	35098.67
552.18	36114.47
552.34	35601.89
552.51	35620.61
552.68	35859.35
552.84	36144.89
553.01	36388.31
553.18	35964.67
553.34	36165.96
553.51	36116.81
553.67	36400.01
553.84	36388.31
554.01	36018.50
554.17	35835.94
554.34	35798.49
554.51	36364.90
554.67	36334.48
554.84	36156.60
555.00	35749.34
555.17	35922.54
555.33	36086.38
555.50	35941.27
555.67	35695.51
555.83	36261.92
556.00	36177.66
556.16	36432.78
556.33	36217.45
556.50	36065.31
556.66	36397.67
556.83	35866.37
556.99	37048.34
557.16	36610.66
557.32	36547.47
557.49	36720.66
557.65	36397.67
557.82	36737.05
557.98	36636.41
558.15	36191.70
558.32	36943.02
558.48	36643.43
558.65	36481.93
558.81	36451.50
558.98	37130.26
559.14	37083.45
559.31	36765.14
559.47	37102.17
559.64	36730.03
559.80	36704.28
559.97	37277.71
560.13	36701.94
560.30	37003.87
560.46	36723.01
560.63	37170.05
560.79	36971.10
560.96	37097.49
561.12	36772.16
561.29	37104.51
561.45	36966.42
561.61	37315.16
561.78	36882.16
561.94	37209.84
562.11	37298.78
562.27	37443.89
562.44	37457.93
562.60	37216.86
562.77	36947.70
562.93	36807.26
563.10	37258.99
563.26	37102.17
563.42	37429.85
563.59	36793.22
563.75	36935.99
563.92	37401.76
564.08	37490.70
564.24	37514.11
564.41	37649.86
564.57	37460.27
564.74	37607.73
564.90	37544.53
565.07	37488.36
565.23	37780.93
565.39	37354.95
565.56	37684.97
565.72	37776.25
565.88	38096.90
566.05	37003.87
566.21	37202.82
566.38	37361.97
566.54	37684.97
566.70	37633.47
566.87	37813.70
567.03	37778.59
567.19	37919.02
567.36	37820.72
567.52	37373.67
567.68	37610.07
567.85	37347.93
568.01	37670.92
568.17	37752.84
568.34	37619.43
568.50	37542.19
568.66	37895.61
568.83	38024.34
568.99	38136.69
569.15	37727.10
569.32	37750.50
569.48	37628.79
569.64	37551.56
569.81	37584.32
569.97	37287.07
570.13	37661.56
570.30	37654.54
570.46	38073.49
570.62	37677.94
570.78	37790.29
570.95	37411.12
571.11	38031.36
571.27	38101.58
571.43	37745.82
571.60	37755.18
571.76	37724.75
571.92	37951.79
572.09	38157.75
572.25	38270.10
572.41	38082.86
572.57	37996.26
572.74	38462.02
572.90	37579.64
573.06	37942.42
573.22	38132.01
573.38	37684.97
573.55	37916.68
573.71	37977.53
573.87	38113.28
574.03	37689.65
574.20	38356.70
574.36	38270.10
574.52	38106.26
574.68	38143.71
574.84	38368.40
575.01	38036.05
575.17	38340.32
575.33	37933.06
575.49	38073.49
575.65	38330.95
575.82	38160.09
575.98	38258.40
576.14	38731.18
576.30	38082.86
576.46	38370.74
576.62	38506.49
576.79	37975.19
576.95	38216.27
577.11	38127.33
577.27	38541.60
577.43	38635.22
577.59	38581.39
577.75	38052.43
577.92	37862.85
578.08	38302.87
578.24	38113.28
578.40	37757.52
578.56	38560.33
578.72	38476.07
578.88	38520.54
579.04	38270.10
579.21	38139.03
579.37	38120.31
579.53	38082.86
579.69	38337.98
579.85	38440.96
580.01	38485.43
580.17	38108.60
580.33	38103.92
580.49	38857.57
580.65	38817.78
580.82	38373.08
580.98	38129.67
581.14	38363.72
581.30	38639.90
581.46	38286.48
581.62	38457.34
581.78	38249.03
581.94	38181.16
582.10	37872.21
582.26	38300.53
582.42	38223.29
582.58	38471.39
582.74	38148.39
582.90	38485.43
583.06	38567.35
583.22	38616.50
583.38	38691.40
583.54	38352.02
583.70	38422.23
583.86	38490.11
584.02	38714.80
584.18	38780.34
584.34	38775.66
584.50	38761.61
584.66	38326.27
584.82	38494.79
584.98	38305.21
585.14	38611.82
585.30	38731.18
585.46	38494.79
585.62	38377.76
585.78	38756.93
585.94	38843.53
586.10	38583.73
586.26	38464.36
586.42	39124.40
586.58	38323.93
586.74	38410.53
586.90	38602.46
587.06	38663.31
587.22	38850.55
587.38	38888.00
587.54	38916.09
587.70	39009.71
587.86	38602.46
588.02	38822.47
588.18	38749.91
588.34	38630.54
588.49	38483.09
588.65	38506.49
588.81	38878.64
588.97	38820.13
589.13	38480.75
589.29	38986.30
589.45	39112.69
589.61	38745.23
589.77	38998.01
589.93	39063.54
590.08	38799.06
590.24	38808.42
590.40	39098.65
590.56	39014.39
590.72	38801.40
590.88	38565.01
591.04	38675.01
591.20	38979.28
591.35	38864.60
591.51	39482.50
591.67	39454.41
591.83	39335.04
591.99	38892.68
592.15	38731.18
592.31	39302.28
592.46	38866.94
592.62	39232.06
592.78	38670.33
592.94	39225.04
593.10	38990.98
593.26	38988.64
593.41	39178.23
593.57	39246.10
593.73	39108.01
593.89	39040.14
594.05	38951.20
594.20	38726.50
594.36	39449.73
594.52	38642.24
594.68	39051.84
594.84	38953.54
594.99	39222.70
595.15	38902.04
595.31	39463.77
595.47	39297.59
595.62	39005.03
595.78	38675.01
595.94	39283.55
596.10	38628.20
596.25	39105.67
596.41	39056.52
596.57	38895.02
596.73	39321.00
596.88	38899.70
597.04	39208.65
597.20	38803.74
597.36	39147.80
597.51	39175.89
597.67	39056.52
597.83	39157.16
597.99	39321.00
598.14	39433.35
598.30	39098.65
598.46	38976.94
598.61	39276.53
598.77	38958.22
598.93	39189.93
599.09	39047.16
599.24	39157.16
599.40	39374.83
599.56	39653.36
599.71	39461.43
599.87	39608.89
600.03	39168.87
600.18	39482.50
600.34	39173.55
600.50	38986.30
600.65	39246.10
600.81	39208.65
600.97	39363.13
601.12	39529.31
601.28	39192.27
601.44	39358.45
601.59	39594.84
601.75	38728.84
601.91	39351.43
602.06	38998.01
602.22	39033.11
602.37	39309.30
602.53	39295.25
602.69	39585.48
602.84	39297.59
603.00	39365.47
603.16	39555.05
603.31	39040.14
603.47	39321.00
603.62	38888.00
603.78	39304.62
603.94	38848.21
604.09	39213.34
604.25	39505.90
604.40	39356.11
604.56	39136.10
604.71	38930.13
604.87	39253.12
605.03	39077.58
605.18	39033.11
605.34	39180.57
605.49	39019.07
605.65	38450.32
605.80	38843.53
605.96	39342.06
606.12	39056.52
606.27	39438.03
606.43	39021.41
606.58	39475.48
606.74	39367.81
606.89	38862.26
607.05	38752.25
607.20	38602.46
607.36	38649.27
607.51	38848.21
607.67	39056.52
607.82	38885.66
607.98	38604.80
608.13	39374.83
608.29	39164.18
608.44	38962.90
608.60	38834.17
608.75	39229.72
608.91	38979.28
609.06	39487.18
609.22	39496.54
609.37	38775.66
609.53	38801.40
609.68	38656.29
609.84	38831.83
609.99	39414.62
610.15	38998.01
610.30	39576.12
610.46	39271.85
610.61	39166.52
610.76	39751.66
610.92	39945.92
611.07	39955.29
611.23	39751.66
611.38	39372.49
611.54	39674.42
611.69	39915.50
611.84	39882.73
612.00	39473.13
612.15	39002.69
612.31	39328.02
612.46	38689.06
612.62	39182.91
612.77	38820.13
612.92	39346.75
613.08	39028.43
613.23	38796.72
613.39	38855.23
613.54	38396.49
613.69	38555.64
613.85	38576.71
614.00	39119.71
614.15	39363.13
614.31	38562.67
614.46	39491.86
614.62	38398.83
614.77	38635.22
614.92	38679.69
615.08	38267.76
615.23	38838.85
615.38	38347.34
615.54	38532.24
615.69	38014.98
615.84	38391.81
616.00	38284.14
616.15	38181.16
616.30	38436.28
616.46	38132.01
616.61	37790.29
616.76	38110.94
616.92	37907.32
617.07	37682.62
617.22	37649.86
617.37	37710.71
617.53	37883.91
617.68	38218.61
617.83	37916.68
617.99	38089.88
618.14	38253.72
618.29	37663.90
618.45	37731.78
618.60	37837.10
618.75	37614.75
618.90	37556.24
619.06	38087.54
619.21	37488.36
619.36	37673.26
619.51	37579.64
619.67	37205.16
619.82	37361.97
619.97	37970.51
620.12	37717.73
620.28	37493.04
620.43	37614.75
620.58	37787.95
620.73	38005.62
620.89	37820.72
621.04	37961.15
621.19	37734.12
621.34	37237.92
621.49	37596.03
621.65	37205.16
621.80	37993.92
621.95	37212.18
622.10	37420.48
622.25	37324.52
622.41	37038.98
622.56	37347.93
622.71	37226.22
622.86	37390.06
623.01	37228.56
623.16	36856.42
623.32	36898.55
623.47	37528.15
623.62	37036.64
623.77	37422.83
623.92	37130.26
624.07	37439.21
624.23	37748.16
624.38	37776.25
624.53	37221.54
624.68	37163.03
624.83	37163.03
624.98	36573.21
625.13	36601.30
625.29	37174.73
625.44	36886.84
625.59	36666.83
625.74	36561.51
625.89	36608.32
626.04	36985.15
626.19	36409.37
626.34	36540.44
626.49	36109.78
626.65	36542.78
626.80	36818.97
626.95	35945.95
627.10	36217.45
627.25	36472.57
627.40	36421.08
627.55	36582.57
627.70	36833.01
627.85	36690.24
628.00	36421.08
628.15	36360.22
628.30	36023.19
628.45	36638.75
628.60	36261.92
628.76	36411.71
628.91	36889.18
629.06	36507.68
629.21	36184.68
629.36	36002.12
629.51	35950.63
629.66	36341.50
629.81	35789.13
629.96	36184.68
630.11	36360.22
630.26	36481.93
630.41	36622.36
630.56	36723.01
630.71	36477.25
630.86	36514.70
631.01	36229.15
631.16	35857.01
631.31	35959.99
631.46	35793.81
631.61	35807.86
631.76	35761.05
631.91	36367.24
632.06	35786.79
632.21	35686.15
632.36	36025.53
632.51	35679.13
632.66	36121.49
632.81	35594.87
632.96	35849.99
633.10	35700.19
633.25	35662.74
633.40	35349.11
633.55	35723.60
633.70	35267.19
633.85	35552.74
634.00	35454.44
634.15	35721.26
634.30	35742.32
634.45	35402.94
634.60	35498.91
634.75	35948.29
634.90	35398.26
635.05	35683.81
635.19	34925.47
635.34	35007.39
635.49	35391.24
635.64	35173.57
635.79	35515.29
635.94	34948.88
636.09	34991.01
636.24	34852.92
636.39	34843.56
636.53	35849.99
636.68	34918.45
636.83	34714.83
636.98	35363.15
637.13	35271.87
637.28	34810.79
637.43	35185.27
637.57	34916.11
637.72	34682.06
637.87	34813.13
638.02	35309.32
638.17	34754.61
638.32	34562.69
638.46	34249.06
638.61	35096.33
638.76	34440.98
638.91	34890.37
639.06	34937.18
639.20	35164.21
639.35	35103.35
639.50	34988.67
639.65	35030.80
639.80	34693.76
639.94	34513.54
640.09	34808.45
640.24	34644.61
640.39	34532.26
640.54	34546.31
640.68	34682.06
640.83	34394.17
640.98	34611.84
641.13	34209.27
641.27	34417.58
641.42	34319.28
641.57	34188.21
641.72	33991.60
641.86	34314.59
642.01	34366.09
642.16	33862.87
642.31	34415.24
642.45	34417.58
642.60	34113.31
642.75	34015.01
642.90	34059.48
643.04	33954.15
643.19	33802.02
643.34	34457.37
643.48	34120.33
643.63	34485.45
643.78	33696.69
643.93	33926.07
644.07	33897.98
644.22	33937.77
644.37	33209.86
644.51	34235.02
644.66	33731.80
644.81	34153.10
644.95	33937.77
645.10	34216.29
645.25	33832.44
645.39	34059.48
645.54	34129.69
645.69	34293.53
645.83	34352.04
645.98	34108.63
646.13	34230.33
646.27	34082.88
646.42	33858.19
646.57	33621.80
646.71	33708.40
646.86	33333.91
647.00	33926.07
647.15	33455.62
647.30	33631.16
647.44	33631.16
647.59	33427.53
647.74	33502.43
647.88	33919.04
648.03	33535.20
648.17	33399.44
648.32	33535.20
648.47	33645.20
648.61	33340.93
648.76	33397.10
648.90	33706.05
649.05	33151.35
649.20	33369.02
649.34	33869.89
649.49	33743.50
649.63	33762.23
649.78	33401.79
649.92	33184.12
650.07	33638.18
650.21	33057.73
650.36	33404.13
650.51	33074.11
650.65	33233.27
650.80	33366.68
650.94	33530.51
651.09	33249.65
651.23	32823.67
651.38	32884.53
651.52	32898.57
651.67	32964.10
651.81	33137.30
651.96	32849.42
652.10	32828.35
652.25	32896.23
652.39	32320.46
652.54	32795.59
652.68	32519.40
652.83	32886.87
652.97	32847.08
653.12	32369.61
653.26	32615.37
653.41	33144.33
653.55	33057.73
653.70	32856.44
653.84	32940.70
653.99	32334.50
654.13	32631.75
654.27	32673.88
654.42	32257.26
654.56	32472.59
654.71	32444.51
654.85	33043.68
655.00	32776.86
655.14	32816.65
655.29	31999.80
655.43	32465.57
655.57	31995.12
655.72	32137.90
655.86	32549.83
656.01	32390.67
656.15	32395.35
656.30	32208.11
656.44	32353.23
656.58	32332.16
656.73	32411.74
656.87	32156.62
657.01	32184.71
657.16	32149.60
657.30	31934.27
657.45	31817.24
657.59	31957.67
657.73	31782.13
657.88	31524.68
658.02	32236.20
658.16	31761.07
658.31	31878.10
658.45	31915.54
658.60	31583.19
658.74	31700.22
658.88	31704.90
659.03	31908.52
659.17	31630.00
659.31	31688.51
659.46	31545.74
659.60	31873.42
659.74	31742.35
659.89	31374.88
660.03	31590.21
660.17	31583.19
660.32	31241.47
660.46	31529.36
660.60	31143.17
660.74	31182.96
660.89	31152.53
661.03	31199.34
661.17	31248.49
661.32	30883.37
661.46	30646.97
661.60	31182.96
661.74	30710.17
661.89	31047.21
662.03	31026.14
662.17	30679.74
662.31	30675.06
662.46	30611.87
662.60	30614.21
662.74	30913.80
662.88	30604.84
663.03	30616.55
663.17	30883.37
663.31	30710.17
663.45	30871.67
663.60	30462.07
663.74	30625.91
663.88	30508.88
664.02	30040.78
664.17	30251.42
664.31	29869.92
664.45	30085.25
664.59	29853.53
664.73	30008.01
664.88	30146.10
665.02	30239.72
665.16	30155.46
665.30	30010.35
665.44	29984.60
665.59	29699.06
665.73	29919.07
665.87	29642.88
666.01	29677.99
666.15	29841.83
666.29	29893.32
666.44	29905.02
666.58	28987.53
666.72	29111.58
666.86	29390.11
667.00	29535.22
667.14	29589.05
667.28	29560.97
667.43	29081.16
667.57	29390.11
667.71	29535.22
667.85	29312.87
667.99	29282.44
668.13	29078.82
668.27	28973.49
668.41	29324.57
668.56	28606.03
668.70	28479.64
668.84	28751.14
668.98	28819.02
669.12	28730.08
669.26	28575.60
669.40	28587.30
669.54	29266.06
669.68	28655.18
669.82	28912.64
669.96	28580.28
670.10	28259.63
670.25	28566.24
670.39	28264.31
670.53	28254.95
670.67	28034.94
670.81	28156.64
670.95	28348.57
671.09	28067.70
671.23	27812.59
671.37	28128.56
671.51	28477.30
671.65	28037.28
671.79	27725.99
671.93	27772.80
672.07	27828.97
672.21	27889.82
672.35	27648.75
672.49	28051.32
672.63	27688.54
672.77	27707.26
672.91	27683.86
673.05	27494.27
673.19	27082.34
673.33	26780.41
673.47	26637.64
673.61	27049.57
673.75	27091.70
673.89	27063.61
674.03	27241.50
674.17	26766.37
674.31	27229.79
674.45	27232.13
674.59	27173.62
674.73	27063.61
674.87	27065.96
675.01	26494.86
675.15	26485.50
675.29	26452.73
675.43	26773.39
675.56	26714.87
675.70	26424.65
675.84	26185.91
675.98	25294.17
676.12	26068.89
676.26	26136.76
676.40	26181.23
676.54	25900.37
676.68	25804.41
676.82	25598.44
676.96	25846.54
677.10	25872.28
677.23	25919.09
677.37	25783.34
677.51	25766.96
677.65	25947.18
677.79	25345.66
677.93	25268.42
678.07	25177.14
678.21	24821.38
678.34	24975.86
678.48	24826.06
678.62	24828.40
678.76	25064.80
678.90	24842.45
679.04	24875.21
679.18	24566.26
679.31	24091.13
679.45	24446.90
679.59	24826.06
679.73	24526.47
679.87	24360.30
680.00	24056.03
680.14	24137.94
680.28	24173.05
680.42	24217.52
680.56	23864.10
680.70	23913.25
680.83	23833.68
680.97	23744.73
681.11	23894.53
681.25	23833.68
681.39	23576.22
681.52	23613.66
681.66	23527.06
681.80	23669.84
681.94	23386.63
682.07	22955.97
682.21	23283.65
682.35	23431.10
682.49	23115.13
682.62	23220.45
682.76	22951.29
682.90	22948.95
683.04	22941.93
683.17	22740.64
683.31	22750.01
683.45	22412.97
683.59	22094.66
683.72	22284.24
683.86	22265.52
684.00	22260.84
684.13	21965.93
684.27	22003.38
684.41	22089.98
684.55	21956.57
684.68	21694.43
684.82	21532.93
684.96	21668.68
685.09	21429.94
685.23	21783.37
685.37	21907.41
685.50	21860.60
685.64	21551.65
685.78	21324.62
685.91	21200.57
686.05	21163.12
686.19	21081.21
686.32	20905.66
686.46	21022.69
686.60	20898.64
686.73	20900.98
686.87	20987.58
687.01	20798.00
687.14	20629.48
687.28	20823.75
687.42	20357.98
687.55	20255.00
687.69	20222.23
687.82	20238.61
687.96	20294.79
688.10	19939.02
688.23	20233.93
688.37	20130.95
688.50	20039.67
688.64	19824.34
688.78	19859.45
688.91	19915.62
689.05	19679.22
689.18	19463.90
689.32	19239.20
689.46	19899.23
689.59	19433.47
689.73	19262.61
689.86	19229.84
690.00	19342.19
690.13	19494.32
690.27	19363.25
690.41	19171.33
690.54	18782.80
690.68	19157.28
690.81	19049.62
690.95	19037.92
691.08	18558.11
691.22	18597.90
691.35	18656.41
691.49	18630.66
691.62	18651.73
691.76	18471.51
691.89	18623.64
692.03	18555.77
692.16	18455.12
692.30	18237.45
692.43	18019.78
692.57	17834.88
692.70	17869.99
692.84	17846.58
692.97	18075.96
693.11	17980.00
693.24	17912.12
693.38	17598.49
693.51	17455.72
693.65	17589.13
693.78	17666.36
693.92	17668.70
694.05	17291.88
694.19	17329.33
694.32	17280.18
694.45	17467.42
694.59	17137.40
694.72	16840.15
694.86	16617.80
694.99	16769.94
695.13	16610.78
695.26	16592.06
695.39	16262.04
695.53	16116.93
695.66	16070.12
695.80	16362.69
695.93	16088.84
696.07	16189.49
696.20	16425.88
696.33	16299.49
696.47	16336.94
696.60	16393.11
696.73	15913.30
696.87	16004.58
697.00	15929.69
697.14	15386.68
697.27	15925.00
697.40	15335.19
697.54	15665.21
697.67	15400.72
697.80	15346.89
697.94	15157.31
698.07	15023.90
698.21	15349.23
698.34	15255.61
698.47	15197.10
698.61	15014.54
698.74	15215.82
698.87	15033.26
699.01	14778.14
699.14	14972.41
699.27	14970.07
699.40	14932.62
699.54	14848.36
699.67	14565.15
699.80	14642.39
699.94	14558.13
700.07	14218.75
700.20	14157.90
700.34	14026.83
700.47	14207.05
700.60	14410.68
700.73	14214.07
700.87	14129.81
701.00	13926.19
701.13	13748.31
701.26	13701.50
701.40	13790.44
701.53	13722.56
701.66	13708.52
701.79	13497.87
701.93	13738.94
702.06	13886.40
702.19	13413.61
702.32	13518.93
702.46	13458.08
702.59	13310.63
702.72	13118.70
702.85	13259.13
702.99	13060.19
703.12	12833.16
703.25	12842.52
703.38	12868.27
703.51	12987.63
703.65	12896.35
703.78	12950.18
703.91	12634.21
704.04	12734.85
704.17	12690.38
704.31	12664.64
704.44	12435.27
704.57	12444.63
704.70	12439.95
704.83	11861.84
704.96	12070.14
705.10	12203.55
705.23	12166.10
>>>>>End Processed Spectral Data<<<<<
