SpectraSuite Data File
++++++++++++++++++++++++++++++++++++
Date: Thu Oct 24 13:21:16 EDT 2013
User: stostad
Dark Spectrum Present: No
Reference Spectrum Present: No
Number of Sampled Component Spectra: 1
Spectrometers: USB2+H05261
Integration Time (usec): 100000 (USB2+H05261)
Spectra Averaged: 1 (USB2+H05261)
Boxcar Smoothing: 0 (USB2+H05261)
Correct for Electrical Dark: No (USB2+H05261)
Strobe/Lamp Enabled: No (USB2+H05261)
Correct for Detector Non-linearity: No (USB2+H05261)
Correct for Stray Light: No (USB2+H05261)
Number of Pixels in Processed Spectrum: 2048
>>>>>Begin Processed Spectral Data<<<<<
365.73	554.71
365.92	554.71
366.12	554.71
366.32	425.98
366.52	526.62
366.72	484.49
366.91	458.74
367.11	496.19
367.31	416.62
367.51	454.06
367.70	451.72
367.90	470.45
368.10	454.06
368.30	430.66
368.49	458.74
368.69	512.58
368.89	451.72
369.09	491.51
369.28	514.92
369.48	486.83
369.68	524.28
369.87	559.39
370.07	528.96
370.27	526.62
370.47	678.76
370.66	702.16
370.86	816.85
371.06	772.38
371.25	866.00
371.45	788.76
371.65	866.00
371.84	858.98
372.04	826.21
372.24	826.21
372.44	774.72
372.63	856.64
372.83	847.27
373.03	887.06
373.22	861.32
373.42	959.62
373.62	940.90
373.81	929.19
374.01	884.72
374.21	940.90
374.40	912.81
374.60	866.00
374.79	828.55
374.99	894.08
375.19	997.07
375.38	959.62
375.58	983.02
375.78	877.70
375.97	929.19
376.17	947.92
376.37	889.40
376.56	933.87
376.76	924.51
376.95	877.70
377.15	940.90
377.35	952.60
377.54	884.72
377.74	1032.18
377.93	961.96
378.13	973.66
378.33	968.98
378.52	959.62
378.72	1006.43
378.91	1008.77
379.11	943.24
379.31	992.39
379.50	945.58
379.70	945.58
379.89	1008.77
380.09	959.62
380.28	1011.11
380.48	980.68
380.68	1006.43
380.87	1020.47
381.07	952.60
381.26	1029.84
381.46	957.28
381.65	1074.31
381.85	1062.60
382.04	964.30
382.24	1104.73
382.43	954.94
382.63	1156.22
382.83	1020.47
383.02	992.39
383.22	1064.94
383.41	1046.22
383.61	1053.24
383.80	1093.03
384.00	1015.79
384.19	1107.07
384.39	1093.03
384.58	1025.15
384.78	1074.31
384.97	1013.45
385.17	1034.52
385.36	1039.20
385.56	1067.28
385.75	1170.27
385.95	1048.56
386.14	1104.73
386.34	1064.94
386.53	1111.75
386.72	1095.37
386.92	1200.69
387.11	1100.05
387.31	1107.07
387.50	1067.28
387.70	1184.31
387.89	1153.88
388.09	1121.12
388.28	1104.73
388.48	1137.50
388.67	1167.93
388.86	1205.38
389.06	1184.31
389.25	1170.27
389.45	1196.01
389.64	1196.01
389.84	1212.40
390.03	1210.06
390.22	1217.08
390.42	1263.89
390.61	1228.78
390.81	1254.53
391.00	1214.74
391.19	1249.85
391.39	1256.87
391.58	1277.93
391.78	1277.93
391.97	1275.59
392.16	1315.38
392.36	1350.49
392.55	1343.47
392.75	1355.17
392.94	1287.29
393.13	1296.66
393.33	1317.72
393.52	1287.29
393.71	1352.83
393.91	1322.40
394.10	1303.68
394.29	1299.00
394.49	1352.83
394.68	1329.42
394.88	1345.81
395.07	1385.60
395.26	1282.61
395.46	1315.38
395.65	1334.11
395.84	1495.60
396.04	1413.68
396.23	1423.05
396.42	1413.68
396.62	1432.41
396.81	1418.36
397.00	1416.02
397.19	1399.64
397.39	1502.62
397.58	1474.54
397.77	1474.54
397.97	1453.47
398.16	1427.73
398.35	1474.54
398.55	1500.28
398.74	1481.56
398.93	1488.58
399.12	1507.30
399.32	1563.48
399.51	1481.56
399.70	1540.07
399.90	1544.75
400.09	1563.48
400.28	1519.01
400.47	1605.61
400.67	1610.29
400.86	1575.18
401.05	1591.56
401.24	1617.31
401.44	1673.48
401.63	1624.33
401.82	1680.50
402.01	1614.97
402.21	1680.50
402.40	1729.66
402.59	1689.87
402.78	1638.38
402.97	1617.31
403.17	1783.49
403.36	1750.72
403.55	1750.72
403.74	1877.11
403.93	1708.59
404.13	1748.38
404.32	1729.66
404.51	1902.86
404.70	1802.21
404.89	1846.68
405.09	1886.47
405.28	1755.40
405.47	1853.70
405.66	1792.85
405.85	1839.66
406.05	1769.44
406.24	1930.94
406.43	1863.07
406.62	1926.26
406.81	1944.99
407.00	1879.45
407.20	1949.67
407.39	1987.11
407.58	1963.71
407.77	2001.16
407.96	1975.41
408.15	2031.58
408.34	2019.88
408.54	2052.65
408.73	2001.16
408.92	2029.24
409.11	2031.58
409.30	2134.57
409.49	2120.53
409.68	2097.12
409.87	2111.16
410.07	2230.53
410.26	2092.44
410.45	2073.71
410.64	2204.78
410.83	2160.31
411.02	2270.32
411.21	2237.55
411.40	2237.55
411.59	2317.13
411.78	2165.00
411.98	2256.28
412.17	2363.94
412.36	2319.47
412.55	2310.11
412.74	2429.48
412.93	2452.88
413.12	2373.30
413.31	2492.67
413.50	2464.58
413.69	2445.86
413.88	2462.24
414.07	2502.03
414.26	2562.89
414.45	2626.08
414.64	2586.29
414.83	2612.04
415.02	2583.95
415.22	2736.09
415.41	2708.00
415.60	2586.29
415.79	2717.36
415.98	2834.39
416.17	2761.83
416.36	2738.43
416.55	2672.89
416.74	2693.96
416.93	2815.66
417.12	2825.03
417.31	2719.70
417.50	2724.38
417.69	2913.97
417.88	2881.20
418.07	2862.48
418.26	2754.81
418.45	2951.42
418.64	3091.85
418.83	2960.78
419.02	3002.91
419.21	2993.55
419.39	3042.70
419.58	2998.23
419.77	3028.65
419.96	3126.96
420.15	3159.72
420.34	3115.25
420.53	3145.68
420.72	3180.79
420.91	3201.85
421.10	3084.83
421.29	3143.34
421.48	3087.17
421.67	3218.24
421.86	3075.46
422.05	3155.04
422.24	3150.36
422.43	3183.13
422.61	3192.49
422.80	3258.03
422.99	3267.39
423.18	3190.15
423.37	3269.73
423.56	3232.28
423.75	3215.90
423.94	3157.38
424.13	3033.33
424.32	3136.32
424.50	3412.50
424.69	3323.56
424.88	3442.93
425.07	3199.51
425.26	3246.32
425.45	3332.92
425.64	3199.51
425.83	3328.24
426.01	3339.94
426.20	3300.16
426.39	3325.90
426.58	3361.01
426.77	3304.84
426.96	3335.26
427.15	3375.05
427.33	3452.29
427.52	3414.84
427.71	3529.53
427.90	3325.90
428.09	3386.76
428.28	3365.69
428.46	3489.74
428.65	3407.82
428.84	3487.40
429.03	3637.19
429.22	3442.93
429.40	3557.61
429.59	3482.72
429.78	3550.59
429.97	3520.17
430.16	3520.17
430.34	3604.42
430.53	3728.47
430.72	3684.00
430.91	3646.55
431.10	3721.45
431.28	3723.79
431.47	3705.07
431.66	3742.52
431.85	3723.79
432.03	3791.67
432.22	3875.93
432.41	3843.16
432.60	3880.61
432.79	3801.03
432.97	3889.97
433.16	3871.25
433.35	3850.18
433.54	3871.25
433.72	3831.46
433.91	3801.03
434.10	3927.42
434.28	3943.80
434.47	3896.99
434.66	3896.99
434.85	3969.55
435.03	4152.11
435.22	4353.40
435.41	4351.06
435.59	4325.31
435.78	4259.78
435.97	4250.41
436.16	4311.27
436.34	4007.00
436.53	4166.15
436.72	4091.26
436.90	4079.55
437.09	4212.96
437.28	4032.74
437.46	4135.73
437.65	4203.60
437.84	4252.75
438.02	4255.09
438.21	4301.90
438.40	4299.56
438.58	4196.58
438.77	4271.48
438.96	4386.16
439.14	4376.80
439.33	4559.36
439.52	4554.68
439.70	4514.89
439.89	4622.56
440.08	4425.95
440.26	4559.36
440.45	4704.48
440.63	4699.80
440.82	4695.11
441.01	4622.56
441.19	4652.98
441.38	4791.08
441.57	4727.88
441.75	4901.08
441.94	4964.28
442.12	4748.95
442.31	4851.93
442.50	5071.94
442.68	4912.78
442.87	5018.11
443.05	5125.77
443.24	5088.32
443.43	5107.05
443.61	5076.62
443.80	5221.74
443.98	4990.02
444.17	4807.46
444.35	5135.14
444.54	5188.97
444.73	5132.79
444.91	5153.86
445.10	5125.77
445.28	5074.28
445.47	5212.37
445.65	5179.61
445.84	5235.78
446.02	5078.96
446.21	5334.08
446.39	5174.92
446.58	5240.46
446.77	5160.88
446.95	5132.79
447.14	5165.56
447.32	5263.86
447.51	5303.65
447.69	5123.43
447.88	5198.33
448.06	5298.97
448.25	5441.75
448.43	5446.43
448.62	5277.91
448.80	5296.63
448.99	5350.46
449.17	5305.99
449.36	5238.12
449.54	5416.00
449.73	5301.31
449.91	5474.51
450.10	5420.68
450.28	5533.03
450.46	5490.90
450.65	5507.28
450.83	5504.94
451.02	5544.73
451.20	5689.84
451.39	5638.35
451.57	5701.54
451.76	5441.75
451.94	5603.24
452.13	5750.70
452.31	5678.14
452.49	5572.82
452.68	5757.72
452.86	5743.67
453.05	5701.54
453.23	5898.15
453.42	5764.74
453.60	5738.99
453.78	5731.97
453.97	5790.49
454.15	5781.12
454.34	5640.69
454.52	5956.66
454.70	5884.11
454.89	5947.30
455.07	5849.00
455.26	5914.53
455.44	6050.28
455.62	6012.84
455.81	6143.91
455.99	6183.70
456.17	6047.94
456.36	6012.84
456.54	6312.42
456.73	6260.93
456.91	6342.85
457.09	6085.39
457.28	6392.00
457.46	6228.17
457.64	6623.72
457.83	6359.24
458.01	6204.76
458.19	6347.53
458.38	6462.22
458.56	6403.71
458.74	6422.43
458.93	6499.67
459.11	6436.47
459.29	6478.60
459.48	6506.69
459.66	6520.73
459.84	6553.50
460.03	6825.00
460.21	6555.84
460.39	6576.91
460.57	6658.82
460.76	6520.73
460.94	6623.72
461.12	6743.08
461.31	6827.34
461.49	6792.23
461.67	6689.25
461.85	6939.69
462.04	6712.66
462.22	7042.67
462.40	6923.30
462.59	6843.73
462.77	6850.75
462.95	6942.03
463.13	6944.37
463.32	6967.77
463.50	7091.82
463.68	6986.50
463.86	7094.16
464.05	7068.42
464.23	7026.29
464.41	6935.01
464.59	7068.42
464.78	7321.20
464.96	7148.00
465.14	7091.82
465.32	7155.02
465.50	7159.70
465.69	7215.87
465.87	7183.10
466.05	7157.36
466.23	7218.21
466.41	7309.49
466.60	7433.54
466.78	7035.65
466.96	7131.61
467.14	7276.73
467.32	7232.26
467.51	7501.42
467.69	7096.50
467.87	7410.14
468.05	7459.29
468.23	7222.89
468.41	7368.01
468.60	7517.80
468.78	7620.78
468.96	7599.72
469.14	7602.06
469.32	7669.94
469.50	7435.88
469.69	7763.56
469.87	7744.83
470.05	7644.19
470.23	7833.77
470.41	7765.90
470.59	7847.82
470.77	7721.43
470.95	7609.08
471.14	8107.62
471.32	7695.68
471.50	7847.82
471.68	7789.30
471.86	7955.48
472.04	8016.33
472.22	8187.19
472.40	8189.53
472.58	8044.42
472.77	8107.62
472.95	8173.15
473.13	8388.48
473.31	8308.90
473.49	8236.35
473.67	8407.20
473.85	8393.16
474.03	8505.51
474.21	8503.17
474.39	8559.34
474.57	8662.32
474.75	8662.32
474.93	8982.98
475.12	8664.66
475.30	8844.88
475.48	8842.54
475.66	8762.97
475.84	8807.44
476.02	8975.95
476.20	8870.63
476.38	9310.65
476.56	9364.48
476.74	9219.37
476.92	9291.93
477.10	9214.69
477.28	9385.55
477.46	9547.05
477.64	9465.13
477.82	9554.07
478.00	9692.16
478.18	9635.99
478.36	9900.47
478.54	9799.82
478.72	10064.30
478.90	9898.13
479.08	10164.95
479.26	10033.88
479.44	10094.73
479.62	10284.31
479.80	10328.78
479.98	10462.19
480.16	10806.25
480.34	10565.18
480.52	10555.82
480.70	10911.58
480.88	10806.25
481.06	10768.80
481.24	10878.81
481.41	10981.79
481.59	10970.09
481.77	11232.23
481.95	11194.78
482.13	11370.32
482.31	11279.04
482.49	11461.60
482.67	11559.91
482.85	11566.93
483.03	11815.02
483.21	11920.35
483.39	11866.52
483.57	11719.06
483.74	11880.56
483.92	12107.59
484.10	11857.15
484.28	12374.41
484.46	12601.44
484.64	12692.73
484.82	12402.50
485.00	12711.45
485.18	12922.10
485.35	12987.63
485.53	12868.27
485.71	13200.62
485.89	13256.79
486.07	13366.80
486.25	13504.89
486.43	13432.33
486.61	13556.38
486.78	13830.23
486.96	13811.50
487.14	13900.44
487.32	13865.33
487.50	13965.98
487.68	14085.34
487.85	14232.80
488.03	14792.19
488.21	14464.51
488.39	14925.60
488.57	14874.10
488.75	14684.52
488.92	14937.30
489.10	15227.53
489.28	15236.89
489.46	15550.52
489.64	15103.48
489.81	15653.50
489.99	15475.62
490.17	15805.64
490.35	15978.84
490.53	15985.86
490.70	16037.35
490.88	16020.97
491.06	16294.81
491.24	16105.23
491.41	16446.94
491.59	16842.50
491.77	16449.28
491.95	16545.25
492.13	16931.44
492.30	16940.80
492.48	16741.85
492.66	17060.16
492.84	16947.82
493.01	17392.52
493.19	17404.22
493.37	17406.56
493.54	17544.66
493.72	17369.12
493.90	17422.95
494.08	17818.50
494.25	18038.51
494.43	18075.96
494.61	18099.36
494.79	18288.95
494.96	18200.01
495.14	18192.98
495.32	18590.88
495.49	18693.86
495.67	18567.47
495.85	18836.63
496.02	18876.42
496.20	19009.83
496.38	19040.26
496.55	18909.19
496.73	19852.42
496.91	19332.82
497.09	19494.32
497.26	19756.46
497.44	19583.26
497.62	19695.61
497.79	19831.36
497.97	19700.29
498.14	20180.10
498.32	20088.82
498.50	20189.46
498.67	20152.01
498.85	20568.63
499.03	20306.49
499.20	20437.56
499.38	20650.55
499.56	20833.11
499.73	20856.51
499.91	21020.35
500.08	20840.13
500.26	20945.45
500.44	20982.90
500.61	21104.61
500.79	21153.76
500.97	21228.66
501.14	21413.56
501.32	21359.73
501.49	21544.63
501.67	21605.49
501.84	22171.89
502.02	21788.05
502.20	21827.84
502.37	21963.59
502.55	21685.06
502.72	21986.99
502.90	22300.62
503.07	21989.33
503.25	22199.98
503.43	22047.85
503.60	22202.32
503.78	22548.72
503.95	22764.05
504.13	22602.55
504.30	22860.01
504.48	22750.01
504.65	22700.86
504.83	23014.49
505.01	23005.13
505.18	23227.48
505.36	23302.37
505.53	22815.54
505.71	23073.00
505.88	23506.00
506.06	23234.50
506.23	23592.60
506.41	23388.97
506.58	23667.50
506.76	23222.80
506.93	23651.11
507.11	23473.23
507.28	23821.97
507.46	23868.78
507.63	23761.12
507.81	24390.72
507.98	23873.46
508.16	23939.00
508.33	24372.00
508.50	24269.01
508.68	24276.04
508.85	24339.23
509.03	24355.61
509.20	24823.72
509.38	24891.60
509.55	25008.62
509.73	25020.33
509.90	25326.94
510.08	24847.13
510.25	25102.25
510.42	25282.47
510.60	25226.29
510.77	25104.59
510.95	25795.04
511.12	25678.02
511.30	25315.23
511.47	25694.40
511.64	25891.01
511.82	25895.69
511.99	25757.60
512.17	25734.19
512.34	25853.56
512.51	26141.44
512.69	26333.37
512.86	26057.18
513.04	26459.76
513.21	26132.08
513.38	26494.86
513.56	26387.20
513.73	26328.69
513.90	26785.09
514.08	26745.30
514.25	26766.37
514.43	26850.63
514.60	26686.79
514.77	26768.71
514.95	26934.88
515.12	26471.46
515.29	26609.55
515.47	27009.78
515.64	27321.07
515.81	27115.11
515.99	27281.28
516.16	27494.27
516.33	27131.49
516.51	27583.21
516.68	27672.15
516.85	27534.06
517.03	27840.67
517.20	27627.68
517.37	27665.13
517.54	27475.55
517.72	27627.68
517.89	27693.22
518.06	27800.88
518.24	28020.89
518.41	27889.82
518.58	28002.17
518.75	27943.66
518.93	27988.13
519.10	28025.57
519.27	28098.13
519.45	28402.40
519.62	28669.22
519.79	28390.70
519.96	28456.23
520.14	28734.76
520.31	28519.43
520.48	28751.14
520.65	28224.52
520.83	28851.78
521.00	29191.16
521.17	28961.79
521.34	29163.08
521.52	29015.62
521.69	29132.65
521.86	29310.53
522.03	29415.85
522.20	29497.77
522.38	29600.76
522.55	29521.18
522.72	29937.79
522.89	29345.64
523.07	29879.28
523.24	29596.07
523.41	29591.39
523.58	29766.93
523.75	30043.12
523.92	29694.38
524.10	29930.77
524.27	29820.77
524.44	30148.44
524.61	29703.74
524.78	30178.87
524.96	30347.39
525.13	30513.56
525.30	30199.93
525.47	30534.63
525.64	30127.38
525.81	30583.78
525.98	30621.23
526.16	30504.20
526.33	30981.67
526.50	30682.08
526.67	30300.58
526.84	31061.25
527.01	30813.15
527.18	31264.88
527.36	30946.56
527.53	31381.90
527.70	31314.03
527.87	31232.11
528.04	30939.54
528.21	31096.36
528.38	31278.92
528.55	31515.31
528.72	31541.06
528.89	31721.28
529.07	31290.62
529.24	30754.64
529.41	31793.84
529.58	31239.13
529.75	31747.03
529.92	31625.32
530.09	31969.38
530.26	31438.08
530.43	32013.85
530.60	31328.07
530.77	31672.13
530.94	32140.24
531.11	32126.19
531.28	32016.19
531.46	32114.49
531.63	32020.87
531.80	32055.98
531.97	32357.91
532.14	32451.53
532.31	32250.24
532.48	32519.40
532.65	32416.42
532.82	32627.07
532.99	32587.28
533.16	32683.24
533.33	32666.86
533.50	32720.69
533.67	32650.47
533.84	32378.97
534.01	32568.55
534.18	32547.49
534.35	33046.02
534.52	32879.85
534.69	33071.77
534.86	33069.43
535.03	32634.09
535.20	33083.47
535.37	33144.33
535.54	33373.70
535.71	33214.54
535.88	33085.81
536.05	33202.84
536.22	33495.41
536.38	33322.21
536.55	33443.91
536.72	33174.75
536.89	34017.35
537.06	33787.97
537.23	33837.12
537.40	33848.83
537.57	34019.69
537.74	34162.46
537.91	34033.73
538.08	33329.23
538.25	33553.92
538.42	33731.80
538.59	34316.93
538.75	34033.73
538.92	33942.45
539.09	34408.22
539.26	33684.99
539.43	34099.26
539.60	33956.49
539.77	34235.02
539.94	34660.99
540.11	34859.94
540.28	34567.37
540.44	34508.86
540.61	34857.60
540.78	34939.52
540.95	34670.36
541.12	34707.80
541.29	34691.42
541.46	35271.87
541.62	35239.11
541.79	35543.38
541.96	34888.03
542.13	34923.13
542.30	35248.47
542.47	35014.41
542.63	35262.51
542.80	35358.47
542.97	36062.97
543.14	35409.96
543.31	35318.68
543.48	35833.60
543.64	36039.57
543.81	36011.48
543.98	35452.09
544.15	35372.52
544.32	36238.51
544.48	36079.36
544.65	35931.90
544.82	35831.26
544.99	35590.19
545.16	35803.17
545.32	36004.46
545.49	36395.33
545.66	36786.20
545.83	37565.60
546.00	37055.36
546.16	36594.28
546.33	36470.23
546.50	36360.22
546.67	36397.67
546.83	35931.90
547.00	36306.39
547.17	36250.22
547.34	35756.36
547.50	35929.56
547.67	36292.35
547.84	36828.33
548.00	36931.31
548.17	36624.70
548.34	36868.12
548.51	36463.21
548.67	36624.70
548.84	36465.55
549.01	37034.30
549.18	36938.33
549.34	36959.40
549.51	36844.71
549.68	37181.75
549.84	36954.72
550.01	36657.47
550.18	36877.48
550.34	36676.19
550.51	36582.57
550.68	36687.90
550.84	36755.77
551.01	37270.69
551.18	37015.57
551.34	36467.89
551.51	36751.09
551.68	37008.55
551.84	36718.32
552.01	36753.43
552.18	37209.84
552.34	37074.09
552.51	37387.72
552.68	37078.77
552.84	36797.90
553.01	37448.57
553.18	36935.99
553.34	37258.99
553.51	36980.46
553.67	37675.60
553.84	37600.71
554.01	37500.06
554.17	37420.48
554.34	37455.59
554.51	37399.42
554.67	37717.73
554.84	37467.30
555.00	37429.85
555.17	37109.19
555.33	37270.69
555.50	37748.16
555.67	37544.53
555.83	37577.30
556.00	37551.56
556.16	38082.86
556.33	37982.21
556.50	37837.10
556.66	37745.82
556.83	37422.83
556.99	38087.54
557.16	37947.11
557.32	37965.83
557.49	38227.97
557.65	37832.42
557.82	37691.99
557.98	37748.16
558.15	37771.57
558.32	38520.54
558.48	38029.02
558.65	38075.84
558.81	38220.95
558.98	38190.52
559.14	38134.35
559.31	38246.69
559.47	38153.07
559.64	38286.48
559.80	38162.43
559.97	38291.16
560.13	37993.92
560.30	38043.07
560.46	38345.00
560.63	38667.99
560.79	38129.67
560.96	38557.99
561.12	38948.85
561.29	38337.98
561.45	38024.34
561.61	38167.12
561.78	38246.69
561.94	38902.04
562.11	38981.62
562.27	38698.42
562.44	38988.64
562.60	38770.97
562.77	38876.30
562.93	38672.67
563.10	38852.89
563.26	38490.11
563.42	38878.64
563.59	38347.34
563.75	38738.21
563.92	38806.08
564.08	38822.47
564.24	38848.21
564.41	38869.28
564.57	38721.82
564.74	38831.83
564.90	38953.54
565.07	39112.69
565.23	39124.40
565.39	39414.62
565.56	39363.13
565.72	38607.14
565.88	39089.29
566.05	39056.52
566.21	38518.20
566.38	38780.34
566.54	38651.61
566.70	39005.03
566.87	39159.50
567.03	39384.19
567.19	39466.11
567.36	39632.29
567.52	39079.92
567.68	39241.42
567.85	39201.63
568.01	39220.36
568.17	38883.32
568.34	38913.75
568.50	38958.22
568.66	39241.42
568.83	39784.43
568.99	39248.44
569.15	38944.17
569.32	39248.44
569.48	39070.56
569.64	39541.01
569.81	38998.01
569.97	39091.63
570.13	39423.98
570.30	39283.55
570.46	39903.79
570.62	39047.16
570.78	39110.35
570.95	38888.00
571.11	39697.83
571.27	39332.70
571.43	39115.03
571.60	38951.20
571.76	39014.39
571.92	39363.13
572.09	39388.88
572.25	39459.09
572.41	39585.48
572.57	39618.25
572.74	39669.74
572.90	39854.64
573.06	39618.25
573.22	39517.60
573.38	39496.54
573.55	39143.12
573.71	39604.20
573.87	39351.43
574.03	39449.73
574.20	39667.40
574.36	39566.76
574.52	39526.97
574.68	39498.88
574.84	40219.77
575.01	39295.25
575.17	39679.10
575.33	39761.02
575.49	39590.16
575.65	39725.91
575.82	39594.84
575.98	39971.67
576.14	40088.70
576.30	39679.10
576.46	40130.83
576.62	39929.54
576.79	39693.15
576.95	39384.19
577.11	39517.60
577.27	39562.08
577.43	39941.24
577.59	39896.77
577.75	40069.97
577.92	39065.88
578.08	39391.22
578.24	39618.25
578.40	39908.47
578.56	40011.46
578.72	40259.55
578.88	40292.32
579.04	39859.32
579.21	40025.50
579.37	40285.30
579.53	39643.99
579.69	39749.32
579.85	39995.07
580.01	39917.84
580.17	39606.55
580.33	40004.44
580.49	39828.90
580.65	40055.93
580.82	39983.37
580.98	39920.18
581.14	39892.09
581.30	39835.92
581.46	39772.72
581.62	39526.97
581.78	39746.98
581.94	40126.14
582.10	39466.11
582.26	40011.46
582.42	39885.07
582.58	39725.91
582.74	39714.21
582.90	40030.18
583.06	40341.47
583.22	39538.67
583.38	39751.66
583.54	39449.73
583.70	39655.70
583.86	39634.63
584.02	39625.27
584.18	39936.56
584.34	39744.64
584.50	40053.59
584.66	39927.20
584.82	39414.62
584.98	40243.17
585.14	40275.94
585.30	39948.26
585.46	39548.03
585.62	40018.48
585.78	40238.49
585.94	39922.52
586.10	40142.53
586.26	40444.46
586.42	40055.93
586.58	40325.09
586.74	40051.25
586.90	39875.71
587.06	40091.04
587.22	40100.40
587.38	40100.40
587.54	40084.01
587.70	40921.93
587.86	40093.38
588.02	40215.08
588.18	40655.11
588.34	40072.31
588.49	40325.09
588.65	40055.93
588.81	40238.49
588.97	40149.55
589.13	40285.30
589.29	40563.82
589.45	40130.83
589.61	40196.36
589.77	39971.67
589.93	40172.96
590.08	40158.91
590.24	40486.59
590.40	40271.26
590.56	40030.18
590.72	40575.53
590.88	39894.43
591.04	40509.99
591.20	40388.28
591.35	40627.02
591.51	40858.73
591.67	41029.59
591.83	40556.80
591.99	40219.77
592.15	40451.48
592.31	40554.46
592.46	40144.87
592.62	40397.65
592.78	40430.41
592.94	39938.90
593.10	40828.30
593.26	41160.66
593.41	40673.83
593.57	40334.45
593.73	40605.95
593.89	40540.42
594.05	40203.38
594.20	40093.38
594.36	40727.66
594.52	40076.99
594.68	40591.91
594.84	40561.48
594.99	40788.52
595.15	40634.04
595.31	41146.62
595.47	40439.78
595.62	40610.64
595.78	40318.07
595.94	39885.07
596.10	40524.04
596.25	40589.57
596.41	40481.91
596.57	40591.91
596.73	40465.52
596.88	40229.13
597.04	40666.81
597.20	40460.84
597.36	40952.35
597.51	40540.42
597.67	40634.04
597.83	40479.57
597.99	40823.62
598.14	40739.36
598.30	40971.08
598.46	40423.39
598.61	40947.67
598.77	40479.57
598.93	40891.50
599.09	40561.48
599.24	40811.92
599.40	40914.90
599.56	40692.55
599.71	41008.53
599.87	40610.64
600.03	40402.33
600.18	40928.95
600.34	40758.09
600.50	40348.50
600.65	40875.12
600.81	41038.95
600.97	41102.15
601.12	40786.18
601.28	41137.26
601.44	40732.34
601.59	40404.67
601.75	40966.40
601.91	41045.97
602.06	40673.83
602.22	41074.06
602.37	40421.05
602.53	40678.51
602.69	41064.70
602.84	40751.07
603.00	40961.72
603.16	40533.40
603.31	40779.15
603.47	40507.65
603.62	40514.67
603.78	40428.07
603.94	40395.31
604.09	40875.12
604.25	40526.38
604.40	40580.21
604.56	40498.29
604.71	40704.26
604.87	40505.31
605.03	40779.15
605.18	40730.00
605.34	40491.27
605.49	40069.97
605.65	40203.38
605.80	40975.76
605.96	40645.74
606.12	40727.66
606.27	41357.27
606.43	40837.67
606.58	40973.42
606.74	40582.55
606.89	40942.99
607.05	40477.22
607.20	40158.91
607.36	39959.97
607.51	40570.85
607.67	40245.51
607.82	40928.95
607.98	40760.43
608.13	40765.11
608.29	40783.83
608.44	40561.48
608.60	40903.20
608.75	40800.22
608.91	40690.21
609.06	40168.27
609.22	40765.11
609.37	40383.60
609.53	39901.45
609.68	40617.66
609.84	40076.99
609.99	40659.79
610.15	40697.24
610.30	41146.62
610.46	41001.50
610.61	40935.97
610.76	41258.96
610.92	41242.58
611.07	41195.77
611.23	40877.46
611.38	41029.59
611.54	41731.75
611.69	40994.48
611.84	41268.33
612.00	41219.17
612.15	41319.82
612.31	40914.90
612.46	40495.95
612.62	40488.93
612.77	40596.59
612.92	41188.75
613.08	40282.96
613.23	40474.88
613.39	40196.36
613.54	40163.59
613.69	40465.52
613.85	40142.53
614.00	40196.36
614.15	40659.79
614.31	40282.96
614.46	40306.37
614.62	40514.67
614.77	40107.42
614.92	40219.77
615.08	39730.59
615.23	39969.33
615.38	39924.86
615.54	39337.38
615.69	39501.22
615.84	39672.08
616.00	40016.14
616.15	39903.79
616.30	40194.02
616.46	40034.86
616.61	39452.07
616.76	39681.44
616.92	39253.12
617.07	39421.64
617.22	39309.30
617.37	39255.46
617.53	38976.94
617.68	39824.22
617.83	39374.83
617.99	39363.13
618.14	40327.43
618.29	39150.14
618.45	39363.13
618.60	39304.62
618.75	39187.59
618.90	38838.85
619.06	38888.00
619.21	38806.08
619.36	39299.94
619.51	38834.17
619.67	39232.06
619.82	39091.63
619.97	39079.92
620.12	39330.36
620.28	39077.58
620.43	39112.69
620.58	39138.44
620.73	39166.52
620.89	39302.28
621.04	39459.09
621.19	39194.61
621.34	38782.68
621.49	38789.70
621.65	38611.82
621.80	38998.01
621.95	39009.71
622.10	39068.22
622.25	38998.01
622.41	39208.65
622.56	38710.12
622.71	39021.41
622.86	38770.97
623.01	38494.79
623.16	38698.42
623.32	38508.83
623.47	39021.41
623.62	38969.92
623.77	38895.02
623.92	38663.31
624.07	38838.85
624.23	38981.62
624.38	39136.10
624.53	38986.30
624.68	38380.10
624.83	39100.99
624.98	38572.03
625.13	37785.61
625.29	38557.99
625.44	38239.67
625.59	38211.59
625.74	38213.93
625.89	38382.45
626.04	37963.49
626.19	38036.05
626.34	38291.16
626.49	38419.89
626.65	38274.78
626.80	38132.01
626.95	37944.76
627.10	37890.93
627.25	38391.81
627.40	38211.59
627.55	37890.93
627.70	37916.68
627.85	38003.28
628.00	38108.60
628.15	38176.48
628.30	37537.51
628.45	38251.38
628.60	37680.28
628.76	37827.74
628.91	37804.33
629.06	37783.27
629.21	37991.58
629.36	38134.35
629.51	37879.23
629.66	38078.18
629.81	37766.88
629.96	37794.97
630.11	37581.98
630.26	38099.24
630.41	37940.08
630.56	38010.30
630.71	37893.27
630.86	37942.42
631.01	37507.08
631.16	37926.04
631.31	37326.86
631.46	37331.54
631.61	37710.71
631.76	37691.99
631.91	37626.45
632.06	36999.19
632.21	37125.58
632.36	37614.75
632.51	37275.37
632.66	37310.48
632.81	37053.02
632.96	37453.25
633.10	37425.17
633.25	37296.44
633.40	36978.12
633.55	36973.44
633.70	36666.83
633.85	36858.76
634.00	36835.35
634.15	36847.05
634.30	36959.40
634.45	36917.27
634.60	37043.66
634.75	37628.79
634.90	37020.25
635.05	37235.58
635.19	37092.81
635.34	36996.85
635.49	36418.74
635.64	36999.19
635.79	36510.02
635.94	36687.90
636.09	36566.19
636.24	36725.35
636.39	36783.86
636.53	36835.35
636.68	36797.90
636.83	36608.32
636.98	36706.62
637.13	36421.08
637.28	36467.89
637.43	36734.71
637.57	36456.18
637.72	35697.85
637.87	36435.12
638.02	36720.66
638.17	35999.78
638.32	36121.49
638.46	36102.76
638.61	36514.70
638.76	36348.52
638.91	36451.50
639.06	36517.04
639.20	36472.57
639.35	36577.89
639.50	36175.32
639.65	36755.77
639.80	35803.17
639.94	36198.73
640.09	36011.48
640.24	35845.30
640.39	35842.96
640.54	36512.36
640.68	36102.76
640.83	36004.46
640.98	35620.61
641.13	35452.09
641.27	35978.72
641.42	35735.30
641.57	35325.71
641.72	35613.59
641.86	35674.45
642.01	35496.56
642.16	35711.89
642.31	35452.09
642.45	35725.94
642.60	35358.47
642.75	35393.58
642.90	35402.94
643.04	35278.89
643.19	35679.13
643.34	36114.47
643.48	36329.80
643.63	35709.55
643.78	35606.57
643.93	35445.07
644.07	35278.89
644.22	35466.14
644.37	35512.95
644.51	35166.55
644.66	35051.86
644.81	35515.29
644.95	35365.49
645.10	35564.44
645.25	35536.35
645.39	35491.88
645.54	35590.19
645.69	35503.59
645.83	35033.14
645.98	35150.17
646.13	35112.72
646.27	35543.38
646.42	35524.65
646.57	35253.15
646.71	35096.33
646.86	35047.18
647.00	35299.96
647.15	35220.38
647.30	35047.18
647.44	34628.23
647.59	35204.00
647.74	35012.07
647.88	34946.54
648.03	34866.96
648.17	35164.21
648.32	34440.98
648.47	34787.38
648.61	34433.96
648.76	35321.02
648.90	34668.02
649.05	34909.09
649.20	34813.13
649.34	34768.66
649.49	35131.44
649.63	35292.94
649.78	35442.73
649.92	34630.57
650.07	34866.96
650.21	34841.21
650.36	34518.22
650.51	34733.55
650.65	34939.52
650.80	34684.40
650.94	34747.59
651.09	34958.24
651.23	34630.57
651.38	34600.14
651.52	34394.17
651.67	34412.90
651.81	34616.52
651.96	34345.02
652.10	34153.10
652.25	34139.05
652.39	34319.28
652.54	33930.75
652.68	33457.96
652.83	33523.49
652.97	33769.25
653.12	34305.23
653.26	33933.09
653.41	34675.04
653.55	34050.11
653.70	34244.38
653.84	34504.18
653.99	33998.62
654.13	34012.66
654.27	34146.08
654.42	34321.62
654.56	34066.50
654.71	34265.44
654.85	34052.45
655.00	34192.89
655.14	33869.89
655.29	33464.98
655.43	33968.19
655.57	33553.92
655.72	33610.09
655.86	33687.33
656.01	33699.03
656.15	33474.34
656.30	33844.15
656.44	33865.21
656.58	33708.40
656.73	33993.94
656.87	33818.40
657.01	33661.58
657.16	33738.82
657.30	33975.22
657.45	33708.40
657.59	33551.58
657.73	33186.46
657.88	33577.33
658.02	33188.80
658.16	33322.21
658.31	33556.26
658.45	33958.83
658.60	33085.81
658.74	33436.89
658.88	33294.12
659.03	33024.96
659.17	33024.96
659.31	32879.85
659.46	33055.39
659.60	32921.98
659.74	32807.29
659.89	33181.77
660.03	32865.80
660.17	32779.20
660.32	32409.40
660.46	32304.07
660.60	32444.51
660.74	32533.45
660.89	32755.80
661.03	32900.91
661.17	32247.90
661.32	32580.26
661.46	32493.66
661.60	32217.47
661.74	32341.52
661.89	32079.38
662.03	32411.74
662.17	32081.72
662.31	32552.17
662.46	32154.28
662.60	32224.50
662.74	32676.22
662.88	32268.97
663.03	32180.03
663.17	32343.86
663.31	32037.25
663.45	32072.36
663.60	31541.06
663.74	31831.29
663.88	31786.82
664.02	31737.66
664.17	31667.45
664.31	31171.25
664.45	31290.62
664.59	31482.55
664.73	31618.30
664.88	31307.01
665.02	31091.68
665.16	31449.78
665.30	31234.45
665.44	31646.38
665.59	31204.02
665.73	31180.62
665.87	31016.78
666.01	31119.76
666.15	31400.63
666.29	30646.97
666.44	30899.75
666.58	30417.60
666.72	30464.41
666.86	30902.09
667.00	30574.42
667.14	30923.16
667.28	30574.42
667.43	30508.88
667.57	30962.95
667.71	31082.31
667.85	30885.71
667.99	30639.95
668.13	30307.60
668.27	30230.36
668.41	30609.53
668.56	30202.27
668.70	29881.62
668.84	30148.44
668.98	29727.14
669.12	30066.52
669.26	29659.27
669.40	29769.27
669.54	30195.25
669.68	29783.32
669.82	29970.56
669.96	29872.26
670.10	29809.06
670.25	29860.55
670.39	29563.31
670.53	29399.47
670.67	29209.89
670.81	29701.40
670.95	29500.11
671.09	29626.50
671.23	29020.30
671.37	29551.60
671.51	29457.98
671.65	29465.00
671.79	29336.27
671.93	29558.63
672.07	29230.95
672.21	29081.16
672.35	28959.45
672.49	29039.03
672.63	28840.08
672.77	28701.99
672.91	28989.88
673.05	28381.34
673.19	28362.61
673.33	28353.25
673.47	28416.44
673.61	28404.74
673.75	28755.82
673.89	28652.84
674.03	28154.30
674.17	28294.74
674.31	28051.32
674.45	28320.48
674.59	28599.01
674.73	28636.45
674.87	28006.85
675.01	27255.54
675.15	27786.84
675.29	28006.85
675.43	27845.35
675.56	27903.87
675.70	27843.01
675.84	27285.97
675.98	26499.55
676.12	27175.96
676.26	27166.60
676.40	27555.13
676.54	27290.65
676.68	27445.12
676.82	26794.45
676.96	27159.58
677.10	27199.37
677.23	27133.83
677.37	26920.84
677.51	26988.72
677.65	26560.40
677.79	25916.75
677.93	26284.22
678.07	26195.28
678.21	26246.77
678.34	26045.48
678.48	25645.25
678.62	25853.56
678.76	26057.18
678.90	25916.75
679.04	25788.02
679.18	25476.73
679.31	25399.49
679.45	25769.30
679.59	25532.90
679.73	25525.88
679.87	25413.54
680.00	25387.79
680.14	25188.85
680.28	25125.65
680.42	25006.28
680.56	24994.58
680.70	24814.36
680.83	24790.95
680.97	24535.84
681.11	24720.74
681.25	24418.81
681.39	24805.00
681.52	24669.25
681.66	24769.89
681.80	23981.13
681.94	24266.67
682.07	24449.24
682.21	24137.94
682.35	24243.27
682.49	24189.44
682.62	24116.88
682.76	23957.72
682.90	24133.26
683.04	23857.08
683.17	23527.06
683.31	23765.80
683.45	23428.76
683.59	23520.04
683.72	23482.59
683.86	23690.90
684.00	23199.39
684.13	23110.45
684.27	22773.41
684.41	22860.01
684.55	23199.39
684.68	22759.37
684.82	22637.66
684.96	22836.61
685.09	22834.27
685.23	22698.52
685.37	23021.51
685.50	22642.34
685.64	22469.14
685.78	22438.72
685.91	22197.64
686.05	22375.52
686.19	21930.82
686.32	21907.41
686.46	21713.15
686.60	21858.26
686.73	22089.98
686.87	21806.77
687.01	21521.23
687.14	21687.40
687.28	21638.25
687.42	21652.30
687.55	21439.31
687.69	21668.68
687.82	21406.54
687.96	21406.54
688.10	21238.02
688.23	21509.52
688.37	21270.79
688.50	20819.07
688.64	20971.20
688.78	20877.58
688.91	20893.96
689.05	20702.04
689.18	20627.14
689.32	20416.49
689.46	20482.03
689.59	20262.02
689.73	20493.73
689.86	19765.82
690.00	20126.27
690.13	20011.58
690.27	20269.04
690.41	20032.65
690.54	19655.82
690.68	19943.70
690.81	19971.79
690.95	19791.57
691.08	19641.78
691.22	19269.63
691.35	19255.59
691.49	19627.73
691.62	19459.21
691.76	19098.77
691.89	19232.18
692.03	19157.28
692.16	18773.44
692.30	18998.13
692.43	18822.59
692.57	18728.97
692.70	18684.50
692.84	18740.67
692.97	18665.77
693.11	18735.99
693.24	18054.89
693.38	18338.10
693.51	18361.50
693.65	17832.54
693.78	18178.94
693.92	18471.51
694.05	17858.29
694.19	18258.52
694.32	18003.40
694.45	18347.46
694.59	18314.69
694.72	17577.42
694.86	17687.43
694.99	17699.13
695.13	17357.41
695.26	17348.05
695.39	17334.01
695.53	17259.11
695.66	17298.90
695.80	17214.64
695.93	16964.20
696.07	17048.46
696.20	17001.65
696.33	17048.46
696.47	16819.09
696.60	16830.79
696.73	16851.86
696.87	16718.45
697.00	16868.24
697.14	16652.91
697.27	16402.47
697.40	16395.45
697.54	16137.99
697.67	16114.59
697.80	16037.35
697.94	16194.17
698.07	15995.22
698.21	15597.33
698.34	15957.77
698.47	15871.17
698.61	15473.28
698.74	15765.85
698.87	15733.08
699.01	15470.94
699.14	15585.63
699.27	15517.75
699.40	15704.99
699.54	15716.70
699.67	15274.34
699.80	15126.88
699.94	15030.92
700.07	14892.83
700.20	15070.71
700.34	14731.33
700.47	14965.39
700.60	14988.79
700.73	14787.50
700.87	14834.32
701.00	14602.60
701.13	14773.46
701.26	14637.71
701.40	14462.17
701.53	14075.98
701.66	14111.09
701.79	14075.98
701.93	14366.21
702.06	14242.16
702.19	14162.58
702.32	14256.20
702.46	14005.77
702.59	13788.10
702.72	13858.31
702.85	13851.29
702.99	13713.20
703.12	13710.86
703.25	13329.35
703.38	13444.04
703.51	13329.35
703.65	13490.85
703.78	13511.91
703.91	13245.09
704.04	13303.60
704.17	13514.25
704.31	13209.98
704.44	13123.38
704.57	12861.24
704.70	12762.94
704.83	12613.15
704.96	12730.17
705.10	12482.08
705.23	12786.35
>>>>>End Processed Spectral Data<<<<<
