SpectraSuite Data File
++++++++++++++++++++++++++++++++++++
Date: Thu Oct 24 13:21:18 EDT 2013
User: stostad
Dark Spectrum Present: No
Reference Spectrum Present: No
Number of Sampled Component Spectra: 1
Spectrometers: USB2+H05261
Integration Time (usec): 100000 (USB2+H05261)
Spectra Averaged: 1 (USB2+H05261)
Boxcar Smoothing: 0 (USB2+H05261)
Correct for Electrical Dark: No (USB2+H05261)
Strobe/Lamp Enabled: No (USB2+H05261)
Correct for Detector Non-linearity: No (USB2+H05261)
Correct for Stray Light: No (USB2+H05261)
Number of Pixels in Processed Spectrum: 2048
>>>>>Begin Processed Spectral Data<<<<<
365.73	580.45
365.92	580.45
366.12	580.45
366.32	444.70
366.52	472.79
366.72	505.56
366.91	496.19
367.11	468.11
367.31	395.55
367.51	440.02
367.70	472.79
367.90	379.17
368.10	463.43
368.30	454.06
368.49	472.79
368.69	451.72
368.89	545.34
369.09	519.60
369.28	449.38
369.48	510.24
369.68	554.71
369.87	557.05
370.07	505.56
370.27	503.22
370.47	575.77
370.66	807.48
370.86	779.40
371.06	800.46
371.25	933.87
371.45	828.55
371.65	856.64
371.84	833.23
372.04	823.87
372.24	887.06
372.44	889.40
372.63	854.30
372.83	826.21
373.03	903.45
373.22	940.90
373.42	964.30
373.62	894.08
373.81	950.26
374.01	938.55
374.21	905.79
374.40	983.02
374.60	985.37
374.79	919.83
374.99	922.17
375.19	938.55
375.38	943.24
375.58	910.47
375.78	922.17
375.97	861.32
376.17	933.87
376.37	1008.77
376.56	929.19
376.76	912.81
376.95	931.53
377.15	997.07
377.35	978.34
377.54	971.32
377.74	1004.09
377.93	980.68
378.13	976.00
378.33	971.32
378.52	961.96
378.72	1076.65
378.91	990.05
379.11	1027.50
379.31	992.39
379.50	1032.18
379.70	1102.39
379.89	1048.56
380.09	973.66
380.28	1046.22
380.48	1036.86
380.68	1064.94
380.87	950.26
381.07	1006.43
381.26	1027.50
381.46	1057.92
381.65	1053.24
381.85	1076.65
382.04	1029.84
382.24	1132.82
382.43	1076.65
382.63	1067.28
382.83	1102.39
383.02	1118.78
383.22	1081.33
383.41	1093.03
383.61	1184.31
383.80	1100.05
384.00	1107.07
384.19	1123.46
384.39	1121.12
384.58	1125.80
384.78	1071.97
384.97	1116.44
385.17	1083.67
385.36	1205.38
385.56	1050.90
385.75	1151.54
385.95	1179.63
386.14	1156.22
386.34	1184.31
386.53	1191.33
386.72	1139.84
386.92	1210.06
387.11	1163.25
387.31	1224.10
387.50	1226.44
387.70	1064.94
387.89	1165.59
388.09	1139.84
388.28	1266.23
388.48	1198.35
388.67	1181.97
388.86	1217.08
389.06	1254.53
389.25	1247.51
389.45	1252.19
389.64	1259.21
389.84	1238.14
390.03	1149.20
390.22	1214.74
390.42	1228.78
390.61	1181.97
390.81	1231.12
391.00	1282.61
391.19	1252.19
391.39	1240.48
391.58	1245.16
391.78	1341.13
391.97	1362.19
392.16	1322.40
392.36	1310.70
392.55	1299.00
392.75	1226.44
392.94	1357.51
393.13	1411.34
393.33	1280.27
393.52	1352.83
393.71	1394.96
393.91	1369.21
394.10	1385.60
394.29	1416.02
394.49	1291.98
394.68	1378.58
394.88	1406.66
395.07	1366.87
395.26	1401.98
395.46	1418.36
395.65	1423.05
395.84	1416.02
396.04	1465.18
396.23	1476.88
396.42	1446.45
396.62	1441.77
396.81	1441.77
397.00	1455.81
397.19	1495.60
397.39	1542.41
397.58	1502.62
397.77	1469.86
397.97	1472.20
398.16	1554.12
398.35	1582.20
398.55	1497.94
398.74	1561.14
398.93	1600.93
399.12	1575.18
399.32	1577.52
399.51	1603.27
399.70	1610.29
399.90	1572.84
400.09	1694.55
400.28	1591.56
400.47	1650.08
400.67	1713.27
400.86	1671.14
401.05	1633.69
401.24	1699.23
401.44	1650.08
401.63	1724.97
401.82	1647.74
402.01	1629.01
402.21	1755.40
402.40	1715.61
402.59	1748.38
402.78	1734.34
402.97	1739.02
403.17	1746.04
403.36	1736.68
403.55	1874.77
403.74	1818.60
403.93	1888.81
404.13	1966.05
404.32	1820.94
404.51	1825.62
404.70	1865.41
404.89	1825.62
405.09	1858.39
405.28	1975.41
405.47	1944.99
405.66	1940.30
405.85	1916.90
406.05	1998.82
406.24	1959.03
406.43	2008.18
406.62	2008.18
406.81	2073.71
407.00	1949.67
407.20	2059.67
407.39	2015.20
407.58	2045.63
407.77	2113.50
407.96	2066.69
408.15	2083.08
408.34	2097.12
408.54	2106.48
408.73	2064.35
408.92	2146.27
409.11	2190.74
409.30	2214.15
409.49	2099.46
409.68	2179.04
409.87	2195.42
410.07	2333.51
410.26	2307.77
410.45	2289.04
410.64	2258.62
410.83	2366.28
411.02	2370.96
411.21	2293.72
411.40	2356.92
411.59	2361.60
411.78	2286.70
411.98	2429.48
412.17	2434.16
412.36	2406.07
412.55	2480.97
412.74	2473.95
412.93	2476.29
413.12	2530.12
413.31	2569.91
413.50	2569.91
413.69	2523.10
413.88	2635.44
414.07	2574.59
414.26	2562.89
414.45	2682.25
414.64	2637.78
414.83	2731.41
415.02	2691.62
415.22	2864.82
415.41	2736.09
415.60	2764.17
415.79	2815.66
415.98	2869.50
416.17	2820.35
416.36	2806.30
416.55	2822.69
416.74	2857.79
416.93	2925.67
417.12	2878.86
417.31	2963.12
417.50	2946.73
417.69	3133.98
417.88	3038.02
418.07	3047.38
418.26	3040.36
418.45	3162.06
418.64	3122.27
418.83	3197.17
419.02	3035.67
419.21	3248.66
419.39	3220.58
419.58	3133.98
419.77	3124.62
419.96	3199.51
420.15	3346.97
420.34	3173.77
420.53	3281.43
420.72	3272.07
420.91	3232.28
421.10	3311.86
421.29	3283.77
421.48	3267.39
421.67	3316.54
421.86	3424.20
422.05	3339.94
422.24	3323.56
422.43	3344.63
422.61	3459.31
422.80	3463.99
422.99	3461.65
423.18	3461.65
423.37	3403.14
423.56	3375.05
423.75	3375.05
423.94	3468.67
424.13	3255.69
424.32	3283.77
424.50	3433.57
424.69	3524.85
424.88	3475.70
425.07	3440.59
425.26	3538.89
425.45	3412.50
425.64	3431.23
425.83	3414.84
426.01	3445.27
426.20	3475.70
426.39	3538.89
426.58	3522.51
426.77	3588.04
426.96	3705.07
427.15	3541.23
427.33	3634.85
427.52	3566.98
427.71	3564.64
427.90	3552.93
428.09	3637.19
428.28	3660.60
428.46	3599.74
428.65	3679.32
428.84	3651.24
429.03	3716.77
429.22	3667.62
429.40	3644.21
429.59	3880.61
429.78	3714.43
429.97	3604.42
430.16	3730.81
430.34	3889.97
430.53	3922.74
430.72	3808.05
430.91	3843.16
431.10	3693.37
431.28	3871.25
431.47	3932.10
431.66	3854.86
431.85	3918.06
432.03	3985.93
432.22	3838.48
432.41	4081.89
432.60	4095.94
432.79	4121.68
432.97	4025.72
433.16	4114.66
433.35	4074.87
433.54	4124.02
433.72	4039.76
433.91	4114.66
434.10	4208.28
434.28	4100.62
434.47	4056.15
434.66	4306.59
434.85	4430.63
435.03	4332.33
435.22	4337.01
435.41	4610.86
435.59	4723.20
435.78	4535.96
435.97	4486.81
436.16	4397.87
436.34	4315.95
436.53	4524.26
436.72	4313.61
436.90	4306.59
437.09	4381.48
437.28	4348.72
437.46	4430.63
437.65	4472.76
437.84	4622.56
438.02	4505.53
438.21	4505.53
438.40	4376.80
438.58	4697.46
438.77	4748.95
438.96	4629.58
439.14	4702.14
439.33	4627.24
439.52	4669.37
439.70	4662.35
439.89	4840.23
440.08	4833.21
440.26	4926.83
440.45	4800.44
440.63	4905.76
440.82	4915.12
441.01	5107.05
441.19	5043.85
441.38	5116.41
441.57	5078.96
441.75	5184.29
441.94	5158.54
442.12	5181.95
442.31	5247.48
442.50	5188.97
442.68	5195.99
442.87	5093.01
443.05	5369.19
443.24	5338.76
443.43	5467.49
443.61	5411.32
443.80	5469.83
443.98	5238.12
444.17	5048.54
444.35	5317.70
444.54	5479.19
444.73	5460.47
444.91	5437.06
445.10	5458.13
445.28	5434.72
445.47	5418.34
445.65	5444.09
445.84	5399.62
446.02	5465.15
446.21	5408.98
446.39	5488.56
446.58	5460.47
446.77	5542.39
446.95	5359.83
447.14	5465.15
447.32	5633.67
447.51	5500.26
447.69	5385.57
447.88	5624.31
448.06	5472.17
448.25	5523.66
448.43	5675.80
448.62	5507.28
448.80	5603.24
448.99	5558.77
449.17	5799.85
449.36	5565.79
449.54	5619.63
449.73	5781.12
449.91	5699.20
450.10	5746.02
450.28	5867.72
450.46	5851.34
450.65	5980.07
450.83	5870.06
451.02	5940.28
451.20	5975.39
451.39	6008.16
451.57	5872.40
451.76	5888.79
451.94	5928.58
452.13	5874.74
452.31	6101.78
452.49	5905.17
452.68	5951.98
452.86	6150.93
453.05	6033.90
453.23	6155.61
453.42	6057.31
453.60	6153.27
453.78	6274.98
453.97	5933.26
454.15	6190.72
454.34	6125.18
454.52	6249.23
454.70	6207.10
454.89	6232.85
455.07	6408.39
455.26	6363.92
455.44	6434.13
455.62	6387.32
455.81	6333.49
455.99	6469.24
456.17	6612.01
456.36	6399.02
456.54	6511.37
456.73	6656.48
456.91	6602.65
457.09	6679.89
457.28	6633.08
457.46	6469.24
457.64	6661.16
457.83	6707.98
458.01	6534.78
458.19	6787.55
458.38	6820.32
458.56	6782.87
458.74	6792.23
458.93	6911.60
459.11	6871.81
459.29	6799.26
459.48	6953.73
459.66	6927.99
459.84	6923.30
460.03	7150.34
460.21	7016.93
460.39	7187.79
460.57	7068.42
460.76	7052.03
460.94	7014.59
461.12	7112.89
461.31	7178.42
461.49	7094.16
461.67	6909.26
461.85	7138.63
462.04	7173.74
462.22	7634.83
462.40	7344.60
462.59	7391.41
462.77	7255.66
462.95	7248.64
463.13	7440.56
463.32	7258.00
463.50	7550.57
463.68	7623.12
463.86	7417.16
464.05	7248.64
464.23	7398.43
464.41	7440.56
464.59	7346.94
464.78	7513.12
464.96	7559.93
465.14	7531.84
465.32	7562.27
465.50	7529.50
465.69	7681.64
465.87	7405.46
466.05	7618.44
466.23	7627.81
466.41	7630.15
466.60	7770.58
466.78	7716.75
466.96	7627.81
467.14	7639.51
467.32	7763.56
467.51	7644.19
467.69	7667.60
467.87	7831.43
468.05	7995.27
468.23	7889.95
468.41	7754.19
468.60	7885.26
468.78	7836.11
468.96	7866.54
469.14	7978.89
469.32	8215.28
469.50	8035.06
469.69	8011.65
469.87	8304.22
470.05	8292.52
470.23	8369.76
470.41	8189.53
470.59	8439.97
470.77	8098.25
470.95	8435.29
471.14	8575.72
471.32	8273.79
471.50	8449.33
471.68	8404.86
471.86	8449.33
472.04	8603.81
472.22	8674.03
472.40	8620.19
472.58	8669.34
472.77	8650.62
472.95	8688.07
473.13	8929.14
473.31	8833.18
473.49	8812.12
473.67	8788.71
473.85	8938.51
474.03	9095.32
474.21	9018.08
474.39	8973.61
474.57	9008.72
474.75	9205.33
474.93	9287.25
475.12	9275.54
475.30	9116.39
475.48	9247.46
475.66	9502.58
475.84	9366.82
476.02	9338.74
476.20	9605.56
476.38	9694.50
476.56	9963.66
476.74	9633.64
476.92	9776.42
477.10	9867.70
477.28	9891.10
477.46	9980.04
477.64	10113.45
477.82	10038.56
478.00	10239.84
478.18	10317.08
478.36	10391.98
478.54	10434.11
478.72	10434.11
478.90	10665.82
479.08	10651.78
479.26	10799.23
479.44	10958.39
479.62	10956.05
479.80	11052.01
479.98	10942.00
480.16	11595.01
480.34	11176.06
480.52	11126.91
480.70	11330.53
480.88	11283.72
481.06	11604.38
481.24	11634.80
481.41	11459.26
481.59	11716.72
481.77	11901.62
481.95	12039.72
482.13	12173.13
482.31	11995.25
482.49	12203.55
482.67	12180.15
482.85	12461.01
483.03	12737.20
483.21	12624.85
483.39	12788.69
483.57	12571.02
483.74	12760.60
483.92	12917.42
484.10	12807.41
484.28	12994.65
484.46	13488.51
484.64	13565.74
484.82	13177.22
485.00	13397.23
485.18	13799.80
485.35	14101.73
485.53	13743.63
485.71	13984.70
485.89	14083.00
486.07	14207.05
486.25	14284.29
486.43	14277.27
486.61	14490.26
486.78	14780.48
486.96	14389.61
487.14	15054.33
487.32	14902.19
487.50	14977.09
487.68	14944.32
487.85	15304.76
488.03	15419.45
488.21	15382.00
488.39	15384.34
488.57	15782.23
488.75	15955.43
488.92	15903.94
489.10	16046.71
489.28	16355.66
489.46	16437.58
489.64	16311.19
489.81	16673.98
489.99	16802.71
490.17	16697.38
490.35	16980.59
490.53	17240.39
490.70	17055.48
490.88	17277.83
491.06	17420.61
491.24	17216.98
491.41	17355.07
491.59	17731.90
491.77	17750.62
491.95	17621.89
492.13	17930.84
492.30	18045.53
492.48	18052.55
492.66	18420.02
492.84	17706.15
493.01	18581.51
493.19	18312.35
493.37	18307.67
493.54	18523.00
493.72	19033.24
493.90	18726.63
494.08	18995.79
494.25	19246.23
494.43	19199.41
494.61	19232.18
494.79	19632.41
494.96	19119.84
495.14	19634.75
495.32	19389.00
495.49	19679.22
495.67	20095.84
495.85	19733.06
496.02	20276.06
496.20	19894.55
496.38	20262.02
496.55	20264.36
496.73	20781.62
496.91	20535.86
497.09	20919.71
497.26	20580.33
497.44	20683.31
497.62	21242.70
497.79	21146.74
497.97	21277.81
498.14	21708.47
498.32	21762.30
498.50	21535.27
498.67	21626.55
498.85	21479.10
499.03	22050.19
499.20	21820.81
499.38	22026.78
499.56	22237.43
499.73	22122.74
499.91	22214.02
500.08	22167.21
500.26	22085.30
500.44	22647.02
500.61	22630.64
500.79	22852.99
500.97	22614.26
501.14	23468.55
501.32	22871.72
501.49	22717.24
501.67	22995.76
501.84	23201.73
502.02	23222.80
502.20	23508.34
502.37	23608.98
502.55	23433.44
502.72	23318.76
502.90	23288.33
503.07	23859.42
503.25	23840.70
503.43	23534.09
503.60	24102.84
503.78	23793.89
503.95	24215.18
504.13	23761.12
504.30	23922.62
504.48	24294.76
504.65	24374.34
504.83	24386.04
505.01	24634.14
505.18	24369.66
505.36	24690.31
505.53	24367.32
505.71	24673.93
505.88	25120.97
506.06	24762.87
506.23	24957.13
506.41	25261.40
506.58	25127.99
506.76	24842.45
506.93	24898.62
507.11	25212.25
507.28	25563.33
507.46	25598.44
507.63	25411.20
507.81	25947.18
507.98	25708.44
508.16	25797.38
508.33	25919.09
508.50	25598.44
508.68	26136.76
508.85	26064.21
509.03	26258.47
509.20	25848.88
509.38	26801.47
509.55	26604.87
509.73	26773.39
509.90	26642.32
510.08	26829.56
510.25	26740.62
510.42	26536.99
510.60	26998.08
510.77	27281.28
510.95	26977.01
511.12	27084.68
511.30	27103.40
511.47	27192.34
511.64	27491.93
511.82	27501.29
511.99	27557.47
512.17	27690.88
512.34	27665.13
512.51	27630.02
512.69	28278.35
512.86	28002.17
513.04	28339.21
513.21	27782.16
513.38	27805.56
513.56	27871.10
513.73	28053.66
513.90	28514.75
514.08	28379.00
514.25	28498.36
514.43	28533.47
514.60	28926.68
514.77	28498.36
514.95	28811.99
515.12	28795.61
515.29	28889.23
515.47	29291.80
515.64	29006.26
515.81	29249.67
515.99	29256.70
516.16	29120.95
516.33	29277.76
516.51	29266.06
516.68	29174.78
516.85	29420.53
517.03	29631.18
517.20	29486.07
517.37	29467.34
517.54	29474.37
517.72	29619.48
517.89	29724.80
518.06	29869.92
518.24	29858.21
518.41	29809.06
518.58	30038.44
518.75	29486.07
518.93	29876.94
519.10	30026.73
519.27	30181.21
519.45	30518.25
519.62	30279.51
519.79	30162.48
519.96	30354.41
520.14	30258.45
520.31	30185.89
520.48	30139.08
520.65	30719.53
520.83	30740.60
521.00	30890.39
521.17	31033.16
521.34	30764.00
521.52	31133.81
521.69	31094.02
521.86	31388.92
522.03	31615.96
522.20	31358.50
522.38	31477.86
522.55	31346.79
522.72	31475.52
522.89	31461.48
523.07	31653.40
523.24	31840.65
523.41	31669.79
523.58	31702.56
523.75	31868.73
523.92	31962.36
524.10	32091.09
524.27	31831.29
524.44	31988.10
524.61	32339.18
524.78	32315.78
524.96	32147.26
525.13	32573.24
525.30	32926.66
525.47	32636.43
525.64	32608.34
525.81	33064.75
525.98	32840.06
526.16	32800.27
526.33	32872.82
526.50	32683.24
526.67	32620.05
526.84	32921.98
527.01	32861.12
527.18	33160.71
527.36	33053.05
527.53	33041.34
527.70	33401.79
527.87	33109.22
528.04	33427.53
528.21	33457.96
528.38	33652.22
528.55	33282.42
528.72	33137.30
528.89	33598.39
529.07	33701.37
529.24	33165.39
529.41	33516.47
529.58	33874.57
529.75	33984.58
529.92	33724.78
530.09	34125.01
530.26	34036.07
530.43	34036.07
530.60	33642.86
530.77	33804.36
530.94	34094.58
531.11	34073.52
531.28	34433.96
531.46	34113.31
531.63	34300.55
531.80	34148.42
531.97	34398.85
532.14	34438.64
532.31	34223.31
532.48	34742.91
532.65	34398.85
532.82	34558.01
532.99	34366.09
533.16	34646.95
533.33	34944.20
533.50	34939.52
533.67	35173.57
533.84	34562.69
534.01	35086.97
534.18	34639.93
534.35	35173.57
534.52	34656.31
534.69	35042.50
534.86	35412.31
535.03	34492.47
535.20	35241.45
535.37	35351.45
535.54	35849.99
535.71	35487.20
535.88	35590.19
536.05	35662.74
536.22	35257.83
536.38	35934.24
536.55	35711.89
536.72	35707.21
536.89	35957.65
537.06	35817.22
537.23	36100.42
537.40	35852.33
537.57	35887.43
537.74	36165.96
537.91	36095.74
538.08	36121.49
538.25	35704.87
538.42	35976.37
538.59	36154.26
538.75	36119.15
538.92	36594.28
539.09	36662.15
539.26	36512.36
539.43	36086.38
539.60	36538.10
539.77	36521.72
539.94	36594.28
540.11	36573.21
540.28	37179.41
540.44	37148.98
540.61	37104.51
540.78	36390.65
540.95	36708.96
541.12	36577.89
541.29	37406.44
541.46	37420.48
541.62	37427.51
541.79	37368.99
541.96	37523.47
542.13	36926.63
542.30	37319.84
542.47	37427.51
542.63	37308.14
542.80	37668.58
542.97	38232.65
543.14	37841.78
543.31	37989.24
543.48	37965.83
543.64	38139.03
543.81	37645.18
543.98	38014.98
544.15	37919.02
544.32	37804.33
544.48	38443.30
544.65	38204.56
544.82	38326.27
544.99	38029.02
545.16	38644.59
545.32	38160.09
545.49	39051.84
545.66	39262.49
545.83	39091.63
546.00	38990.98
546.16	39178.23
546.33	38813.10
546.50	38270.10
546.67	38302.87
546.83	38274.78
547.00	38213.93
547.17	38319.25
547.34	38352.02
547.50	38316.91
547.67	39196.95
547.84	39012.05
548.00	39398.24
548.17	39578.46
548.34	38958.22
548.51	38927.79
548.67	39213.34
548.84	39143.12
549.01	39611.23
549.18	39154.82
549.34	39180.57
549.51	39070.56
549.68	39339.72
549.84	39330.36
550.01	39606.55
550.18	38955.88
550.34	39054.18
550.51	39049.50
550.68	39395.90
550.84	39023.75
551.01	39566.76
551.18	39323.34
551.34	39110.35
551.51	39232.06
551.68	39112.69
551.84	39510.58
552.01	38967.58
552.18	39793.79
552.34	39548.03
552.51	39945.92
552.68	39571.44
552.84	40034.86
553.01	40023.16
553.18	39667.40
553.34	39831.24
553.51	39931.88
553.67	40037.20
553.84	40184.66
554.01	40371.90
554.17	40025.50
554.34	40289.98
554.51	40086.36
554.67	40676.17
554.84	40418.71
555.00	39978.69
555.17	39974.01
555.33	40123.80
555.50	39962.31
555.67	40304.02
555.83	39985.71
556.00	40561.48
556.16	40409.35
556.33	40266.58
556.50	40217.43
556.66	40371.90
556.83	39831.24
556.99	40231.47
557.16	40435.10
557.32	40751.07
557.49	41097.47
557.65	40598.93
557.82	40341.47
557.98	40341.47
558.15	40339.13
558.32	40704.26
558.48	40552.12
558.65	40582.55
558.81	40304.02
558.98	40086.36
559.14	40912.56
559.31	40758.09
559.47	40357.86
559.64	40545.10
559.80	40650.42
559.97	40865.75
560.13	41038.95
560.30	40767.45
560.46	41109.17
560.63	41064.70
560.79	41350.24
560.96	41282.37
561.12	40823.62
561.29	40947.67
561.45	40842.35
561.61	41027.25
561.78	40996.82
561.94	41336.20
562.11	41193.43
562.27	41251.94
562.44	41530.47
562.60	41315.14
562.77	41277.69
562.93	40971.08
563.10	41436.84
563.26	40971.08
563.42	41153.64
563.59	40783.83
563.75	41209.81
563.92	41649.83
564.08	41151.30
564.24	41776.22
564.41	41284.71
564.57	41155.98
564.74	41060.02
564.90	41689.62
565.07	41481.31
565.23	41598.34
565.39	41497.70
565.56	42073.47
565.72	41361.95
565.88	41689.62
566.05	41617.07
566.21	41361.95
566.38	41350.24
566.54	41319.82
566.70	41134.92
566.87	42054.75
567.03	41668.56
567.19	42021.98
567.36	41979.85
567.52	41160.66
567.68	41514.08
567.85	42003.25
568.01	41886.23
568.17	41720.05
568.34	41659.20
568.50	41717.71
568.66	41797.29
568.83	42094.53
568.99	41617.07
569.15	41549.19
569.32	41521.10
569.48	41755.16
569.64	41514.08
569.81	41656.85
569.97	41544.51
570.13	41808.99
570.30	41706.01
570.46	41736.43
570.62	41701.32
570.78	42071.13
570.95	41720.05
571.11	41724.73
571.27	41956.44
571.43	41670.90
571.60	41830.05
571.76	41757.50
571.92	41958.78
572.09	41792.61
572.25	42089.85
572.41	42438.59
572.57	42227.95
572.74	42564.98
572.90	42117.94
573.06	41701.32
573.22	41544.51
573.38	42466.68
573.55	41703.67
573.71	42384.76
573.87	42218.58
574.03	42080.49
574.20	42061.77
574.36	42286.46
574.52	42129.64
574.68	42115.60
574.84	42810.74
575.01	42124.96
575.17	41696.64
575.33	42522.85
575.49	42183.48
575.65	42103.90
575.82	42286.46
575.98	42141.35
576.14	42155.39
576.30	42576.69
576.46	42199.86
576.62	42246.67
576.79	42312.20
576.95	42108.58
577.11	42176.45
577.27	42562.64
577.43	42344.97
577.59	42197.52
577.75	42700.73
577.92	41996.23
578.08	42445.62
578.24	42323.91
578.40	42473.70
578.56	42710.10
578.72	42628.18
578.88	42581.37
579.04	42553.28
579.21	42717.12
579.37	42412.85
579.53	43012.02
579.69	42478.38
579.85	42445.62
580.01	42291.14
580.17	41993.89
580.33	42384.76
580.49	42555.62
580.65	42576.69
580.82	42485.40
580.98	42363.70
581.14	42408.17
581.30	42384.76
581.46	42284.12
581.62	42564.98
581.78	42621.16
581.94	42583.71
582.10	42050.06
582.26	42637.54
582.42	42518.17
582.58	42110.92
582.74	42560.30
582.90	42810.74
583.06	42834.14
583.22	42698.39
583.38	42588.39
583.54	42050.06
583.70	42160.07
583.86	42789.67
584.02	42253.69
584.18	42639.88
584.34	42827.12
584.50	42777.97
584.66	42328.59
584.82	42525.19
584.98	43061.18
585.14	42267.73
585.30	42600.09
585.46	42902.02
585.62	42178.79
585.78	42667.97
585.94	43033.09
586.10	42588.39
586.26	43105.65
586.42	42944.15
586.58	42656.26
586.74	42848.19
586.90	42492.43
587.06	42597.75
587.22	42981.60
587.38	42691.37
587.54	43021.39
587.70	43381.83
587.86	43227.35
588.02	42660.94
588.18	43171.18
588.34	42866.91
588.49	42799.04
588.65	43000.32
588.81	42979.26
588.97	43208.63
589.13	42909.04
589.29	42969.90
589.45	43349.06
589.61	43152.46
589.77	42703.07
589.93	42993.30
590.08	43405.23
590.24	43370.13
590.40	43000.32
590.56	43374.81
590.72	42925.42
590.88	42855.21
591.04	42859.89
591.20	43236.72
591.35	43178.20
591.51	43793.76
591.67	43608.86
591.83	43924.83
591.99	42726.48
592.15	43107.99
592.31	43164.16
592.46	43037.77
592.62	43009.68
592.78	43318.64
592.94	43044.79
593.10	43267.14
593.26	43749.29
593.41	43384.17
593.57	43262.46
593.73	43164.16
593.89	43271.82
594.05	42904.36
594.20	42466.68
594.36	42834.14
594.52	43058.84
594.68	42913.72
594.84	43061.18
594.99	43578.43
595.15	43213.31
595.31	43938.88
595.47	43428.64
595.62	43349.06
595.78	43147.78
595.94	43026.07
596.10	43351.40
596.25	42916.06
596.41	43056.50
596.57	43117.35
596.73	43239.06
596.88	43035.43
597.04	43622.90
597.20	43391.19
597.36	42927.77
597.51	43650.99
597.67	43070.54
597.83	43435.66
597.99	43739.93
598.14	43791.42
598.30	43302.25
598.46	43337.36
598.61	43669.72
598.77	43236.72
598.93	43433.32
599.09	43264.80
599.24	43697.80
599.40	43569.07
599.56	43313.95
599.71	43901.43
599.87	43641.63
600.03	43456.73
600.18	43873.34
600.34	43349.06
600.50	43646.31
600.65	43012.02
600.81	43798.44
600.97	43634.61
601.12	44025.48
601.28	43255.44
601.44	43772.70
601.59	43196.93
601.75	43016.71
601.91	43732.91
602.06	43187.56
602.22	43452.05
602.37	43540.99
602.53	43007.34
602.69	43358.42
602.84	43693.12
603.00	43632.27
603.16	43505.88
603.31	43093.94
603.47	43304.59
603.62	43346.72
603.78	43365.45
603.94	43402.89
604.09	43208.63
604.25	43232.04
604.40	43688.44
604.56	43449.70
604.71	43484.81
604.87	43482.47
605.03	43335.02
605.18	43370.13
605.34	42916.06
605.49	42948.83
605.65	43297.57
605.80	42939.47
605.96	43559.71
606.12	43391.19
606.27	43615.88
606.43	43634.61
606.58	43510.56
606.74	43573.75
606.89	43173.52
607.05	43225.01
607.20	43482.47
607.36	42777.97
607.51	43110.33
607.67	43180.54
607.82	43182.88
607.98	43646.31
608.13	43208.63
608.29	43283.53
608.44	43283.53
608.60	43559.71
608.75	43440.34
608.91	43337.36
609.06	43220.33
609.22	43143.09
609.37	42616.47
609.53	43084.58
609.68	42955.85
609.84	43171.18
609.99	43496.52
610.15	43496.52
610.30	43491.83
610.46	43739.93
610.61	43548.01
610.76	43578.43
610.92	43751.63
611.07	43920.15
611.23	43641.63
611.38	44016.11
611.54	43831.21
611.69	43875.68
611.84	43924.83
612.00	43718.87
612.15	43496.52
612.31	43447.36
612.46	43278.85
612.62	43098.62
612.77	43007.34
612.92	43225.01
613.08	42972.24
613.23	43035.43
613.39	42504.13
613.54	42829.46
613.69	43131.39
613.85	43058.84
614.00	43203.95
614.15	43672.06
614.31	42871.59
614.46	43075.22
614.62	43122.03
614.77	42801.38
614.92	42869.25
615.08	42927.77
615.23	42878.61
615.38	42246.67
615.54	42354.33
615.69	42862.23
615.84	42700.73
616.00	42763.93
616.15	42309.86
616.30	42686.69
616.46	42557.96
616.61	42117.94
616.76	42347.31
616.92	41738.77
617.07	42162.41
617.22	42241.99
617.37	41989.21
617.53	41748.14
617.68	41881.55
617.83	41972.83
617.99	42085.17
618.14	42181.13
618.29	42029.00
618.45	42113.26
618.60	42415.19
618.75	41776.22
618.90	41778.56
619.06	41706.01
619.21	41481.31
619.36	41888.57
619.51	41586.64
619.67	41698.98
619.82	41790.27
619.97	42064.11
620.12	41689.62
620.28	42007.94
620.43	42391.78
620.58	42000.91
620.73	41701.32
620.89	42155.39
621.04	41780.90
621.19	41549.19
621.34	41886.23
621.49	41427.48
621.65	41535.15
621.80	41764.52
621.95	41975.17
622.10	41914.31
622.25	41544.51
622.41	41694.30
622.56	41462.59
622.71	41574.94
622.86	41813.67
623.01	41024.91
623.16	40861.07
623.32	41352.58
623.47	41223.86
623.62	41380.67
623.77	41804.31
623.92	41649.83
624.07	41914.31
624.23	41415.78
624.38	41516.42
624.53	41261.30
624.68	41493.02
624.83	41471.95
624.98	41181.73
625.13	40992.14
625.29	40961.72
625.44	41256.62
625.59	40673.83
625.74	40589.57
625.89	41270.67
626.04	40835.33
626.19	41160.66
626.34	40772.13
626.49	40964.06
626.65	41134.92
626.80	41198.11
626.95	40744.05
627.10	40203.38
627.25	40978.10
627.40	40690.21
627.55	40521.69
627.70	40250.19
627.85	40545.10
628.00	40268.92
628.15	40538.08
628.30	40093.38
628.45	40779.15
628.60	40488.93
628.76	40451.48
628.91	40467.86
629.06	40341.47
629.21	40500.63
629.36	40308.71
629.51	40479.57
629.66	40547.44
629.81	40540.42
629.96	40509.99
630.11	40205.72
630.26	40278.28
630.41	40264.24
630.56	40032.52
630.71	40367.22
630.86	40765.11
631.01	40495.95
631.16	40177.64
631.31	39950.60
631.46	40280.62
631.61	40376.58
631.76	39974.01
631.91	40037.20
632.06	39777.40
632.21	39852.30
632.36	40067.63
632.51	39931.88
632.66	40182.32
632.81	39873.37
632.96	40315.73
633.10	39555.05
633.25	39959.97
633.40	39864.00
633.55	39927.20
633.70	39367.81
633.85	39611.23
634.00	39833.58
634.15	39555.05
634.30	39419.30
634.45	39367.81
634.60	39583.14
634.75	40091.04
634.90	39248.44
635.05	39690.80
635.19	39239.08
635.34	39311.64
635.49	39402.92
635.64	39395.90
635.79	39550.37
635.94	39070.56
636.09	39496.54
636.24	39381.85
636.39	39358.45
636.53	39257.81
636.68	38848.21
636.83	39161.84
636.98	39548.03
637.13	38831.83
637.28	38817.78
637.43	39452.07
637.57	39098.65
637.72	38658.63
637.87	38857.57
638.02	39196.95
638.17	38955.88
638.32	38450.32
638.46	38398.83
638.61	38740.55
638.76	38855.23
638.91	39372.49
639.06	39143.12
639.20	39358.45
639.35	39203.97
639.50	38616.50
639.65	38754.59
639.80	38773.31
639.94	38831.83
640.09	38602.46
640.24	38660.97
640.39	38415.21
640.54	38431.60
640.68	38347.34
640.83	38515.86
640.98	38323.93
641.13	37986.89
641.27	38677.35
641.42	38003.28
641.57	38382.45
641.72	38277.12
641.86	37869.87
642.01	38038.39
642.16	37670.92
642.31	38249.03
642.45	38277.12
642.60	38316.91
642.75	37827.74
642.90	38440.96
643.04	38192.86
643.19	38188.18
643.34	38455.00
643.48	38588.41
643.63	38363.72
643.78	37832.42
643.93	37720.07
644.07	37837.10
644.22	38223.29
644.37	37888.59
644.51	37792.63
644.66	37731.78
644.81	37872.21
644.95	37979.87
645.10	37640.50
645.25	38178.82
645.39	37652.20
645.54	37837.10
645.69	37645.18
645.83	37799.65
645.98	37745.82
646.13	37895.61
646.27	37823.06
646.42	37879.23
646.57	37743.48
646.71	37638.15
646.86	37212.18
647.00	37624.11
647.15	37755.18
647.30	37858.17
647.44	37469.64
647.59	38085.20
647.74	37567.94
647.88	37706.03
648.03	37598.37
648.17	37031.96
648.32	36889.18
648.47	37200.47
648.61	37132.60
648.76	37312.82
648.90	37408.78
649.05	36926.63
649.20	37399.42
649.34	37324.52
649.49	37535.17
649.63	37799.65
649.78	37574.96
649.92	37392.40
650.07	37387.72
650.21	37380.70
650.36	37090.47
650.51	36828.33
650.65	37163.03
650.80	37249.63
650.94	37221.54
651.09	36978.12
651.23	36844.71
651.38	36917.27
651.52	37029.62
651.67	37418.14
651.81	36776.84
651.96	36844.71
652.10	36989.83
652.25	36458.52
652.39	36477.25
652.54	36385.97
652.68	36395.33
652.83	36107.44
652.97	36840.03
653.12	36568.53
653.26	36650.45
653.41	36809.61
653.55	36510.02
653.70	36575.55
653.84	36519.38
653.99	36266.60
654.13	36364.90
654.27	36390.65
654.42	36699.60
654.56	36598.96
654.71	36313.41
654.85	36339.16
655.00	36526.40
655.14	36257.24
655.29	36102.76
655.43	36407.03
655.57	36095.74
655.72	35899.14
655.86	36126.17
656.01	35964.67
656.15	35644.02
656.30	36140.21
656.44	36367.24
656.58	36484.27
656.73	36147.23
656.87	36100.42
657.01	36154.26
657.16	36208.09
657.30	36102.76
657.45	35992.76
657.59	35676.79
657.73	35580.82
657.88	35536.35
658.02	35887.43
658.16	36133.19
658.31	35704.87
658.45	35295.28
658.60	35594.87
658.74	35552.74
658.88	35531.67
659.03	35613.59
659.17	35101.01
659.31	35335.07
659.46	35356.13
659.60	35267.19
659.74	35164.21
659.89	35360.81
660.03	35185.27
660.17	35517.63
660.32	34855.26
660.46	34951.22
660.60	34885.68
660.74	35164.21
660.89	35068.25
661.03	35096.33
661.17	35173.57
661.32	34693.76
661.46	34349.70
661.60	34504.18
661.74	34377.79
661.89	34363.75
662.03	34850.58
662.17	34731.21
662.31	34586.10
662.46	34572.05
662.60	34637.59
662.74	34307.57
662.88	34403.53
663.03	34326.30
663.17	34499.50
663.31	34089.90
663.45	34211.61
663.60	34211.61
663.74	33881.60
663.88	34188.21
664.02	33900.32
664.17	33706.05
664.31	33046.02
664.45	33345.61
664.59	33834.78
664.73	33806.70
664.88	34190.55
665.02	33890.96
665.16	33736.48
665.30	33638.18
665.44	33649.88
665.59	33221.56
665.73	33635.84
665.87	33387.74
666.01	32943.04
666.15	33207.52
666.29	32851.76
666.44	32924.32
666.58	33055.39
666.72	32751.12
666.86	33179.43
667.00	33350.29
667.14	33050.70
667.28	32730.05
667.43	33118.58
667.57	32921.98
667.71	33247.31
667.85	32964.10
667.99	32912.61
668.13	32872.82
668.27	32252.58
668.41	32697.28
668.56	32601.32
668.70	32275.99
668.84	31976.40
668.98	31700.22
669.12	32290.03
669.26	32254.92
669.40	31920.23
669.54	31861.71
669.68	32198.75
669.82	31737.66
669.96	31985.76
670.10	31747.03
670.25	32163.64
670.39	31967.04
670.53	31732.98
670.67	31449.78
670.81	31702.56
670.95	31295.30
671.09	31349.14
671.23	31276.58
671.37	31772.77
671.51	31512.97
671.65	31690.85
671.79	31782.13
671.93	31978.74
672.07	31487.23
672.21	31185.30
672.35	31269.56
672.49	31218.07
672.63	31227.43
672.77	31126.78
672.91	30998.06
673.05	30518.25
673.19	31016.78
673.33	30312.28
673.47	30197.59
673.61	30483.14
673.75	30213.98
673.89	30206.95
674.03	30412.92
674.17	30176.53
674.31	30478.46
674.45	30127.38
674.59	30338.02
674.73	30279.51
674.87	30302.92
675.01	29654.59
675.15	29589.05
675.29	30380.15
675.43	30171.85
675.56	29715.44
675.70	29474.37
675.84	29104.56
675.98	28723.05
676.12	29083.50
676.26	29055.41
676.40	29303.51
676.54	29603.10
676.68	29804.38
676.82	28973.49
676.96	29160.73
677.10	28964.13
677.23	28987.53
677.37	29191.16
677.51	28732.42
677.65	28734.76
677.79	28311.12
677.93	27946.00
678.07	28350.91
678.21	28112.17
678.34	28184.73
678.48	27871.10
678.62	27744.71
678.76	27566.83
678.90	27672.15
679.04	27517.68
679.18	27541.08
679.31	27292.99
679.45	27351.50
679.59	27646.41
679.73	27770.46
679.87	27452.14
680.00	27014.46
680.14	27166.60
680.28	26937.23
680.42	26696.15
680.56	27054.25
680.70	26452.73
680.83	26441.03
680.97	26373.16
681.11	26768.71
681.25	26471.46
681.39	26434.01
681.52	26478.48
681.66	26380.18
681.80	26064.21
681.94	26534.65
682.07	26050.16
682.21	25961.22
682.35	25977.61
682.49	25937.82
682.62	25869.94
682.76	25563.33
682.90	25432.26
683.04	25912.07
683.17	25364.39
683.31	25120.97
683.45	25565.67
683.59	25123.31
683.72	25233.32
683.86	25385.45
684.00	25214.59
684.13	24987.56
684.27	24161.35
684.41	24552.22
684.55	24526.47
684.68	24402.43
684.82	24278.38
684.96	24355.61
685.09	24552.22
685.23	24669.25
685.37	24851.81
685.50	24510.09
685.64	23971.77
685.78	23903.89
685.91	23939.00
686.05	24159.01
686.19	23742.39
686.32	23789.20
686.46	23414.72
686.60	23562.17
686.73	23981.13
686.87	23714.31
687.01	23367.91
687.14	23227.48
687.28	23133.86
687.42	23267.27
687.55	23108.11
687.69	23197.05
687.82	22806.18
687.96	22838.95
688.10	23243.86
688.23	22621.28
688.37	22380.20
688.50	22494.89
688.64	22831.93
688.78	22834.27
688.91	22366.16
689.05	22246.79
689.18	21951.88
689.32	21474.42
689.46	21902.73
689.59	21912.10
689.73	21949.54
689.86	21443.99
690.00	21518.89
690.13	21603.14
690.27	21205.25
690.41	21905.07
690.54	21064.82
690.68	21209.93
690.81	21530.59
690.95	21443.99
691.08	21350.37
691.22	20900.98
691.35	20758.21
691.49	21003.97
691.62	20828.43
691.76	20858.85
691.89	20996.95
692.03	20496.07
692.16	20444.58
692.30	20175.42
692.43	20198.82
692.57	20084.14
692.70	20257.34
692.84	20156.69
692.97	19922.64
693.11	19934.34
693.24	19658.16
693.38	19894.55
693.51	19374.95
693.65	19779.87
693.78	19697.95
693.92	19817.32
694.05	19494.32
694.19	19529.43
694.32	19562.20
694.45	19686.25
694.59	19421.77
694.72	19063.66
694.86	19098.77
694.99	18822.59
695.13	18565.13
695.26	18780.46
695.39	18735.99
695.53	18745.35
695.66	18775.78
695.80	18637.69
695.93	18497.25
696.07	18471.51
696.20	18317.03
696.33	18176.60
696.47	18085.32
696.60	18054.89
696.73	17930.84
696.87	18085.32
697.00	18005.74
697.14	17888.71
697.27	17511.89
697.40	17343.37
697.54	17312.94
697.67	17043.78
697.80	17188.89
697.94	17029.74
698.07	17153.79
698.21	17275.49
698.34	17214.64
698.47	16861.22
698.61	16758.24
698.74	16664.61
698.87	16947.82
699.01	16798.02
699.14	16786.32
699.27	16528.86
699.40	17034.42
699.54	16819.09
699.67	16610.78
699.80	16027.99
699.94	16262.04
700.07	15939.05
700.20	15920.32
700.34	16044.37
700.47	15850.11
700.60	15822.02
700.73	16046.71
700.87	15910.96
701.00	15719.04
701.13	15440.51
701.26	15552.86
701.40	15726.06
701.53	15365.62
701.66	15154.97
701.79	15396.04
701.93	15300.08
702.06	15152.63
702.19	15204.12
702.32	15077.73
702.46	14644.73
702.59	14925.60
702.72	14698.56
702.85	14714.95
702.99	14752.40
703.12	14623.67
703.25	14471.53
703.38	14413.02
703.51	14721.97
703.65	14434.08
703.78	14574.52
703.91	14167.26
704.04	14281.95
704.17	14190.67
704.31	14295.99
704.44	13703.84
704.57	13830.23
704.70	13654.69
704.83	13764.69
704.96	13628.94
705.10	13554.04
705.23	13703.84
>>>>>End Processed Spectral Data<<<<<
