SpectraSuite Data File
++++++++++++++++++++++++++++++++++++
Date: Thu Oct 24 13:21:06 EDT 2013
User: stostad
Dark Spectrum Present: No
Reference Spectrum Present: No
Number of Sampled Component Spectra: 1
Spectrometers: USB2+H05261
Integration Time (usec): 100000 (USB2+H05261)
Spectra Averaged: 1 (USB2+H05261)
Boxcar Smoothing: 0 (USB2+H05261)
Correct for Electrical Dark: No (USB2+H05261)
Strobe/Lamp Enabled: No (USB2+H05261)
Correct for Detector Non-linearity: No (USB2+H05261)
Correct for Stray Light: No (USB2+H05261)
Number of Pixels in Processed Spectrum: 2048
>>>>>Begin Processed Spectral Data<<<<<
365.73	566.41
365.92	566.41
366.12	566.41
366.32	505.56
366.52	468.11
366.72	482.15
366.91	461.09
367.11	458.74
367.31	482.15
367.51	456.40
367.70	442.36
367.90	440.02
368.10	484.49
368.30	550.03
368.49	411.93
368.69	442.36
368.89	463.43
369.09	526.62
369.28	510.24
369.48	531.30
369.68	454.06
369.87	535.98
370.07	486.83
370.27	535.98
370.47	503.22
370.66	692.80
370.86	681.10
371.06	695.14
371.25	739.61
371.45	737.27
371.65	751.31
371.84	730.25
372.04	767.70
372.24	760.67
372.44	725.57
372.63	835.57
372.83	828.55
373.03	875.36
373.22	795.78
373.42	713.86
373.62	826.21
373.81	781.74
374.01	765.36
374.21	849.61
374.40	788.76
374.60	856.64
374.79	755.99
374.99	800.46
375.19	795.78
375.38	866.00
375.58	875.36
375.78	809.83
375.97	837.91
376.17	945.58
376.37	870.68
376.56	898.77
376.76	793.44
376.95	772.38
377.15	854.30
377.35	774.72
377.54	802.80
377.74	837.91
377.93	851.96
378.13	800.46
378.33	917.49
378.52	816.85
378.72	861.32
378.91	819.19
379.11	819.19
379.31	837.91
379.50	791.10
379.70	912.81
379.89	919.83
380.09	812.17
380.28	826.21
380.48	795.78
380.68	912.81
380.87	837.91
381.07	863.66
381.26	873.02
381.46	884.72
381.65	908.13
381.85	840.25
382.04	891.74
382.24	833.23
382.43	929.19
382.63	851.96
382.83	936.21
383.02	924.51
383.22	844.93
383.41	873.02
383.61	945.58
383.80	873.02
384.00	943.24
384.19	945.58
384.39	936.21
384.58	936.21
384.78	830.89
384.97	919.83
385.17	903.45
385.36	861.32
385.56	851.96
385.75	905.79
385.95	952.60
386.14	898.77
386.34	936.21
386.53	915.15
386.72	940.90
386.92	901.11
387.11	915.15
387.31	884.72
387.50	910.47
387.70	980.68
387.89	973.66
388.09	1011.11
388.28	966.64
388.48	1015.79
388.67	961.96
388.86	966.64
389.06	1027.50
389.25	1004.09
389.45	922.17
389.64	1055.58
389.84	1057.92
390.03	1018.13
390.22	1018.13
390.42	1018.13
390.61	978.34
390.81	957.28
391.00	1069.62
391.19	992.39
391.39	1039.20
391.58	1039.20
391.78	1006.43
391.97	1043.88
392.16	1020.47
392.36	1053.24
392.55	1025.15
392.75	983.02
392.94	1048.56
393.13	1078.99
393.33	1018.13
393.52	994.73
393.71	1118.78
393.91	1137.50
394.10	1093.03
394.29	1100.05
394.49	1043.88
394.68	1001.75
394.88	1018.13
395.07	1015.79
395.26	1078.99
395.46	1186.65
395.65	1093.03
395.84	1064.94
396.04	1111.75
396.23	1125.80
396.42	1090.69
396.62	1158.57
396.81	1107.07
397.00	1149.20
397.19	1221.76
397.39	1137.50
397.58	1196.01
397.77	1188.99
397.97	1207.72
398.16	1137.50
398.35	1135.16
398.55	1144.52
398.74	1165.59
398.93	1224.10
399.12	1266.23
399.32	1219.42
399.51	1135.16
399.70	1198.35
399.90	1179.63
400.09	1268.57
400.28	1296.66
400.47	1299.00
400.67	1212.40
400.86	1219.42
401.05	1217.08
401.24	1268.57
401.44	1294.32
401.63	1317.72
401.82	1313.04
402.01	1331.76
402.21	1341.13
402.40	1294.32
402.59	1357.51
402.78	1282.61
402.97	1221.76
403.17	1196.01
403.36	1270.91
403.55	1313.04
403.74	1369.21
403.93	1451.13
404.13	1446.45
404.32	1472.20
404.51	1380.92
404.70	1465.18
404.89	1357.51
405.09	1476.88
405.28	1458.15
405.47	1467.52
405.66	1425.39
405.85	1418.36
406.05	1418.36
406.24	1446.45
406.43	1369.21
406.62	1474.54
406.81	1479.22
407.00	1476.88
407.20	1441.77
407.39	1448.79
407.58	1563.48
407.77	1516.67
407.96	1467.52
408.15	1432.41
408.34	1502.62
408.54	1582.20
408.73	1451.13
408.92	1556.46
409.11	1593.90
409.30	1526.03
409.49	1610.29
409.68	1589.22
409.87	1526.03
410.07	1535.39
410.26	1542.41
410.45	1603.27
410.64	1638.38
410.83	1614.97
411.02	1614.97
411.21	1570.50
411.40	1647.74
411.59	1657.10
411.78	1631.35
411.98	1624.33
412.17	1746.04
412.36	1673.48
412.55	1760.08
412.74	1792.85
412.93	1837.32
413.12	1774.13
413.31	1788.17
413.50	1813.92
413.69	1909.88
413.88	1802.21
414.07	1839.66
414.26	1753.06
414.45	1811.57
414.64	1746.04
414.83	1891.15
415.02	1753.06
415.22	1874.77
415.41	1980.09
415.60	1956.69
415.79	1884.13
415.98	2033.93
416.17	2008.18
416.36	2001.16
416.55	1919.24
416.74	1996.48
416.93	2083.08
417.12	2078.40
417.31	2127.55
417.50	2012.86
417.69	2097.12
417.88	2143.93
418.07	2120.53
418.26	2099.46
418.45	2165.00
418.64	2251.60
418.83	2204.78
419.02	2057.33
419.21	2094.78
419.39	2174.36
419.58	2204.78
419.77	2204.78
419.96	2099.46
420.15	2232.87
420.34	2202.44
420.53	2223.51
420.72	2277.34
420.91	2253.94
421.10	2251.60
421.29	2314.79
421.48	2235.21
421.67	2275.00
421.86	2291.38
422.05	2338.20
422.24	2204.78
422.43	2223.51
422.61	2289.04
422.80	2310.11
422.99	2321.81
423.18	2314.79
423.37	2490.33
423.56	2277.34
423.75	2349.90
423.94	2253.94
424.13	2186.06
424.32	2312.45
424.50	2326.49
424.69	2312.45
424.88	2434.16
425.07	2246.91
425.26	2284.36
425.45	2265.64
425.64	2303.09
425.83	2399.05
426.01	2380.32
426.20	2321.81
426.39	2312.45
426.58	2340.54
426.77	2401.39
426.96	2333.51
427.15	2385.01
427.33	2464.58
427.52	2527.78
427.71	2417.77
427.90	2422.45
428.09	2396.71
428.28	2459.90
428.46	2401.39
428.65	2464.58
428.84	2553.52
429.03	2455.22
429.22	2420.11
429.40	2576.93
429.59	2492.67
429.78	2476.29
429.97	2438.84
430.16	2555.86
430.34	2450.54
430.53	2497.35
430.72	2560.55
430.91	2544.16
431.10	2567.57
431.28	2628.42
431.47	2588.63
431.66	2635.44
431.85	2590.97
432.03	2609.70
432.22	2743.11
432.41	2712.68
432.60	2644.81
432.79	2579.27
432.97	2703.32
433.16	2668.21
433.35	2609.70
433.54	2686.94
433.72	2710.34
433.91	2883.54
434.10	2644.81
434.28	2874.18
434.47	2825.03
434.66	2691.62
434.85	2801.62
435.03	2958.44
435.22	3122.27
435.41	3358.67
435.59	3171.43
435.78	3098.87
435.97	3084.83
436.16	3009.93
436.34	2696.30
436.53	2766.51
436.72	2986.52
436.90	2768.85
437.09	2951.42
437.28	2841.41
437.46	2942.05
437.65	2878.86
437.84	3080.14
438.02	3068.44
438.21	3066.10
438.40	3040.36
438.58	3054.40
438.77	2991.20
438.96	3009.93
439.14	3059.08
439.33	3087.17
439.52	3014.61
439.70	3080.14
439.89	3166.74
440.08	3232.28
440.26	3187.81
440.45	3218.24
440.63	3293.13
440.82	3325.90
441.01	3283.77
441.19	3143.34
441.38	3342.28
441.57	3417.18
441.75	3361.01
441.94	3368.03
442.12	3471.01
442.31	3295.47
442.50	3400.80
442.68	3445.27
442.87	3417.18
443.05	3344.63
443.24	3506.12
443.43	3475.70
443.61	3396.12
443.80	3487.40
443.98	3421.86
444.17	3421.86
444.35	3459.31
444.54	3515.48
444.73	3384.41
444.91	3506.12
445.10	3494.42
445.28	3632.51
445.47	3688.68
445.65	3543.57
445.84	3550.59
446.02	3595.06
446.21	3620.81
446.39	3609.11
446.58	3588.04
446.77	3630.17
446.95	3595.06
447.14	3548.25
447.32	3588.04
447.51	3410.16
447.69	3517.83
447.88	3585.70
448.06	3522.51
448.25	3592.72
448.43	3644.21
448.62	3702.73
448.80	3517.83
448.99	3569.32
449.17	3730.81
449.36	3655.92
449.54	3824.44
449.73	3674.64
449.91	3779.97
450.10	3798.69
450.28	3831.46
450.46	3880.61
450.65	3693.37
450.83	3730.81
451.02	3770.60
451.20	3798.69
451.39	3702.73
451.57	3822.09
451.76	3798.69
451.94	3894.65
452.13	3885.29
452.31	3885.29
452.49	3801.03
452.68	3969.55
452.86	3838.48
453.05	4049.13
453.23	3885.29
453.42	3915.72
453.60	3822.09
453.78	3976.57
453.97	3964.87
454.15	4042.11
454.34	3911.04
454.52	4016.36
454.70	3992.95
454.89	4025.72
455.07	4070.19
455.26	3978.91
455.44	4117.00
455.62	4117.00
455.81	4084.23
455.99	4154.45
456.17	4112.32
456.36	4070.19
456.54	4121.68
456.73	4156.79
456.91	4224.67
457.09	4327.65
457.28	4166.15
457.46	4215.30
457.64	4329.99
457.83	4292.54
458.01	4266.80
458.19	4276.16
458.38	4306.59
458.56	4280.84
458.74	4332.33
458.93	4381.48
459.11	4339.35
459.29	4376.80
459.48	4386.16
459.66	4437.66
459.84	4456.38
460.03	4404.89
460.21	4491.49
460.39	4444.68
460.57	4447.02
460.76	4524.26
460.94	4456.38
461.12	4477.44
461.31	4514.89
461.49	4526.60
461.67	4470.42
461.85	4732.56
462.04	4561.70
462.22	4865.97
462.40	4709.16
462.59	4493.83
462.77	4622.56
462.95	4746.61
463.13	4664.69
463.32	4547.66
463.50	4713.84
463.68	4683.41
463.86	4671.71
464.05	4606.17
464.23	4695.11
464.41	4620.22
464.59	4587.45
464.78	4812.14
464.96	4667.03
465.14	4819.16
465.32	4755.97
465.50	4830.87
465.69	4798.10
465.87	4655.33
466.05	4720.86
466.23	4748.95
466.41	4795.76
466.60	4830.87
466.78	4823.84
466.96	4709.16
467.14	4926.83
467.32	5013.43
467.51	5015.77
467.69	4826.18
467.87	4826.18
468.05	5013.43
468.23	4835.55
468.41	4968.96
468.60	4910.44
468.78	4882.36
468.96	4999.38
469.14	5221.74
469.32	5235.78
469.50	5071.94
469.69	5048.54
469.87	5013.43
470.05	5109.39
470.23	5111.73
470.41	5212.37
470.59	5111.73
470.77	5308.34
470.95	5242.80
471.14	5495.58
471.32	5214.71
471.50	5207.69
471.68	5191.31
471.86	5303.65
472.04	5324.72
472.22	5439.40
472.40	5369.19
472.58	5261.52
472.77	5310.68
472.95	5444.09
473.13	5605.58
473.31	5528.35
473.49	5528.35
473.67	5467.49
473.85	5502.60
474.03	5753.04
474.21	5729.63
474.39	5612.60
474.57	5734.31
474.75	5701.54
474.93	5762.40
475.12	5703.89
475.30	5753.04
475.48	5820.91
475.66	5872.40
475.84	5614.95
476.02	5947.30
476.20	6003.47
476.38	6139.23
476.56	6162.63
476.74	6029.22
476.92	6204.76
477.10	6118.16
477.28	6305.40
477.46	6289.02
477.64	6090.07
477.82	6314.77
478.00	6523.07
478.18	6375.62
478.36	6324.13
478.54	6509.03
478.72	6637.76
478.90	6492.65
479.08	6630.74
479.26	6565.20
479.44	6654.14
479.62	6715.00
479.80	6794.58
479.98	6916.28
480.16	6890.54
480.34	6860.11
480.52	7143.32
480.70	7005.22
480.88	6923.30
481.06	7162.04
481.24	7077.78
481.41	7262.68
481.59	7262.68
481.77	7314.17
481.95	7391.41
482.13	7410.14
482.31	7365.67
482.49	7527.16
482.67	7627.81
482.85	7414.82
483.03	7817.39
483.21	7798.66
483.39	7892.29
483.57	7770.58
483.74	7693.34
483.92	7941.44
484.10	8016.33
484.28	8011.65
484.46	8063.15
484.64	8304.22
484.82	8046.76
485.00	8259.75
485.18	8348.69
485.35	8535.93
485.53	8397.84
485.71	8589.77
485.89	8641.26
486.07	8599.13
486.25	8549.98
486.43	8718.50
486.61	8912.76
486.78	8966.59
486.96	9057.87
487.14	9022.77
487.32	9233.41
487.50	9069.58
487.68	9179.58
487.85	9324.69
488.03	9301.29
488.21	9423.00
488.39	9486.19
488.57	9729.61
488.75	9530.66
488.92	9856.00
489.10	9427.68
489.28	9729.61
489.46	9867.70
489.64	9816.21
489.81	10176.65
489.99	9970.68
490.17	9933.23
490.35	10244.52
490.53	10242.18
490.70	10413.04
490.88	10443.47
491.06	10363.89
491.24	10408.36
491.41	10441.13
491.59	10562.84
491.77	10583.90
491.95	10878.81
492.13	10600.29
492.30	10747.74
492.48	10738.38
492.66	10897.53
492.84	10787.53
493.01	11089.46
493.19	10904.56
493.37	11180.74
493.54	11307.13
493.72	11166.70
493.90	11208.83
494.08	11267.34
494.25	11487.35
494.43	11599.70
494.61	11730.76
494.79	11557.57
494.96	11580.97
495.14	11683.95
495.32	11819.71
495.49	11936.73
495.67	11950.78
495.85	11889.92
496.02	11808.00
496.20	12067.80
496.38	12159.08
496.55	12142.70
496.73	12177.81
496.91	12126.32
497.09	12175.47
497.26	12386.12
497.44	12592.08
497.62	12283.13
497.79	12645.91
497.97	12849.54
498.14	12769.96
498.32	12973.59
498.50	12802.73
498.67	13104.66
498.85	12751.24
499.03	13102.32
499.20	13132.75
499.38	13268.50
499.56	13125.72
499.73	12999.34
499.91	13462.76
500.08	13266.16
500.26	13446.38
500.44	13315.31
500.61	13390.20
500.79	13350.42
500.97	13582.13
501.14	13832.57
501.32	13577.45
501.49	13650.00
501.67	13495.53
501.84	13757.67
502.02	13572.77
502.20	13919.17
502.37	14097.05
502.55	13703.84
502.72	13736.60
502.90	13987.04
503.07	13916.83
503.25	14017.47
503.43	14085.34
503.60	14113.43
503.78	14106.41
503.95	14127.47
504.13	14143.86
504.30	14106.41
504.48	14263.22
504.65	14560.47
504.83	14773.46
505.01	14663.46
505.18	14434.08
505.36	14799.21
505.53	14604.94
505.71	14506.64
505.88	14801.55
506.06	14764.10
506.23	14726.65
506.41	14686.86
506.58	14857.72
506.76	14710.27
506.93	15220.50
507.11	15190.08
507.28	15143.27
507.46	14946.66
507.63	15342.21
507.81	15145.61
507.98	14895.17
508.16	15171.35
508.33	15087.09
508.50	15204.12
508.68	15545.84
508.85	15424.13
509.03	15503.71
509.20	15454.56
509.38	15676.91
509.55	15646.48
509.73	15915.64
509.90	15798.62
510.08	15791.59
510.25	15775.21
510.42	15716.70
510.60	15789.25
510.77	16035.01
510.95	15946.07
511.12	16198.85
511.30	16049.05
511.47	16276.09
511.64	16046.71
511.82	16320.56
511.99	15927.35
512.17	16250.34
512.34	16372.05
512.51	16325.24
512.69	16657.59
512.86	16615.46
513.04	16505.46
513.21	16243.32
513.38	16528.86
513.56	16608.44
513.73	16608.44
513.90	16755.90
514.08	16723.13
514.25	17018.04
514.43	16819.09
514.60	16945.48
514.77	16753.55
514.95	16807.39
515.12	16697.38
515.29	17076.55
515.47	17111.66
515.64	17273.15
515.81	16994.63
515.99	17083.57
516.16	17273.15
516.33	17312.94
516.51	17090.59
516.68	17427.63
516.85	17242.73
517.03	17577.42
517.20	17406.56
517.37	17181.87
517.54	17591.47
517.72	17451.03
517.89	17472.10
518.06	17577.42
518.24	17680.41
518.41	17769.35
518.58	17624.23
518.75	17432.31
518.93	17659.34
519.10	17633.60
519.27	17750.62
519.45	17867.65
519.62	18148.51
519.79	17832.54
519.96	17741.26
520.14	18033.83
520.31	17659.34
520.48	17949.57
520.65	17998.72
520.83	18295.97
521.00	18417.68
521.17	18094.68
521.34	18293.63
521.52	18132.13
521.69	18368.52
521.86	18265.54
522.03	18487.89
522.20	18188.30
522.38	18511.30
522.55	18625.98
522.72	18450.44
522.89	18705.56
523.07	18572.15
523.24	18457.46
523.41	18604.92
523.58	18707.90
523.75	18841.31
523.92	18771.10
524.10	18764.07
524.27	18904.51
524.44	18759.39
524.61	18785.14
524.78	19042.60
524.96	18939.62
525.13	19098.77
525.30	19145.58
525.47	19115.16
525.64	18874.08
525.81	19323.46
525.98	18958.34
526.16	19066.00
526.33	18953.66
526.50	19339.85
526.67	19204.10
526.84	19414.74
527.01	19246.23
527.18	19435.81
527.36	19578.58
527.53	19536.45
527.70	19379.64
527.87	19604.33
528.04	19541.13
528.21	19515.39
528.38	19798.59
528.55	19609.01
528.72	19653.48
528.89	19496.66
529.07	19524.75
529.24	19702.63
529.41	19756.46
529.58	19723.69
529.75	19693.27
529.92	19903.92
530.09	19946.05
530.26	19545.81
530.43	19850.08
530.60	19903.92
530.77	19777.53
530.94	19939.02
531.11	20210.53
531.28	20027.96
531.46	20247.97
531.63	20030.30
531.80	20018.60
531.97	20198.82
532.14	20034.99
532.31	20025.62
532.48	20217.55
532.65	20135.63
532.82	20311.17
532.99	20432.88
533.16	20121.59
533.33	20287.76
533.50	20725.44
533.67	20451.60
533.84	20460.96
534.01	20563.95
534.18	20453.94
534.35	20968.86
534.52	20713.74
534.69	20528.84
534.86	20680.97
535.03	20350.96
535.20	20690.34
535.37	20943.11
535.54	21172.49
535.71	20828.43
535.88	20877.58
536.05	20858.85
536.22	20908.01
536.38	20847.15
536.55	21113.97
536.72	21202.91
536.89	21046.10
537.06	21275.47
537.23	21345.69
537.40	21057.80
537.57	20875.24
537.74	21179.51
537.91	21404.20
538.08	21177.17
538.25	21392.50
538.42	21027.37
538.59	21336.32
538.75	20844.81
538.92	21226.32
539.09	21504.84
539.26	21575.06
539.43	21537.61
539.60	21380.79
539.77	21394.84
539.94	21535.27
540.11	21413.56
540.28	21813.79
540.44	21891.03
540.61	21792.73
540.78	21493.14
540.95	21771.66
541.12	21745.92
541.29	22211.68
541.46	22204.66
541.62	22010.40
541.79	22429.35
541.96	22340.41
542.13	22525.32
542.30	22473.82
542.47	22242.11
542.63	22246.79
542.80	22368.50
542.97	22689.15
543.14	22665.75
543.31	22916.19
543.48	22604.89
543.64	22417.65
543.81	22829.59
543.98	22469.14
544.15	22476.16
544.32	22628.30
544.48	22607.23
544.65	22838.95
544.82	22462.12
544.99	22637.66
545.16	22682.13
545.32	22562.76
545.49	23365.57
545.66	23461.53
545.83	23742.39
546.00	23812.61
546.16	23587.92
546.33	23138.54
546.50	22981.72
546.67	23028.53
546.83	22494.89
547.00	22483.19
547.17	22469.14
547.34	22995.76
547.50	22878.74
547.67	22897.46
547.84	22780.43
548.00	23143.22
548.17	23138.54
548.34	22869.37
548.51	23295.35
548.67	22918.53
548.84	23091.73
549.01	22937.25
549.18	22948.95
549.34	23105.77
549.51	23407.70
549.68	23269.61
549.84	23168.96
550.01	23108.11
550.18	22972.36
550.34	22822.56
550.51	22867.03
550.68	23484.94
550.84	22984.06
551.01	23091.73
551.18	22747.67
551.34	22874.06
551.51	22974.70
551.68	23056.62
551.84	23262.58
552.01	23084.70
552.18	23173.64
552.34	23337.48
552.51	23447.49
552.68	23384.29
552.84	23393.65
553.01	23154.92
553.18	23082.36
553.34	23601.96
553.51	23489.62
553.67	23452.17
553.84	23440.47
554.01	23407.70
554.17	23496.64
554.34	23194.71
554.51	23494.30
554.67	23714.31
554.84	23498.98
555.00	23634.73
555.17	23260.24
555.33	23608.98
555.50	23424.08
555.67	23564.51
555.83	23484.94
556.00	23637.07
556.16	23655.79
556.33	23625.37
556.50	23515.36
556.66	23487.28
556.83	23353.87
556.99	23611.32
557.16	24051.34
557.32	23447.49
557.49	23695.58
557.65	23644.09
557.82	23541.11
557.98	23761.12
558.15	23190.03
558.32	23819.63
558.48	23220.45
558.65	23936.66
558.81	23702.61
558.98	23758.78
559.14	23482.59
559.31	23868.78
559.47	23908.57
559.64	23592.60
559.80	23754.10
559.97	23875.80
560.13	23665.16
560.30	23887.51
560.46	24051.34
560.63	23786.86
560.79	23992.83
560.96	24116.88
561.12	24381.36
561.29	23892.19
561.45	23939.00
561.61	24243.27
561.78	24044.32
561.94	23812.61
562.11	24161.35
562.27	24006.87
562.44	23960.06
562.60	24060.71
562.77	24238.59
562.93	23931.98
563.10	24458.60
563.26	24107.52
563.42	23927.30
563.59	24226.89
563.75	23960.06
563.92	24437.53
564.08	24137.94
564.24	24072.41
564.41	24114.54
564.57	23765.80
564.74	23927.30
564.90	24734.78
565.07	24322.85
565.23	24332.21
565.39	23903.89
565.56	24261.99
565.72	24264.33
565.88	24374.34
566.05	24032.62
566.21	24060.71
566.38	24154.33
566.54	24142.63
566.70	24196.46
566.87	24629.46
567.03	24896.28
567.19	24552.22
567.36	24444.56
567.52	24444.56
567.68	24395.40
567.85	24444.56
568.01	24266.67
568.17	24159.01
568.34	24224.54
568.50	24259.65
568.66	24374.34
568.83	24617.75
568.99	24290.08
569.15	24606.05
569.32	24449.24
569.48	24442.21
569.64	24400.08
569.81	24215.18
569.97	24070.07
570.13	24470.30
570.30	24224.54
570.46	24301.78
570.62	24212.84
570.78	24381.36
570.95	24472.64
571.11	24683.29
571.27	24589.67
571.43	24051.34
571.60	24393.06
571.76	24332.21
571.92	24400.08
572.09	24589.67
572.25	24720.74
572.41	24872.87
572.57	24554.56
572.74	24545.20
572.90	24601.37
573.06	24573.28
573.22	24355.61
573.38	24491.37
573.55	24503.07
573.71	24755.85
573.87	24383.70
574.03	24624.78
574.20	24737.12
574.36	24706.70
574.52	24826.06
574.68	24844.79
574.84	24790.95
575.01	24428.17
575.17	24594.35
575.33	24575.62
575.49	24655.20
575.65	24718.40
575.82	24903.30
575.98	24790.95
576.14	24865.85
576.30	24622.44
576.46	24608.39
576.62	24882.24
576.79	24870.53
576.95	24678.61
577.11	24720.74
577.27	25188.85
577.43	24739.46
577.59	24390.72
577.75	24657.54
577.92	24414.13
578.08	24542.86
578.24	24545.20
578.40	24582.65
578.56	25036.71
578.72	25029.69
578.88	25284.81
579.04	25228.63
579.21	24945.43
579.37	24940.75
579.53	24711.38
579.69	25097.56
579.85	24439.87
580.01	24844.79
580.17	24709.04
580.33	24449.24
580.49	24741.80
580.65	24992.24
580.82	24760.53
580.98	24957.13
581.14	24510.09
581.30	25118.63
581.46	24833.08
581.62	24435.19
581.78	24514.77
581.94	24779.25
582.10	24842.45
582.26	24781.59
582.42	24732.44
582.58	24697.33
582.74	24950.11
582.90	24996.92
583.06	24884.58
583.22	24699.67
583.38	24690.31
583.54	24774.57
583.70	24807.34
583.86	25127.99
584.02	24856.49
584.18	25245.02
584.34	24737.12
584.50	24648.18
584.66	24432.85
584.82	24545.20
584.98	25001.60
585.14	24816.70
585.30	24968.84
585.46	25226.29
585.62	24919.68
585.78	24795.64
585.94	24856.49
586.10	25170.12
586.26	24922.02
586.42	25013.31
586.58	24863.51
586.74	25188.85
586.90	24872.87
587.06	24954.79
587.22	25090.54
587.38	24868.19
587.54	25259.06
587.70	25041.39
587.86	24842.45
588.02	24917.34
588.18	25001.60
588.34	25050.75
588.49	25130.33
588.65	24727.76
588.81	25006.28
588.97	24917.34
589.13	24732.44
589.29	25177.14
589.45	24702.01
589.61	25184.16
589.77	25490.77
589.93	24692.65
590.08	25226.29
590.24	25191.19
590.40	25067.14
590.56	25008.62
590.72	25193.53
590.88	24535.84
591.04	25113.95
591.20	24828.40
591.35	24854.15
591.51	25659.29
591.67	25198.21
591.83	25429.92
591.99	25317.57
592.15	25308.21
592.31	25233.32
592.46	25275.45
592.62	25025.01
592.78	24884.58
592.94	25188.85
593.10	25156.08
593.26	25158.42
593.41	25188.85
593.57	25191.19
593.73	25369.07
593.89	25120.97
594.05	24982.88
594.20	24975.86
594.36	25067.14
594.52	24971.18
594.68	24961.81
594.84	25212.25
594.99	25364.39
595.15	25364.39
595.31	25516.52
595.47	25542.27
595.62	25270.76
595.78	24877.55
595.94	25137.35
596.10	24823.72
596.25	25106.93
596.41	25294.17
596.57	25106.93
596.73	25186.50
596.88	24814.36
597.04	25158.42
597.20	24959.47
597.36	24980.54
597.51	25479.07
597.67	24807.34
597.83	24999.26
597.99	25043.73
598.14	24917.34
598.30	25415.88
598.46	25441.62
598.61	25132.67
598.77	25104.59
598.93	25116.29
599.09	25352.68
599.24	25479.07
599.40	25668.66
599.56	25390.13
599.71	25502.48
599.87	25221.61
600.03	25025.01
600.18	25186.50
600.34	25404.17
600.50	25053.09
600.65	24907.98
600.81	25476.73
600.97	25146.72
601.12	25113.95
601.28	25076.50
601.44	24870.53
601.59	25060.12
601.75	25282.47
601.91	25427.58
602.06	24947.77
602.22	25200.55
602.37	24989.90
602.53	25186.50
602.69	25305.87
602.84	25202.89
603.00	25153.74
603.16	25202.89
603.31	25207.57
603.47	24849.47
603.62	25025.01
603.78	25053.09
603.94	24968.84
604.09	25003.94
604.25	24669.25
604.40	25427.58
604.56	25081.18
604.71	25284.81
604.87	25390.13
605.03	24978.20
605.18	25172.46
605.34	25015.65
605.49	24753.51
605.65	25401.83
605.80	24809.68
605.96	25139.69
606.12	25287.15
606.27	25528.22
606.43	25275.45
606.58	25291.83
606.74	24966.49
606.89	25022.67
607.05	24980.54
607.20	24835.42
607.36	24837.76
607.51	24844.79
607.67	25053.09
607.82	25418.22
607.98	24893.94
608.13	25135.01
608.29	25369.07
608.44	24863.51
608.60	25249.70
608.75	25322.26
608.91	25249.70
609.06	24924.36
609.22	25095.22
609.37	24702.01
609.53	25123.31
609.68	25174.80
609.84	25116.29
609.99	25245.02
610.15	25205.23
610.30	25530.56
610.46	25443.96
610.61	25532.90
610.76	25788.02
610.92	25694.40
611.07	26153.15
611.23	26347.41
611.38	26382.52
611.54	26199.96
611.69	25898.03
611.84	26015.05
612.00	25858.24
612.15	25640.57
612.31	25591.42
612.46	25647.59
612.62	25027.35
612.77	24982.88
612.92	25200.55
613.08	25422.90
613.23	25125.65
613.39	24968.84
613.54	25020.33
613.69	25238.00
613.85	25010.96
614.00	25170.12
614.15	24952.45
614.31	24968.84
614.46	25371.41
614.62	25095.22
614.77	25200.55
614.92	25198.21
615.08	24907.98
615.23	25088.20
615.38	24545.20
615.54	24563.92
615.69	24421.15
615.84	24762.87
616.00	24823.72
616.15	24460.94
616.30	24589.67
616.46	24587.33
616.61	24161.35
616.76	24379.02
616.92	24261.99
617.07	24482.00
617.22	24458.60
617.37	24285.40
617.53	24240.93
617.68	24238.59
617.83	24400.08
617.99	24421.15
618.14	24547.54
618.29	24582.65
618.45	24594.35
618.60	24320.51
618.75	24416.47
618.90	24362.64
619.06	24018.58
619.21	23976.45
619.36	24264.33
619.51	24013.90
619.67	23817.29
619.82	24072.41
619.97	23915.59
620.12	23707.29
620.28	24311.14
620.43	24058.37
620.58	24311.14
620.73	24390.72
620.89	24081.77
621.04	24287.74
621.19	24151.99
621.34	23826.65
621.49	23896.87
621.65	24041.98
621.80	24121.56
621.95	23836.02
622.10	23828.99
622.25	24058.37
622.41	23838.36
622.56	23676.86
622.71	24006.87
622.86	23726.01
623.01	23688.56
623.16	23924.96
623.32	23613.66
623.47	23969.43
623.62	23896.87
623.77	23943.68
623.92	24123.90
624.07	24006.87
624.23	23875.80
624.38	23962.40
624.53	23396.00
624.68	24067.73
624.83	23550.47
624.98	23810.27
625.13	23641.75
625.29	23592.60
625.44	23953.04
625.59	23644.09
625.74	23447.49
625.89	23672.18
626.04	23604.30
626.19	23440.47
626.34	23103.43
626.49	23131.51
626.65	23374.93
626.80	23304.71
626.95	23091.73
627.10	23145.56
627.25	23520.04
627.40	23122.15
627.55	23143.22
627.70	23718.99
627.85	23501.32
628.00	23218.11
628.15	23435.78
628.30	23190.03
628.45	23501.32
628.60	23199.39
628.76	23311.74
628.91	23473.23
629.06	23454.51
629.21	23288.33
629.36	23019.17
629.51	23136.20
629.66	23185.35
629.81	22888.10
629.96	23089.38
630.11	22967.68
630.26	23222.80
630.41	23150.24
630.56	23459.19
630.71	23054.28
630.86	23494.30
631.01	23030.87
631.16	23419.40
631.31	23077.68
631.46	22530.00
631.61	23161.94
631.76	22953.63
631.91	23173.64
632.06	22913.84
632.21	22661.07
632.36	22827.24
632.51	22864.69
632.66	22845.97
632.81	22398.93
632.96	22719.58
633.10	22822.56
633.25	22698.52
633.40	22305.31
633.55	22614.26
633.70	22581.49
633.85	22625.96
634.00	22551.06
634.15	22511.27
634.30	22492.55
634.45	22588.51
634.60	22497.23
634.75	22642.34
634.90	22361.48
635.05	22457.44
635.19	22274.88
635.34	22394.25
635.49	22635.32
635.64	22396.59
635.79	22377.86
635.94	22164.87
636.09	22293.60
636.24	22345.09
636.39	22298.28
636.53	22595.53
636.68	22387.22
636.83	22288.92
636.98	22291.26
637.13	22052.53
637.28	21954.22
637.43	22176.58
637.57	22450.42
637.72	22094.66
637.87	22003.38
638.02	22274.88
638.17	21905.07
638.32	22143.81
638.46	21914.44
638.61	21942.52
638.76	22445.74
638.91	22590.85
639.06	22415.31
639.20	22305.31
639.35	22317.01
639.50	22429.35
639.65	22143.81
639.80	22340.41
639.94	22141.47
640.09	22270.20
640.24	22129.77
640.39	21841.88
640.54	21979.97
640.68	21809.11
640.83	21811.45
640.98	22097.00
641.13	21310.58
641.27	21820.81
641.42	22068.91
641.57	21605.49
641.72	21968.27
641.86	21628.89
642.01	21626.55
642.16	21717.83
642.31	21806.77
642.45	21851.24
642.60	21523.57
642.75	21949.54
642.90	21579.74
643.04	21818.47
643.19	21795.07
643.34	21701.45
643.48	21902.73
643.63	21774.00
643.78	21216.96
643.93	21493.14
644.07	21305.90
644.22	21380.79
644.37	21167.80
644.51	21497.82
644.66	21713.15
644.81	21600.80
644.95	21724.85
645.10	21268.45
645.25	21460.37
645.39	21451.01
645.54	21582.08
645.69	21596.12
645.83	21348.03
645.98	21717.83
646.13	21319.94
646.27	21460.37
646.42	21593.78
646.57	21579.74
646.71	21207.59
646.86	21069.50
647.00	21378.45
647.15	21191.21
647.30	21633.57
647.44	21315.26
647.59	21551.65
647.74	21383.13
647.88	21525.91
648.03	21172.49
648.17	21420.58
648.32	21041.42
648.47	21060.14
648.61	21099.93
648.76	21099.93
648.90	21008.65
649.05	21177.17
649.20	21568.04
649.34	21315.26
649.49	20830.77
649.63	21614.85
649.78	21252.06
649.92	21036.74
650.07	21556.33
650.21	21113.97
650.36	21055.46
650.51	21128.02
650.65	21153.76
650.80	21149.08
650.94	21027.37
651.09	20903.32
651.23	20940.77
651.38	21104.61
651.52	21142.06
651.67	21006.31
651.81	20886.94
651.96	21151.42
652.10	21041.42
652.25	21074.18
652.39	20725.44
652.54	20542.88
652.68	20624.80
652.83	20783.96
652.97	20900.98
653.12	20980.56
653.26	20821.41
653.41	20957.16
653.55	20980.56
653.70	20666.93
653.84	20751.19
653.99	20709.06
654.13	20805.02
654.27	20931.41
654.42	21027.37
654.56	20507.77
654.71	20641.18
654.85	20575.65
655.00	20856.51
655.14	20570.97
655.29	20456.28
655.43	20262.02
655.57	20453.94
655.72	20308.83
655.86	20458.62
656.01	20547.56
656.15	20093.50
656.30	20393.09
656.44	20442.24
656.58	20175.42
656.73	20540.54
656.87	20290.10
657.01	20489.05
657.16	20503.09
657.30	20482.03
657.45	20210.53
657.59	20299.47
657.73	19887.53
657.88	20215.21
658.02	20318.19
658.16	20215.21
658.31	20603.74
658.45	20226.91
658.60	19964.77
658.74	20177.76
658.88	20381.38
659.03	20034.99
659.17	20077.12
659.31	19957.75
659.46	20109.88
659.60	19896.89
659.74	19814.98
659.89	19854.76
660.03	19887.53
660.17	19747.10
660.32	19922.64
660.46	19917.96
660.60	19513.05
660.74	20411.81
660.89	20311.17
661.03	19894.55
661.17	19896.89
661.32	19660.50
661.46	19709.65
661.60	19676.88
661.74	19480.28
661.89	19431.13
662.03	19634.75
662.17	19222.82
662.31	19192.39
662.46	19192.39
662.60	19281.33
662.74	19737.74
662.88	19573.90
663.03	19283.67
663.17	19889.87
663.31	19201.76
663.45	19290.70
663.60	19131.54
663.74	19087.07
663.88	19389.00
664.02	19117.50
664.17	19054.30
664.31	18740.67
664.45	19227.50
664.59	18752.37
664.73	18686.84
664.88	18625.98
665.02	19119.84
665.16	19075.37
665.30	19089.41
665.44	19049.62
665.59	18951.32
665.73	19087.07
665.87	18466.83
666.01	19096.43
666.15	18616.62
666.29	18771.10
666.44	18677.48
666.58	18483.21
666.72	18682.16
666.86	18445.76
667.00	18925.57
667.14	18380.23
667.28	18656.41
667.43	18579.17
667.57	18735.99
667.71	18733.65
667.85	18686.84
667.99	18771.10
668.13	18614.28
668.27	18265.54
668.41	18181.28
668.56	18244.48
668.70	18551.09
668.84	18216.39
668.98	18256.18
669.12	18122.77
669.26	18272.56
669.40	18216.39
669.54	18291.29
669.68	17989.36
669.82	17926.16
669.96	17970.63
670.10	18239.79
670.25	18223.41
670.39	18111.07
670.53	17994.04
670.67	17841.90
670.81	18120.43
670.95	17996.38
671.09	17884.03
671.23	17692.11
671.37	17783.39
671.51	17834.88
671.65	17858.29
671.79	17458.06
671.93	17617.21
672.07	17799.77
672.21	17376.14
672.35	17556.36
672.49	17284.86
672.63	17317.62
672.77	17472.10
672.91	17207.62
673.05	17334.01
673.19	17216.98
673.33	16968.88
673.47	16985.27
673.61	16924.41
673.75	17249.75
673.89	16985.27
674.03	17003.99
674.17	17099.95
674.31	16961.86
674.45	17025.06
674.59	17034.42
674.73	17099.95
674.87	16978.25
675.01	16886.97
675.15	17006.33
675.29	16987.61
675.43	16779.30
675.56	16833.13
675.70	16657.59
675.84	16313.53
675.98	15990.54
676.12	16372.05
676.26	16610.78
676.40	16507.80
676.54	16507.80
676.68	16503.12
676.82	16020.97
676.96	16350.98
677.10	16196.51
677.23	16074.80
677.37	16161.40
677.51	16285.45
677.65	16100.55
677.79	15927.35
677.93	16091.18
678.07	15625.42
678.21	15349.23
678.34	15679.25
678.48	15609.03
678.62	15810.32
678.76	15676.91
678.90	15477.96
679.04	15653.50
679.18	15449.88
679.31	15367.96
679.45	15609.03
679.59	15590.31
679.73	15417.11
679.87	15325.83
680.00	15267.31
680.14	15023.90
680.28	15213.48
680.42	15059.01
680.56	15077.73
680.70	15318.81
680.83	14876.44
680.97	14780.48
681.11	14946.66
681.25	14768.78
681.39	14675.16
681.52	14808.57
681.66	14956.02
681.80	14532.39
681.94	14686.86
682.07	14712.61
682.21	14607.28
682.35	14614.30
682.49	14731.33
682.62	14541.75
682.76	14483.24
682.90	14284.29
683.04	14150.88
683.17	14068.96
683.31	14115.77
683.45	14104.07
683.59	14396.64
683.72	13935.55
683.86	14249.18
684.00	14115.77
684.13	13799.80
684.27	13769.37
684.41	13745.97
684.55	13844.27
684.68	13774.05
684.82	13731.92
684.96	13444.04
685.09	13654.69
685.23	13621.92
685.37	13664.05
685.50	13778.73
685.64	13577.45
685.78	13277.86
685.91	13364.46
686.05	13350.42
686.19	13088.28
686.32	13151.47
686.46	12996.99
686.60	13046.15
686.73	13214.66
686.87	13142.11
687.01	13387.86
687.14	12999.34
687.28	12737.20
687.42	12894.01
687.55	12772.30
687.69	12615.49
687.82	12552.29
687.96	12720.81
688.10	12816.77
688.23	12840.18
688.37	12727.83
688.50	12636.55
688.64	12533.57
688.78	12552.29
688.91	12505.48
689.05	12395.48
689.18	12100.57
689.32	12145.04
689.46	12360.37
689.59	12346.33
689.73	11955.46
689.86	11962.48
690.00	11967.16
690.13	12098.23
690.27	12217.60
690.41	11967.16
690.54	11969.50
690.68	11913.33
690.81	11796.30
690.95	11910.99
691.08	11595.01
691.22	11529.48
691.35	11536.50
691.49	11606.72
691.62	11545.86
691.76	11620.76
691.89	11784.60
692.03	11723.74
692.16	11667.57
692.30	11580.97
692.43	11398.41
692.57	11377.34
692.70	11178.40
692.84	11337.56
692.97	11201.80
693.11	11330.53
693.24	10836.68
693.38	11044.99
693.51	10984.13
693.65	11000.52
693.78	11194.78
693.92	11096.48
694.05	10909.24
694.19	10822.64
694.32	11180.74
694.45	10927.96
694.59	10787.53
694.72	10565.18
694.86	10490.28
694.99	10373.25
695.13	10422.41
695.26	10527.73
695.39	10420.06
695.53	10363.89
695.66	10399.00
695.80	10490.28
695.93	10382.62
696.07	10281.97
696.20	10415.38
696.33	10221.12
696.47	10258.57
696.60	10090.05
696.73	10050.26
696.87	10314.74
697.00	10134.52
697.14	9996.43
697.27	9909.83
697.40	9727.27
697.54	9902.81
697.67	9755.35
697.80	9834.93
697.94	9626.62
698.07	9507.26
698.21	9692.16
698.34	9586.83
698.47	9549.39
698.61	9472.15
698.74	9430.02
698.87	9476.83
699.01	9521.30
699.14	9392.57
699.27	9497.89
699.40	9322.35
699.54	9411.29
699.67	9394.91
699.80	9217.03
699.94	8938.51
700.07	9107.02
700.20	8872.97
700.34	8933.82
700.47	9125.75
700.60	8943.19
700.73	9062.55
700.87	8999.36
701.00	8781.69
701.13	8800.41
701.26	8648.28
701.40	8788.71
701.53	8596.79
701.66	8397.84
701.79	8430.61
701.93	8676.37
702.06	8753.60
702.19	8454.02
702.32	8557.00
702.46	8458.70
702.59	8224.64
702.72	8290.18
702.85	8269.11
702.99	8304.22
703.12	8262.09
703.25	8133.36
703.38	8212.94
703.51	8180.17
703.65	8224.64
703.78	8229.32
703.91	8004.63
704.04	8252.73
704.17	8074.85
704.31	7901.65
704.44	7964.84
704.57	7688.66
704.70	7796.32
704.83	7730.79
704.96	7681.64
705.10	7714.41
705.23	7702.70
>>>>>End Processed Spectral Data<<<<<
