SpectraSuite Data File
++++++++++++++++++++++++++++++++++++
Date: Thu Oct 24 13:21:14 EDT 2013
User: stostad
Dark Spectrum Present: No
Reference Spectrum Present: No
Number of Sampled Component Spectra: 1
Spectrometers: USB2+H05261
Integration Time (usec): 100000 (USB2+H05261)
Spectra Averaged: 1 (USB2+H05261)
Boxcar Smoothing: 0 (USB2+H05261)
Correct for Electrical Dark: No (USB2+H05261)
Strobe/Lamp Enabled: No (USB2+H05261)
Correct for Detector Non-linearity: No (USB2+H05261)
Correct for Stray Light: No (USB2+H05261)
Number of Pixels in Processed Spectrum: 2048
>>>>>Begin Processed Spectral Data<<<<<
365.73	557.05
365.92	557.05
366.12	557.05
366.32	463.43
366.52	493.85
366.72	475.13
366.91	468.11
367.11	482.15
367.31	423.64
367.51	435.34
367.70	479.81
367.90	503.22
368.10	498.53
368.30	493.85
368.49	484.49
368.69	449.38
368.89	477.47
369.09	484.49
369.28	486.83
369.48	528.96
369.68	454.06
369.87	540.66
370.07	550.03
370.27	491.51
370.47	552.37
370.66	748.97
370.86	727.91
371.06	718.54
371.25	828.55
371.45	748.97
371.65	858.98
371.84	854.30
372.04	755.99
372.24	812.17
372.44	849.61
372.63	849.61
372.83	788.76
373.03	849.61
373.22	833.23
373.42	835.57
373.62	887.06
373.81	809.83
374.01	919.83
374.21	924.51
374.40	828.55
374.60	896.43
374.79	912.81
374.99	884.72
375.19	889.40
375.38	880.04
375.58	926.85
375.78	910.47
375.97	908.13
376.17	933.87
376.37	880.04
376.56	915.15
376.76	910.47
376.95	910.47
377.15	931.53
377.35	837.91
377.54	922.17
377.74	877.70
377.93	877.70
378.13	894.08
378.33	877.70
378.52	908.13
378.72	910.47
378.91	912.81
379.11	926.85
379.31	849.61
379.50	947.92
379.70	945.58
379.89	884.72
380.09	901.11
380.28	919.83
380.48	966.64
380.68	933.87
380.87	877.70
381.07	950.26
381.26	945.58
381.46	1029.84
381.65	1020.47
381.85	976.00
382.04	952.60
382.24	1013.45
382.43	1011.11
382.63	1001.75
382.83	997.07
383.02	980.68
383.22	959.62
383.41	903.45
383.61	992.39
383.80	999.41
384.00	1043.88
384.19	1011.11
384.39	919.83
384.58	1083.67
384.78	1022.81
384.97	1053.24
385.17	1027.50
385.36	1018.13
385.56	1060.26
385.75	964.30
385.95	1034.52
386.14	1067.28
386.34	1081.33
386.53	940.90
386.72	1004.09
386.92	1032.18
387.11	1102.39
387.31	1039.20
387.50	1013.45
387.70	1006.43
387.89	1132.82
388.09	1132.82
388.28	1032.18
388.48	1095.37
388.67	1048.56
388.86	1181.97
389.06	1130.48
389.25	1078.99
389.45	1167.93
389.64	1125.80
389.84	1181.97
390.03	1083.67
390.22	1153.88
390.42	1102.39
390.61	1067.28
390.81	1107.07
391.00	1130.48
391.19	1123.46
391.39	1078.99
391.58	1102.39
391.78	1142.18
391.97	1188.99
392.16	1146.86
392.36	1219.42
392.55	1165.59
392.75	1212.40
392.94	1207.72
393.13	1261.55
393.33	1146.86
393.52	1219.42
393.71	1212.40
393.91	1205.38
394.10	1256.87
394.29	1212.40
394.49	1156.22
394.68	1259.21
394.88	1228.78
395.07	1291.98
395.26	1301.34
395.46	1280.27
395.65	1284.95
395.84	1261.55
396.04	1299.00
396.23	1277.93
396.42	1350.49
396.62	1306.02
396.81	1329.42
397.00	1413.68
397.19	1306.02
397.39	1315.38
397.58	1280.27
397.77	1282.61
397.97	1336.45
398.16	1394.96
398.35	1453.47
398.55	1399.64
398.74	1322.40
398.93	1472.20
399.12	1401.98
399.32	1397.30
399.51	1413.68
399.70	1423.05
399.90	1432.41
400.09	1530.71
400.28	1472.20
400.47	1488.58
400.67	1385.60
400.86	1558.80
401.05	1540.07
401.24	1481.56
401.44	1479.22
401.63	1575.18
401.82	1476.88
402.01	1563.48
402.21	1593.90
402.40	1542.41
402.59	1521.35
402.78	1551.78
402.97	1523.69
403.17	1521.35
403.36	1612.63
403.55	1636.03
403.74	1612.63
403.93	1624.33
404.13	1687.53
404.32	1638.38
404.51	1584.54
404.70	1769.44
404.89	1654.76
405.09	1682.85
405.28	1722.63
405.47	1650.08
405.66	1675.82
405.85	1675.82
406.05	1750.72
406.24	1689.87
406.43	1713.27
406.62	1783.49
406.81	1846.68
407.00	1696.89
407.20	1708.59
407.39	1785.83
407.58	1881.79
407.77	1902.86
407.96	1891.15
408.15	1858.39
408.34	1788.17
408.54	1870.09
408.73	1912.22
408.92	1937.96
409.11	1893.49
409.30	1872.43
409.49	1949.67
409.68	1933.28
409.87	1977.75
410.07	1905.20
410.26	1991.80
410.45	2052.65
410.64	2024.56
410.83	2040.95
411.02	2038.61
411.21	1977.75
411.40	1984.77
411.59	2111.16
411.78	2069.03
411.98	2090.10
412.17	2066.69
412.36	2150.95
412.55	2097.12
412.74	2193.08
412.93	2092.44
413.12	2148.61
413.31	2307.77
413.50	2267.98
413.69	2167.34
413.88	2272.66
414.07	2258.62
414.26	2340.54
414.45	2282.02
414.64	2296.07
414.83	2249.25
415.02	2345.22
415.22	2361.60
415.41	2452.88
415.60	2445.86
415.79	2387.35
415.98	2530.12
416.17	2487.99
416.36	2530.12
416.55	2452.88
416.74	2555.86
416.93	2511.39
417.12	2567.57
417.31	2593.31
417.50	2541.82
417.69	2668.21
417.88	2658.85
418.07	2590.97
418.26	2724.38
418.45	2565.23
418.64	2745.45
418.83	2626.08
419.02	2698.64
419.21	2689.28
419.39	2696.30
419.58	2654.17
419.77	2736.09
419.96	2810.98
420.15	2794.60
420.34	2757.15
420.53	2937.37
420.72	2892.90
420.91	2825.03
421.10	2920.99
421.29	2801.62
421.48	2953.76
421.67	2888.22
421.86	2780.56
422.05	2874.18
422.24	2881.20
422.43	3002.91
422.61	2984.18
422.80	3016.95
422.99	2892.90
423.18	2923.33
423.37	3063.76
423.56	2986.52
423.75	3026.31
423.94	2862.48
424.13	2775.88
424.32	2841.41
424.50	2986.52
424.69	3052.06
424.88	3059.08
425.07	2932.69
425.26	3007.59
425.45	3000.57
425.64	3000.57
425.83	2970.14
426.01	3094.19
426.20	3054.40
426.39	3070.78
426.58	3023.97
426.77	3070.78
426.96	3136.32
427.15	2998.23
427.33	3145.68
427.52	2956.10
427.71	3122.27
427.90	3068.44
428.09	3052.06
428.28	3185.47
428.46	3042.70
428.65	3204.19
428.84	3262.71
429.03	3136.32
429.22	3218.24
429.40	3290.79
429.59	3302.50
429.78	3194.83
429.97	3166.74
430.16	3267.39
430.34	3417.18
430.53	3365.69
430.72	3180.79
430.91	3304.84
431.10	3279.09
431.28	3330.58
431.47	3398.46
431.66	3410.16
431.85	3342.28
432.03	3510.80
432.22	3468.67
432.41	3393.78
432.60	3440.59
432.79	3377.39
432.97	3417.18
433.16	3471.01
433.35	3473.36
433.54	3543.57
433.72	3545.91
433.91	3503.78
434.10	3545.91
434.28	3571.66
434.47	3541.23
434.66	3606.77
434.85	3665.28
435.03	3667.62
435.22	3735.50
435.41	3969.55
435.59	3969.55
435.78	3859.54
435.97	3906.35
436.16	3740.18
436.34	3679.32
436.53	3789.33
436.72	3822.09
436.90	3693.37
437.09	3843.16
437.28	3829.12
437.46	3712.09
437.65	3763.58
437.84	3810.39
438.02	3817.41
438.21	3857.20
438.40	3847.84
438.58	4011.68
438.77	4023.38
438.96	3829.12
439.14	4126.36
439.33	4121.68
439.52	4091.26
439.70	4032.74
439.89	4142.75
440.08	4140.41
440.26	4124.02
440.45	4198.92
440.63	4004.66
440.82	4229.35
441.01	4231.69
441.19	4423.61
441.38	4397.87
441.57	4262.12
441.75	4390.84
441.94	4360.42
442.12	4482.13
442.31	4496.17
442.50	4608.51
442.68	4538.30
442.87	4472.76
443.05	4376.80
443.24	4641.28
443.43	4585.11
443.61	4512.55
443.80	4627.24
443.98	4664.69
444.17	4451.70
444.35	4552.34
444.54	4535.96
444.73	4496.17
444.91	4638.94
445.10	4566.39
445.28	4674.05
445.47	4767.67
445.65	4622.56
445.84	4676.39
446.02	4692.77
446.21	4564.04
446.39	4758.31
446.58	4802.78
446.77	4748.95
446.95	4718.52
447.14	4608.51
447.32	4681.07
447.51	4727.88
447.69	4713.84
447.88	4582.77
448.06	4816.82
448.25	4681.07
448.43	4641.28
448.62	4767.67
448.80	4791.08
448.99	4821.50
449.17	4959.60
449.36	4685.75
449.54	4828.53
449.73	4938.53
449.91	4959.60
450.10	4950.23
450.28	4961.94
450.46	5020.45
450.65	4992.36
450.83	4933.85
451.02	4983.00
451.20	5055.56
451.39	4990.02
451.57	4938.53
451.76	5020.45
451.94	4882.36
452.13	5174.92
452.31	4975.98
452.49	5006.41
452.68	5160.88
452.86	5149.18
453.05	5198.33
453.23	5011.09
453.42	5135.14
453.60	5085.98
453.78	5163.22
453.97	5053.22
454.15	4950.23
454.34	5160.88
454.52	5329.40
454.70	5249.82
454.89	5324.72
455.07	5359.83
455.26	5441.75
455.44	5373.87
455.62	5451.11
455.81	5439.40
455.99	5369.19
456.17	5432.38
456.36	5420.68
456.54	5493.24
456.73	5460.47
456.91	5551.75
457.09	5526.00
457.28	5561.11
457.46	5472.17
457.64	5666.44
457.83	5570.48
458.01	5591.54
458.19	5771.76
458.38	5731.97
458.56	5701.54
458.74	5771.76
458.93	5767.08
459.11	5717.93
459.29	5743.67
459.48	5736.65
459.66	5769.42
459.84	5748.36
460.03	6005.81
460.21	5820.91
460.39	5846.66
460.57	5827.93
460.76	6033.90
460.94	5968.37
461.12	6040.92
461.31	5792.83
461.49	5959.00
461.67	6136.88
461.85	6118.16
462.04	6012.84
462.22	6387.32
462.40	6195.40
462.59	6050.28
462.77	6085.39
462.95	6195.40
463.13	6010.50
463.32	6225.82
463.50	6354.55
463.68	6279.66
463.86	6237.53
464.05	6244.55
464.23	6368.60
464.41	6171.99
464.59	6321.79
464.78	6445.84
464.96	6417.75
465.14	6307.74
465.32	6490.31
465.50	6459.88
465.69	6455.20
465.87	6553.50
466.05	6312.42
466.23	6469.24
466.41	6291.36
466.60	6555.84
466.78	6518.39
466.96	6525.41
467.14	6616.69
467.32	6408.39
467.51	6523.07
467.69	6387.32
467.87	6530.09
468.05	6576.91
468.23	6455.20
468.41	6738.40
468.60	6773.51
468.78	6677.55
468.96	6619.04
469.14	6630.74
469.32	6768.83
469.50	6588.61
469.69	6815.64
469.87	6677.55
470.05	6874.15
470.23	6817.98
470.41	6841.39
470.59	6967.77
470.77	6740.74
470.95	6965.43
471.14	6984.16
471.32	7061.40
471.50	7007.56
471.68	6967.77
471.86	7150.34
472.04	7192.47
472.22	7117.57
472.40	7187.79
472.58	7098.84
472.77	7197.15
472.95	7375.03
473.13	7597.38
473.31	7375.03
473.49	7325.88
473.67	7424.18
473.85	7309.49
474.03	7623.12
474.21	7578.65
474.39	7644.19
474.57	7674.62
474.75	7634.83
474.93	7803.35
475.12	7588.02
475.30	7801.01
475.48	7524.82
475.66	7840.79
475.84	7829.09
476.02	7969.52
476.20	8058.46
476.38	8086.55
476.56	8294.86
476.74	8243.37
476.92	8301.88
477.10	8194.22
477.28	8442.31
477.46	8344.01
477.64	8451.67
477.82	8549.98
478.00	8777.01
478.18	8638.92
478.36	8603.81
478.54	8772.33
478.72	8816.80
478.90	8819.14
479.08	8990.00
479.26	9029.79
479.44	9158.52
479.62	9076.60
479.80	9275.54
479.98	9085.96
480.16	9469.81
480.34	9088.30
480.52	9242.78
480.70	9530.66
480.88	9448.74
481.06	9516.62
481.24	9657.05
481.41	9699.18
481.59	9776.42
481.77	9853.66
481.95	9919.19
482.13	10057.28
482.31	10115.80
482.49	10298.36
482.67	10258.57
482.85	10422.41
483.03	10420.06
483.21	10516.03
483.39	10579.22
483.57	10721.99
483.74	10553.48
483.92	10820.30
484.10	10759.44
484.28	10927.96
484.46	11164.36
484.64	11276.70
484.82	11044.99
485.00	11279.04
485.18	11485.01
485.35	11660.55
485.53	11627.78
485.71	11520.12
485.89	11850.13
486.07	11611.40
486.25	11899.28
486.43	11777.58
486.61	11882.90
486.78	12070.14
486.96	12320.58
487.14	12313.56
487.32	12276.11
487.50	12390.80
487.68	12585.06
487.85	12662.30
488.03	12732.51
488.21	13111.68
488.39	12730.17
488.57	13139.77
488.75	12910.40
488.92	13217.01
489.10	13383.18
489.28	13191.26
489.46	13706.18
489.64	13465.10
489.81	13858.31
489.99	13802.14
490.17	13933.21
490.35	13909.80
490.53	14246.84
490.70	14310.04
490.88	14064.28
491.06	14410.68
491.24	14274.93
491.41	14441.11
491.59	14506.64
491.77	14668.14
491.95	14679.84
492.13	14305.35
492.30	15269.66
492.48	14721.97
492.66	15014.54
492.84	15037.94
493.01	15417.11
493.19	15096.46
493.37	15363.28
493.54	15232.21
493.72	15470.94
493.90	15112.84
494.08	15590.31
494.25	15728.40
494.43	15784.57
494.61	15800.96
494.79	15908.62
494.96	16018.63
495.14	16032.67
495.32	16367.37
495.49	16585.04
495.67	16673.98
495.85	16311.19
496.02	16535.88
496.20	17116.34
496.38	16872.92
496.55	16758.24
496.73	17289.54
496.91	17158.47
497.09	17345.71
497.26	17118.68
497.44	17238.05
497.62	17528.27
497.79	17397.20
497.97	17247.41
498.14	17769.35
498.32	17848.93
498.50	17795.09
498.67	17767.01
498.85	17949.57
499.03	18200.01
499.20	17975.31
499.38	18118.09
499.56	18251.50
499.73	18066.60
499.91	18185.96
500.08	18642.37
500.26	18375.55
500.44	18361.50
500.61	18520.66
500.79	18588.53
500.97	18766.42
501.14	19222.82
501.32	18920.89
501.49	19054.30
501.67	18853.02
501.84	19051.96
502.02	18965.36
502.20	19248.57
502.37	19351.55
502.55	19161.97
502.72	19225.16
502.90	19461.55
503.07	19187.71
503.25	19536.45
503.43	19400.70
503.60	19751.78
503.78	19587.94
503.95	19939.02
504.13	19805.61
504.30	19777.53
504.48	19695.61
504.65	20381.38
504.83	20336.91
505.01	20467.98
505.18	20203.50
505.36	20112.22
505.53	20109.88
505.71	20428.20
505.88	20524.16
506.06	20730.12
506.23	20542.88
506.41	20552.24
506.58	20524.16
506.76	20622.46
506.93	20744.17
507.11	20624.80
507.28	20903.32
507.46	20971.20
507.63	20842.47
507.81	21259.09
507.98	21008.65
508.16	21053.12
508.33	21324.62
508.50	21301.22
508.68	21427.60
508.85	21556.33
509.03	21853.58
509.20	21575.06
509.38	21752.94
509.55	21879.33
509.73	22099.34
509.90	21898.05
510.08	21816.13
510.25	22281.90
510.42	21902.73
510.60	22342.75
510.77	22017.42
510.95	22174.24
511.12	22338.07
511.30	22363.82
511.47	22724.26
511.64	22412.97
511.82	22841.29
511.99	22197.64
512.17	22508.93
512.34	22815.54
512.51	23035.55
512.69	23080.02
512.86	23019.17
513.04	23278.97
513.21	23070.66
513.38	22799.16
513.56	23140.88
513.73	22831.93
513.90	23538.77
514.08	23281.31
514.25	23211.09
514.43	23377.27
514.60	23527.06
514.77	23531.75
514.95	23349.18
515.12	23538.77
515.29	23580.90
515.47	24269.01
515.64	24004.53
515.81	23812.61
515.99	23592.60
516.16	23772.82
516.33	24341.57
516.51	24128.58
516.68	24430.51
516.85	24187.10
517.03	24437.53
517.20	24428.17
517.37	24173.05
517.54	24437.53
517.72	24634.14
517.89	24407.11
518.06	24713.72
518.24	24624.78
518.41	24252.63
518.58	24730.10
518.75	24266.67
518.93	24760.53
519.10	25207.57
519.27	24819.04
519.45	24968.84
519.62	24709.04
519.79	24596.69
519.96	25010.96
520.14	25095.22
520.31	24739.46
520.48	25132.67
520.65	25275.45
520.83	25348.00
521.00	25090.54
521.17	25127.99
521.34	25476.73
521.52	25514.18
521.69	25333.96
521.86	25572.69
522.03	25766.96
522.20	25640.57
522.38	25937.82
522.55	26141.44
522.72	25802.07
522.89	25998.67
523.07	25930.80
523.24	25970.58
523.41	26043.14
523.58	25996.33
523.75	26324.01
523.92	26251.45
524.10	26214.00
524.27	26487.84
524.44	26403.58
524.61	26286.56
524.78	26801.47
524.96	26766.37
525.13	26443.37
525.30	27072.98
525.47	26686.79
525.64	26616.57
525.81	26831.90
525.98	27080.00
526.16	26679.77
526.33	26862.33
526.50	27040.21
526.67	26712.53
526.84	26859.99
527.01	27159.58
527.18	27138.51
527.36	27262.56
527.53	27089.36
527.70	27185.32
527.87	27402.99
528.04	27056.59
528.21	27564.49
528.38	27108.08
528.55	27300.01
528.72	27236.81
528.89	27510.66
529.07	27552.79
529.24	27342.14
529.41	27655.77
529.58	27651.09
529.75	27859.40
529.92	27777.48
530.09	27850.03
530.26	28004.51
530.43	27728.33
530.60	27831.31
530.77	27538.74
530.94	28425.81
531.11	27782.16
531.28	28048.98
531.46	28067.70
531.63	28201.11
531.80	27850.03
531.97	28196.43
532.14	28599.01
532.31	28191.75
532.48	28535.81
532.65	28692.63
532.82	28311.12
532.99	28540.49
533.16	28739.44
533.33	28458.57
533.50	28802.63
533.67	28591.98
533.84	28596.67
534.01	28673.90
534.18	28582.62
534.35	29046.05
534.52	28711.35
534.69	29125.63
534.86	29071.79
535.03	28683.27
535.20	28952.43
535.37	28952.43
535.54	29340.96
535.71	29125.63
535.88	29142.01
536.05	29188.82
536.22	29575.01
536.38	29415.85
536.55	28982.85
536.72	29504.79
536.89	29481.39
537.06	29780.98
537.23	29682.67
537.40	29493.09
537.57	29067.11
537.74	29795.02
537.91	29603.10
538.08	29659.27
538.25	29883.96
538.42	29745.87
538.59	29855.87
538.75	29783.32
538.92	29565.65
539.09	29876.94
539.26	29837.15
539.43	29553.94
539.60	29570.33
539.77	29982.26
539.94	30417.60
540.11	30551.01
540.28	30197.59
540.44	30174.19
540.61	30197.59
540.78	30213.98
540.95	30848.26
541.12	30331.00
541.29	30471.43
541.46	30841.24
541.62	31072.95
541.79	30857.62
541.96	30895.07
542.13	30782.73
542.30	30457.39
542.47	31164.23
542.63	30717.19
542.80	30951.24
542.97	31615.96
543.14	31197.00
543.31	31161.89
543.48	31292.96
543.64	31536.38
543.81	31220.41
543.98	31484.89
544.15	31353.82
544.32	31695.53
544.48	31995.12
544.65	31545.74
544.82	31517.65
544.99	31201.68
545.16	31683.83
545.32	31529.36
545.49	31756.39
545.66	32650.47
545.83	32421.10
546.00	32601.32
546.16	32039.59
546.33	32224.50
546.50	31903.84
546.67	31599.57
546.83	31641.70
547.00	31515.31
547.17	31590.21
547.34	31737.66
547.50	31770.43
547.67	31772.77
547.84	31630.00
548.00	32355.57
548.17	32559.19
548.34	32077.04
548.51	32264.28
548.67	32341.52
548.84	31850.01
549.01	32236.20
549.18	31990.44
549.34	32173.00
549.51	32481.95
549.68	32222.16
549.84	31882.78
550.01	32460.89
550.18	31899.16
550.34	32580.26
550.51	32077.04
550.68	32329.82
550.84	32222.16
551.01	32498.34
551.18	32477.27
551.34	32060.66
551.51	32053.64
551.68	32250.24
551.84	32025.55
552.01	32051.30
552.18	32463.23
552.34	32371.95
552.51	32610.68
552.68	32430.46
552.84	32393.01
553.01	32816.65
553.18	32566.21
553.34	33027.30
553.51	32573.24
553.67	32732.39
553.84	33064.75
554.01	32907.93
554.17	32634.09
554.34	32875.16
554.51	32603.66
554.67	32814.31
554.84	33088.15
555.00	32919.63
555.17	32535.79
555.33	32893.89
555.50	32739.41
555.67	32893.89
555.83	32760.48
556.00	32989.85
556.16	32900.91
556.33	33397.10
556.50	32575.58
556.66	33223.90
556.83	33221.56
556.99	33464.98
557.16	33441.57
557.32	33291.78
557.49	33668.61
557.65	33151.35
557.82	33095.18
557.98	33060.07
558.15	33151.35
558.32	33055.39
558.48	33493.07
558.65	33202.84
558.81	33156.03
558.98	33273.06
559.14	33523.49
559.31	33553.92
559.47	33081.13
559.64	33612.43
559.80	33097.52
559.97	33247.31
560.13	33472.00
560.30	33336.25
560.46	33303.48
560.63	33689.67
560.79	33727.12
560.96	33827.76
561.12	33848.83
561.29	33347.95
561.45	33748.18
561.61	33385.40
561.78	33546.90
561.94	33954.15
562.11	34153.10
562.27	33937.77
562.44	33998.62
562.60	34141.39
562.77	33392.42
562.93	33961.17
563.10	33546.90
563.26	33446.26
563.42	33472.00
563.59	33713.08
563.75	33750.52
563.92	34323.96
564.08	33731.80
564.24	33937.77
564.41	33860.53
564.57	33668.61
564.74	33591.37
564.90	34391.83
565.07	34113.31
565.23	33947.13
565.39	33584.35
565.56	33876.91
565.72	34073.52
565.88	33689.67
566.05	33795.00
566.21	33804.36
566.38	33858.19
566.54	33879.25
566.70	33865.21
566.87	34256.08
567.03	34249.06
567.19	34733.55
567.36	34146.08
567.52	34382.47
567.68	34656.31
567.85	33890.96
568.01	34492.47
568.17	34181.18
568.34	34120.33
568.50	34125.01
568.66	34581.42
568.83	34253.74
568.99	34508.86
569.15	34319.28
569.32	33963.51
569.48	34106.29
569.64	34167.14
569.81	34078.20
569.97	34134.37
570.13	33958.83
570.30	33961.17
570.46	34162.46
570.62	34440.98
570.78	34267.78
570.95	34387.15
571.11	34195.23
571.27	34256.08
571.43	34068.84
571.60	33677.97
571.76	34466.73
571.92	34558.01
572.09	34443.32
572.25	34686.74
572.41	34705.46
572.57	34773.34
572.74	35091.65
572.90	34122.67
573.06	34614.18
573.22	34394.17
573.38	34422.26
573.55	34506.52
573.71	34775.68
573.87	34438.64
574.03	34394.17
574.20	34513.54
574.36	34005.64
574.52	34487.79
574.68	34426.94
574.84	34574.39
575.01	34480.77
575.17	34017.35
575.33	34550.99
575.49	34424.60
575.65	34375.45
575.82	34663.33
575.98	34665.67
576.14	35093.99
576.30	34740.57
576.46	34710.14
576.62	34408.22
576.79	34567.37
576.95	34298.21
577.11	34745.25
577.27	34995.69
577.43	34602.48
577.59	34567.37
577.75	34632.91
577.92	34377.79
578.08	34403.53
578.24	34902.07
578.40	34930.16
578.56	34944.20
578.72	34740.57
578.88	35182.93
579.04	35133.78
579.21	34916.11
579.37	34775.68
579.53	34993.35
579.69	34703.12
579.85	34920.79
580.01	35012.07
580.17	34761.64
580.33	34330.98
580.49	34340.34
580.65	34628.23
580.82	34852.92
580.98	34859.94
581.14	34429.28
581.30	35325.71
581.46	34766.32
581.62	35150.17
581.78	34644.61
581.94	34487.79
582.10	34499.50
582.26	34740.57
582.42	34745.25
582.58	34995.69
582.74	34881.00
582.90	34562.69
583.06	34878.66
583.22	34689.08
583.38	34494.82
583.54	34972.28
583.70	35030.80
583.86	34658.65
584.02	34450.35
584.18	35152.51
584.34	35241.45
584.50	35122.08
584.66	34726.53
584.82	34455.03
584.98	34890.37
585.14	35082.29
585.30	35306.98
585.46	34890.37
585.62	35058.88
585.78	34979.31
585.94	34763.98
586.10	35117.40
586.26	34759.30
586.42	35311.66
586.58	35243.79
586.74	34845.90
586.90	34497.16
587.06	35180.59
587.22	35281.24
587.38	35213.36
587.54	35044.84
587.70	35772.75
587.86	35508.27
588.02	35101.01
588.18	34976.97
588.34	35295.28
588.49	35232.08
588.65	35185.27
588.81	34873.98
588.97	35257.83
589.13	35058.88
589.29	35227.40
589.45	35040.16
589.61	35475.50
589.77	35349.11
589.93	35103.35
590.08	35196.98
590.24	35526.99
590.40	35009.73
590.56	35585.50
590.72	35033.14
590.88	34558.01
591.04	35126.76
591.20	35061.22
591.35	35274.21
591.51	35828.92
591.67	35262.51
591.83	35587.85
591.99	35225.06
592.15	35452.09
592.31	35077.61
592.46	35019.10
592.62	35335.07
592.78	35402.94
592.94	35288.26
593.10	35159.53
593.26	35597.21
593.41	35578.48
593.57	35335.07
593.73	35952.97
593.89	35798.49
594.05	35068.25
594.20	35131.44
594.36	35477.84
594.52	34939.52
594.68	35487.20
594.84	35384.22
594.99	35304.64
595.15	35318.68
595.31	35459.12
595.47	35489.54
595.62	35365.49
595.78	35204.00
595.94	35152.51
596.10	35276.55
596.25	35510.61
596.41	35257.83
596.57	35295.28
596.73	35007.39
596.88	35232.08
597.04	35555.08
597.20	35168.89
597.36	35112.72
597.51	35426.35
597.67	35768.07
597.83	35058.88
597.99	35667.42
598.14	35559.76
598.30	34904.41
598.46	35136.12
598.61	35122.08
598.77	35351.45
598.93	35379.54
599.09	35171.23
599.24	35957.65
599.40	35737.64
599.56	35571.46
599.71	35374.86
599.87	35615.93
600.03	35311.66
600.18	35796.15
600.34	35068.25
600.50	35487.20
600.65	35112.72
600.81	35339.75
600.97	35950.63
601.12	35641.68
601.28	35466.14
601.44	35274.21
601.59	35260.17
601.75	35274.21
601.91	35632.32
602.06	35337.41
602.22	35700.19
602.37	35253.15
602.53	35512.95
602.69	35688.49
602.84	35508.27
603.00	35718.92
603.16	35508.27
603.31	35585.50
603.47	35278.89
603.62	34991.01
603.78	35538.69
603.94	35033.14
604.09	35468.48
604.25	35196.98
604.40	35438.05
604.56	35220.38
604.71	35377.20
604.87	35255.49
605.03	35512.95
605.18	35522.31
605.34	35388.90
605.49	35243.79
605.65	35358.47
605.80	35061.22
605.96	35564.44
606.12	35564.44
606.27	35838.28
606.43	35608.91
606.58	35463.80
606.74	35157.19
606.89	35641.68
607.05	35402.94
607.20	35372.52
607.36	34712.49
607.51	35620.61
607.67	35571.46
607.82	34955.90
607.98	35042.50
608.13	35758.70
608.29	35204.00
608.44	34981.65
608.60	35526.99
608.75	35468.48
608.91	35597.21
609.06	35477.84
609.22	35505.93
609.37	35019.10
609.53	35342.09
609.68	35220.38
609.84	35021.44
609.99	35143.14
610.15	35728.28
610.30	35662.74
610.46	35758.70
610.61	35992.76
610.76	35772.75
610.92	36275.96
611.07	36140.21
611.23	36121.49
611.38	36285.33
611.54	36245.54
611.69	36032.55
611.84	36182.34
612.00	36290.01
612.15	35756.36
612.31	36086.38
612.46	35695.51
612.62	34862.28
612.77	35168.89
612.92	35665.08
613.08	35381.88
613.23	35030.80
613.39	35131.44
613.54	35056.54
613.69	35395.92
613.85	35030.80
614.00	35653.38
614.15	35555.08
614.31	35108.04
614.46	35562.10
614.62	34719.51
614.77	35159.53
614.92	34752.27
615.08	34675.04
615.23	34745.25
615.38	34838.87
615.54	34513.54
615.69	34632.91
615.84	34677.38
616.00	34815.47
616.15	34525.24
616.30	34494.82
616.46	34466.73
616.61	34745.25
616.76	34536.94
616.92	34003.30
617.07	34478.43
617.22	34169.48
617.37	34087.56
617.53	34309.91
617.68	34125.01
617.83	34539.29
617.99	34721.85
618.14	34632.91
618.29	34178.84
618.45	34703.12
618.60	34220.97
618.75	33916.70
618.90	34122.67
619.06	34087.56
619.21	33755.21
619.36	34094.58
619.51	33743.50
619.67	33996.28
619.82	33970.54
619.97	34223.31
620.12	33846.49
620.28	34307.57
620.43	34761.64
620.58	34068.84
620.73	34204.59
620.89	34391.83
621.04	34202.25
621.19	33853.51
621.34	33874.57
621.49	33593.71
621.65	33670.95
621.80	34232.68
621.95	33848.83
622.10	33717.76
622.25	34000.96
622.41	33591.37
622.56	33640.52
622.71	34003.30
622.86	33837.12
623.01	33563.28
623.16	33350.29
623.32	33186.46
623.47	33532.86
623.62	33514.13
623.77	33951.81
623.92	33989.26
624.07	33874.57
624.23	33841.81
624.38	33802.02
624.53	33799.68
624.68	33167.73
624.83	33888.62
624.98	33617.11
625.13	33188.80
625.29	33181.77
625.44	33654.56
625.59	32898.57
625.74	33394.76
625.89	33064.75
626.04	33097.52
626.19	33249.65
626.34	33280.08
626.49	32851.76
626.65	32961.76
626.80	33542.22
626.95	33078.79
627.10	32741.75
627.25	33172.41
627.40	33104.54
627.55	32975.81
627.70	32912.61
627.85	33268.37
628.00	33303.48
628.15	33015.60
628.30	33043.68
628.45	33163.05
628.60	33006.23
628.76	32280.67
628.91	32816.65
629.06	33001.55
629.21	32533.45
629.36	32273.65
629.51	32861.12
629.66	32793.25
629.81	32243.22
629.96	32704.31
630.11	32830.69
630.26	32622.39
630.41	32795.59
630.56	32779.20
630.71	33031.98
630.86	32837.72
631.01	32346.20
631.16	32758.14
631.31	32889.21
631.46	32388.33
631.61	32716.01
631.76	32254.92
631.91	32388.33
632.06	32308.76
632.21	32519.40
632.36	32477.27
632.51	32025.55
632.66	32196.41
632.81	31852.35
632.96	32135.56
633.10	31957.67
633.25	32187.05
633.40	31714.26
633.55	32231.52
633.70	31655.75
633.85	31999.80
634.00	32055.98
634.15	32477.27
634.30	31896.82
634.45	32205.77
634.60	32154.28
634.75	32301.73
634.90	31868.73
635.05	31981.08
635.19	31552.76
635.34	32261.94
635.49	31683.83
635.64	31534.04
635.79	31709.58
635.94	31768.09
636.09	31529.36
636.24	31496.59
636.39	31833.63
636.53	32046.62
636.68	31866.39
636.83	31674.47
636.98	31784.48
637.13	31344.45
637.28	31466.16
637.43	31779.79
637.57	31899.16
637.72	31402.97
637.87	31253.17
638.02	31271.90
638.17	31524.68
638.32	30953.58
638.46	31014.44
638.61	31625.32
638.76	31260.20
638.91	31669.79
639.06	31519.99
639.20	31461.48
639.35	31512.97
639.50	31056.57
639.65	31648.72
639.80	31129.12
639.94	30951.24
640.09	30710.17
640.24	30986.35
640.39	31379.56
640.54	30843.58
640.68	31393.61
640.83	30850.60
640.98	30913.80
641.13	30862.30
641.27	30817.83
641.42	30672.72
641.57	30593.14
641.72	30775.70
641.86	30497.18
642.01	30354.41
642.16	30719.53
642.31	30787.41
642.45	30838.90
642.60	30579.10
642.75	31028.48
642.90	30958.27
643.04	30595.48
643.19	30368.45
643.34	30871.67
643.48	31248.49
643.63	30852.94
643.78	30352.07
643.93	30340.36
644.07	30700.81
644.22	30419.94
644.37	30417.60
644.51	29902.68
644.66	30410.58
644.81	30433.99
644.95	31035.50
645.10	30745.28
645.25	30817.83
645.39	30412.92
645.54	30637.61
645.69	30492.50
645.83	30724.21
645.98	30799.11
646.13	30548.67
646.27	30333.34
646.42	30909.11
646.57	30546.33
646.71	30410.58
646.86	30527.61
647.00	30302.92
647.15	30635.27
647.30	30054.82
647.44	30209.29
647.59	30438.67
647.74	30349.73
647.88	30616.55
648.03	30286.53
648.17	30242.06
648.32	30000.99
648.47	30057.16
648.61	29797.36
648.76	30139.08
648.90	29940.13
649.05	30157.80
649.20	30000.99
649.34	30309.94
649.49	30668.04
649.63	30192.91
649.78	30415.26
649.92	29619.48
650.07	30099.29
650.21	29694.38
650.36	30272.49
650.51	30302.92
650.65	30139.08
650.80	29858.21
650.94	30045.46
651.09	29780.98
651.23	29598.41
651.38	29748.21
651.52	29766.93
651.67	29979.92
651.81	29841.83
651.96	29860.55
652.10	29593.73
652.25	29270.74
652.39	29340.96
652.54	29394.79
652.68	29158.39
652.83	29706.08
652.97	29584.37
653.12	29476.71
653.26	29633.52
653.41	29645.23
653.55	29186.48
653.70	29324.57
653.84	29666.29
653.99	29275.42
654.13	29064.77
654.27	29537.56
654.42	29228.61
654.56	29200.52
654.71	29273.08
654.85	29130.31
655.00	29413.51
655.14	29415.85
655.29	29139.67
655.43	29174.78
655.57	28788.59
655.72	28959.45
655.86	29268.40
656.01	29078.82
656.15	29144.35
656.30	29237.97
656.44	28720.71
656.58	28865.83
656.73	29371.38
656.87	29020.30
657.01	28402.40
657.16	29071.79
657.30	28952.43
657.45	28882.21
657.59	28830.72
657.73	28428.15
657.88	28507.72
658.02	28643.48
658.16	28931.36
658.31	29179.46
658.45	28800.29
658.60	28727.74
658.74	28538.15
658.88	28346.23
659.03	28830.72
659.17	28467.94
659.31	28395.38
659.46	28292.40
659.60	28507.72
659.74	28095.79
659.89	28212.82
660.03	28425.81
660.17	28219.84
660.32	28058.34
660.46	28444.53
660.60	27559.81
660.74	28098.13
660.89	28154.30
661.03	27941.32
661.17	28151.96
661.32	27880.46
661.46	28187.07
661.60	28339.21
661.74	27899.19
661.89	27627.68
662.03	27587.89
662.17	27871.10
662.31	27695.56
662.46	27562.15
662.60	27761.09
662.74	27852.38
662.88	27924.93
663.03	27765.78
663.17	27503.64
663.31	27370.22
663.45	27566.83
663.60	27513.00
663.74	27627.68
663.88	27199.37
664.02	27229.79
664.17	27435.76
664.31	27187.66
664.45	27080.00
664.59	27152.55
664.73	27072.98
664.88	27208.73
665.02	26939.57
665.16	26965.31
665.30	27171.28
665.44	26881.05
665.59	26478.48
665.73	26752.32
665.87	26628.27
666.01	26771.05
666.15	26962.97
666.29	26642.32
666.44	26551.04
666.58	26529.97
666.72	26284.22
666.86	26801.47
667.00	26670.40
667.14	26469.12
667.28	26253.79
667.43	26522.95
667.57	26305.28
667.71	26497.20
667.85	26307.62
667.99	26328.69
668.13	26274.85
668.27	26031.44
668.41	26284.22
668.56	26089.95
668.70	25806.75
668.84	25982.29
668.98	25577.37
669.12	25862.92
669.26	25336.30
669.40	25930.80
669.54	25577.37
669.68	25493.12
669.82	25617.16
669.96	25811.43
670.10	25614.82
670.25	25671.00
670.39	25399.49
670.53	25149.06
670.67	25429.92
670.81	25301.19
670.95	25273.10
671.09	25326.94
671.23	25287.15
671.37	25329.28
671.51	25296.51
671.65	25326.94
671.79	25135.01
671.93	25008.62
672.07	25125.65
672.21	24996.92
672.35	24978.20
672.49	24795.64
672.63	24910.32
672.77	24968.84
672.91	24905.64
673.05	24692.65
673.19	24411.79
673.33	24322.85
673.47	23878.15
673.61	24357.96
673.75	24336.89
673.89	24496.05
674.03	24217.52
674.17	24210.50
674.31	24362.64
674.45	24240.93
674.59	24339.23
674.73	24301.78
674.87	23817.29
675.01	23651.11
675.15	23522.38
675.29	23901.55
675.43	23634.73
675.56	23498.98
675.70	23623.03
675.84	23506.00
675.98	22324.03
676.12	22972.36
676.26	23311.74
676.40	23393.65
676.54	23353.87
676.68	23293.01
676.82	22916.19
676.96	23346.84
677.10	22937.25
677.23	23014.49
677.37	23091.73
677.51	22707.88
677.65	22904.48
677.79	22689.15
677.93	22197.64
678.07	22209.34
678.21	22101.68
678.34	22272.54
678.48	22225.73
678.62	22148.49
678.76	22199.98
678.90	22118.06
679.04	22401.27
679.18	22148.49
679.31	21989.33
679.45	21944.86
679.59	21989.33
679.73	22129.77
679.87	21912.10
680.00	21671.02
680.14	21785.71
680.28	21598.46
680.42	21610.17
680.56	21500.16
680.70	21312.92
680.83	21446.33
680.97	21261.43
681.11	21380.79
681.25	21006.31
681.39	21219.30
681.52	20950.14
681.66	21097.59
681.80	21062.48
681.94	20854.17
682.07	20664.59
682.21	20926.73
682.35	20856.51
682.49	20575.65
682.62	20683.31
682.76	20262.02
682.90	19992.86
683.04	20306.49
683.17	19969.45
683.31	20535.86
683.45	20257.34
683.59	20053.71
683.72	20451.60
683.86	20053.71
684.00	19798.59
684.13	19697.95
684.27	20042.01
684.41	19763.48
684.55	19286.01
684.68	19599.65
684.82	19456.87
684.96	19229.84
685.09	19583.26
685.23	19763.48
685.37	19583.26
685.50	19426.45
685.64	19381.98
685.78	19295.38
685.91	19176.01
686.05	18682.16
686.19	18721.95
686.32	19023.87
686.46	18609.60
686.60	18991.11
686.73	18434.06
686.87	18759.39
687.01	18686.84
687.14	18567.47
687.28	18700.88
687.42	18530.02
687.55	18448.10
687.69	18288.95
687.82	18146.17
687.96	18036.17
688.10	18223.41
688.23	18246.82
688.37	18277.24
688.50	17855.95
688.64	17776.37
688.78	18101.70
688.91	18017.44
689.05	17607.85
689.18	17537.63
689.32	17167.83
689.46	17706.15
689.59	17284.86
689.73	17319.96
689.86	17685.09
690.00	17268.47
690.13	17219.32
690.27	17151.45
690.41	16936.12
690.54	16870.58
690.68	16774.62
690.81	16971.22
690.95	17071.87
691.08	16973.56
691.22	16468.01
691.35	16313.53
691.49	16535.88
691.62	16411.84
691.76	16566.31
691.89	16397.79
692.03	16435.24
692.16	16507.80
692.30	16414.18
692.43	16339.28
692.57	15920.32
692.70	16205.87
692.84	16046.71
692.97	16035.01
693.11	15934.37
693.24	15660.52
693.38	15733.08
693.51	15704.99
693.65	15721.38
693.78	15482.64
693.92	15749.46
694.05	15494.35
694.19	15494.35
694.32	15475.62
694.45	15494.35
694.59	15660.52
694.72	14888.15
694.86	15133.90
694.99	14714.95
695.13	14904.53
695.26	14630.69
695.39	14597.92
695.53	14831.97
695.66	14841.34
695.80	14534.73
695.93	14642.39
696.07	14628.35
696.20	14427.06
696.33	14462.17
696.47	14356.85
696.60	14347.48
696.73	14490.26
696.87	14209.39
697.00	14087.68
697.14	13928.53
697.27	14284.29
697.40	13930.87
697.54	13951.93
697.67	13448.72
697.80	13689.79
697.94	13973.00
698.07	13558.72
698.21	13741.29
698.34	13518.93
698.47	13359.78
698.61	13378.50
698.74	13280.20
698.87	13493.19
699.01	13427.65
699.14	13357.44
699.27	13310.63
699.40	13261.48
699.54	13247.43
699.67	13331.69
699.80	13186.58
699.94	13008.70
700.07	12823.80
700.20	12297.17
700.34	12545.27
700.47	12664.64
700.60	12760.60
700.73	12840.18
700.87	12725.49
701.00	12608.47
701.13	12531.23
701.26	12161.42
701.40	12421.22
701.53	12241.00
701.66	12023.33
701.79	12266.75
701.93	12552.29
702.06	12453.99
702.19	11960.14
702.32	12161.42
702.46	11791.62
702.59	11705.02
702.72	11747.15
702.85	11641.82
702.99	11597.35
703.12	11412.45
703.25	11667.57
703.38	11557.57
703.51	11522.46
703.65	11747.15
703.78	11627.78
703.91	11489.69
704.04	11564.59
704.17	11548.20
704.31	11201.80
704.44	11133.93
704.57	11042.65
704.70	10949.03
704.83	10937.32
704.96	10860.09
705.10	10918.60
705.23	10853.06
>>>>>End Processed Spectral Data<<<<<
