SpectraSuite Data File
++++++++++++++++++++++++++++++++++++
Date: Thu Oct 24 13:21:09 EDT 2013
User: stostad
Dark Spectrum Present: No
Reference Spectrum Present: No
Number of Sampled Component Spectra: 1
Spectrometers: USB2+H05261
Integration Time (usec): 100000 (USB2+H05261)
Spectra Averaged: 1 (USB2+H05261)
Boxcar Smoothing: 0 (USB2+H05261)
Correct for Electrical Dark: No (USB2+H05261)
Strobe/Lamp Enabled: No (USB2+H05261)
Correct for Detector Non-linearity: No (USB2+H05261)
Correct for Stray Light: No (USB2+H05261)
Number of Pixels in Processed Spectrum: 2048
>>>>>Begin Processed Spectral Data<<<<<
365.73	521.94
365.92	521.94
366.12	521.94
366.32	475.13
366.52	440.02
366.72	470.45
366.91	451.72
367.11	381.51
367.31	468.11
367.51	493.85
367.70	423.64
367.90	533.64
368.10	442.36
368.30	414.27
368.49	493.85
368.69	433.00
368.89	517.26
369.09	545.34
369.28	470.45
369.48	528.96
369.68	484.49
369.87	531.30
370.07	486.83
370.27	540.66
370.47	552.37
370.66	695.14
370.86	741.95
371.06	763.01
371.25	716.20
371.45	727.91
371.65	723.23
371.84	788.76
372.04	732.59
372.24	763.01
372.44	779.40
372.63	800.46
372.83	732.59
373.03	819.19
373.22	739.61
373.42	805.14
373.62	816.85
373.81	805.14
374.01	807.48
374.21	788.76
374.40	791.10
374.60	837.91
374.79	821.53
374.99	847.27
375.19	791.10
375.38	777.06
375.58	779.40
375.78	793.44
375.97	812.17
376.17	795.78
376.37	805.14
376.56	842.59
376.76	767.70
376.95	814.51
377.15	830.89
377.35	770.04
377.54	861.32
377.74	786.42
377.93	795.78
378.13	835.57
378.33	868.34
378.52	849.61
378.72	816.85
378.91	816.85
379.11	844.93
379.31	889.40
379.50	772.38
379.70	858.98
379.89	880.04
380.09	833.23
380.28	875.36
380.48	903.45
380.68	826.21
380.87	795.78
381.07	828.55
381.26	844.93
381.46	922.17
381.65	863.66
381.85	910.47
382.04	819.19
382.24	828.55
382.43	877.70
382.63	940.90
382.83	931.53
383.02	952.60
383.22	868.34
383.41	903.45
383.61	922.17
383.80	898.77
384.00	917.49
384.19	933.87
384.39	940.90
384.58	926.85
384.78	854.30
384.97	912.81
385.17	917.49
385.36	971.32
385.56	884.72
385.75	966.64
385.95	896.43
386.14	950.26
386.34	964.30
386.53	964.30
386.72	915.15
386.92	903.45
387.11	931.53
387.31	950.26
387.50	891.74
387.70	891.74
387.89	891.74
388.09	976.00
388.28	980.68
388.48	1060.26
388.67	992.39
388.86	990.05
389.06	964.30
389.25	957.28
389.45	992.39
389.64	933.87
389.84	947.92
390.03	966.64
390.22	1027.50
390.42	1020.47
390.61	952.60
390.81	983.02
391.00	978.34
391.19	1011.11
391.39	980.68
391.58	997.07
391.78	1055.58
391.97	1055.58
392.16	1057.92
392.36	1118.78
392.55	1027.50
392.75	1083.67
392.94	964.30
393.13	1008.77
393.33	1057.92
393.52	1090.69
393.71	1043.88
393.91	1022.81
394.10	1069.62
394.29	1100.05
394.49	968.98
394.68	1027.50
394.88	1055.58
395.07	1102.39
395.26	1107.07
395.46	1069.62
395.65	1158.57
395.84	1062.60
396.04	1137.50
396.23	1097.71
396.42	1132.82
396.62	1107.07
396.81	1149.20
397.00	1165.59
397.19	1107.07
397.39	1198.35
397.58	1198.35
397.77	1111.75
397.97	1172.61
398.16	1137.50
398.35	1172.61
398.55	1135.16
398.74	1170.27
398.93	1320.06
399.12	1184.31
399.32	1142.18
399.51	1156.22
399.70	1205.38
399.90	1247.51
400.09	1217.08
400.28	1291.98
400.47	1207.72
400.67	1226.44
400.86	1280.27
401.05	1214.74
401.24	1242.82
401.44	1231.12
401.63	1341.13
401.82	1306.02
402.01	1273.25
402.21	1247.51
402.40	1350.49
402.59	1205.38
402.78	1303.68
402.97	1373.89
403.17	1399.64
403.36	1362.19
403.55	1380.92
403.74	1334.11
403.93	1380.92
404.13	1387.94
404.32	1437.09
404.51	1315.38
404.70	1411.34
404.89	1331.76
405.09	1376.24
405.28	1469.86
405.47	1348.15
405.66	1392.62
405.85	1341.13
406.05	1313.04
406.24	1378.58
406.43	1432.41
406.62	1467.52
406.81	1514.33
407.00	1448.79
407.20	1474.54
407.39	1542.41
407.58	1493.26
407.77	1502.62
407.96	1465.18
408.15	1544.75
408.34	1572.84
408.54	1563.48
408.73	1514.33
408.92	1495.60
409.11	1591.56
409.30	1591.56
409.49	1526.03
409.68	1565.82
409.87	1476.88
410.07	1586.88
410.26	1647.74
410.45	1511.99
410.64	1584.54
410.83	1607.95
411.02	1516.67
411.21	1710.93
411.40	1638.38
411.59	1661.78
411.78	1666.46
411.98	1661.78
412.17	1713.27
412.36	1792.85
412.55	1713.27
412.74	1799.87
412.93	1867.75
413.12	1764.76
413.31	1856.04
413.50	1776.47
413.69	1795.19
413.88	1832.64
414.07	1839.66
414.26	1792.85
414.45	1867.75
414.64	1832.64
414.83	1956.69
415.02	1923.92
415.22	1860.73
415.41	1942.64
415.60	1909.88
415.79	1970.73
415.98	1886.47
416.17	2040.95
416.36	1909.88
416.55	2054.99
416.74	1961.37
416.93	1991.80
417.12	1996.48
417.31	2036.27
417.50	1987.11
417.69	2155.63
417.88	2087.76
418.07	2076.06
418.26	2146.27
418.45	2136.91
418.64	2216.49
418.83	2092.44
419.02	2099.46
419.21	2169.68
419.39	2143.93
419.58	2113.50
419.77	2176.70
419.96	2136.91
420.15	2277.34
420.34	2141.59
420.53	2260.96
420.72	2307.77
420.91	2270.32
421.10	2342.88
421.29	2204.78
421.48	2195.42
421.67	2139.25
421.86	2232.87
422.05	2239.89
422.24	2251.60
422.43	2284.36
422.61	2251.60
422.80	2312.45
422.99	2291.38
423.18	2370.96
423.37	2291.38
423.56	2300.75
423.75	2204.78
423.94	2167.34
424.13	2228.19
424.32	2282.02
424.50	2298.41
424.69	2363.94
424.88	2246.91
425.07	2319.47
425.26	2253.94
425.45	2279.68
425.64	2392.03
425.83	2359.26
426.01	2190.74
426.20	2314.79
426.39	2321.81
426.58	2242.23
426.77	2342.88
426.96	2392.03
427.15	2352.24
427.33	2436.50
427.52	2373.30
427.71	2511.39
427.90	2396.71
428.09	2319.47
428.28	2420.11
428.46	2420.11
428.65	2534.80
428.84	2452.88
429.03	2480.97
429.22	2509.05
429.40	2527.78
429.59	2480.97
429.78	2422.45
429.97	2319.47
430.16	2537.14
430.34	2623.74
430.53	2640.12
430.72	2478.63
430.91	2597.99
431.10	2450.54
431.28	2642.46
431.47	2448.20
431.66	2588.63
431.85	2642.46
432.03	2717.36
432.22	2745.45
432.41	2686.94
432.60	2792.26
432.79	2691.62
432.97	2792.26
433.16	2644.81
433.35	2614.38
433.54	2712.68
433.72	2712.68
433.91	2647.15
434.10	2759.49
434.28	2806.30
434.47	2719.70
434.66	2679.91
434.85	2843.75
435.03	3009.93
435.22	3173.77
435.41	3304.84
435.59	3213.56
435.78	3091.85
435.97	3108.23
436.16	2972.48
436.34	2754.81
436.53	2839.07
436.72	2995.89
436.90	2834.39
437.09	2874.18
437.28	2839.07
437.46	2888.22
437.65	2867.16
437.84	2993.55
438.02	2906.95
438.21	2974.82
438.40	3094.19
438.58	3112.91
438.77	3150.36
438.96	2995.89
439.14	3070.78
439.33	3197.17
439.52	3187.81
439.70	3192.49
439.89	3150.36
440.08	3157.38
440.26	3094.19
440.45	3148.02
440.63	3232.28
440.82	3332.92
441.01	3253.34
441.19	3201.85
441.38	3262.71
441.57	3227.60
441.75	3267.39
441.94	3391.44
442.12	3281.43
442.31	3456.97
442.50	3356.33
442.68	3321.22
442.87	3382.07
443.05	3447.61
443.24	3475.70
443.43	3342.28
443.61	3471.01
443.80	3660.60
443.98	3339.94
444.17	3314.20
444.35	3400.80
444.54	3419.52
444.73	3487.40
444.91	3503.78
445.10	3482.72
445.28	3513.14
445.47	3496.76
445.65	3398.46
445.84	3590.38
446.02	3576.34
446.21	3522.51
446.39	3545.91
446.58	3527.19
446.77	3473.36
446.95	3552.93
447.14	3597.40
447.32	3524.85
447.51	3620.81
447.69	3466.33
447.88	3669.96
448.06	3531.87
448.25	3513.14
448.43	3597.40
448.62	3597.40
448.80	3623.15
448.99	3510.80
449.17	3541.23
449.36	3637.19
449.54	3602.08
449.73	3782.31
449.91	3655.92
450.10	3646.55
450.28	3742.52
450.46	3698.05
450.65	3698.05
450.83	3754.22
451.02	3779.97
451.20	3840.82
451.39	3700.39
451.57	3754.22
451.76	3709.75
451.94	3777.62
452.13	3796.35
452.31	3817.41
452.49	3812.73
452.68	3808.05
452.86	3826.78
453.05	3873.59
453.23	3920.40
453.42	3908.69
453.60	3861.88
453.78	3847.84
453.97	3810.39
454.15	3786.99
454.34	3925.08
454.52	4002.32
454.70	3999.98
454.89	3894.65
455.07	4014.02
455.26	4025.72
455.44	4109.98
455.62	4219.99
455.81	3992.95
455.99	4131.05
456.17	3990.61
456.36	4184.88
456.54	4212.96
456.73	4175.52
456.91	4339.35
457.09	4121.68
457.28	4304.25
457.46	4105.30
457.64	4208.28
457.83	4241.05
458.01	4224.67
458.19	4264.46
458.38	4404.89
458.56	4351.06
458.74	4390.84
458.93	4337.01
459.11	4311.27
459.29	4442.34
459.48	4257.43
459.66	4465.74
459.84	4395.53
460.03	4454.04
460.21	4397.87
460.39	4416.59
460.57	4411.91
460.76	4491.49
460.94	4463.40
461.12	4554.68
461.31	4458.72
461.49	4400.21
461.67	4409.57
461.85	4533.62
462.04	4557.02
462.22	4809.80
462.40	4587.45
462.59	4573.41
462.77	4697.46
462.95	4594.47
463.13	4695.11
463.32	4629.58
463.50	4641.28
463.68	4732.56
463.86	4688.09
464.05	4376.80
464.23	4531.28
464.41	4676.39
464.59	4578.09
464.78	4683.41
464.96	4739.58
465.14	4734.90
465.32	4748.95
465.50	4720.86
465.69	4865.97
465.87	4753.63
466.05	4718.52
466.23	4819.16
466.41	4681.07
466.60	4685.75
466.78	4788.74
466.96	4774.69
467.14	4793.42
467.32	4968.96
467.51	5043.85
467.69	4849.59
467.87	4971.30
468.05	4905.76
468.23	4964.28
468.41	4786.40
468.60	4882.36
468.78	4961.94
468.96	4964.28
469.14	4912.78
469.32	5011.09
469.50	4961.94
469.69	5137.48
469.87	5034.49
470.05	5188.97
470.23	5266.21
470.41	5083.64
470.59	5256.84
470.77	5158.54
470.95	5205.35
471.14	5282.59
471.32	5027.47
471.50	5263.86
471.68	5284.93
471.86	5294.29
472.04	5406.64
472.22	5469.83
472.40	5226.42
472.58	5195.99
472.77	5577.50
472.95	5509.62
473.13	5523.66
473.31	5437.06
473.49	5652.39
473.67	5479.19
473.85	5516.64
474.03	5523.66
474.21	5392.59
474.39	5495.58
474.57	5673.46
474.75	5734.31
474.93	5664.10
475.12	5636.01
475.30	5788.14
475.48	5816.23
475.66	5816.23
475.84	5795.17
476.02	5771.76
476.20	5757.72
476.38	5825.59
476.56	6284.34
476.74	6059.65
476.92	5954.32
477.10	6024.54
477.28	6228.17
477.46	6136.88
477.64	6155.61
477.82	6047.94
478.00	6324.13
478.18	6490.31
478.36	6415.41
478.54	6394.34
478.72	6436.47
478.90	6523.07
479.08	6679.89
479.26	6691.59
479.44	6675.21
479.62	6633.08
479.80	6691.59
479.98	6808.62
480.16	6909.26
480.34	6876.49
480.52	6736.06
480.70	6979.48
480.88	6810.96
481.06	6925.65
481.24	6899.90
481.41	7012.24
481.59	7293.11
481.77	7208.85
481.95	7363.33
482.13	7363.33
482.31	7541.21
482.49	7445.24
482.67	7417.16
482.85	7611.42
483.03	7777.60
483.21	7541.21
483.39	7672.28
483.57	7726.11
483.74	7868.88
483.92	7887.61
484.10	7791.64
484.28	7705.04
484.46	8063.15
484.64	8219.96
484.82	8065.49
485.00	8430.61
485.18	8470.40
485.35	8482.10
485.53	8463.38
485.71	8486.78
485.89	8484.44
486.07	8580.40
486.25	8521.89
486.43	8634.24
486.61	8671.68
486.78	8802.75
486.96	8933.82
487.14	9032.13
487.32	8950.21
487.50	9128.09
487.68	9008.72
487.85	9231.07
488.03	9303.63
488.21	9284.91
488.39	9509.60
488.57	9392.57
488.75	9502.58
488.92	9619.60
489.10	9626.62
489.28	9729.61
489.46	9912.17
489.64	9771.74
489.81	9891.10
489.99	9926.21
490.17	9951.96
490.35	10183.67
490.53	10097.07
490.70	10242.18
490.88	10066.64
491.06	10361.55
491.24	10230.48
491.41	10551.14
491.59	10441.13
491.77	10494.96
491.95	10621.35
492.13	10628.37
492.30	10780.51
492.48	10633.05
492.66	10761.78
492.84	10848.38
493.01	10909.24
493.19	10934.98
493.37	11159.67
493.54	11028.60
493.72	11119.89
493.90	11318.83
494.08	11232.23
494.25	11482.67
494.43	11545.86
494.61	11363.30
494.79	11618.42
494.96	11396.07
495.14	11791.62
495.32	12037.38
495.49	11822.05
495.67	11786.94
495.85	11857.15
496.02	12107.59
496.20	11861.84
496.38	12116.95
496.55	12006.95
496.73	12297.17
496.91	12343.99
497.09	12292.49
497.26	12112.27
497.44	12318.24
497.62	12425.90
497.79	12491.44
497.97	12400.16
498.14	12624.85
498.32	12748.90
498.50	12737.20
498.67	12753.58
498.85	12826.14
499.03	12751.24
499.20	12903.37
499.38	12854.22
499.56	12952.52
499.73	13032.10
499.91	13116.36
500.08	12917.42
500.26	12978.27
500.44	13088.28
500.61	13369.14
500.79	13486.17
500.97	13357.44
501.14	13537.66
501.32	13605.53
501.49	13610.22
501.67	13640.64
501.84	13774.05
502.02	13680.43
502.20	13467.44
502.37	13518.93
502.55	13582.13
502.72	13708.52
502.90	13975.34
503.07	13886.40
503.25	13830.23
503.43	13879.38
503.60	14094.71
503.78	13907.46
503.95	13902.78
504.13	14160.24
504.30	14183.65
504.48	14125.13
504.65	14237.48
504.83	14815.59
505.01	14523.02
505.18	14375.57
505.36	14654.09
505.53	14705.59
505.71	14642.39
505.88	14860.06
506.06	14626.01
506.23	14820.27
506.41	14647.07
506.58	14771.12
506.76	14663.46
506.93	14752.40
507.11	14937.30
507.28	14867.08
507.46	15035.60
507.63	15037.94
507.81	14876.44
507.98	14853.04
508.16	15075.39
508.33	15145.61
508.50	15154.97
508.68	15318.81
508.85	15499.03
509.03	15321.15
509.20	15480.30
509.38	15667.55
509.55	15665.21
509.73	15976.50
509.90	15733.08
510.08	15796.28
510.25	15445.20
510.42	15639.46
510.60	15499.03
510.77	16020.97
510.95	16058.42
511.12	15871.17
511.30	15981.18
511.47	16025.65
511.64	16018.63
511.82	16348.64
511.99	16145.02
512.17	16107.57
512.34	15927.35
512.51	16292.47
512.69	16528.86
512.86	16219.91
513.04	16421.20
513.21	16233.96
513.38	16262.04
513.56	16486.73
513.73	16601.42
513.90	16596.74
514.08	16339.28
514.25	16709.08
514.43	16620.14
514.60	16980.59
514.77	16664.61
514.95	16940.80
515.12	16594.40
515.29	16847.18
515.47	17156.13
515.64	16936.12
515.81	16807.39
515.99	17160.81
516.16	16933.78
516.33	17130.38
516.51	17144.42
516.68	17174.85
516.85	17422.95
517.03	17434.65
517.20	17179.53
517.37	17247.41
517.54	17579.76
517.72	17216.98
517.89	17259.11
518.06	17467.42
518.24	17303.58
518.41	17195.92
518.58	17385.50
518.75	17345.71
518.93	17467.42
519.10	17252.09
519.27	17334.01
519.45	17692.11
519.62	17879.35
519.79	17799.77
519.96	17614.87
520.14	17750.62
520.31	17806.80
520.48	17949.57
520.65	18146.17
520.83	18033.83
521.00	18300.65
521.17	17848.93
521.34	18001.06
521.52	17933.18
521.69	17944.89
521.86	18331.08
522.03	18064.25
522.20	18228.09
522.38	18466.83
522.55	18295.97
522.72	18424.70
522.89	18391.93
523.07	18665.77
523.24	18403.63
523.41	18654.07
523.58	18408.31
523.75	18845.99
523.92	18530.02
524.10	18698.54
524.27	18874.08
524.44	18850.67
524.61	18696.20
524.78	18684.50
524.96	18956.00
525.13	18862.38
525.30	18939.62
525.47	19054.30
525.64	18895.14
525.81	19075.37
525.98	19136.22
526.16	18918.55
526.33	18857.70
526.50	19042.60
526.67	19108.13
526.84	19176.01
527.01	18970.04
527.18	19499.00
527.36	19091.75
527.53	19274.31
527.70	19396.02
527.87	19262.61
528.04	19143.24
528.21	19702.63
528.38	19281.33
528.55	19506.02
528.72	19405.38
528.89	19435.81
529.07	19480.28
529.24	19641.78
529.41	19599.65
529.58	19625.39
529.75	19604.33
529.92	19859.45
530.09	19817.32
530.26	19857.10
530.43	19782.21
530.60	19662.84
530.77	19756.46
530.94	19843.06
531.11	19936.68
531.28	20224.57
531.46	19929.66
531.63	20074.77
531.80	19866.47
531.97	19880.51
532.14	20233.93
532.31	20191.80
532.48	19943.70
532.65	20369.68
532.82	20070.09
532.99	20390.75
533.16	20175.42
533.33	20271.38
533.50	20636.50
533.67	20301.81
533.84	20215.21
534.01	20601.40
534.18	20240.95
534.35	20788.64
534.52	20484.37
534.69	20599.05
534.86	20453.94
535.03	20343.94
535.20	20278.40
535.37	20748.85
535.54	20760.55
535.71	20608.42
535.88	20603.74
536.05	20666.93
536.22	20634.16
536.38	20678.63
536.55	20336.91
536.72	21263.77
536.89	20592.03
537.06	21106.95
537.23	21003.97
537.40	20718.42
537.57	21003.97
537.74	20788.64
537.91	21256.75
538.08	21018.01
538.25	20882.26
538.42	21266.11
538.59	21516.54
538.75	21490.80
538.92	21394.84
539.09	21085.89
539.26	21280.15
539.43	21167.80
539.60	21453.35
539.77	21598.46
539.94	21565.70
540.11	21532.93
540.28	21291.85
540.44	21617.19
540.61	21427.60
540.78	21343.35
540.95	21603.14
541.12	22054.87
541.29	21816.13
541.46	21841.88
541.62	22183.60
541.79	22026.78
541.96	22146.15
542.13	22029.12
542.30	21968.27
542.47	22010.40
542.63	22073.59
542.80	22111.04
542.97	22408.29
543.14	22675.11
543.31	22232.75
543.48	22321.69
543.64	22328.71
543.81	22480.85
543.98	22422.33
544.15	22293.60
544.32	22518.29
544.48	22541.70
544.65	22272.54
544.82	22527.66
544.99	22412.97
545.16	22860.01
545.32	22490.21
545.49	22904.48
545.66	23557.49
545.83	23620.69
546.00	23655.79
546.16	23262.58
546.33	23007.47
546.50	22918.53
546.67	22733.62
546.83	22478.50
547.00	22555.74
547.17	22092.32
547.34	22525.32
547.50	22712.56
547.67	22684.47
547.84	22574.47
548.00	22712.56
548.17	22813.20
548.34	22761.71
548.51	22693.83
548.67	22602.55
548.84	22391.91
549.01	22672.77
549.18	23105.77
549.34	22979.38
549.51	22815.54
549.68	22813.20
549.84	22792.14
550.01	22691.49
550.18	22387.22
550.34	22752.35
550.51	22750.01
550.68	22630.64
550.84	22864.69
551.01	22897.46
551.18	22876.40
551.34	22459.78
551.51	22700.86
551.68	22700.86
551.84	23063.64
552.01	23070.66
552.18	22864.69
552.34	23257.90
552.51	23047.26
552.68	22974.70
552.84	23019.17
553.01	22892.78
553.18	23440.47
553.34	23187.69
553.51	23227.48
553.67	23194.71
553.84	23248.54
554.01	23344.50
554.17	23271.95
554.34	23269.61
554.51	23246.20
554.67	23180.67
554.84	23267.27
555.00	23061.30
555.17	22963.00
555.33	22829.59
555.50	23096.41
555.67	23264.92
555.83	23414.72
556.00	23185.35
556.16	23676.86
556.33	23274.29
556.50	23412.38
556.66	23307.05
556.83	23473.23
556.99	23227.48
557.16	23571.54
557.32	23517.70
557.49	23218.11
557.65	23016.83
557.82	23524.72
557.98	23328.12
558.15	23463.87
558.32	23410.04
558.48	23721.33
558.65	23786.86
558.81	23950.70
558.98	23388.97
559.14	23281.31
559.31	23843.04
559.47	23569.19
559.64	23981.13
559.80	23702.61
559.97	23377.27
560.13	23295.35
560.30	23580.90
560.46	23571.54
560.63	24027.94
560.79	23878.15
560.96	23831.33
561.12	23590.26
561.29	23726.01
561.45	23700.26
561.61	23836.02
561.78	23805.59
561.94	23587.92
562.11	23910.91
562.27	23583.24
562.44	24063.05
562.60	23817.29
562.77	23740.05
562.93	24203.48
563.10	23997.51
563.26	23716.65
563.42	24009.22
563.59	24023.26
563.75	23754.10
563.92	23976.45
564.08	23819.63
564.24	24037.30
564.41	23953.04
564.57	24130.92
564.74	24058.37
564.90	24006.87
565.07	24271.36
565.23	24353.27
565.39	24156.67
565.56	23847.72
565.72	23892.19
565.88	24334.55
566.05	23693.24
566.21	24051.34
566.38	23901.55
566.54	24299.44
566.70	24215.18
566.87	24156.67
567.03	23639.41
567.19	24128.58
567.36	24308.80
567.52	23850.06
567.68	23742.39
567.85	23892.19
568.01	23894.53
568.17	23960.06
568.34	24231.57
568.50	24149.65
568.66	24077.09
568.83	24306.46
568.99	24126.24
569.15	24112.20
569.32	24079.43
569.48	23854.74
569.64	24254.97
569.81	24100.50
569.97	24353.27
570.13	23978.79
570.30	23995.17
570.46	24355.61
570.62	24032.62
570.78	24149.65
570.95	24236.25
571.11	24409.45
571.27	24285.40
571.43	23899.21
571.60	24203.48
571.76	24205.82
571.92	24329.87
572.09	24175.39
572.25	24386.04
572.41	24208.16
572.57	24479.66
572.74	24435.19
572.90	24173.05
573.06	24142.63
573.22	24056.03
573.38	24233.91
573.55	24486.68
573.71	24285.40
573.87	24446.90
574.03	24264.33
574.20	24290.08
574.36	24240.93
574.52	24491.37
574.68	24203.48
574.84	24287.74
575.01	24261.99
575.17	24563.92
575.33	24151.99
575.49	24680.95
575.65	24397.74
575.82	24388.38
575.98	24453.92
576.14	24451.58
576.30	24407.11
576.46	24404.77
576.62	24360.30
576.79	24528.81
576.95	24343.91
577.11	24753.51
577.27	24023.26
577.43	24666.91
577.59	24631.80
577.75	24194.12
577.92	24264.33
578.08	24439.87
578.24	24566.26
578.40	24332.21
578.56	24535.84
578.72	24627.12
578.88	24790.95
579.04	24760.53
579.21	24482.00
579.37	24748.82
579.53	24540.52
579.69	24376.68
579.85	24662.22
580.01	24730.10
580.17	24800.32
580.33	24533.50
580.49	24292.42
580.65	24489.03
580.82	24269.01
580.98	24149.65
581.14	24559.24
581.30	24482.00
581.46	24463.28
581.62	24294.76
581.78	24294.76
581.94	24147.31
582.10	24159.01
582.26	24355.61
582.42	24603.71
582.58	24034.96
582.74	24503.07
582.90	24570.94
583.06	24645.84
583.22	24446.90
583.38	24617.75
583.54	24622.44
583.70	24636.48
583.86	24622.44
584.02	24659.88
584.18	24559.24
584.34	24645.84
584.50	24706.70
584.66	24292.42
584.82	24430.51
584.98	24669.25
585.14	24596.69
585.30	24636.48
585.46	24463.28
585.62	24437.53
585.78	24671.59
585.94	24430.51
586.10	24486.68
586.26	24526.47
586.42	24994.58
586.58	24577.97
586.74	24699.67
586.90	24687.97
587.06	24531.15
587.22	25076.50
587.38	24844.79
587.54	24929.05
587.70	25097.56
587.86	24655.20
588.02	24833.08
588.18	25177.14
588.34	24861.17
588.49	25076.50
588.65	24676.27
588.81	24577.97
588.97	24655.20
589.13	24783.93
589.29	24744.14
589.45	24575.62
589.61	24734.78
589.77	24893.94
589.93	24903.30
590.08	24538.18
590.24	24758.19
590.40	24837.76
590.56	25069.48
590.72	24477.32
590.88	24348.59
591.04	24636.48
591.20	24870.53
591.35	24875.21
591.51	24966.49
591.67	25142.03
591.83	24868.19
591.99	25348.00
592.15	24772.23
592.31	24561.58
592.46	24793.29
592.62	24985.22
592.78	24786.27
592.94	25340.98
593.10	24896.28
593.26	25025.01
593.41	25139.69
593.57	24767.55
593.73	24826.06
593.89	24950.11
594.05	24655.20
594.20	24819.04
594.36	24805.00
594.52	24737.12
594.68	24570.94
594.84	25085.86
594.99	24868.19
595.15	24741.80
595.31	24922.02
595.47	24599.03
595.62	24968.84
595.78	24851.81
595.94	24662.22
596.10	24790.95
596.25	24858.83
596.41	24861.17
596.57	24844.79
596.73	24774.57
596.88	24627.12
597.04	24641.16
597.20	24510.09
597.36	24844.79
597.51	24933.73
597.67	24790.95
597.83	24821.38
597.99	24716.06
598.14	25048.41
598.30	25109.27
598.46	24800.32
598.61	24720.74
598.77	24776.91
598.93	25092.88
599.09	24758.19
599.24	25230.98
599.40	25083.52
599.56	25001.60
599.71	24950.11
599.87	24917.34
600.03	24971.18
600.18	24769.89
600.34	24795.64
600.50	24891.60
600.65	24631.80
600.81	25074.16
600.97	24980.54
601.12	25144.38
601.28	25177.14
601.44	24992.24
601.59	24868.19
601.75	24870.53
601.91	24915.00
602.06	24744.14
602.22	24994.58
602.37	24767.55
602.53	24636.48
602.69	24950.11
602.84	25170.12
603.00	25036.71
603.16	25053.09
603.31	25106.93
603.47	24793.29
603.62	24573.28
603.78	24854.15
603.94	24912.66
604.09	25022.67
604.25	24568.60
604.40	24821.38
604.56	24933.73
604.71	25195.87
604.87	24765.21
605.03	24802.66
605.18	24903.30
605.34	24673.93
605.49	24589.67
605.65	24999.26
605.80	24570.94
605.96	24886.92
606.12	25102.25
606.27	25223.95
606.43	24957.13
606.58	24875.21
606.74	24730.10
606.89	24940.75
607.05	24739.46
607.20	24584.99
607.36	24390.72
607.51	24463.28
607.67	24800.32
607.82	24786.27
607.98	25025.01
608.13	24938.41
608.29	24957.13
608.44	24608.39
608.60	24781.59
608.75	25081.18
608.91	25003.94
609.06	24926.71
609.22	24812.02
609.37	24793.29
609.53	24652.86
609.68	24865.85
609.84	24713.72
609.99	24959.47
610.15	24599.03
610.30	25139.69
610.46	25137.35
610.61	25228.63
610.76	25502.48
610.92	25727.17
611.07	25975.27
611.23	25839.51
611.38	25790.36
611.54	25926.11
611.69	25785.68
611.84	25916.75
612.00	25544.61
612.15	25219.27
612.31	25165.44
612.46	24980.54
612.62	24702.01
612.77	24858.83
612.92	25158.42
613.08	24709.04
613.23	24734.78
613.39	24751.17
613.54	24725.42
613.69	24758.19
613.85	24809.68
614.00	24907.98
614.15	24961.81
614.31	24812.02
614.46	25062.46
614.62	24737.12
614.77	24627.12
614.92	24774.57
615.08	24306.46
615.23	24474.98
615.38	24510.09
615.54	23999.85
615.69	24147.31
615.84	24346.25
616.00	24280.72
616.15	24201.14
616.30	24425.83
616.46	24056.03
616.61	23667.50
616.76	23693.24
616.92	24119.22
617.07	24154.33
617.22	23924.96
617.37	24023.26
617.53	24079.43
617.68	24477.32
617.83	24273.70
617.99	24154.33
618.14	24182.42
618.29	23880.49
618.45	23817.29
618.60	24077.09
618.75	23955.38
618.90	23924.96
619.06	23992.83
619.21	23976.45
619.36	23873.46
619.51	23793.89
619.67	23709.63
619.82	23260.24
619.97	23777.50
620.12	23953.04
620.28	23803.25
620.43	23882.83
620.58	23894.53
620.73	23934.32
620.89	24002.19
621.04	23875.80
621.19	24065.39
621.34	23772.82
621.49	23447.49
621.65	23658.14
621.80	23730.69
621.95	23683.88
622.10	23726.01
622.25	23634.73
622.41	23559.83
622.56	23730.69
622.71	23730.69
622.86	23529.41
623.01	23681.54
623.16	23756.44
623.32	23438.12
623.47	23344.50
623.62	23613.66
623.77	23630.05
623.92	23545.79
624.07	23517.70
624.23	23634.73
624.38	23442.81
624.53	23541.11
624.68	23573.88
624.83	23229.82
624.98	23140.88
625.13	23239.18
625.29	23358.55
625.44	23531.75
625.59	23513.02
625.74	23461.53
625.89	23501.32
626.04	23379.61
626.19	23262.58
626.34	23056.62
626.49	22913.84
626.65	23117.47
626.80	22998.10
626.95	22899.80
627.10	23014.49
627.25	22991.08
627.40	23393.65
627.55	22789.80
627.70	23009.81
627.85	23021.51
628.00	22927.89
628.15	22986.40
628.30	22963.00
628.45	22941.93
628.60	22820.22
628.76	22796.82
628.91	22808.52
629.06	22616.60
629.21	22864.69
629.36	22822.56
629.51	22586.17
629.66	22890.44
629.81	22698.52
629.96	22670.43
630.11	22684.47
630.26	22944.27
630.41	23021.51
630.56	22817.88
630.71	22803.84
630.86	22876.40
631.01	22937.25
631.16	22995.76
631.31	22771.07
631.46	22553.40
631.61	22939.59
631.76	22640.00
631.91	22415.31
632.06	22679.79
632.21	22581.49
632.36	22478.50
632.51	22424.67
632.66	22583.83
632.81	21891.03
632.96	22471.48
633.10	22459.78
633.25	22640.00
633.40	22162.53
633.55	22216.36
633.70	22106.36
633.85	22267.86
634.00	22242.11
634.15	22471.48
634.30	22471.48
634.45	22434.03
634.60	22328.71
634.75	22462.12
634.90	22508.93
635.05	22632.98
635.19	22183.60
635.34	22132.11
635.49	22153.17
635.64	22071.25
635.79	22176.58
635.94	21816.13
636.09	22043.17
636.24	22216.36
636.39	22057.21
636.53	22199.98
636.68	21813.79
636.83	22073.59
636.98	22106.36
637.13	22139.13
637.28	22054.87
637.43	22113.38
637.57	21984.65
637.72	21947.20
637.87	21902.73
638.02	21914.44
638.17	21830.18
638.32	21736.56
638.46	21694.43
638.61	21514.20
638.76	21614.85
638.91	22223.39
639.06	21942.52
639.20	22099.34
639.35	21750.60
639.50	21923.80
639.65	22050.19
639.80	21289.51
639.94	21649.96
640.09	21685.06
640.24	21596.12
640.39	21479.10
640.54	21823.16
640.68	21727.19
640.83	21844.22
640.98	21469.73
641.13	21041.42
641.27	21708.47
641.42	21364.41
641.57	21476.76
641.72	21699.11
641.86	21556.33
642.01	21170.15
642.16	21137.38
642.31	21371.43
642.45	21869.97
642.60	21193.55
642.75	21518.89
642.90	21530.59
643.04	21376.11
643.19	21305.90
643.34	21376.11
643.48	21823.16
643.63	21561.02
643.78	21448.67
643.93	21315.26
644.07	21092.91
644.22	21273.13
644.37	20702.04
644.51	21172.49
644.66	21130.36
644.81	21490.80
644.95	21144.40
645.10	21591.44
645.25	21263.77
645.39	21205.25
645.54	21097.59
645.69	21050.78
645.83	21149.08
645.98	21167.80
646.13	21408.88
646.27	21156.10
646.42	21259.09
646.57	21207.59
646.71	21078.86
646.86	20975.88
647.00	21249.72
647.15	21448.67
647.30	20819.07
647.44	21034.39
647.59	20898.64
647.74	21193.55
647.88	21062.48
648.03	20872.90
648.17	21226.32
648.32	20594.37
648.47	21050.78
648.61	20683.31
648.76	21008.65
648.90	21106.95
649.05	20767.57
649.20	20767.57
649.34	21064.82
649.49	20922.05
649.63	20947.79
649.78	20924.39
649.92	20800.34
650.07	20798.00
650.21	20603.74
650.36	20755.87
650.51	20877.58
650.65	20664.59
650.80	20812.04
650.94	20755.87
651.09	20886.94
651.23	20383.73
651.38	20781.62
651.52	20634.16
651.67	20966.52
651.81	20872.90
651.96	20507.77
652.10	20725.44
652.25	20521.82
652.39	20570.97
652.54	20383.73
652.68	20159.03
652.83	20365.00
652.97	20648.21
653.12	20826.09
653.26	20315.85
653.41	20994.61
653.55	20662.25
653.70	20664.59
653.84	20224.57
653.99	20271.38
654.13	20353.30
654.27	20372.02
654.42	20627.14
654.56	20166.06
654.71	20187.12
654.85	20500.75
655.00	20467.98
655.14	20046.69
655.29	19840.72
655.43	20388.41
655.57	20255.00
655.72	20140.31
655.86	20161.37
656.01	20196.48
656.15	20166.06
656.30	20123.93
656.44	20147.33
656.58	20079.46
656.73	20013.92
656.87	19754.12
657.01	19791.57
657.16	19997.54
657.30	19747.10
657.45	19997.54
657.59	20194.14
657.73	19948.39
657.88	20264.36
658.02	20142.65
658.16	19894.55
658.31	19786.89
658.45	19796.25
658.60	19573.90
658.74	19784.55
658.88	19922.64
659.03	20121.59
659.17	19541.13
659.31	19466.24
659.46	19501.34
659.60	19735.40
659.74	19688.59
659.89	19548.15
660.03	19414.74
660.17	19627.73
660.32	19791.57
660.46	19611.35
660.60	19482.62
660.74	19529.43
660.89	19225.16
661.03	19704.97
661.17	19768.16
661.32	19517.73
661.46	19274.31
661.60	19742.42
661.74	19365.59
661.89	19520.07
662.03	19070.68
662.17	19080.05
662.31	19056.64
662.46	19124.52
662.60	18991.11
662.74	19108.13
662.88	19185.37
663.03	19262.61
663.17	19145.58
663.31	19379.64
663.45	19213.46
663.60	19314.10
663.74	18853.02
663.88	19084.73
664.02	18967.70
664.17	18696.20
664.31	18719.60
664.45	18504.28
664.59	18539.38
664.73	18366.18
664.88	18635.35
665.02	18747.69
665.16	18845.99
665.30	18717.26
665.44	18754.71
665.59	18670.45
665.73	18501.93
665.87	18670.45
666.01	18312.35
666.15	18431.72
666.29	18190.64
666.44	18305.33
666.58	18178.94
666.72	17977.65
666.86	18148.51
667.00	18207.03
667.14	18328.74
667.28	18298.31
667.43	18169.58
667.57	18160.22
667.71	18553.43
667.85	18328.74
667.99	18171.92
668.13	18389.59
668.27	18211.71
668.41	18204.69
668.56	17881.69
668.70	18071.28
668.84	18033.83
668.98	17516.57
669.12	17972.97
669.26	17654.66
669.40	17628.92
669.54	17865.31
669.68	17980.00
669.82	17848.93
669.96	17921.48
670.10	17841.90
670.25	17624.23
670.39	17905.10
670.53	17490.82
670.67	17586.79
670.81	17666.36
670.95	17790.41
671.09	17600.83
671.23	17261.45
671.37	17638.28
671.51	17757.64
671.65	17481.46
671.79	17357.41
671.93	17102.29
672.07	17315.28
672.21	17247.41
672.35	17034.42
672.49	17085.91
672.63	17088.25
672.77	17172.51
672.91	17041.44
673.05	17046.12
673.19	16783.98
673.33	16744.19
673.47	16762.92
673.61	16678.66
673.75	16739.51
673.89	16678.66
674.03	16760.58
674.17	16898.67
674.31	16664.61
674.45	16877.60
674.59	16807.39
674.73	16690.36
674.87	16863.56
675.01	16201.19
675.15	16418.86
675.29	16727.81
675.43	16800.37
675.56	16360.34
675.70	16266.72
675.84	16252.68
675.98	15882.88
676.12	16243.32
676.26	16285.45
676.40	16212.89
676.54	16643.55
676.68	16173.10
676.82	15864.15
676.96	16095.86
677.10	16072.46
677.23	15896.92
677.37	16196.51
677.51	15829.04
677.65	15854.79
677.79	15580.95
677.93	15562.22
678.07	15527.11
678.21	15384.34
678.34	15627.76
678.48	15257.95
678.62	15201.78
678.76	15281.36
678.90	15272.00
679.04	15293.06
679.18	15180.71
679.31	14920.92
679.45	15042.62
679.59	14918.57
679.73	14995.81
679.87	15199.44
680.00	14775.80
680.14	14977.09
680.28	14895.17
680.42	14773.46
680.56	14728.99
680.70	14633.03
680.83	14642.39
680.97	14799.21
681.11	14703.25
681.25	14647.07
681.39	14600.26
681.52	14846.02
681.66	14555.79
681.80	14305.35
681.94	14424.72
682.07	14569.83
682.21	14548.77
682.35	14406.00
682.49	14295.99
682.62	14225.78
682.76	14132.15
682.90	14300.67
683.04	14001.08
683.17	13781.07
683.31	14225.78
683.45	13963.64
683.59	13788.10
683.72	13589.15
683.86	13729.58
684.00	13678.09
684.13	13790.44
684.27	13624.26
684.41	13469.78
684.55	13668.73
684.68	13460.42
684.82	13516.59
684.96	13228.71
685.09	13364.46
685.23	13413.61
685.37	13476.80
685.50	13369.14
685.64	13411.27
685.78	13301.26
685.91	13240.41
686.05	13111.68
686.19	13076.57
686.32	12877.63
686.46	12823.80
686.60	12732.51
686.73	13249.77
686.87	13151.47
687.01	13064.87
687.14	12664.64
687.28	12409.52
687.42	12430.59
687.55	12662.30
687.69	12477.40
687.82	12622.51
687.96	12709.11
688.10	12643.57
688.23	12744.22
688.37	12407.18
688.50	12166.10
688.64	12367.39
688.78	12496.12
688.91	12355.69
689.05	12276.11
689.18	11875.88
689.32	11878.22
689.46	11887.58
689.59	12116.95
689.73	12023.33
689.86	12161.42
690.00	12037.38
690.13	11995.25
690.27	11946.09
690.41	11808.00
690.54	11515.44
690.68	11538.84
690.81	11592.67
690.95	11812.68
691.08	11665.23
691.22	11461.60
691.35	11304.79
691.49	11520.12
691.62	11197.12
691.76	11583.31
691.89	11545.86
692.03	11489.69
692.16	11405.43
692.30	11129.25
692.43	11239.25
692.57	10878.81
692.70	11056.69
692.84	11154.99
692.97	11211.17
693.11	11225.21
693.24	10934.98
693.38	10635.39
693.51	10787.53
693.65	11075.42
693.78	10857.75
693.92	10780.51
694.05	10885.83
694.19	10899.87
694.32	10899.87
694.45	10878.81
694.59	10588.58
694.72	10359.21
694.86	10256.23
694.99	10270.27
695.13	10445.81
695.26	10033.88
695.39	10200.05
695.53	10410.70
695.66	10249.21
695.80	10094.73
695.93	10092.39
696.07	10178.99
696.20	10162.61
696.33	10221.12
696.47	10038.56
696.60	9916.85
696.73	9947.28
696.87	9872.38
697.00	9827.91
697.14	9837.27
697.27	9806.84
697.40	9689.82
697.54	9717.90
697.67	9446.40
697.80	9619.60
697.94	9654.71
698.07	9357.46
698.21	9455.76
698.34	9434.70
698.47	9411.29
698.61	9430.02
698.74	9184.26
698.87	9425.34
699.01	9291.93
699.14	9252.14
699.27	9301.29
699.40	9308.31
699.54	9315.33
699.67	9212.35
699.80	8957.23
699.94	8917.44
700.07	9015.74
700.20	8851.91
700.34	8844.88
700.47	8725.52
700.60	8725.52
700.73	8627.21
700.87	8786.37
701.00	8559.34
701.13	8599.13
701.26	8531.25
701.40	8713.81
701.53	8461.04
701.66	8594.45
701.79	8425.93
701.93	8725.52
702.06	8781.69
702.19	8542.96
702.32	8461.04
702.46	8386.14
702.59	8264.43
702.72	8077.19
702.85	8147.40
702.99	8102.93
703.12	8236.35
703.25	7976.55
703.38	8222.30
703.51	8100.59
703.65	8138.04
703.78	8320.60
703.91	7960.16
704.04	8009.31
704.17	7817.39
704.31	7845.48
704.44	7892.29
704.57	7758.88
704.70	7620.78
704.83	7541.21
704.96	7541.21
705.10	7571.63
705.23	7749.51
>>>>>End Processed Spectral Data<<<<<
