SpectraSuite Data File
++++++++++++++++++++++++++++++++++++
Date: Thu Oct 24 13:21:40 EDT 2013
User: stostad
Dark Spectrum Present: No
Reference Spectrum Present: No
Number of Sampled Component Spectra: 1
Spectrometers: USB2+H05261
Integration Time (usec): 100000 (USB2+H05261)
Spectra Averaged: 1 (USB2+H05261)
Boxcar Smoothing: 0 (USB2+H05261)
Correct for Electrical Dark: No (USB2+H05261)
Strobe/Lamp Enabled: No (USB2+H05261)
Correct for Detector Non-linearity: No (USB2+H05261)
Correct for Stray Light: No (USB2+H05261)
Number of Pixels in Processed Spectrum: 2048
>>>>>Begin Processed Spectral Data<<<<<
365.73	601.52
365.92	601.52
366.12	601.52
366.32	519.60
366.52	479.81
366.72	489.17
366.91	430.66
367.11	498.53
367.31	386.19
367.51	437.68
367.70	498.53
367.90	475.13
368.10	475.13
368.30	550.03
368.49	430.66
368.69	486.83
368.89	486.83
369.09	435.34
369.28	479.81
369.48	531.30
369.68	545.34
369.87	559.39
370.07	554.71
370.27	589.82
370.47	786.42
370.66	1289.64
370.86	1334.11
371.06	1343.47
371.25	1406.66
371.45	1352.83
371.65	1357.51
371.84	1397.30
372.04	1430.07
372.24	1455.81
372.44	1362.19
372.63	1413.68
372.83	1434.75
373.03	1427.73
373.22	1488.58
373.42	1547.09
373.62	1563.48
373.81	1568.16
374.01	1579.86
374.21	1586.88
374.40	1509.65
374.60	1572.84
374.79	1629.01
374.99	1713.27
375.19	1605.61
375.38	1636.03
375.58	1661.78
375.78	1626.67
375.97	1600.93
376.17	1739.02
376.37	1664.12
376.56	1689.87
376.76	1746.04
376.95	1753.06
377.15	1776.47
377.35	1739.02
377.54	1736.68
377.74	1806.89
377.93	1736.68
378.13	1853.70
378.33	1827.96
378.52	1839.66
378.72	1842.00
378.91	1767.10
379.11	1879.45
379.31	1856.04
379.50	1874.77
379.70	1877.11
379.89	1830.30
380.09	1935.62
380.28	1907.54
380.48	1930.94
380.68	1942.64
380.87	1905.20
381.07	1991.80
381.26	1994.14
381.46	2099.46
381.65	1954.35
381.85	1970.73
382.04	2029.24
382.24	2019.88
382.43	1991.80
382.63	2019.88
382.83	2094.78
383.02	2024.56
383.22	2083.08
383.41	2050.31
383.61	2162.66
383.80	2106.48
384.00	2204.78
384.19	2143.93
384.39	2146.27
384.58	2204.78
384.78	2172.02
384.97	2242.23
385.17	2169.68
385.36	2249.25
385.56	2249.25
385.75	2188.40
385.95	2277.34
386.14	2272.66
386.34	2293.72
386.53	2232.87
386.72	2249.25
386.92	2324.15
387.11	2289.04
387.31	2420.11
387.50	2434.16
387.70	2349.90
387.89	2485.65
388.09	2363.94
388.28	2476.29
388.48	2408.41
388.67	2448.20
388.86	2597.99
389.06	2504.37
389.25	2588.63
389.45	2546.50
389.64	2555.86
389.84	2579.27
390.03	2635.44
390.22	2520.76
390.42	2626.08
390.61	2677.57
390.81	2614.38
391.00	2766.51
391.19	2717.36
391.39	2747.79
391.58	2782.90
391.78	2796.94
391.97	2796.94
392.16	2785.24
392.36	2813.32
392.55	2836.73
392.75	2869.50
392.94	2878.86
393.13	2815.66
393.33	2785.24
393.52	2979.50
393.71	2984.18
393.91	2892.90
394.10	2939.71
394.29	2906.95
394.49	2897.58
394.68	2993.55
394.88	3080.14
395.07	3103.55
395.26	3171.43
395.46	3164.40
395.65	3080.14
395.84	3183.13
396.04	3169.09
396.23	3297.81
396.42	3262.71
396.62	3229.94
396.81	3253.34
397.00	3276.75
397.19	3321.22
397.39	3265.05
397.58	3370.37
397.77	3283.77
397.97	3372.71
398.16	3393.78
398.35	3487.40
398.55	3571.66
398.74	3499.10
398.93	3644.21
399.12	3513.14
399.32	3440.59
399.51	3407.82
399.70	3597.40
399.90	3578.68
400.09	3756.56
400.28	3730.81
400.47	3742.52
400.67	3737.84
400.86	3763.58
401.05	3798.69
401.24	3775.28
401.44	3758.90
401.63	3815.07
401.82	3786.99
402.01	3882.95
402.21	3866.56
402.40	4007.00
402.59	3915.72
402.78	3901.67
402.97	3939.12
403.17	4161.47
403.36	4138.07
403.55	4203.60
403.74	4217.65
403.93	4217.65
404.13	4290.20
404.32	4245.73
404.51	4219.99
404.70	4248.07
404.89	4222.33
405.09	4376.80
405.28	4381.48
405.47	4444.68
405.66	4430.63
405.85	4442.34
406.05	4631.92
406.24	4507.87
406.43	4559.36
406.62	4622.56
406.81	4657.67
407.00	4465.74
407.20	4550.00
407.39	4601.49
407.58	4779.37
407.77	4706.82
407.96	4777.03
408.15	4725.54
408.34	4692.77
408.54	4943.21
408.73	4718.52
408.92	4924.49
409.11	4894.06
409.30	4915.12
409.49	5027.47
409.68	5008.75
409.87	5172.58
410.07	5226.42
410.26	5186.63
410.45	5008.75
410.64	5203.01
410.83	5502.60
411.02	5249.82
411.21	5334.08
411.40	5338.76
411.59	5502.60
411.78	5507.28
411.98	5490.90
412.17	5572.82
412.36	5659.42
412.55	5692.18
412.74	5664.10
412.93	5703.89
413.12	5717.93
413.31	5874.74
413.50	5832.62
413.69	5926.24
413.88	6008.16
414.07	5968.37
414.26	6230.51
414.45	6331.15
414.64	6289.02
414.83	6455.20
415.02	6420.09
415.22	6375.62
415.41	6417.75
415.60	6553.50
415.79	6698.61
415.98	6745.42
416.17	6583.93
416.36	6548.82
416.55	6745.42
416.74	6764.15
416.93	6897.56
417.12	6724.36
417.31	6895.22
417.50	6860.11
417.69	6988.84
417.88	7037.99
418.07	7108.21
418.26	7131.61
418.45	7297.79
418.64	7297.79
418.83	7295.45
419.02	7342.26
419.21	7501.42
419.39	7370.35
419.58	7332.90
419.77	7414.82
419.96	7412.48
420.15	7548.23
420.34	7651.21
420.53	7552.91
420.72	7784.62
420.91	7660.57
421.10	7796.32
421.29	7822.07
421.48	7779.94
421.67	7873.56
421.86	7974.21
422.05	7955.48
422.24	7988.25
422.43	7878.24
422.61	7899.31
422.80	8245.71
422.99	8107.62
423.18	8196.56
423.37	8161.45
423.56	7953.14
423.75	8093.57
423.94	7882.92
424.13	7641.85
424.32	7777.60
424.50	8168.47
424.69	8507.85
424.88	8280.82
425.07	8121.66
425.26	8011.65
425.45	8070.17
425.64	8037.40
425.83	8278.47
426.01	8257.41
426.20	8301.88
426.39	8280.82
426.58	8159.11
426.77	8379.12
426.96	8475.08
427.15	8418.91
427.33	8463.38
427.52	8346.35
427.71	8737.22
427.90	8402.52
428.09	8580.40
428.28	8774.67
428.46	8730.20
428.65	8800.41
428.84	8985.32
429.03	8973.61
429.22	8683.39
429.40	8910.42
429.59	9214.69
429.78	8629.56
429.97	8629.56
430.16	8959.57
430.34	9074.26
430.53	9160.86
430.72	9404.27
430.91	9130.43
431.10	9210.01
431.28	9460.45
431.47	9673.43
431.66	9617.26
431.85	9254.48
432.03	9577.47
432.22	9893.44
432.41	9731.95
432.60	9624.28
432.79	9666.41
432.97	9753.01
433.16	10029.20
433.35	9863.02
433.54	10040.90
433.72	9912.17
433.91	9937.91
434.10	9944.94
434.28	9877.06
434.47	10019.83
434.66	10178.99
434.85	10338.15
435.03	10476.24
435.22	10527.73
435.41	10836.68
435.59	10714.97
435.78	10796.89
435.97	10724.33
436.16	10611.99
436.34	10644.76
436.53	10487.94
436.72	10850.72
436.90	10619.01
437.09	10810.93
437.28	10743.06
437.46	10843.70
437.65	10750.08
437.84	11147.97
438.02	11089.46
438.21	11173.72
438.40	10850.72
438.58	11325.85
438.77	11382.03
438.96	11239.25
439.14	11585.65
439.33	11737.79
439.52	11726.08
439.70	11847.79
439.89	11953.12
440.08	11990.56
440.26	12079.50
440.45	12058.44
440.63	12135.68
440.82	12517.18
441.01	12444.63
441.19	12650.60
441.38	12414.20
441.57	12624.85
441.75	12442.29
441.94	13118.70
442.12	12882.31
442.31	13092.96
442.50	13107.00
442.68	13121.04
442.87	13266.16
443.05	13270.84
443.24	13322.33
443.43	13231.05
443.61	13488.51
443.80	13806.82
443.98	13109.34
444.17	12903.37
444.35	13434.68
444.54	13900.44
444.73	13689.79
444.91	13493.19
445.10	13760.01
445.28	13650.00
445.47	13633.62
445.65	13350.42
445.84	14104.07
446.02	13893.42
446.21	13935.55
446.39	13813.84
446.58	14127.47
446.77	14003.43
446.95	13502.55
447.14	13919.17
447.32	14171.94
447.51	13696.82
447.69	13951.93
447.88	13930.87
448.06	13877.04
448.25	14099.39
448.43	14101.73
448.62	13895.76
448.80	13909.80
448.99	14258.54
449.17	14338.12
449.36	14230.46
449.54	14644.73
449.73	14560.47
449.91	14665.80
450.10	15075.39
450.28	14813.25
450.46	14883.47
450.65	14916.23
450.83	14937.30
451.02	14822.61
451.20	15068.37
451.39	15115.18
451.57	14911.55
451.76	15007.52
451.94	14817.93
452.13	15562.22
452.31	15250.93
452.49	15183.06
452.68	15583.29
452.86	15463.92
453.05	15417.11
453.23	15733.08
453.42	15405.41
453.60	15220.50
453.78	15925.00
453.97	15641.80
454.15	15475.62
454.34	15632.44
454.52	16100.55
454.70	15807.98
454.89	15782.23
455.07	16042.03
455.26	16154.38
455.44	16313.53
455.62	16140.33
455.81	16315.87
455.99	16437.58
456.17	16542.91
456.36	16367.37
456.54	16681.00
456.73	17095.27
456.91	16720.79
457.09	17334.01
457.28	17167.83
457.46	17193.58
457.64	17188.89
457.83	17624.23
458.01	17586.79
458.19	17713.17
458.38	17254.43
458.56	17525.93
458.74	17479.12
458.93	17769.35
459.11	17984.68
459.29	17659.34
459.48	17823.18
459.66	17570.40
459.84	17884.03
460.03	18338.10
460.21	18195.32
460.39	18017.44
460.57	18078.30
460.76	18347.46
460.94	18740.67
461.12	18377.89
461.31	18574.49
461.49	18530.02
461.67	18658.75
461.85	18977.06
462.04	18677.48
462.22	19489.64
462.40	19143.24
462.59	19150.26
462.77	19047.28
462.95	18864.72
463.13	19225.16
463.32	19391.34
463.50	19442.83
463.68	19658.16
463.86	19623.05
464.05	19363.25
464.23	19243.88
464.41	19913.28
464.59	19616.03
464.78	19990.52
464.96	19646.46
465.14	19632.41
465.32	19967.11
465.50	19983.49
465.69	20297.13
465.87	20210.53
466.05	19967.11
466.23	20093.50
466.41	20386.07
466.60	20662.25
466.78	20449.26
466.96	20416.49
467.14	20418.83
467.32	19981.15
467.51	20819.07
467.69	20067.75
467.87	20449.26
468.05	20865.88
468.23	20856.51
468.41	20554.58
468.60	21048.44
468.78	21083.55
468.96	20819.07
469.14	21240.36
469.32	21678.04
469.50	21064.82
469.69	21722.51
469.87	21488.46
470.05	21806.77
470.23	21640.59
470.41	21680.38
470.59	22045.51
470.77	21816.13
470.95	22115.72
471.14	22412.97
471.32	21977.63
471.50	22324.03
471.68	22455.10
471.86	22876.40
472.04	22785.12
472.22	23077.68
472.40	22946.61
472.58	23112.79
472.77	23206.41
472.95	23658.14
473.13	24154.33
473.31	23328.12
473.49	23559.83
473.67	23580.90
473.85	23962.40
474.03	24465.62
474.21	24170.71
474.39	24606.05
474.57	24388.38
474.75	24835.42
474.93	25207.57
475.12	25165.44
475.30	25022.67
475.48	24938.41
475.66	25479.07
475.84	25338.64
476.02	25647.59
476.20	25195.87
476.38	25804.41
476.56	26382.52
476.74	26265.49
476.92	26223.36
477.10	26548.70
477.28	26986.38
477.46	26815.52
477.64	27157.24
477.82	27496.61
478.00	28554.54
478.18	28006.85
478.36	28252.61
478.54	28730.08
478.72	28978.17
478.90	29228.61
479.08	29158.39
479.26	29558.63
479.44	29488.41
479.62	29694.38
479.80	30099.29
479.98	30237.38
480.16	30878.69
480.34	30270.15
480.52	31211.04
480.70	31185.30
480.88	30618.89
481.06	31297.64
481.24	31267.22
481.41	31718.94
481.59	32554.51
481.77	32999.21
481.95	32907.93
482.13	33076.45
482.31	32844.74
482.49	33865.21
482.67	33633.50
482.85	33893.30
483.03	34389.49
483.21	34567.37
483.39	35377.20
483.57	34766.32
483.74	35393.58
483.92	35655.72
484.10	35508.27
484.28	36201.07
484.46	37193.45
484.64	37621.77
484.82	37083.45
485.00	37261.33
485.18	38174.14
485.35	38761.61
485.53	38300.53
485.71	38515.86
485.89	38990.98
486.07	39096.31
486.25	38953.54
486.43	39688.46
486.61	40374.24
486.78	40217.43
486.96	40147.21
487.14	41034.27
487.32	41055.34
487.50	41530.47
487.68	41525.78
487.85	42553.28
488.03	42541.58
488.21	43290.55
488.39	42724.14
488.57	43147.78
488.75	43653.33
488.92	43997.39
489.10	44430.39
489.28	44306.34
489.46	44886.79
489.64	44800.19
489.81	45862.80
489.99	45539.80
490.17	46143.66
490.35	46787.31
490.53	47065.83
490.70	46850.50
490.88	46651.56
491.06	47447.34
491.24	47227.33
491.41	47929.49
491.59	48114.39
491.77	47833.53
491.95	48725.27
492.13	48814.21
492.30	49038.90
492.48	49443.82
492.66	49504.67
492.84	49610.00
493.01	49701.28
493.19	50553.23
493.37	50291.09
493.54	50583.66
493.72	50660.90
493.90	50955.80
494.08	51587.75
494.25	51784.35
494.43	51777.33
494.61	51894.36
494.79	52088.62
494.96	52107.35
495.14	52369.49
495.32	52736.95
495.49	52877.38
495.67	52844.62
495.85	53464.86
496.02	53406.34
496.20	53542.10
496.38	53755.08
496.55	53682.53
496.73	54607.04
496.91	54220.85
497.09	54703.00
497.26	54801.30
497.44	54038.29
497.62	54813.01
497.79	55016.63
497.97	55281.11
498.14	55526.87
498.32	55590.06
498.50	55849.86
498.67	55849.86
498.85	55817.10
499.03	55838.16
499.20	56261.80
499.38	56175.20
499.56	56161.15
499.73	56502.87
499.91	56552.02
500.08	56655.01
500.26	56521.60
500.44	56919.49
500.61	56882.04
500.79	57008.43
500.97	57092.69
501.14	57359.51
501.32	57506.96
501.49	57050.56
501.67	57570.16
501.84	57738.68
502.02	57705.91
502.20	57963.37
502.37	57968.05
502.55	58143.59
502.72	58260.62
502.90	58379.98
503.07	58333.17
503.25	58468.92
503.43	58375.30
503.60	58855.11
503.78	58539.14
503.95	58805.96
504.13	58834.05
504.30	59047.04
504.48	58859.79
504.65	59334.92
504.83	59480.03
505.01	59437.90
505.18	59278.75
505.36	59517.48
505.53	59573.66
505.71	59695.36
505.88	59627.49
506.06	59819.41
506.23	59964.52
506.41	59861.54
506.58	59824.09
506.76	59994.95
506.93	60273.48
507.11	60207.94
507.28	60355.39
507.46	60460.72
507.63	60781.37
507.81	60729.88
507.98	60432.63
508.16	60512.21
508.33	60776.69
508.50	60966.27
508.68	61130.11
508.85	61130.11
509.03	61076.28
509.20	61148.84
509.38	61235.44
509.55	61296.29
509.73	61563.11
509.90	61595.88
510.08	61628.65
510.25	61663.75
510.42	61733.97
510.60	61773.76
510.77	61860.36
510.95	62089.73
511.12	61930.58
511.30	62040.58
511.47	62347.19
511.64	62237.19
511.82	62340.17
511.99	62071.01
512.17	62557.84
512.34	62415.07
512.51	62695.93
512.69	62780.19
512.86	62864.45
513.04	62981.48
513.21	62873.81
513.38	62829.34
513.56	63014.24
513.73	62976.79
513.90	63203.83
514.08	62899.56
514.25	63426.18
514.43	63386.39
514.60	63313.83
514.77	63124.25
514.95	63480.01
515.12	63334.90
515.29	63454.26
515.47	63800.66
515.64	63873.22
515.81	63791.30
515.99	63749.17
516.16	63934.07
516.33	63786.62
516.51	64104.93
516.68	64062.80
516.85	64137.70
517.03	64338.99
517.20	64170.47
517.37	64020.67
517.54	64338.99
517.72	64331.96
517.89	64385.80
518.06	64460.69
518.24	64500.48
518.41	64566.02
518.58	64498.14
518.75	64505.16
518.93	64697.09
519.10	64671.34
519.27	64999.02
519.45	64771.99
519.62	65010.72
519.79	65169.88
519.96	65102.00
520.14	65048.17
520.31	64769.64
520.48	65233.07
520.65	65055.19
520.83	65436.70
521.00	65504.57
521.17	65396.91
521.34	65535.00
521.52	65535.00
521.69	65535.00
521.86	65535.00
522.03	65535.00
522.20	65535.00
522.38	65535.00
522.55	65535.00
522.72	65535.00
522.89	65535.00
523.07	65535.00
523.24	65535.00
523.41	65535.00
523.58	65535.00
523.75	65535.00
523.92	65535.00
524.10	65535.00
524.27	65535.00
524.44	65535.00
524.61	65535.00
524.78	65535.00
524.96	65535.00
525.13	65535.00
525.30	65535.00
525.47	65535.00
525.64	65535.00
525.81	65535.00
525.98	65535.00
526.16	65535.00
526.33	65535.00
526.50	65535.00
526.67	65535.00
526.84	65535.00
527.01	65535.00
527.18	65535.00
527.36	65535.00
527.53	65535.00
527.70	65535.00
527.87	65535.00
528.04	65535.00
528.21	65535.00
528.38	65535.00
528.55	65535.00
528.72	65535.00
528.89	65535.00
529.07	65535.00
529.24	65535.00
529.41	65535.00
529.58	65535.00
529.75	65535.00
529.92	65535.00
530.09	65535.00
530.26	65535.00
530.43	65535.00
530.60	65535.00
530.77	65535.00
530.94	65535.00
531.11	65535.00
531.28	65535.00
531.46	65535.00
531.63	65535.00
531.80	65535.00
531.97	65535.00
532.14	65535.00
532.31	65535.00
532.48	65535.00
532.65	65535.00
532.82	65535.00
532.99	65535.00
533.16	65535.00
533.33	65535.00
533.50	65535.00
533.67	65535.00
533.84	65535.00
534.01	65535.00
534.18	65535.00
534.35	65535.00
534.52	65535.00
534.69	65535.00
534.86	65535.00
535.03	65535.00
535.20	65535.00
535.37	65535.00
535.54	65535.00
535.71	65535.00
535.88	65535.00
536.05	65535.00
536.22	65535.00
536.38	65535.00
536.55	65535.00
536.72	65535.00
536.89	65535.00
537.06	65535.00
537.23	65535.00
537.40	65535.00
537.57	65535.00
537.74	65535.00
537.91	65535.00
538.08	65535.00
538.25	65535.00
538.42	65535.00
538.59	65535.00
538.75	65535.00
538.92	65535.00
539.09	65535.00
539.26	65535.00
539.43	65535.00
539.60	65535.00
539.77	65535.00
539.94	65535.00
540.11	65535.00
540.28	65535.00
540.44	65535.00
540.61	65535.00
540.78	65535.00
540.95	65535.00
541.12	65535.00
541.29	65535.00
541.46	65535.00
541.62	65535.00
541.79	65535.00
541.96	65535.00
542.13	65535.00
542.30	65535.00
542.47	65535.00
542.63	65535.00
542.80	65535.00
542.97	65535.00
543.14	65535.00
543.31	65535.00
543.48	65535.00
543.64	65535.00
543.81	65535.00
543.98	65535.00
544.15	65535.00
544.32	65535.00
544.48	65535.00
544.65	65535.00
544.82	65535.00
544.99	65535.00
545.16	65535.00
545.32	65535.00
545.49	65535.00
545.66	65535.00
545.83	65535.00
546.00	65535.00
546.16	65535.00
546.33	65535.00
546.50	65535.00
546.67	65535.00
546.83	65535.00
547.00	65535.00
547.17	65535.00
547.34	65535.00
547.50	65535.00
547.67	65535.00
547.84	65535.00
548.00	65535.00
548.17	65535.00
548.34	65535.00
548.51	65535.00
548.67	65535.00
548.84	65535.00
549.01	65535.00
549.18	65535.00
549.34	65535.00
549.51	65535.00
549.68	65535.00
549.84	65535.00
550.01	65535.00
550.18	65535.00
550.34	65535.00
550.51	65535.00
550.68	65535.00
550.84	65535.00
551.01	65535.00
551.18	65535.00
551.34	65535.00
551.51	65535.00
551.68	65535.00
551.84	65535.00
552.01	65535.00
552.18	65535.00
552.34	65535.00
552.51	65535.00
552.68	65535.00
552.84	65535.00
553.01	65535.00
553.18	65535.00
553.34	65535.00
553.51	65535.00
553.67	65535.00
553.84	65535.00
554.01	65535.00
554.17	65535.00
554.34	65535.00
554.51	65535.00
554.67	65535.00
554.84	65535.00
555.00	65535.00
555.17	65535.00
555.33	65535.00
555.50	65535.00
555.67	65535.00
555.83	65535.00
556.00	65535.00
556.16	65535.00
556.33	65535.00
556.50	65535.00
556.66	65535.00
556.83	65535.00
556.99	65535.00
557.16	65535.00
557.32	65535.00
557.49	65535.00
557.65	65535.00
557.82	65535.00
557.98	65535.00
558.15	65535.00
558.32	65535.00
558.48	65535.00
558.65	65535.00
558.81	65535.00
558.98	65535.00
559.14	65535.00
559.31	65535.00
559.47	65535.00
559.64	65535.00
559.80	65535.00
559.97	65535.00
560.13	65535.00
560.30	65535.00
560.46	65535.00
560.63	65535.00
560.79	65535.00
560.96	65535.00
561.12	65535.00
561.29	65535.00
561.45	65535.00
561.61	65535.00
561.78	65535.00
561.94	65535.00
562.11	65535.00
562.27	65535.00
562.44	65535.00
562.60	65535.00
562.77	65535.00
562.93	65535.00
563.10	65535.00
563.26	65535.00
563.42	65535.00
563.59	65535.00
563.75	65535.00
563.92	65535.00
564.08	65535.00
564.24	65535.00
564.41	65535.00
564.57	65535.00
564.74	65535.00
564.90	65535.00
565.07	65535.00
565.23	65535.00
565.39	65535.00
565.56	65535.00
565.72	65535.00
565.88	65535.00
566.05	65535.00
566.21	65535.00
566.38	65535.00
566.54	65535.00
566.70	65535.00
566.87	65535.00
567.03	65535.00
567.19	65535.00
567.36	65535.00
567.52	65535.00
567.68	65535.00
567.85	65535.00
568.01	65535.00
568.17	65535.00
568.34	65535.00
568.50	65535.00
568.66	65535.00
568.83	65535.00
568.99	65535.00
569.15	65535.00
569.32	65535.00
569.48	65535.00
569.64	65535.00
569.81	65535.00
569.97	65535.00
570.13	65535.00
570.30	65535.00
570.46	65535.00
570.62	65535.00
570.78	65535.00
570.95	65535.00
571.11	65535.00
571.27	65535.00
571.43	65535.00
571.60	65535.00
571.76	65535.00
571.92	65535.00
572.09	65535.00
572.25	65535.00
572.41	65535.00
572.57	65535.00
572.74	65535.00
572.90	65535.00
573.06	65535.00
573.22	65535.00
573.38	65535.00
573.55	65535.00
573.71	65535.00
573.87	65535.00
574.03	65535.00
574.20	65535.00
574.36	65535.00
574.52	65535.00
574.68	65535.00
574.84	65535.00
575.01	65535.00
575.17	65535.00
575.33	65535.00
575.49	65535.00
575.65	65535.00
575.82	65535.00
575.98	65535.00
576.14	65535.00
576.30	65535.00
576.46	65535.00
576.62	65535.00
576.79	65535.00
576.95	65535.00
577.11	65535.00
577.27	65535.00
577.43	65535.00
577.59	65535.00
577.75	65535.00
577.92	65535.00
578.08	65535.00
578.24	65535.00
578.40	65535.00
578.56	65535.00
578.72	65535.00
578.88	65535.00
579.04	65535.00
579.21	65535.00
579.37	65535.00
579.53	65535.00
579.69	65535.00
579.85	65535.00
580.01	65535.00
580.17	65535.00
580.33	65535.00
580.49	65535.00
580.65	65535.00
580.82	65535.00
580.98	65535.00
581.14	65535.00
581.30	65535.00
581.46	65535.00
581.62	65535.00
581.78	65535.00
581.94	65535.00
582.10	65535.00
582.26	65535.00
582.42	65535.00
582.58	65535.00
582.74	65535.00
582.90	65535.00
583.06	65535.00
583.22	65535.00
583.38	65535.00
583.54	65535.00
583.70	65535.00
583.86	65535.00
584.02	65535.00
584.18	65535.00
584.34	65535.00
584.50	65535.00
584.66	65535.00
584.82	65535.00
584.98	65535.00
585.14	65535.00
585.30	65535.00
585.46	65535.00
585.62	65535.00
585.78	65535.00
585.94	65535.00
586.10	65535.00
586.26	65535.00
586.42	65535.00
586.58	65535.00
586.74	65535.00
586.90	65535.00
587.06	65535.00
587.22	65535.00
587.38	65535.00
587.54	65535.00
587.70	65535.00
587.86	65535.00
588.02	65535.00
588.18	65535.00
588.34	65535.00
588.49	65535.00
588.65	65535.00
588.81	65535.00
588.97	65535.00
589.13	65535.00
589.29	65535.00
589.45	65535.00
589.61	65535.00
589.77	65535.00
589.93	65535.00
590.08	65535.00
590.24	65535.00
590.40	65535.00
590.56	65535.00
590.72	65535.00
590.88	65535.00
591.04	65535.00
591.20	65535.00
591.35	65535.00
591.51	65535.00
591.67	65535.00
591.83	65535.00
591.99	65535.00
592.15	65535.00
592.31	65535.00
592.46	65535.00
592.62	65535.00
592.78	65535.00
592.94	65535.00
593.10	65535.00
593.26	65535.00
593.41	65535.00
593.57	65535.00
593.73	65535.00
593.89	65535.00
594.05	65535.00
594.20	65535.00
594.36	65535.00
594.52	65535.00
594.68	65535.00
594.84	65535.00
594.99	65535.00
595.15	65535.00
595.31	65535.00
595.47	65535.00
595.62	65535.00
595.78	65535.00
595.94	65535.00
596.10	65535.00
596.25	65535.00
596.41	65535.00
596.57	65535.00
596.73	65535.00
596.88	65535.00
597.04	65535.00
597.20	65535.00
597.36	65535.00
597.51	65535.00
597.67	65535.00
597.83	65535.00
597.99	65535.00
598.14	65535.00
598.30	65535.00
598.46	65535.00
598.61	65535.00
598.77	65535.00
598.93	65535.00
599.09	65535.00
599.24	65535.00
599.40	65535.00
599.56	65535.00
599.71	65535.00
599.87	65535.00
600.03	65535.00
600.18	65535.00
600.34	65535.00
600.50	65535.00
600.65	65535.00
600.81	65535.00
600.97	65535.00
601.12	65535.00
601.28	65535.00
601.44	65535.00
601.59	65535.00
601.75	65535.00
601.91	65535.00
602.06	65535.00
602.22	65535.00
602.37	65535.00
602.53	65535.00
602.69	65535.00
602.84	65535.00
603.00	65535.00
603.16	65535.00
603.31	65535.00
603.47	65535.00
603.62	65535.00
603.78	65535.00
603.94	65535.00
604.09	65535.00
604.25	65535.00
604.40	65535.00
604.56	65535.00
604.71	65535.00
604.87	65535.00
605.03	65535.00
605.18	65535.00
605.34	65535.00
605.49	65535.00
605.65	65535.00
605.80	65535.00
605.96	65535.00
606.12	65535.00
606.27	65535.00
606.43	65535.00
606.58	65535.00
606.74	65535.00
606.89	65535.00
607.05	65535.00
607.20	65535.00
607.36	65535.00
607.51	65535.00
607.67	65535.00
607.82	65535.00
607.98	65535.00
608.13	65535.00
608.29	65535.00
608.44	65535.00
608.60	65535.00
608.75	65535.00
608.91	65535.00
609.06	65535.00
609.22	65535.00
609.37	65535.00
609.53	65535.00
609.68	65535.00
609.84	65535.00
609.99	65535.00
610.15	65535.00
610.30	65535.00
610.46	65535.00
610.61	65535.00
610.76	65535.00
610.92	65535.00
611.07	65535.00
611.23	65535.00
611.38	65535.00
611.54	65535.00
611.69	65535.00
611.84	65535.00
612.00	65535.00
612.15	65535.00
612.31	65535.00
612.46	65535.00
612.62	65535.00
612.77	65535.00
612.92	65535.00
613.08	65535.00
613.23	65535.00
613.39	65535.00
613.54	65535.00
613.69	65535.00
613.85	65535.00
614.00	65535.00
614.15	65535.00
614.31	65535.00
614.46	65535.00
614.62	65535.00
614.77	65535.00
614.92	65535.00
615.08	65535.00
615.23	65535.00
615.38	65535.00
615.54	65535.00
615.69	65535.00
615.84	65535.00
616.00	65535.00
616.15	65535.00
616.30	65535.00
616.46	65535.00
616.61	65535.00
616.76	65535.00
616.92	65535.00
617.07	65535.00
617.22	65535.00
617.37	65535.00
617.53	65535.00
617.68	65535.00
617.83	65535.00
617.99	65535.00
618.14	65535.00
618.29	65535.00
618.45	65535.00
618.60	65535.00
618.75	65535.00
618.90	65535.00
619.06	65535.00
619.21	65535.00
619.36	65535.00
619.51	65535.00
619.67	65535.00
619.82	65535.00
619.97	65535.00
620.12	65535.00
620.28	65535.00
620.43	65535.00
620.58	65535.00
620.73	65535.00
620.89	65535.00
621.04	65535.00
621.19	65535.00
621.34	65535.00
621.49	65535.00
621.65	65535.00
621.80	65535.00
621.95	65535.00
622.10	65535.00
622.25	65535.00
622.41	65535.00
622.56	65535.00
622.71	65535.00
622.86	65535.00
623.01	65535.00
623.16	65535.00
623.32	65535.00
623.47	65535.00
623.62	65535.00
623.77	65535.00
623.92	65535.00
624.07	65535.00
624.23	65535.00
624.38	65535.00
624.53	65535.00
624.68	65535.00
624.83	65535.00
624.98	65535.00
625.13	65535.00
625.29	65535.00
625.44	65535.00
625.59	65535.00
625.74	65535.00
625.89	65535.00
626.04	65535.00
626.19	65535.00
626.34	65535.00
626.49	65535.00
626.65	65535.00
626.80	65535.00
626.95	65535.00
627.10	65535.00
627.25	65535.00
627.40	65535.00
627.55	65535.00
627.70	65535.00
627.85	65535.00
628.00	65535.00
628.15	65535.00
628.30	65535.00
628.45	65535.00
628.60	65535.00
628.76	65535.00
628.91	65535.00
629.06	65535.00
629.21	65535.00
629.36	65535.00
629.51	65535.00
629.66	65535.00
629.81	65535.00
629.96	65535.00
630.11	65535.00
630.26	65535.00
630.41	65535.00
630.56	65535.00
630.71	65535.00
630.86	65535.00
631.01	65535.00
631.16	65535.00
631.31	65535.00
631.46	65535.00
631.61	65535.00
631.76	65535.00
631.91	65535.00
632.06	65535.00
632.21	65535.00
632.36	65535.00
632.51	65535.00
632.66	65535.00
632.81	65535.00
632.96	65535.00
633.10	65535.00
633.25	65535.00
633.40	65535.00
633.55	65535.00
633.70	65535.00
633.85	65535.00
634.00	65535.00
634.15	65535.00
634.30	65535.00
634.45	65535.00
634.60	65535.00
634.75	65535.00
634.90	65535.00
635.05	65535.00
635.19	65535.00
635.34	65535.00
635.49	65535.00
635.64	65535.00
635.79	65535.00
635.94	65535.00
636.09	65535.00
636.24	65535.00
636.39	65535.00
636.53	65535.00
636.68	65535.00
636.83	65535.00
636.98	65535.00
637.13	65535.00
637.28	65535.00
637.43	65535.00
637.57	65535.00
637.72	65535.00
637.87	65535.00
638.02	65535.00
638.17	65535.00
638.32	65535.00
638.46	65535.00
638.61	65535.00
638.76	65535.00
638.91	65535.00
639.06	65535.00
639.20	65535.00
639.35	65535.00
639.50	65535.00
639.65	65535.00
639.80	65535.00
639.94	65535.00
640.09	65535.00
640.24	65535.00
640.39	65535.00
640.54	65535.00
640.68	65535.00
640.83	65535.00
640.98	65535.00
641.13	65535.00
641.27	65535.00
641.42	65535.00
641.57	65535.00
641.72	65535.00
641.86	65535.00
642.01	65535.00
642.16	65535.00
642.31	65535.00
642.45	65535.00
642.60	65535.00
642.75	65535.00
642.90	65535.00
643.04	65535.00
643.19	65535.00
643.34	65535.00
643.48	65535.00
643.63	65535.00
643.78	65535.00
643.93	65535.00
644.07	65535.00
644.22	65535.00
644.37	65535.00
644.51	65535.00
644.66	65535.00
644.81	65535.00
644.95	65535.00
645.10	65535.00
645.25	65535.00
645.39	65535.00
645.54	65535.00
645.69	65535.00
645.83	65535.00
645.98	65535.00
646.13	65535.00
646.27	65535.00
646.42	65535.00
646.57	65535.00
646.71	65535.00
646.86	65535.00
647.00	65535.00
647.15	65535.00
647.30	65535.00
647.44	65535.00
647.59	65535.00
647.74	65535.00
647.88	65535.00
648.03	65535.00
648.17	65535.00
648.32	65535.00
648.47	65535.00
648.61	65535.00
648.76	65535.00
648.90	65535.00
649.05	65535.00
649.20	65535.00
649.34	65535.00
649.49	65535.00
649.63	65535.00
649.78	65535.00
649.92	65535.00
650.07	65535.00
650.21	65535.00
650.36	65535.00
650.51	65535.00
650.65	65535.00
650.80	65535.00
650.94	65535.00
651.09	65535.00
651.23	65535.00
651.38	65535.00
651.52	65535.00
651.67	65535.00
651.81	65535.00
651.96	65535.00
652.10	65535.00
652.25	65535.00
652.39	65535.00
652.54	65535.00
652.68	65535.00
652.83	65535.00
652.97	65535.00
653.12	65535.00
653.26	65535.00
653.41	65535.00
653.55	65535.00
653.70	65535.00
653.84	65535.00
653.99	65535.00
654.13	65535.00
654.27	65535.00
654.42	65535.00
654.56	65535.00
654.71	65535.00
654.85	65535.00
655.00	65535.00
655.14	65535.00
655.29	65535.00
655.43	65535.00
655.57	65535.00
655.72	65535.00
655.86	65535.00
656.01	65535.00
656.15	65535.00
656.30	65535.00
656.44	65535.00
656.58	65535.00
656.73	65535.00
656.87	65535.00
657.01	65535.00
657.16	65535.00
657.30	65535.00
657.45	65535.00
657.59	65535.00
657.73	65535.00
657.88	65535.00
658.02	65535.00
658.16	65535.00
658.31	65535.00
658.45	65535.00
658.60	65535.00
658.74	65535.00
658.88	65535.00
659.03	65535.00
659.17	65535.00
659.31	65535.00
659.46	65535.00
659.60	65535.00
659.74	65535.00
659.89	65535.00
660.03	65535.00
660.17	65535.00
660.32	65535.00
660.46	65535.00
660.60	65535.00
660.74	65535.00
660.89	65535.00
661.03	65535.00
661.17	65535.00
661.32	65535.00
661.46	65535.00
661.60	65535.00
661.74	65535.00
661.89	65535.00
662.03	65535.00
662.17	65535.00
662.31	65535.00
662.46	65535.00
662.60	65535.00
662.74	65535.00
662.88	65535.00
663.03	65535.00
663.17	65535.00
663.31	65535.00
663.45	65535.00
663.60	65535.00
663.74	65535.00
663.88	65535.00
664.02	65535.00
664.17	65535.00
664.31	65535.00
664.45	65535.00
664.59	65535.00
664.73	65535.00
664.88	65535.00
665.02	65535.00
665.16	65535.00
665.30	65535.00
665.44	65535.00
665.59	65535.00
665.73	65535.00
665.87	65535.00
666.01	65535.00
666.15	65535.00
666.29	65535.00
666.44	65535.00
666.58	65535.00
666.72	65535.00
666.86	65535.00
667.00	65535.00
667.14	65535.00
667.28	65535.00
667.43	65535.00
667.57	65535.00
667.71	65535.00
667.85	65535.00
667.99	65535.00
668.13	65535.00
668.27	65535.00
668.41	65535.00
668.56	65535.00
668.70	65535.00
668.84	65535.00
668.98	65535.00
669.12	65535.00
669.26	65535.00
669.40	65535.00
669.54	65535.00
669.68	65535.00
669.82	65535.00
669.96	65535.00
670.10	65535.00
670.25	65535.00
670.39	65535.00
670.53	65535.00
670.67	65535.00
670.81	65535.00
670.95	65535.00
671.09	65535.00
671.23	65535.00
671.37	65535.00
671.51	65535.00
671.65	65535.00
671.79	65535.00
671.93	65535.00
672.07	65535.00
672.21	65535.00
672.35	65535.00
672.49	65535.00
672.63	65535.00
672.77	65535.00
672.91	65535.00
673.05	65535.00
673.19	65535.00
673.33	65535.00
673.47	65535.00
673.61	65535.00
673.75	65535.00
673.89	65535.00
674.03	65535.00
674.17	65535.00
674.31	65535.00
674.45	65535.00
674.59	65535.00
674.73	65535.00
674.87	65535.00
675.01	65535.00
675.15	65535.00
675.29	65535.00
675.43	65535.00
675.56	65535.00
675.70	65535.00
675.84	65535.00
675.98	65535.00
676.12	65535.00
676.26	65535.00
676.40	65535.00
676.54	65535.00
676.68	65535.00
676.82	65535.00
676.96	65535.00
677.10	65535.00
677.23	65535.00
677.37	65535.00
677.51	65535.00
677.65	65535.00
677.79	65535.00
677.93	65535.00
678.07	65535.00
678.21	65535.00
678.34	65535.00
678.48	65535.00
678.62	65535.00
678.76	65535.00
678.90	65535.00
679.04	65535.00
679.18	65535.00
679.31	65535.00
679.45	65535.00
679.59	65535.00
679.73	65535.00
679.87	65535.00
680.00	65535.00
680.14	65535.00
680.28	65535.00
680.42	65535.00
680.56	65535.00
680.70	65535.00
680.83	65535.00
680.97	65535.00
681.11	65535.00
681.25	65535.00
681.39	65535.00
681.52	65535.00
681.66	65535.00
681.80	65535.00
681.94	65535.00
682.07	65535.00
682.21	65535.00
682.35	65535.00
682.49	65535.00
682.62	65389.89
682.76	65427.34
682.90	65319.67
683.04	65256.48
683.17	65378.18
683.31	65247.11
683.45	65125.41
683.59	65137.11
683.72	65078.60
683.86	64884.33
684.00	65078.60
684.13	65064.55
684.27	64954.55
684.41	64561.34
684.55	64645.60
684.68	64481.76
684.82	64294.52
684.96	64273.45
685.09	64135.36
685.23	64266.43
685.37	64011.31
685.50	63964.50
685.64	63805.34
685.78	63863.86
685.91	63798.32
686.05	63805.34
686.19	63629.80
686.32	63732.79
686.46	63468.31
686.60	63505.76
686.73	63641.51
686.87	63388.73
687.01	63416.82
687.14	63545.54
687.28	63250.64
687.42	63075.10
687.55	62747.42
687.69	62937.01
687.82	62632.74
687.96	62639.76
688.10	62464.22
688.23	62447.83
688.37	62316.76
688.50	62405.70
688.64	62368.26
688.78	62401.02
688.91	62047.60
689.05	62237.19
689.18	62054.62
689.32	61659.07
689.46	61680.14
689.59	61848.66
689.73	61937.60
689.86	61773.76
690.00	61467.15
690.13	61731.63
690.27	61263.52
690.41	61298.63
690.54	61059.90
690.68	61085.64
690.81	61099.68
690.95	60889.04
691.08	61071.60
691.22	60968.61
691.35	60907.76
691.49	61141.81
691.62	61087.98
691.76	60872.65
691.89	60619.88
692.03	60116.66
692.16	60271.14
692.30	60023.04
692.43	59896.65
692.57	59920.05
692.70	59807.71
692.84	59716.43
692.97	59583.02
693.11	59618.13
693.24	59370.03
693.38	59320.88
693.51	59238.96
693.65	59283.43
693.78	59143.00
693.92	59409.82
694.05	59281.09
694.19	59185.13
694.32	59058.74
694.45	58845.75
694.59	58513.39
694.72	58525.10
694.86	58410.41
694.99	58169.33
695.13	58204.44
695.26	57750.38
695.39	57565.48
695.53	57780.81
695.66	57757.40
695.80	57497.60
695.93	57572.50
696.07	57399.30
696.20	57338.44
696.33	57434.41
696.47	57350.15
696.60	57291.63
696.73	57249.50
696.87	57301.00
697.00	57041.20
697.14	56949.92
697.27	56615.22
697.40	56264.14
697.54	56254.78
697.67	56112.00
697.80	55725.81
697.94	55517.51
698.07	55161.75
698.21	55178.13
698.34	55161.75
698.47	55276.43
698.61	55121.96
698.74	54953.44
698.87	54813.01
699.01	55025.99
699.14	54763.85
699.27	54831.73
699.40	54915.99
699.54	54461.93
699.67	54190.42
699.80	54042.97
699.94	53904.88
700.07	54047.65
700.20	53701.25
700.34	53326.77
700.47	53205.06
700.60	53406.34
700.73	53263.57
700.87	53109.10
701.00	52814.19
701.13	52877.38
701.26	52271.18
701.40	53001.43
701.53	53043.56
701.66	52842.27
701.79	52229.05
701.93	52079.26
702.06	51868.61
702.19	51550.30
702.32	51459.02
702.46	51660.30
702.59	51107.94
702.72	50829.41
702.85	50883.25
702.99	50983.89
703.12	50368.33
703.25	50354.29
703.38	50024.27
703.51	49928.31
703.65	49331.47
703.78	49282.32
703.91	49277.64
704.04	49481.27
704.17	49127.84
704.31	49389.98
704.44	49436.80
704.57	49502.33
704.70	49120.82
704.83	48577.82
704.96	48566.12
705.10	48285.25
705.23	48053.54
>>>>>End Processed Spectral Data<<<<<
