SpectraSuite Data File
++++++++++++++++++++++++++++++++++++
Date: Thu Oct 24 13:21:18 EDT 2013
User: stostad
Dark Spectrum Present: No
Reference Spectrum Present: No
Number of Sampled Component Spectra: 1
Spectrometers: USB2+H05261
Integration Time (usec): 100000 (USB2+H05261)
Spectra Averaged: 1 (USB2+H05261)
Boxcar Smoothing: 0 (USB2+H05261)
Correct for Electrical Dark: No (USB2+H05261)
Strobe/Lamp Enabled: No (USB2+H05261)
Correct for Detector Non-linearity: No (USB2+H05261)
Correct for Stray Light: No (USB2+H05261)
Number of Pixels in Processed Spectrum: 2048
>>>>>Begin Processed Spectral Data<<<<<
365.73	557.05
365.92	557.05
366.12	557.05
366.32	470.45
366.52	500.87
366.72	372.15
366.91	503.22
367.11	482.15
367.31	437.68
367.51	456.40
367.70	496.19
367.90	435.34
368.10	477.47
368.30	402.57
368.49	470.45
368.69	442.36
368.89	444.70
369.09	519.60
369.28	491.51
369.48	491.51
369.68	528.96
369.87	524.28
370.07	535.98
370.27	606.20
370.47	573.43
370.66	748.97
370.86	795.78
371.06	842.59
371.25	844.93
371.45	889.40
371.65	816.85
371.84	847.27
372.04	842.59
372.24	884.72
372.44	940.90
372.63	922.17
372.83	896.43
373.03	931.53
373.22	870.68
373.42	880.04
373.62	959.62
373.81	929.19
374.01	924.51
374.21	882.38
374.40	924.51
374.60	985.37
374.79	945.58
374.99	957.28
375.19	968.98
375.38	929.19
375.58	964.30
375.78	983.02
375.97	959.62
376.17	973.66
376.37	1006.43
376.56	1011.11
376.76	1008.77
376.95	915.15
377.15	985.37
377.35	945.58
377.54	917.49
377.74	936.21
377.93	1043.88
378.13	936.21
378.33	1004.09
378.52	1029.84
378.72	964.30
378.91	971.32
379.11	1022.81
379.31	978.34
379.50	1029.84
379.70	1032.18
379.89	1081.33
380.09	1039.20
380.28	1050.90
380.48	1060.26
380.68	1081.33
380.87	1078.99
381.07	1015.79
381.26	994.73
381.46	1104.73
381.65	990.05
381.85	1078.99
382.04	1008.77
382.24	980.68
382.43	1086.01
382.63	1046.22
382.83	1125.80
383.02	1142.18
383.22	1181.97
383.41	1055.58
383.61	1167.93
383.80	1090.69
384.00	1172.61
384.19	1165.59
384.39	1160.91
384.58	1048.56
384.78	1179.63
384.97	1172.61
385.17	1186.65
385.36	1139.84
385.56	1137.50
385.75	1123.46
385.95	1170.27
386.14	1256.87
386.34	1142.18
386.53	1158.57
386.72	1111.75
386.92	1186.65
387.11	1235.80
387.31	1174.95
387.50	1172.61
387.70	1123.46
387.89	1238.14
388.09	1186.65
388.28	1177.29
388.48	1221.76
388.67	1247.51
388.86	1163.25
389.06	1172.61
389.25	1313.04
389.45	1270.91
389.64	1303.68
389.84	1263.89
390.03	1238.14
390.22	1212.40
390.42	1240.48
390.61	1242.82
390.81	1245.16
391.00	1249.85
391.19	1322.40
391.39	1301.34
391.58	1221.76
391.78	1406.66
391.97	1287.29
392.16	1296.66
392.36	1366.87
392.55	1348.15
392.75	1366.87
392.94	1331.76
393.13	1338.79
393.33	1362.19
393.52	1359.85
393.71	1409.00
393.91	1432.41
394.10	1362.19
394.29	1350.49
394.49	1357.51
394.68	1469.86
394.88	1425.39
395.07	1474.54
395.26	1514.33
395.46	1462.83
395.65	1474.54
395.84	1495.60
396.04	1589.22
396.23	1500.28
396.42	1444.11
396.62	1465.18
396.81	1521.35
397.00	1502.62
397.19	1519.01
397.39	1516.67
397.58	1565.82
397.77	1514.33
397.97	1596.25
398.16	1596.25
398.35	1638.38
398.55	1619.65
398.74	1624.33
398.93	1643.06
399.12	1605.61
399.32	1626.67
399.51	1650.08
399.70	1626.67
399.90	1619.65
400.09	1617.31
400.28	1645.40
400.47	1696.89
400.67	1727.32
400.86	1717.95
401.05	1713.27
401.24	1722.63
401.44	1795.19
401.63	1785.83
401.82	1746.04
402.01	1778.81
402.21	1783.49
402.40	1799.87
402.59	1741.36
402.78	1734.34
402.97	1865.41
403.17	1799.87
403.36	1694.55
403.55	1923.92
403.74	1813.92
403.93	1998.82
404.13	1893.49
404.32	1930.94
404.51	1884.13
404.70	1954.35
404.89	1942.64
405.09	1944.99
405.28	1942.64
405.47	1937.96
405.66	2062.01
405.85	2090.10
406.05	1928.60
406.24	1989.46
406.43	2059.67
406.62	2078.40
406.81	2069.03
407.00	1963.71
407.20	2165.00
407.39	2125.21
407.58	2054.99
407.77	2150.95
407.96	2181.38
408.15	2172.02
408.34	2179.04
408.54	2078.40
408.73	2190.74
408.92	2200.10
409.11	2277.34
409.30	2214.15
409.49	2256.28
409.68	2286.70
409.87	2300.75
410.07	2321.81
410.26	2298.41
410.45	2242.23
410.64	2368.62
410.83	2363.94
411.02	2455.22
411.21	2429.48
411.40	2429.48
411.59	2520.76
411.78	2502.03
411.98	2424.80
412.17	2410.75
412.36	2436.50
412.55	2497.35
412.74	2637.78
412.93	2654.17
413.12	2504.37
413.31	2663.53
413.50	2593.31
413.69	2780.56
413.88	2649.49
414.07	2761.83
414.26	2717.36
414.45	2700.98
414.64	2780.56
414.83	2813.32
415.02	2839.07
415.22	2899.92
415.41	2909.29
415.60	2843.75
415.79	2918.65
415.98	2986.52
416.17	2801.62
416.36	2974.82
416.55	2827.37
416.74	2988.86
416.93	3066.10
417.12	3094.19
417.31	3052.06
417.50	3150.36
417.69	3089.51
417.88	3178.45
418.07	3152.70
418.26	3152.70
418.45	3183.13
418.64	3286.11
418.83	3148.02
419.02	3155.04
419.21	3311.86
419.39	3353.99
419.58	3279.09
419.77	3199.51
419.96	3241.64
420.15	3363.35
420.34	3363.35
420.53	3328.24
420.72	3400.80
420.91	3351.65
421.10	3489.74
421.29	3433.57
421.48	3407.82
421.67	3452.29
421.86	3482.72
422.05	3492.08
422.24	3417.18
422.43	3501.44
422.61	3417.18
422.80	3552.93
422.99	3578.68
423.18	3574.00
423.37	3695.71
423.56	3569.32
423.75	3571.66
423.94	3431.23
424.13	3318.88
424.32	3485.06
424.50	3517.83
424.69	3583.36
424.88	3620.81
425.07	3609.11
425.26	3599.74
425.45	3658.26
425.64	3655.92
425.83	3632.51
426.01	3709.75
426.20	3723.79
426.39	3557.61
426.58	3613.79
426.77	3562.30
426.96	3712.09
427.15	3705.07
427.33	3728.47
427.52	3693.37
427.71	3714.43
427.90	3779.97
428.09	3794.01
428.28	3716.77
428.46	3768.26
428.65	3716.77
428.84	3873.59
429.03	3819.75
429.22	3922.74
429.40	3810.39
429.59	3957.85
429.78	3808.05
429.97	3843.16
430.16	3810.39
430.34	3985.93
430.53	3913.38
430.72	3953.16
430.91	4021.04
431.10	3932.10
431.28	4105.30
431.47	4105.30
431.66	4079.55
431.85	4133.39
432.03	4133.39
432.22	4187.22
432.41	4131.05
432.60	4121.68
432.79	4049.13
432.97	4229.35
433.16	4241.05
433.35	4208.28
433.54	4292.54
433.72	4245.73
433.91	4292.54
434.10	4241.05
434.28	4264.46
434.47	4182.54
434.66	4301.90
434.85	4278.50
435.03	4491.49
435.22	4554.68
435.41	4762.99
435.59	4608.51
435.78	4755.97
435.97	4601.49
436.16	4521.92
436.34	4306.59
436.53	4402.55
436.72	4613.20
436.90	4519.57
437.09	4514.89
437.28	4561.70
437.46	4550.00
437.65	4575.75
437.84	4798.10
438.02	4578.09
438.21	4603.83
438.40	4596.81
438.58	4868.31
438.77	4779.37
438.96	4863.63
439.14	4954.91
439.33	4990.02
439.52	4961.94
439.70	4917.47
439.89	5027.47
440.08	4968.96
440.26	4999.38
440.45	4999.38
440.63	5095.35
440.82	5165.56
441.01	5200.67
441.19	5195.99
441.38	5263.86
441.57	5289.61
441.75	5219.39
441.94	5507.28
442.12	5465.15
442.31	5432.38
442.50	5467.49
442.68	5434.72
442.87	5507.28
443.05	5425.36
443.24	5570.48
443.43	5563.45
443.61	5504.94
443.80	5593.88
443.98	5423.02
444.17	5284.93
444.35	5486.22
444.54	5579.84
444.73	5598.56
444.91	5694.52
445.10	5572.82
445.28	5638.35
445.47	5497.92
445.65	5497.92
445.84	5769.42
446.02	5724.95
446.21	5755.38
446.39	5682.82
446.58	5657.07
446.77	5767.08
446.95	5507.28
447.14	5636.01
447.32	5846.66
447.51	5823.25
447.69	5680.48
447.88	5652.39
448.06	5696.86
448.25	5806.87
448.43	5795.17
448.62	5825.59
448.80	5720.27
448.99	5841.98
449.17	5900.49
449.36	5650.05
449.54	6017.52
449.73	6150.93
449.91	5984.75
450.10	6090.07
450.28	6092.41
450.46	6127.52
450.65	6289.02
450.83	6164.97
451.02	6057.31
451.20	6111.14
451.39	6167.31
451.57	6136.88
451.76	5961.34
451.94	6258.59
452.13	6136.88
452.31	6321.79
452.49	6064.33
452.68	6293.70
452.86	6232.85
453.05	6279.66
453.23	6347.53
453.42	6422.43
453.60	6160.29
453.78	6359.24
453.97	6342.85
454.15	6272.64
454.34	6377.96
454.52	6558.18
454.70	6422.43
454.89	6703.29
455.07	6541.80
455.26	6628.40
455.44	6780.53
455.62	6509.03
455.81	6684.57
455.99	6633.08
456.17	6817.98
456.36	6862.45
456.54	6754.79
456.73	6937.35
456.91	6832.02
457.09	6843.73
457.28	7059.06
457.46	6953.73
457.64	7021.61
457.83	7159.70
458.01	6892.88
458.19	7258.00
458.38	6960.75
458.56	7052.03
458.74	6993.52
458.93	7115.23
459.11	7180.76
459.29	7066.08
459.48	7052.03
459.66	7019.27
459.84	7068.42
460.03	7419.50
460.21	7159.70
460.39	7180.76
460.57	7171.40
460.76	7293.11
460.94	7440.56
461.12	7475.67
461.31	7585.68
461.49	7379.71
461.67	7365.67
461.85	7440.56
462.04	7503.76
462.22	7801.01
462.40	7604.40
462.59	7562.27
462.77	7721.43
462.95	7510.78
463.13	7698.02
463.32	7566.95
463.50	7798.66
463.68	7641.85
463.86	7761.22
464.05	7721.43
464.23	7651.21
464.41	7941.44
464.59	7606.74
464.78	8135.70
464.96	7889.95
465.14	7599.72
465.32	7920.37
465.50	7808.03
465.69	7978.89
465.87	8035.06
466.05	7911.01
466.23	7997.61
466.41	7892.29
466.60	8105.28
466.78	8084.21
466.96	8100.59
467.14	8058.46
467.32	7953.14
467.51	8081.87
467.69	7971.86
467.87	8215.28
468.05	8098.25
468.23	7997.61
468.41	8170.81
468.60	8219.96
468.78	8318.26
468.96	8264.43
469.14	8208.26
469.32	8395.50
469.50	8138.04
469.69	8411.89
469.87	8360.39
470.05	8524.23
470.23	8411.89
470.41	8489.12
470.59	8744.24
470.77	8517.21
470.95	8627.21
471.14	8636.58
471.32	8451.67
471.50	8865.95
471.68	8741.90
471.86	8812.12
472.04	8929.14
472.22	9214.69
472.40	9142.13
472.58	8711.47
472.77	9015.74
472.95	8891.70
473.13	9287.25
473.31	8884.67
473.49	9202.99
473.67	9025.11
473.85	9327.03
474.03	9315.33
474.21	9233.41
474.39	9399.59
474.57	9490.87
474.75	9659.39
474.93	9654.71
475.12	9568.11
475.30	9736.63
475.48	9785.78
475.66	9643.01
475.84	9633.64
476.02	9874.72
476.20	9961.32
476.38	10024.51
476.56	10249.21
476.74	10303.04
476.92	10321.76
477.10	10078.35
477.28	10319.42
477.46	10345.17
477.64	10492.62
477.82	10518.37
478.00	10719.65
478.18	10855.40
478.36	10663.48
478.54	11061.37
478.72	11176.06
478.90	11311.81
479.08	11077.76
479.26	11176.06
479.44	11157.33
479.62	11257.98
479.80	11405.43
479.98	11658.21
480.16	11700.34
480.34	11779.92
480.52	11960.14
480.70	11782.26
480.88	11580.97
481.06	12023.33
481.24	12032.69
481.41	12175.47
481.59	12390.80
481.77	12135.68
481.95	12407.18
482.13	12285.47
482.31	12468.03
482.49	12601.44
482.67	12524.21
482.85	12917.42
483.03	13029.76
483.21	13221.69
483.39	13357.44
483.57	12901.03
483.74	13139.77
483.92	13324.67
484.10	13429.99
484.28	13631.28
484.46	13678.09
484.64	14237.48
484.82	13827.88
485.00	14132.15
485.18	14363.87
485.35	14551.11
485.53	14567.49
485.71	14642.39
485.89	14862.40
486.07	14670.48
486.25	14728.99
486.43	14775.80
486.61	15161.99
486.78	15147.95
486.96	15274.34
487.14	15255.61
487.32	15396.04
487.50	15456.90
487.68	15901.60
487.85	15920.32
488.03	16283.11
488.21	16020.97
488.39	16336.94
488.57	16205.87
488.75	16173.10
488.92	16496.10
489.10	16886.97
489.28	16940.80
489.46	17001.65
489.64	17008.67
489.81	17240.39
489.99	17338.69
490.17	17275.49
490.35	17640.62
490.53	17722.54
490.70	17685.09
490.88	17593.81
491.06	18129.79
491.24	17841.90
491.41	17898.08
491.59	18200.01
491.77	18328.74
491.95	18801.52
492.13	18471.51
492.30	18761.73
492.48	18789.82
492.66	18913.87
492.84	18965.36
493.01	19140.90
493.19	19140.90
493.37	19269.63
493.54	19438.15
493.72	19812.63
493.90	19484.96
494.08	19536.45
494.25	19967.11
494.43	20208.19
494.61	20114.56
494.79	20212.87
494.96	20306.49
495.14	20449.26
495.32	20306.49
495.49	20676.29
495.67	21006.31
495.85	20966.52
496.02	20847.15
496.20	20922.05
496.38	21139.72
496.55	21186.53
496.73	21858.26
496.91	21357.39
497.09	21600.80
497.26	21675.70
497.44	21844.22
497.62	21748.26
497.79	22108.70
497.97	22340.41
498.14	22616.60
498.32	22768.73
498.50	22555.74
498.67	22483.19
498.85	22785.12
499.03	22796.82
499.20	22618.94
499.38	22965.34
499.56	23131.51
499.73	23253.22
499.91	22944.27
500.08	23410.04
500.26	23129.17
500.44	23396.00
500.61	23480.25
500.79	23679.20
500.97	23789.20
501.14	23765.80
501.32	24154.33
501.49	23878.15
501.67	23957.72
501.84	24390.72
502.02	24077.09
502.20	24453.92
502.37	24442.21
502.55	24271.36
502.72	24582.65
502.90	24898.62
503.07	24456.26
503.25	24924.36
503.43	24608.39
503.60	25125.65
503.78	24517.11
503.95	24856.49
504.13	24947.77
504.30	25163.10
504.48	25238.00
504.65	25462.69
504.83	25415.88
505.01	25680.36
505.18	25509.50
505.36	25720.15
505.53	25673.34
505.71	25675.68
505.88	25862.92
506.06	25935.48
506.23	26352.09
506.41	26134.42
506.58	26478.48
506.76	26141.44
506.93	26445.71
507.11	26581.46
507.28	26586.15
507.46	27019.14
507.63	26998.08
507.81	27138.51
507.98	26764.03
508.16	26946.59
508.33	27091.70
508.50	27084.68
508.68	27374.91
508.85	27269.58
509.03	27229.79
509.20	27157.24
509.38	27452.14
509.55	27676.83
509.73	27924.93
509.90	27840.67
510.08	27740.03
510.25	28016.21
510.42	27850.03
510.60	28311.12
510.77	28273.67
510.95	28395.38
511.12	28266.65
511.30	28362.61
511.47	28535.81
511.64	28645.82
511.82	28851.78
511.99	28521.77
512.17	28678.58
512.34	29022.64
512.51	29085.84
512.69	29123.29
512.86	28987.53
513.04	29055.41
513.21	29179.46
513.38	29127.97
513.56	29174.78
513.73	29764.59
513.90	29553.94
514.08	29546.92
514.25	29888.64
514.43	29818.42
514.60	29633.52
514.77	29687.36
514.95	30132.06
515.12	29766.93
515.29	30125.04
515.47	30548.67
515.64	30628.25
515.81	30146.10
515.99	30082.91
516.16	30426.96
516.33	30181.21
516.51	30958.27
516.68	30850.60
516.85	30562.72
517.03	30808.47
517.20	30717.19
517.37	30426.96
517.54	30904.43
517.72	30780.39
517.89	30834.22
518.06	31019.12
518.24	31297.64
518.41	31487.23
518.58	31227.43
518.75	30724.21
518.93	30925.50
519.10	30752.30
519.27	31676.81
519.45	31431.05
519.62	31908.52
519.79	31648.72
519.96	31899.16
520.14	31400.63
520.31	31541.06
520.48	31981.08
520.65	31749.37
520.83	32201.09
521.00	32432.80
521.17	32451.53
521.34	32376.63
521.52	32591.96
521.69	32421.10
521.86	32552.17
522.03	32833.04
522.20	32629.41
522.38	32940.70
522.55	32849.42
522.72	33036.66
522.89	32493.66
523.07	33151.35
523.24	32811.97
523.41	33031.98
523.58	32645.79
523.75	33287.10
523.92	33455.62
524.10	33359.66
524.27	33570.30
524.44	33362.00
524.61	33551.58
524.78	33401.79
524.96	33467.32
525.13	33846.49
525.30	33937.77
525.47	33764.57
525.64	33965.85
525.81	33942.45
525.98	34270.12
526.16	33902.66
526.33	33776.27
526.50	34012.66
526.67	34162.46
526.84	34438.64
527.01	34078.20
527.18	34639.93
527.36	34391.83
527.53	34576.73
527.70	34838.87
527.87	34789.72
528.04	35201.66
528.21	34684.40
528.38	34616.52
528.55	34960.58
528.72	34831.85
528.89	34962.92
529.07	35204.00
529.24	35002.71
529.41	35522.31
529.58	34995.69
529.75	35400.60
529.92	35267.19
530.09	35459.12
530.26	35002.71
530.43	35538.69
530.60	35161.87
530.77	35402.94
530.94	35482.52
531.11	35487.20
531.28	35665.08
531.46	36161.28
531.63	35744.66
531.80	35449.75
531.97	35950.63
532.14	35962.33
532.31	35805.52
532.48	36119.15
532.65	36156.60
532.82	35878.07
532.99	36271.28
533.16	36308.73
533.33	36088.72
533.50	36690.24
533.67	36395.33
533.84	36194.04
534.01	36278.30
534.18	36589.59
534.35	36912.59
534.52	36409.37
534.69	36863.44
534.86	36840.03
535.03	36432.78
535.20	36236.17
535.37	37134.94
535.54	37345.59
535.71	37132.60
535.88	37156.00
536.05	36847.05
536.22	37462.61
536.38	37067.06
536.55	37104.51
536.72	37371.33
536.89	37610.07
537.06	37565.60
537.23	37614.75
537.40	37415.80
537.57	37916.68
537.74	37631.13
537.91	37584.32
538.08	37565.60
538.25	37343.25
538.42	38033.71
538.59	37893.27
538.75	37425.17
538.92	37790.29
539.09	37855.82
539.26	37780.93
539.43	37748.16
539.60	38171.80
539.77	38349.68
539.94	38047.75
540.11	38216.27
540.28	38590.75
540.44	38529.90
540.61	38359.04
540.78	38274.78
540.95	38459.68
541.12	38476.07
541.29	38644.59
541.46	38731.18
541.62	39021.41
541.79	38801.40
541.96	38990.98
542.13	39079.92
542.30	39054.18
542.47	38937.15
542.63	39126.74
542.80	39285.89
542.97	39580.80
543.14	39981.03
543.31	39405.26
543.48	39201.63
543.64	39793.79
543.81	40086.36
543.98	39952.94
544.15	39304.62
544.32	39491.86
544.48	39971.67
544.65	39812.51
544.82	40334.45
544.99	39978.69
545.16	39943.58
545.32	39882.73
545.49	40680.85
545.66	40460.84
545.83	40847.03
546.00	41146.62
546.16	40886.82
546.33	40306.37
546.50	40329.77
546.67	40346.15
546.83	40018.48
547.00	40304.02
547.17	40076.99
547.34	40072.31
547.50	40210.40
547.67	40601.27
547.84	40573.19
548.00	40748.73
548.17	41256.62
548.34	40484.25
548.51	40828.30
548.67	40844.69
548.84	40648.08
549.01	40414.03
549.18	40456.16
549.34	40886.82
549.51	41057.68
549.68	41027.25
549.84	40732.34
550.01	41214.49
550.18	40435.10
550.34	40435.10
550.51	40882.14
550.68	41359.61
550.84	40863.41
551.01	40940.65
551.18	40891.50
551.34	40985.12
551.51	40425.73
551.68	40973.42
551.84	41123.21
552.01	40760.43
552.18	41331.52
552.34	41113.85
552.51	41336.20
552.68	41144.28
552.84	41111.51
553.01	41797.29
553.18	41525.78
553.34	41619.41
553.51	41261.30
553.67	41879.21
553.84	42436.25
554.01	42019.64
554.17	41947.08
554.34	41474.29
554.51	41860.48
554.67	41631.11
554.84	41553.87
555.00	41230.88
555.17	41759.84
555.33	41614.72
555.50	41949.42
555.67	42040.70
555.83	41832.39
556.00	42197.52
556.16	42050.06
556.33	42115.60
556.50	41794.95
556.66	41867.50
556.83	41729.41
556.99	42454.98
557.16	42019.64
557.32	42569.66
557.49	42387.10
557.65	42148.37
557.82	42375.40
557.98	42270.08
558.15	41963.46
558.32	42244.33
558.48	42183.48
558.65	42770.95
558.81	42721.80
558.98	42735.84
559.14	42597.75
559.31	42595.41
559.47	42087.51
559.64	42618.81
559.80	42735.84
559.97	42813.08
560.13	42354.33
560.30	42412.85
560.46	42817.76
560.63	43002.66
560.79	43428.64
560.96	43166.50
561.12	42368.38
561.29	42799.04
561.45	42604.77
561.61	42780.31
561.78	42806.06
561.94	43002.66
562.11	43091.60
562.27	43192.25
562.44	43002.66
562.60	43063.52
562.77	42902.02
562.93	43051.81
563.10	43344.38
563.26	42693.71
563.42	42906.70
563.59	43159.48
563.75	43157.14
563.92	43435.66
564.08	43466.09
564.24	42930.11
564.41	43208.63
564.57	42904.36
564.74	42913.72
564.90	43304.59
565.07	43257.78
565.23	43695.46
565.39	43370.13
565.56	43519.92
565.72	43096.28
565.88	43576.09
566.05	43239.06
566.21	42967.55
566.38	43400.55
566.54	42770.95
566.70	43311.61
566.87	43985.69
567.03	43526.94
567.19	43805.47
567.36	43526.94
567.52	43367.79
567.68	43613.54
567.85	43555.03
568.01	43316.29
568.17	43562.05
568.34	43320.98
568.50	43562.05
568.66	43351.40
568.83	44282.94
568.99	43346.72
569.15	43531.62
569.32	43880.36
569.48	43229.69
569.64	43552.69
569.81	43318.64
569.97	43164.16
570.13	43208.63
570.30	43412.26
570.46	43632.27
570.62	43421.62
570.78	43800.79
570.95	43386.51
571.11	43892.07
571.27	43658.01
571.43	43391.19
571.60	43611.20
571.76	43807.81
571.92	43489.49
572.09	43840.57
572.25	44474.86
572.41	43941.22
572.57	44477.20
572.74	44083.99
572.90	43672.06
573.06	43805.47
573.22	43686.10
573.38	43597.16
573.55	43908.45
573.71	44023.14
573.87	43871.00
574.03	43761.00
574.20	44170.59
574.36	43679.08
574.52	44170.59
574.68	43693.12
574.84	44016.11
575.01	44208.04
575.17	44348.47
575.33	43653.33
575.49	43746.95
575.65	44154.21
575.82	44231.44
575.98	44023.14
576.14	44465.50
576.30	44189.31
576.46	44172.93
576.62	44088.67
576.79	44086.33
576.95	43728.23
577.11	44072.29
577.27	44374.22
577.43	44278.25
577.59	44275.91
577.75	44201.02
577.92	43831.21
578.08	44215.06
578.24	43889.73
578.40	44163.57
578.56	44807.22
578.72	44603.59
578.88	44243.15
579.04	44748.70
579.21	44385.92
579.37	44292.30
579.53	44135.48
579.69	44165.91
579.85	44299.32
580.01	44404.64
580.17	44912.54
580.33	44119.10
580.49	44259.53
580.65	44957.01
580.82	44076.97
580.98	44257.19
581.14	44491.24
581.30	44467.84
581.46	44107.40
581.62	44252.51
581.78	44039.52
581.94	44048.88
582.10	44362.51
582.26	44048.88
582.42	44186.97
582.58	44119.10
582.74	44236.12
582.90	44137.82
583.06	44208.04
583.22	44514.65
583.38	44423.37
583.54	43983.35
583.70	44231.44
583.86	44315.70
584.02	44168.25
584.18	44907.86
584.34	44177.61
584.50	44437.41
584.66	44156.55
584.82	43849.94
584.98	44598.91
585.14	44449.11
585.30	44488.90
585.46	44734.66
585.62	44421.03
585.78	44669.12
585.94	44751.04
586.10	44500.61
586.26	44928.92
586.42	44418.69
586.58	44659.76
586.74	44559.12
586.90	44091.01
587.06	44411.67
587.22	45076.38
587.38	44500.61
587.54	45076.38
587.70	45144.25
587.86	44624.65
588.02	44924.24
588.18	44669.12
588.34	44779.13
588.49	44830.62
588.65	44968.71
588.81	44638.70
588.97	44933.60
589.13	44470.18
589.29	44870.41
589.45	45118.51
589.61	45029.57
589.77	45057.65
589.93	44914.88
590.08	44931.26
590.24	44989.78
590.40	44807.22
590.56	45078.72
590.72	44877.43
590.88	44233.78
591.04	44748.70
591.20	44758.06
591.35	44830.62
591.51	45684.92
591.67	44945.31
591.83	45607.68
591.99	44388.26
592.15	44488.90
592.31	44832.96
592.46	45167.66
592.62	44650.40
592.78	44804.88
592.94	44884.45
593.10	45006.16
593.26	45397.03
593.41	44933.60
593.57	44985.10
593.73	45385.33
593.89	45476.61
594.05	44643.38
594.20	44528.69
594.36	44987.44
594.52	44811.90
594.68	44612.95
594.84	45181.70
594.99	45563.21
595.15	44765.09
595.31	45179.36
595.47	45495.33
595.62	45347.88
595.78	44732.32
595.94	44851.69
596.10	44516.99
596.25	44982.76
596.41	44989.78
596.57	44809.56
596.73	44910.20
596.88	44949.99
597.04	44893.82
597.20	45427.46
597.36	45528.10
597.51	45488.31
597.67	45223.83
597.83	44788.49
597.99	45443.84
598.14	44921.90
598.30	45556.19
598.46	45312.77
598.61	45521.08
598.77	45247.24
598.93	45200.43
599.09	44992.12
599.24	44928.92
599.40	45301.07
599.56	45153.62
599.71	45860.46
599.87	45469.59
600.03	45181.70
600.18	45174.68
600.34	45642.79
600.50	45188.72
600.65	44891.48
600.81	45546.82
600.97	45670.87
601.12	45846.41
601.28	45275.32
601.44	45439.16
601.59	45345.54
601.75	45134.89
601.91	45099.78
602.06	44926.58
602.22	45062.33
602.37	45258.94
602.53	45153.62
602.69	45418.10
602.84	45256.60
603.00	45467.25
603.16	45696.62
603.31	45137.23
603.47	44760.40
603.62	45242.56
603.78	45240.21
603.94	45413.41
604.09	45207.45
604.25	45256.60
604.40	45324.47
604.56	45223.83
604.71	45191.06
604.87	45174.68
605.03	45558.53
605.18	44938.29
605.34	44835.30
605.49	45008.50
605.65	45148.93
605.80	44809.56
605.96	45490.65
606.12	45460.23
606.27	45717.68
606.43	45165.32
606.58	45621.72
606.74	45375.97
606.89	45656.83
607.05	45059.99
607.20	44591.89
607.36	45031.91
607.51	45144.25
607.67	45399.37
607.82	45265.96
607.98	45130.21
608.13	45301.07
608.29	44818.92
608.44	44870.41
608.60	45078.72
608.75	45104.46
608.91	45247.24
609.06	44797.85
609.22	45097.44
609.37	44643.38
609.53	44673.81
609.68	44734.66
609.84	44648.06
609.99	45425.12
610.15	44854.03
610.30	45565.55
610.46	45071.70
610.61	45081.06
610.76	45656.83
610.92	45647.47
611.07	45940.04
611.23	45492.99
611.38	45483.63
611.54	45628.74
611.69	45492.99
611.84	45614.70
612.00	45764.49
612.15	45404.05
612.31	45436.82
612.46	45280.00
612.62	45340.86
612.77	45132.55
612.92	45233.19
613.08	44912.54
613.23	44582.52
613.39	44629.34
613.54	44488.90
613.69	45097.44
613.85	44832.96
614.00	45027.23
614.15	44975.73
614.31	45041.27
614.46	45001.48
614.62	44500.61
614.77	44591.89
614.92	44425.71
615.08	44013.77
615.23	44587.21
615.38	44570.82
615.54	43683.76
615.69	44753.38
615.84	44231.44
616.00	44779.13
616.15	43973.98
616.30	44308.68
616.46	44350.81
616.61	43800.79
616.76	44704.23
616.92	44105.06
617.07	44154.21
617.22	44226.76
617.37	43283.53
617.53	43540.99
617.68	44229.10
617.83	43725.89
617.99	44666.78
618.14	44109.74
618.29	44133.14
618.45	43695.46
618.60	44065.27
618.75	43426.30
618.90	43360.76
619.06	43372.47
619.21	43166.50
619.36	43742.27
619.51	43690.78
619.67	43105.65
619.82	44004.41
619.97	44198.68
620.12	43957.60
620.28	43569.07
620.43	44034.84
620.58	43803.13
620.73	43768.02
620.89	43611.20
621.04	43475.45
621.19	43489.49
621.34	43718.87
621.49	43374.81
621.65	43016.71
621.80	43988.03
621.95	43800.79
622.10	43388.85
622.25	43042.45
622.41	43430.98
622.56	43124.37
622.71	43342.04
622.86	43487.15
623.01	42717.12
623.16	42562.64
623.32	43068.20
623.47	43335.02
623.62	43049.47
623.77	43407.58
623.92	43140.75
624.07	43470.77
624.23	43952.92
624.38	43618.22
624.53	43227.35
624.68	43419.28
624.83	43309.27
624.98	43430.98
625.13	43079.90
625.29	42855.21
625.44	42836.48
625.59	42773.29
625.74	42480.72
625.89	42951.17
626.04	42349.65
626.19	42906.70
626.34	42682.01
626.49	43070.54
626.65	42721.80
626.80	43152.46
626.95	42251.35
627.10	41811.33
627.25	42408.17
627.40	42614.13
627.55	41998.57
627.70	42424.55
627.85	42382.42
628.00	42209.22
628.15	42274.76
628.30	42167.09
628.45	42623.50
628.60	42131.98
628.76	42703.07
628.91	42288.80
629.06	42139.00
629.21	42246.67
629.36	42045.38
629.51	42127.30
629.66	42733.50
629.81	42150.71
629.96	42092.19
630.11	42344.97
630.26	42583.71
630.41	42735.84
630.56	42241.99
630.71	42003.25
630.86	42059.43
631.01	41991.55
631.16	42099.22
631.31	41883.89
631.46	41645.15
631.61	41635.79
631.76	42021.98
631.91	42003.25
632.06	41460.25
632.21	41539.83
632.36	41588.98
632.51	41715.37
632.66	42096.88
632.81	41727.07
632.96	41598.34
633.10	41670.90
633.25	42073.47
633.40	41345.56
633.55	41687.28
633.70	41235.56
633.85	41289.39
634.00	41467.27
634.15	41614.72
634.30	41528.13
634.45	41298.75
634.60	41783.24
634.75	42251.35
634.90	40942.99
635.05	41228.54
635.19	41055.34
635.34	41331.52
635.49	41041.29
635.64	41104.49
635.79	40968.74
635.94	41179.39
636.09	41263.64
636.24	41172.36
636.39	41127.89
636.53	41464.93
636.68	41240.24
636.83	40825.96
636.98	40896.18
637.13	40685.53
637.28	40882.14
637.43	40680.85
637.57	40807.24
637.72	40060.61
637.87	40570.85
638.02	40194.02
638.17	40725.32
638.32	40399.99
638.46	40100.40
638.61	40634.04
638.76	40643.40
638.91	40514.67
639.06	40945.33
639.20	40627.02
639.35	41277.69
639.50	40446.80
639.65	41029.59
639.80	40123.80
639.94	40343.81
640.09	40311.05
640.24	40587.23
640.39	40493.61
640.54	40374.24
640.68	40711.28
640.83	40465.52
640.98	39969.33
641.13	39966.99
641.27	40645.74
641.42	40259.55
641.57	39931.88
641.72	40479.57
641.86	39875.71
642.01	39489.52
642.16	39541.01
642.31	39948.26
642.45	40084.01
642.60	39868.69
642.75	39929.54
642.90	40299.34
643.04	39718.89
643.19	40142.53
643.34	39782.09
643.48	40268.92
643.63	40053.59
643.78	39613.57
643.93	39346.75
644.07	39349.09
644.22	39679.10
644.37	39686.12
644.51	39306.96
644.66	39871.03
644.81	39725.91
644.95	39917.84
645.10	40076.99
645.25	39859.32
645.39	39646.33
645.54	39573.78
645.69	39548.03
645.83	39302.28
645.98	39377.17
646.13	39632.29
646.27	39751.66
646.42	39746.98
646.57	39629.95
646.71	39519.95
646.86	39210.99
647.00	39533.99
647.15	39746.98
647.30	39606.55
647.44	39344.41
647.59	39847.62
647.74	39276.53
647.88	39423.98
648.03	39143.12
648.17	39185.25
648.32	38452.66
648.47	39234.40
648.61	38838.85
648.76	39222.70
648.90	39372.49
649.05	38974.60
649.20	38653.95
649.34	39328.02
649.49	39569.10
649.63	39257.81
649.78	39201.63
649.92	39005.03
650.07	39110.35
650.21	39108.01
650.36	38752.25
650.51	38696.08
650.65	38934.81
650.80	39000.35
650.94	39552.71
651.09	38483.09
651.23	38319.25
651.38	38806.08
651.52	38466.70
651.67	38803.74
651.81	38787.36
651.96	37977.53
652.10	38539.26
652.25	38492.45
652.39	38457.34
652.54	38286.48
652.68	38092.22
652.83	38440.96
652.97	38506.49
653.12	38319.25
653.26	38525.22
653.41	38766.29
653.55	38576.71
653.70	38562.67
653.84	38745.23
653.99	38071.15
654.13	38181.16
654.27	38464.36
654.42	38302.87
654.56	38382.45
654.71	38326.27
654.85	38480.75
655.00	38265.42
655.14	37663.90
655.29	37928.38
655.43	37942.42
655.57	37493.04
655.72	37584.32
655.86	38061.79
656.01	37787.95
656.15	37706.03
656.30	38047.75
656.44	37926.04
656.58	38099.24
656.73	38092.22
656.87	37851.14
657.01	37982.21
657.16	38064.13
657.30	37373.67
657.45	37539.85
657.59	37383.04
657.73	37408.78
657.88	37380.70
658.02	37593.68
658.16	37979.87
658.31	37673.26
658.45	37886.25
658.60	37441.55
658.74	37448.57
658.88	37104.51
659.03	36985.15
659.17	37188.77
659.31	36762.79
659.46	37050.68
659.60	36561.51
659.74	36898.55
659.89	36868.12
660.03	37024.93
660.17	37081.11
660.32	36648.11
660.46	36282.98
660.60	36533.42
660.74	36524.06
660.89	37092.81
661.03	36126.17
661.17	36552.15
661.32	36327.45
661.46	36458.52
661.60	36133.19
661.74	36308.73
661.89	36130.85
662.03	36304.05
662.17	35885.09
662.31	36421.08
662.46	36149.57
662.60	35957.65
662.74	36224.47
662.88	35817.22
663.03	36170.64
663.17	36041.91
663.31	36107.44
663.45	35894.46
663.60	35796.15
663.74	35524.65
663.88	35686.15
664.02	35042.50
664.17	35754.02
664.31	35194.64
664.45	34719.51
664.59	35201.66
664.73	35821.90
664.88	35548.06
665.02	35133.78
665.16	35276.55
665.30	35196.98
665.44	35131.44
665.59	35068.25
665.73	34895.05
665.87	34890.37
666.01	34897.39
666.15	34925.47
666.29	34962.92
666.44	35180.59
666.58	34649.29
666.72	34153.10
666.86	34962.92
667.00	34642.27
667.14	34485.45
667.28	34295.87
667.43	34525.24
667.57	34569.71
667.71	34480.77
667.85	34705.46
667.99	34281.83
668.13	34459.71
668.27	34227.99
668.41	34885.68
668.56	34075.86
668.70	34099.26
668.84	33797.34
668.98	33706.05
669.12	33546.90
669.26	33488.38
669.40	33467.32
669.54	34012.66
669.68	33411.15
669.82	33511.79
669.96	33764.57
670.10	33642.86
670.25	33591.37
670.39	32954.74
670.53	32793.25
670.67	33406.47
670.81	33406.47
670.95	33008.58
671.09	32617.71
671.23	33085.81
671.37	33319.87
671.51	33600.73
671.65	33532.86
671.79	32921.98
671.93	33228.59
672.07	33350.29
672.21	32992.19
672.35	32634.09
672.49	32383.65
672.63	32657.49
672.77	32308.76
672.91	32512.38
673.05	32336.84
673.19	32158.96
673.33	31796.18
673.47	31910.86
673.61	32107.47
673.75	32320.46
673.89	32032.57
674.03	31906.18
674.17	31852.35
674.31	31707.24
674.45	32086.40
674.59	32285.35
674.73	32065.34
674.87	31417.01
675.01	31229.77
675.15	31234.45
675.29	31627.66
675.43	30787.41
675.56	31007.42
675.70	31213.38
675.84	30888.05
675.98	29757.57
676.12	30843.58
676.26	30742.94
676.40	31035.50
676.54	30899.75
676.68	30583.78
676.82	30288.87
676.96	30490.16
677.10	30581.44
677.23	30396.54
677.37	30403.56
677.51	30157.80
677.65	30232.70
677.79	29614.80
677.93	29947.15
678.07	29472.03
678.21	29305.85
678.34	29120.95
678.48	29432.24
678.62	29582.03
678.76	29142.01
678.90	29261.38
679.04	29305.85
679.18	28865.83
679.31	28467.94
679.45	28594.32
679.59	29214.57
679.73	28961.79
679.87	28842.42
680.00	28566.24
680.14	28498.36
680.28	28374.31
680.42	28268.99
680.56	28198.77
680.70	28290.06
680.83	27845.35
680.97	28158.99
681.11	28147.28
681.25	27910.89
681.39	27770.46
681.52	27529.38
681.66	27784.50
681.80	27735.35
681.94	27606.62
682.07	27484.91
682.21	27225.11
682.35	27110.43
682.49	27356.18
682.62	27126.81
682.76	26977.01
682.90	26892.76
683.04	27124.47
683.17	26539.33
683.31	26588.49
683.45	26480.82
683.59	26228.04
683.72	26267.83
683.86	26237.41
684.00	26384.86
684.13	25998.67
684.27	25912.07
684.41	25708.44
684.55	26103.99
684.68	26043.14
684.82	25827.81
684.96	25249.70
685.09	25317.57
685.23	25479.07
685.37	25331.62
685.50	25514.18
685.64	25537.59
685.78	25326.94
685.91	25109.27
686.05	25048.41
686.19	24905.64
686.32	24732.44
686.46	24641.16
686.60	24882.24
686.73	24610.73
686.87	24844.79
687.01	24397.74
687.14	24636.48
687.28	24496.05
687.42	24311.14
687.55	24205.82
687.69	24044.32
687.82	24107.52
687.96	24004.53
688.10	23608.98
688.23	24095.82
688.37	23749.42
688.50	23480.25
688.64	23939.00
688.78	23768.14
688.91	23604.30
689.05	23063.64
689.18	23112.79
689.32	22953.63
689.46	23194.71
689.59	23281.31
689.73	22876.40
689.86	22675.11
690.00	22335.73
690.13	22778.09
690.27	22555.74
690.41	22663.41
690.54	22188.28
690.68	22398.93
690.81	22324.03
690.95	22359.14
691.08	21853.58
691.22	21884.01
691.35	22036.14
691.49	22373.18
691.62	21755.28
691.76	21984.65
691.89	21926.14
692.03	21624.21
692.16	21303.56
692.30	21481.44
692.43	21301.22
692.57	21132.70
692.70	21385.47
692.84	21067.16
692.97	20975.88
693.11	20945.45
693.24	20680.97
693.38	20795.66
693.51	20484.37
693.65	20723.10
693.78	20620.12
693.92	20528.84
694.05	20437.56
694.19	20437.56
694.32	20559.27
694.45	20376.70
694.59	20451.60
694.72	20187.12
694.86	19707.31
694.99	19770.51
695.13	20016.26
695.26	19716.67
695.39	19484.96
695.53	19550.49
695.66	19763.48
695.80	19173.67
695.93	19389.00
696.07	19028.56
696.20	19281.33
696.33	19044.94
696.47	19105.79
696.60	19080.05
696.73	18892.80
696.87	19386.66
697.00	18948.98
697.14	18845.99
697.27	18527.68
697.40	17975.31
697.54	18427.04
697.67	18471.51
697.80	18223.41
697.94	17996.38
698.07	18317.03
698.21	17930.84
698.34	17921.48
698.47	17713.17
698.61	17722.54
698.74	17851.27
698.87	17855.95
699.01	17720.20
699.14	17645.30
699.27	17692.11
699.40	17404.22
699.54	17607.85
699.67	17305.92
699.80	17151.45
699.94	16952.50
700.07	16940.80
700.20	16964.20
700.34	16734.83
700.47	16882.28
700.60	16957.18
700.73	16908.03
700.87	16695.04
701.00	16739.51
701.13	16446.94
701.26	16226.93
701.40	16329.92
701.53	16229.27
701.66	16196.51
701.79	15960.11
701.93	15999.90
702.06	16088.84
702.19	16173.10
702.32	15751.81
702.46	15527.11
702.59	15433.49
702.72	15372.64
702.85	15220.50
702.99	15606.69
703.12	15527.11
703.25	15342.21
703.38	15468.60
703.51	15089.43
703.65	15393.70
703.78	15119.86
703.91	14956.02
704.04	15428.81
704.17	15119.86
704.31	14806.23
704.44	14647.07
704.57	14607.28
704.70	14562.81
704.83	14237.48
704.96	14370.89
705.10	14567.49
705.23	14249.18
>>>>>End Processed Spectral Data<<<<<
