SpectraSuite Data File
++++++++++++++++++++++++++++++++++++
Date: Thu Oct 24 13:21:05 EDT 2013
User: stostad
Dark Spectrum Present: No
Reference Spectrum Present: No
Number of Sampled Component Spectra: 1
Spectrometers: USB2+H05261
Integration Time (usec): 100000 (USB2+H05261)
Spectra Averaged: 1 (USB2+H05261)
Boxcar Smoothing: 0 (USB2+H05261)
Correct for Electrical Dark: No (USB2+H05261)
Strobe/Lamp Enabled: No (USB2+H05261)
Correct for Detector Non-linearity: No (USB2+H05261)
Correct for Stray Light: No (USB2+H05261)
Number of Pixels in Processed Spectrum: 2048
>>>>>Begin Processed Spectral Data<<<<<
365.73	587.47
365.92	587.47
366.12	587.47
366.32	468.11
366.52	505.56
366.72	458.74
366.91	341.72
367.11	498.53
367.31	454.06
367.51	444.70
367.70	470.45
367.90	454.06
368.10	425.98
368.30	451.72
368.49	463.43
368.69	491.51
368.89	493.85
369.09	421.30
369.28	463.43
369.48	479.81
369.68	491.51
369.87	451.72
370.07	514.92
370.27	559.39
370.47	519.60
370.66	638.97
370.86	638.97
371.06	688.12
371.25	634.29
371.45	620.24
371.65	786.42
371.84	697.48
372.04	732.59
372.24	718.54
372.44	734.93
372.63	697.48
372.83	641.31
373.03	739.61
373.22	692.80
373.42	709.18
373.62	741.95
373.81	737.27
374.01	741.95
374.21	753.65
374.40	688.12
374.60	788.76
374.79	781.74
374.99	798.12
375.19	777.06
375.38	711.52
375.58	781.74
375.78	760.67
375.97	800.46
376.17	816.85
376.37	770.04
376.56	819.19
376.76	800.46
376.95	805.14
377.15	758.33
377.35	793.44
377.54	786.42
377.74	732.59
377.93	765.36
378.13	690.46
378.33	748.97
378.52	734.93
378.72	793.44
378.91	791.10
379.11	795.78
379.31	798.12
379.50	751.31
379.70	805.14
379.89	727.91
380.09	748.97
380.28	858.98
380.48	751.31
380.68	779.40
380.87	835.57
381.07	718.54
381.26	844.93
381.46	807.48
381.65	725.57
381.85	748.97
382.04	812.17
382.24	800.46
382.43	763.01
382.63	746.63
382.83	830.89
383.02	809.83
383.22	858.98
383.41	833.23
383.61	772.38
383.80	816.85
384.00	826.21
384.19	800.46
384.39	793.44
384.58	898.77
384.78	819.19
384.97	868.34
385.17	826.21
385.36	744.29
385.56	816.85
385.75	800.46
385.95	844.93
386.14	842.59
386.34	901.11
386.53	877.70
386.72	856.64
386.92	812.17
387.11	847.27
387.31	884.72
387.50	833.23
387.70	840.25
387.89	866.00
388.09	788.76
388.28	896.43
388.48	875.36
388.67	858.98
388.86	905.79
389.06	889.40
389.25	849.61
389.45	833.23
389.64	849.61
389.84	896.43
390.03	875.36
390.22	842.59
390.42	826.21
390.61	917.49
390.81	826.21
391.00	891.74
391.19	887.06
391.39	830.89
391.58	887.06
391.78	954.94
391.97	842.59
392.16	938.55
392.36	830.89
392.55	884.72
392.75	894.08
392.94	947.92
393.13	938.55
393.33	976.00
393.52	924.51
393.71	992.39
393.91	957.28
394.10	912.81
394.29	952.60
394.49	961.96
394.68	983.02
394.88	940.90
395.07	1015.79
395.26	1006.43
395.46	954.94
395.65	947.92
395.84	968.98
396.04	999.41
396.23	1020.47
396.42	1029.84
396.62	1062.60
396.81	980.68
397.00	976.00
397.19	894.08
397.39	959.62
397.58	1020.47
397.77	959.62
397.97	1015.79
398.16	1004.09
398.35	1088.35
398.55	1029.84
398.74	1029.84
398.93	940.90
399.12	964.30
399.32	1046.22
399.51	1074.31
399.70	994.73
399.90	1071.97
400.09	987.71
400.28	1018.13
400.47	1041.54
400.67	1076.65
400.86	1050.90
401.05	1050.90
401.24	1093.03
401.44	1029.84
401.63	1139.84
401.82	1114.10
402.01	1029.84
402.21	1050.90
402.40	1130.48
402.59	1086.01
402.78	1100.05
402.97	1125.80
403.17	1093.03
403.36	1100.05
403.55	1149.20
403.74	1121.12
403.93	1214.74
404.13	1212.40
404.32	1238.14
404.51	1186.65
404.70	1114.10
404.89	1205.38
405.09	1132.82
405.28	1111.75
405.47	1167.93
405.66	1144.52
405.85	1144.52
406.05	1153.88
406.24	1172.61
406.43	1149.20
406.62	1252.19
406.81	1259.21
407.00	1179.63
407.20	1207.72
407.39	1219.42
407.58	1226.44
407.77	1242.82
407.96	1327.08
408.15	1198.35
408.34	1327.08
408.54	1289.64
408.73	1301.34
408.92	1196.01
409.11	1301.34
409.30	1376.24
409.49	1387.94
409.68	1273.25
409.87	1331.76
410.07	1327.08
410.26	1256.87
410.45	1336.45
410.64	1259.21
410.83	1266.23
411.02	1310.70
411.21	1392.62
411.40	1366.87
411.59	1401.98
411.78	1413.68
411.98	1329.42
412.17	1427.73
412.36	1453.47
412.55	1404.32
412.74	1380.92
412.93	1432.41
413.12	1420.71
413.31	1399.64
413.50	1455.81
413.69	1486.24
413.88	1455.81
414.07	1521.35
414.26	1547.09
414.45	1507.30
414.64	1526.03
414.83	1486.24
415.02	1549.43
415.22	1551.78
415.41	1558.80
415.60	1519.01
415.79	1631.35
415.98	1549.43
416.17	1504.96
416.36	1577.52
416.55	1579.86
416.74	1626.67
416.93	1638.38
417.12	1483.90
417.31	1614.97
417.50	1584.54
417.69	1659.44
417.88	1638.38
418.07	1652.42
418.26	1696.89
418.45	1729.66
418.64	1699.23
418.83	1706.25
419.02	1680.50
419.21	1666.46
419.39	1654.76
419.58	1692.21
419.77	1729.66
419.96	1734.34
420.15	1748.38
420.34	1668.80
420.53	1701.57
420.72	1727.32
420.91	1687.53
421.10	1762.42
421.29	1818.60
421.48	1729.66
421.67	1816.26
421.86	1764.76
422.05	1774.13
422.24	1729.66
422.43	1764.76
422.61	1827.96
422.80	1844.34
422.99	1764.76
423.18	1839.66
423.37	1886.47
423.56	1743.70
423.75	1832.64
423.94	1776.47
424.13	1827.96
424.32	1724.97
424.50	1863.07
424.69	1877.11
424.88	1914.56
425.07	1785.83
425.26	1886.47
425.45	1771.79
425.64	1827.96
425.83	1895.83
426.01	1799.87
426.20	1860.73
426.39	1846.68
426.58	1863.07
426.77	1853.70
426.96	1895.83
427.15	1937.96
427.33	1937.96
427.52	1902.86
427.71	1947.33
427.90	1884.13
428.09	1912.22
428.28	1947.33
428.46	1944.99
428.65	1905.20
428.84	1935.62
429.03	1935.62
429.22	1884.13
429.40	1905.20
429.59	2010.52
429.78	1963.71
429.97	1905.20
430.16	1923.92
430.34	1825.62
430.53	1912.22
430.72	2012.86
430.91	1989.46
431.10	2001.16
431.28	1973.07
431.47	2040.95
431.66	2015.20
431.85	1998.82
432.03	2045.63
432.22	2005.84
432.41	2019.88
432.60	2024.56
432.79	2047.97
432.97	2134.57
433.16	2059.67
433.35	2097.12
433.54	2003.50
433.72	2120.53
433.91	2108.82
434.10	2071.37
434.28	2169.68
434.47	2221.17
434.66	2160.31
434.85	2143.93
435.03	2366.28
435.22	2401.39
435.41	2724.38
435.59	2499.69
435.78	2469.27
435.97	2385.01
436.16	2293.72
436.34	2246.91
436.53	2204.78
436.72	2214.15
436.90	2204.78
437.09	2228.19
437.28	2057.33
437.46	2242.23
437.65	2169.68
437.84	2356.92
438.02	2232.87
438.21	2232.87
438.40	2195.42
438.58	2417.77
438.77	2256.28
438.96	2338.20
439.14	2293.72
439.33	2375.64
439.52	2298.41
439.70	2342.88
439.89	2413.09
440.08	2370.96
440.26	2480.97
440.45	2401.39
440.63	2328.83
440.82	2525.44
441.01	2448.20
441.19	2457.56
441.38	2441.18
441.57	2497.35
441.75	2600.34
441.94	2635.44
442.12	2633.10
442.31	2612.04
442.50	2553.52
442.68	2555.86
442.87	2651.83
443.05	2553.52
443.24	2586.29
443.43	2668.21
443.61	2534.80
443.80	2733.75
443.98	2642.46
444.17	2424.80
444.35	2640.12
444.54	2668.21
444.73	2548.84
444.91	2630.76
445.10	2551.18
445.28	2623.74
445.47	2691.62
445.65	2630.76
445.84	2649.49
446.02	2614.38
446.21	2637.78
446.39	2560.55
446.58	2637.78
446.77	2651.83
446.95	2682.25
447.14	2647.15
447.32	2656.51
447.51	2689.28
447.69	2724.38
447.88	2626.08
448.06	2743.11
448.25	2651.83
448.43	2637.78
448.62	2693.96
448.80	2691.62
448.99	2623.74
449.17	2637.78
449.36	2679.91
449.54	2677.57
449.73	2757.15
449.91	2829.71
450.10	2834.39
450.28	2832.05
450.46	2736.09
450.65	2740.77
450.83	2747.79
451.02	2857.79
451.20	2834.39
451.39	2810.98
451.57	2825.03
451.76	2815.66
451.94	2855.45
452.13	2972.48
452.31	2991.20
452.49	2867.16
452.68	2820.35
452.86	2813.32
453.05	2930.35
453.23	2909.29
453.42	2937.37
453.60	2892.90
453.78	2981.84
453.97	2935.03
454.15	2841.41
454.34	2923.33
454.52	2846.09
454.70	2848.43
454.89	3068.44
455.07	2995.89
455.26	2916.31
455.44	2946.73
455.62	2878.86
455.81	2958.44
455.99	3061.42
456.17	2951.42
456.36	3066.10
456.54	3094.19
456.73	3117.59
456.91	3143.34
457.09	3056.74
457.28	3098.87
457.46	3059.08
457.64	3192.49
457.83	3176.11
458.01	3061.42
458.19	3274.41
458.38	3138.66
458.56	3162.06
458.74	3164.40
458.93	3180.79
459.11	3243.98
459.29	3171.43
459.48	3272.07
459.66	3215.90
459.84	3297.81
460.03	3281.43
460.21	3272.07
460.39	3253.34
460.57	3304.84
460.76	3239.30
460.94	3262.71
461.12	3346.97
461.31	3337.60
461.49	3241.64
461.67	3234.62
461.85	3260.37
462.04	3283.77
462.22	3667.62
462.40	3466.33
462.59	3382.07
462.77	3344.63
462.95	3431.23
463.13	3468.67
463.32	3349.31
463.50	3452.29
463.68	3421.86
463.86	3297.81
464.05	3431.23
464.23	3375.05
464.41	3482.72
464.59	3403.14
464.78	3471.01
464.96	3529.53
465.14	3428.88
465.32	3529.53
465.50	3431.23
465.69	3489.74
465.87	3492.08
466.05	3550.59
466.23	3581.02
466.41	3646.55
466.60	3700.39
466.78	3515.48
466.96	3541.23
467.14	3602.08
467.32	3487.40
467.51	3569.32
467.69	3499.10
467.87	3452.29
468.05	3503.78
468.23	3555.27
468.41	3508.46
468.60	3606.77
468.78	3632.51
468.96	3726.13
469.14	3667.62
469.32	3637.19
469.50	3578.68
469.69	3723.79
469.87	3581.02
470.05	3693.37
470.23	3808.05
470.41	3758.90
470.59	3674.64
470.77	3831.46
470.95	3763.58
471.14	3817.41
471.32	3700.39
471.50	3801.03
471.68	3831.46
471.86	3861.88
472.04	3693.37
472.22	3894.65
472.40	3819.75
472.58	3866.56
472.77	3859.54
472.95	3997.64
473.13	4051.47
473.31	3983.59
473.49	3971.89
473.67	3836.14
473.85	4053.81
474.03	4030.40
474.21	4028.06
474.39	4100.62
474.57	3995.29
474.75	4131.05
474.93	4201.26
475.12	4114.66
475.30	4215.30
475.48	4128.70
475.66	4257.43
475.84	4231.69
476.02	4196.58
476.20	4259.78
476.38	4248.07
476.56	4477.44
476.74	4407.23
476.92	4358.08
477.10	4311.27
477.28	4456.38
477.46	4372.12
477.64	4566.39
477.82	4559.36
478.00	4634.26
478.18	4603.83
478.36	4638.94
478.54	4468.08
478.72	4638.94
478.90	4624.90
479.08	4751.29
479.26	4704.48
479.44	4725.54
479.62	4720.86
479.80	4901.08
479.98	4994.70
480.16	4727.88
480.34	4903.42
480.52	4894.06
480.70	5076.62
480.88	5043.85
481.06	5064.92
481.24	5095.35
481.41	5027.47
481.59	5231.10
481.77	5242.80
481.95	5263.86
482.13	5378.55
482.31	5366.85
482.49	5294.29
482.67	5343.44
482.85	5551.75
483.03	5357.49
483.21	5331.74
483.39	5526.00
483.57	5476.85
483.74	5659.42
483.92	5542.39
484.10	5383.23
484.28	5657.07
484.46	5666.44
484.64	5746.02
484.82	5657.07
485.00	5830.27
485.18	6057.31
485.35	6045.60
485.53	5867.72
485.71	6052.63
485.89	6076.03
486.07	5919.21
486.25	6153.27
486.43	6225.82
486.61	6106.46
486.78	6160.29
486.96	6183.70
487.14	6279.66
487.32	6389.66
487.50	6319.45
487.68	6441.15
487.85	6546.48
488.03	6583.93
488.21	6719.68
488.39	6588.61
488.57	6846.07
488.75	6698.61
488.92	6757.13
489.10	6724.36
489.28	6817.98
489.46	6923.30
489.64	6899.90
489.81	7082.46
489.99	6956.07
490.17	6979.48
490.35	7110.55
490.53	7056.72
490.70	7166.72
490.88	7087.14
491.06	7405.46
491.24	7360.98
491.41	7204.17
491.59	7421.84
491.77	7360.98
491.95	7417.16
492.13	7538.87
492.30	7492.05
492.48	7562.27
492.66	7545.89
492.84	7531.84
493.01	7620.78
493.19	7786.96
493.37	7705.04
493.54	7896.97
493.72	7906.33
493.90	7808.03
494.08	7946.12
494.25	7960.16
494.43	7826.75
494.61	8142.72
494.79	7997.61
494.96	8229.32
495.14	7927.39
495.32	8126.34
495.49	8341.67
495.67	8336.99
495.85	8194.22
496.02	8358.05
496.20	8386.14
496.38	8451.67
496.55	8306.56
496.73	8482.10
496.91	8409.54
497.09	8655.30
497.26	8528.91
497.44	8542.96
497.62	8709.13
497.79	8772.33
497.97	8741.90
498.14	8821.48
498.32	8779.35
498.50	8739.56
498.67	8936.17
498.85	8842.54
499.03	9090.64
499.20	8854.25
499.38	8975.95
499.56	8954.89
499.73	9006.38
499.91	9221.71
500.08	9090.64
500.26	8905.74
500.44	9144.47
500.61	9228.73
500.79	9132.77
500.97	9291.93
501.14	9275.54
501.32	9507.26
501.49	9441.72
501.67	9310.65
501.84	9411.29
502.02	9336.40
502.20	9664.07
502.37	9500.23
502.55	9488.53
502.72	9504.92
502.90	9661.73
503.07	9584.49
503.25	9825.57
503.43	9600.88
503.60	9771.74
503.78	9745.99
503.95	9652.37
504.13	9797.48
504.30	9724.93
504.48	9544.70
504.65	9795.14
504.83	10052.60
505.01	10054.94
505.18	10066.64
505.36	10036.22
505.53	9970.68
505.71	9963.66
505.88	10232.82
506.06	10111.11
506.23	10106.43
506.41	9968.34
506.58	10209.42
506.76	10080.69
506.93	10113.45
507.11	9961.32
507.28	10366.23
507.46	10305.38
507.63	10284.31
507.81	10171.97
507.98	10443.47
508.16	10455.17
508.33	10410.70
508.50	10478.58
508.68	10476.24
508.85	10565.18
509.03	10560.50
509.20	10609.65
509.38	10764.12
509.55	10668.16
509.73	10937.32
509.90	10593.26
510.08	10562.84
510.25	10824.98
510.42	10750.08
510.60	10628.37
510.77	10487.94
510.95	10949.03
511.12	10782.85
511.30	10984.13
511.47	10759.44
511.64	10850.72
511.82	11101.16
511.99	10974.77
512.17	11239.25
512.34	11042.65
512.51	11183.08
512.69	11201.80
512.86	11239.25
513.04	11452.24
513.21	11325.85
513.38	11213.51
513.56	11356.28
513.73	11122.23
513.90	11372.66
514.08	10920.94
514.25	11421.81
514.43	11314.15
514.60	11410.11
514.77	11686.29
514.95	11440.54
515.12	11442.88
515.29	11768.21
515.47	11810.34
515.64	11796.30
515.81	11557.57
515.99	11669.91
516.16	11536.50
516.33	11585.65
516.51	11705.02
516.68	11665.23
516.85	11817.36
517.03	11852.47
517.20	11735.45
517.37	11630.12
517.54	11896.94
517.72	11705.02
517.89	11761.19
518.06	11913.33
518.24	11826.73
518.41	11950.78
518.58	12016.31
518.75	11861.84
518.93	11934.39
519.10	11669.91
519.27	11880.56
519.45	12077.16
519.62	12231.64
519.79	11943.75
519.96	11941.41
520.14	11953.12
520.31	11885.24
520.48	12170.79
520.65	12196.53
520.83	12325.26
521.00	12163.76
521.17	12315.90
521.34	12470.37
521.52	12552.29
521.69	12404.84
521.86	12358.03
522.03	12203.55
522.20	12257.39
522.38	12336.96
522.55	12674.00
522.72	12407.18
522.89	12411.86
523.07	12582.72
523.24	12671.66
523.41	12662.30
523.58	12573.36
523.75	12458.67
523.92	12688.04
524.10	12791.03
524.27	12664.64
524.44	12671.66
524.61	12711.45
524.78	12805.07
524.96	12566.34
525.13	12638.89
525.30	12910.40
525.47	13027.42
525.64	12870.61
525.81	12915.08
525.98	12858.90
526.16	12638.89
526.33	12954.87
526.50	12901.03
526.67	12657.62
526.84	12720.81
527.01	12982.95
527.18	13102.32
527.36	13128.06
527.53	12985.29
527.70	13151.47
527.87	13296.58
528.04	13186.58
528.21	13198.28
528.38	13366.80
528.55	13151.47
528.72	13195.94
528.89	13296.58
529.07	13107.00
529.24	13144.45
529.41	13303.60
529.58	13387.86
529.75	13132.75
529.92	13427.65
530.09	13128.06
530.26	13142.11
530.43	13444.04
530.60	13275.52
530.77	13385.52
530.94	13420.63
531.11	13469.78
531.28	13666.39
531.46	13315.31
531.63	13554.04
531.80	13235.73
531.97	13303.60
532.14	13420.63
532.31	13551.70
532.48	13607.87
532.65	13577.45
532.82	13767.03
532.99	13554.04
533.16	13619.58
533.33	13319.99
533.50	13661.71
533.67	13418.29
533.84	13879.38
534.01	13823.20
534.18	13741.29
534.35	13909.80
534.52	13614.90
534.69	13834.91
534.86	13551.70
535.03	13591.49
535.20	13530.64
535.37	14010.45
535.54	13914.48
535.71	14022.15
535.88	13956.61
536.05	13961.30
536.22	14068.96
536.38	13893.42
536.55	14057.26
536.72	13980.02
536.89	14162.58
537.06	13886.40
537.23	14125.13
537.40	14075.98
537.57	14230.46
537.74	14314.72
537.91	14087.68
538.08	14209.39
538.25	14342.80
538.42	14111.09
538.59	14216.41
538.75	14143.86
538.92	14181.31
539.09	14094.71
539.26	14340.46
539.43	14445.79
539.60	14438.76
539.77	14492.60
539.94	14635.37
540.11	14761.76
540.28	14588.56
540.44	14642.39
540.61	14560.47
540.78	14593.24
540.95	14794.53
541.12	14682.18
541.29	15042.62
541.46	15040.28
541.62	15199.44
541.79	14960.70
541.96	14970.07
542.13	15136.24
542.30	14951.34
542.47	15119.86
542.63	14979.43
542.80	15215.82
542.97	14972.41
543.14	15211.14
543.31	15403.07
543.48	14984.11
543.64	15213.48
543.81	15279.02
543.98	15339.87
544.15	15302.42
544.32	15129.22
544.48	15374.98
544.65	15075.39
544.82	15506.05
544.99	15262.63
545.16	15304.76
545.32	15190.08
545.49	15494.35
545.66	16025.65
545.83	16500.78
546.00	15967.13
546.16	16152.04
546.33	15524.77
546.50	15482.64
546.67	15583.29
546.83	15272.00
547.00	15255.61
547.17	15044.96
547.34	15220.50
547.50	15171.35
547.67	15295.40
547.84	15218.16
548.00	15421.79
548.17	15382.00
548.34	15117.52
548.51	15178.37
548.67	15300.08
548.84	15400.72
549.01	15419.45
549.18	15496.69
549.34	15372.64
549.51	15335.19
549.68	15651.16
549.84	15056.67
550.01	15185.40
550.18	15084.75
550.34	15157.31
550.51	15463.92
550.68	15358.60
550.84	15169.01
551.01	15154.97
551.18	15410.09
551.34	15300.08
551.51	15412.43
551.68	15405.41
551.84	15346.89
552.01	15433.49
552.18	15449.88
552.34	15541.16
552.51	15522.43
552.68	15262.63
552.84	15602.01
553.01	15609.03
553.18	15173.69
553.34	15323.49
553.51	15522.43
553.67	15555.20
553.84	15590.31
554.01	15817.34
554.17	15421.79
554.34	15484.98
554.51	15541.16
554.67	15679.25
554.84	15510.73
555.00	15590.31
555.17	15377.32
555.33	15330.51
555.50	15747.12
555.67	15426.47
555.83	15520.09
556.00	15737.76
556.16	15815.00
556.33	15630.10
556.50	15414.77
556.66	15564.56
556.83	15576.27
556.99	15789.25
557.16	15700.31
557.32	15651.16
557.49	15719.04
557.65	15737.76
557.82	15520.09
557.98	15506.05
558.15	15761.17
558.32	15536.48
558.48	15697.97
558.65	15754.15
558.81	15580.95
558.98	15807.98
559.14	15812.66
559.31	15798.62
559.47	15751.81
559.64	15527.11
559.80	15576.27
559.97	15681.59
560.13	15688.61
560.30	15531.80
560.46	15726.06
560.63	15709.68
560.79	15882.88
560.96	15838.41
561.12	15868.83
561.29	15763.51
561.45	15770.53
561.61	15981.18
561.78	15843.09
561.94	16027.99
562.11	15815.00
562.27	16123.95
562.44	16077.14
562.60	15948.41
562.77	15616.05
562.93	15747.12
563.10	15887.56
563.26	15822.02
563.42	16046.71
563.59	16060.76
563.75	15857.13
563.92	16093.52
564.08	16114.59
564.24	15906.28
564.41	15925.00
564.57	16042.03
564.74	16145.02
564.90	15927.35
565.07	15932.03
565.23	16037.35
565.39	15805.64
565.56	16128.63
565.72	15845.43
565.88	15946.07
566.05	15859.47
566.21	15906.28
566.38	15910.96
566.54	15922.66
566.70	16114.59
566.87	16009.26
567.03	15878.19
567.19	16203.53
567.36	16116.93
567.52	15779.89
567.68	15852.45
567.85	16058.42
568.01	16065.44
568.17	16161.40
568.34	15719.04
568.50	16011.60
568.66	16238.64
568.83	16119.27
568.99	15854.79
569.15	15953.09
569.32	15941.39
569.48	15730.74
569.64	15964.79
569.81	15939.05
569.97	15910.96
570.13	16046.71
570.30	15981.18
570.46	16011.60
570.62	15974.16
570.78	16063.10
570.95	15789.25
571.11	16184.80
571.27	16058.42
571.43	15709.68
571.60	15908.62
571.76	15967.13
571.92	16018.63
572.09	15992.88
572.25	16339.28
572.41	16093.52
572.57	16376.73
572.74	16217.57
572.90	16002.24
573.06	16180.12
573.22	15936.71
573.38	16032.67
573.55	16264.38
573.71	16388.43
573.87	16285.45
574.03	15983.52
574.20	16044.37
574.36	16093.52
574.52	16205.87
574.68	15838.41
574.84	16182.46
575.01	16325.24
575.17	16112.25
575.33	16109.91
575.49	15934.37
575.65	16189.49
575.82	16098.20
575.98	16257.36
576.14	16276.09
576.30	16081.82
576.46	16072.46
576.62	16170.76
576.79	16180.12
576.95	16149.70
577.11	16042.03
577.27	16379.07
577.43	16016.29
577.59	16432.90
577.75	16035.01
577.92	15894.58
578.08	15878.19
578.24	15910.96
578.40	16339.28
578.56	16175.44
578.72	16362.69
578.88	16402.47
579.04	16238.64
579.21	16107.57
579.37	16407.16
579.53	16350.98
579.69	16306.51
579.85	16315.87
580.01	16521.84
580.17	16283.11
580.33	16589.72
580.49	16166.08
580.65	16009.26
580.82	16290.13
580.98	16383.75
581.14	16245.66
581.30	16285.45
581.46	16297.15
581.62	16063.10
581.78	16114.59
581.94	16259.70
582.10	16133.31
582.26	16322.90
582.42	16472.69
582.58	16063.10
582.74	16358.00
582.90	16205.87
583.06	16308.85
583.22	16133.31
583.38	16093.52
583.54	16264.38
583.70	16290.13
583.86	16259.70
584.02	16381.41
584.18	16147.36
584.34	16332.26
584.50	16428.22
584.66	16023.31
584.82	16145.02
584.98	16362.69
585.14	16114.59
585.30	16264.38
585.46	16070.12
585.62	16135.65
585.78	16152.04
585.94	16304.17
586.10	16648.23
586.26	16374.39
586.42	16425.88
586.58	16245.66
586.74	16238.64
586.90	16437.58
587.06	16283.11
587.22	16407.16
587.38	16617.80
587.54	16297.15
587.70	16819.09
587.86	16510.14
588.02	16341.62
588.18	16526.52
588.34	16475.03
588.49	16119.27
588.65	16046.71
588.81	16173.10
588.97	16358.00
589.13	16397.79
589.29	16255.02
589.45	16327.58
589.61	16329.92
589.77	16645.89
589.93	16453.97
590.08	16468.01
590.24	16458.65
590.40	16355.66
590.56	16350.98
590.72	16533.54
590.88	16079.48
591.04	16599.08
591.20	16563.97
591.35	16561.63
591.51	16671.64
591.67	16554.61
591.83	16217.57
591.99	16248.00
592.15	16159.06
592.31	16224.59
592.46	16147.36
592.62	16032.67
592.78	16051.39
592.94	16236.30
593.10	16339.28
593.26	16372.05
593.41	16585.04
593.57	16514.82
593.73	16360.34
593.89	16500.78
594.05	16369.71
594.20	16299.49
594.36	16491.41
594.52	16163.74
594.68	16259.70
594.84	16212.89
594.99	16552.27
595.15	16341.62
595.31	16631.85
595.47	16425.88
595.62	16283.11
595.78	16276.09
595.94	16212.89
596.10	16460.99
596.25	16273.74
596.41	16287.79
596.57	16381.41
596.73	16439.92
596.88	16313.53
597.04	16311.19
597.20	16435.24
597.36	16367.37
597.51	16308.85
597.67	16201.19
597.83	16713.77
597.99	16250.34
598.14	16365.03
598.30	16559.29
598.46	16372.05
598.61	16484.39
598.77	16479.71
598.93	16327.58
599.09	16393.11
599.24	16629.51
599.40	16472.69
599.56	16566.31
599.71	16620.14
599.87	16617.80
600.03	16751.21
600.18	16297.15
600.34	16458.65
600.50	16533.54
600.65	16613.12
600.81	16400.13
600.97	16346.30
601.12	16559.29
601.28	16599.08
601.44	16453.97
601.59	16208.21
601.75	16255.02
601.91	16524.18
602.06	16334.60
602.22	16463.33
602.37	16128.63
602.53	16123.95
602.69	16442.26
602.84	16404.81
603.00	16393.11
603.16	16648.23
603.31	16269.06
603.47	16432.90
603.62	16126.29
603.78	16205.87
603.94	16070.12
604.09	16603.76
604.25	16292.47
604.40	16409.50
604.56	16294.81
604.71	16547.59
604.87	16243.32
605.03	16336.94
605.18	16091.18
605.34	16400.13
605.49	16358.00
605.65	16051.39
605.80	16009.26
605.96	16142.67
606.12	16343.96
606.27	16526.52
606.43	16320.56
606.58	16362.69
606.74	16320.56
606.89	15925.00
607.05	16212.89
607.20	15875.85
607.36	16091.18
607.51	16219.91
607.67	16442.26
607.82	16299.49
607.98	16425.88
608.13	16327.58
608.29	16147.36
608.44	16032.67
608.60	16255.02
608.75	16573.33
608.91	16428.22
609.06	16149.70
609.22	16442.26
609.37	16196.51
609.53	16339.28
609.68	16332.26
609.84	16215.23
609.99	16381.41
610.15	16608.44
610.30	16521.84
610.46	16732.49
610.61	17008.67
610.76	16905.69
610.92	17432.31
611.07	17675.73
611.23	17781.05
611.38	17790.41
611.54	17319.96
611.69	17193.58
611.84	17326.99
612.00	17317.62
612.15	16657.59
612.31	16744.19
612.46	16437.58
612.62	16650.57
612.77	16622.48
612.92	16549.93
613.08	16203.53
613.23	16191.83
613.39	16238.64
613.54	16046.71
613.69	16271.40
613.85	16350.98
614.00	16372.05
614.15	16570.99
614.31	16100.55
614.46	16540.57
614.62	16688.02
614.77	16128.63
614.92	16102.89
615.08	16184.80
615.23	16198.85
615.38	16308.85
615.54	16093.52
615.69	15866.49
615.84	16081.82
616.00	16259.70
616.15	15693.29
616.30	16067.78
616.46	16020.97
616.61	15948.41
616.76	15978.84
616.92	15763.51
617.07	16095.86
617.22	15690.95
617.37	15779.89
617.53	15719.04
617.68	15899.26
617.83	15690.95
617.99	15957.77
618.14	15875.85
618.29	15988.20
618.45	15775.21
618.60	15707.34
618.75	15829.04
618.90	15667.55
619.06	15496.69
619.21	15389.02
619.36	15534.14
619.51	15536.48
619.67	15503.71
619.82	15789.25
619.97	15508.39
620.12	15363.28
620.28	15630.10
620.43	15896.92
620.58	15697.97
620.73	15590.31
620.89	15644.14
621.04	15550.52
621.19	15634.78
621.34	15609.03
621.49	15344.55
621.65	15719.04
621.80	15630.10
621.95	15442.85
622.10	15428.81
622.25	15510.73
622.41	15363.28
622.56	15557.54
622.71	15496.69
622.86	15328.17
623.01	15328.17
623.16	15105.82
623.32	15632.44
623.47	15386.68
623.62	15290.72
623.77	15576.27
623.92	15398.38
624.07	15447.54
624.23	15353.91
624.38	15545.84
624.53	15426.47
624.68	15435.83
624.83	15428.81
624.98	15318.81
625.13	15564.56
625.29	15213.48
625.44	15180.71
625.59	15199.44
625.74	15084.75
625.89	15051.99
626.04	15066.03
626.19	15180.71
626.34	15218.16
626.49	15126.88
626.65	15459.24
626.80	15112.84
626.95	15077.73
627.10	15059.01
627.25	15286.04
627.40	15192.42
627.55	15087.09
627.70	15077.73
627.85	14932.62
628.00	15145.61
628.15	15012.20
628.30	15068.37
628.45	15342.21
628.60	14937.30
628.76	14991.13
628.91	14909.21
629.06	14927.94
629.21	14932.62
629.36	14885.81
629.51	14890.49
629.66	15091.77
629.81	14829.63
629.96	14656.43
630.11	15012.20
630.26	14941.98
630.41	14941.98
630.56	15117.52
630.71	14984.11
630.86	15136.24
631.01	14841.34
631.16	14958.36
631.31	14916.23
631.46	14831.97
631.61	14644.73
631.76	14803.89
631.91	14747.72
632.06	14651.75
632.21	14834.32
632.36	14750.06
632.51	14799.21
632.66	14539.41
632.81	14331.10
632.96	14703.25
633.10	14686.86
633.25	14616.65
633.40	14567.49
633.55	14696.22
633.70	14883.47
633.85	14588.56
634.00	14736.01
634.15	14679.84
634.30	14288.97
634.45	14553.45
634.60	14511.32
634.75	14398.98
634.90	14471.53
635.05	14480.89
635.19	14295.99
635.34	14508.98
635.49	14602.60
635.64	14602.60
635.79	14574.52
635.94	14239.82
636.09	14347.48
636.24	14452.81
636.39	14459.83
636.53	14600.26
636.68	14630.69
636.83	14263.22
636.98	14415.36
637.13	14471.53
637.28	14118.11
637.43	14380.25
637.57	14420.04
637.72	14361.53
637.87	14295.99
638.02	14253.86
638.17	14508.98
638.32	14176.62
638.46	14345.14
638.61	14406.00
638.76	14010.45
638.91	14331.10
639.06	14356.85
639.20	14457.49
639.35	14167.26
639.50	14352.16
639.65	14195.35
639.80	13973.00
639.94	14406.00
640.09	14403.66
640.24	14272.59
640.39	14326.42
640.54	13998.74
640.68	14101.73
640.83	14235.14
640.98	13757.67
641.13	14064.28
641.27	14127.47
641.42	13886.40
641.57	13930.87
641.72	13963.64
641.86	13902.78
642.01	14146.20
642.16	14195.35
642.31	14122.79
642.45	13989.38
642.60	14092.37
642.75	14078.32
642.90	13895.76
643.04	14085.34
643.19	13851.29
643.34	14377.91
643.48	13900.44
643.63	13731.92
643.78	14092.37
643.93	13841.93
644.07	13610.22
644.22	13650.00
644.37	13586.81
644.51	13905.12
644.66	13916.83
644.81	13853.63
644.95	13940.23
645.10	13867.67
645.25	14050.24
645.39	13762.35
645.54	14066.62
645.69	13820.86
645.83	13937.89
645.98	13654.69
646.13	14080.66
646.27	13851.29
646.42	13776.39
646.57	13554.04
646.71	13720.22
646.86	13624.26
647.00	13947.25
647.15	13841.93
647.30	13722.56
647.44	13902.78
647.59	13685.11
647.74	13713.20
647.88	13750.65
648.03	13579.79
648.17	13252.11
648.32	13596.17
648.47	13563.40
648.61	13682.77
648.76	13792.78
648.90	13561.06
649.05	13596.17
649.20	13495.53
649.34	13650.00
649.49	13528.30
649.63	13591.49
649.78	13860.65
649.92	13654.69
650.07	13654.69
650.21	13708.52
650.36	13561.06
650.51	13343.39
650.65	13446.38
650.80	13540.00
650.94	13434.68
651.09	13481.49
651.23	13385.52
651.38	13556.38
651.52	13390.20
651.67	13596.17
651.81	13547.02
651.96	13509.57
652.10	13575.11
652.25	13392.55
652.39	13380.84
652.54	13177.22
652.68	12837.84
652.83	13240.41
652.97	13369.14
653.12	13500.21
653.26	13535.32
653.41	13331.69
653.55	13687.45
653.70	13334.03
653.84	13378.50
653.99	13198.28
654.13	13301.26
654.27	13308.29
654.42	13193.60
654.56	13366.80
654.71	13383.18
654.85	13521.27
655.00	13614.90
655.14	13167.85
655.29	13439.36
655.43	13118.70
655.57	13217.01
655.72	13301.26
655.86	12929.12
656.01	13078.91
656.15	13324.67
656.30	13469.78
656.44	13280.20
656.58	13214.66
656.73	13032.10
656.87	12908.05
657.01	13090.62
657.16	13050.83
657.30	13032.10
657.45	13289.56
657.59	13151.47
657.73	13001.68
657.88	12903.37
658.02	13088.28
658.16	13249.77
658.31	13179.56
658.45	12699.75
658.60	12924.44
658.74	12849.54
658.88	12795.71
659.03	12833.16
659.17	12784.01
659.31	12751.24
659.46	12706.77
659.60	12713.79
659.74	12781.67
659.89	12795.71
660.03	12629.53
660.17	12732.51
660.32	12734.85
660.46	12606.13
660.60	12601.44
660.74	12638.89
660.89	12854.22
661.03	12592.08
661.17	12772.30
661.32	12886.99
661.46	12819.11
661.60	12678.68
661.74	12585.06
661.89	12531.23
662.03	12613.15
662.17	12248.02
662.31	12472.71
662.46	12355.69
662.60	12348.67
662.74	12617.83
662.88	12402.50
663.03	12372.07
663.17	12477.40
663.31	12442.29
663.45	12533.57
663.60	12470.37
663.74	12299.52
663.88	12276.11
664.02	12212.92
664.17	12304.20
664.31	12025.67
664.45	12175.47
664.59	12049.08
664.73	12203.55
664.88	12241.00
665.02	12269.09
665.16	12533.57
665.30	11929.71
665.44	12198.87
665.59	12198.87
665.73	11920.35
665.87	12173.13
666.01	12084.19
666.15	12109.93
666.29	11946.09
666.44	12215.26
666.58	11967.16
666.72	11990.56
666.86	11674.59
667.00	12025.67
667.14	11943.75
667.28	11822.05
667.43	11939.07
667.57	12056.10
667.71	11829.07
667.85	11861.84
667.99	12011.63
668.13	12002.27
668.27	11693.32
668.41	12006.95
668.56	11744.81
668.70	11676.93
668.84	11646.51
668.98	11482.67
669.12	11454.58
669.26	11559.91
669.40	11754.17
669.54	11726.08
669.68	11775.24
669.82	11545.86
669.96	11618.42
670.10	11506.07
670.25	11756.51
670.39	11562.25
670.53	11527.14
670.67	11510.75
670.81	11459.26
670.95	11597.35
671.09	11328.19
671.23	11407.77
671.37	11363.30
671.51	11232.23
671.65	11304.79
671.79	11307.13
671.93	11272.02
672.07	11311.81
672.21	11262.66
672.35	10960.73
672.49	11115.20
672.63	11190.10
672.77	11283.72
672.91	11337.56
673.05	11080.10
673.19	10857.75
673.33	10972.43
673.47	11110.52
673.61	11138.61
673.75	10860.09
673.89	10897.53
674.03	10750.08
674.17	10869.45
674.31	10869.45
674.45	10958.39
674.59	10913.92
674.73	10661.14
674.87	10843.70
675.01	10679.86
675.15	10541.77
675.29	10572.20
675.43	10794.55
675.56	10920.94
675.70	10651.78
675.84	10602.63
675.98	10246.87
676.12	10396.66
676.26	10569.86
676.40	10352.19
676.54	10513.69
676.68	10703.27
676.82	10347.51
676.96	10628.37
677.10	10492.62
677.23	10530.07
677.37	10239.84
677.51	10251.55
677.65	10085.37
677.79	10178.99
677.93	10043.24
678.07	10111.11
678.21	10164.95
678.34	10038.56
678.48	10024.51
678.62	10108.77
678.76	10237.50
678.90	10153.24
679.04	10253.89
679.18	10031.54
679.31	9893.44
679.45	10045.58
679.59	10029.20
679.73	9673.43
679.87	9678.12
680.00	9804.50
680.14	9696.84
680.28	9469.81
680.42	9549.39
680.56	9675.77
680.70	9554.07
680.83	9713.22
680.97	9809.19
681.11	9589.17
681.25	9481.51
681.39	9415.98
681.52	9408.95
681.66	9441.72
681.80	9434.70
681.94	9488.53
682.07	9217.03
682.21	9359.80
682.35	9486.19
682.49	9404.27
682.62	9025.11
682.76	9083.62
682.90	9018.08
683.04	9289.59
683.17	8950.21
683.31	9043.83
683.45	9128.09
683.59	9022.77
683.72	9238.09
683.86	9158.52
684.00	8924.46
684.13	9069.58
684.27	8840.20
684.41	8809.78
684.55	8798.07
684.68	8889.35
684.82	8772.33
684.96	8699.77
685.09	8695.09
685.23	8758.28
685.37	8624.87
685.50	8762.97
685.64	8594.45
685.78	8713.81
685.91	8641.26
686.05	8723.18
686.19	8528.91
686.32	8306.56
686.46	8493.80
686.60	8344.01
686.73	8608.49
686.87	8301.88
687.01	8695.09
687.14	8470.40
687.28	8524.23
687.42	8517.21
687.55	8175.49
687.69	8245.71
687.82	8226.98
687.96	8278.47
688.10	8463.38
688.23	8262.09
688.37	8124.00
688.50	8009.31
688.64	8107.62
688.78	8063.15
688.91	7925.05
689.05	8030.38
689.18	7775.26
689.32	7740.15
689.46	7922.71
689.59	7946.12
689.73	7817.39
689.86	7901.65
690.00	7751.85
690.13	7777.60
690.27	7791.64
690.41	7705.04
690.54	7541.21
690.68	7674.62
690.81	7695.68
690.95	7651.21
691.08	7803.35
691.22	7660.57
691.35	7391.41
691.49	7473.33
691.62	7489.71
691.76	7623.12
691.89	7485.03
692.03	7393.75
692.16	7356.30
692.30	7169.06
692.43	7262.68
692.57	7302.47
692.70	7260.34
692.84	7478.01
692.97	7148.00
693.11	7122.25
693.24	7396.09
693.38	7143.32
693.51	7049.69
693.65	7185.44
693.78	7105.87
693.92	7063.74
694.05	7030.97
694.19	7220.55
694.32	6956.07
694.45	7000.54
694.59	7054.37
694.72	7014.59
694.86	6768.83
694.99	6766.49
695.13	6927.99
695.26	6813.30
695.39	6684.57
695.53	6698.61
695.66	6597.97
695.80	6743.08
695.93	6663.51
696.07	6494.99
696.20	6597.97
696.33	6604.99
696.47	6553.50
696.60	6572.22
696.73	6443.49
696.87	6715.00
697.00	6558.18
697.14	6649.46
697.27	6370.94
697.40	6387.32
697.54	6452.86
697.67	6340.51
697.80	6260.93
697.94	6253.91
698.07	6331.15
698.21	6157.95
698.34	6167.31
698.47	6181.35
698.61	6073.69
698.74	6230.51
698.87	6087.73
699.01	6054.97
699.14	6146.25
699.27	6162.63
699.40	6214.12
699.54	6033.90
699.67	6045.60
699.80	5898.15
699.94	5799.85
700.07	5795.17
700.20	5832.62
700.34	5764.74
700.47	5696.86
700.60	5657.07
700.73	5799.85
700.87	5696.86
701.00	5687.50
701.13	5696.86
701.26	5643.03
701.40	5694.52
701.53	5633.67
701.66	5563.45
701.79	5750.70
701.93	5680.48
702.06	5767.08
702.19	5600.90
702.32	5565.79
702.46	5481.53
702.59	5387.91
702.72	5430.04
702.85	5355.15
702.99	5289.61
703.12	5408.98
703.25	5320.04
703.38	5327.06
703.51	5345.78
703.65	5423.02
703.78	5411.32
703.91	5371.53
704.04	5359.83
704.17	5224.08
704.31	5259.18
704.44	5062.58
704.57	5317.70
704.70	5097.69
704.83	4992.36
704.96	5057.90
705.10	5062.58
705.23	5039.17
>>>>>End Processed Spectral Data<<<<<
