SpectraSuite Data File
++++++++++++++++++++++++++++++++++++
Date: Thu Oct 24 13:21:06 EDT 2013
User: stostad
Dark Spectrum Present: No
Reference Spectrum Present: No
Number of Sampled Component Spectra: 1
Spectrometers: USB2+H05261
Integration Time (usec): 100000 (USB2+H05261)
Spectra Averaged: 1 (USB2+H05261)
Boxcar Smoothing: 0 (USB2+H05261)
Correct for Electrical Dark: No (USB2+H05261)
Strobe/Lamp Enabled: No (USB2+H05261)
Correct for Detector Non-linearity: No (USB2+H05261)
Correct for Stray Light: No (USB2+H05261)
Number of Pixels in Processed Spectrum: 2048
>>>>>Begin Processed Spectral Data<<<<<
365.73	573.43
365.92	573.43
366.12	573.43
366.32	456.40
366.52	496.19
366.72	493.85
366.91	437.68
367.11	503.22
367.31	554.71
367.51	444.70
367.70	472.79
367.90	507.90
368.10	465.77
368.30	435.34
368.49	486.83
368.69	510.24
368.89	519.60
369.09	524.28
369.28	540.66
369.48	440.02
369.68	505.56
369.87	493.85
370.07	573.43
370.27	585.13
370.47	620.24
370.66	734.93
370.86	662.37
371.06	725.57
371.25	779.40
371.45	671.73
371.65	699.82
371.84	718.54
372.04	697.48
372.24	737.27
372.44	744.29
372.63	833.23
372.83	826.21
373.03	760.67
373.22	767.70
373.42	772.38
373.62	844.93
373.81	826.21
374.01	814.51
374.21	798.12
374.40	734.93
374.60	896.43
374.79	777.06
374.99	767.70
375.19	763.01
375.38	763.01
375.58	823.87
375.78	844.93
375.97	786.42
376.17	837.91
376.37	812.17
376.56	819.19
376.76	847.27
376.95	828.55
377.15	819.19
377.35	732.59
377.54	793.44
377.74	812.17
377.93	837.91
378.13	826.21
378.33	816.85
378.52	772.38
378.72	807.48
378.91	837.91
379.11	793.44
379.31	849.61
379.50	753.65
379.70	884.72
379.89	873.02
380.09	912.81
380.28	819.19
380.48	858.98
380.68	870.68
380.87	786.42
381.07	924.51
381.26	858.98
381.46	887.06
381.65	870.68
381.85	870.68
382.04	903.45
382.24	861.32
382.43	908.13
382.63	926.85
382.83	873.02
383.02	802.80
383.22	891.74
383.41	856.64
383.61	854.30
383.80	922.17
384.00	889.40
384.19	877.70
384.39	898.77
384.58	922.17
384.78	882.38
384.97	854.30
385.17	877.70
385.36	990.05
385.56	919.83
385.75	936.21
385.95	891.74
386.14	971.32
386.34	966.64
386.53	992.39
386.72	880.04
386.92	912.81
387.11	898.77
387.31	926.85
387.50	992.39
387.70	915.15
387.89	978.34
388.09	915.15
388.28	940.90
388.48	880.04
388.67	919.83
388.86	1015.79
389.06	950.26
389.25	922.17
389.45	1006.43
389.64	966.64
389.84	912.81
390.03	1025.15
390.22	1004.09
390.42	990.05
390.61	980.68
390.81	1006.43
391.00	1071.97
391.19	938.55
391.39	1043.88
391.58	1046.22
391.78	1025.15
391.97	1025.15
392.16	990.05
392.36	1041.54
392.55	992.39
392.75	994.73
392.94	1006.43
393.13	1006.43
393.33	1069.62
393.52	1001.75
393.71	1086.01
393.91	1088.35
394.10	1053.24
394.29	1104.73
394.49	1006.43
394.68	1036.86
394.88	1088.35
395.07	1151.54
395.26	1074.31
395.46	1057.92
395.65	1118.78
395.84	1125.80
396.04	1111.75
396.23	1111.75
396.42	1156.22
396.62	1139.84
396.81	1041.54
397.00	1104.73
397.19	1090.69
397.39	1121.12
397.58	1165.59
397.77	1139.84
397.97	1069.62
398.16	1151.54
398.35	1181.97
398.55	1210.06
398.74	1151.54
398.93	1165.59
399.12	1158.57
399.32	1142.18
399.51	1221.76
399.70	1217.08
399.90	1121.12
400.09	1153.88
400.28	1158.57
400.47	1198.35
400.67	1224.10
400.86	1217.08
401.05	1214.74
401.24	1165.59
401.44	1231.12
401.63	1238.14
401.82	1228.78
402.01	1254.53
402.21	1373.89
402.40	1240.48
402.59	1217.08
402.78	1362.19
402.97	1308.36
403.17	1261.55
403.36	1317.72
403.55	1303.68
403.74	1406.66
403.93	1324.74
404.13	1299.00
404.32	1427.73
404.51	1357.51
404.70	1338.79
404.89	1437.09
405.09	1420.71
405.28	1416.02
405.47	1409.00
405.66	1338.79
405.85	1420.71
406.05	1423.05
406.24	1444.11
406.43	1455.81
406.62	1455.81
406.81	1490.92
407.00	1430.07
407.20	1444.11
407.39	1467.52
407.58	1514.33
407.77	1434.75
407.96	1439.43
408.15	1502.62
408.34	1509.65
408.54	1497.94
408.73	1530.71
408.92	1554.12
409.11	1521.35
409.30	1577.52
409.49	1519.01
409.68	1591.56
409.87	1542.41
410.07	1598.59
410.26	1568.16
410.45	1666.46
410.64	1645.40
410.83	1640.72
411.02	1598.59
411.21	1701.57
411.40	1614.97
411.59	1535.39
411.78	1584.54
411.98	1605.61
412.17	1633.69
412.36	1682.85
412.55	1699.23
412.74	1764.76
412.93	1776.47
413.12	1748.38
413.31	1748.38
413.50	1778.81
413.69	1867.75
413.88	1781.15
414.07	1863.07
414.26	1715.61
414.45	1804.55
414.64	1748.38
414.83	1834.98
415.02	1872.43
415.22	1877.11
415.41	1802.21
415.60	1928.60
415.79	1921.58
415.98	1956.69
416.17	1940.30
416.36	1886.47
416.55	1888.81
416.74	1930.94
416.93	1905.20
417.12	2085.42
417.31	1966.05
417.50	2050.31
417.69	2115.84
417.88	2019.88
418.07	2069.03
418.26	2022.22
418.45	2087.76
418.64	2150.95
418.83	2104.14
419.02	2064.35
419.21	2120.53
419.39	2050.31
419.58	2097.12
419.77	2064.35
419.96	2143.93
420.15	2136.91
420.34	2118.18
420.53	2113.50
420.72	2307.77
420.91	2237.55
421.10	2197.76
421.29	2260.96
421.48	2083.08
421.67	2223.51
421.86	2232.87
422.05	2214.15
422.24	2214.15
422.43	2221.17
422.61	2258.62
422.80	2263.30
422.99	2291.38
423.18	2326.49
423.37	2284.36
423.56	2244.57
423.75	2324.15
423.94	2253.94
424.13	2176.70
424.32	2239.89
424.50	2256.28
424.69	2160.31
424.88	2300.75
425.07	2260.96
425.26	2289.04
425.45	2338.20
425.64	2214.15
425.83	2242.23
426.01	2275.00
426.20	2321.81
426.39	2183.72
426.58	2349.90
426.77	2289.04
426.96	2333.51
427.15	2289.04
427.33	2382.67
427.52	2476.29
427.71	2452.88
427.90	2394.37
428.09	2438.84
428.28	2413.09
428.46	2480.97
428.65	2478.63
428.84	2420.11
429.03	2436.50
429.22	2462.24
429.40	2436.50
429.59	2469.27
429.78	2363.94
429.97	2338.20
430.16	2399.05
430.34	2581.61
430.53	2473.95
430.72	2483.31
430.91	2487.99
431.10	2487.99
431.28	2473.95
431.47	2546.50
431.66	2560.55
431.85	2597.99
432.03	2672.89
432.22	2654.17
432.41	2551.18
432.60	2609.70
432.79	2569.91
432.97	2663.53
433.16	2628.42
433.35	2574.59
433.54	2642.46
433.72	2691.62
433.91	2644.81
434.10	2626.08
434.28	2661.19
434.47	2698.64
434.66	2747.79
434.85	2892.90
435.03	2918.65
435.22	3040.36
435.41	3150.36
435.59	3108.23
435.78	3126.96
435.97	3101.21
436.16	2911.63
436.34	2736.09
436.53	2818.00
436.72	2892.90
436.90	2684.59
437.09	2881.20
437.28	2810.98
437.46	2888.22
437.65	2869.50
437.84	2942.05
438.02	2911.63
438.21	2871.84
438.40	2829.71
438.58	2949.08
438.77	2993.55
438.96	2897.58
439.14	3070.78
439.33	3103.55
439.52	3073.12
439.70	3124.62
439.89	3075.46
440.08	3089.51
440.26	3070.78
440.45	3098.87
440.63	3126.96
440.82	3129.30
441.01	3066.10
441.19	3213.56
441.38	3194.83
441.57	3309.52
441.75	3241.64
441.94	3344.63
442.12	3283.77
442.31	3332.92
442.50	3307.18
442.68	3304.84
442.87	3300.16
443.05	3316.54
443.24	3428.88
443.43	3389.10
443.61	3323.56
443.80	3559.95
443.98	3321.22
444.17	3194.83
444.35	3382.07
444.54	3442.93
444.73	3328.24
444.91	3386.76
445.10	3316.54
445.28	3405.48
445.47	3337.60
445.65	3346.97
445.84	3358.67
446.02	3503.78
446.21	3375.05
446.39	3405.48
446.58	3510.80
446.77	3569.32
446.95	3485.06
447.14	3482.72
447.32	3473.36
447.51	3471.01
447.69	3433.57
447.88	3566.98
448.06	3616.13
448.25	3529.53
448.43	3543.57
448.62	3414.84
448.80	3414.84
448.99	3510.80
449.17	3489.74
449.36	3602.08
449.54	3510.80
449.73	3569.32
449.91	3613.79
450.10	3566.98
450.28	3719.11
450.46	3723.79
450.65	3653.58
450.83	3747.20
451.02	3606.77
451.20	3693.37
451.39	3641.87
451.57	3655.92
451.76	3620.81
451.94	3655.92
452.13	3590.38
452.31	3833.80
452.49	3662.94
452.68	3733.15
452.86	3791.67
453.05	3684.00
453.23	3709.75
453.42	3826.78
453.60	3737.84
453.78	3758.90
453.97	3712.09
454.15	3772.94
454.34	3733.15
454.52	3974.23
454.70	3770.60
454.89	3878.27
455.07	3908.69
455.26	4007.00
455.44	3918.06
455.62	3873.59
455.81	3854.86
455.99	3932.10
456.17	3941.46
456.36	4030.40
456.54	4121.68
456.73	4035.08
456.91	4112.32
457.09	4219.99
457.28	4159.13
457.46	3929.76
457.64	4135.73
457.83	4035.08
458.01	4004.66
458.19	4264.46
458.38	4098.28
458.56	4161.47
458.74	4159.13
458.93	4264.46
459.11	4229.35
459.29	4313.61
459.48	4315.95
459.66	4184.88
459.84	4231.69
460.03	4402.55
460.21	4369.78
460.39	4440.00
460.57	4369.78
460.76	4327.65
460.94	4334.67
461.12	4332.33
461.31	4355.74
461.49	4245.73
461.67	4358.08
461.85	4407.23
462.04	4353.40
462.22	4699.80
462.40	4393.19
462.59	4624.90
462.77	4479.79
462.95	4622.56
463.13	4449.36
463.32	4461.06
463.50	4596.81
463.68	4582.77
463.86	4416.59
464.05	4423.61
464.23	4559.36
464.41	4503.19
464.59	4493.83
464.78	4603.83
464.96	4617.88
465.14	4517.23
465.32	4704.48
465.50	4683.41
465.69	4552.34
465.87	4545.32
466.05	4540.64
466.23	4631.92
466.41	4568.73
466.60	4844.91
466.78	4585.11
466.96	4697.46
467.14	4587.45
467.32	4702.14
467.51	4791.08
467.69	4652.98
467.87	4784.06
468.05	4809.80
468.23	4816.82
468.41	4870.65
468.60	4774.69
468.78	5006.41
468.96	4746.61
469.14	4802.78
469.32	4819.16
469.50	4678.73
469.69	4847.25
469.87	4896.40
470.05	4957.25
470.23	4992.36
470.41	4990.02
470.59	5097.69
470.77	4994.70
470.95	4915.12
471.14	5177.26
471.32	4952.57
471.50	5076.62
471.68	5107.05
471.86	5226.42
472.04	5132.79
472.22	5259.18
472.40	5263.86
472.58	5287.27
472.77	5397.28
472.95	5359.83
473.13	5263.86
473.31	5240.46
473.49	5315.36
473.67	5444.09
473.85	5256.84
474.03	5401.96
474.21	5364.51
474.39	5523.66
474.57	5668.78
474.75	5610.26
474.93	5514.30
475.12	5603.24
475.30	5617.29
475.48	5654.73
475.66	5748.36
475.84	5694.52
476.02	5827.93
476.20	5715.59
476.38	5877.09
476.56	6113.48
476.74	5881.77
476.92	6080.71
477.10	6026.88
477.28	6127.52
477.46	5813.89
477.64	5902.83
477.82	6031.56
478.00	6265.61
478.18	6249.23
478.36	6080.71
478.54	6267.95
478.72	6197.74
478.90	6312.42
479.08	6413.07
479.26	6476.26
479.44	6595.63
479.62	6600.31
479.80	6469.24
479.98	6619.04
480.16	6829.68
480.34	6541.80
480.52	6642.44
480.70	6857.77
480.88	6707.98
481.06	6707.98
481.24	6677.55
481.41	6913.94
481.59	6815.64
481.77	7063.74
481.95	7047.35
482.13	7213.53
482.31	7136.29
482.49	7386.73
482.67	7337.58
482.85	7173.74
483.03	7463.97
483.21	7524.82
483.39	7625.47
483.57	7478.01
483.74	7529.50
483.92	7829.09
484.10	7602.06
484.28	7698.02
484.46	7868.88
484.64	7974.21
484.82	7922.71
485.00	8028.04
485.18	8098.25
485.35	8161.45
485.53	8208.26
485.71	8177.83
485.89	8454.02
486.07	8308.90
486.25	8273.79
486.43	8404.86
486.61	8599.13
486.78	8470.40
486.96	8645.94
487.14	8774.67
487.32	8725.52
487.50	8690.41
487.68	8711.47
487.85	9006.38
488.03	8945.53
488.21	9191.28
488.39	9022.77
488.57	9263.84
488.75	9195.96
488.92	9327.03
489.10	9427.68
489.28	9240.44
489.46	9605.56
489.64	9207.67
489.81	9750.67
489.99	9708.54
490.17	9652.37
490.35	9966.00
490.53	9825.57
490.70	10099.41
490.88	9930.89
491.06	10083.03
491.24	10022.17
491.41	10204.74
491.59	10303.04
491.77	10085.37
491.95	10375.59
492.13	10401.34
492.30	10544.11
492.48	10312.40
492.66	10485.60
492.84	10539.43
493.01	10593.26
493.19	10516.03
493.37	10602.63
493.54	10953.71
493.72	10855.40
493.90	10967.75
494.08	10972.43
494.25	11084.78
494.43	10885.83
494.61	11103.50
494.79	11269.68
494.96	11257.98
495.14	11159.67
495.32	11211.17
495.49	11463.94
495.67	11557.57
495.85	11309.47
496.02	11372.66
496.20	11768.21
496.38	11899.28
496.55	11709.70
496.73	11981.20
496.91	11960.14
497.09	12257.39
497.26	12140.36
497.44	12053.76
497.62	12163.76
497.79	12093.55
497.97	12011.63
498.14	12196.53
498.32	12217.60
498.50	12421.22
498.67	12547.61
498.85	12372.07
499.03	12725.49
499.20	12559.31
499.38	12585.06
499.56	12744.22
499.73	12762.94
499.91	12805.07
500.08	12980.61
500.26	12886.99
500.44	12762.94
500.61	12926.78
500.79	13069.55
500.97	13020.40
501.14	13249.77
501.32	13057.85
501.49	13102.32
501.67	13252.11
501.84	13114.02
502.02	13362.12
502.20	13600.85
502.37	13631.28
502.55	13231.05
502.72	13298.92
502.90	13476.80
503.07	13228.71
503.25	13504.89
503.43	13640.64
503.60	13523.62
503.78	13600.85
503.95	13603.19
504.13	13844.27
504.30	13984.70
504.48	13673.41
504.65	13806.82
504.83	14036.19
505.01	14106.41
505.18	14111.09
505.36	14005.77
505.53	14113.43
505.71	14232.80
505.88	14389.61
506.06	14047.90
506.23	14342.80
506.41	14176.62
506.58	14338.12
506.76	14335.78
506.93	14366.21
507.11	14586.22
507.28	14427.06
507.46	14579.20
507.63	14817.93
507.81	14633.03
507.98	14651.75
508.16	14544.09
508.33	14764.10
508.50	14843.68
508.68	15007.52
508.85	14967.73
509.03	14939.64
509.20	14839.00
509.38	15066.03
509.55	15131.56
509.73	15133.90
509.90	15318.81
510.08	15269.66
510.25	15229.87
510.42	15124.54
510.60	15260.29
510.77	15288.38
510.95	15627.76
511.12	15290.72
511.30	15351.57
511.47	15396.04
511.64	15445.20
511.82	15583.29
511.99	15634.78
512.17	15585.63
512.34	15590.31
512.51	15676.91
512.69	15831.38
512.86	16119.27
513.04	16128.63
513.21	15915.64
513.38	15646.48
513.56	16292.47
513.73	15859.47
513.90	16257.36
514.08	15824.36
514.25	16290.13
514.43	16269.06
514.60	16360.34
514.77	16109.91
514.95	16322.90
515.12	16137.99
515.29	16388.43
515.47	16393.11
515.64	16711.42
515.81	16493.76
515.99	16580.36
516.16	16657.59
516.33	16453.97
516.51	16779.30
516.68	16549.93
516.85	16573.33
517.03	16765.26
517.20	16844.84
517.37	16776.96
517.54	16762.92
517.72	16854.20
517.89	16945.48
518.06	17095.27
518.24	17116.34
518.41	16844.84
518.58	16865.90
518.75	16868.24
518.93	16908.03
519.10	16833.13
519.27	16924.41
519.45	17256.77
519.62	17310.60
519.79	17238.05
519.96	17282.52
520.14	17357.41
520.31	17158.47
520.48	17212.30
520.65	17315.28
520.83	17586.79
521.00	17727.22
521.17	17341.03
521.34	17322.30
521.52	17516.57
521.69	17809.14
521.86	17565.72
522.03	17731.90
522.20	17862.97
522.38	17556.36
522.55	17687.43
522.72	17682.75
522.89	17996.38
523.07	18225.75
523.24	17820.84
523.41	18087.66
523.58	17923.82
523.75	18061.91
523.92	17961.27
524.10	18045.53
524.27	17919.14
524.44	18246.82
524.61	18520.66
524.78	18087.66
524.96	18036.17
525.13	18382.57
525.30	18579.17
525.47	18293.63
525.64	18267.88
525.81	18707.90
525.98	18218.73
526.16	18160.22
526.33	18497.25
526.50	18497.25
526.67	18263.20
526.84	18551.09
527.01	18590.88
527.18	18633.00
527.36	18593.22
527.53	18759.39
527.70	18375.55
527.87	18946.64
528.04	19122.18
528.21	18909.19
528.38	18951.32
528.55	18689.18
528.72	18738.33
528.89	19098.77
529.07	18909.19
529.24	18888.12
529.41	18876.42
529.58	18958.34
529.75	19257.93
529.92	19201.76
530.09	19140.90
530.26	19105.79
530.43	19094.09
530.60	19033.24
530.77	18916.21
530.94	19620.71
531.11	19489.64
531.28	19208.78
531.46	19454.53
531.63	19339.85
531.80	19410.06
531.97	19274.31
532.14	19433.47
532.31	19403.04
532.48	19421.77
532.65	19564.54
532.82	19218.14
532.99	19384.32
533.16	19536.45
533.33	19489.64
533.50	19599.65
533.67	19611.35
533.84	19309.42
534.01	19501.34
534.18	19627.73
534.35	20037.33
534.52	19601.99
534.69	19793.91
534.86	19765.82
535.03	19484.96
535.20	19934.34
535.37	19854.76
535.54	20299.47
535.71	20067.75
535.88	20360.32
536.05	20173.08
536.22	19917.96
536.38	20255.00
536.55	20086.48
536.72	20257.34
536.89	20482.03
537.06	20102.86
537.23	20489.05
537.40	20130.95
537.57	20266.70
537.74	19924.98
537.91	20336.91
538.08	20294.79
538.25	20332.23
538.42	20353.30
538.59	20563.95
538.75	20460.96
538.92	20400.11
539.09	20540.54
539.26	20666.93
539.43	20718.42
539.60	20657.57
539.77	20659.91
539.94	20905.66
540.11	20741.83
540.28	20896.30
540.44	20781.62
540.61	20926.73
540.78	20739.49
540.95	20638.84
541.12	21104.61
541.29	20950.14
541.46	21493.14
541.62	21383.13
541.79	21486.12
541.96	21493.14
542.13	21413.56
542.30	21291.85
542.47	21156.10
542.63	21130.36
542.80	21429.94
542.97	21930.82
543.14	21645.27
543.31	21745.92
543.48	21514.20
543.64	21738.90
543.81	21816.13
543.98	21743.58
544.15	21624.21
544.32	21867.63
544.48	22003.38
544.65	21851.24
544.82	21577.40
544.99	21315.26
545.16	22043.17
545.32	21720.17
545.49	22274.88
545.66	22799.16
545.83	23143.22
546.00	22752.35
546.16	22595.53
546.33	22335.73
546.50	22188.28
546.67	22167.21
546.83	21645.27
547.00	21788.05
547.17	21809.11
547.34	22022.10
547.50	22022.10
547.67	22017.42
547.84	21774.00
548.00	22167.21
548.17	22324.03
548.34	21982.31
548.51	22143.81
548.67	21912.10
548.84	21914.44
549.01	22047.85
549.18	22279.56
549.34	21968.27
549.51	22146.15
549.68	22319.35
549.84	22038.48
550.01	22181.26
550.18	21757.62
550.34	22029.12
550.51	21940.18
550.68	22216.36
550.84	22195.30
551.01	22249.13
551.18	22237.43
551.34	22188.28
551.51	22139.13
551.68	21865.28
551.84	22178.92
552.01	21975.29
552.18	22216.36
552.34	22111.04
552.51	22593.19
552.68	22555.74
552.84	22471.48
553.01	22656.39
553.18	22199.98
553.34	22492.55
553.51	22312.33
553.67	22396.59
553.84	22607.23
554.01	22731.28
554.17	22417.65
554.34	22625.96
554.51	22647.02
554.67	22806.18
554.84	22434.03
555.00	22466.80
555.17	22342.75
555.33	22703.20
555.50	22499.57
555.67	22043.17
555.83	22555.74
556.00	22635.32
556.16	22553.40
556.33	22602.55
556.50	22492.55
556.66	22787.46
556.83	22485.53
556.99	22813.20
557.16	22967.68
557.32	22693.83
557.49	22682.13
557.65	22693.83
557.82	22728.94
557.98	22848.31
558.15	22403.61
558.32	22813.20
558.48	22558.08
558.65	22941.93
558.81	22918.53
558.98	22579.15
559.14	22691.49
559.31	22955.97
559.47	22752.35
559.64	22817.88
559.80	23028.53
559.97	22813.20
560.13	22817.88
560.30	23000.44
560.46	22771.07
560.63	22927.89
560.79	22817.88
560.96	22771.07
561.12	23084.70
561.29	22878.74
561.45	23105.77
561.61	23204.07
561.78	23103.43
561.94	23232.16
562.11	23136.20
562.27	23388.97
562.44	23381.95
562.60	22909.16
562.77	23349.18
562.93	23115.13
563.10	23386.63
563.26	22892.78
563.42	23110.45
563.59	23204.07
563.75	23033.21
563.92	23381.95
564.08	23161.94
564.24	23122.15
564.41	23016.83
564.57	23070.66
564.74	23232.16
564.90	23236.84
565.07	23384.29
565.23	23274.29
565.39	23349.18
565.56	23461.53
565.72	22988.74
565.88	23517.70
566.05	23587.92
566.21	23201.73
566.38	23417.06
566.54	23285.99
566.70	23548.13
566.87	23452.17
567.03	23058.96
567.19	23922.62
567.36	23644.09
567.52	23566.85
567.68	23653.45
567.85	23496.64
568.01	23316.42
568.17	23288.33
568.34	23101.09
568.50	23232.16
568.66	23332.80
568.83	23557.49
568.99	23447.49
569.15	23302.37
569.32	23152.58
569.48	23374.93
569.64	23307.05
569.81	23187.69
569.97	23449.83
570.13	23381.95
570.30	23288.33
570.46	23616.01
570.62	23253.22
570.78	23459.19
570.95	23307.05
571.11	23466.21
571.27	23257.90
571.43	23496.64
571.60	23330.46
571.76	23569.19
571.92	23648.77
572.09	23459.19
572.25	23606.64
572.41	23597.28
572.57	23618.35
572.74	23985.81
572.90	23400.68
573.06	23529.41
573.22	23447.49
573.38	23559.83
573.55	23232.16
573.71	23587.92
573.87	23688.56
574.03	23468.55
574.20	23297.69
574.36	23653.45
574.52	23454.51
574.68	23592.60
574.84	23772.82
575.01	23545.79
575.17	23697.92
575.33	23426.42
575.49	23475.57
575.65	23793.89
575.82	23962.40
575.98	23454.51
576.14	23798.57
576.30	23791.55
576.46	23723.67
576.62	23700.26
576.79	23866.44
576.95	23777.50
577.11	23704.95
577.27	23847.72
577.43	23824.31
577.59	24039.64
577.75	23644.09
577.92	23871.12
578.08	23716.65
578.24	23674.52
578.40	23604.30
578.56	23735.37
578.72	24095.82
578.88	23728.35
579.04	23901.55
579.21	23913.25
579.37	23665.16
579.53	23836.02
579.69	23688.56
579.85	23953.04
580.01	23452.17
580.17	23634.73
580.33	23852.40
580.49	23810.27
580.65	23751.76
580.82	23449.83
580.98	23756.44
581.14	23527.06
581.30	23934.32
581.46	23875.80
581.62	23690.90
581.78	23552.81
581.94	23667.50
582.10	23508.34
582.26	24112.20
582.42	23658.14
582.58	23501.32
582.74	23859.42
582.90	23796.23
583.06	24034.96
583.22	23604.30
583.38	23641.75
583.54	23625.37
583.70	23901.55
583.86	23686.22
584.02	23810.27
584.18	23943.68
584.34	23826.65
584.50	23861.76
584.66	23426.42
584.82	23433.44
584.98	23728.35
585.14	23847.72
585.30	23924.96
585.46	23793.89
585.62	23623.03
585.78	23761.12
585.94	23967.09
586.10	24049.00
586.26	24116.88
586.42	23737.71
586.58	24037.30
586.74	23644.09
586.90	23908.57
587.06	23906.23
587.22	23964.75
587.38	23885.17
587.54	24039.64
587.70	24114.54
587.86	24166.03
588.02	24243.27
588.18	24091.13
588.34	23896.87
588.49	23833.68
588.65	23929.64
588.81	23800.91
588.97	24229.23
589.13	23674.52
589.29	23920.28
589.45	24215.18
589.61	23793.89
589.77	24166.03
589.93	24100.50
590.08	23545.79
590.24	24149.65
590.40	24196.46
590.56	24018.58
590.72	23721.33
590.88	23601.96
591.04	23934.32
591.20	24386.04
591.35	23981.13
591.51	24407.11
591.67	24170.71
591.83	24208.16
591.99	23990.49
592.15	24060.71
592.31	24149.65
592.46	23953.04
592.62	23791.55
592.78	24133.26
592.94	23800.91
593.10	24341.57
593.26	24414.13
593.41	23939.00
593.57	24271.36
593.73	23936.66
593.89	24231.57
594.05	24416.47
594.20	24159.01
594.36	24112.20
594.52	23992.83
594.68	23892.19
594.84	23866.44
594.99	23967.09
595.15	23871.12
595.31	24341.57
595.47	24458.60
595.62	23854.74
595.78	23978.79
595.94	23969.43
596.10	23782.18
596.25	23754.10
596.41	23924.96
596.57	24130.92
596.73	24222.20
596.88	24091.13
597.04	24072.41
597.20	23992.83
597.36	24173.05
597.51	24526.47
597.67	24416.47
597.83	24114.54
597.99	23915.59
598.14	24102.84
598.30	24013.90
598.46	24407.11
598.61	24023.26
598.77	24060.71
598.93	24027.94
599.09	24222.20
599.24	24425.83
599.40	24049.00
599.56	24222.20
599.71	24154.33
599.87	24147.31
600.03	23992.83
600.18	23910.91
600.34	24184.76
600.50	24060.71
600.65	24231.57
600.81	24161.35
600.97	24343.91
601.12	24201.14
601.28	24060.71
601.44	24360.30
601.59	24032.62
601.75	23992.83
601.91	24079.43
602.06	24032.62
602.22	24100.50
602.37	24016.24
602.53	23903.89
602.69	24416.47
602.84	24397.74
603.00	24126.24
603.16	24322.85
603.31	24315.83
603.47	24030.28
603.62	23896.87
603.78	24231.57
603.94	24093.47
604.09	24247.95
604.25	24081.77
604.40	23992.83
604.56	23859.42
604.71	23782.18
604.87	24039.64
605.03	24147.31
605.18	24402.43
605.34	24334.55
605.49	23880.49
605.65	24121.56
605.80	23828.99
605.96	24067.73
606.12	23997.51
606.27	24751.17
606.43	24182.42
606.58	24299.44
606.74	24451.58
606.89	24018.58
607.05	24009.22
607.20	23751.76
607.36	23571.54
607.51	23964.75
607.67	24034.96
607.82	24622.44
607.98	24348.59
608.13	23826.65
608.29	24116.88
608.44	23836.02
608.60	24149.65
608.75	24135.60
608.91	24219.86
609.06	23885.17
609.22	24058.37
609.37	23639.41
609.53	24053.69
609.68	24184.76
609.84	23789.20
609.99	24252.63
610.15	23978.79
610.30	24341.57
610.46	24500.73
610.61	24496.05
610.76	24830.74
610.92	24898.62
611.07	25022.67
611.23	25057.78
611.38	25142.03
611.54	25135.01
611.69	24950.11
611.84	24643.50
612.00	24884.58
612.15	24374.34
612.31	24580.31
612.46	24372.00
612.62	24292.42
612.77	24315.83
612.92	24575.62
613.08	23850.06
613.23	23899.21
613.39	24093.47
613.54	24051.34
613.69	23960.06
613.85	23868.78
614.00	24053.69
614.15	24046.66
614.31	23960.06
614.46	24168.37
614.62	23910.91
614.77	24187.10
614.92	23676.86
615.08	23899.21
615.23	23971.77
615.38	23850.06
615.54	23356.21
615.69	23604.30
615.84	23419.40
616.00	23700.26
616.15	23412.38
616.30	23873.46
616.46	23723.67
616.61	22923.21
616.76	23447.49
616.92	23372.59
617.07	23463.87
617.22	23688.56
617.37	23302.37
617.53	23218.11
617.68	23391.31
617.83	23419.40
617.99	23374.93
618.14	23269.61
618.29	23578.56
618.45	23197.05
618.60	23269.61
618.75	23426.42
618.90	23019.17
619.06	23215.77
619.21	22960.66
619.36	23330.46
619.51	22785.12
619.67	23037.89
619.82	23204.07
619.97	23164.28
620.12	22848.31
620.28	23349.18
620.43	23307.05
620.58	23506.00
620.73	23550.47
620.89	23264.92
621.04	23159.60
621.19	23068.32
621.34	23073.00
621.49	22862.35
621.65	23021.51
621.80	23131.51
621.95	22934.91
622.10	22665.75
622.25	22675.11
622.41	22824.90
622.56	22836.61
622.71	22934.91
622.86	22918.53
623.01	22991.08
623.16	22654.05
623.32	22403.61
623.47	23206.41
623.62	22904.48
623.77	22787.46
623.92	22817.88
624.07	22759.37
624.23	22773.41
624.38	22806.18
624.53	22534.68
624.68	22719.58
624.83	23035.55
624.98	22455.10
625.13	22513.61
625.29	22499.57
625.44	22520.63
625.59	22789.80
625.74	22448.08
625.89	22876.40
626.04	22370.84
626.19	22675.11
626.34	22403.61
626.49	22300.62
626.65	22307.65
626.80	22469.14
626.95	22473.82
627.10	22207.00
627.25	22391.91
627.40	22326.37
627.55	22232.75
627.70	22490.21
627.85	22115.72
628.00	22361.48
628.15	22520.63
628.30	22375.52
628.45	22277.22
628.60	22225.73
628.76	22204.66
628.91	22192.96
629.06	22162.53
629.21	22038.48
629.36	21869.97
629.51	22239.77
629.66	22298.28
629.81	22127.42
629.96	22204.66
630.11	22031.46
630.26	22520.63
630.41	22029.12
630.56	22078.27
630.71	22214.02
630.86	22183.60
631.01	22202.32
631.16	22022.10
631.31	21979.97
631.46	21902.73
631.61	21851.24
631.76	22134.45
631.91	21888.69
632.06	21914.44
632.21	22153.17
632.36	21951.88
632.51	21642.93
632.66	21788.05
632.81	21689.74
632.96	21837.20
633.10	21493.14
633.25	21682.72
633.40	21343.35
633.55	21631.23
633.70	21443.99
633.85	21841.88
634.00	21525.91
634.15	21998.70
634.30	21685.06
634.45	21764.64
634.60	21645.27
634.75	21673.36
634.90	21436.97
635.05	21685.06
635.19	21507.18
635.34	21656.98
635.49	21303.56
635.64	21460.37
635.79	21486.12
635.94	21266.11
636.09	21455.69
636.24	20975.88
636.39	21387.82
636.53	21223.98
636.68	21509.52
636.83	21242.70
636.98	21551.65
637.13	21436.97
637.28	21446.33
637.43	21188.87
637.57	21226.32
637.72	20980.56
637.87	21060.14
638.02	21546.97
638.17	21666.34
638.32	21301.22
638.46	21003.97
638.61	20800.34
638.76	21116.31
638.91	21209.93
639.06	21551.65
639.20	21561.02
639.35	21551.65
639.50	21336.32
639.65	20877.58
639.80	21053.12
639.94	21226.32
640.09	20999.29
640.24	20954.82
640.39	21277.81
640.54	20996.95
640.68	20683.31
640.83	21153.76
640.98	21013.33
641.13	20900.98
641.27	20870.56
641.42	20889.28
641.57	20842.47
641.72	20664.59
641.86	20271.38
642.01	20379.04
642.16	20561.61
642.31	20793.32
642.45	20912.69
642.60	20500.75
642.75	20947.79
642.90	21146.74
643.04	20943.11
643.19	21006.31
643.34	21078.86
643.48	21249.72
643.63	20844.81
643.78	20460.96
643.93	20753.53
644.07	20397.77
644.22	20538.20
644.37	20430.54
644.51	20821.41
644.66	20650.55
644.81	20423.51
644.95	20577.99
645.10	20535.86
645.25	20755.87
645.39	20540.54
645.54	20467.98
645.69	20692.68
645.83	20397.77
645.98	20697.36
646.13	20585.01
646.27	20760.55
646.42	20470.33
646.57	20365.00
646.71	20245.63
646.86	20512.46
647.00	20657.57
647.15	20666.93
647.30	20648.21
647.44	20521.82
647.59	20365.00
647.74	20519.48
647.88	20198.82
648.03	20437.56
648.17	20252.66
648.32	20009.24
648.47	20105.20
648.61	20299.47
648.76	20374.36
648.90	20257.34
649.05	20699.70
649.20	20533.52
649.34	20491.39
649.49	20414.15
649.63	20678.63
649.78	20287.76
649.92	20308.83
650.07	20783.96
650.21	20063.07
650.36	20283.08
650.51	20070.09
650.65	20252.66
650.80	20350.96
650.94	19927.32
651.09	20060.73
651.23	20025.62
651.38	20119.24
651.52	19969.45
651.67	20128.61
651.81	20063.07
651.96	20121.59
652.10	20222.23
652.25	20191.80
652.39	19749.44
652.54	19616.03
652.68	19491.98
652.83	19571.56
652.97	19723.69
653.12	19955.41
653.26	20159.03
653.41	20072.43
653.55	20161.37
653.70	19910.94
653.84	19433.47
653.99	19770.51
654.13	19833.70
654.27	20009.24
654.42	19969.45
654.56	19587.94
654.71	19805.61
654.85	19934.34
655.00	19999.88
655.14	20002.22
655.29	19435.81
655.43	19826.68
655.57	19964.77
655.72	19618.37
655.86	19555.18
656.01	19548.15
656.15	19456.87
656.30	19594.96
656.44	19573.90
656.58	19501.34
656.73	19300.06
656.87	19597.31
657.01	19384.32
657.16	19515.39
657.30	19400.70
657.45	19328.14
657.59	19491.98
657.73	19370.27
657.88	19480.28
658.02	19389.00
658.16	19819.66
658.31	19447.51
658.45	19470.92
658.60	19023.87
658.74	19309.42
658.88	19330.48
659.03	19014.51
659.17	19007.49
659.31	19215.80
659.46	19023.87
659.60	19084.73
659.74	18824.93
659.89	18932.59
660.03	19044.94
660.17	18853.02
660.32	18845.99
660.46	19311.76
660.60	19105.79
660.74	19073.03
660.89	18991.11
661.03	18860.04
661.17	18822.59
661.32	18661.09
661.46	18939.62
661.60	18977.06
661.74	18686.84
661.89	18579.17
662.03	18607.26
662.17	18700.88
662.31	18647.05
662.46	18387.25
662.60	18661.09
662.74	18483.21
662.88	18565.13
663.03	18520.66
663.17	18831.95
663.31	18295.97
663.45	18970.04
663.60	18815.57
663.74	18389.59
663.88	18331.08
664.02	18515.98
664.17	18317.03
664.31	18321.71
664.45	17862.97
664.59	18038.51
664.73	17619.55
664.88	18288.95
665.02	17972.97
665.16	18307.67
665.30	18118.09
665.44	18134.47
665.59	17820.84
665.73	18246.82
665.87	17827.86
666.01	17729.56
666.15	18125.11
666.29	18061.91
666.44	18040.85
666.58	17544.66
666.72	17963.61
666.86	18038.51
667.00	17809.14
667.14	17736.58
667.28	17617.21
667.43	17874.67
667.57	18001.06
667.71	18094.68
667.85	17668.70
667.99	17568.06
668.13	17930.84
668.27	17785.73
668.41	17399.54
668.56	17156.13
668.70	17474.44
668.84	17359.75
668.98	17549.34
669.12	17441.67
669.26	17188.89
669.40	17170.17
669.54	17334.01
669.68	17114.00
669.82	17039.10
669.96	17254.43
670.10	17565.72
670.25	17476.78
670.39	17209.96
670.53	17048.46
670.67	17092.93
670.81	17235.70
670.95	17172.51
671.09	16896.33
671.23	17331.67
671.37	16973.56
671.51	17242.73
671.65	16755.90
671.79	16617.80
671.93	16776.96
672.07	16996.97
672.21	16826.11
672.35	16716.11
672.49	16819.09
672.63	16416.52
672.77	16468.01
672.91	16723.13
673.05	16318.22
673.19	16404.81
673.33	16271.40
673.47	16313.53
673.61	16386.09
673.75	16402.47
673.89	16217.57
674.03	16093.52
674.17	16269.06
674.31	16460.99
674.45	16360.34
674.59	16336.94
674.73	16248.00
674.87	16468.01
675.01	16130.97
675.15	16161.40
675.29	16152.04
675.43	16025.65
675.56	15861.81
675.70	16168.42
675.84	15836.06
675.98	15269.66
676.12	15672.23
676.26	15939.05
676.40	15819.68
676.54	15859.47
676.68	15723.72
676.82	15522.43
676.96	15545.84
677.10	15644.14
677.23	15510.73
677.37	15487.32
677.51	15522.43
677.65	15384.34
677.79	15232.21
677.93	14913.89
678.07	15014.54
678.21	15026.24
678.34	14916.23
678.48	14956.02
678.62	14794.53
678.76	14736.01
678.90	15225.18
679.04	15108.16
679.18	14757.08
679.31	14504.30
679.45	14396.64
679.59	14726.65
679.73	14621.33
679.87	14511.32
680.00	14485.58
680.14	14239.82
680.28	14288.97
680.42	14150.88
680.56	14183.65
680.70	14054.92
680.83	14298.33
680.97	14417.70
681.11	14359.19
681.25	14143.86
681.39	13895.76
681.52	14216.41
681.66	14314.72
681.80	14036.19
681.94	14118.11
682.07	13867.67
682.21	13930.87
682.35	13848.95
682.49	14029.17
682.62	14003.43
682.76	13584.47
682.90	13902.78
683.04	13554.04
683.17	13291.90
683.31	13619.58
683.45	13530.64
683.59	13537.66
683.72	13453.40
683.86	13247.43
684.00	13647.66
684.13	13429.99
684.27	13296.58
684.41	13224.03
684.55	13256.79
684.68	13214.66
684.82	12947.84
684.96	12784.01
685.09	12964.23
685.23	13224.03
685.37	13137.43
685.50	12973.59
685.64	12641.23
685.78	12868.27
685.91	12727.83
686.05	12657.62
686.19	12606.13
686.32	12507.82
686.46	12596.76
686.60	12582.72
686.73	12800.39
686.87	12669.32
687.01	12734.85
687.14	12702.09
687.28	12414.20
687.42	12404.84
687.55	12353.35
687.69	12369.73
687.82	12233.98
687.96	12079.50
688.10	12285.47
688.23	12131.00
688.37	11955.46
688.50	12093.55
688.64	11941.41
688.78	12063.12
688.91	11906.31
689.05	11658.21
689.18	11655.87
689.32	11330.53
689.46	11866.52
689.59	11707.36
689.73	11681.61
689.86	11473.31
690.00	11545.86
690.13	11398.41
690.27	11585.65
690.41	11513.10
690.54	11162.01
690.68	11253.30
690.81	11267.34
690.95	11356.28
691.08	11152.65
691.22	10974.77
691.35	10934.98
691.49	11225.21
691.62	10899.87
691.76	11199.46
691.89	11115.20
692.03	11260.32
692.16	10906.90
692.30	11030.94
692.43	10862.43
692.57	10803.91
692.70	10576.88
692.84	10656.46
692.97	10583.90
693.11	10548.79
693.24	10541.77
693.38	10368.57
693.51	10466.88
693.65	10281.97
693.78	10476.24
693.92	10602.63
694.05	10616.67
694.19	10499.64
694.32	10382.62
694.45	10509.01
694.59	10284.31
694.72	10150.90
694.86	9951.96
694.99	10134.52
695.13	10085.37
695.26	10066.64
695.39	10090.05
695.53	9666.41
695.66	9771.74
695.80	9668.75
695.93	9795.14
696.07	9891.10
696.20	9905.15
696.33	9671.09
696.47	9774.08
696.60	9598.54
696.73	9703.86
696.87	9748.33
697.00	9664.07
697.14	9591.52
697.27	9469.81
697.40	9338.74
697.54	9383.21
697.67	9142.13
697.80	9149.15
697.94	9158.52
698.07	9320.01
698.21	9254.48
698.34	9287.25
698.47	9224.05
698.61	9128.09
698.74	9125.75
698.87	9097.66
699.01	9135.11
699.14	9195.96
699.27	9210.01
699.40	9011.06
699.54	9125.75
699.67	8929.14
699.80	8704.45
699.94	8629.56
700.07	8655.30
700.20	8528.91
700.34	8622.53
700.47	8912.76
700.60	8552.32
700.73	8578.06
700.87	8505.51
701.00	8418.91
701.13	8526.57
701.26	8344.01
701.40	8243.37
701.53	8257.41
701.66	8315.92
701.79	8098.25
701.93	8376.78
702.06	8463.38
702.19	8257.41
702.32	8053.78
702.46	8060.80
702.59	7988.25
702.72	7850.16
702.85	8065.49
702.99	7868.88
703.12	7840.79
703.25	7779.94
703.38	7960.16
703.51	7953.14
703.65	7791.64
703.78	7831.43
703.91	7698.02
704.04	7768.24
704.17	7634.83
704.31	7637.17
704.44	7602.06
704.57	7583.34
704.70	7382.05
704.83	7281.41
704.96	7548.23
705.10	7400.77
705.23	7494.40
>>>>>End Processed Spectral Data<<<<<
