SpectraSuite Data File
++++++++++++++++++++++++++++++++++++
Date: Thu Oct 24 13:21:17 EDT 2013
User: stostad
Dark Spectrum Present: No
Reference Spectrum Present: No
Number of Sampled Component Spectra: 1
Spectrometers: USB2+H05261
Integration Time (usec): 100000 (USB2+H05261)
Spectra Averaged: 1 (USB2+H05261)
Boxcar Smoothing: 0 (USB2+H05261)
Correct for Electrical Dark: No (USB2+H05261)
Strobe/Lamp Enabled: No (USB2+H05261)
Correct for Detector Non-linearity: No (USB2+H05261)
Correct for Stray Light: No (USB2+H05261)
Number of Pixels in Processed Spectrum: 2048
>>>>>Begin Processed Spectral Data<<<<<
365.73	587.47
365.92	587.47
366.12	587.47
366.32	491.51
366.52	463.43
366.72	435.34
366.91	465.77
367.11	507.90
367.31	477.47
367.51	468.11
367.70	521.94
367.90	411.93
368.10	531.30
368.30	503.22
368.49	454.06
368.69	468.11
368.89	482.15
369.09	461.09
369.28	554.71
369.48	489.17
369.68	491.51
369.87	496.19
370.07	524.28
370.27	594.50
370.47	589.82
370.66	718.54
370.86	837.91
371.06	777.06
371.25	884.72
371.45	880.04
371.65	809.83
371.84	847.27
372.04	774.72
372.24	809.83
372.44	847.27
372.63	945.58
372.83	875.36
373.03	875.36
373.22	868.34
373.42	826.21
373.62	849.61
373.81	898.77
374.01	842.59
374.21	931.53
374.40	966.64
374.60	978.34
374.79	922.17
374.99	903.45
375.19	898.77
375.38	924.51
375.58	922.17
375.78	1053.24
375.97	910.47
376.17	931.53
376.37	896.43
376.56	929.19
376.76	936.21
376.95	919.83
377.15	924.51
377.35	915.15
377.54	947.92
377.74	966.64
377.93	980.68
378.13	1008.77
378.33	1008.77
378.52	1036.86
378.72	983.02
378.91	936.21
379.11	1020.47
379.31	978.34
379.50	926.85
379.70	957.28
379.89	1018.13
380.09	919.83
380.28	929.19
380.48	1039.20
380.68	994.73
380.87	933.87
381.07	1100.05
381.26	1013.45
381.46	1088.35
381.65	1083.67
381.85	978.34
382.04	987.71
382.24	1076.65
382.43	1008.77
382.63	1039.20
382.83	1078.99
383.02	1041.54
383.22	1095.37
383.41	1078.99
383.61	1062.60
383.80	1111.75
384.00	1064.94
384.19	1093.03
384.39	1071.97
384.58	1097.71
384.78	1064.94
384.97	1146.86
385.17	1088.35
385.36	1011.11
385.56	1174.95
385.75	1081.33
385.95	1011.11
386.14	1090.69
386.34	1074.31
386.53	1158.57
386.72	1074.31
386.92	1217.08
387.11	1139.84
387.31	1139.84
387.50	1071.97
387.70	1125.80
387.89	1125.80
388.09	1118.78
388.28	1142.18
388.48	1160.91
388.67	1132.82
388.86	1144.52
389.06	1160.91
389.25	1224.10
389.45	1235.80
389.64	1170.27
389.84	1289.64
390.03	1266.23
390.22	1146.86
390.42	1247.51
390.61	1221.76
390.81	1275.59
391.00	1296.66
391.19	1188.99
391.39	1261.55
391.58	1207.72
391.78	1275.59
391.97	1231.12
392.16	1284.95
392.36	1299.00
392.55	1289.64
392.75	1306.02
392.94	1256.87
393.13	1268.57
393.33	1275.59
393.52	1324.74
393.71	1380.92
393.91	1345.81
394.10	1401.98
394.29	1310.70
394.49	1315.38
394.68	1383.26
394.88	1343.47
395.07	1362.19
395.26	1320.06
395.46	1315.38
395.65	1432.41
395.84	1397.30
396.04	1430.07
396.23	1507.30
396.42	1371.55
396.62	1327.08
396.81	1420.71
397.00	1462.83
397.19	1458.15
397.39	1413.68
397.58	1425.39
397.77	1507.30
397.97	1427.73
398.16	1472.20
398.35	1474.54
398.55	1495.60
398.74	1519.01
398.93	1549.43
399.12	1458.15
399.32	1502.62
399.51	1547.09
399.70	1493.26
399.90	1528.37
400.09	1596.25
400.28	1549.43
400.47	1500.28
400.67	1603.27
400.86	1614.97
401.05	1708.59
401.24	1732.00
401.44	1624.33
401.63	1703.91
401.82	1764.76
402.01	1610.29
402.21	1692.21
402.40	1657.10
402.59	1650.08
402.78	1717.95
402.97	1729.66
403.17	1809.23
403.36	1717.95
403.55	1722.63
403.74	1776.47
403.93	1717.95
404.13	1788.17
404.32	1844.34
404.51	1832.64
404.70	1853.70
404.89	1790.51
405.09	1870.09
405.28	1823.28
405.47	1968.39
405.66	1872.43
405.85	1907.54
406.05	1834.98
406.24	1898.17
406.43	1956.69
406.62	1923.92
406.81	1921.58
407.00	1977.75
407.20	1886.47
407.39	1874.77
407.58	2010.52
407.77	2010.52
407.96	2118.18
408.15	2052.65
408.34	2043.29
408.54	2167.34
408.73	2019.88
408.92	2193.08
409.11	2153.29
409.30	2122.87
409.49	2172.02
409.68	2106.48
409.87	2183.72
410.07	2186.06
410.26	2106.48
410.45	2223.51
410.64	2230.53
410.83	2218.83
411.02	2277.34
411.21	2361.60
411.40	2246.91
411.59	2298.41
411.78	2333.51
411.98	2265.64
412.17	2310.11
412.36	2335.85
412.55	2417.77
412.74	2415.43
412.93	2518.42
413.12	2431.82
413.31	2466.92
413.50	2487.99
413.69	2448.20
413.88	2499.69
414.07	2452.88
414.26	2497.35
414.45	2555.86
414.64	2516.08
414.83	2448.20
415.02	2555.86
415.22	2708.00
415.41	2708.00
415.60	2682.25
415.79	2630.76
415.98	2794.60
416.17	2630.76
416.36	2705.66
416.55	2693.96
416.74	2885.88
416.93	2736.09
417.12	2764.17
417.31	2860.13
417.50	2806.30
417.69	2759.49
417.88	2911.63
418.07	2918.65
418.26	2827.37
418.45	2885.88
418.64	2986.52
418.83	2949.08
419.02	3007.59
419.21	2979.50
419.39	2967.80
419.58	3089.51
419.77	3000.57
419.96	3192.49
420.15	3243.98
420.34	3110.57
420.53	3124.62
420.72	3129.30
420.91	3070.78
421.10	3197.17
421.29	3126.96
421.48	3164.40
421.67	3131.64
421.86	3119.93
422.05	3133.98
422.24	3122.27
422.43	3262.71
422.61	3279.09
422.80	3286.11
422.99	3279.09
423.18	3323.56
423.37	3454.63
423.56	3243.98
423.75	3276.75
423.94	3260.37
424.13	3141.00
424.32	3190.15
424.50	3262.71
424.69	3318.88
424.88	3426.54
425.07	3393.78
425.26	3274.41
425.45	3241.64
425.64	3286.11
425.83	3220.58
426.01	3499.10
426.20	3323.56
426.39	3215.90
426.58	3449.95
426.77	3489.74
426.96	3400.80
427.15	3295.47
427.33	3438.25
427.52	3576.34
427.71	3473.36
427.90	3442.93
428.09	3342.28
428.28	3440.59
428.46	3522.51
428.65	3588.04
428.84	3517.83
429.03	3421.86
429.22	3461.65
429.40	3534.21
429.59	3517.83
429.78	3452.29
429.97	3459.31
430.16	3527.19
430.34	3627.83
430.53	3555.27
430.72	3618.47
430.91	3735.50
431.10	3604.42
431.28	3712.09
431.47	3684.00
431.66	3794.01
431.85	3730.81
432.03	3758.90
432.22	3896.99
432.41	3889.97
432.60	3695.71
432.79	3957.85
432.97	3845.50
433.16	3852.52
433.35	3911.04
433.54	3880.61
433.72	3983.59
433.91	3892.31
434.10	4030.40
434.28	3981.25
434.47	3922.74
434.66	4030.40
434.85	3997.64
435.03	4093.60
435.22	4222.33
435.41	4535.96
435.59	4266.80
435.78	4344.03
435.97	4273.82
436.16	4255.09
436.34	4201.26
436.53	4011.68
436.72	4264.46
436.90	4149.77
437.09	4067.85
437.28	4133.39
437.46	4262.12
437.65	4304.25
437.84	4131.05
438.02	4404.89
438.21	4400.21
438.40	4222.33
438.58	4390.84
438.77	4379.14
438.96	4266.80
439.14	4535.96
439.33	4601.49
439.52	4540.64
439.70	4542.98
439.89	4624.90
440.08	4835.55
440.26	4678.73
440.45	4627.24
440.63	4683.41
440.82	4697.46
441.01	4723.20
441.19	4660.01
441.38	4828.53
441.57	4807.46
441.75	4887.04
441.94	5006.41
442.12	4830.87
442.31	4938.53
442.50	4961.94
442.68	5041.51
442.87	4943.21
443.05	5006.41
443.24	5174.92
443.43	5001.72
443.61	5174.92
443.80	5195.99
443.98	5036.83
444.17	4877.68
444.35	5123.43
444.54	5146.84
444.73	5146.84
444.91	5163.22
445.10	5200.67
445.28	5177.26
445.47	5217.05
445.65	5203.01
445.84	5156.20
446.02	5305.99
446.21	5172.58
446.39	5158.54
446.58	5305.99
446.77	5303.65
446.95	5078.96
447.14	5221.74
447.32	5385.57
447.51	5322.38
447.69	5107.05
447.88	5270.89
448.06	5320.04
448.25	5502.60
448.43	5327.06
448.62	5430.04
448.80	5467.49
448.99	5296.63
449.17	5448.77
449.36	5371.53
449.54	5397.28
449.73	5437.06
449.91	5582.18
450.10	5549.41
450.28	5561.11
450.46	5678.14
450.65	5687.50
450.83	5544.73
451.02	5600.90
451.20	5575.16
451.39	5746.02
451.57	5621.97
451.76	5621.97
451.94	5680.48
452.13	5731.97
452.31	5877.09
452.49	5607.92
452.68	5753.04
452.86	5664.10
453.05	5703.89
453.23	5762.40
453.42	5626.65
453.60	5870.06
453.78	5832.62
453.97	5645.37
454.15	5928.58
454.34	5867.72
454.52	5895.81
454.70	6026.88
454.89	5863.04
455.07	5970.71
455.26	6099.44
455.44	5987.09
455.62	5973.05
455.81	5977.73
455.99	6040.92
456.17	6207.10
456.36	6139.23
456.54	6118.16
456.73	6345.19
456.91	6328.81
457.09	6214.12
457.28	6253.91
457.46	6452.86
457.64	6228.17
457.83	6462.22
458.01	6382.64
458.19	6466.90
458.38	6431.79
458.56	6469.24
458.74	6441.15
458.93	6455.20
459.11	6565.20
459.29	6576.91
459.48	6452.86
459.66	6612.01
459.84	6492.65
460.03	6815.64
460.21	6750.10
460.39	6698.61
460.57	6649.46
460.76	6693.93
460.94	6836.70
461.12	6937.35
461.31	6729.04
461.49	6792.23
461.67	6813.30
461.85	7019.27
462.04	6885.86
462.22	7204.17
462.40	6768.83
462.59	6803.94
462.77	6874.15
462.95	6981.82
463.13	6946.71
463.32	6920.96
463.50	7007.56
463.68	6902.24
463.86	7059.06
464.05	7009.90
464.23	7052.03
464.41	7236.94
464.59	6911.60
464.78	7229.91
464.96	7169.06
465.14	7021.61
465.32	7192.47
465.50	7236.94
465.69	7398.43
465.87	7241.62
466.05	7218.21
466.23	7222.89
466.41	7356.30
466.60	7382.05
466.78	7077.78
466.96	7176.08
467.14	7250.98
467.32	7293.11
467.51	7700.36
467.69	7236.94
467.87	7468.65
468.05	7527.16
468.23	7473.33
468.41	7506.10
468.60	7272.04
468.78	7541.21
468.96	7466.31
469.14	7419.50
469.32	7660.57
469.50	7398.43
469.69	7744.83
469.87	7847.82
470.05	7859.52
470.23	7857.18
470.41	7871.22
470.59	7838.45
470.77	7803.35
470.95	7824.41
471.14	8006.97
471.32	7681.64
471.50	8159.11
471.68	7873.56
471.86	7934.42
472.04	8126.34
472.22	8241.03
472.40	8044.42
472.58	8138.04
472.77	8208.26
472.95	8444.65
473.13	8514.87
473.31	8255.07
473.49	8313.58
473.67	8367.42
473.85	8446.99
474.03	8404.86
474.21	8585.08
474.39	8720.84
474.57	8564.02
474.75	9013.40
474.93	8842.54
475.12	8615.51
475.30	8924.46
475.48	8865.95
475.66	8828.50
475.84	8858.93
476.02	9076.60
476.20	8950.21
476.38	9247.46
476.56	9322.35
476.74	9298.95
476.92	9327.03
477.10	9317.67
477.28	9640.67
477.46	9434.70
477.64	9626.62
477.82	9720.24
478.00	9764.72
478.18	9750.67
478.36	9767.06
478.54	9991.75
478.72	10118.14
478.90	9947.28
479.08	10347.51
479.26	10326.44
479.44	10335.81
479.62	10464.54
479.80	10487.94
479.98	10352.19
480.16	10761.78
480.34	10611.99
480.52	10602.63
480.70	10750.08
480.88	10714.97
481.06	10794.55
481.24	10895.19
481.41	11126.91
481.59	11304.79
481.77	11379.68
481.95	11180.74
482.13	11531.82
482.31	11370.32
482.49	11712.04
482.67	11564.59
482.85	11943.75
483.03	11800.98
483.21	11730.76
483.39	12194.19
483.57	12077.16
483.74	11995.25
483.92	12271.43
484.10	12400.16
484.28	12435.27
484.46	12624.85
484.64	12769.96
484.82	12477.40
485.00	12711.45
485.18	13235.73
485.35	13261.48
485.53	13111.68
485.71	13336.37
485.89	13432.33
486.07	13352.76
486.25	13532.98
486.43	13509.57
486.61	13755.33
486.78	13912.14
486.96	14019.81
487.14	13998.74
487.32	13923.85
487.50	14085.34
487.68	14087.68
487.85	14464.51
488.03	14551.11
488.21	14792.19
488.39	14441.11
488.57	14712.61
488.75	14834.32
488.92	15367.96
489.10	15410.09
489.28	15185.40
489.46	15342.21
489.64	15449.88
489.81	15763.51
489.99	15779.89
490.17	15761.17
490.35	15864.15
490.53	16219.91
490.70	16154.38
490.88	16074.80
491.06	16367.37
491.24	16294.81
491.41	16437.58
491.59	16638.87
491.77	16772.28
491.95	16800.37
492.13	16718.45
492.30	17097.61
492.48	16886.97
492.66	16999.31
492.84	17076.55
493.01	17390.18
493.19	17539.97
493.37	17743.60
493.54	17514.23
493.72	17809.14
493.90	17612.53
494.08	18209.37
494.25	18424.70
494.43	18352.14
494.61	18284.26
494.79	18190.64
494.96	18167.24
495.14	18356.82
495.32	18792.16
495.49	18913.87
495.67	19204.10
495.85	18918.55
496.02	19260.27
496.20	18995.79
496.38	18956.00
496.55	19220.48
496.73	19592.62
496.91	19185.37
497.09	19726.04
497.26	19807.95
497.44	19737.74
497.62	19913.28
497.79	19868.81
497.97	20177.76
498.14	20402.45
498.32	20201.16
498.50	20360.32
498.67	20346.28
498.85	20411.81
499.03	20507.77
499.20	20730.12
499.38	20856.51
499.56	21041.42
499.73	21010.99
499.91	21216.96
500.08	21043.76
500.26	20783.96
500.44	21036.74
500.61	21462.71
500.79	21345.69
500.97	21472.07
501.14	21722.51
501.32	21565.70
501.49	21699.11
501.67	21900.39
501.84	22176.58
502.02	21888.69
502.20	22127.42
502.37	22253.81
502.55	22207.00
502.72	22398.93
502.90	22059.55
503.07	22211.68
503.25	22370.84
503.43	22319.35
503.60	22562.76
503.78	22345.09
503.95	22738.30
504.13	22724.26
504.30	22838.95
504.48	22618.94
504.65	23068.32
504.83	22948.95
505.01	23087.04
505.18	23232.16
505.36	23452.17
505.53	23264.92
505.71	23042.57
505.88	23805.59
506.06	23814.95
506.23	23828.99
506.41	23716.65
506.58	23800.91
506.76	23777.50
506.93	23782.18
507.11	24016.24
507.28	24390.72
507.46	24063.05
507.63	24318.17
507.81	24383.70
507.98	23817.29
508.16	24390.72
508.33	24409.45
508.50	24322.85
508.68	24634.14
508.85	25071.82
509.03	24673.93
509.20	24683.29
509.38	24800.32
509.55	24821.38
509.73	25158.42
509.90	25495.46
510.08	25095.22
510.25	25418.22
510.42	25429.92
510.60	25359.70
510.77	25450.99
510.95	25336.30
511.12	25280.13
511.30	25738.87
511.47	25804.41
511.64	25844.20
511.82	26118.04
511.99	25703.76
512.17	26087.61
512.34	25804.41
512.51	26380.18
512.69	26206.98
512.86	26391.88
513.04	26682.11
513.21	26199.96
513.38	26539.33
513.56	26305.28
513.73	26469.12
513.90	26892.76
514.08	26848.29
514.25	26862.33
514.43	26913.82
514.60	26642.32
514.77	26972.33
514.95	26923.18
515.12	26801.47
515.29	26897.44
515.47	27262.56
515.64	27246.18
515.81	27150.21
515.99	27454.48
516.16	27278.94
516.33	27241.50
516.51	27833.65
516.68	27627.68
516.85	27796.20
517.03	27857.06
517.20	27807.90
517.37	27807.90
517.54	27707.26
517.72	27702.58
517.89	28126.22
518.06	28166.01
518.24	28173.03
518.41	28268.99
518.58	28084.09
518.75	28425.81
518.93	28393.04
519.10	28119.20
519.27	28210.48
519.45	28732.42
519.62	28774.55
519.79	28561.56
519.96	28631.77
520.14	28725.39
520.31	28624.75
520.48	28980.51
520.65	28929.02
520.83	29111.58
521.00	29244.99
521.17	29022.64
521.34	29343.30
521.52	29193.50
521.69	28666.88
521.86	29223.93
522.03	29500.11
522.20	29661.61
522.38	29736.51
522.55	29961.20
522.72	29551.60
522.89	29757.57
523.07	29844.17
523.24	29603.10
523.41	29605.44
523.58	29722.46
523.75	30377.81
523.92	29804.38
524.10	30412.92
524.27	30244.40
524.44	30455.05
524.61	30478.46
524.78	30232.70
524.96	30536.97
525.13	30408.24
525.30	30438.67
525.47	30721.87
525.64	30686.76
525.81	30742.94
525.98	30969.97
526.16	30714.85
526.33	30892.73
526.50	31009.76
526.67	30658.68
526.84	31103.38
527.01	31091.68
527.18	31688.51
527.36	30965.29
527.53	31187.64
527.70	31016.78
527.87	31683.83
528.04	31445.10
528.21	31758.73
528.38	31318.71
528.55	31512.97
528.72	30897.41
528.89	31395.95
529.07	31519.99
529.24	31438.08
529.41	32100.45
529.58	31669.79
529.75	31690.85
529.92	31768.09
530.09	31838.31
530.26	31529.36
530.43	32063.00
530.60	31854.69
530.77	32077.04
530.94	32439.82
531.11	32243.22
531.28	32496.00
531.46	32044.27
531.63	32318.12
531.80	32315.78
531.97	32645.79
532.14	32395.35
532.31	32554.51
532.48	32598.98
532.65	32870.48
532.82	32491.32
532.99	32556.85
533.16	32617.71
533.33	32596.64
533.50	32882.19
533.67	32753.46
533.84	32734.73
534.01	32893.89
534.18	32837.72
534.35	33060.07
534.52	33371.36
534.69	33195.82
534.86	33219.22
535.03	32980.49
535.20	32952.40
535.37	33181.77
535.54	33624.14
535.71	33434.55
535.88	33804.36
536.05	33317.53
536.22	33638.18
536.38	33591.37
536.55	33837.12
536.72	33673.29
536.89	34174.16
537.06	33769.25
537.23	34298.21
537.40	33940.11
537.57	34235.02
537.74	33745.84
537.91	34031.39
538.08	33743.50
538.25	33619.46
538.42	34026.71
538.59	34445.66
538.75	33748.18
538.92	34326.30
539.09	34609.50
539.26	33947.13
539.43	34195.23
539.60	34532.26
539.77	34499.50
539.94	34845.90
540.11	34522.90
540.28	34759.30
540.44	34593.12
540.61	34696.10
540.78	34838.87
540.95	34649.29
541.12	34962.92
541.29	35065.91
541.46	34948.88
541.62	35058.88
541.79	35194.64
541.96	34960.58
542.13	35161.87
542.30	34998.03
542.47	35229.74
542.63	35395.92
542.80	35728.28
542.97	35522.31
543.14	36172.98
543.31	35903.82
543.48	35597.21
543.64	36371.92
543.81	36163.62
543.98	36102.76
544.15	36250.22
544.32	36376.61
544.48	36498.31
544.65	36205.75
544.82	36070.00
544.99	35428.69
545.16	36046.59
545.32	36116.81
545.49	36706.62
545.66	36891.52
545.83	37043.66
546.00	37160.69
546.16	36734.71
546.33	36669.17
546.50	36500.65
546.67	36077.02
546.83	35761.05
547.00	36100.42
547.17	36535.76
547.34	36327.45
547.50	36720.66
547.67	36868.12
547.84	36830.67
548.00	36685.56
548.17	36945.36
548.34	36570.87
548.51	36608.32
548.67	36865.78
548.84	36891.52
549.01	36620.02
549.18	36823.65
549.34	37022.59
549.51	36858.76
549.68	37006.21
549.84	36788.54
550.01	36664.49
550.18	36699.60
550.34	37095.15
550.51	36685.56
550.68	37240.26
550.84	36938.33
551.01	37343.25
551.18	37024.93
551.34	36842.37
551.51	37340.91
551.68	37312.82
551.84	36921.95
552.01	36975.78
552.18	37062.38
552.34	37109.19
552.51	37141.96
552.68	37556.24
552.84	37106.85
553.01	37525.81
553.18	37572.62
553.34	37214.52
553.51	37626.45
553.67	37120.90
553.84	38007.96
554.01	37600.71
554.17	37942.42
554.34	37593.68
554.51	37598.37
554.67	37865.19
554.84	37930.72
555.00	37649.86
555.17	37359.63
555.33	37610.07
555.50	37820.72
555.67	38075.84
555.83	37825.40
556.00	37970.51
556.16	38398.83
556.33	37937.74
556.50	37813.70
556.66	37860.51
556.83	37656.88
556.99	38012.64
557.16	38422.23
557.32	38483.09
557.49	38230.31
557.65	37872.21
557.82	38309.89
557.98	38045.41
558.15	37916.68
558.32	38279.46
558.48	38134.35
558.65	38176.48
558.81	38373.08
558.98	38164.78
559.14	38717.14
559.31	38398.83
559.47	38529.90
559.64	38330.95
559.80	38534.58
559.97	38679.69
560.13	38174.14
560.30	38436.28
560.46	38646.93
560.63	38682.03
560.79	38560.33
560.96	38965.24
561.12	38663.31
561.29	38464.36
561.45	38363.72
561.61	38733.53
561.78	38574.37
561.94	38534.58
562.11	38934.81
562.27	39199.29
562.44	39356.11
562.60	39019.07
562.77	38525.22
562.93	38754.59
563.10	39096.31
563.26	38981.62
563.42	39042.48
563.59	38600.12
563.75	38998.01
563.92	38892.68
564.08	38824.81
564.24	38906.73
564.41	38939.49
564.57	39061.20
564.74	39171.21
564.90	38983.96
565.07	38780.34
565.23	38983.96
565.39	39021.41
565.56	39370.15
565.72	39178.23
565.88	39098.65
566.05	39070.56
566.21	39117.37
566.38	39133.76
566.54	39033.11
566.70	39243.76
566.87	39402.92
567.03	39648.68
567.19	39585.48
567.36	39599.52
567.52	38941.83
567.68	38983.96
567.85	39173.55
568.01	39290.57
568.17	39175.89
568.34	39203.97
568.50	39206.31
568.66	39590.16
568.83	39590.16
568.99	39213.34
569.15	39145.46
569.32	39299.94
569.48	38913.75
569.64	39704.85
569.81	39342.06
569.97	39325.68
570.13	39311.64
570.30	39129.08
570.46	39447.39
570.62	39374.83
570.78	39201.63
570.95	39234.40
571.11	39297.59
571.27	39522.29
571.43	39129.08
571.60	39288.23
571.76	39620.59
571.92	39292.91
572.09	39435.69
572.25	40060.61
572.41	39742.30
572.57	39718.89
572.74	39910.82
572.90	39482.50
573.06	39864.00
573.22	39503.56
573.38	39587.82
573.55	39599.52
573.71	39468.45
573.87	39414.62
574.03	39353.77
574.20	39896.77
574.36	39019.07
574.52	39665.06
574.68	39742.30
574.84	40027.84
575.01	39573.78
575.17	39775.06
575.33	39660.38
575.49	39716.55
575.65	39814.85
575.82	39955.29
575.98	39688.46
576.14	40046.57
576.30	40292.32
576.46	39786.77
576.62	39966.99
576.79	39646.33
576.95	39461.43
577.11	40313.39
577.27	40313.39
577.43	39641.65
577.59	39894.43
577.75	39971.67
577.92	39800.81
578.08	39557.39
578.24	39995.07
578.40	39796.13
578.56	39828.90
578.72	39878.05
578.88	40404.67
579.04	39938.90
579.21	39957.63
579.37	40088.70
579.53	39962.31
579.69	39885.07
579.85	40318.07
580.01	39952.94
580.17	40226.79
580.33	39971.67
580.49	39913.16
580.65	40109.76
580.82	40161.25
580.98	39934.22
581.14	39910.82
581.30	40149.55
581.46	39915.50
581.62	39477.82
581.78	39613.57
581.94	40109.76
582.10	39555.05
582.26	39770.38
582.42	39887.41
582.58	40147.21
582.74	40203.38
582.90	40109.76
583.06	40271.26
583.22	39761.02
583.38	40224.45
583.54	39856.98
583.70	39859.32
583.86	39915.50
584.02	40367.22
584.18	40179.98
584.34	39927.20
584.50	40020.82
584.66	40165.93
584.82	40182.32
584.98	40348.50
585.14	40219.77
585.30	40205.72
585.46	40116.78
585.62	40121.46
585.78	40369.56
585.94	39803.15
586.10	39992.73
586.26	40086.36
586.42	40594.25
586.58	40308.71
586.74	40126.14
586.90	40315.73
587.06	40481.91
587.22	40563.82
587.38	40147.21
587.54	40814.26
587.70	40629.36
587.86	40032.52
588.02	40360.20
588.18	40545.10
588.34	40425.73
588.49	40140.19
588.65	39735.27
588.81	39845.28
588.97	40521.69
589.13	40170.61
589.29	40624.68
589.45	40507.65
589.61	40388.28
589.77	41111.51
589.93	40552.12
590.08	40542.76
590.24	40620.00
590.40	40624.68
590.56	40900.86
590.72	40137.85
590.88	40194.02
591.04	40252.53
591.20	40921.93
591.35	40446.80
591.51	40854.05
591.67	40762.77
591.83	40985.12
591.99	40715.96
592.15	40741.71
592.31	40432.75
592.46	40549.78
592.62	40217.43
592.78	40678.51
592.94	40727.66
593.10	40542.76
593.26	40931.29
593.41	40760.43
593.57	40830.65
593.73	40959.38
593.89	41247.26
594.05	40800.22
594.20	39974.01
594.36	40975.76
594.52	40662.13
594.68	40137.85
594.84	40404.67
594.99	40919.59
595.15	40629.36
595.31	41301.09
595.47	40989.80
595.62	41024.91
595.78	40690.21
595.94	40339.13
596.10	40563.82
596.25	40362.54
596.41	40491.27
596.57	40755.75
596.73	40655.11
596.88	40573.19
597.04	40662.13
597.20	41212.15
597.36	40741.71
597.51	40800.22
597.67	40823.62
597.83	40872.78
597.99	40818.94
598.14	41038.95
598.30	40601.27
598.46	40404.67
598.61	40774.47
598.77	40865.75
598.93	41076.40
599.09	41200.45
599.24	41144.28
599.40	40893.84
599.56	41158.32
599.71	40973.42
599.87	41200.45
600.03	40502.97
600.18	41116.19
600.34	41123.21
600.50	40811.92
600.65	40715.96
600.81	41273.01
600.97	41193.43
601.12	41441.53
601.28	40842.35
601.44	40872.78
601.59	40928.95
601.75	40809.58
601.91	41298.75
602.06	40905.54
602.22	40589.57
602.37	40697.24
602.53	40650.42
602.69	41457.91
602.84	40957.03
603.00	40659.79
603.16	41013.21
603.31	40973.42
603.47	40980.44
603.62	40823.62
603.78	40957.03
603.94	40589.57
604.09	40699.58
604.25	40498.29
604.40	41207.47
604.56	40779.15
604.71	41092.79
604.87	40615.32
605.03	40673.83
605.18	41003.85
605.34	40519.35
605.49	39974.01
605.65	40409.35
605.80	40332.11
605.96	40612.98
606.12	41223.86
606.27	41256.62
606.43	40987.46
606.58	41347.90
606.74	41219.17
606.89	40788.52
607.05	40765.11
607.20	40608.29
607.36	40643.40
607.51	40570.85
607.67	40760.43
607.82	40746.39
607.98	40655.11
608.13	40917.25
608.29	40837.67
608.44	41024.91
608.60	40409.35
608.75	40582.55
608.91	40739.36
609.06	40552.12
609.22	40840.01
609.37	40332.11
609.53	40751.07
609.68	40512.33
609.84	40350.84
609.99	40376.58
610.15	40701.92
610.30	41219.17
610.46	41102.15
610.61	41067.04
610.76	41083.42
610.92	41191.09
611.07	41574.94
611.23	41340.88
611.38	41551.53
611.54	41560.89
611.69	41544.51
611.84	41329.18
612.00	41390.03
612.15	40964.06
612.31	41085.76
612.46	40809.58
612.62	41041.29
612.77	40634.04
612.92	40517.01
613.08	40119.12
613.23	40322.75
613.39	40437.44
613.54	40304.02
613.69	40594.25
613.85	40294.66
614.00	40950.01
614.15	40832.99
614.31	41088.10
614.46	40182.32
614.62	40280.62
614.77	39995.07
614.92	40575.53
615.08	40182.32
615.23	40025.50
615.38	40126.14
615.54	39665.06
615.69	39363.13
615.84	39948.26
616.00	39910.82
616.15	39845.28
616.30	40554.46
616.46	40273.60
616.61	39819.53
616.76	39892.09
616.92	39316.32
617.07	39431.01
617.22	39035.45
617.37	38967.58
617.53	39681.44
617.68	39566.76
617.83	39931.88
617.99	39995.07
618.14	40172.96
618.29	39545.69
618.45	39538.67
618.60	39470.79
618.75	39454.41
618.90	39147.80
619.06	39147.80
619.21	38773.31
619.36	38937.15
619.51	38885.66
619.67	38904.38
619.82	39117.37
619.97	39306.96
620.12	39629.95
620.28	39536.33
620.43	39414.62
620.58	39688.46
620.73	39255.46
620.89	38937.15
621.04	39213.34
621.19	39370.15
621.34	39089.29
621.49	38719.48
621.65	39585.48
621.80	38850.55
621.95	38878.64
622.10	39473.13
622.25	39124.40
622.41	38855.23
622.56	38731.18
622.71	38923.11
622.86	39164.18
623.01	38981.62
623.16	38309.89
623.32	38766.29
623.47	38862.26
623.62	38873.96
623.77	39108.01
623.92	39129.08
624.07	39241.42
624.23	38726.50
624.38	39100.99
624.53	38979.28
624.68	39040.14
624.83	38864.60
624.98	38675.01
625.13	38230.31
625.29	38593.09
625.44	38588.41
625.59	38511.17
625.74	38572.03
625.89	38220.95
626.04	38576.71
626.19	38370.74
626.34	38333.29
626.49	38096.90
626.65	38302.87
626.80	38600.12
626.95	38061.79
627.10	38108.60
627.25	38277.12
627.40	38092.22
627.55	37989.24
627.70	38431.60
627.85	38249.03
628.00	38382.45
628.15	37811.35
628.30	37532.83
628.45	37876.89
628.60	37757.52
628.76	38323.93
628.91	38092.22
629.06	37659.22
629.21	38005.62
629.36	37764.54
629.51	38012.64
629.66	37846.46
629.81	37453.25
629.96	38061.79
630.11	37860.51
630.26	38160.09
630.41	37968.17
630.56	38040.73
630.71	37811.35
630.86	38000.94
631.01	37895.61
631.16	37762.20
631.31	37481.34
631.46	37523.47
631.61	37691.99
631.76	37670.92
631.91	37406.44
632.06	37329.20
632.21	37298.78
632.36	37141.96
632.51	37411.12
632.66	37507.08
632.81	37399.42
632.96	37558.58
633.10	37242.60
633.25	37158.34
633.40	37270.69
633.55	37078.77
633.70	37467.30
633.85	36954.72
634.00	37371.33
634.15	37418.14
634.30	37041.32
634.45	36858.76
634.60	36959.40
634.75	36821.31
634.90	37280.05
635.05	36973.44
635.19	36912.59
635.34	37062.38
635.49	36910.25
635.64	36790.88
635.79	36828.33
635.94	36732.37
636.09	36727.69
636.24	36568.53
636.39	36549.81
636.53	36912.59
636.68	36666.83
636.83	36453.84
636.98	36821.31
637.13	36978.12
637.28	36786.20
637.43	36842.37
637.57	36650.45
637.72	36133.19
637.87	36453.84
638.02	36460.87
638.17	36079.36
638.32	36552.15
638.46	36013.82
638.61	36348.52
638.76	36343.84
638.91	36765.14
639.06	36685.56
639.20	36409.37
639.35	37043.66
639.50	36521.72
639.65	36472.57
639.80	36098.08
639.94	35936.59
640.09	36039.57
640.24	35941.27
640.39	36004.46
640.54	36013.82
640.68	36343.84
640.83	36084.04
640.98	35828.92
641.13	35835.94
641.27	35608.91
641.42	35644.02
641.57	35854.67
641.72	36116.81
641.86	35414.65
642.01	35494.22
642.16	35367.84
642.31	35922.54
642.45	36030.21
642.60	35871.05
642.75	35477.84
642.90	35880.41
643.04	35564.44
643.19	35821.90
643.34	35725.94
643.48	36259.58
643.63	35447.41
643.78	35372.52
643.93	35358.47
644.07	35283.58
644.22	35379.54
644.37	35220.38
644.51	35065.91
644.66	35599.55
644.81	35061.22
644.95	35541.03
645.10	35754.02
645.25	35229.74
645.39	35625.29
645.54	35632.32
645.69	35232.08
645.83	35693.17
645.98	34969.94
646.13	35482.52
646.27	35594.87
646.42	35365.49
646.57	35096.33
646.71	35189.95
646.86	34801.43
647.00	35573.80
647.15	35353.79
647.30	35398.26
647.44	34721.85
647.59	35136.12
647.74	35098.67
647.88	34899.73
648.03	34934.84
648.17	34848.24
648.32	34527.58
648.47	34778.02
648.61	34623.54
648.76	35171.23
648.90	34705.46
649.05	35030.80
649.20	35115.06
649.34	35028.46
649.49	34866.96
649.63	35253.15
649.78	35089.31
649.92	34810.79
650.07	34920.79
650.21	34572.05
650.36	34639.93
650.51	34632.91
650.65	34651.63
650.80	34490.13
650.94	34838.87
651.09	34955.90
651.23	34541.63
651.38	34801.43
651.52	34405.88
651.67	34382.47
651.81	34558.01
651.96	34403.53
652.10	34433.96
652.25	34146.08
652.39	34326.30
652.54	34171.82
652.68	34115.65
652.83	34211.61
652.97	34424.60
653.12	34113.31
653.26	33923.72
653.41	34958.24
653.55	34696.10
653.70	33883.94
653.84	34036.07
653.99	34033.73
654.13	34209.27
654.27	33986.92
654.42	34309.91
654.56	34155.44
654.71	34139.05
654.85	33942.45
655.00	34122.67
655.14	33769.25
655.29	33600.73
655.43	33830.10
655.57	33675.63
655.72	33460.30
655.86	33818.40
656.01	33797.34
656.15	33319.87
656.30	33893.30
656.44	33841.81
656.58	34003.30
656.73	33708.40
656.87	33993.94
657.01	33799.68
657.16	33694.35
657.30	33666.27
657.45	33481.36
657.59	33418.17
657.73	33359.66
657.88	33546.90
658.02	33329.23
658.16	33095.18
658.31	33481.36
658.45	33715.42
658.60	33078.79
658.74	32910.27
658.88	33090.49
659.03	33324.55
659.17	32823.67
659.31	32755.80
659.46	33085.81
659.60	33113.90
659.74	33118.58
659.89	32861.12
660.03	32814.31
660.17	33111.56
660.32	33031.98
660.46	32833.04
660.60	32561.53
660.74	32746.44
660.89	32486.64
661.03	32299.39
661.17	32594.30
661.32	32488.98
661.46	32210.45
661.60	32425.78
661.74	32395.35
661.89	31988.10
662.03	32341.52
662.17	32737.07
662.31	32140.24
662.46	32470.25
662.60	32203.43
662.74	32121.51
662.88	32226.84
663.03	32055.98
663.17	31999.80
663.31	31871.07
663.45	32004.49
663.60	31791.50
663.74	31622.98
663.88	31688.51
664.02	31440.42
664.17	31498.93
664.31	31253.17
664.45	31716.60
664.59	31655.75
664.73	31688.51
664.88	31882.78
665.02	31157.21
665.16	31541.06
665.30	31391.26
665.44	31173.60
665.59	31307.01
665.73	31307.01
665.87	30670.38
666.01	31374.88
666.15	31087.00
666.29	30934.86
666.44	30892.73
666.58	30274.83
666.72	30546.33
666.86	30773.36
667.00	31084.65
667.14	30925.50
667.28	30693.79
667.43	30799.11
667.57	31152.53
667.71	30714.85
667.85	30616.55
667.99	30866.98
668.13	30532.29
668.27	30228.02
668.41	30712.51
668.56	30312.28
668.70	30129.72
668.84	30279.51
668.98	30000.99
669.12	30356.75
669.26	29867.58
669.40	29940.13
669.54	29968.22
669.68	29937.79
669.82	29853.53
669.96	29898.00
670.10	29780.98
670.25	29935.45
670.39	29778.64
670.53	29347.98
670.67	29184.14
670.81	29495.43
670.95	29699.06
671.09	29221.59
671.23	29064.77
671.37	29530.54
671.51	29457.98
671.65	29584.37
671.79	29156.05
671.93	29177.12
672.07	29575.01
672.21	29411.17
672.35	29202.86
672.49	29273.08
672.63	29347.98
672.77	28690.29
672.91	29067.11
673.05	28301.76
673.19	28313.46
673.33	28182.39
673.47	28521.77
673.61	28716.03
673.75	28292.40
673.89	28690.29
674.03	28341.55
674.17	28250.27
674.31	28037.28
674.45	28531.13
674.59	28268.99
674.73	28594.32
674.87	28425.81
675.01	27812.59
675.15	27871.10
675.29	28048.98
675.43	28093.45
675.56	27690.88
675.70	27634.71
675.84	27309.37
675.98	26548.70
676.12	27253.20
676.26	27077.66
676.40	27590.24
676.54	27585.55
676.68	27180.64
676.82	26941.91
676.96	27000.42
677.10	27543.42
677.23	26813.18
677.37	26686.79
677.51	26426.99
677.65	26766.37
677.79	26211.66
677.93	26071.23
678.07	26127.40
678.21	26157.83
678.34	26003.35
678.48	26265.49
678.62	25762.28
678.76	26239.75
678.90	26291.24
679.04	25600.78
679.18	26050.16
679.31	25273.10
679.45	25219.27
679.59	25855.90
679.73	25982.29
679.87	25406.52
680.00	25074.16
680.14	25287.15
680.28	25184.16
680.42	24938.41
680.56	25294.17
680.70	24854.15
680.83	24788.61
680.97	24479.66
681.11	24713.72
681.25	24482.00
681.39	24350.93
681.52	24875.21
681.66	24879.89
681.80	24400.08
681.94	24393.06
682.07	24411.79
682.21	24133.26
682.35	24390.72
682.49	24318.17
682.62	24297.10
682.76	24016.24
682.90	23613.66
683.04	23381.95
683.17	23232.16
683.31	23487.28
683.45	23321.10
683.59	23438.12
683.72	23520.04
683.86	23175.98
684.00	23269.61
684.13	23477.91
684.27	23110.45
684.41	23089.38
684.55	22661.07
684.68	23009.81
684.82	22485.53
684.96	22808.52
685.09	22719.58
685.23	22642.34
685.37	22541.70
685.50	22860.01
685.64	22628.30
685.78	22546.38
685.91	22223.39
686.05	22492.55
686.19	22080.61
686.32	22136.79
686.46	21703.79
686.60	21869.97
686.73	22211.68
686.87	22333.39
687.01	22054.87
687.14	21795.07
687.28	21774.00
687.42	21600.80
687.55	21528.25
687.69	21404.20
687.82	21212.28
687.96	21319.94
688.10	21132.70
688.23	21043.76
688.37	20971.20
688.50	20826.09
688.64	20996.95
688.78	21401.86
688.91	20922.05
689.05	20737.15
689.18	20222.23
689.32	20259.68
689.46	20467.98
689.59	20706.72
689.73	20100.52
689.86	20166.06
690.00	19882.85
690.13	19829.02
690.27	19641.78
690.41	20002.22
690.54	19695.61
690.68	19948.39
690.81	20077.12
690.95	19623.05
691.08	19414.74
691.22	19510.71
691.35	19421.77
691.49	19536.45
691.62	19232.18
691.76	19176.01
691.89	19419.42
692.03	19442.83
692.16	19096.43
692.30	19002.81
692.43	18621.30
692.57	19108.13
692.70	18583.85
692.84	18740.67
692.97	18618.96
693.11	18497.25
693.24	18359.16
693.38	18305.33
693.51	18295.97
693.65	18295.97
693.78	18099.36
693.92	18410.65
694.05	18415.34
694.19	18125.11
694.32	18368.52
694.45	18153.20
694.59	17640.62
694.72	17881.69
694.86	17586.79
694.99	17762.33
695.13	17226.34
695.26	17577.42
695.39	17151.45
695.53	17121.02
695.66	17008.67
695.80	16952.50
695.93	16999.31
696.07	17231.02
696.20	17041.44
696.33	16961.86
696.47	16833.13
696.60	16741.85
696.73	16865.90
696.87	16629.51
697.00	16826.11
697.14	16489.07
697.27	16519.50
697.40	16482.05
697.54	16266.72
697.67	16280.77
697.80	15859.47
697.94	16023.31
698.07	16013.95
698.21	15917.98
698.34	16105.23
698.47	15550.52
698.61	15513.07
698.74	15585.63
698.87	15499.03
699.01	15484.98
699.14	15669.89
699.27	15592.65
699.40	15557.54
699.54	15712.02
699.67	15213.48
699.80	15229.87
699.94	14895.17
700.07	14941.98
700.20	14757.08
700.34	14803.89
700.47	14920.92
700.60	15075.39
700.73	14991.13
700.87	14736.01
701.00	14604.94
701.13	14478.55
701.26	14438.76
701.40	14286.63
701.53	13912.14
701.66	14129.81
701.79	14174.28
701.93	14272.59
702.06	14462.17
702.19	14120.45
702.32	13846.61
702.46	13886.40
702.59	13951.93
702.72	13570.43
702.85	13760.01
702.99	13589.15
703.12	13575.11
703.25	13577.45
703.38	13584.47
703.51	13317.65
703.65	13336.37
703.78	13364.46
703.91	13593.83
704.04	13231.05
704.17	13364.46
704.31	13184.24
704.44	12903.37
704.57	12966.57
704.70	12800.39
704.83	12564.00
704.96	12435.27
705.10	12643.57
705.23	12706.77
>>>>>End Processed Spectral Data<<<<<
