SpectraSuite Data File
++++++++++++++++++++++++++++++++++++
Date: Thu Oct 24 13:21:17 EDT 2013
User: stostad
Dark Spectrum Present: No
Reference Spectrum Present: No
Number of Sampled Component Spectra: 1
Spectrometers: USB2+H05261
Integration Time (usec): 100000 (USB2+H05261)
Spectra Averaged: 1 (USB2+H05261)
Boxcar Smoothing: 0 (USB2+H05261)
Correct for Electrical Dark: No (USB2+H05261)
Strobe/Lamp Enabled: No (USB2+H05261)
Correct for Detector Non-linearity: No (USB2+H05261)
Correct for Stray Light: No (USB2+H05261)
Number of Pixels in Processed Spectrum: 2048
>>>>>Begin Processed Spectral Data<<<<<
365.73	592.16
365.92	592.16
366.12	592.16
366.32	475.13
366.52	496.19
366.72	540.66
366.91	512.58
367.11	500.87
367.31	440.02
367.51	468.11
367.70	430.66
367.90	512.58
368.10	444.70
368.30	444.70
368.49	435.34
368.69	442.36
368.89	505.56
369.09	538.32
369.28	533.64
369.48	505.56
369.68	557.05
369.87	559.39
370.07	482.15
370.27	519.60
370.47	608.54
370.66	781.74
370.86	788.76
371.06	770.04
371.25	856.64
371.45	777.06
371.65	816.85
371.84	849.61
372.04	851.96
372.24	873.02
372.44	861.32
372.63	755.99
372.83	880.04
373.03	891.74
373.22	875.36
373.42	905.79
373.62	861.32
373.81	929.19
374.01	922.17
374.21	896.43
374.40	933.87
374.60	943.24
374.79	938.55
374.99	854.30
375.19	889.40
375.38	926.85
375.58	976.00
375.78	987.71
375.97	924.51
376.17	997.07
376.37	929.19
376.56	1013.45
376.76	938.55
376.95	976.00
377.15	1006.43
377.35	1006.43
377.54	976.00
377.74	961.96
377.93	917.49
378.13	959.62
378.33	936.21
378.52	961.96
378.72	978.34
378.91	1036.86
379.11	1008.77
379.31	964.30
379.50	992.39
379.70	999.41
379.89	976.00
380.09	926.85
380.28	994.73
380.48	1008.77
380.68	997.07
380.87	929.19
381.07	1036.86
381.26	985.37
381.46	973.66
381.65	1020.47
381.85	1039.20
382.04	1064.94
382.24	1039.20
382.43	1107.07
382.63	1036.86
382.83	1076.65
383.02	1039.20
383.22	1036.86
383.41	1034.52
383.61	1114.10
383.80	1095.37
384.00	1125.80
384.19	1076.65
384.39	1015.79
384.58	952.60
384.78	1114.10
384.97	1132.82
385.17	1132.82
385.36	1093.03
385.56	1123.46
385.75	1151.54
385.95	1163.25
386.14	1163.25
386.34	1104.73
386.53	1207.72
386.72	1095.37
386.92	1205.38
387.11	1121.12
387.31	1275.59
387.50	1259.21
387.70	1193.67
387.89	1242.82
388.09	1177.29
388.28	1196.01
388.48	1153.88
388.67	1233.46
388.86	1130.48
389.06	1235.80
389.25	1263.89
389.45	1219.42
389.64	1226.44
389.84	1263.89
390.03	1132.82
390.22	1212.40
390.42	1212.40
390.61	1238.14
390.81	1224.10
391.00	1217.08
391.19	1284.95
391.39	1322.40
391.58	1334.11
391.78	1291.98
391.97	1373.89
392.16	1343.47
392.36	1362.19
392.55	1284.95
392.75	1341.13
392.94	1315.38
393.13	1362.19
393.33	1308.36
393.52	1348.15
393.71	1334.11
393.91	1315.38
394.10	1362.19
394.29	1432.41
394.49	1327.08
394.68	1362.19
394.88	1338.79
395.07	1397.30
395.26	1453.47
395.46	1355.17
395.65	1483.90
395.84	1394.96
396.04	1465.18
396.23	1507.30
396.42	1418.36
396.62	1455.81
396.81	1399.64
397.00	1427.73
397.19	1481.56
397.39	1451.13
397.58	1614.97
397.77	1603.27
397.97	1533.05
398.16	1507.30
398.35	1535.39
398.55	1521.35
398.74	1514.33
398.93	1446.45
399.12	1568.16
399.32	1549.43
399.51	1575.18
399.70	1540.07
399.90	1558.80
400.09	1584.54
400.28	1612.63
400.47	1645.40
400.67	1699.23
400.86	1621.99
401.05	1610.29
401.24	1598.59
401.44	1760.08
401.63	1682.85
401.82	1820.94
402.01	1755.40
402.21	1640.72
402.40	1806.89
402.59	1764.76
402.78	1729.66
402.97	1727.32
403.17	1736.68
403.36	1722.63
403.55	1849.02
403.74	1790.51
403.93	1834.98
404.13	1853.70
404.32	1816.26
404.51	1849.02
404.70	1886.47
404.89	1795.19
405.09	1860.73
405.28	1940.30
405.47	1846.68
405.66	1856.04
405.85	1895.83
406.05	2026.90
406.24	1947.33
406.43	1935.62
406.62	2062.01
406.81	2017.54
407.00	1975.41
407.20	1914.56
407.39	2134.57
407.58	2066.69
407.77	2001.16
407.96	2092.44
408.15	2132.23
408.34	2015.20
408.54	2111.16
408.73	2139.25
408.92	2181.38
409.11	2181.38
409.30	2228.19
409.49	2296.07
409.68	2122.87
409.87	2237.55
410.07	2317.13
410.26	2153.29
410.45	2326.49
410.64	2214.15
410.83	2246.91
411.02	2331.17
411.21	2258.62
411.40	2333.51
411.59	2410.75
411.78	2361.60
411.98	2401.39
412.17	2422.45
412.36	2387.35
412.55	2441.18
412.74	2473.95
412.93	2429.48
413.12	2443.52
413.31	2548.84
413.50	2607.36
413.69	2562.89
413.88	2647.15
414.07	2626.08
414.26	2532.46
414.45	2761.83
414.64	2785.24
414.83	2675.23
415.02	2750.13
415.22	2782.90
415.41	2738.43
415.60	2757.15
415.79	2822.69
415.98	2733.75
416.17	2825.03
416.36	2850.77
416.55	2822.69
416.74	2864.82
416.93	2862.48
417.12	2899.92
417.31	2977.16
417.50	2991.20
417.69	2981.84
417.88	3047.38
418.07	2972.48
418.26	3019.29
418.45	2993.55
418.64	3213.56
418.83	3131.64
419.02	3023.97
419.21	3171.43
419.39	3073.12
419.58	3082.49
419.77	2991.20
419.96	3190.15
420.15	3218.24
420.34	3023.97
420.53	3262.71
420.72	3148.02
420.91	3225.26
421.10	3351.65
421.29	3412.50
421.48	3286.11
421.67	3279.09
421.86	3251.00
422.05	3258.03
422.24	3302.50
422.43	3353.99
422.61	3410.16
422.80	3449.95
422.99	3487.40
423.18	3485.06
423.37	3431.23
423.56	3346.97
423.75	3332.92
423.94	3253.34
424.13	3225.26
424.32	3258.03
424.50	3332.92
424.69	3398.46
424.88	3578.68
425.07	3433.57
425.26	3435.91
425.45	3520.17
425.64	3520.17
425.83	3363.35
426.01	3447.61
426.20	3449.95
426.39	3431.23
426.58	3634.85
426.77	3426.54
426.96	3662.94
427.15	3592.72
427.33	3410.16
427.52	3492.08
427.71	3627.83
427.90	3581.02
428.09	3669.96
428.28	3616.13
428.46	3655.92
428.65	3723.79
428.84	3733.15
429.03	3667.62
429.22	3655.92
429.40	3786.99
429.59	3859.54
429.78	3679.32
429.97	3625.49
430.16	3719.11
430.34	3859.54
430.53	3875.93
430.72	3808.05
430.91	3798.69
431.10	3770.60
431.28	3868.91
431.47	3955.51
431.66	3925.08
431.85	3932.10
432.03	4039.76
432.22	3988.27
432.41	4060.83
432.60	3988.27
432.79	3925.08
432.97	3997.64
433.16	4100.62
433.35	4119.34
433.54	3990.61
433.72	4203.60
433.91	4159.13
434.10	4154.45
434.28	4105.30
434.47	4173.18
434.66	4163.81
434.85	4271.48
435.03	4198.92
435.22	4425.95
435.41	4727.88
435.59	4552.34
435.78	4554.68
435.97	4489.15
436.16	4496.17
436.34	4395.53
436.53	4458.72
436.72	4379.14
436.90	4393.19
437.09	4294.88
437.28	4404.89
437.46	4315.95
437.65	4425.95
437.84	4454.04
438.02	4451.70
438.21	4470.42
438.40	4470.42
438.58	4582.77
438.77	4732.56
438.96	4521.92
439.14	4660.01
439.33	4706.82
439.52	4634.26
439.70	4917.47
439.89	4823.84
440.08	4865.97
440.26	4753.63
440.45	4809.80
440.63	4793.42
440.82	5036.83
441.01	4938.53
441.19	4994.70
441.38	5107.05
441.57	5123.43
441.75	5114.07
441.94	5151.52
442.12	5191.31
442.31	5226.42
442.50	5245.14
442.68	5114.07
442.87	5305.99
443.05	5313.02
443.24	5392.59
443.43	5266.21
443.61	5174.92
443.80	5380.89
443.98	5364.51
444.17	5085.98
444.35	5387.91
444.54	5432.38
444.73	5441.75
444.91	5228.76
445.10	5387.91
445.28	5423.02
445.47	5394.93
445.65	5392.59
445.84	5530.69
446.02	5549.41
446.21	5493.24
446.39	5359.83
446.58	5497.92
446.77	5430.04
446.95	5308.34
447.14	5427.70
447.32	5408.98
447.51	5474.51
447.69	5542.39
447.88	5469.83
448.06	5427.70
448.25	5458.13
448.43	5451.11
448.62	5547.07
448.80	5579.84
448.99	5579.84
449.17	5523.66
449.36	5481.53
449.54	5731.97
449.73	5809.21
449.91	5851.34
450.10	5722.61
450.28	6012.84
450.46	5881.77
450.65	5916.87
450.83	5928.58
451.02	5923.90
451.20	5860.70
451.39	5921.56
451.57	5982.41
451.76	5849.00
451.94	6050.28
452.13	5996.45
452.31	5884.11
452.49	5909.85
452.68	6106.46
452.86	6099.44
453.05	6169.65
453.23	6136.88
453.42	6019.86
453.60	5846.66
453.78	6015.18
453.97	6139.23
454.15	6106.46
454.34	5944.96
454.52	6190.72
454.70	6303.06
454.89	6104.12
455.07	6263.27
455.26	6361.58
455.44	6417.75
455.62	6312.42
455.81	6452.86
455.99	6537.12
456.17	6366.26
456.36	6420.09
456.54	6272.64
456.73	6621.38
456.91	6654.14
457.09	6597.97
457.28	6705.63
457.46	6635.42
457.64	6745.42
457.83	6654.14
458.01	6684.57
458.19	6867.13
458.38	6567.54
458.56	6649.46
458.74	6745.42
458.93	6789.89
459.11	6871.81
459.29	6766.49
459.48	6806.28
459.66	6745.42
459.84	6944.37
460.03	7136.29
460.21	7002.88
460.39	6911.60
460.57	6946.71
460.76	6942.03
460.94	6986.50
461.12	7157.36
461.31	7021.61
461.49	7321.20
461.67	7016.93
461.85	7016.93
462.04	7183.10
462.22	7358.64
462.40	7442.90
462.59	7316.51
462.77	7267.36
462.95	7412.48
463.13	7225.23
463.32	7274.38
463.50	7323.54
463.68	7566.95
463.86	7272.04
464.05	7344.60
464.23	7262.68
464.41	7669.94
464.59	7456.95
464.78	7700.36
464.96	7573.97
465.14	7281.41
465.32	7501.42
465.50	7620.78
465.69	7573.97
465.87	7606.74
466.05	7632.49
466.23	7571.63
466.41	7599.72
466.60	7796.32
466.78	7627.81
466.96	7438.22
467.14	7602.06
467.32	7726.11
467.51	7798.66
467.69	7485.03
467.87	7873.56
468.05	7857.18
468.23	7850.16
468.41	7709.72
468.60	7953.14
468.78	7850.16
468.96	7894.63
469.14	7957.82
469.32	7939.10
469.50	7971.86
469.69	7957.82
469.87	8016.33
470.05	8175.49
470.23	8215.28
470.41	8168.47
470.59	8175.49
470.77	8119.32
470.95	8372.10
471.14	8358.05
471.32	8161.45
471.50	8276.13
471.68	8475.08
471.86	8372.10
472.04	8617.85
472.22	8493.80
472.40	8456.36
472.58	8498.49
472.77	8594.45
472.95	8650.62
473.13	8917.44
473.31	8582.74
473.49	8791.05
473.67	8781.69
473.85	8915.10
474.03	9163.20
474.21	9153.84
474.39	9156.18
474.57	9100.00
474.75	9266.18
474.93	9109.36
475.12	9039.15
475.30	9226.39
475.48	9301.29
475.66	9605.56
475.84	9254.48
476.02	9521.30
476.20	9584.49
476.38	9523.64
476.56	9806.84
476.74	9984.73
476.92	9638.33
477.10	9696.84
477.28	9870.04
477.46	9886.42
477.64	9968.34
477.82	10120.48
478.00	10263.25
478.18	10457.51
478.36	10335.81
478.54	10518.37
478.72	10260.91
478.90	10829.66
479.08	10633.05
479.26	10490.28
479.44	10757.10
479.62	10827.32
479.80	10871.79
479.98	10993.50
480.16	11183.08
480.34	10949.03
480.52	11311.81
480.70	11330.53
480.88	11297.77
481.06	11379.68
481.24	11300.11
481.41	11428.84
481.59	11466.28
481.77	11838.43
481.95	11946.09
482.13	11836.09
482.31	11817.36
482.49	12219.94
482.67	12058.44
482.85	12341.64
483.03	12484.42
483.21	12484.42
483.39	12779.32
483.57	12542.93
483.74	12461.01
483.92	12784.01
484.10	12748.90
484.28	13163.17
484.46	13172.54
484.64	13687.45
484.82	13097.64
485.00	13497.87
485.18	13554.04
485.35	13893.42
485.53	13813.84
485.71	13907.46
485.89	13973.00
486.07	13900.44
486.25	14321.74
486.43	14190.67
486.61	14260.88
486.78	14263.22
486.96	14644.73
487.14	14773.46
487.32	14548.77
487.50	15183.06
487.68	15150.29
487.85	15360.94
488.03	15342.21
488.21	15421.79
488.39	15337.53
488.57	15559.88
488.75	15473.28
488.92	15957.77
489.10	15985.86
489.28	15950.75
489.46	16393.11
489.64	16002.24
489.81	16367.37
489.99	16594.40
490.17	16587.38
490.35	16828.45
490.53	16812.07
490.70	17114.00
490.88	16812.07
491.06	17048.46
491.24	17125.70
491.41	17392.52
491.59	17666.36
491.77	17376.14
491.95	17659.34
492.13	17790.41
492.30	17724.88
492.48	17570.40
492.66	18031.49
492.84	18026.81
493.01	18181.28
493.19	18162.56
493.37	18459.81
493.54	18607.26
493.72	18663.43
493.90	18789.82
494.08	19077.71
494.25	18871.74
494.43	19026.21
494.61	19159.63
494.79	19168.99
494.96	19227.50
495.14	19346.87
495.32	19646.46
495.49	19857.10
495.67	19721.35
495.85	19843.06
496.02	20250.32
496.20	20152.01
496.38	20191.80
496.55	20182.44
496.73	20486.71
496.91	20304.15
497.09	20414.15
497.26	20947.79
497.44	21015.67
497.62	20809.70
497.79	21130.36
497.97	20882.26
498.14	21675.70
498.32	21694.43
498.50	21331.64
498.67	21558.67
498.85	21532.93
499.03	21352.71
499.20	21710.81
499.38	21642.93
499.56	22218.71
499.73	22192.96
499.91	21986.99
500.08	22249.13
500.26	21741.24
500.44	22230.41
500.61	22429.35
500.79	22394.25
500.97	22419.99
501.14	23094.07
501.32	22670.43
501.49	22562.76
501.67	23110.45
501.84	22864.69
502.02	23087.04
502.20	23271.95
502.37	23262.58
502.55	23122.15
502.72	23225.14
502.90	23541.11
503.07	23662.82
503.25	23627.71
503.43	23438.12
503.60	23941.34
503.78	23782.18
503.95	24011.56
504.13	23810.27
504.30	23733.03
504.48	24280.72
504.65	24023.26
504.83	24184.76
505.01	24641.16
505.18	24084.11
505.36	24753.51
505.53	24489.03
505.71	24634.14
505.88	24800.32
506.06	24650.52
506.23	24697.33
506.41	24961.81
506.58	24755.85
506.76	24774.57
506.93	25170.12
507.11	24889.26
507.28	25242.68
507.46	25305.87
507.63	25371.41
507.81	25516.52
507.98	25483.75
508.16	25296.51
508.33	25703.76
508.50	25350.34
508.68	25986.97
508.85	25891.01
509.03	25872.28
509.20	25671.00
509.38	26239.75
509.55	26431.67
509.73	26377.84
509.90	26773.39
510.08	26368.48
510.25	26326.35
510.42	26677.43
510.60	26768.71
510.77	26625.93
510.95	27072.98
511.12	26822.54
511.30	27192.34
511.47	26995.74
511.64	27103.40
511.82	27653.43
511.99	27288.31
512.17	27398.31
512.34	27559.81
512.51	27950.68
512.69	27779.82
512.86	27559.81
513.04	27786.84
513.21	27765.78
513.38	27707.26
513.56	27695.56
513.73	28154.30
513.90	28343.89
514.08	28041.96
514.25	28498.36
514.43	28552.20
514.60	28297.08
514.77	28463.25
514.95	28357.93
515.12	28173.03
515.29	28364.95
515.47	28498.36
515.64	29024.98
515.81	29214.57
515.99	28886.89
516.16	28748.80
516.33	29289.46
516.51	29064.77
516.68	29331.59
516.85	29434.58
517.03	29537.56
517.20	29497.77
517.37	29111.58
517.54	29305.85
517.72	29422.87
517.89	29244.99
518.06	29500.11
518.24	29467.34
518.41	29598.41
518.58	29645.23
518.75	29727.14
518.93	29867.58
519.10	29633.52
519.27	29883.96
519.45	30164.82
519.62	30197.59
519.79	29972.90
519.96	29869.92
520.14	30649.32
520.31	30085.25
520.48	30319.30
520.65	30293.55
520.83	30452.71
521.00	30445.69
521.17	30305.26
521.34	30988.69
521.52	30735.92
521.69	30511.22
521.86	31030.82
522.03	30948.90
522.20	30916.14
522.38	31276.58
522.55	31028.48
522.72	31211.04
522.89	31363.18
523.07	31431.05
523.24	30855.28
523.41	31487.23
523.58	31412.33
523.75	31889.80
523.92	31810.22
524.10	31960.02
524.27	31777.45
524.44	31868.73
524.61	32002.14
524.78	32144.92
524.96	31885.12
525.13	31990.44
525.30	32226.84
525.47	32107.47
525.64	32428.12
525.81	32292.37
525.98	32521.74
526.16	32231.52
526.33	32467.91
526.50	32807.29
526.67	32322.80
526.84	32842.40
527.01	32676.22
527.18	32828.35
527.36	32692.60
527.53	32898.57
527.70	33312.84
527.87	32823.67
528.04	32868.14
528.21	33048.36
528.38	33006.23
528.55	33530.51
528.72	33500.09
528.89	32964.10
529.07	33081.13
529.24	33050.70
529.41	33694.35
529.58	33244.97
529.75	33156.03
529.92	33296.46
530.09	33537.54
530.26	33626.48
530.43	33551.58
530.60	33507.11
530.77	33834.78
530.94	34110.97
531.11	33820.74
531.28	34040.75
531.46	34019.69
531.63	33860.53
531.80	34227.99
531.97	34197.57
532.14	34122.67
532.31	33991.60
532.48	34312.25
532.65	34721.85
532.82	34059.48
532.99	34373.11
533.16	34129.69
533.33	34763.98
533.50	34726.53
533.67	34593.12
533.84	34684.40
534.01	34909.09
534.18	34590.78
534.35	35374.86
534.52	34658.65
534.69	34855.26
534.86	35016.75
535.03	34380.13
535.20	35072.93
535.37	35288.26
535.54	35122.08
535.71	34986.33
535.88	34803.77
536.05	35229.74
536.22	35473.16
536.38	35505.93
536.55	35510.61
536.72	35531.67
536.89	35693.17
537.06	35475.50
537.23	35971.69
537.40	35571.46
537.57	35576.14
537.74	35805.52
537.91	35812.54
538.08	35494.22
538.25	35557.42
538.42	35594.87
538.59	35976.37
538.75	35611.25
538.92	35976.37
539.09	36339.16
539.26	35810.20
539.43	36151.91
539.60	36329.80
539.77	35885.09
539.94	36112.13
540.11	36470.23
540.28	36823.65
540.44	36828.33
540.61	36622.36
540.78	36376.61
540.95	36297.03
541.12	36898.55
541.29	36800.24
541.46	37151.32
541.62	36858.76
541.79	37181.75
541.96	37031.96
542.13	36627.04
542.30	36868.12
542.47	37425.17
542.63	36790.88
542.80	37570.28
542.97	38010.30
543.14	37607.73
543.31	37230.90
543.48	37397.08
543.64	37970.51
543.81	37694.33
543.98	37748.16
544.15	37902.64
544.32	38258.40
544.48	38188.18
544.65	37851.14
544.82	37998.60
544.99	37579.64
545.16	37998.60
545.32	38218.61
545.49	38937.15
545.66	39154.82
545.83	38850.55
546.00	38869.28
546.16	38656.29
546.33	38752.25
546.50	38274.78
546.67	38005.62
546.83	38019.66
547.00	38541.60
547.17	38078.18
547.34	38040.73
547.50	38742.89
547.67	38415.21
547.84	38885.66
548.00	38602.46
548.17	38787.36
548.34	38412.87
548.51	38831.83
548.67	38810.76
548.84	38794.38
549.01	38560.33
549.18	38710.12
549.34	38967.58
549.51	38735.87
549.68	39079.92
549.84	39152.48
550.01	39037.80
550.18	38635.22
550.34	38773.31
550.51	38866.94
550.68	39131.42
550.84	38932.47
551.01	39164.18
551.18	38852.89
551.34	38679.69
551.51	39187.59
551.68	39117.37
551.84	38986.30
552.01	38904.38
552.18	39395.90
552.34	39260.15
552.51	39503.56
552.68	39189.93
552.84	39510.58
553.01	39360.79
553.18	39262.49
553.34	39452.07
553.51	39241.42
553.67	39330.36
553.84	39447.39
554.01	39737.62
554.17	39718.89
554.34	39758.68
554.51	39260.15
554.67	39489.52
554.84	39658.04
555.00	39292.91
555.17	39381.85
555.33	39648.68
555.50	39484.84
555.67	39648.68
555.83	39789.11
556.00	39950.60
556.16	40020.82
556.33	39995.07
556.50	40112.10
556.66	39938.90
556.83	39756.34
556.99	40020.82
557.16	40116.78
557.32	40509.99
557.49	40587.23
557.65	40198.70
557.82	40198.70
557.98	39803.15
558.15	39655.70
558.32	40201.04
558.48	40004.44
558.65	40540.42
558.81	40399.99
558.98	40343.81
559.14	40519.35
559.31	40442.12
559.47	40095.72
559.64	40509.99
559.80	40615.32
559.97	40837.67
560.13	40149.55
560.30	40589.57
560.46	40470.20
560.63	40767.45
560.79	41013.21
560.96	40645.74
561.12	41081.08
561.29	40631.70
561.45	40542.76
561.61	40261.90
561.78	40493.61
561.94	40697.24
562.11	41207.47
562.27	41364.29
562.44	41392.37
562.60	41148.96
562.77	40584.89
562.93	40535.74
563.10	41385.35
563.26	40474.88
563.42	41256.62
563.59	40893.84
563.75	40390.62
563.92	41233.22
564.08	40844.69
564.24	41010.87
564.41	40973.42
564.57	40854.05
564.74	40650.42
564.90	41397.06
565.07	41439.18
565.23	40800.22
565.39	41146.62
565.56	41394.71
565.72	40699.58
565.88	41233.22
566.05	41228.54
566.21	40950.01
566.38	40975.76
566.54	41216.83
566.70	41507.06
566.87	41464.93
567.03	41441.53
567.19	41537.49
567.36	41790.27
567.52	41148.96
567.68	41294.07
567.85	41010.87
568.01	41628.77
568.17	41350.24
568.34	41181.73
568.50	41251.94
568.66	41741.11
568.83	42024.32
568.99	41415.78
569.15	41404.08
569.32	41638.13
569.48	41020.23
569.64	41263.64
569.81	41361.95
569.97	41413.44
570.13	41500.04
570.30	41462.59
570.46	41647.49
570.62	41640.47
570.78	41148.96
570.95	41083.42
571.11	41752.82
571.27	41572.60
571.43	41350.24
571.60	41502.38
571.76	41053.00
571.92	41607.70
572.09	41553.87
572.25	41839.42
572.41	42300.50
572.57	41806.65
572.74	41598.34
572.90	41567.91
573.06	41895.59
573.22	41619.41
573.38	41841.76
573.55	41626.43
573.71	41993.89
573.87	41305.77
574.03	41455.57
574.20	41961.12
574.36	41874.52
574.52	42326.25
574.68	41900.27
574.84	42218.58
575.01	41928.36
575.17	42045.38
575.33	41858.14
575.49	41598.34
575.65	42080.49
575.82	42124.96
575.98	42160.07
576.14	42286.46
576.30	41949.42
576.46	41830.05
576.62	41993.89
576.79	41886.23
576.95	41757.50
577.11	41996.23
577.27	42043.04
577.43	41610.04
577.59	42122.62
577.75	42078.15
577.92	42040.70
578.08	41900.27
578.24	41933.04
578.40	42192.84
578.56	42663.28
578.72	42089.85
578.88	42452.64
579.04	42665.63
579.21	42094.53
579.37	41916.65
579.53	42363.70
579.69	41928.36
579.85	41736.43
580.01	42354.33
580.17	42700.73
580.33	41984.53
580.49	42209.22
580.65	42153.05
580.82	42040.70
580.98	42174.11
581.14	42244.33
581.30	42143.69
581.46	41900.27
581.62	41874.52
581.78	42185.82
581.94	42110.92
582.10	42078.15
582.26	41876.86
582.42	42162.41
582.58	42202.20
582.74	42394.12
582.90	42258.37
583.06	41855.80
583.22	42064.11
583.38	41820.69
583.54	41918.99
583.70	41797.29
583.86	42366.04
584.02	42092.19
584.18	42656.26
584.34	42293.48
584.50	42611.79
584.66	42447.96
584.82	41523.44
584.98	42309.86
585.14	41993.89
585.30	42174.11
585.46	42403.49
585.62	42178.79
585.78	42674.99
585.94	42328.59
586.10	42314.55
586.26	42534.56
586.42	42417.53
586.58	42265.39
586.74	42534.56
586.90	42059.43
587.06	42120.28
587.22	42361.36
587.38	42562.64
587.54	43021.39
587.70	43103.31
587.86	42864.57
588.02	42307.52
588.18	42541.58
588.34	43044.79
588.49	42703.07
588.65	42190.50
588.81	42150.71
588.97	42916.06
589.13	42340.29
589.29	42241.99
589.45	42965.21
589.61	42717.12
589.77	42714.78
589.93	42576.69
590.08	42553.28
590.24	42911.38
590.40	42698.39
590.56	42522.85
590.72	42314.55
590.88	42094.53
591.04	42401.14
591.20	43107.99
591.35	43100.97
591.51	43243.74
591.67	43026.07
591.83	43206.29
591.99	42501.79
592.15	42714.78
592.31	42576.69
592.46	43248.42
592.62	42394.12
592.78	42377.74
592.94	43028.41
593.10	42836.48
593.26	43077.56
593.41	42960.53
593.57	42707.76
593.73	43016.71
593.89	43143.09
594.05	42897.34
594.20	42560.30
594.36	42735.84
594.52	42969.90
594.68	42841.17
594.84	42529.87
594.99	43267.14
595.15	43217.99
595.31	43098.62
595.47	42939.47
595.62	42862.23
595.78	42724.14
595.94	42824.78
596.10	42595.41
596.25	42586.05
596.41	42920.74
596.57	42696.05
596.73	42817.76
596.88	42906.70
597.04	43037.77
597.20	43140.75
597.36	42871.59
597.51	42951.17
597.67	42892.66
597.83	43035.43
597.99	43182.88
598.14	42918.40
598.30	43260.12
598.46	42480.72
598.61	43313.95
598.77	42796.70
598.93	42864.57
599.09	42972.24
599.24	43707.16
599.40	43473.11
599.56	43292.89
599.71	43016.71
599.87	43068.20
600.03	42878.61
600.18	43442.68
600.34	42899.68
600.50	42761.59
600.65	42295.82
600.81	43217.99
600.97	43367.79
601.12	43196.93
601.28	43035.43
601.44	43072.88
601.59	43470.77
601.75	42810.74
601.91	42803.72
602.06	43164.16
602.22	43002.66
602.37	42724.14
602.53	42784.99
602.69	43730.57
602.84	43311.61
603.00	43473.11
603.16	43283.53
603.31	43035.43
603.47	42806.06
603.62	42887.98
603.78	42583.71
603.94	42436.25
604.09	43145.44
604.25	43077.56
604.40	43056.50
604.56	43056.50
604.71	43086.92
604.87	42845.85
605.03	42689.03
605.18	42738.18
605.34	42557.96
605.49	42595.41
605.65	42270.08
605.80	42724.14
605.96	42670.31
606.12	43122.03
606.27	43849.94
606.43	42705.41
606.58	43241.40
606.74	42857.55
606.89	43028.41
607.05	43227.35
607.20	42944.15
607.36	42745.20
607.51	42871.59
607.67	42644.56
607.82	43084.58
607.98	42618.81
608.13	42644.56
608.29	42548.60
608.44	42899.68
608.60	42974.58
608.75	43346.72
608.91	42663.28
609.06	42508.81
609.22	42658.60
609.37	42342.63
609.53	42312.20
609.68	42412.85
609.84	42410.51
609.99	42962.87
610.15	42911.38
610.30	43299.91
610.46	43283.53
610.61	43138.41
610.76	43360.76
610.92	43363.11
611.07	43421.62
611.23	43728.23
611.38	43171.18
611.54	43435.66
611.69	44198.68
611.84	43590.14
612.00	43234.38
612.15	43482.47
612.31	43374.81
612.46	42742.86
612.62	42913.72
612.77	42497.11
612.92	43166.50
613.08	42256.03
613.23	42494.77
613.39	42803.72
613.54	42195.18
613.69	42080.49
613.85	42850.53
614.00	43098.62
614.15	42480.72
614.31	42644.56
614.46	42927.77
614.62	42373.06
614.77	42176.45
614.92	42384.76
615.08	42230.29
615.23	42220.92
615.38	42244.33
615.54	41530.47
615.69	42047.72
615.84	42080.49
616.00	42660.94
616.15	42031.34
616.30	42162.41
616.46	42225.60
616.61	41907.29
616.76	42099.22
616.92	41895.59
617.07	41574.94
617.22	41691.96
617.37	41951.76
617.53	41764.52
617.68	41804.31
617.83	41755.16
617.99	41862.82
618.14	42237.31
618.29	41579.62
618.45	41368.97
618.60	41418.12
618.75	41523.44
618.90	41144.28
619.06	41083.42
619.21	41619.41
619.36	41148.96
619.51	41345.56
619.67	41387.69
619.82	41476.63
619.97	41420.46
620.12	41474.29
620.28	41404.08
620.43	42146.03
620.58	41588.98
620.73	41600.68
620.89	41570.25
621.04	41514.08
621.19	40521.69
621.34	41062.36
621.49	40942.99
621.65	41263.64
621.80	41123.21
621.95	41659.20
622.10	41462.59
622.25	41160.66
622.41	40926.61
622.56	40673.83
622.71	41221.52
622.86	41137.26
623.01	40795.54
623.16	40596.59
623.32	41265.99
623.47	41282.37
623.62	41495.36
623.77	41275.35
623.92	40978.10
624.07	41343.22
624.23	41628.77
624.38	41090.44
624.53	41134.92
624.68	41090.44
624.83	40985.12
624.98	40847.03
625.13	40612.98
625.29	40835.33
625.44	40472.54
625.59	40364.88
625.74	40779.15
625.89	40730.00
626.04	40610.64
626.19	40329.77
626.34	40362.54
626.49	40428.07
626.65	40388.28
626.80	40725.32
626.95	40217.43
627.10	40161.25
627.25	40641.06
627.40	39910.82
627.55	40247.85
627.70	40357.86
627.85	40121.46
628.00	40456.16
628.15	39730.59
628.30	40098.06
628.45	40282.96
628.60	40102.74
628.76	40086.36
628.91	40247.85
629.06	39651.02
629.21	39655.70
629.36	39487.18
629.51	40027.84
629.66	39924.86
629.81	39866.34
629.96	39971.67
630.11	40037.20
630.26	40259.55
630.41	40205.72
630.56	40109.76
630.71	39835.92
630.86	39938.90
631.01	39938.90
631.16	39995.07
631.31	39903.79
631.46	39452.07
631.61	39519.95
631.76	39538.67
631.91	39349.09
632.06	39517.60
632.21	39758.68
632.36	39763.36
632.51	39236.74
632.66	39906.13
632.81	39330.36
632.96	39569.10
633.10	39468.45
633.25	39098.65
633.40	39075.24
633.55	39035.45
633.70	39262.49
633.85	39002.69
634.00	39381.85
634.15	39498.88
634.30	38946.51
634.45	39096.31
634.60	39456.75
634.75	39388.88
634.90	38890.34
635.05	39281.21
635.19	39103.33
635.34	39012.05
635.49	38785.02
635.64	39100.99
635.79	38710.12
635.94	38717.14
636.09	38689.06
636.24	38712.46
636.39	38864.60
636.53	39063.54
636.68	38953.54
636.83	38927.79
636.98	39337.38
637.13	38424.57
637.28	38775.66
637.43	38738.21
637.57	38604.80
637.72	37961.15
637.87	38132.01
638.02	38611.82
638.17	38447.98
638.32	38312.23
638.46	38134.35
638.61	38330.95
638.76	38422.23
638.91	38625.86
639.06	39295.25
639.20	39040.14
639.35	38806.08
639.50	38455.00
639.65	37961.15
639.80	38270.10
639.94	38068.81
640.09	38045.41
640.24	38094.56
640.39	38080.52
640.54	37666.24
640.68	38337.98
640.83	37757.52
640.98	38225.63
641.13	37785.61
641.27	37874.55
641.42	37989.24
641.57	38064.13
641.72	37984.55
641.86	37422.83
642.01	37284.73
642.16	37479.00
642.31	37619.43
642.45	37897.95
642.60	37483.68
642.75	37684.97
642.90	37886.25
643.04	37273.03
643.19	37563.26
643.34	37963.49
643.48	37982.21
643.63	37614.75
643.78	36940.68
643.93	37312.82
644.07	37120.90
644.22	37443.89
644.37	37495.38
644.51	37776.25
644.66	37432.19
644.81	37645.18
644.95	37928.38
645.10	37535.17
645.25	37556.24
645.39	37572.62
645.54	37532.83
645.69	37373.67
645.83	37479.00
645.98	37361.97
646.13	37443.89
646.27	37418.14
646.42	37378.36
646.57	37801.99
646.71	37074.09
646.86	37205.16
647.00	37191.11
647.15	37275.37
647.30	36971.10
647.44	37357.29
647.59	37074.09
647.74	37106.85
647.88	37368.99
648.03	37230.90
648.17	36926.63
648.32	36912.59
648.47	36425.76
648.61	36598.96
648.76	36940.68
648.90	36900.89
649.05	36865.78
649.20	36744.07
649.34	37237.92
649.49	37261.33
649.63	37352.61
649.78	37298.78
649.92	36982.80
650.07	36811.95
650.21	37144.30
650.36	37249.63
650.51	36638.75
650.65	36781.52
650.80	36830.67
650.94	36772.16
651.09	37006.21
651.23	36411.71
651.38	36884.50
651.52	36278.30
651.67	36610.66
651.81	36617.68
651.96	36318.09
652.10	36416.40
652.25	35929.56
652.39	36062.97
652.54	35833.60
652.68	36135.53
652.83	35519.97
652.97	36580.23
653.12	36203.41
653.26	36336.82
653.41	36577.89
653.55	36683.22
653.70	36147.23
653.84	36189.36
653.99	35665.08
654.13	35917.86
654.27	35707.21
654.42	35669.76
654.56	36084.04
654.71	36048.93
654.85	36027.87
655.00	36189.36
655.14	35667.42
655.29	35805.52
655.43	35955.31
655.57	35386.56
655.72	35828.92
655.86	35784.45
656.01	35629.98
656.15	35697.85
656.30	36123.83
656.44	35644.02
656.58	35585.50
656.73	35522.31
656.87	35625.29
657.01	35887.43
657.16	35833.60
657.30	35667.42
657.45	35480.18
657.59	35044.84
657.73	35093.99
657.88	35629.98
658.02	35314.00
658.16	35545.72
658.31	35658.06
658.45	35637.00
658.60	34815.47
658.74	34962.92
658.88	35262.51
659.03	35079.95
659.17	34845.90
659.31	34911.43
659.46	35173.57
659.60	35019.10
659.74	34590.78
659.89	35276.55
660.03	34876.32
660.17	35063.57
660.32	34625.89
660.46	34471.41
660.60	34082.88
660.74	34808.45
660.89	34312.25
661.03	34302.89
661.17	34965.26
661.32	34597.80
661.46	34487.79
661.60	34335.66
661.74	34330.98
661.89	33991.60
662.03	34422.26
662.17	34094.58
662.31	34340.34
662.46	34143.74
662.60	33755.21
662.74	34235.02
662.88	33956.49
663.03	34071.18
663.17	33684.99
663.31	33479.02
663.45	33860.53
663.60	33593.71
663.74	33036.66
663.88	34139.05
664.02	33366.68
664.17	33120.92
664.31	33504.77
664.45	32957.08
664.59	33198.16
664.73	33141.99
664.88	33212.20
665.02	33172.41
665.16	33268.37
665.30	33338.59
665.44	33181.77
665.59	32655.15
665.73	33120.92
665.87	32760.48
666.01	32472.59
666.15	32940.70
666.29	32180.03
666.44	32818.99
666.58	32613.02
666.72	32594.30
666.86	32755.80
667.00	32552.17
667.14	32606.00
667.28	32584.94
667.43	32463.23
667.57	32601.32
667.71	32601.32
667.85	32299.39
667.99	32865.80
668.13	32273.65
668.27	32208.11
668.41	32364.93
668.56	31915.54
668.70	31768.09
668.84	31634.68
668.98	31501.27
669.12	31915.54
669.26	31845.33
669.40	31543.40
669.54	31601.91
669.68	31512.97
669.82	31529.36
669.96	31969.38
670.10	31328.07
670.25	31749.37
670.39	31082.31
670.53	30976.99
670.67	31227.43
670.81	31168.91
670.95	31477.86
671.09	31253.17
671.23	30766.34
671.37	31339.77
671.51	31208.70
671.65	31470.84
671.79	31154.87
671.93	31047.21
672.07	31103.38
672.21	30913.80
672.35	30965.29
672.49	30927.84
672.63	30656.34
672.77	30836.56
672.91	30478.46
673.05	30281.85
673.19	30206.95
673.33	29968.22
673.47	29542.24
673.61	29839.49
673.75	30202.27
673.89	30038.44
674.03	29591.39
674.17	29649.91
674.31	30277.17
674.45	30150.78
674.59	29804.38
674.73	29780.98
674.87	29535.22
675.01	29591.39
675.15	29481.39
675.29	29273.08
675.43	29490.75
675.56	29294.14
675.70	29170.10
675.84	29062.43
675.98	28144.94
676.12	28683.27
676.26	28800.29
676.40	28774.55
676.54	29027.32
676.68	28575.60
676.82	28496.02
676.96	28783.91
677.10	28952.43
677.23	28133.24
677.37	28554.54
677.51	28498.36
677.65	28453.89
677.79	27983.44
677.93	27833.65
678.07	27688.54
678.21	27548.11
678.34	27931.95
678.48	27372.57
678.62	27688.54
678.76	27536.40
678.90	27442.78
679.04	27620.66
679.18	27419.38
679.31	26609.55
679.45	27089.36
679.59	27374.91
679.73	27051.91
679.87	27058.93
680.00	26417.63
680.14	26443.37
680.28	26389.54
680.42	26342.73
680.56	26520.61
680.70	26288.90
680.83	26017.40
680.97	26293.58
681.11	26309.96
681.25	26394.22
681.39	26221.02
681.52	26244.43
681.66	26064.21
681.80	25617.16
681.94	25785.68
682.07	25663.97
682.21	25799.73
682.35	25577.37
682.49	26036.12
682.62	25493.12
682.76	25406.52
682.90	24926.71
683.04	25118.63
683.17	24968.84
683.31	25022.67
683.45	24676.27
683.59	24863.51
683.72	24840.11
683.86	24713.72
684.00	24851.81
684.13	24463.28
684.27	23892.19
684.41	24173.05
684.55	24547.54
684.68	24229.23
684.82	24175.39
684.96	23775.16
685.09	23840.70
685.23	23997.51
685.37	24240.93
685.50	23934.32
685.64	23798.57
685.78	23765.80
685.91	23723.67
686.05	23491.96
686.19	23372.59
686.32	22845.97
686.46	23328.12
686.60	22970.02
686.73	23370.25
686.87	23161.94
687.01	23246.20
687.14	23243.86
687.28	22897.46
687.42	22771.07
687.55	23222.80
687.69	22487.87
687.82	22810.86
687.96	22728.94
688.10	22525.32
688.23	22586.17
688.37	22148.49
688.50	22338.07
688.64	22253.81
688.78	22368.50
688.91	22246.79
689.05	21994.01
689.18	21654.64
689.32	21507.18
689.46	21876.99
689.59	21413.56
689.73	21734.21
689.86	21348.03
690.00	21193.55
690.13	21118.65
690.27	21411.22
690.41	21109.29
690.54	20917.37
690.68	20915.03
690.81	21097.59
690.95	20713.74
691.08	20798.00
691.22	20381.38
691.35	20271.38
691.49	20634.16
691.62	20463.30
691.76	20688.00
691.89	20673.95
692.03	20489.05
692.16	20395.43
692.30	20255.00
692.43	19814.98
692.57	20032.65
692.70	20159.03
692.84	19370.27
692.97	19646.46
693.11	19529.43
693.24	19503.68
693.38	19459.21
693.51	19311.76
693.65	19311.76
693.78	19440.49
693.92	19513.05
694.05	19201.76
694.19	19030.90
694.32	19152.60
694.45	19166.65
694.59	18946.64
694.72	18941.96
694.86	18567.47
694.99	18602.58
695.13	18405.97
695.26	18541.72
695.39	18188.30
695.53	18342.78
695.66	18359.16
695.80	17944.89
695.93	18197.67
696.07	17909.78
696.20	18029.15
696.33	18115.75
696.47	18085.32
696.60	17392.52
696.73	17841.90
696.87	17605.51
697.00	18010.42
697.14	17614.87
697.27	17394.86
697.40	17362.09
697.54	17191.23
697.67	17149.11
697.80	17109.32
697.94	16926.75
698.07	17041.44
698.21	16718.45
698.34	16702.06
698.47	16601.42
698.61	16512.48
698.74	16657.59
698.87	16702.06
699.01	16468.01
699.14	16435.24
699.27	16592.06
699.40	16575.67
699.54	16676.32
699.67	16393.11
699.80	15950.75
699.94	15838.41
700.07	15807.98
700.20	15719.04
700.34	15515.41
700.47	15840.75
700.60	15627.76
700.73	15690.95
700.87	15599.67
701.00	15295.40
701.13	15318.81
701.26	15358.60
701.40	15208.80
701.53	15227.53
701.66	15037.94
701.79	14984.11
701.93	14927.94
702.06	14949.00
702.19	15353.91
702.32	14750.06
702.46	14640.05
702.59	14455.15
702.72	14623.67
702.85	14518.34
702.99	14326.42
703.12	14459.83
703.25	14258.54
703.38	14272.59
703.51	14183.65
703.65	14363.87
703.78	14223.44
703.91	13834.91
704.04	14127.47
704.17	14001.08
704.31	14104.07
704.44	13493.19
704.57	13898.10
704.70	13734.26
704.83	13523.62
704.96	13420.63
705.10	13275.52
705.23	13420.63
>>>>>End Processed Spectral Data<<<<<
