SpectraSuite Data File
++++++++++++++++++++++++++++++++++++
Date: Thu Oct 24 13:21:04 EDT 2013
User: stostad
Dark Spectrum Present: No
Reference Spectrum Present: No
Number of Sampled Component Spectra: 1
Spectrometers: USB2+H05261
Integration Time (usec): 100000 (USB2+H05261)
Spectra Averaged: 1 (USB2+H05261)
Boxcar Smoothing: 0 (USB2+H05261)
Correct for Electrical Dark: No (USB2+H05261)
Strobe/Lamp Enabled: No (USB2+H05261)
Correct for Detector Non-linearity: No (USB2+H05261)
Correct for Stray Light: No (USB2+H05261)
Number of Pixels in Processed Spectrum: 2048
>>>>>Begin Processed Spectral Data<<<<<
365.73	573.43
365.92	573.43
366.12	573.43
366.32	402.57
366.52	444.70
366.72	482.15
366.91	435.34
367.11	425.98
367.31	437.68
367.51	433.00
367.70	489.17
367.90	475.13
368.10	409.59
368.30	496.19
368.49	472.79
368.69	475.13
368.89	486.83
369.09	507.90
369.28	493.85
369.48	461.09
369.68	535.98
369.87	554.71
370.07	564.07
370.27	575.77
370.47	653.01
370.66	730.25
370.86	660.03
371.06	662.37
371.25	711.52
371.45	662.37
371.65	744.29
371.84	709.18
372.04	716.20
372.24	786.42
372.44	748.97
372.63	770.04
372.83	805.14
373.03	847.27
373.22	795.78
373.42	777.06
373.62	884.72
373.81	795.78
374.01	758.33
374.21	873.02
374.40	777.06
374.60	835.57
374.79	896.43
374.99	854.30
375.19	767.70
375.38	828.55
375.58	828.55
375.78	875.36
375.97	823.87
376.17	940.90
376.37	772.38
376.56	821.53
376.76	763.01
376.95	849.61
377.15	821.53
377.35	896.43
377.54	861.32
377.74	891.74
377.93	779.40
378.13	856.64
378.33	823.87
378.52	739.61
378.72	847.27
378.91	905.79
379.11	858.98
379.31	875.36
379.50	798.12
379.70	823.87
379.89	887.06
380.09	863.66
380.28	866.00
380.48	891.74
380.68	802.80
380.87	896.43
381.07	870.68
381.26	922.17
381.46	875.36
381.65	933.87
381.85	887.06
382.04	889.40
382.24	887.06
382.43	940.90
382.63	861.32
382.83	954.94
383.02	912.81
383.22	926.85
383.41	873.02
383.61	884.72
383.80	919.83
384.00	880.04
384.19	903.45
384.39	947.92
384.58	908.13
384.78	891.74
384.97	929.19
385.17	821.53
385.36	910.47
385.56	873.02
385.75	908.13
385.95	894.08
386.14	863.66
386.34	924.51
386.53	915.15
386.72	931.53
386.92	980.68
387.11	968.98
387.31	940.90
387.50	868.34
387.70	1025.15
387.89	940.90
388.09	1004.09
388.28	924.51
388.48	952.60
388.67	957.28
388.86	1034.52
389.06	947.92
389.25	976.00
389.45	943.24
389.64	947.92
389.84	922.17
390.03	1022.81
390.22	891.74
390.42	999.41
390.61	976.00
390.81	1020.47
391.00	1095.37
391.19	1008.77
391.39	1050.90
391.58	980.68
391.78	1071.97
391.97	1048.56
392.16	1039.20
392.36	1022.81
392.55	1043.88
392.75	987.71
392.94	1090.69
393.13	1004.09
393.33	1095.37
393.52	1167.93
393.71	1029.84
393.91	1123.46
394.10	1074.31
394.29	1018.13
394.49	1104.73
394.68	1076.65
394.88	1076.65
395.07	1069.62
395.26	1107.07
395.46	1137.50
395.65	1069.62
395.84	1172.61
396.04	1167.93
396.23	1158.57
396.42	1109.41
396.62	1100.05
396.81	1125.80
397.00	1203.04
397.19	1165.59
397.39	1114.10
397.58	1196.01
397.77	1151.54
397.97	1165.59
398.16	1263.89
398.35	1200.69
398.55	1139.84
398.74	1153.88
398.93	1193.67
399.12	1111.75
399.32	1135.16
399.51	1207.72
399.70	1156.22
399.90	1247.51
400.09	1172.61
400.28	1275.59
400.47	1217.08
400.67	1139.84
400.86	1212.40
401.05	1238.14
401.24	1217.08
401.44	1247.51
401.63	1324.74
401.82	1362.19
402.01	1238.14
402.21	1261.55
402.40	1348.15
402.59	1301.34
402.78	1303.68
402.97	1366.87
403.17	1362.19
403.36	1280.27
403.55	1401.98
403.74	1430.07
403.93	1458.15
404.13	1479.22
404.32	1350.49
404.51	1420.71
404.70	1500.28
404.89	1397.30
405.09	1373.89
405.28	1383.26
405.47	1439.43
405.66	1432.41
405.85	1362.19
406.05	1366.87
406.24	1406.66
406.43	1474.54
406.62	1458.15
406.81	1460.49
407.00	1444.11
407.20	1472.20
407.39	1437.09
407.58	1511.99
407.77	1507.30
407.96	1504.96
408.15	1633.69
408.34	1547.09
408.54	1526.03
408.73	1537.73
408.92	1490.92
409.11	1561.14
409.30	1624.33
409.49	1540.07
409.68	1596.25
409.87	1497.94
410.07	1619.65
410.26	1624.33
410.45	1633.69
410.64	1643.06
410.83	1631.35
411.02	1706.25
411.21	1717.95
411.40	1600.93
411.59	1682.85
411.78	1760.08
411.98	1673.48
412.17	1722.63
412.36	1692.21
412.55	1713.27
412.74	1797.53
412.93	1788.17
413.12	1762.42
413.31	1795.19
413.50	1804.55
413.69	1736.68
413.88	1870.09
414.07	1781.15
414.26	1944.99
414.45	1858.39
414.64	1907.54
414.83	1888.81
415.02	1881.79
415.22	1879.45
415.41	1987.11
415.60	1895.83
415.79	1966.05
415.98	2010.52
416.17	1991.80
416.36	1980.09
416.55	1952.01
416.74	1961.37
416.93	2066.69
417.12	2029.24
417.31	2029.24
417.50	1947.33
417.69	2019.88
417.88	2047.97
418.07	2167.34
418.26	2050.31
418.45	2125.21
418.64	2129.89
418.83	2111.16
419.02	2047.97
419.21	2169.68
419.39	2181.38
419.58	2132.23
419.77	2115.84
419.96	2368.62
420.15	2221.17
420.34	2218.83
420.53	2169.68
420.72	2249.25
420.91	2333.51
421.10	2204.78
421.29	2279.68
421.48	2153.29
421.67	2260.96
421.86	2314.79
422.05	2275.00
422.24	2186.06
422.43	2230.53
422.61	2310.11
422.80	2284.36
422.99	2277.34
423.18	2253.94
423.37	2356.92
423.56	2396.71
423.75	2312.45
423.94	2312.45
424.13	2181.38
424.32	2296.07
424.50	2340.54
424.69	2298.41
424.88	2352.24
425.07	2370.96
425.26	2382.67
425.45	2335.85
425.64	2310.11
425.83	2331.17
426.01	2340.54
426.20	2347.56
426.39	2375.64
426.58	2333.51
426.77	2312.45
426.96	2303.09
427.15	2300.75
427.33	2480.97
427.52	2403.73
427.71	2417.77
427.90	2438.84
428.09	2466.92
428.28	2480.97
428.46	2520.76
428.65	2539.48
428.84	2560.55
429.03	2574.59
429.22	2480.97
429.40	2476.29
429.59	2553.52
429.78	2431.82
429.97	2342.88
430.16	2487.99
430.34	2558.21
430.53	2520.76
430.72	2576.93
430.91	2581.61
431.10	2665.87
431.28	2724.38
431.47	2614.38
431.66	2551.18
431.85	2581.61
432.03	2630.76
432.22	2686.94
432.41	2754.81
432.60	2684.59
432.79	2668.21
432.97	2684.59
433.16	2733.75
433.35	2658.85
433.54	2740.77
433.72	2743.11
433.91	2726.72
434.10	2806.30
434.28	2719.70
434.47	2738.43
434.66	2747.79
434.85	2768.85
435.03	2855.45
435.22	3054.40
435.41	3187.81
435.59	3108.23
435.78	3047.38
435.97	3063.76
436.16	2862.48
436.34	2867.16
436.53	2930.35
436.72	2909.29
436.90	2834.39
437.09	2906.95
437.28	2869.50
437.46	2909.29
437.65	3016.95
437.84	3054.40
438.02	2909.29
438.21	2991.20
438.40	2972.48
438.58	2995.89
438.77	3136.32
438.96	3000.57
439.14	3000.57
439.33	3033.33
439.52	3005.25
439.70	3229.94
439.89	3162.06
440.08	3014.61
440.26	3141.00
440.45	3204.19
440.63	3194.83
440.82	3321.22
441.01	3318.88
441.19	3225.26
441.38	3307.18
441.57	3295.47
441.75	3349.31
441.94	3407.82
442.12	3349.31
442.31	3417.18
442.50	3332.92
442.68	3325.90
442.87	3363.35
443.05	3583.36
443.24	3405.48
443.43	3557.61
443.61	3468.67
443.80	3552.93
443.98	3485.06
444.17	3417.18
444.35	3393.78
444.54	3566.98
444.73	3541.23
444.91	3602.08
445.10	3581.02
445.28	3548.25
445.47	3520.17
445.65	3578.68
445.84	3520.17
446.02	3665.28
446.21	3616.13
446.39	3485.06
446.58	3630.17
446.77	3520.17
446.95	3412.50
447.14	3492.08
447.32	3613.79
447.51	3588.04
447.69	3515.48
447.88	3480.38
448.06	3571.66
448.25	3602.08
448.43	3520.17
448.62	3576.34
448.80	3599.74
448.99	3613.79
449.17	3641.87
449.36	3517.83
449.54	3620.81
449.73	3630.17
449.91	3707.41
450.10	3674.64
450.28	3705.07
450.46	3815.07
450.65	3655.92
450.83	3763.58
451.02	3714.43
451.20	3812.73
451.39	3740.18
451.57	3712.09
451.76	3861.88
451.94	3906.35
452.13	3861.88
452.31	3817.41
452.49	3723.79
452.68	3882.95
452.86	3859.54
453.05	3920.40
453.23	3971.89
453.42	3784.65
453.60	3941.46
453.78	3911.04
453.97	3894.65
454.15	3719.11
454.34	3934.44
454.52	3882.95
454.70	4109.98
454.89	3822.09
455.07	3971.89
455.26	4058.49
455.44	4107.64
455.62	4173.18
455.81	4004.66
455.99	4112.32
456.17	4091.26
456.36	4042.11
456.54	4161.47
456.73	4187.22
456.91	4238.71
457.09	4198.92
457.28	4227.01
457.46	4227.01
457.64	4271.48
457.83	4325.31
458.01	4355.74
458.19	4395.53
458.38	4182.54
458.56	4224.67
458.74	4222.33
458.93	4341.69
459.11	4224.67
459.29	4360.42
459.48	4444.68
459.66	4528.94
459.84	4393.19
460.03	4376.80
460.21	4440.00
460.39	4367.44
460.57	4477.44
460.76	4482.13
460.94	4596.81
461.12	4304.25
461.31	4528.94
461.49	4472.76
461.67	4407.23
461.85	4512.55
462.04	4514.89
462.22	5034.49
462.40	4601.49
462.59	4489.15
462.77	4697.46
462.95	4655.33
463.13	4671.71
463.32	4629.58
463.50	4685.75
463.68	4725.54
463.86	4746.61
464.05	4655.33
464.23	4685.75
464.41	4699.80
464.59	4575.75
464.78	4835.55
464.96	4645.96
465.14	4589.79
465.32	4800.44
465.50	4840.23
465.69	4894.06
465.87	4732.56
466.05	4812.14
466.23	4739.58
466.41	4952.57
466.60	4861.29
466.78	4767.67
466.96	4952.57
467.14	4842.57
467.32	4975.98
467.51	4830.87
467.69	4800.44
467.87	5041.51
468.05	4966.62
468.23	4877.68
468.41	4940.87
468.60	4912.78
468.78	4978.32
468.96	4966.62
469.14	4964.28
469.32	5085.98
469.50	5121.09
469.69	4917.47
469.87	5153.86
470.05	5186.63
470.23	5165.56
470.41	5139.82
470.59	5263.86
470.77	5282.59
470.95	5303.65
471.14	5273.23
471.32	5184.29
471.50	5252.16
471.68	5233.44
471.86	5334.08
472.04	5554.09
472.22	5217.05
472.40	5219.39
472.58	5341.10
472.77	5432.38
472.95	5451.11
473.13	5486.22
473.31	5387.91
473.49	5446.43
473.67	5432.38
473.85	5439.40
474.03	5582.18
474.21	5619.63
474.39	5680.48
474.57	5666.44
474.75	5860.70
474.93	5741.33
475.12	5717.93
475.30	5841.98
475.48	5760.06
475.66	5738.99
475.84	5781.12
476.02	5935.60
476.20	5921.56
476.38	6043.26
476.56	6242.21
476.74	6139.23
476.92	5980.07
477.10	5942.62
477.28	6246.89
477.46	6118.16
477.64	6195.40
477.82	6314.77
478.00	6420.09
478.18	6436.47
478.36	6551.16
478.54	6562.86
478.72	6436.47
478.90	6590.95
479.08	6684.57
479.26	6832.02
479.44	6822.66
479.62	6740.74
479.80	6869.47
479.98	6829.68
480.16	7124.59
480.34	6916.28
480.52	7042.67
480.70	7030.97
480.88	6871.81
481.06	6944.37
481.24	7068.42
481.41	7117.57
481.59	7222.89
481.77	7363.33
481.95	7339.92
482.13	7311.83
482.31	7424.18
482.49	7382.05
482.67	7538.87
482.85	7618.44
483.03	7758.88
483.21	7751.85
483.39	7683.98
483.57	7702.70
483.74	7967.18
483.92	7967.18
484.10	8044.42
484.28	7948.46
484.46	8102.93
484.64	8170.81
484.82	8180.17
485.00	8299.54
485.18	8482.10
485.35	8559.34
485.53	8608.49
485.71	8683.39
485.89	8528.91
486.07	8688.07
486.25	8531.25
486.43	8638.92
486.61	8837.86
486.78	8863.61
486.96	8992.34
487.14	9221.71
487.32	9090.64
487.50	9004.04
487.68	9486.19
487.85	9350.44
488.03	9291.93
488.21	9596.20
488.39	9406.61
488.57	9439.38
488.75	9706.20
488.92	9476.83
489.10	9549.39
489.28	9666.41
489.46	9816.21
489.64	9811.53
489.81	9923.87
489.99	10001.11
490.17	10148.56
490.35	10438.79
490.53	10335.81
490.70	10260.91
490.88	10272.61
491.06	10237.50
491.24	10443.47
491.41	10621.35
491.59	10572.20
491.77	10661.14
491.95	10712.63
492.13	10768.80
492.30	10834.34
492.48	10883.49
492.66	11002.86
492.84	11012.22
493.01	10911.58
493.19	11042.65
493.37	11234.57
493.54	11112.86
493.72	11215.85
493.90	11257.98
494.08	11398.41
494.25	11573.95
494.43	11587.99
494.61	11590.33
494.79	11520.12
494.96	11360.96
495.14	11625.44
495.32	12032.69
495.49	12002.27
495.67	11997.59
495.85	12004.61
496.02	12105.25
496.20	12053.76
496.38	12098.23
496.55	12032.69
496.73	12465.69
496.91	12355.69
497.09	12334.62
497.26	12706.77
497.44	12430.59
497.62	12388.46
497.79	12746.56
497.97	12395.48
498.14	12943.16
498.32	13032.10
498.50	12769.96
498.67	12910.40
498.85	12912.74
499.03	13156.15
499.20	13116.36
499.38	12992.31
499.56	13118.70
499.73	13289.56
499.91	13151.47
500.08	13018.06
500.26	13036.78
500.44	13507.23
500.61	13511.91
500.79	13458.08
500.97	13399.57
501.14	14038.53
501.32	13540.00
501.49	13469.78
501.67	13600.85
501.84	13862.99
502.02	13879.38
502.20	13865.33
502.37	14094.71
502.55	13785.76
502.72	13827.88
502.90	14092.37
503.07	14029.17
503.25	13996.40
503.43	14085.34
503.60	14083.00
503.78	14288.97
503.95	14045.55
504.13	14171.94
504.30	14443.45
504.48	14436.42
504.65	14733.67
504.83	14820.27
505.01	14628.35
505.18	14771.12
505.36	14497.28
505.53	14693.88
505.71	14740.69
505.88	15005.17
506.06	14740.69
506.23	14719.63
506.41	14794.53
506.58	14918.57
506.76	14820.27
506.93	14946.66
507.11	15101.14
507.28	15112.84
507.46	14941.98
507.63	15178.37
507.81	15227.53
507.98	14958.36
508.16	15033.26
508.33	15396.04
508.50	15311.78
508.68	15290.72
508.85	15714.36
509.03	15697.97
509.20	15424.13
509.38	15531.80
509.55	15580.95
509.73	15751.81
509.90	15955.43
510.08	15915.64
510.25	15946.07
510.42	15920.32
510.60	15948.41
510.77	15892.24
510.95	16145.02
511.12	16018.63
511.30	16119.27
511.47	16222.25
511.64	16315.87
511.82	16039.69
511.99	16161.40
512.17	16123.95
512.34	16421.20
512.51	16409.50
512.69	16484.39
512.86	16437.58
513.04	16730.15
513.21	16311.19
513.38	16575.67
513.56	16716.11
513.73	16601.42
513.90	16465.67
514.08	16690.36
514.25	17111.66
514.43	16912.71
514.60	16922.07
514.77	16748.87
514.95	17266.13
515.12	17029.74
515.29	16849.52
515.47	17280.18
515.64	17013.35
515.81	17135.06
515.99	17118.68
516.16	17198.26
516.33	17392.52
516.51	17343.37
516.68	17448.69
516.85	17334.01
517.03	17399.54
517.20	17495.50
517.37	17439.33
517.54	17523.59
517.72	17572.74
517.89	17591.47
518.06	17635.94
518.24	17823.18
518.41	17549.34
518.58	17530.61
518.75	17366.78
518.93	17764.67
519.10	17905.10
519.27	17858.29
519.45	17802.11
519.62	18157.88
519.79	18260.86
519.96	17958.93
520.14	17987.02
520.31	18185.96
520.48	18092.34
520.65	17724.88
520.83	18462.15
521.00	18157.88
521.17	18333.42
521.34	18235.11
521.52	18597.90
521.69	18295.97
521.86	18471.51
522.03	18431.72
522.20	18523.00
522.38	18560.45
522.55	18614.28
522.72	18618.96
522.89	18501.93
523.07	18951.32
523.24	18611.94
523.41	18745.35
523.58	18796.84
523.75	19138.56
523.92	18700.88
524.10	19028.56
524.27	18848.33
524.44	19035.58
524.61	18775.78
524.78	19302.40
524.96	18970.04
525.13	19227.50
525.30	19049.62
525.47	18951.32
525.64	19208.78
525.81	19353.89
525.98	19276.65
526.16	19311.76
526.33	19115.16
526.50	19609.01
526.67	19014.51
526.84	19559.86
527.01	19178.35
527.18	19269.63
527.36	19571.56
527.53	19506.02
527.70	19651.14
527.87	20030.30
528.04	19735.40
528.21	19480.28
528.38	19620.71
528.55	19606.67
528.72	19344.53
528.89	19506.02
529.07	19924.98
529.24	19428.79
529.41	19946.05
529.58	19791.57
529.75	19770.51
529.92	19899.23
530.09	19850.08
530.26	19932.00
530.43	20152.01
530.60	19812.63
530.77	19873.49
530.94	20341.60
531.11	20121.59
531.28	19990.52
531.46	20219.89
531.63	20121.59
531.80	20180.10
531.97	20489.05
532.14	20311.17
532.31	20093.50
532.48	20606.08
532.65	20453.94
532.82	20173.08
532.99	20233.93
533.16	20243.29
533.33	20662.25
533.50	20533.52
533.67	20482.03
533.84	20503.09
534.01	20713.74
534.18	20362.66
534.35	21046.10
534.52	20711.40
534.69	20587.35
534.86	21046.10
535.03	20582.67
535.20	20563.95
535.37	20835.45
535.54	21034.39
535.71	21039.08
535.88	20858.85
536.05	20814.38
536.22	21160.78
536.38	21039.08
536.55	20748.85
536.72	21090.57
536.89	20945.45
537.06	21380.79
537.23	21383.13
537.40	21238.02
537.57	20947.79
537.74	21050.78
537.91	21425.26
538.08	21535.27
538.25	21223.98
538.42	21319.94
538.59	21259.09
538.75	21516.54
538.92	21626.55
539.09	21287.17
539.26	21521.23
539.43	21420.58
539.60	21577.40
539.77	21666.34
539.94	21804.43
540.11	21530.59
540.28	21715.49
540.44	21708.47
540.61	21900.39
540.78	21600.80
540.95	21741.24
541.12	21923.80
541.29	22239.77
541.46	22225.73
541.62	22354.46
541.79	21982.31
541.96	21970.61
542.13	22132.11
542.30	22445.74
542.47	22061.89
542.63	22101.68
542.80	22319.35
542.97	22759.37
543.14	22562.76
543.31	22434.03
543.48	22810.86
543.64	22740.64
543.81	22876.40
543.98	22766.39
544.15	22586.17
544.32	22710.22
544.48	23028.53
544.65	22714.90
544.82	22747.67
544.99	22520.63
545.16	22876.40
545.32	22967.68
545.49	23014.49
545.66	23587.92
545.83	23786.86
546.00	23569.19
546.16	23260.24
546.33	22981.72
546.50	22902.14
546.67	22995.76
546.83	22927.89
547.00	22939.59
547.17	22717.24
547.34	22958.31
547.50	22677.45
547.67	23218.11
547.84	22948.95
548.00	23094.07
548.17	23145.56
548.34	22710.22
548.51	22836.61
548.67	23103.43
548.84	23283.65
549.01	23030.87
549.18	23075.34
549.34	23131.51
549.51	22773.41
549.68	23033.21
549.84	23157.26
550.01	22920.87
550.18	23257.90
550.34	22864.69
550.51	23491.96
550.68	23601.96
550.84	23065.98
551.01	23218.11
551.18	23101.09
551.34	23157.26
551.51	22867.03
551.68	22787.46
551.84	23283.65
552.01	23269.61
552.18	23386.63
552.34	23208.75
552.51	23255.56
552.68	23428.76
552.84	23339.82
553.01	23686.22
553.18	23168.96
553.34	23566.85
553.51	23452.17
553.67	23484.94
553.84	23346.84
554.01	23566.85
554.17	23433.44
554.34	23391.31
554.51	23513.02
554.67	23620.69
554.84	23094.07
555.00	23381.95
555.17	23353.87
555.33	23798.57
555.50	23899.21
555.67	23573.88
555.83	23718.99
556.00	23618.35
556.16	24128.58
556.33	24067.73
556.50	23735.37
556.66	23651.11
556.83	23520.04
556.99	23707.29
557.16	23971.77
557.32	24088.79
557.49	24079.43
557.65	23592.60
557.82	23796.23
557.98	23623.03
558.15	23295.35
558.32	23847.72
558.48	23566.85
558.65	23967.09
558.81	23913.25
558.98	23943.68
559.14	23995.17
559.31	23744.73
559.47	24002.19
559.64	24203.48
559.80	23845.38
559.97	24320.51
560.13	23707.29
560.30	23939.00
560.46	24240.93
560.63	24222.20
560.79	24053.69
560.96	24027.94
561.12	24009.22
561.29	24278.38
561.45	24203.48
561.61	24126.24
561.78	24011.56
561.94	24198.80
562.11	24510.09
562.27	24346.25
562.44	24423.49
562.60	24336.89
562.77	24098.16
562.93	24034.96
563.10	24531.15
563.26	24355.61
563.42	24334.55
563.59	24463.28
563.75	24053.69
563.92	24603.71
564.08	24524.13
564.24	24739.46
564.41	24261.99
564.57	24299.44
564.74	24254.97
564.90	24133.26
565.07	24631.80
565.23	24446.90
565.39	24350.93
565.56	24109.86
565.72	24372.00
565.88	24734.78
566.05	24238.59
566.21	24175.39
566.38	24023.26
566.54	24648.18
566.70	24538.18
566.87	24517.11
567.03	24453.92
567.19	24760.53
567.36	24535.84
567.52	24629.46
567.68	24526.47
567.85	24507.75
568.01	24233.91
568.17	24474.98
568.34	24479.66
568.50	24325.19
568.66	24664.57
568.83	24645.84
568.99	24304.12
569.15	24397.74
569.32	24198.80
569.48	24482.00
569.64	24423.49
569.81	24711.38
569.97	24203.48
570.13	24306.46
570.30	24308.80
570.46	24493.71
570.62	24718.40
570.78	24531.15
570.95	24233.91
571.11	24514.77
571.27	24154.33
571.43	24362.64
571.60	24414.13
571.76	24531.15
571.92	24276.04
572.09	24629.46
572.25	24694.99
572.41	24402.43
572.57	25003.94
572.74	24584.99
572.90	24870.53
573.06	24748.82
573.22	24390.72
573.38	24587.33
573.55	24364.98
573.71	24781.59
573.87	24706.70
574.03	24168.37
574.20	24828.40
574.36	24779.25
574.52	24790.95
574.68	24762.87
574.84	24671.59
575.01	24933.73
575.17	24847.13
575.33	24636.48
575.49	24535.84
575.65	24709.04
575.82	24739.46
575.98	24428.17
576.14	24994.58
576.30	24814.36
576.46	24737.12
576.62	24732.44
576.79	24840.11
576.95	24655.20
577.11	24702.01
577.27	24737.12
577.43	24795.64
577.59	24807.34
577.75	24723.08
577.92	24767.55
578.08	24786.27
578.24	24840.11
578.40	24613.07
578.56	24840.11
578.72	24889.26
578.88	25006.28
579.04	24861.17
579.21	24987.56
579.37	25006.28
579.53	24961.81
579.69	24830.74
579.85	25062.46
580.01	25214.59
580.17	24723.08
580.33	24617.75
580.49	24961.81
580.65	25069.48
580.82	24940.75
580.98	25015.65
581.14	24753.51
581.30	24938.41
581.46	24938.41
581.62	24706.70
581.78	24673.93
581.94	24886.92
582.10	24711.38
582.26	24683.29
582.42	24819.04
582.58	25280.13
582.74	25343.32
582.90	25282.47
583.06	25144.38
583.22	24769.89
583.38	24828.40
583.54	24762.87
583.70	24863.51
583.86	24999.26
584.02	24718.40
584.18	25085.86
584.34	25252.04
584.50	24814.36
584.66	24795.64
584.82	25193.53
584.98	25046.07
585.14	25003.94
585.30	25153.74
585.46	24954.79
585.62	24531.15
585.78	25013.31
585.94	25214.59
586.10	24854.15
586.26	25310.55
586.42	25357.36
586.58	25025.01
586.74	24943.09
586.90	25200.55
587.06	24893.94
587.22	25057.78
587.38	25067.14
587.54	25532.90
587.70	25387.79
587.86	25043.73
588.02	25303.53
588.18	25020.33
588.34	25223.95
588.49	25113.95
588.65	24807.34
588.81	25137.35
588.97	25275.45
589.13	25139.69
589.29	25483.75
589.45	25062.46
589.61	25429.92
589.77	25252.04
589.93	25212.25
590.08	25081.18
590.24	25626.53
590.40	25200.55
590.56	25434.60
590.72	25198.21
590.88	25039.05
591.04	25291.83
591.20	25191.19
591.35	25284.81
591.51	25568.01
591.67	25249.70
591.83	25528.22
591.99	25252.04
592.15	25083.52
592.31	25577.37
592.46	25500.14
592.62	24992.24
592.78	25008.62
592.94	25418.22
593.10	25064.80
593.26	25422.90
593.41	25575.03
593.57	25483.75
593.73	25373.75
593.89	25434.60
594.05	25263.74
594.20	25135.01
594.36	24945.43
594.52	25111.61
594.68	25326.94
594.84	25329.28
594.99	25486.09
595.15	25490.77
595.31	25600.78
595.47	25188.85
595.62	25132.67
595.78	25216.93
595.94	25174.80
596.10	25308.21
596.25	25303.53
596.41	25067.14
596.57	25273.10
596.73	25088.20
596.88	25158.42
597.04	25336.30
597.20	25238.00
597.36	25263.74
597.51	25462.69
597.67	25130.33
597.83	25050.75
597.99	25766.96
598.14	25060.12
598.30	25216.93
598.46	25539.93
598.61	25418.22
598.77	25294.17
598.93	25652.27
599.09	25359.70
599.24	25570.35
599.40	25553.97
599.56	25069.48
599.71	25432.26
599.87	25465.03
600.03	25198.21
600.18	25504.82
600.34	25294.17
600.50	25240.34
600.65	25322.26
600.81	25425.24
600.97	25605.46
601.12	25668.66
601.28	25614.82
601.44	25303.53
601.59	25104.59
601.75	25291.83
601.91	25170.12
602.06	25720.15
602.22	25785.68
602.37	25247.36
602.53	25181.82
602.69	25366.73
602.84	25371.41
603.00	25458.01
603.16	25259.06
603.31	25425.24
603.47	25397.15
603.62	24835.42
603.78	25228.63
603.94	25338.64
604.09	25195.87
604.25	25575.03
604.40	25500.14
604.56	25544.61
604.71	25818.45
604.87	25305.87
605.03	25048.41
605.18	25404.17
605.34	25284.81
605.49	25118.63
605.65	24975.86
605.80	25406.52
605.96	25390.13
606.12	25418.22
606.27	26052.50
606.43	25546.95
606.58	26008.03
606.74	25228.63
606.89	25191.19
607.05	25390.13
607.20	24755.85
607.36	25015.65
607.51	25289.49
607.67	25245.02
607.82	25228.63
607.98	25294.17
608.13	25390.13
608.29	25411.20
608.44	25235.66
608.60	25223.95
608.75	25420.56
608.91	25418.22
609.06	25095.22
609.22	25439.28
609.37	25010.96
609.53	24975.86
609.68	24830.74
609.84	25195.87
609.99	25619.50
610.15	25053.09
610.30	25708.44
610.46	25858.24
610.61	25708.44
610.76	25914.41
610.92	26237.41
611.07	25717.81
611.23	26082.93
611.38	25972.92
611.54	26398.90
611.69	26181.23
611.84	25832.49
612.00	26010.37
612.15	25678.02
612.31	25631.21
612.46	25537.59
612.62	25659.29
612.77	25511.84
612.92	25432.26
613.08	25078.84
613.23	25235.66
613.39	25371.41
613.54	25340.98
613.69	25179.48
613.85	25296.51
614.00	25406.52
614.15	25219.27
614.31	25036.71
614.46	25247.36
614.62	25184.16
614.77	24975.86
614.92	24968.84
615.08	24966.49
615.23	25315.23
615.38	24865.85
615.54	24308.80
615.69	24912.66
615.84	24779.25
616.00	25081.18
616.15	24510.09
616.30	25188.85
616.46	24959.47
616.61	24718.40
616.76	24631.80
616.92	24702.01
617.07	24519.45
617.22	24603.71
617.37	24254.97
617.53	24463.28
617.68	24229.23
617.83	24435.19
617.99	24821.38
618.14	24676.27
618.29	24332.21
618.45	24643.50
618.60	24463.28
618.75	24201.14
618.90	23978.79
619.06	24325.19
619.21	24276.04
619.36	24030.28
619.51	24297.10
619.67	24060.71
619.82	24456.26
619.97	24669.25
620.12	24217.52
620.28	24224.54
620.43	24528.81
620.58	24786.27
620.73	24442.21
620.89	24077.09
621.04	24280.72
621.19	24285.40
621.34	24224.54
621.49	23946.02
621.65	24049.00
621.80	24381.36
621.95	23934.32
622.10	23964.75
622.25	24369.66
622.41	24128.58
622.56	24027.94
622.71	24343.91
622.86	24009.22
623.01	23735.37
623.16	24013.90
623.32	24184.76
623.47	24044.32
623.62	24168.37
623.77	24257.31
623.92	24095.82
624.07	23985.81
624.23	24109.86
624.38	23761.12
624.53	24402.43
624.68	24175.39
624.83	24418.81
624.98	23660.48
625.13	23737.71
625.29	23321.10
625.44	23946.02
625.59	23733.03
625.74	23634.73
625.89	23768.14
626.04	23646.43
626.19	23646.43
626.34	23901.55
626.49	23850.06
626.65	23960.06
626.80	23566.85
626.95	23515.36
627.10	23477.91
627.25	23192.37
627.40	23295.35
627.55	23503.66
627.70	23714.31
627.85	23592.60
628.00	23578.56
628.15	23777.50
628.30	23571.54
628.45	23576.22
628.60	23293.01
628.76	23786.86
628.91	23302.37
629.06	23073.00
629.21	23534.09
629.36	23564.51
629.51	23175.98
629.66	23466.21
629.81	23494.30
629.96	23393.65
630.11	23080.02
630.26	23695.58
630.41	23426.42
630.56	23264.92
630.71	23644.09
630.86	23379.61
631.01	23679.20
631.16	23283.65
631.31	23257.90
631.46	22888.10
631.61	23220.45
631.76	23117.47
631.91	23084.70
632.06	23262.58
632.21	22869.37
632.36	22927.89
632.51	23171.30
632.66	23232.16
632.81	23030.87
632.96	23131.51
633.10	22857.67
633.25	22796.82
633.40	22497.23
633.55	22813.20
633.70	23122.15
633.85	22670.43
634.00	22899.80
634.15	23021.51
634.30	22803.84
634.45	22941.93
634.60	22930.23
634.75	22829.59
634.90	22616.60
635.05	22888.10
635.19	22693.83
635.34	22759.37
635.49	22813.20
635.64	22665.75
635.79	22654.05
635.94	22450.42
636.09	22686.81
636.24	22335.73
636.39	22742.99
636.53	23063.64
636.68	22719.58
636.83	22382.54
636.98	22775.75
637.13	22228.07
637.28	22640.00
637.43	22284.24
637.57	22532.34
637.72	22089.98
637.87	22066.57
638.02	22576.81
638.17	22410.63
638.32	22352.12
638.46	22078.27
638.61	22836.61
638.76	22637.66
638.91	22394.25
639.06	22759.37
639.20	22443.40
639.35	22525.32
639.50	22508.93
639.65	22211.68
639.80	22036.14
639.94	22295.94
640.09	22214.02
640.24	22515.95
640.39	22335.73
640.54	22239.77
640.68	21933.16
640.83	22321.69
640.98	21734.21
641.13	21741.24
641.27	22218.71
641.42	21759.96
641.57	22132.11
641.72	21984.65
641.86	22169.55
642.01	21858.26
642.16	22141.47
642.31	21848.90
642.45	21907.41
642.60	21743.58
642.75	21902.73
642.90	22043.17
643.04	21701.45
643.19	21446.33
643.34	22125.08
643.48	22113.38
643.63	21841.88
643.78	21535.27
643.93	21324.62
644.07	21500.16
644.22	21610.17
644.37	21404.20
644.51	21809.11
644.66	21919.12
644.81	21537.61
644.95	21635.91
645.10	21544.63
645.25	22026.78
645.39	21518.89
645.54	21743.58
645.69	21694.43
645.83	21605.49
645.98	21425.26
646.13	21591.44
646.27	21628.89
646.42	21399.52
646.57	21568.04
646.71	21823.16
646.86	21642.93
647.00	21797.41
647.15	22089.98
647.30	21586.76
647.44	21453.35
647.59	21558.67
647.74	21546.97
647.88	21270.79
648.03	21238.02
648.17	21673.36
648.32	21247.38
648.47	21270.79
648.61	21294.19
648.76	21565.70
648.90	21174.83
649.05	21312.92
649.20	21582.08
649.34	21462.71
649.49	21500.16
649.63	21774.00
649.78	21493.14
649.92	21200.57
650.07	21324.62
650.21	21151.42
650.36	21303.56
650.51	21209.93
650.65	21343.35
650.80	21432.29
650.94	21085.89
651.09	20931.41
651.23	21228.66
651.38	21277.81
651.52	21242.70
651.67	21249.72
651.81	21254.40
651.96	21163.12
652.10	21399.52
652.25	21195.89
652.39	21212.28
652.54	20662.25
652.68	20814.38
652.83	20985.24
652.97	21371.43
653.12	20662.25
653.26	21357.39
653.41	21076.52
653.55	21146.74
653.70	20835.45
653.84	20933.75
653.99	20957.16
654.13	20753.53
654.27	21128.02
654.42	20919.71
654.56	20809.70
654.71	20945.45
654.85	21123.33
655.00	20896.30
655.14	20772.25
655.29	20725.44
655.43	20800.34
655.57	20566.29
655.72	20594.37
655.86	20748.85
656.01	20678.63
656.15	21003.97
656.30	20313.51
656.44	20835.45
656.58	20606.08
656.73	20570.97
656.87	20741.83
657.01	20872.90
657.16	21025.03
657.30	20713.74
657.45	20152.01
657.59	20503.09
657.73	20212.87
657.88	20203.50
658.02	20231.59
658.16	20627.14
658.31	20503.09
658.45	20428.20
658.60	20030.30
658.74	20348.62
658.88	20217.55
659.03	20240.95
659.17	19913.28
659.31	20163.72
659.46	20308.83
659.60	20081.80
659.74	20215.21
659.89	20243.29
660.03	20486.71
660.17	20252.66
660.32	19906.26
660.46	20184.78
660.60	19941.36
660.74	20072.43
660.89	20339.26
661.03	19826.68
661.17	19538.79
661.32	19896.89
661.46	19939.02
661.60	19833.70
661.74	19662.84
661.89	19889.87
662.03	19616.03
662.17	19749.44
662.31	19679.22
662.46	19536.45
662.60	19515.39
662.74	19756.46
662.88	19566.88
663.03	19433.47
663.17	19719.01
663.31	19482.62
663.45	19737.74
663.60	19381.98
663.74	19527.09
663.88	19520.07
664.02	19157.28
664.17	19412.40
664.31	19201.76
664.45	19278.99
664.59	18712.58
664.73	18937.27
664.88	19278.99
665.02	19117.50
665.16	19290.70
665.30	19190.05
665.44	19073.03
665.59	18850.67
665.73	19091.75
665.87	18860.04
666.01	18951.32
666.15	18845.99
666.29	19374.95
666.44	18897.49
666.58	18574.49
666.72	18679.82
666.86	18895.14
667.00	18995.79
667.14	18927.91
667.28	18677.48
667.43	18656.41
667.57	18677.48
667.71	18691.52
667.85	18981.74
667.99	18651.73
668.13	18595.56
668.27	18530.02
668.41	18569.81
668.56	18427.04
668.70	18274.90
668.84	18441.08
668.98	18405.97
669.12	18267.88
669.26	18321.71
669.40	18221.07
669.54	18464.49
669.68	18310.01
669.82	18146.17
669.96	18436.40
670.10	18057.23
670.25	18260.86
670.39	18349.80
670.53	17980.00
670.67	17942.55
670.81	18223.41
670.95	18150.85
671.09	17902.76
671.23	18015.10
671.37	18003.40
671.51	17942.55
671.65	17940.21
671.79	18192.98
671.93	17968.29
672.07	18197.67
672.21	17500.19
672.35	17792.75
672.49	17504.87
672.63	17858.29
672.77	17762.33
672.91	17589.13
673.05	17462.74
673.19	17446.35
673.33	17411.25
673.47	17343.37
673.61	17532.95
673.75	17121.02
673.89	17193.58
674.03	17270.81
674.17	16926.75
674.31	17214.64
674.45	17476.78
674.59	17591.47
674.73	17582.10
674.87	17233.36
675.01	17200.60
675.15	16947.82
675.29	17432.31
675.43	16919.73
675.56	17350.39
675.70	17013.35
675.84	16699.72
675.98	16086.50
676.12	16388.43
676.26	16627.17
676.40	16596.74
676.54	16566.31
676.68	16423.54
676.82	16264.38
676.96	16477.37
677.10	16468.01
677.23	16147.36
677.37	16390.77
677.51	16147.36
677.65	16170.76
677.79	16130.97
677.93	16173.10
678.07	16231.62
678.21	15981.18
678.34	15866.49
678.48	15702.65
678.62	15791.59
678.76	15913.30
678.90	15613.71
679.04	15611.37
679.18	15555.20
679.31	15538.82
679.45	15630.10
679.59	15770.53
679.73	15707.34
679.87	15494.35
680.00	15311.78
680.14	15180.71
680.28	15559.88
680.42	15211.14
680.56	15185.40
680.70	15377.32
680.83	15028.58
680.97	15150.29
681.11	15440.51
681.25	15157.31
681.39	14808.57
681.52	14965.39
681.66	14958.36
681.80	14764.10
681.94	14860.06
682.07	14810.91
682.21	14614.30
682.35	14824.95
682.49	14803.89
682.62	14738.35
682.76	14707.93
682.90	14469.19
683.04	14483.24
683.17	14338.12
683.31	14115.77
683.45	14494.94
683.59	14317.06
683.72	14539.41
683.86	14244.50
684.00	14094.71
684.13	14328.76
684.27	13685.11
684.41	13729.58
684.55	13785.76
684.68	14057.26
684.82	13961.30
684.96	13778.73
685.09	13582.13
685.23	13743.63
685.37	13748.31
685.50	13776.39
685.64	13650.00
685.78	13465.10
685.91	13614.90
686.05	13561.06
686.19	13523.62
686.32	13511.91
686.46	13224.03
686.60	13378.50
686.73	13504.89
686.87	13465.10
687.01	13467.44
687.14	13350.42
687.28	13317.65
687.42	13221.69
687.55	12870.61
687.69	13184.24
687.82	12931.46
687.96	12975.93
688.10	12800.39
688.23	13104.66
688.37	12826.14
688.50	12610.81
688.64	12795.71
688.78	12503.14
688.91	12723.15
689.05	12610.81
689.18	12610.81
689.32	12362.71
689.46	12599.10
689.59	12416.54
689.73	12498.46
689.86	12201.21
690.00	12313.56
690.13	12224.62
690.27	11873.54
690.41	12138.02
690.54	11967.16
690.68	11903.96
690.81	12184.83
690.95	12114.61
691.08	12196.53
691.22	11946.09
691.35	11613.74
691.49	12018.65
691.62	11840.77
691.76	11838.43
691.89	11969.50
692.03	11793.96
692.16	11602.04
692.30	11400.75
692.43	11480.33
692.57	11545.86
692.70	11634.80
692.84	11445.22
692.97	11096.48
693.11	11293.08
693.24	11265.00
693.38	11452.24
693.51	11101.16
693.65	11211.17
693.78	11379.68
693.92	11243.93
694.05	11030.94
694.19	11052.01
694.32	11150.31
694.45	11052.01
694.59	11007.54
694.72	10829.66
694.86	10843.70
694.99	10721.99
695.13	10766.46
695.26	10509.01
695.39	10637.73
695.53	10750.08
695.66	10576.88
695.80	10485.60
695.93	10260.91
696.07	10499.64
696.20	10450.49
696.33	10473.90
696.47	10328.78
696.60	9935.57
696.73	10197.71
696.87	10171.97
697.00	10251.55
697.14	10012.81
697.27	9895.78
697.40	10176.65
697.54	10087.71
697.67	10012.81
697.80	9736.63
697.94	9895.78
698.07	9664.07
698.21	9867.70
698.34	9769.40
698.47	9741.31
698.61	9626.62
698.74	9703.86
698.87	9659.39
699.01	9540.02
699.14	9521.30
699.27	9481.51
699.40	9879.40
699.54	9458.10
699.67	9305.97
699.80	9401.93
699.94	9336.40
700.07	9039.15
700.20	9055.53
700.34	9149.15
700.47	9151.49
700.60	9055.53
700.73	8971.27
700.87	9025.11
701.00	8933.82
701.13	8863.61
701.26	8781.69
701.40	8816.80
701.53	8688.07
701.66	8711.47
701.79	8791.05
701.93	8884.67
702.06	8882.33
702.19	8688.07
702.32	8407.20
702.46	8468.06
702.59	8339.33
702.72	8411.89
702.85	8519.55
702.99	8262.09
703.12	8297.20
703.25	8116.98
703.38	8393.16
703.51	8276.13
703.65	8285.50
703.78	8266.77
703.91	8121.66
704.04	8313.58
704.17	8065.49
704.31	8028.04
704.44	7960.16
704.57	7964.84
704.70	7789.30
704.83	7756.54
704.96	7857.18
705.10	7971.86
705.23	7957.82
>>>>>End Processed Spectral Data<<<<<
