SpectraSuite Data File
++++++++++++++++++++++++++++++++++++
Date: Thu Oct 24 13:21:45 EDT 2013
User: stostad
Dark Spectrum Present: No
Reference Spectrum Present: No
Number of Sampled Component Spectra: 1
Spectrometers: USB2+H05261
Integration Time (usec): 100000 (USB2+H05261)
Spectra Averaged: 1 (USB2+H05261)
Boxcar Smoothing: 0 (USB2+H05261)
Correct for Electrical Dark: No (USB2+H05261)
Strobe/Lamp Enabled: No (USB2+H05261)
Correct for Detector Non-linearity: No (USB2+H05261)
Correct for Stray Light: No (USB2+H05261)
Number of Pixels in Processed Spectrum: 2048
>>>>>Begin Processed Spectral Data<<<<<
365.73	821.53
365.92	821.53
366.12	821.53
366.32	727.91
366.52	638.97
366.72	678.76
366.91	711.52
367.11	737.27
367.31	601.52
367.51	732.59
367.70	711.52
367.90	737.27
368.10	671.73
368.30	751.31
368.49	648.33
368.69	636.63
368.89	718.54
369.09	737.27
369.28	788.76
369.48	732.59
369.68	814.51
369.87	786.42
370.07	830.89
370.27	809.83
370.47	1151.54
370.66	2057.33
370.86	2097.12
371.06	2113.50
371.25	2169.68
371.45	2237.55
371.65	2188.40
371.84	2232.87
372.04	2275.00
372.24	2312.45
372.44	2223.51
372.63	2331.17
372.83	2471.61
373.03	2413.09
373.22	2413.09
373.42	2476.29
373.62	2452.88
373.81	2478.63
374.01	2445.86
374.21	2576.93
374.40	2546.50
374.60	2551.18
374.79	2586.29
374.99	2686.94
375.19	2675.23
375.38	2670.55
375.58	2686.94
375.78	2607.36
375.97	2757.15
376.17	2726.72
376.37	2752.47
376.56	2771.19
376.76	2768.85
376.95	2752.47
377.15	2916.31
377.35	2799.28
377.54	2827.37
377.74	2825.03
377.93	2885.88
378.13	2869.50
378.33	2935.03
378.52	2885.88
378.72	2986.52
378.91	2988.86
379.11	3063.76
379.31	3157.38
379.50	3103.55
379.70	3091.85
379.89	3208.87
380.09	3096.53
380.28	3117.59
380.48	3087.17
380.68	3194.83
380.87	3159.72
381.07	3192.49
381.26	3286.11
381.46	3218.24
381.65	3225.26
381.85	3311.86
382.04	3330.58
382.24	3503.78
382.43	3344.63
382.63	3424.20
382.83	3419.52
383.02	3419.52
383.22	3583.36
383.41	3440.59
383.61	3503.78
383.80	3634.85
384.00	3503.78
384.19	3571.66
384.39	3669.96
384.58	3576.34
384.78	3552.93
384.97	3721.45
385.17	3669.96
385.36	3744.86
385.56	3747.20
385.75	3712.09
385.95	3705.07
386.14	3803.37
386.34	3798.69
386.53	3918.06
386.72	3817.41
386.92	3929.76
387.11	3955.51
387.31	3866.56
387.50	4011.68
387.70	3943.80
387.89	3997.64
388.09	4060.83
388.28	4173.18
388.48	4152.11
388.67	4234.03
388.86	4250.41
389.06	4435.32
389.25	4227.01
389.45	4219.99
389.64	4278.50
389.84	4451.70
390.03	4367.44
390.22	4379.14
390.42	4554.68
390.61	4510.21
390.81	4409.57
391.00	4461.06
391.19	4580.43
391.39	4657.67
391.58	4592.13
391.78	4613.20
391.97	4758.31
392.16	4683.41
392.36	4861.29
392.55	4772.35
392.75	4847.25
392.94	4915.12
393.13	4849.59
393.33	4863.63
393.52	4880.02
393.71	5118.75
393.91	5004.07
394.10	5004.07
394.29	5146.84
394.49	5081.30
394.68	5193.65
394.88	5144.50
395.07	5273.23
395.26	5474.51
395.46	5261.52
395.65	5455.79
395.84	5490.90
396.04	5432.38
396.23	5551.75
396.42	5596.22
396.62	5593.88
396.81	5689.84
397.00	5636.01
397.19	5547.07
397.39	5636.01
397.58	5727.29
397.77	5755.38
397.97	5851.34
398.16	6064.33
398.35	5949.64
398.55	5799.85
398.74	6164.97
398.93	5926.24
399.12	6017.52
399.32	5888.79
399.51	6085.39
399.70	6335.83
399.90	6174.33
400.09	6349.87
400.28	6370.94
400.47	6333.49
400.67	6373.28
400.86	6394.34
401.05	6504.35
401.24	6551.16
401.44	6691.59
401.63	6555.84
401.82	6787.55
402.01	6546.48
402.21	6642.44
402.40	6715.00
402.59	6780.53
402.78	6700.95
402.97	6752.45
403.17	7016.93
403.36	7042.67
403.55	7091.82
403.74	7080.12
403.93	7274.38
404.13	7255.66
404.32	7227.57
404.51	7288.43
404.70	7595.04
404.89	7419.50
405.09	7236.94
405.28	7522.48
405.47	7398.43
405.66	7700.36
405.85	7637.17
406.05	7667.60
406.24	7786.96
406.43	7829.09
406.62	8018.68
406.81	7953.14
407.00	7672.28
407.20	7861.86
407.39	7892.29
407.58	8074.85
407.77	8210.60
407.96	8149.75
408.15	8369.76
408.34	8081.87
408.54	8327.63
408.73	8388.48
408.92	8269.11
409.11	8549.98
409.30	8650.62
409.49	8655.30
409.68	8730.20
409.87	8727.86
410.07	8805.10
410.26	8833.18
410.45	8894.04
410.64	9170.22
410.83	9259.16
411.02	9277.88
411.21	9525.98
411.40	9128.09
411.59	9554.07
411.78	9331.72
411.98	9240.44
412.17	9610.24
412.36	9783.44
412.55	9888.76
412.74	10031.54
412.93	9914.51
413.12	9980.04
413.31	10239.84
413.50	10298.36
413.69	10083.03
413.88	10441.13
414.07	10401.34
414.26	10600.29
414.45	10649.44
414.64	10583.90
414.83	10862.43
415.02	10902.22
415.22	10942.00
415.41	10918.60
415.60	11026.26
415.79	11089.46
415.98	11367.98
416.17	11290.74
416.36	11557.57
416.55	11351.60
416.74	11730.76
416.93	11627.78
417.12	11772.89
417.31	11957.80
417.50	11857.15
417.69	12222.28
417.88	12177.81
418.07	12152.06
418.26	12329.94
418.45	12355.69
418.64	12425.90
418.83	12500.80
419.02	12725.49
419.21	12891.67
419.39	12868.27
419.58	12774.64
419.77	12718.47
419.96	13163.17
420.15	13404.25
420.34	13076.57
420.53	13273.18
420.72	13334.03
420.91	13273.18
421.10	13371.48
421.29	13610.22
421.48	13329.35
421.67	13834.91
421.86	13575.11
422.05	13757.67
422.24	13685.11
422.43	13664.05
422.61	14148.54
422.80	14108.75
422.99	13947.25
423.18	14338.12
423.37	14384.93
423.56	14164.92
423.75	13973.00
423.94	13724.90
424.13	13095.30
424.32	13565.74
424.50	14104.07
424.69	14333.44
424.88	14141.52
425.07	13839.59
425.26	14008.11
425.45	14036.19
425.64	13905.12
425.83	14333.44
426.01	14246.84
426.20	14333.44
426.39	14506.64
426.58	14684.52
426.77	14347.48
426.96	14548.77
427.15	14581.54
427.33	15073.05
427.52	14829.63
427.71	14956.02
427.90	14925.60
428.09	15171.35
428.28	15279.02
428.46	15328.17
428.65	15197.10
428.84	15807.98
429.03	15672.23
429.22	15321.15
429.40	15749.46
429.59	15917.98
429.78	15136.24
429.97	15143.27
430.16	15648.82
430.34	16355.66
430.53	16170.76
430.72	16180.12
430.91	16130.97
431.10	16133.31
431.28	16519.50
431.47	16285.45
431.66	16634.19
431.85	16435.24
432.03	17116.34
432.22	17163.15
432.41	17067.19
432.60	16854.20
432.79	17034.42
432.97	17186.55
433.16	17453.37
433.35	17301.24
433.54	17645.30
433.72	17717.86
433.91	17668.70
434.10	18092.34
434.28	17664.02
434.47	17837.22
434.66	17792.75
434.85	18171.92
435.03	18504.28
435.22	18164.90
435.41	18738.33
435.59	18349.80
435.78	18740.67
435.97	18829.61
436.16	18670.45
436.34	18766.42
436.53	18733.65
436.72	18984.09
436.90	18499.59
437.09	19463.90
437.28	19007.49
437.46	18930.25
437.65	19393.68
437.84	19648.80
438.02	19573.90
438.21	19798.59
438.40	19154.94
438.58	20395.43
438.77	20650.55
438.96	20477.35
439.14	20739.49
439.33	20842.47
439.52	21102.27
439.70	21128.02
439.89	21486.12
440.08	21568.04
440.26	21563.36
440.45	21329.30
440.63	21839.54
440.82	22188.28
441.01	21734.21
441.19	22207.00
441.38	22721.92
441.57	22661.07
441.75	22815.54
441.94	23293.01
442.12	23232.16
442.31	23578.56
442.50	23608.98
442.68	23318.76
442.87	23548.13
443.05	23852.40
443.24	23969.43
443.43	23730.69
443.61	23861.76
443.80	24669.25
443.98	23330.46
444.17	22857.67
444.35	23875.80
444.54	24453.92
444.73	24690.31
444.91	24341.57
445.10	24875.21
445.28	24589.67
445.47	24535.84
445.65	24685.63
445.84	24760.53
446.02	24709.04
446.21	24842.45
446.39	24746.48
446.58	24950.11
446.77	25102.25
446.95	24290.08
447.14	24961.81
447.32	25406.52
447.51	24732.44
447.69	24926.71
447.88	25111.61
448.06	25390.13
448.25	25078.84
448.43	25465.03
448.62	25315.23
448.80	25387.79
448.99	25273.10
449.17	25717.81
449.36	25895.69
449.54	26256.13
449.73	26352.09
449.91	26579.12
450.10	26520.61
450.28	26909.14
450.46	26867.01
450.65	26941.91
450.83	27108.08
451.02	26747.64
451.20	27117.45
451.39	27094.04
451.57	27080.00
451.76	27110.43
451.94	27126.81
452.13	27934.29
452.31	28009.19
452.49	27304.69
452.68	27700.24
452.86	27969.40
453.05	28112.17
453.23	27997.49
453.42	28231.54
453.60	27903.87
453.78	28458.57
453.97	28290.06
454.15	28439.85
454.34	28336.87
454.52	29139.67
454.70	28907.96
454.89	29006.26
455.07	28973.49
455.26	29296.49
455.44	29750.55
455.62	29916.73
455.81	29872.26
455.99	29886.30
456.17	29900.34
456.36	30160.14
456.54	30204.61
456.73	31194.66
456.91	31257.85
457.09	30593.14
457.28	31222.75
457.46	30965.29
457.64	31208.70
457.83	31648.72
458.01	31030.82
458.19	32409.40
458.38	31688.51
458.56	31880.44
458.74	32027.89
458.93	32196.41
459.11	31847.67
459.29	32416.42
459.48	32414.08
459.66	32304.07
459.84	32851.76
460.03	33195.82
460.21	33464.98
460.39	33064.75
460.57	32926.66
460.76	33186.46
460.94	33504.77
461.12	33713.08
461.31	33654.56
461.49	33673.29
461.67	33816.06
461.85	34649.29
462.04	34227.99
462.22	35019.10
462.40	35545.72
462.59	34445.66
462.77	34871.64
462.95	35026.12
463.13	35021.44
463.32	35131.44
463.50	35604.23
463.68	35637.00
463.86	35508.27
464.05	35201.66
464.23	35470.82
464.41	36030.21
464.59	35475.50
464.78	36877.48
464.96	36226.81
465.14	35910.84
465.32	36622.36
465.50	36687.90
465.69	36570.87
465.87	37062.38
466.05	36432.78
466.23	36760.45
466.41	37017.91
466.60	37851.14
466.78	37202.82
466.96	37251.97
467.14	37074.09
467.32	37471.98
467.51	37984.55
467.69	37074.09
467.87	37684.97
468.05	38043.07
468.23	37570.28
468.41	37883.91
468.60	38108.60
468.78	38649.27
468.96	38284.14
469.14	39234.40
469.32	39297.59
469.50	38796.72
469.69	39253.12
469.87	39711.87
470.05	39723.57
470.23	40142.53
470.41	40086.36
470.59	40163.59
470.77	40088.70
470.95	40430.41
471.14	41158.32
471.32	40016.14
471.50	41151.30
471.68	41481.31
471.86	41375.99
472.04	41640.47
472.22	42796.70
472.40	41954.10
472.58	42288.80
472.77	42513.49
472.95	42995.64
473.13	43952.92
473.31	42684.35
473.49	43463.75
473.67	43051.81
473.85	43578.43
474.03	44446.77
474.21	44212.72
474.39	44535.71
474.57	44802.53
474.75	45378.31
474.93	45378.31
475.12	45144.25
475.30	45888.54
475.48	45247.24
475.66	46361.33
475.84	45879.18
476.02	46464.32
476.20	46663.26
476.38	47323.29
476.56	47931.83
476.74	48062.90
476.92	47634.58
477.10	48039.50
477.28	48849.32
477.46	48484.20
477.64	48994.43
477.82	49549.14
478.00	50473.65
478.18	49935.33
478.36	50635.15
478.54	51426.25
478.72	51175.81
478.90	51334.97
479.08	51800.74
479.26	51976.28
479.44	52240.76
479.62	52535.66
479.80	52673.76
479.98	52903.13
480.16	53757.42
480.34	53249.53
480.52	53989.14
480.70	54059.35
480.88	53806.58
481.06	54028.93
481.24	54452.56
481.41	54691.30
481.59	55203.88
481.77	55344.31
481.95	55578.36
482.13	55770.28
482.31	55765.60
482.49	56488.83
482.67	56355.42
482.85	56706.50
483.03	57036.51
483.21	57148.86
483.39	57577.18
483.57	57212.06
483.74	57804.21
483.92	58169.33
484.10	58042.95
484.28	58478.28
484.46	59096.19
484.64	59269.39
484.82	58698.30
485.00	59166.40
485.18	59554.93
485.35	60121.34
485.53	60088.57
485.71	60264.11
485.89	60633.92
486.07	60360.08
486.25	60580.09
486.43	60743.92
486.61	61020.11
486.78	61364.17
486.96	61546.73
487.14	61827.59
487.32	61790.14
487.50	62031.22
487.68	62291.02
487.85	62667.84
488.03	62911.26
488.21	63014.24
488.39	63171.06
488.57	63091.48
488.75	63407.45
488.92	63398.09
489.10	63868.54
489.28	63938.75
489.46	64273.45
489.64	64179.83
489.81	64516.87
489.99	64821.14
490.17	64809.43
490.35	65139.45
490.53	65204.98
490.70	65467.12
490.88	65242.43
491.06	65535.00
491.24	65535.00
491.41	65535.00
491.59	65535.00
491.77	65535.00
491.95	65535.00
492.13	65535.00
492.30	65535.00
492.48	65535.00
492.66	65535.00
492.84	65535.00
493.01	65535.00
493.19	65535.00
493.37	65535.00
493.54	65535.00
493.72	65535.00
493.90	65535.00
494.08	65535.00
494.25	65535.00
494.43	65535.00
494.61	65535.00
494.79	65535.00
494.96	65535.00
495.14	65535.00
495.32	65535.00
495.49	65535.00
495.67	65535.00
495.85	65535.00
496.02	65535.00
496.20	65535.00
496.38	65535.00
496.55	65535.00
496.73	65535.00
496.91	65535.00
497.09	65535.00
497.26	65535.00
497.44	65535.00
497.62	65535.00
497.79	65535.00
497.97	65535.00
498.14	65535.00
498.32	65535.00
498.50	65535.00
498.67	65535.00
498.85	65535.00
499.03	65535.00
499.20	65535.00
499.38	65535.00
499.56	65535.00
499.73	65535.00
499.91	65535.00
500.08	65535.00
500.26	65535.00
500.44	65535.00
500.61	65535.00
500.79	65535.00
500.97	65535.00
501.14	65535.00
501.32	65535.00
501.49	65535.00
501.67	65535.00
501.84	65535.00
502.02	65535.00
502.20	65535.00
502.37	65535.00
502.55	65535.00
502.72	65535.00
502.90	65535.00
503.07	65535.00
503.25	65535.00
503.43	65535.00
503.60	65535.00
503.78	65535.00
503.95	65535.00
504.13	65535.00
504.30	65535.00
504.48	65535.00
504.65	65535.00
504.83	65535.00
505.01	65535.00
505.18	65535.00
505.36	65535.00
505.53	65535.00
505.71	65535.00
505.88	65535.00
506.06	65535.00
506.23	65535.00
506.41	65535.00
506.58	65535.00
506.76	65535.00
506.93	65535.00
507.11	65535.00
507.28	65535.00
507.46	65535.00
507.63	65535.00
507.81	65535.00
507.98	65535.00
508.16	65535.00
508.33	65535.00
508.50	65535.00
508.68	65535.00
508.85	65535.00
509.03	65535.00
509.20	65535.00
509.38	65535.00
509.55	65535.00
509.73	65535.00
509.90	65535.00
510.08	65535.00
510.25	65535.00
510.42	65535.00
510.60	65535.00
510.77	65535.00
510.95	65535.00
511.12	65535.00
511.30	65535.00
511.47	65535.00
511.64	65535.00
511.82	65535.00
511.99	65535.00
512.17	65535.00
512.34	65535.00
512.51	65535.00
512.69	65535.00
512.86	65535.00
513.04	65535.00
513.21	65535.00
513.38	65535.00
513.56	65535.00
513.73	65535.00
513.90	65535.00
514.08	65535.00
514.25	65535.00
514.43	65535.00
514.60	65535.00
514.77	65535.00
514.95	65535.00
515.12	65535.00
515.29	65535.00
515.47	65535.00
515.64	65535.00
515.81	65535.00
515.99	65535.00
516.16	65535.00
516.33	65535.00
516.51	65535.00
516.68	65535.00
516.85	65535.00
517.03	65535.00
517.20	65535.00
517.37	65535.00
517.54	65535.00
517.72	65535.00
517.89	65535.00
518.06	65535.00
518.24	65535.00
518.41	65535.00
518.58	65535.00
518.75	65535.00
518.93	65535.00
519.10	65535.00
519.27	65535.00
519.45	65535.00
519.62	65535.00
519.79	65535.00
519.96	65535.00
520.14	65535.00
520.31	65535.00
520.48	65535.00
520.65	65535.00
520.83	65535.00
521.00	65535.00
521.17	65535.00
521.34	65535.00
521.52	65535.00
521.69	65535.00
521.86	65535.00
522.03	65535.00
522.20	65535.00
522.38	65535.00
522.55	65535.00
522.72	65535.00
522.89	65535.00
523.07	65535.00
523.24	65535.00
523.41	65535.00
523.58	65535.00
523.75	65535.00
523.92	65535.00
524.10	65535.00
524.27	65535.00
524.44	65535.00
524.61	65535.00
524.78	65535.00
524.96	65535.00
525.13	65535.00
525.30	65535.00
525.47	65535.00
525.64	65535.00
525.81	65535.00
525.98	65535.00
526.16	65535.00
526.33	65535.00
526.50	65535.00
526.67	65535.00
526.84	65535.00
527.01	65535.00
527.18	65535.00
527.36	65535.00
527.53	65535.00
527.70	65535.00
527.87	65535.00
528.04	65535.00
528.21	65535.00
528.38	65535.00
528.55	65535.00
528.72	65535.00
528.89	65535.00
529.07	65535.00
529.24	65535.00
529.41	65535.00
529.58	65535.00
529.75	65535.00
529.92	65535.00
530.09	65535.00
530.26	65535.00
530.43	65535.00
530.60	65535.00
530.77	65535.00
530.94	65535.00
531.11	65535.00
531.28	65535.00
531.46	65535.00
531.63	65535.00
531.80	65535.00
531.97	65535.00
532.14	65535.00
532.31	65535.00
532.48	65535.00
532.65	65535.00
532.82	65535.00
532.99	65535.00
533.16	65535.00
533.33	65535.00
533.50	65535.00
533.67	65535.00
533.84	65535.00
534.01	65535.00
534.18	65535.00
534.35	65535.00
534.52	65535.00
534.69	65535.00
534.86	65535.00
535.03	65535.00
535.20	65535.00
535.37	65535.00
535.54	65535.00
535.71	65535.00
535.88	65535.00
536.05	65535.00
536.22	65535.00
536.38	65535.00
536.55	65535.00
536.72	65535.00
536.89	65535.00
537.06	65535.00
537.23	65535.00
537.40	65535.00
537.57	65535.00
537.74	65535.00
537.91	65535.00
538.08	65535.00
538.25	65535.00
538.42	65535.00
538.59	65535.00
538.75	65535.00
538.92	65535.00
539.09	65535.00
539.26	65535.00
539.43	65535.00
539.60	65535.00
539.77	65535.00
539.94	65535.00
540.11	65535.00
540.28	65535.00
540.44	65535.00
540.61	65535.00
540.78	65535.00
540.95	65535.00
541.12	65535.00
541.29	65535.00
541.46	65535.00
541.62	65535.00
541.79	65535.00
541.96	65535.00
542.13	65535.00
542.30	65535.00
542.47	65535.00
542.63	65535.00
542.80	65535.00
542.97	65535.00
543.14	65535.00
543.31	65535.00
543.48	65535.00
543.64	65535.00
543.81	65535.00
543.98	65535.00
544.15	65535.00
544.32	65535.00
544.48	65535.00
544.65	65535.00
544.82	65535.00
544.99	65535.00
545.16	65535.00
545.32	65535.00
545.49	65535.00
545.66	65535.00
545.83	65535.00
546.00	65535.00
546.16	65535.00
546.33	65535.00
546.50	65535.00
546.67	65535.00
546.83	65535.00
547.00	65535.00
547.17	65535.00
547.34	65535.00
547.50	65535.00
547.67	65535.00
547.84	65535.00
548.00	65535.00
548.17	65535.00
548.34	65535.00
548.51	65535.00
548.67	65535.00
548.84	65535.00
549.01	65535.00
549.18	65535.00
549.34	65535.00
549.51	65535.00
549.68	65535.00
549.84	65535.00
550.01	65535.00
550.18	65535.00
550.34	65535.00
550.51	65535.00
550.68	65535.00
550.84	65535.00
551.01	65535.00
551.18	65535.00
551.34	65535.00
551.51	65535.00
551.68	65535.00
551.84	65535.00
552.01	65535.00
552.18	65535.00
552.34	65535.00
552.51	65535.00
552.68	65535.00
552.84	65535.00
553.01	65535.00
553.18	65535.00
553.34	65535.00
553.51	65535.00
553.67	65535.00
553.84	65535.00
554.01	65535.00
554.17	65535.00
554.34	65535.00
554.51	65535.00
554.67	65535.00
554.84	65535.00
555.00	65535.00
555.17	65535.00
555.33	65535.00
555.50	65535.00
555.67	65535.00
555.83	65535.00
556.00	65535.00
556.16	65535.00
556.33	65535.00
556.50	65535.00
556.66	65535.00
556.83	65535.00
556.99	65535.00
557.16	65535.00
557.32	65535.00
557.49	65535.00
557.65	65535.00
557.82	65535.00
557.98	65535.00
558.15	65535.00
558.32	65535.00
558.48	65535.00
558.65	65535.00
558.81	65535.00
558.98	65535.00
559.14	65535.00
559.31	65535.00
559.47	65535.00
559.64	65535.00
559.80	65535.00
559.97	65535.00
560.13	65535.00
560.30	65535.00
560.46	65535.00
560.63	65535.00
560.79	65535.00
560.96	65535.00
561.12	65535.00
561.29	65535.00
561.45	65535.00
561.61	65535.00
561.78	65535.00
561.94	65535.00
562.11	65535.00
562.27	65535.00
562.44	65535.00
562.60	65535.00
562.77	65535.00
562.93	65535.00
563.10	65535.00
563.26	65535.00
563.42	65535.00
563.59	65535.00
563.75	65535.00
563.92	65535.00
564.08	65535.00
564.24	65535.00
564.41	65535.00
564.57	65535.00
564.74	65535.00
564.90	65535.00
565.07	65535.00
565.23	65535.00
565.39	65535.00
565.56	65535.00
565.72	65535.00
565.88	65535.00
566.05	65535.00
566.21	65535.00
566.38	65535.00
566.54	65535.00
566.70	65535.00
566.87	65535.00
567.03	65535.00
567.19	65535.00
567.36	65535.00
567.52	65535.00
567.68	65535.00
567.85	65535.00
568.01	65535.00
568.17	65535.00
568.34	65535.00
568.50	65535.00
568.66	65535.00
568.83	65535.00
568.99	65535.00
569.15	65535.00
569.32	65535.00
569.48	65535.00
569.64	65535.00
569.81	65535.00
569.97	65535.00
570.13	65535.00
570.30	65535.00
570.46	65535.00
570.62	65535.00
570.78	65535.00
570.95	65535.00
571.11	65535.00
571.27	65535.00
571.43	65535.00
571.60	65535.00
571.76	65535.00
571.92	65535.00
572.09	65535.00
572.25	65535.00
572.41	65535.00
572.57	65535.00
572.74	65535.00
572.90	65535.00
573.06	65535.00
573.22	65535.00
573.38	65535.00
573.55	65535.00
573.71	65535.00
573.87	65535.00
574.03	65535.00
574.20	65535.00
574.36	65535.00
574.52	65535.00
574.68	65535.00
574.84	65535.00
575.01	65535.00
575.17	65535.00
575.33	65535.00
575.49	65535.00
575.65	65535.00
575.82	65535.00
575.98	65535.00
576.14	65535.00
576.30	65535.00
576.46	65535.00
576.62	65535.00
576.79	65535.00
576.95	65535.00
577.11	65535.00
577.27	65535.00
577.43	65535.00
577.59	65535.00
577.75	65535.00
577.92	65535.00
578.08	65535.00
578.24	65535.00
578.40	65535.00
578.56	65535.00
578.72	65535.00
578.88	65535.00
579.04	65535.00
579.21	65535.00
579.37	65535.00
579.53	65535.00
579.69	65535.00
579.85	65535.00
580.01	65535.00
580.17	65535.00
580.33	65535.00
580.49	65535.00
580.65	65535.00
580.82	65535.00
580.98	65535.00
581.14	65535.00
581.30	65535.00
581.46	65535.00
581.62	65535.00
581.78	65535.00
581.94	65535.00
582.10	65535.00
582.26	65535.00
582.42	65535.00
582.58	65535.00
582.74	65535.00
582.90	65535.00
583.06	65535.00
583.22	65535.00
583.38	65535.00
583.54	65535.00
583.70	65535.00
583.86	65535.00
584.02	65535.00
584.18	65535.00
584.34	65535.00
584.50	65535.00
584.66	65535.00
584.82	65535.00
584.98	65535.00
585.14	65535.00
585.30	65535.00
585.46	65535.00
585.62	65535.00
585.78	65535.00
585.94	65535.00
586.10	65535.00
586.26	65535.00
586.42	65535.00
586.58	65535.00
586.74	65535.00
586.90	65535.00
587.06	65535.00
587.22	65535.00
587.38	65535.00
587.54	65535.00
587.70	65535.00
587.86	65535.00
588.02	65535.00
588.18	65535.00
588.34	65535.00
588.49	65535.00
588.65	65535.00
588.81	65535.00
588.97	65535.00
589.13	65535.00
589.29	65535.00
589.45	65535.00
589.61	65535.00
589.77	65535.00
589.93	65535.00
590.08	65535.00
590.24	65535.00
590.40	65535.00
590.56	65535.00
590.72	65535.00
590.88	65535.00
591.04	65535.00
591.20	65535.00
591.35	65535.00
591.51	65535.00
591.67	65535.00
591.83	65535.00
591.99	65535.00
592.15	65535.00
592.31	65535.00
592.46	65535.00
592.62	65535.00
592.78	65535.00
592.94	65535.00
593.10	65535.00
593.26	65535.00
593.41	65535.00
593.57	65535.00
593.73	65535.00
593.89	65535.00
594.05	65535.00
594.20	65535.00
594.36	65535.00
594.52	65535.00
594.68	65535.00
594.84	65535.00
594.99	65535.00
595.15	65535.00
595.31	65535.00
595.47	65535.00
595.62	65535.00
595.78	65535.00
595.94	65535.00
596.10	65535.00
596.25	65535.00
596.41	65535.00
596.57	65535.00
596.73	65535.00
596.88	65535.00
597.04	65535.00
597.20	65535.00
597.36	65535.00
597.51	65535.00
597.67	65535.00
597.83	65535.00
597.99	65535.00
598.14	65535.00
598.30	65535.00
598.46	65535.00
598.61	65535.00
598.77	65535.00
598.93	65535.00
599.09	65535.00
599.24	65535.00
599.40	65535.00
599.56	65535.00
599.71	65535.00
599.87	65535.00
600.03	65535.00
600.18	65535.00
600.34	65535.00
600.50	65535.00
600.65	65535.00
600.81	65535.00
600.97	65535.00
601.12	65535.00
601.28	65535.00
601.44	65535.00
601.59	65535.00
601.75	65535.00
601.91	65535.00
602.06	65535.00
602.22	65535.00
602.37	65535.00
602.53	65535.00
602.69	65535.00
602.84	65535.00
603.00	65535.00
603.16	65535.00
603.31	65535.00
603.47	65535.00
603.62	65535.00
603.78	65535.00
603.94	65535.00
604.09	65535.00
604.25	65535.00
604.40	65535.00
604.56	65535.00
604.71	65535.00
604.87	65535.00
605.03	65535.00
605.18	65535.00
605.34	65535.00
605.49	65535.00
605.65	65535.00
605.80	65535.00
605.96	65535.00
606.12	65535.00
606.27	65535.00
606.43	65535.00
606.58	65535.00
606.74	65535.00
606.89	65535.00
607.05	65535.00
607.20	65535.00
607.36	65535.00
607.51	65535.00
607.67	65535.00
607.82	65535.00
607.98	65535.00
608.13	65535.00
608.29	65535.00
608.44	65535.00
608.60	65535.00
608.75	65535.00
608.91	65535.00
609.06	65535.00
609.22	65535.00
609.37	65535.00
609.53	65535.00
609.68	65535.00
609.84	65535.00
609.99	65535.00
610.15	65535.00
610.30	65535.00
610.46	65535.00
610.61	65535.00
610.76	65535.00
610.92	65535.00
611.07	65535.00
611.23	65535.00
611.38	65535.00
611.54	65535.00
611.69	65535.00
611.84	65535.00
612.00	65535.00
612.15	65535.00
612.31	65535.00
612.46	65535.00
612.62	65535.00
612.77	65535.00
612.92	65535.00
613.08	65535.00
613.23	65535.00
613.39	65535.00
613.54	65535.00
613.69	65535.00
613.85	65535.00
614.00	65535.00
614.15	65535.00
614.31	65535.00
614.46	65535.00
614.62	65535.00
614.77	65535.00
614.92	65535.00
615.08	65535.00
615.23	65535.00
615.38	65535.00
615.54	65535.00
615.69	65535.00
615.84	65535.00
616.00	65535.00
616.15	65535.00
616.30	65535.00
616.46	65535.00
616.61	65535.00
616.76	65535.00
616.92	65535.00
617.07	65535.00
617.22	65535.00
617.37	65535.00
617.53	65535.00
617.68	65535.00
617.83	65535.00
617.99	65535.00
618.14	65535.00
618.29	65535.00
618.45	65535.00
618.60	65535.00
618.75	65535.00
618.90	65535.00
619.06	65535.00
619.21	65535.00
619.36	65535.00
619.51	65535.00
619.67	65535.00
619.82	65535.00
619.97	65535.00
620.12	65535.00
620.28	65535.00
620.43	65535.00
620.58	65535.00
620.73	65535.00
620.89	65535.00
621.04	65535.00
621.19	65535.00
621.34	65535.00
621.49	65535.00
621.65	65535.00
621.80	65535.00
621.95	65535.00
622.10	65535.00
622.25	65535.00
622.41	65535.00
622.56	65535.00
622.71	65535.00
622.86	65535.00
623.01	65535.00
623.16	65535.00
623.32	65535.00
623.47	65535.00
623.62	65535.00
623.77	65535.00
623.92	65535.00
624.07	65535.00
624.23	65535.00
624.38	65535.00
624.53	65535.00
624.68	65535.00
624.83	65535.00
624.98	65535.00
625.13	65535.00
625.29	65535.00
625.44	65535.00
625.59	65535.00
625.74	65535.00
625.89	65535.00
626.04	65535.00
626.19	65535.00
626.34	65535.00
626.49	65535.00
626.65	65535.00
626.80	65535.00
626.95	65535.00
627.10	65535.00
627.25	65535.00
627.40	65535.00
627.55	65535.00
627.70	65535.00
627.85	65535.00
628.00	65535.00
628.15	65535.00
628.30	65535.00
628.45	65535.00
628.60	65535.00
628.76	65535.00
628.91	65535.00
629.06	65535.00
629.21	65535.00
629.36	65535.00
629.51	65535.00
629.66	65535.00
629.81	65535.00
629.96	65535.00
630.11	65535.00
630.26	65535.00
630.41	65535.00
630.56	65535.00
630.71	65535.00
630.86	65535.00
631.01	65535.00
631.16	65535.00
631.31	65535.00
631.46	65535.00
631.61	65535.00
631.76	65535.00
631.91	65535.00
632.06	65535.00
632.21	65535.00
632.36	65535.00
632.51	65535.00
632.66	65535.00
632.81	65535.00
632.96	65535.00
633.10	65535.00
633.25	65535.00
633.40	65535.00
633.55	65535.00
633.70	65535.00
633.85	65535.00
634.00	65535.00
634.15	65535.00
634.30	65535.00
634.45	65535.00
634.60	65535.00
634.75	65535.00
634.90	65535.00
635.05	65535.00
635.19	65535.00
635.34	65535.00
635.49	65535.00
635.64	65535.00
635.79	65535.00
635.94	65535.00
636.09	65535.00
636.24	65535.00
636.39	65535.00
636.53	65535.00
636.68	65535.00
636.83	65535.00
636.98	65535.00
637.13	65535.00
637.28	65535.00
637.43	65535.00
637.57	65535.00
637.72	65535.00
637.87	65535.00
638.02	65535.00
638.17	65535.00
638.32	65535.00
638.46	65535.00
638.61	65535.00
638.76	65535.00
638.91	65535.00
639.06	65535.00
639.20	65535.00
639.35	65535.00
639.50	65535.00
639.65	65535.00
639.80	65535.00
639.94	65535.00
640.09	65535.00
640.24	65535.00
640.39	65535.00
640.54	65535.00
640.68	65535.00
640.83	65535.00
640.98	65535.00
641.13	65535.00
641.27	65535.00
641.42	65535.00
641.57	65535.00
641.72	65535.00
641.86	65535.00
642.01	65535.00
642.16	65535.00
642.31	65535.00
642.45	65535.00
642.60	65535.00
642.75	65535.00
642.90	65535.00
643.04	65535.00
643.19	65535.00
643.34	65535.00
643.48	65535.00
643.63	65535.00
643.78	65535.00
643.93	65535.00
644.07	65535.00
644.22	65535.00
644.37	65535.00
644.51	65535.00
644.66	65535.00
644.81	65535.00
644.95	65535.00
645.10	65535.00
645.25	65535.00
645.39	65535.00
645.54	65535.00
645.69	65535.00
645.83	65535.00
645.98	65535.00
646.13	65535.00
646.27	65535.00
646.42	65535.00
646.57	65535.00
646.71	65535.00
646.86	65535.00
647.00	65535.00
647.15	65535.00
647.30	65535.00
647.44	65535.00
647.59	65535.00
647.74	65535.00
647.88	65535.00
648.03	65535.00
648.17	65535.00
648.32	65535.00
648.47	65535.00
648.61	65535.00
648.76	65535.00
648.90	65535.00
649.05	65535.00
649.20	65535.00
649.34	65535.00
649.49	65535.00
649.63	65535.00
649.78	65535.00
649.92	65535.00
650.07	65535.00
650.21	65535.00
650.36	65535.00
650.51	65535.00
650.65	65535.00
650.80	65535.00
650.94	65535.00
651.09	65535.00
651.23	65535.00
651.38	65535.00
651.52	65535.00
651.67	65535.00
651.81	65535.00
651.96	65535.00
652.10	65535.00
652.25	65535.00
652.39	65535.00
652.54	65535.00
652.68	65535.00
652.83	65535.00
652.97	65535.00
653.12	65535.00
653.26	65535.00
653.41	65535.00
653.55	65535.00
653.70	65535.00
653.84	65535.00
653.99	65535.00
654.13	65535.00
654.27	65535.00
654.42	65535.00
654.56	65535.00
654.71	65535.00
654.85	65535.00
655.00	65535.00
655.14	65535.00
655.29	65535.00
655.43	65535.00
655.57	65535.00
655.72	65535.00
655.86	65535.00
656.01	65535.00
656.15	65535.00
656.30	65535.00
656.44	65535.00
656.58	65535.00
656.73	65535.00
656.87	65535.00
657.01	65535.00
657.16	65535.00
657.30	65535.00
657.45	65535.00
657.59	65535.00
657.73	65535.00
657.88	65535.00
658.02	65535.00
658.16	65535.00
658.31	65535.00
658.45	65535.00
658.60	65535.00
658.74	65535.00
658.88	65535.00
659.03	65535.00
659.17	65535.00
659.31	65535.00
659.46	65535.00
659.60	65535.00
659.74	65535.00
659.89	65535.00
660.03	65535.00
660.17	65535.00
660.32	65535.00
660.46	65535.00
660.60	65535.00
660.74	65535.00
660.89	65535.00
661.03	65535.00
661.17	65535.00
661.32	65535.00
661.46	65535.00
661.60	65535.00
661.74	65535.00
661.89	65535.00
662.03	65535.00
662.17	65535.00
662.31	65535.00
662.46	65535.00
662.60	65535.00
662.74	65535.00
662.88	65535.00
663.03	65535.00
663.17	65535.00
663.31	65535.00
663.45	65535.00
663.60	65535.00
663.74	65535.00
663.88	65535.00
664.02	65535.00
664.17	65535.00
664.31	65535.00
664.45	65535.00
664.59	65535.00
664.73	65535.00
664.88	65535.00
665.02	65535.00
665.16	65535.00
665.30	65535.00
665.44	65535.00
665.59	65535.00
665.73	65535.00
665.87	65535.00
666.01	65535.00
666.15	65535.00
666.29	65535.00
666.44	65535.00
666.58	65535.00
666.72	65535.00
666.86	65535.00
667.00	65535.00
667.14	65535.00
667.28	65535.00
667.43	65535.00
667.57	65535.00
667.71	65535.00
667.85	65535.00
667.99	65535.00
668.13	65535.00
668.27	65535.00
668.41	65535.00
668.56	65535.00
668.70	65535.00
668.84	65535.00
668.98	65535.00
669.12	65535.00
669.26	65535.00
669.40	65535.00
669.54	65535.00
669.68	65535.00
669.82	65535.00
669.96	65535.00
670.10	65535.00
670.25	65535.00
670.39	65535.00
670.53	65535.00
670.67	65535.00
670.81	65535.00
670.95	65535.00
671.09	65535.00
671.23	65535.00
671.37	65535.00
671.51	65535.00
671.65	65535.00
671.79	65535.00
671.93	65535.00
672.07	65535.00
672.21	65535.00
672.35	65535.00
672.49	65535.00
672.63	65535.00
672.77	65535.00
672.91	65535.00
673.05	65535.00
673.19	65535.00
673.33	65535.00
673.47	65535.00
673.61	65535.00
673.75	65535.00
673.89	65535.00
674.03	65535.00
674.17	65535.00
674.31	65535.00
674.45	65535.00
674.59	65535.00
674.73	65535.00
674.87	65535.00
675.01	65535.00
675.15	65535.00
675.29	65535.00
675.43	65535.00
675.56	65535.00
675.70	65535.00
675.84	65535.00
675.98	65535.00
676.12	65535.00
676.26	65535.00
676.40	65535.00
676.54	65535.00
676.68	65535.00
676.82	65535.00
676.96	65535.00
677.10	65535.00
677.23	65535.00
677.37	65535.00
677.51	65535.00
677.65	65535.00
677.79	65535.00
677.93	65535.00
678.07	65535.00
678.21	65535.00
678.34	65535.00
678.48	65535.00
678.62	65535.00
678.76	65535.00
678.90	65535.00
679.04	65535.00
679.18	65535.00
679.31	65535.00
679.45	65535.00
679.59	65535.00
679.73	65535.00
679.87	65535.00
680.00	65535.00
680.14	65535.00
680.28	65535.00
680.42	65535.00
680.56	65535.00
680.70	65535.00
680.83	65535.00
680.97	65535.00
681.11	65535.00
681.25	65535.00
681.39	65535.00
681.52	65535.00
681.66	65535.00
681.80	65535.00
681.94	65535.00
682.07	65535.00
682.21	65535.00
682.35	65535.00
682.49	65535.00
682.62	65535.00
682.76	65535.00
682.90	65535.00
683.04	65535.00
683.17	65535.00
683.31	65535.00
683.45	65535.00
683.59	65535.00
683.72	65535.00
683.86	65535.00
684.00	65535.00
684.13	65535.00
684.27	65535.00
684.41	65535.00
684.55	65535.00
684.68	65535.00
684.82	65535.00
684.96	65535.00
685.09	65535.00
685.23	65535.00
685.37	65535.00
685.50	65535.00
685.64	65535.00
685.78	65535.00
685.91	65535.00
686.05	65535.00
686.19	65535.00
686.32	65535.00
686.46	65535.00
686.60	65535.00
686.73	65535.00
686.87	65535.00
687.01	65535.00
687.14	65535.00
687.28	65535.00
687.42	65535.00
687.55	65535.00
687.69	65535.00
687.82	65535.00
687.96	65535.00
688.10	65535.00
688.23	65535.00
688.37	65535.00
688.50	65535.00
688.64	65535.00
688.78	65535.00
688.91	65535.00
689.05	65535.00
689.18	65535.00
689.32	65535.00
689.46	65535.00
689.59	65535.00
689.73	65535.00
689.86	65535.00
690.00	65535.00
690.13	65535.00
690.27	65535.00
690.41	65535.00
690.54	65535.00
690.68	65535.00
690.81	65535.00
690.95	65535.00
691.08	65535.00
691.22	65535.00
691.35	65535.00
691.49	65535.00
691.62	65535.00
691.76	65535.00
691.89	65535.00
692.03	65535.00
692.16	65535.00
692.30	65535.00
692.43	65535.00
692.57	65535.00
692.70	65535.00
692.84	65535.00
692.97	65535.00
693.11	65535.00
693.24	65535.00
693.38	65535.00
693.51	65535.00
693.65	65535.00
693.78	65535.00
693.92	65535.00
694.05	65535.00
694.19	65535.00
694.32	65535.00
694.45	65535.00
694.59	65535.00
694.72	65535.00
694.86	65535.00
694.99	65535.00
695.13	65535.00
695.26	65535.00
695.39	65535.00
695.53	65535.00
695.66	65535.00
695.80	65535.00
695.93	65535.00
696.07	65535.00
696.20	65535.00
696.33	65535.00
696.47	65535.00
696.60	65535.00
696.73	65535.00
696.87	65535.00
697.00	65535.00
697.14	65535.00
697.27	65535.00
697.40	65535.00
697.54	65535.00
697.67	65535.00
697.80	65535.00
697.94	65535.00
698.07	65535.00
698.21	65535.00
698.34	65535.00
698.47	65535.00
698.61	65535.00
698.74	65535.00
698.87	65535.00
699.01	65535.00
699.14	65535.00
699.27	65535.00
699.40	65535.00
699.54	65535.00
699.67	65535.00
699.80	65535.00
699.94	65535.00
700.07	65535.00
700.20	65535.00
700.34	65535.00
700.47	65535.00
700.60	65535.00
700.73	65535.00
700.87	65535.00
701.00	65535.00
701.13	65535.00
701.26	65535.00
701.40	65535.00
701.53	65535.00
701.66	65535.00
701.79	65535.00
701.93	65535.00
702.06	65535.00
702.19	65535.00
702.32	65535.00
702.46	65535.00
702.59	65535.00
702.72	65535.00
702.85	65535.00
702.99	65535.00
703.12	65535.00
703.25	65535.00
703.38	65535.00
703.51	65535.00
703.65	65535.00
703.78	65535.00
703.91	65535.00
704.04	65535.00
704.17	65535.00
704.31	65535.00
704.44	65535.00
704.57	65535.00
704.70	65535.00
704.83	65535.00
704.96	65535.00
705.10	65535.00
705.23	65535.00
>>>>>End Processed Spectral Data<<<<<
