SpectraSuite Data File
++++++++++++++++++++++++++++++++++++
Date: Thu Oct 24 13:21:19 EDT 2013
User: stostad
Dark Spectrum Present: No
Reference Spectrum Present: No
Number of Sampled Component Spectra: 1
Spectrometers: USB2+H05261
Integration Time (usec): 100000 (USB2+H05261)
Spectra Averaged: 1 (USB2+H05261)
Boxcar Smoothing: 0 (USB2+H05261)
Correct for Electrical Dark: No (USB2+H05261)
Strobe/Lamp Enabled: No (USB2+H05261)
Correct for Detector Non-linearity: No (USB2+H05261)
Correct for Stray Light: No (USB2+H05261)
Number of Pixels in Processed Spectrum: 2048
>>>>>Begin Processed Spectral Data<<<<<
365.73	578.11
365.92	578.11
366.12	578.11
366.32	430.66
366.52	463.43
366.72	545.34
366.91	437.68
367.11	470.45
367.31	524.28
367.51	465.77
367.70	416.62
367.90	454.06
368.10	440.02
368.30	458.74
368.49	468.11
368.69	435.34
368.89	430.66
369.09	519.60
369.28	477.47
369.48	465.77
369.68	512.58
369.87	533.64
370.07	528.96
370.27	521.94
370.47	615.56
370.66	851.96
370.86	875.36
371.06	877.70
371.25	924.51
371.45	823.87
371.65	866.00
371.84	957.28
372.04	936.21
372.24	978.34
372.44	938.55
372.63	912.81
372.83	875.36
373.03	940.90
373.22	961.96
373.42	912.81
373.62	922.17
373.81	945.58
374.01	1062.60
374.21	910.47
374.40	1015.79
374.60	968.98
374.79	976.00
374.99	1001.75
375.19	1046.22
375.38	964.30
375.58	994.73
375.78	976.00
375.97	1008.77
376.17	1062.60
376.37	1074.31
376.56	1008.77
376.76	938.55
376.95	971.32
377.15	976.00
377.35	1029.84
377.54	1069.62
377.74	1006.43
377.93	1022.81
378.13	1088.35
378.33	1064.94
378.52	1039.20
378.72	1053.24
378.91	1008.77
379.11	1095.37
379.31	1146.86
379.50	1029.84
379.70	1102.39
379.89	1074.31
380.09	1057.92
380.28	1132.82
380.48	1022.81
380.68	1036.86
380.87	1104.73
381.07	1069.62
381.26	1090.69
381.46	1121.12
381.65	1132.82
381.85	1151.54
382.04	1008.77
382.24	1156.22
382.43	1198.35
382.63	1130.48
382.83	1181.97
383.02	1142.18
383.22	1139.84
383.41	1123.46
383.61	1186.65
383.80	1217.08
384.00	1158.57
384.19	1181.97
384.39	1149.20
384.58	1158.57
384.78	1219.42
384.97	1135.16
385.17	1212.40
385.36	1233.46
385.56	1240.48
385.75	1254.53
385.95	1174.95
386.14	1256.87
386.34	1210.06
386.53	1191.33
386.72	1167.93
386.92	1289.64
387.11	1277.93
387.31	1409.00
387.50	1284.95
387.70	1352.83
387.89	1291.98
388.09	1270.91
388.28	1203.04
388.48	1247.51
388.67	1331.76
388.86	1263.89
389.06	1289.64
389.25	1284.95
389.45	1336.45
389.64	1357.51
389.84	1350.49
390.03	1401.98
390.22	1362.19
390.42	1338.79
390.61	1392.62
390.81	1327.08
391.00	1350.49
391.19	1401.98
391.39	1343.47
391.58	1451.13
391.78	1451.13
391.97	1472.20
392.16	1425.39
392.36	1479.22
392.55	1458.15
392.75	1404.32
392.94	1465.18
393.13	1493.26
393.33	1502.62
393.52	1474.54
393.71	1558.80
393.91	1549.43
394.10	1404.32
394.29	1390.28
394.49	1561.14
394.68	1495.60
394.88	1537.73
395.07	1619.65
395.26	1668.80
395.46	1600.93
395.65	1675.82
395.84	1643.06
396.04	1685.19
396.23	1577.52
396.42	1657.10
396.62	1589.22
396.81	1668.80
397.00	1556.46
397.19	1589.22
397.39	1720.29
397.58	1734.34
397.77	1769.44
397.97	1764.76
398.16	1680.50
398.35	1844.34
398.55	1694.55
398.74	1706.25
398.93	1694.55
399.12	1692.21
399.32	1839.66
399.51	1755.40
399.70	1741.36
399.90	1827.96
400.09	1776.47
400.28	1785.83
400.47	1926.26
400.67	1884.13
400.86	1923.92
401.05	1823.28
401.24	1891.15
401.44	1860.73
401.63	1886.47
401.82	1926.26
402.01	1874.77
402.21	1930.94
402.40	1926.26
402.59	1996.48
402.78	1968.39
402.97	2017.54
403.17	1996.48
403.36	1980.09
403.55	2033.93
403.74	2132.23
403.93	2120.53
404.13	2190.74
404.32	2127.55
404.51	2118.18
404.70	2141.59
404.89	2122.87
405.09	2235.21
405.28	2195.42
405.47	2127.55
405.66	2298.41
405.85	2228.19
406.05	2225.85
406.24	2197.76
406.43	2176.70
406.62	2284.36
406.81	2317.13
407.00	2200.10
407.20	2319.47
407.39	2289.04
407.58	2342.88
407.77	2361.60
407.96	2307.77
408.15	2314.79
408.34	2270.32
408.54	2417.77
408.73	2347.56
408.92	2242.23
409.11	2502.03
409.30	2396.71
409.49	2429.48
409.68	2487.99
409.87	2523.10
410.07	2513.74
410.26	2602.68
410.45	2431.82
410.64	2602.68
410.83	2654.17
411.02	2633.10
411.21	2574.59
411.40	2579.27
411.59	2700.98
411.78	2633.10
411.98	2745.45
412.17	2745.45
412.36	2747.79
412.55	2754.81
412.74	2860.13
412.93	2827.37
413.12	2834.39
413.31	2918.65
413.50	2944.39
413.69	2993.55
413.88	2988.86
414.07	3028.65
414.26	3023.97
414.45	3098.87
414.64	2984.18
414.83	3070.78
415.02	3136.32
415.22	3080.14
415.41	3103.55
415.60	3332.92
415.79	3185.47
415.98	3122.27
416.17	3274.41
416.36	3365.69
416.55	3300.16
416.74	3302.50
416.93	3335.26
417.12	3281.43
417.31	3452.29
417.50	3351.65
417.69	3527.19
417.88	3466.33
418.07	3557.61
418.26	3456.97
418.45	3552.93
418.64	3555.27
418.83	3609.11
419.02	3576.34
419.21	3632.51
419.39	3604.42
419.58	3669.96
419.77	3592.72
419.96	3749.54
420.15	3669.96
420.34	3712.09
420.53	3676.98
420.72	3789.33
420.91	3644.21
421.10	3740.18
421.29	3840.82
421.48	3826.78
421.67	3875.93
421.86	3805.71
422.05	3901.67
422.24	3768.26
422.43	3901.67
422.61	3915.72
422.80	3908.69
422.99	3901.67
423.18	4002.32
423.37	3969.55
423.56	3995.29
423.75	3967.21
423.94	3801.03
424.13	3742.52
424.32	3822.09
424.50	3950.82
424.69	4025.72
424.88	3978.91
425.07	3925.08
425.26	3801.03
425.45	3960.19
425.64	4004.66
425.83	3934.44
426.01	3934.44
426.20	3976.57
426.39	4098.28
426.58	3918.06
426.77	3990.61
426.96	3971.89
427.15	3997.64
427.33	4177.86
427.52	4007.00
427.71	4112.32
427.90	4166.15
428.09	4074.87
428.28	4196.58
428.46	4245.73
428.65	4306.59
428.84	4231.69
429.03	4337.01
429.22	4210.62
429.40	4138.07
429.59	4280.84
429.78	4285.52
429.97	4222.33
430.16	4311.27
430.34	4615.54
430.53	4512.55
430.72	4442.34
430.91	4484.47
431.10	4376.80
431.28	4540.64
431.47	4542.98
431.66	4582.77
431.85	4568.73
432.03	4638.94
432.22	4762.99
432.41	4685.75
432.60	4741.93
432.79	4720.86
432.97	4734.90
433.16	4575.75
433.35	4636.60
433.54	4552.34
433.72	4746.61
433.91	4723.20
434.10	4847.25
434.28	4741.93
434.47	4791.08
434.66	4786.40
434.85	4966.62
435.03	5015.77
435.22	5090.67
435.41	5245.14
435.59	5118.75
435.78	5069.60
435.97	5224.08
436.16	5060.24
436.34	5114.07
436.53	4985.34
436.72	5181.95
436.90	5055.56
437.09	5200.67
437.28	5071.94
437.46	5111.73
437.65	5308.34
437.84	5114.07
438.02	5249.82
438.21	4947.89
438.40	5097.69
438.58	5570.48
438.77	5378.55
438.96	5437.06
439.14	5380.89
439.33	5568.13
439.52	5284.93
439.70	5504.94
439.89	5792.83
440.08	5593.88
440.26	5638.35
440.45	5516.64
440.63	5832.62
440.82	5664.10
441.01	5731.97
441.19	5743.67
441.38	5748.36
441.57	5795.17
441.75	5884.11
441.94	5865.38
442.12	5858.36
442.31	5973.05
442.50	5968.37
442.68	6017.52
442.87	6073.69
443.05	6125.18
443.24	6253.91
443.43	6164.97
443.61	6200.08
443.80	6310.08
443.98	6017.52
444.17	5956.66
444.35	6293.70
444.54	6321.79
444.73	6223.48
444.91	6202.42
445.10	6354.55
445.28	6326.47
445.47	6282.00
445.65	6193.06
445.84	6401.37
446.02	6478.60
446.21	6431.79
446.39	6370.94
446.58	6487.96
446.77	6464.56
446.95	6382.64
447.14	6382.64
447.32	6509.03
447.51	6399.02
447.69	6366.26
447.88	6511.37
448.06	6525.41
448.25	6293.70
448.43	6471.58
448.62	6619.04
448.80	6457.54
448.99	6656.48
449.17	6649.46
449.36	6574.56
449.54	6883.52
449.73	6619.04
449.91	6789.89
450.10	6630.74
450.28	6984.16
450.46	6576.91
450.65	6609.67
450.83	6817.98
451.02	6871.81
451.20	6764.15
451.39	6977.14
451.57	6963.09
451.76	6825.00
451.94	6883.52
452.13	7110.55
452.31	6984.16
452.49	6892.88
452.68	7084.80
452.86	6991.18
453.05	7068.42
453.23	7136.29
453.42	7063.74
453.60	6998.20
453.78	7089.48
453.97	7070.76
454.15	7007.56
454.34	7112.89
454.52	7349.28
454.70	7342.26
454.89	7232.26
455.07	7405.46
455.26	7344.60
455.44	7459.29
455.62	7419.50
455.81	7276.73
455.99	7658.23
456.17	7421.84
456.36	7527.16
456.54	7410.14
456.73	7623.12
456.91	7793.98
457.09	7660.57
457.28	7885.26
457.46	7751.85
457.64	7934.42
457.83	7733.13
458.01	7761.22
458.19	7903.99
458.38	7875.90
458.56	8119.32
458.74	7892.29
458.93	8119.32
459.11	7934.42
459.29	8102.93
459.48	8163.79
459.66	8006.97
459.84	8161.45
460.03	8266.77
460.21	8032.72
460.39	8086.55
460.57	8299.54
460.76	8208.26
460.94	8439.97
461.12	8231.66
461.31	8369.76
461.49	8411.89
461.67	8285.50
461.85	8486.78
462.04	8334.65
462.22	8765.31
462.40	8533.59
462.59	8559.34
462.77	8589.77
462.95	8688.07
463.13	8334.65
463.32	8585.08
463.50	8683.39
463.68	8624.87
463.86	8645.94
464.05	8493.80
464.23	8613.17
464.41	8732.54
464.59	8566.36
464.78	8854.25
464.96	8734.88
465.14	8786.37
465.32	8795.73
465.50	8973.61
465.69	9083.62
465.87	9015.74
466.05	8887.01
466.23	8952.55
466.41	8898.72
466.60	9195.96
466.78	9020.42
466.96	8945.53
467.14	9006.38
467.32	9062.55
467.51	9144.47
467.69	8926.80
467.87	9107.02
468.05	9277.88
468.23	9029.79
468.41	8919.78
468.60	9259.16
468.78	9287.25
468.96	9137.45
469.14	9423.00
469.32	9650.03
469.50	9256.82
469.69	9495.55
469.87	9551.73
470.05	9668.75
470.23	9727.27
470.41	9511.94
470.59	9497.89
470.77	9645.35
470.95	9792.80
471.14	9804.50
471.32	9654.71
471.50	9928.55
471.68	9966.00
471.86	9996.43
472.04	9935.57
472.22	10169.63
472.40	10017.49
472.58	10176.65
472.77	10083.03
472.95	10181.33
473.13	10607.31
473.31	10361.55
473.49	10406.02
473.67	10368.57
473.85	10359.21
474.03	10850.72
474.21	10434.11
474.39	10782.85
474.57	10799.23
474.75	10766.46
474.93	10853.06
475.12	10764.12
475.30	11089.46
475.48	10967.75
475.66	11042.65
475.84	10794.55
476.02	11162.01
476.20	11056.69
476.38	11389.05
476.56	11438.20
476.74	11417.13
476.92	11667.57
477.10	11559.91
477.28	11730.76
477.46	11653.53
477.64	11922.69
477.82	12020.99
478.00	12283.13
478.18	12175.47
478.36	12112.27
478.54	12222.28
478.72	12322.92
478.90	12411.86
479.08	12463.35
479.26	12879.97
479.44	12938.48
479.62	13074.23
479.80	13074.23
479.98	13231.05
480.16	13163.17
480.34	13139.77
480.52	13294.24
480.70	13437.02
480.88	13214.66
481.06	13441.70
481.24	13621.92
481.41	13731.92
481.59	13874.70
481.77	13973.00
481.95	14352.16
482.13	14384.93
482.31	14083.00
482.49	14237.48
482.67	14551.11
482.85	14333.44
483.03	14794.53
483.21	14923.26
483.39	15089.43
483.57	15199.44
483.74	15234.55
483.92	15307.10
484.10	15382.00
484.28	15669.89
484.46	15847.77
484.64	15906.28
484.82	15721.38
485.00	15910.96
485.18	16280.77
485.35	16463.33
485.53	16376.73
485.71	16669.30
485.89	16711.42
486.07	16727.81
486.25	16875.26
486.43	17273.15
486.61	16872.92
486.78	17142.08
486.96	17434.65
487.14	17734.24
487.32	17795.09
487.50	17820.84
487.68	17734.24
487.85	17872.33
488.03	18197.67
488.21	18490.23
488.39	18398.95
488.57	18473.85
488.75	18464.49
488.92	18841.31
489.10	19140.90
489.28	19157.28
489.46	19477.94
489.64	19328.14
489.81	19534.11
489.99	19681.56
490.17	19569.22
490.35	20006.90
490.53	20149.67
490.70	20123.93
490.88	20276.06
491.06	20538.20
491.24	20559.27
491.41	20692.68
491.59	20538.20
491.77	21057.80
491.95	21181.85
492.13	21088.23
492.30	21345.69
492.48	21348.03
492.66	21518.89
492.84	21422.92
493.01	21755.28
493.19	21851.24
493.37	22274.88
493.54	21965.93
493.72	22382.54
493.90	22176.58
494.08	22469.14
494.25	23094.07
494.43	22672.77
494.61	22984.06
494.79	22960.66
494.96	23166.62
495.14	23267.27
495.32	23403.02
495.49	23475.57
495.67	23587.92
495.85	23700.26
496.02	23913.25
496.20	24063.05
496.38	24264.33
496.55	24112.20
496.73	24519.45
496.91	24575.62
497.09	24264.33
497.26	24835.42
497.44	24898.62
497.62	24975.86
497.79	25322.26
497.97	25069.48
498.14	25680.36
498.32	25668.66
498.50	25762.28
498.67	25900.37
498.85	25591.42
499.03	26160.17
499.20	26288.90
499.38	26279.54
499.56	26761.69
499.73	26405.92
499.91	26190.59
500.08	26490.18
500.26	26593.17
500.44	26511.25
500.61	27255.54
500.79	27101.06
500.97	26969.99
501.14	27517.68
501.32	27091.70
501.49	27351.50
501.67	27309.37
501.84	27477.89
502.02	27838.33
502.20	27812.59
502.37	28093.45
502.55	27328.10
502.72	28048.98
502.90	28060.68
503.07	28030.26
503.25	28266.65
503.43	28112.17
503.60	28336.87
503.78	28421.13
503.95	28166.01
504.13	28411.76
504.30	28577.94
504.48	28811.99
504.65	28985.19
504.83	29170.10
505.01	29312.87
505.18	29109.24
505.36	29244.99
505.53	29254.36
505.71	29631.18
505.88	29462.66
506.06	29378.40
506.23	29619.48
506.41	29895.66
506.58	30066.52
506.76	30188.23
506.93	29951.84
507.11	30139.08
507.28	30085.25
507.46	30834.22
507.63	30625.91
507.81	30558.03
507.98	30195.25
508.16	30078.22
508.33	30630.59
508.50	30792.09
508.68	31171.25
508.85	31122.10
509.03	31124.44
509.20	31187.64
509.38	31498.93
509.55	31290.62
509.73	31534.04
509.90	31821.92
510.08	31770.43
510.25	31613.62
510.42	31625.32
510.60	31807.88
510.77	31842.99
510.95	32245.56
511.12	32189.39
511.30	32308.76
511.47	32549.83
511.64	32641.11
511.82	32875.16
511.99	32299.39
512.17	32589.62
512.34	32877.51
512.51	33090.49
512.69	33219.22
512.86	33394.76
513.04	33408.81
513.21	33174.75
513.38	33177.09
513.56	33352.63
513.73	33352.63
513.90	33905.00
514.08	33919.04
514.25	34134.37
514.43	33860.53
514.60	33832.44
514.77	33947.13
514.95	33958.83
515.12	33853.51
515.29	34178.84
515.47	34611.84
515.64	34363.75
515.81	34443.32
515.99	34422.26
516.16	34888.03
516.33	34581.42
516.51	34918.45
516.68	34972.28
516.85	34728.87
517.03	34920.79
517.20	35068.25
517.37	34991.01
517.54	35178.25
517.72	35594.87
517.89	35168.89
518.06	35332.73
518.24	35491.88
518.41	35665.08
518.58	35573.80
518.75	35402.94
518.93	35482.52
519.10	35655.72
519.27	35824.24
519.45	35957.65
519.62	36046.59
519.79	36247.88
519.96	36381.29
520.14	36385.97
520.31	35992.76
520.48	36306.39
520.65	36402.35
520.83	36350.86
521.00	36617.68
521.17	36772.16
521.34	36886.84
521.52	37055.36
521.69	37113.87
521.86	37523.47
522.03	37097.49
522.20	37542.19
522.38	37504.74
522.55	37137.28
522.72	37413.46
522.89	37310.48
523.07	37752.84
523.24	37429.85
523.41	37935.40
523.58	37275.37
523.75	38024.34
523.92	38237.33
524.10	38169.46
524.27	37940.08
524.44	38185.84
524.61	38293.50
524.78	38017.32
524.96	38253.72
525.13	38094.56
525.30	38686.71
525.47	38237.33
525.64	38628.20
525.81	38614.16
525.98	38799.06
526.16	39129.08
526.33	38525.22
526.50	39005.03
526.67	38944.17
526.84	39517.60
527.01	39260.15
527.18	39093.97
527.36	39335.04
527.53	39033.11
527.70	39381.85
527.87	39625.27
528.04	39658.04
528.21	39845.28
528.38	39697.83
528.55	39845.28
528.72	39934.22
528.89	39966.99
529.07	39510.58
529.24	39746.98
529.41	40158.91
529.58	39791.45
529.75	39894.43
529.92	40147.21
530.09	40088.70
530.26	40428.07
530.43	40147.21
530.60	40116.78
530.77	40395.31
530.94	40802.56
531.11	40472.54
531.28	40493.61
531.46	40774.47
531.63	40701.92
531.80	41031.93
531.97	40617.66
532.14	41043.63
532.31	40687.87
532.48	41048.32
532.65	41656.85
532.82	41188.75
532.99	40722.98
533.16	40856.39
533.33	41230.88
533.50	41523.44
533.67	41296.41
533.84	40994.48
534.01	41155.98
534.18	41146.62
534.35	41958.78
534.52	41691.96
534.69	41750.48
534.86	41860.48
535.03	41490.68
535.20	42108.58
535.37	42134.32
535.54	42120.28
535.71	42066.45
535.88	41776.22
536.05	42136.66
536.22	42328.59
536.38	42375.40
536.55	42504.13
536.72	42450.30
536.89	42251.35
537.06	42806.06
537.23	42960.53
537.40	42845.85
537.57	42689.03
537.74	42380.08
537.91	42817.76
538.08	43033.09
538.25	42370.72
538.42	42913.72
538.59	43199.27
538.75	42789.67
538.92	43262.46
539.09	42869.25
539.26	42892.66
539.43	43225.01
539.60	42990.96
539.77	43061.18
539.94	43997.39
540.11	43639.29
540.28	44341.45
540.44	44067.61
540.61	43655.67
540.78	43384.17
540.95	43805.47
541.12	43613.54
541.29	43679.08
541.46	44013.77
541.62	44369.54
541.79	44561.46
541.96	43828.87
542.13	44034.84
542.30	44605.93
542.47	44378.90
542.63	44353.15
542.80	44582.52
542.97	45205.11
543.14	44865.73
543.31	45031.91
543.48	44933.60
543.64	45237.87
543.81	45308.09
543.98	45010.84
544.15	44893.82
544.32	45633.42
544.48	45570.23
544.65	45151.27
544.82	45235.53
544.99	45071.70
545.16	44910.20
545.32	45160.64
545.49	45708.32
545.66	45937.69
545.83	46045.36
546.00	46124.94
546.16	45888.54
546.33	45525.76
546.50	45546.82
546.67	45752.79
546.83	45008.50
547.00	45574.91
547.17	45408.73
547.34	45448.52
547.50	45762.15
547.67	46518.15
547.84	45991.53
548.00	46595.38
548.17	46576.66
548.34	45909.61
548.51	46120.26
548.67	46036.00
548.84	46220.90
549.01	46024.29
549.18	46103.87
549.34	46185.79
549.51	46178.77
549.68	46471.34
549.84	46279.41
550.01	46363.67
550.18	46281.75
550.34	46323.88
550.51	46529.85
550.68	46485.38
550.84	46508.79
551.01	46543.89
551.18	46471.34
551.34	46258.35
551.51	46019.61
551.68	46892.63
551.84	46209.20
552.01	46419.84
552.18	46518.15
552.34	46754.54
552.51	46979.23
552.68	46817.74
552.84	46747.52
553.01	47253.08
553.18	47037.75
553.34	47229.67
553.51	46946.47
553.67	46749.86
553.84	47334.99
554.01	47196.90
554.17	47625.22
554.34	47203.92
554.51	46990.94
554.67	47168.82
554.84	47215.63
555.00	47133.71
555.17	47180.52
555.33	47040.09
555.50	47236.69
555.67	47449.68
555.83	47299.89
556.00	47391.17
556.16	47744.59
556.33	47777.36
556.50	47859.27
556.66	47480.11
556.83	47267.12
556.99	48126.10
557.16	47983.32
557.32	48020.77
557.49	47966.94
557.65	47672.03
557.82	47676.71
557.98	47386.49
558.15	47660.33
558.32	48121.41
558.48	47494.15
558.65	48151.84
558.81	48046.52
558.98	47936.51
559.14	47739.91
559.31	48130.78
559.47	47941.19
559.64	47849.91
559.80	47454.36
559.97	48243.12
560.13	47604.16
560.30	47723.52
560.46	48093.33
560.63	48252.48
560.79	48313.34
560.96	48633.99
561.12	48212.70
561.29	48371.85
561.45	48004.39
561.61	48421.00
561.78	48090.99
561.94	48224.40
562.11	48776.76
562.27	48339.08
562.44	48753.36
562.60	48554.41
562.77	48474.84
562.93	48502.92
563.10	48278.23
563.26	48428.02
563.42	48645.69
563.59	48741.66
563.75	48493.56
563.92	48856.34
564.08	48528.67
564.24	48643.35
564.41	48491.22
564.57	48135.46
564.74	48364.83
564.90	48846.98
565.07	49064.65
565.23	48938.26
565.39	49226.15
565.56	48861.02
565.72	48498.24
565.88	48842.30
566.05	48687.82
566.21	48605.91
566.38	48580.16
566.54	48594.20
566.70	48846.98
566.87	49223.81
567.03	48928.90
567.19	49535.10
567.36	49195.72
567.52	48942.94
567.68	49366.58
567.85	49212.10
568.01	49106.78
568.17	48868.05
568.34	49336.15
568.50	48748.68
568.66	49071.67
568.83	49720.00
568.99	49205.08
569.15	49287.00
569.32	48760.38
569.48	48980.39
569.64	48769.74
569.81	48603.56
569.97	49078.69
570.13	49062.31
570.30	48835.28
570.46	48933.58
570.62	48758.04
570.78	49031.88
570.95	48832.94
571.11	49530.42
571.27	49207.42
571.43	48868.05
571.60	49151.25
571.76	49179.34
571.92	49137.21
572.09	49621.70
572.25	49591.27
572.41	49553.82
572.57	49418.07
572.74	49626.38
572.90	49125.50
573.06	49507.01
573.22	49509.35
573.38	49389.98
573.55	49411.05
573.71	49727.02
573.87	49394.67
574.03	49911.92
574.20	49443.82
574.36	49577.23
574.52	49481.27
574.68	49385.30
574.84	49635.74
575.01	49827.66
575.17	49392.33
575.33	49759.79
575.49	49312.75
575.65	49750.43
575.82	49808.94
575.98	49521.05
576.14	49661.49
576.30	49691.91
576.46	49525.74
576.62	49666.17
576.79	49507.01
576.95	49502.33
577.11	49607.65
577.27	49696.59
577.43	49701.28
577.59	49607.65
577.75	49642.76
577.92	49270.62
578.08	49792.56
578.24	49481.27
578.40	49890.86
578.56	49769.15
578.72	49890.86
578.88	50174.06
579.04	49785.54
579.21	49918.95
579.37	50183.43
579.53	49883.84
579.69	49631.06
579.85	49834.69
580.01	49820.64
580.17	49900.22
580.33	49956.39
580.49	49745.75
580.65	49813.62
580.82	49888.52
580.98	49668.51
581.14	49511.69
581.30	50038.31
581.46	49668.51
581.62	49436.80
581.78	49734.04
581.94	49734.04
582.10	49415.73
582.26	49907.24
582.42	49720.00
582.58	49635.74
582.74	49869.79
582.90	50005.55
583.06	50099.17
583.22	49940.01
583.38	49947.03
583.54	49567.87
583.70	49750.43
583.86	49790.22
584.02	49738.72
584.18	50089.80
584.34	49799.58
584.50	50398.76
584.66	49937.67
584.82	49902.56
584.98	49970.44
585.14	49860.43
585.30	49832.35
585.46	50148.32
585.62	50012.57
585.78	50401.10
585.94	50204.49
586.10	50035.97
586.26	50293.43
586.42	50038.31
586.58	50220.87
586.74	50255.98
586.90	49855.75
587.06	50209.17
587.22	50026.61
587.38	50497.06
587.54	50115.55
587.70	50426.84
587.86	50405.78
588.02	50021.93
588.18	50394.07
588.34	50328.54
588.49	50267.69
588.65	50033.63
588.81	49937.67
588.97	50248.96
589.13	50026.61
589.29	49827.66
589.45	50700.68
589.61	50511.10
589.77	50429.18
589.93	50234.92
590.08	50724.09
590.24	50644.51
590.40	50485.36
590.56	50480.67
590.72	50590.68
590.88	50092.15
591.04	50314.50
591.20	50878.57
591.35	50253.64
591.51	50979.21
591.67	50630.47
591.83	50770.90
591.99	50845.80
592.15	50354.29
592.31	50330.88
592.46	50712.39
592.62	50541.53
592.78	50600.04
592.94	50623.45
593.10	50522.80
593.26	50990.91
593.41	50955.80
593.57	50593.02
593.73	50637.49
593.89	50637.49
594.05	50494.72
594.20	50440.89
594.36	50586.00
594.52	50354.29
594.68	50600.04
594.84	50520.46
594.99	50894.95
595.15	50466.63
595.31	50583.66
595.47	51079.85
595.62	50686.64
595.78	50321.52
595.94	50405.78
596.10	50672.60
596.25	50457.27
596.41	50749.84
596.57	50365.99
596.73	50546.21
596.88	50770.90
597.04	50698.34
597.20	50747.50
597.36	50375.35
597.51	50548.55
597.67	50396.42
597.83	50794.31
597.99	50801.33
598.14	50848.14
598.30	50745.15
598.46	50536.85
598.61	51044.74
598.77	50897.29
598.93	50899.63
599.09	50696.00
599.24	50906.65
599.40	50403.44
599.56	50726.43
599.71	50412.80
599.87	50890.27
600.03	50745.15
600.18	50920.70
600.34	50763.88
600.50	50724.09
600.65	50518.12
600.81	50986.23
600.97	50791.97
601.12	50838.78
601.28	51323.27
601.44	50883.25
601.59	50712.39
601.75	50618.77
601.91	51016.66
602.06	50747.50
602.22	50951.12
602.37	51051.76
602.53	50464.29
602.69	51035.38
602.84	51049.42
603.00	50986.23
603.16	50642.17
603.31	50925.38
603.47	50536.85
603.62	50705.37
603.78	50981.55
603.94	50635.15
604.09	50646.85
604.25	50693.66
604.40	50696.00
604.56	50653.87
604.71	51339.65
604.87	50569.61
605.03	51016.66
605.18	50831.75
605.34	50274.71
605.49	50319.18
605.65	50286.41
605.80	50518.12
605.96	51014.32
606.12	51033.04
606.27	51681.37
606.43	51194.54
606.58	51178.15
606.74	50784.94
606.89	50916.01
607.05	51000.27
607.20	50483.01
607.36	50349.60
607.51	50586.00
607.67	50307.47
607.82	50752.18
607.98	51070.49
608.13	50784.94
608.29	50557.91
608.44	50508.76
608.60	50656.21
608.75	50766.22
608.91	51009.64
609.06	50295.77
609.22	50373.01
609.37	50052.36
609.53	50611.74
609.68	50478.33
609.84	50316.84
609.99	50660.90
610.15	50616.43
610.30	51028.36
610.46	50726.43
610.61	50791.97
610.76	51173.47
610.92	51189.86
611.07	50948.78
611.23	50717.07
611.38	51105.60
611.54	51466.04
611.69	51119.64
611.84	50897.29
612.00	51061.13
612.15	50937.08
612.31	51145.39
612.46	51056.45
612.62	50705.37
612.77	50590.68
612.92	50691.32
613.08	50251.30
613.23	50340.24
613.39	50735.79
613.54	50894.95
613.69	50710.05
613.85	50632.81
614.00	50604.72
614.15	50824.73
614.31	50389.39
614.46	50642.17
614.62	50703.03
614.77	50314.50
614.92	50548.55
615.08	50244.28
615.23	49932.99
615.38	49961.08
615.54	49848.73
615.69	49855.75
615.84	50206.83
616.00	50391.73
616.15	49998.52
616.30	50330.88
616.46	49799.58
616.61	49815.96
616.76	49893.20
616.92	49633.40
617.07	49741.06
617.22	49799.58
617.37	49247.21
617.53	49715.32
617.68	49865.11
617.83	49879.16
617.99	49712.98
618.14	49743.41
618.29	49750.43
618.45	49893.20
618.60	49879.16
618.75	49879.16
618.90	49282.32
619.06	49045.93
619.21	49179.34
619.36	49476.58
619.51	49626.38
619.67	49205.08
619.82	49528.08
619.97	49710.64
620.12	49244.87
620.28	49443.82
620.43	49691.91
620.58	49642.76
620.73	49509.35
620.89	49212.10
621.04	49268.28
621.19	49467.22
621.34	49689.57
621.49	49240.19
621.65	49109.12
621.80	49584.25
621.95	49310.41
622.10	49148.91
622.25	49525.74
622.41	49574.89
622.56	49116.14
622.71	49113.80
622.86	49261.26
623.01	48865.70
623.16	48821.23
623.32	48484.20
623.47	49315.09
623.62	48910.17
623.77	48769.74
623.92	49078.69
624.07	49441.48
624.23	48910.17
624.38	49336.15
624.53	49013.16
624.68	49289.34
624.83	48877.41
624.98	49024.86
625.13	48697.19
625.29	48781.45
625.44	48676.12
625.59	48603.56
625.74	48507.60
625.89	48535.69
626.04	48484.20
626.19	48839.96
626.34	48912.52
626.49	48748.68
626.65	48479.52
626.80	48875.07
626.95	48154.18
627.10	48158.86
627.25	48098.01
627.40	48371.85
627.55	48081.63
627.70	48128.44
627.85	48055.88
628.00	47849.91
628.15	48135.46
628.30	48236.10
628.45	48247.80
628.60	48025.45
628.76	48006.73
628.91	48294.61
629.06	47746.93
629.21	47688.42
629.36	48083.97
629.51	48350.79
629.66	47922.47
629.81	47938.85
629.96	48041.84
630.11	47522.24
630.26	48048.86
630.41	48236.10
630.56	47990.34
630.71	48018.43
630.86	48086.31
631.01	47749.27
631.16	48264.19
631.31	47660.33
631.46	47545.64
631.61	47772.67
631.76	47714.16
631.91	47676.71
632.06	47402.87
632.21	47353.72
632.36	47377.12
632.51	47131.37
632.66	48069.92
632.81	47136.05
632.96	47580.75
633.10	47672.03
633.25	47449.68
633.40	47058.81
633.55	47192.22
633.70	47079.88
633.85	46993.28
634.00	47363.08
634.15	47143.07
634.30	47206.26
634.45	47159.45
634.60	47353.72
634.75	47199.24
634.90	46899.65
635.05	46862.21
635.19	46808.37
635.34	47026.04
635.49	47213.29
635.64	46925.40
635.79	47056.47
635.94	46969.87
636.09	47093.92
636.24	47037.75
636.39	47112.64
636.53	47302.23
636.68	46321.54
636.83	46930.08
636.98	46894.97
637.13	46827.10
637.28	47150.09
637.43	46492.40
637.57	46815.40
637.72	45815.99
637.87	46295.80
638.02	46639.86
638.17	46782.63
638.32	46504.10
638.46	46115.58
638.61	46387.08
638.76	46333.24
638.91	46740.50
639.06	46417.50
639.20	46548.57
639.35	46897.31
639.50	46424.53
639.65	46480.70
639.80	46522.83
639.94	45865.14
640.09	46110.89
640.24	46052.38
640.39	46319.20
640.54	46171.75
640.68	45769.18
640.83	45635.77
640.98	46080.47
641.13	45909.61
641.27	45865.14
641.42	45345.54
641.57	46092.17
641.72	45998.55
641.86	46019.61
642.01	45195.74
642.16	45598.32
642.31	45385.33
642.45	45979.82
642.60	45406.39
642.75	45687.26
642.90	45921.31
643.04	45485.97
643.19	45511.72
643.34	45921.31
643.48	46164.73
643.63	45572.57
643.78	45167.66
643.93	45263.62
644.07	45055.31
644.22	45429.80
644.37	45160.64
644.51	45565.55
644.66	45691.94
644.81	45535.12
644.95	45598.32
645.10	45804.28
645.25	45645.13
645.39	45415.76
645.54	45523.42
645.69	45237.87
645.83	45237.87
645.98	45104.46
646.13	45485.97
646.27	45184.04
646.42	45467.25
646.57	45375.97
646.71	45015.52
646.86	44926.58
647.00	45071.70
647.15	45422.78
647.30	45610.02
647.44	44903.18
647.59	45001.48
647.74	45167.66
647.88	45287.03
648.03	44994.46
648.17	45001.48
648.32	44484.22
648.47	45081.06
648.61	44584.86
648.76	44832.96
648.90	44364.85
649.05	44940.63
649.20	44360.17
649.34	44645.72
649.49	45268.30
649.63	45137.23
649.78	44900.84
649.92	44697.21
650.07	44891.48
650.21	44699.55
650.36	44683.17
650.51	44325.07
650.65	44737.00
650.80	44449.11
650.94	44596.57
651.09	44205.70
651.23	44336.77
651.38	44406.98
651.52	44481.88
651.67	44814.24
651.81	44360.17
651.96	44428.05
652.10	44376.56
652.25	44308.68
652.39	44210.38
652.54	43995.05
652.68	43770.36
652.83	44109.74
652.97	44163.57
653.12	43686.10
653.26	43899.09
653.41	44439.75
653.55	44100.37
653.70	44016.11
653.84	44409.32
653.99	43920.15
654.13	43824.19
654.27	43674.40
654.42	44067.61
654.56	43866.32
654.71	43690.78
654.85	43613.54
655.00	43566.73
655.14	43482.47
655.29	43739.93
655.43	43669.72
655.57	43089.26
655.72	43255.44
655.86	43658.01
656.01	43414.60
656.15	43037.77
656.30	43761.00
656.44	44009.09
656.58	44053.56
656.73	43590.14
656.87	43805.47
657.01	43789.08
657.16	43330.34
657.30	43330.34
657.45	42686.69
657.59	42955.85
657.73	42520.51
657.88	43068.20
658.02	42930.11
658.16	43100.97
658.31	43248.42
658.45	43777.38
658.60	43239.06
658.74	42962.87
658.88	42890.32
659.03	42550.94
659.17	42890.32
659.31	42134.32
659.46	42579.03
659.60	42288.80
659.74	42508.81
659.89	42480.72
660.03	42447.96
660.17	42581.37
660.32	41965.81
660.46	42216.24
660.60	41724.73
660.74	42192.84
660.89	42064.11
661.03	41982.19
661.17	41996.23
661.32	41855.80
661.46	42270.08
661.60	41928.36
661.74	41675.58
661.89	41741.11
662.03	41326.84
662.17	41551.53
662.31	41352.58
662.46	41490.68
662.60	41280.03
662.74	41518.76
662.88	41329.18
663.03	41406.42
663.17	41457.91
663.31	41368.97
663.45	41551.53
663.60	41439.18
663.74	40802.56
663.88	41193.43
664.02	40868.09
664.17	41045.97
664.31	40793.20
664.45	40652.76
664.59	40299.34
664.73	41193.43
664.88	41488.34
665.02	40411.69
665.16	41076.40
665.30	40971.08
665.44	40809.58
665.59	40559.14
665.73	40554.46
665.87	40084.01
666.01	40369.56
666.15	40502.97
666.29	40500.63
666.44	40163.59
666.58	39498.88
666.72	39489.52
666.86	40135.51
667.00	39983.37
667.14	39557.39
667.28	39856.98
667.43	40079.33
667.57	39796.13
667.71	40053.59
667.85	40140.19
667.99	39882.73
668.13	39250.78
668.27	38939.49
668.41	39817.19
668.56	39023.75
668.70	39152.48
668.84	38789.70
668.98	38670.33
669.12	38609.48
669.26	39262.49
669.40	39063.54
669.54	38651.61
669.68	39122.05
669.82	39009.71
669.96	39274.19
670.10	38810.76
670.25	38848.21
670.39	38127.33
670.53	38653.95
670.67	38029.02
670.81	38234.99
670.95	38302.87
671.09	37762.20
671.23	38033.71
671.37	38529.90
671.51	38345.00
671.65	38349.68
671.79	38337.98
671.93	38101.58
672.07	38667.99
672.21	37420.48
672.35	37713.05
672.49	38054.77
672.63	37427.51
672.77	37839.44
672.91	37584.32
673.05	37013.23
673.19	37146.64
673.33	37125.58
673.47	36762.79
673.61	37062.38
673.75	36790.88
673.89	37148.98
674.03	36952.38
674.17	36650.45
674.31	36802.58
674.45	37055.36
674.59	37212.18
674.73	37329.20
674.87	36458.52
675.01	36526.40
675.15	36238.51
675.29	36301.71
675.43	36362.56
675.56	36121.49
675.70	35501.25
675.84	35819.56
675.98	34979.31
676.12	35445.07
676.26	35505.93
676.40	35782.11
676.54	35693.17
676.68	35686.15
676.82	35012.07
676.96	35325.71
677.10	35597.21
677.23	35208.68
677.37	35227.40
677.51	34969.94
677.65	34588.44
677.79	34579.07
677.93	33989.26
678.07	34398.85
678.21	34401.19
678.34	34260.76
678.48	33942.45
678.62	33895.64
678.76	33633.50
678.90	33907.34
679.04	33837.12
679.18	33523.49
679.31	33251.99
679.45	33684.99
679.59	33256.67
679.73	33670.95
679.87	33284.76
680.00	33392.42
680.14	32849.42
680.28	32966.45
680.42	32882.19
680.56	32947.72
680.70	32701.96
680.83	32472.59
680.97	32311.10
681.11	32339.18
681.25	32149.60
681.39	32187.05
681.52	31927.25
681.66	32025.55
681.80	31971.72
681.94	31681.49
682.07	31929.59
682.21	31824.26
682.35	31810.22
682.49	32105.13
682.62	31580.85
682.76	31580.85
682.90	31175.94
683.04	31307.01
683.17	31087.00
683.31	31058.91
683.45	31229.77
683.59	30726.55
683.72	30953.58
683.86	30710.17
684.00	30651.66
684.13	30499.52
684.27	30120.35
684.41	30190.57
684.55	30171.85
684.68	30033.75
684.82	29589.05
684.96	29677.99
685.09	29514.16
685.23	29579.69
685.37	29715.44
685.50	29731.83
685.64	29521.18
685.78	29256.70
685.91	29254.36
686.05	29212.23
686.19	28819.02
686.32	28819.02
686.46	28774.55
686.60	28938.38
686.73	28828.38
686.87	28900.94
687.01	28554.54
687.14	28711.35
687.28	28720.71
687.42	28304.10
687.55	28109.83
687.69	28203.46
687.82	27716.62
687.96	28030.26
688.10	27819.61
688.23	27948.34
688.37	27531.72
688.50	27318.73
688.64	27747.05
688.78	27674.49
688.91	27501.29
689.05	27047.23
689.18	26934.88
689.32	26518.27
689.46	26597.85
689.59	26796.79
689.73	26742.96
689.86	26604.87
690.00	26174.21
690.13	26148.46
690.27	26520.61
690.41	26321.66
690.54	25839.51
690.68	25797.38
690.81	26127.40
690.95	25802.07
691.08	26139.10
691.22	25668.66
691.35	25266.08
691.49	25958.88
691.62	25975.27
691.76	25802.07
691.89	25977.61
692.03	25692.06
692.16	25167.78
692.30	25181.82
692.43	24512.43
692.57	24924.36
692.70	24889.26
692.84	25039.05
692.97	24636.48
693.11	24669.25
693.24	24285.40
693.38	24713.72
693.51	24196.46
693.65	24151.99
693.78	24327.53
693.92	24065.39
694.05	23690.90
694.19	23751.76
694.32	23655.79
694.45	23889.85
694.59	23541.11
694.72	23522.38
694.86	23180.67
694.99	22909.16
695.13	22897.46
695.26	22984.06
695.39	22614.26
695.53	22691.49
695.66	22796.82
695.80	22841.29
695.93	22504.25
696.07	22501.91
696.20	22204.66
696.33	22256.15
696.47	22396.59
696.60	22239.77
696.73	22150.83
696.87	22305.31
697.00	22160.19
697.14	21902.73
697.27	21628.89
697.40	21259.09
697.54	21879.33
697.67	20933.75
697.80	20739.49
697.94	21214.62
698.07	20812.04
698.21	20919.71
698.34	20730.12
698.47	20748.85
698.61	20610.76
698.74	20734.81
698.87	20858.85
699.01	20643.52
699.14	20400.11
699.27	20545.22
699.40	20758.21
699.54	20636.50
699.67	20603.74
699.80	19932.00
699.94	19971.79
700.07	20053.71
700.20	19564.54
700.34	19644.12
700.47	19536.45
700.60	19609.01
700.73	19721.35
700.87	19117.50
701.00	19225.16
701.13	19098.77
701.26	19049.62
701.40	18874.08
701.53	18485.55
701.66	19007.49
701.79	18684.50
701.93	18778.12
702.06	18731.31
702.19	18761.73
702.32	18785.14
702.46	18274.90
702.59	17998.72
702.72	18347.46
702.85	18242.14
702.99	18185.96
703.12	18005.74
703.25	17930.84
703.38	17935.53
703.51	18033.83
703.65	17912.12
703.78	17853.61
703.91	17572.74
704.04	17736.58
704.17	17977.65
704.31	17640.62
704.44	16915.05
704.57	17078.89
704.70	16924.41
704.83	16912.71
704.96	16863.56
705.10	16929.09
705.23	17032.08
>>>>>End Processed Spectral Data<<<<<
