SpectraSuite Data File
++++++++++++++++++++++++++++++++++++
Date: Thu Oct 24 13:21:15 EDT 2013
User: stostad
Dark Spectrum Present: No
Reference Spectrum Present: No
Number of Sampled Component Spectra: 1
Spectrometers: USB2+H05261
Integration Time (usec): 100000 (USB2+H05261)
Spectra Averaged: 1 (USB2+H05261)
Boxcar Smoothing: 0 (USB2+H05261)
Correct for Electrical Dark: No (USB2+H05261)
Strobe/Lamp Enabled: No (USB2+H05261)
Correct for Detector Non-linearity: No (USB2+H05261)
Correct for Stray Light: No (USB2+H05261)
Number of Pixels in Processed Spectrum: 2048
>>>>>Begin Processed Spectral Data<<<<<
365.73	568.75
365.92	568.75
366.12	568.75
366.32	507.90
366.52	442.36
366.72	458.74
366.91	531.30
367.11	425.98
367.31	416.62
367.51	369.80
367.70	444.70
367.90	433.00
368.10	475.13
368.30	470.45
368.49	440.02
368.69	524.28
368.89	395.55
369.09	423.64
369.28	444.70
369.48	475.13
369.68	554.71
369.87	491.51
370.07	484.49
370.27	543.00
370.47	510.24
370.66	685.78
370.86	725.57
371.06	833.23
371.25	791.10
371.45	744.29
371.65	856.64
371.84	821.53
372.04	837.91
372.24	858.98
372.44	891.74
372.63	959.62
372.83	858.98
373.03	884.72
373.22	840.25
373.42	849.61
373.62	978.34
373.81	877.70
374.01	905.79
374.21	894.08
374.40	926.85
374.60	905.79
374.79	861.32
374.99	929.19
375.19	868.34
375.38	947.92
375.58	908.13
375.78	987.71
375.97	882.38
376.17	992.39
376.37	842.59
376.56	875.36
376.76	985.37
376.95	880.04
377.15	957.28
377.35	971.32
377.54	898.77
377.74	929.19
377.93	898.77
378.13	987.71
378.33	889.40
378.52	999.41
378.72	1015.79
378.91	973.66
379.11	973.66
379.31	873.02
379.50	952.60
379.70	992.39
379.89	957.28
380.09	954.94
380.28	976.00
380.48	929.19
380.68	1025.15
380.87	938.55
381.07	1029.84
381.26	997.07
381.46	1011.11
381.65	968.98
381.85	1029.84
382.04	1067.28
382.24	1053.24
382.43	1018.13
382.63	926.85
382.83	994.73
383.02	1046.22
383.22	1039.20
383.41	1053.24
383.61	1053.24
383.80	976.00
384.00	964.30
384.19	1034.52
384.39	1128.14
384.58	1025.15
384.78	1109.41
384.97	1046.22
385.17	1043.88
385.36	1001.75
385.56	1048.56
385.75	1022.81
385.95	1188.99
386.14	1090.69
386.34	1057.92
386.53	1046.22
386.72	1048.56
386.92	1156.22
387.11	1086.01
387.31	1137.50
387.50	1062.60
387.70	1128.14
387.89	1088.35
388.09	1165.59
388.28	1142.18
388.48	1149.20
388.67	1203.04
388.86	1184.31
389.06	1174.95
389.25	1167.93
389.45	1114.10
389.64	1245.16
389.84	1174.95
390.03	1196.01
390.22	1219.42
390.42	1135.16
390.61	1193.67
390.81	1142.18
391.00	1118.78
391.19	1172.61
391.39	1172.61
391.58	1184.31
391.78	1205.38
391.97	1212.40
392.16	1268.57
392.36	1350.49
392.55	1268.57
392.75	1291.98
392.94	1249.85
393.13	1193.67
393.33	1228.78
393.52	1245.16
393.71	1238.14
393.91	1287.29
394.10	1174.95
394.29	1315.38
394.49	1235.80
394.68	1240.48
394.88	1310.70
395.07	1313.04
395.26	1277.93
395.46	1392.62
395.65	1362.19
395.84	1376.24
396.04	1383.26
396.23	1371.55
396.42	1371.55
396.62	1336.45
396.81	1364.53
397.00	1336.45
397.19	1401.98
397.39	1392.62
397.58	1313.04
397.77	1362.19
397.97	1355.17
398.16	1411.34
398.35	1437.09
398.55	1490.92
398.74	1504.96
398.93	1500.28
399.12	1420.71
399.32	1369.21
399.51	1570.50
399.70	1537.73
399.90	1483.90
400.09	1455.81
400.28	1469.86
400.47	1598.59
400.67	1565.82
400.86	1528.37
401.05	1535.39
401.24	1638.38
401.44	1586.88
401.63	1593.90
401.82	1504.96
402.01	1558.80
402.21	1621.99
402.40	1591.56
402.59	1661.78
402.78	1661.78
402.97	1652.42
403.17	1631.35
403.36	1603.27
403.55	1682.85
403.74	1760.08
403.93	1687.53
404.13	1792.85
404.32	1703.91
404.51	1842.00
404.70	1813.92
404.89	1741.36
405.09	1729.66
405.28	1797.53
405.47	1797.53
405.66	1776.47
405.85	1827.96
406.05	1816.26
406.24	1790.51
406.43	1795.19
406.62	1853.70
406.81	1966.05
407.00	1818.60
407.20	1879.45
407.39	1919.24
407.58	1954.35
407.77	1942.64
407.96	1926.26
408.15	2029.24
408.34	1952.01
408.54	1898.17
408.73	1961.37
408.92	1952.01
409.11	2052.65
409.30	2057.33
409.49	2040.95
409.68	2050.31
409.87	1933.28
410.07	2101.80
410.26	2172.02
410.45	2090.10
410.64	2190.74
410.83	2165.00
411.02	2150.95
411.21	2298.41
411.40	2188.40
411.59	2176.70
411.78	2155.63
411.98	2078.40
412.17	2204.78
412.36	2263.30
412.55	2256.28
412.74	2307.77
412.93	2335.85
413.12	2317.13
413.31	2450.54
413.50	2305.43
413.69	2436.50
413.88	2499.69
414.07	2462.24
414.26	2429.48
414.45	2452.88
414.64	2417.77
414.83	2485.65
415.02	2492.67
415.22	2537.14
415.41	2607.36
415.60	2682.25
415.79	2672.89
415.98	2679.91
416.17	2689.28
416.36	2609.70
416.55	2607.36
416.74	2757.15
416.93	2621.40
417.12	2722.04
417.31	2750.13
417.50	2621.40
417.69	2829.71
417.88	2813.32
418.07	2679.91
418.26	2853.11
418.45	2789.92
418.64	2846.09
418.83	2850.77
419.02	2876.52
419.21	3026.31
419.39	2902.26
419.58	3002.91
419.77	2925.67
419.96	2958.44
420.15	2979.50
420.34	3000.57
420.53	3014.61
420.72	2967.80
420.91	2984.18
421.10	3059.08
421.29	2995.89
421.48	2946.73
421.67	3119.93
421.86	3105.89
422.05	3124.62
422.24	3080.14
422.43	3206.53
422.61	3138.66
422.80	3199.51
422.99	3194.83
423.18	3122.27
423.37	3255.69
423.56	3122.27
423.75	3162.06
423.94	3178.45
424.13	2906.95
424.32	3047.38
424.50	3180.79
424.69	3251.00
424.88	3290.79
425.07	3220.58
425.26	3133.98
425.45	3218.24
425.64	3162.06
425.83	3035.67
426.01	3187.81
426.20	3251.00
426.39	3262.71
426.58	3272.07
426.77	3208.87
426.96	3283.77
427.15	3295.47
427.33	3246.32
427.52	3300.16
427.71	3372.71
427.90	3344.63
428.09	3363.35
428.28	3272.07
428.46	3433.57
428.65	3316.54
428.84	3492.08
429.03	3581.02
429.22	3449.95
429.40	3452.29
429.59	3520.17
429.78	3456.97
429.97	3279.09
430.16	3609.11
430.34	3592.72
430.53	3552.93
430.72	3492.08
430.91	3611.45
431.10	3559.95
431.28	3569.32
431.47	3705.07
431.66	3684.00
431.85	3674.64
432.03	3602.08
432.22	3779.97
432.41	3831.46
432.60	3716.77
432.79	3702.73
432.97	3728.47
433.16	3775.28
433.35	3822.09
433.54	3824.44
433.72	3812.73
433.91	3836.14
434.10	3845.50
434.28	3882.95
434.47	3920.40
434.66	3737.84
434.85	3927.42
435.03	3997.64
435.22	4140.41
435.41	4360.42
435.59	4208.28
435.78	4255.09
435.97	4142.75
436.16	4044.45
436.34	4009.34
436.53	4053.81
436.72	4147.43
436.90	3983.59
437.09	4053.81
437.28	4039.76
437.46	4154.45
437.65	4030.40
437.84	4152.11
438.02	4180.20
438.21	4119.34
438.40	3901.67
438.58	4411.91
438.77	4318.29
438.96	4290.20
439.14	4449.36
439.33	4346.37
439.52	4418.93
439.70	4479.79
439.89	4418.93
440.08	4606.17
440.26	4484.47
440.45	4367.44
440.63	4421.27
440.82	4503.19
441.01	4540.64
441.19	4589.79
441.38	4697.46
441.57	4552.34
441.75	4784.06
441.94	4662.35
442.12	4716.18
442.31	4975.98
442.50	4741.93
442.68	4772.35
442.87	4915.12
443.05	4978.32
443.24	5004.07
443.43	4973.64
443.61	4844.91
443.80	5139.82
443.98	4826.18
444.17	4702.14
444.35	4964.28
444.54	5046.20
444.73	4938.53
444.91	4964.28
445.10	4971.30
445.28	4873.00
445.47	5046.20
445.65	5071.94
445.84	5078.96
446.02	5163.22
446.21	5198.33
446.39	5001.72
446.58	5083.64
446.77	5071.94
446.95	5011.09
447.14	5069.60
447.32	5177.26
447.51	5001.72
447.69	4985.34
447.88	4985.34
448.06	5015.77
448.25	5224.08
448.43	5172.58
448.62	5128.11
448.80	5219.39
448.99	5179.61
449.17	5130.45
449.36	5135.14
449.54	5345.78
449.73	5441.75
449.91	5315.36
450.10	5355.15
450.28	5296.63
450.46	5357.49
450.65	5369.19
450.83	5467.49
451.02	5467.49
451.20	5504.94
451.39	5465.15
451.57	5291.95
451.76	5385.57
451.94	5483.88
452.13	5533.03
452.31	5593.88
452.49	5467.49
452.68	5710.91
452.86	5497.92
453.05	5612.60
453.23	5654.73
453.42	5533.03
453.60	5486.22
453.78	5671.12
453.97	5659.42
454.15	5607.92
454.34	5469.83
454.52	5743.67
454.70	5673.46
454.89	5734.31
455.07	5736.65
455.26	5804.53
455.44	5865.38
455.62	5734.31
455.81	5708.57
455.99	5820.91
456.17	5895.81
456.36	5827.93
456.54	6017.52
456.73	5944.96
456.91	6050.28
457.09	6106.46
457.28	6150.93
457.46	6164.97
457.64	6218.80
457.83	6171.99
458.01	6230.51
458.19	6279.66
458.38	6083.05
458.56	6246.89
458.74	6342.85
458.93	6361.58
459.11	6239.87
459.29	6190.72
459.48	6293.70
459.66	6415.41
459.84	6270.30
460.03	6424.77
460.21	6459.88
460.39	6450.52
460.57	6340.51
460.76	6497.33
460.94	6516.05
461.12	6382.64
461.31	6509.03
461.49	6651.80
461.67	6651.80
461.85	6619.04
462.04	6642.44
462.22	7061.40
462.40	6743.08
462.59	6644.78
462.77	6623.72
462.95	6764.15
463.13	6750.10
463.32	6796.92
463.50	6892.88
463.68	6825.00
463.86	6871.81
464.05	6602.65
464.23	6860.11
464.41	6822.66
464.59	6799.26
464.78	6995.86
464.96	7026.29
465.14	6710.32
465.32	6923.30
465.50	7033.31
465.69	7012.24
465.87	6834.36
466.05	7033.31
466.23	6974.80
466.41	7066.08
466.60	7204.17
466.78	7073.10
466.96	7033.31
467.14	7148.00
467.32	7129.27
467.51	7164.38
467.69	7133.95
467.87	7260.34
468.05	7311.83
468.23	7063.74
468.41	7150.34
468.60	7155.02
468.78	7377.37
468.96	7314.17
469.14	7384.39
469.32	7351.62
469.50	7241.62
469.69	7213.53
469.87	7485.03
470.05	7475.67
470.23	7691.00
470.41	7592.70
470.59	7655.89
470.77	7414.82
470.95	7637.17
471.14	7836.11
471.32	7651.21
471.50	7845.48
471.68	7681.64
471.86	7712.07
472.04	7761.22
472.22	8039.74
472.40	7789.30
472.58	7777.60
472.77	7999.95
472.95	8046.76
473.13	8360.39
473.31	7864.20
473.49	8170.81
473.67	7918.03
473.85	8154.43
474.03	8435.29
474.21	8524.23
474.39	8446.99
474.57	8264.43
474.75	8336.99
474.93	8608.49
475.12	8362.73
475.30	8596.79
475.48	8606.15
475.66	8559.34
475.84	8533.59
476.02	8814.46
476.20	8580.40
476.38	8748.92
476.56	9039.15
476.74	9076.60
476.92	8945.53
477.10	9022.77
477.28	9078.94
477.46	9156.18
477.64	9109.36
477.82	9200.65
478.00	9507.26
478.18	9296.61
478.36	9696.84
478.54	9624.28
478.72	9593.86
478.90	9860.68
479.08	9701.52
479.26	9865.36
479.44	9844.29
479.62	10050.26
479.80	9788.12
479.98	9926.21
480.16	10548.79
480.34	10324.10
480.52	10448.15
480.70	10382.62
480.88	10476.24
481.06	10225.80
481.24	10363.89
481.41	10450.49
481.59	10738.38
481.77	10747.74
481.95	10775.83
482.13	10974.77
482.31	10937.32
482.49	11552.88
482.67	11211.17
482.85	11410.11
483.03	11485.01
483.21	11456.92
483.39	11630.12
483.57	11508.41
483.74	11599.70
483.92	11669.91
484.10	11695.66
484.28	11871.20
484.46	12159.08
484.64	12278.45
484.82	12313.56
485.00	12453.99
485.18	12365.05
485.35	12800.39
485.53	12662.30
485.71	12903.37
485.89	12891.67
486.07	12865.92
486.25	12971.25
486.43	12961.89
486.61	13317.65
486.78	13179.56
486.96	13366.80
487.14	13378.50
487.32	13518.93
487.50	13570.43
487.68	13799.80
487.85	13792.78
488.03	13935.55
488.21	14335.78
488.39	14064.28
488.57	14359.19
488.75	14380.25
488.92	14408.34
489.10	14590.90
489.28	14668.14
489.46	14551.11
489.64	14736.01
489.81	14902.19
489.99	14946.66
490.17	15215.82
490.35	15454.56
490.53	15440.51
490.70	15412.43
490.88	15356.25
491.06	15740.10
491.24	15499.03
491.41	15737.76
491.59	16240.98
491.77	15936.71
491.95	16194.17
492.13	16137.99
492.30	16472.69
492.48	16290.13
492.66	16573.33
492.84	16257.36
493.01	16657.59
493.19	16421.20
493.37	17029.74
493.54	17050.80
493.72	17130.38
493.90	16922.07
494.08	17116.34
494.25	17771.69
494.43	17371.46
494.61	17479.12
494.79	17792.75
494.96	17535.29
495.14	17631.26
495.32	17673.39
495.49	18260.86
495.67	17708.49
495.85	18029.15
496.02	18129.79
496.20	18553.43
496.38	18284.26
496.55	18340.44
496.73	18984.09
496.91	18764.07
497.09	18956.00
497.26	18885.78
497.44	18820.25
497.62	18941.96
497.79	19040.26
497.97	19246.23
498.14	19421.77
498.32	19761.14
498.50	19323.46
498.67	19632.41
498.85	19372.61
499.03	19873.49
499.20	19836.04
499.38	19627.73
499.56	19995.20
499.73	20018.60
499.91	20121.59
500.08	20669.27
500.26	19899.23
500.44	20348.62
500.61	20790.98
500.79	20505.43
500.97	20472.67
501.14	20840.13
501.32	20816.72
501.49	20959.50
501.67	21006.31
501.84	21329.30
502.02	21156.10
502.20	21362.07
502.37	21076.52
502.55	21359.73
502.72	21216.96
502.90	21448.67
503.07	21223.98
503.25	21380.79
503.43	21481.44
503.60	21525.91
503.78	21544.63
503.95	21502.50
504.13	21755.28
504.30	21769.32
504.48	22082.95
504.65	22094.66
504.83	22197.64
505.01	22267.86
505.18	22352.12
505.36	22267.86
505.53	22092.32
505.71	22160.19
505.88	22490.21
506.06	22242.11
506.23	22515.95
506.41	22792.14
506.58	22443.40
506.76	22780.43
506.93	23049.60
507.11	23110.45
507.28	23351.52
507.46	22864.69
507.63	23246.20
507.81	23388.97
507.98	22728.94
508.16	23007.47
508.33	23412.38
508.50	23447.49
508.68	23700.26
508.85	24173.05
509.03	23477.91
509.20	23566.85
509.38	23868.78
509.55	24135.60
509.73	24102.84
509.90	24116.88
510.08	23931.98
510.25	24077.09
510.42	24175.39
510.60	24325.19
510.77	24299.44
510.95	24587.33
511.12	24453.92
511.30	24388.38
511.47	24900.96
511.64	24587.33
511.82	25104.59
511.99	24659.88
512.17	24903.30
512.34	24980.54
512.51	25104.59
512.69	25228.63
512.86	25001.60
513.04	25432.26
513.21	25427.58
513.38	25514.18
513.56	25549.29
513.73	25474.39
513.90	25612.48
514.08	25888.67
514.25	25881.64
514.43	26026.76
514.60	25944.84
514.77	25773.98
514.95	25933.14
515.12	26054.84
515.29	26436.35
515.47	26485.50
515.64	26286.56
515.81	26111.02
515.99	26022.08
516.16	26309.96
516.33	26518.27
516.51	26654.02
516.68	26923.18
516.85	26691.47
517.03	26876.37
517.20	26913.82
517.37	26747.64
517.54	26721.90
517.72	26852.97
517.89	26892.76
518.06	27019.14
518.24	27204.05
518.41	27433.42
518.58	27316.39
518.75	26944.25
518.93	26693.81
519.10	27005.10
519.27	27417.04
519.45	27374.91
519.62	27690.88
519.79	27590.24
519.96	27828.97
520.14	27543.42
520.31	27541.08
520.48	27548.11
520.65	27733.01
520.83	28016.21
521.00	27913.23
521.17	28318.14
521.34	28435.17
521.52	27798.54
521.69	28257.29
521.86	27957.70
522.03	28407.08
522.20	28301.76
522.38	28505.38
522.55	28577.94
522.72	28407.08
522.89	28297.08
523.07	28596.67
523.24	28517.09
523.41	28594.32
523.58	28964.13
523.75	28966.47
523.92	28919.66
524.10	28765.18
524.27	29186.48
524.44	28954.77
524.61	29003.92
524.78	28910.30
524.96	29364.36
525.13	29174.78
525.30	29729.48
525.47	29668.63
525.64	29509.47
525.81	29883.96
525.98	29495.43
526.16	29376.06
526.33	29741.19
526.50	29975.24
526.67	29472.03
526.84	29755.23
527.01	29890.98
527.18	29951.84
527.36	30178.87
527.53	30075.88
527.70	30307.60
527.87	29923.75
528.04	30178.87
528.21	30558.03
528.38	30628.25
528.55	30462.07
528.72	29998.65
528.89	30328.66
529.07	30293.55
529.24	29830.13
529.41	30670.38
529.58	30534.63
529.75	30419.94
529.92	30675.06
530.09	30649.32
530.26	30412.92
530.43	30808.47
530.60	30490.16
530.77	31152.53
530.94	30759.32
531.11	31105.72
531.28	30747.62
531.46	31314.03
531.63	31168.91
531.80	31168.91
531.97	31140.83
532.14	31435.74
532.31	31370.20
532.48	31330.41
532.65	31800.86
532.82	31002.74
532.99	30953.58
533.16	31318.71
533.33	31828.95
533.50	31461.48
533.67	31288.28
533.84	31473.18
534.01	31548.08
534.18	31672.13
534.35	31831.29
534.52	31639.36
534.69	32041.93
534.86	32027.89
535.03	31676.81
535.20	32229.18
535.37	31906.18
535.54	32507.70
535.71	32165.98
535.88	32271.31
536.05	32173.00
536.22	31969.38
536.38	32168.32
536.55	32430.46
536.72	32561.53
536.89	32299.39
537.06	32500.68
537.23	32823.67
537.40	32278.33
537.57	32458.55
537.74	32627.07
537.91	32514.72
538.08	32947.72
538.25	32573.24
538.42	32542.81
538.59	32989.85
538.75	32781.54
538.92	32706.65
539.09	33024.96
539.26	32811.97
539.43	32893.89
539.60	33261.35
539.77	33340.93
539.94	33530.51
540.11	33514.13
540.28	33504.77
540.44	33413.49
540.61	33397.10
540.78	33141.99
540.95	33677.97
541.12	33603.07
541.29	33818.40
541.46	33673.29
541.62	33759.89
541.79	33860.53
541.96	33638.18
542.13	33687.33
542.30	34099.26
542.47	33926.07
542.63	34220.97
542.80	33996.28
542.97	34330.98
543.14	34148.42
543.31	34714.83
543.48	34539.29
543.64	34270.12
543.81	34855.26
543.98	34724.19
544.15	34536.94
544.32	34955.90
544.48	34876.32
544.65	34518.22
544.82	35021.44
544.99	34855.26
545.16	34813.13
545.32	34824.83
545.49	35515.29
545.66	35484.86
545.83	35601.89
546.00	35976.37
546.16	35653.38
546.33	35541.03
546.50	34799.08
546.67	35278.89
546.83	34609.50
547.00	35000.37
547.17	34785.04
547.34	34859.94
547.50	35152.51
547.67	35257.83
547.84	35388.90
548.00	35718.92
548.17	35704.87
548.34	35042.50
548.51	35185.27
548.67	35332.73
548.84	35351.45
549.01	35229.74
549.18	35653.38
549.34	35622.95
549.51	35494.22
549.68	35681.47
549.84	35711.89
550.01	35548.06
550.18	34951.22
550.34	35632.32
550.51	35316.34
550.68	35824.24
550.84	35524.65
551.01	35716.58
551.18	35367.84
551.34	35468.48
551.51	35959.99
551.68	36060.63
551.84	35662.74
552.01	35445.07
552.18	35601.89
552.34	35941.27
552.51	35625.29
552.68	35690.83
552.84	35639.34
553.01	36198.73
553.18	35770.41
553.34	36252.56
553.51	36020.84
553.67	36163.62
553.84	36074.68
554.01	36189.36
554.17	36051.27
554.34	35704.87
554.51	36421.08
554.67	36554.49
554.84	36245.54
555.00	36048.93
555.17	35934.24
555.33	35967.01
555.50	35716.58
555.67	36123.83
555.83	36503.00
556.00	36549.81
556.16	36903.23
556.33	36601.30
556.50	36397.67
556.66	36336.82
556.83	36135.53
556.99	36156.60
557.16	36730.03
557.32	36753.43
557.49	36903.23
557.65	36432.78
557.82	36465.55
557.98	36392.99
558.15	36528.74
558.32	36795.56
558.48	36856.42
558.65	36732.37
558.81	36126.17
558.98	36912.59
559.14	36851.73
559.31	36563.85
559.47	36786.20
559.64	36926.63
559.80	36615.34
559.97	37067.06
560.13	36814.29
560.30	36793.22
560.46	37165.37
560.63	37244.94
560.79	37394.74
560.96	37015.57
561.12	37081.11
561.29	36938.33
561.45	37406.44
561.61	36999.19
561.78	37312.82
561.94	37165.37
562.11	37036.64
562.27	37319.84
562.44	37380.70
562.60	37471.98
562.77	37163.03
562.93	37464.96
563.10	37156.00
563.26	37408.78
563.42	37193.45
563.59	37537.51
563.75	37031.96
563.92	37567.94
564.08	37532.83
564.24	37668.58
564.41	37118.56
564.57	37390.06
564.74	37450.91
564.90	37926.04
565.07	37610.07
565.23	37317.50
565.39	37556.24
565.56	37565.60
565.72	37516.45
565.88	37794.97
566.05	37663.90
566.21	37401.76
566.38	37172.39
566.54	37741.14
566.70	37488.36
566.87	38052.43
567.03	37982.21
567.19	38040.73
567.36	37752.84
567.52	37841.78
567.68	37837.10
567.85	37474.32
568.01	38024.34
568.17	37865.19
568.34	37736.46
568.50	37722.41
568.66	37951.79
568.83	37839.44
568.99	37790.29
569.15	38094.56
569.32	37661.56
569.48	37713.05
569.64	37984.55
569.81	38115.62
569.97	37450.91
570.13	37464.96
570.30	37827.74
570.46	37848.80
570.62	37521.13
570.78	38050.09
570.95	38007.96
571.11	38223.29
571.27	37853.48
571.43	37970.51
571.60	37574.96
571.76	37736.46
571.92	38068.81
572.09	38117.96
572.25	38504.15
572.41	38150.73
572.57	38487.77
572.74	38469.04
572.90	38031.36
573.06	37818.38
573.22	37975.19
573.38	38190.52
573.55	38380.10
573.71	38656.29
573.87	38272.44
574.03	38206.90
574.20	38312.23
574.36	37696.67
574.52	37979.87
574.68	37881.57
574.84	38057.11
575.01	37834.76
575.17	38139.03
575.33	38146.05
575.49	38024.34
575.65	38211.59
575.82	38391.81
575.98	38494.79
576.14	38653.95
576.30	38506.49
576.46	37996.26
576.62	38342.66
576.79	37914.34
576.95	38288.82
577.11	38429.26
577.27	38251.38
577.43	38763.95
577.59	38022.00
577.75	38216.27
577.92	38024.34
578.08	38389.47
578.24	38438.62
578.40	38490.11
578.56	38895.02
578.72	38295.85
578.88	38782.68
579.04	38909.07
579.21	38761.61
579.37	38253.72
579.53	38335.63
579.69	38295.85
579.85	38705.44
580.01	38462.02
580.17	38382.45
580.33	38691.40
580.49	38841.19
580.65	38684.37
580.82	38546.28
580.98	38167.12
581.14	38263.08
581.30	38801.40
581.46	38522.88
581.62	38572.03
581.78	38216.27
581.94	38572.03
582.10	37944.76
582.26	38071.15
582.42	37928.38
582.58	37993.92
582.74	38169.46
582.90	38625.86
583.06	38033.71
583.22	38471.39
583.38	38209.25
583.54	38246.69
583.70	38220.95
583.86	38539.26
584.02	38312.23
584.18	38780.34
584.34	38717.14
584.50	38513.52
584.66	38436.28
584.82	38429.26
584.98	38178.82
585.14	38597.77
585.30	38522.88
585.46	38639.90
585.62	38389.47
585.78	38504.15
585.94	38253.72
586.10	38918.43
586.26	38906.73
586.42	38841.19
586.58	38993.32
586.74	38466.70
586.90	38576.71
587.06	38237.33
587.22	38923.11
587.38	38103.92
587.54	38855.23
587.70	39353.77
587.86	39079.92
588.02	39068.22
588.18	38995.67
588.34	38740.55
588.49	38682.03
588.65	39030.77
588.81	38653.95
588.97	38843.53
589.13	38679.69
589.29	38902.04
589.45	38941.83
589.61	38885.66
589.77	38995.67
589.93	38756.93
590.08	38862.26
590.24	38892.68
590.40	38834.17
590.56	38408.19
590.72	38766.29
590.88	38504.15
591.04	38698.42
591.20	38934.81
591.35	39274.19
591.51	39864.00
591.67	39545.69
591.83	39108.01
591.99	39166.52
592.15	39171.21
592.31	38885.66
592.46	38721.82
592.62	39042.48
592.78	39091.63
592.94	39147.80
593.10	39077.58
593.26	39150.14
593.41	39140.78
593.57	39056.52
593.73	39040.14
593.89	39627.61
594.05	39084.61
594.20	38799.06
594.36	38899.70
594.52	38616.50
594.68	39189.93
594.84	38536.92
594.99	39321.00
595.15	38911.41
595.31	39239.08
595.47	39360.79
595.62	38946.51
595.78	39110.35
595.94	39086.95
596.10	39089.29
596.25	38885.66
596.41	38962.90
596.57	39159.50
596.73	39070.56
596.88	38827.15
597.04	39143.12
597.20	38948.85
597.36	39264.83
597.51	39311.64
597.67	39484.84
597.83	39089.29
597.99	39299.94
598.14	39688.46
598.30	39124.40
598.46	39248.44
598.61	39435.69
598.77	38707.78
598.93	39201.63
599.09	38845.87
599.24	39955.29
599.40	39250.78
599.56	39271.85
599.71	39402.92
599.87	39234.40
600.03	39580.80
600.18	39695.49
600.34	39346.75
600.50	39379.51
600.65	39189.93
600.81	39459.09
600.97	39295.25
601.12	39629.95
601.28	39433.35
601.44	39440.37
601.59	39143.12
601.75	38876.30
601.91	39140.78
602.06	39002.69
602.22	39077.58
602.37	39335.04
602.53	39353.77
602.69	39257.81
602.84	39201.63
603.00	39185.25
603.16	39108.01
603.31	39285.89
603.47	39477.82
603.62	39250.78
603.78	38934.81
603.94	39597.18
604.09	38780.34
604.25	39185.25
604.40	39323.34
604.56	38916.09
604.71	39386.54
604.87	39196.95
605.03	39533.99
605.18	38986.30
605.34	38930.13
605.49	39049.50
605.65	38972.26
605.80	38747.57
605.96	39318.66
606.12	39332.70
606.27	39529.31
606.43	39213.34
606.58	39438.03
606.74	39180.57
606.89	39321.00
607.05	39433.35
607.20	39100.99
607.36	39079.92
607.51	39381.85
607.67	38932.47
607.82	39440.37
607.98	39246.10
608.13	38937.15
608.29	38911.41
608.44	39028.43
608.60	39215.68
608.75	39512.92
608.91	38869.28
609.06	38717.14
609.22	39236.74
609.37	38754.59
609.53	38653.95
609.68	38897.36
609.84	39009.71
609.99	39194.61
610.15	38810.76
610.30	39187.59
610.46	39281.21
610.61	39370.15
610.76	39543.35
610.92	40194.02
611.07	39784.43
611.23	39789.11
611.38	39667.40
611.54	40240.83
611.69	40016.14
611.84	39831.24
612.00	39817.19
612.15	39353.77
612.31	39337.38
612.46	39276.53
612.62	39173.55
612.77	39147.80
612.92	39285.89
613.08	39002.69
613.23	39005.03
613.39	38904.38
613.54	38691.40
613.69	39077.58
613.85	39091.63
614.00	38988.64
614.15	38838.85
614.31	39171.21
614.46	39178.23
614.62	38649.27
614.77	38740.55
614.92	38813.10
615.08	38139.03
615.23	38586.07
615.38	38541.60
615.54	38230.31
615.69	38326.27
615.84	38588.41
616.00	38124.99
616.15	38075.84
616.30	38288.82
616.46	38007.96
616.61	38459.68
616.76	38195.20
616.92	37853.48
617.07	38433.94
617.22	38436.28
617.37	37701.35
617.53	38288.82
617.68	38089.88
617.83	37886.25
617.99	38101.58
618.14	38450.32
618.29	38267.76
618.45	38366.06
618.60	37813.70
618.75	37553.90
618.90	37535.17
619.06	37560.92
619.21	37481.34
619.36	37816.04
619.51	37830.08
619.67	37542.19
619.82	37771.57
619.97	37979.87
620.12	37919.02
620.28	37900.29
620.43	38096.90
620.58	37619.43
620.73	37984.55
620.89	37574.96
621.04	38007.96
621.19	37333.89
621.34	37549.21
621.49	37179.41
621.65	37736.46
621.80	37633.47
621.95	37876.89
622.10	37656.88
622.25	37397.08
622.41	37872.21
622.56	37572.62
622.71	37684.97
622.86	37647.52
623.01	37301.12
623.16	36989.83
623.32	36797.90
623.47	37209.84
623.62	37240.26
623.77	37275.37
623.92	37469.64
624.07	37605.39
624.23	37607.73
624.38	37249.63
624.53	37331.54
624.68	37326.86
624.83	37172.39
624.98	37055.36
625.13	37017.91
625.29	37125.58
625.44	37195.79
625.59	36903.23
625.74	36598.96
625.89	36858.76
626.04	37017.91
626.19	36849.39
626.34	36610.66
626.49	36802.58
626.65	36938.33
626.80	36980.46
626.95	36664.49
627.10	36275.96
627.25	36720.66
627.40	36507.68
627.55	36594.28
627.70	36790.88
627.85	36999.19
628.00	36392.99
628.15	36746.41
628.30	36102.76
628.45	36678.54
628.60	36198.73
628.76	36517.04
628.91	36004.46
629.06	36425.76
629.21	36741.73
629.36	35889.77
629.51	35999.78
629.66	36086.38
629.81	36121.49
629.96	36343.84
630.11	35952.97
630.26	36369.58
630.41	36648.11
630.56	36212.77
630.71	36657.47
630.86	36449.16
631.01	36116.81
631.16	36896.20
631.31	35796.15
631.46	36084.04
631.61	36280.64
631.76	36222.13
631.91	36013.82
632.06	35679.13
632.21	35660.40
632.36	35545.72
632.51	35716.58
632.66	36020.84
632.81	35756.36
632.96	35903.82
633.10	35906.16
633.25	35714.23
633.40	35742.32
633.55	35976.37
633.70	35459.12
633.85	35679.13
634.00	35501.25
634.15	35959.99
634.30	35730.62
634.45	35524.65
634.60	35929.56
634.75	35955.31
634.90	35536.35
635.05	35756.36
635.19	34998.03
635.34	35290.60
635.49	35690.83
635.64	35157.19
635.79	35386.56
635.94	35267.19
636.09	35026.12
636.24	35442.73
636.39	35365.49
636.53	35564.44
636.68	34998.03
636.83	35175.91
636.98	35770.41
637.13	35494.22
637.28	35620.61
637.43	35051.86
637.57	34939.52
637.72	34885.68
637.87	35393.58
638.02	35213.36
638.17	34998.03
638.32	34574.39
638.46	34677.38
638.61	34810.79
638.76	34841.21
638.91	34677.38
639.06	35021.44
639.20	35686.15
639.35	35204.00
639.50	34810.79
639.65	35143.14
639.80	34595.46
639.94	34562.69
640.09	34293.53
640.24	34616.52
640.39	34703.12
640.54	34595.46
640.68	34581.42
640.83	34632.91
640.98	34162.46
641.13	34340.34
641.27	34710.14
641.42	34440.98
641.57	34195.23
641.72	34480.77
641.86	34323.96
642.01	34022.03
642.16	34246.72
642.31	34284.17
642.45	34103.95
642.60	34031.39
642.75	34349.70
642.90	34309.91
643.04	33738.82
643.19	34089.90
643.34	34665.67
643.48	34436.30
643.63	34319.28
643.78	34377.79
643.93	34010.32
644.07	34117.99
644.22	33914.36
644.37	33614.77
644.51	34000.96
644.66	34003.30
644.81	33846.49
644.95	34251.40
645.10	33956.49
645.25	34132.03
645.39	34197.57
645.54	33912.02
645.69	34160.12
645.83	34429.28
645.98	33769.25
646.13	34017.35
646.27	34319.28
646.42	34235.02
646.57	34108.63
646.71	33982.24
646.86	33722.44
647.00	33806.70
647.15	34288.85
647.30	33947.13
647.44	33888.62
647.59	33867.55
647.74	33876.91
647.88	34326.30
648.03	33357.32
648.17	33088.15
648.32	33298.80
648.47	33502.43
648.61	33453.28
648.76	33418.17
648.90	33699.03
649.05	33457.96
649.20	33371.36
649.34	33876.91
649.49	33624.14
649.63	34092.24
649.78	33844.15
649.92	33509.45
650.07	33385.40
650.21	33806.70
650.36	32926.66
650.51	33429.87
650.65	33064.75
650.80	33530.51
650.94	33228.59
651.09	33263.69
651.23	33354.97
651.38	33263.69
651.52	32746.44
651.67	33104.54
651.81	32914.95
651.96	33373.70
652.10	33359.66
652.25	33141.99
652.39	33022.62
652.54	32884.53
652.68	32184.71
652.83	32308.76
652.97	33223.90
653.12	32676.22
653.26	32999.21
653.41	33228.59
653.55	33062.41
653.70	33099.86
653.84	32481.95
653.99	32783.88
654.13	32811.97
654.27	32694.94
654.42	32755.80
654.56	32807.29
654.71	32725.37
654.85	32964.10
655.00	32727.71
655.14	32123.85
655.29	32212.79
655.43	32334.50
655.57	32070.02
655.72	32245.56
655.86	32357.91
656.01	32364.93
656.15	32266.63
656.30	32245.56
656.44	32793.25
656.58	32587.28
656.73	32439.82
656.87	31857.03
657.01	32135.56
657.16	32189.39
657.30	32327.48
657.45	32350.88
657.59	32137.90
657.73	31922.57
657.88	31859.37
658.02	31835.97
658.16	31955.33
658.31	32329.82
658.45	32271.31
658.60	32100.45
658.74	31498.93
658.88	31648.72
659.03	32105.13
659.17	31665.11
659.31	31618.30
659.46	31283.60
659.60	31424.03
659.74	31800.86
659.89	31372.54
660.03	31534.04
660.17	32030.23
660.32	31115.08
660.46	31367.86
660.60	31407.65
660.74	31309.35
660.89	31110.40
661.03	31211.04
661.17	31704.90
661.32	31215.72
661.46	31417.01
661.60	30974.65
661.74	30965.29
661.89	30932.52
662.03	30848.26
662.17	30576.76
662.31	30850.60
662.46	30899.75
662.60	30831.88
662.74	30756.98
662.88	30864.64
663.03	30864.64
663.17	30831.88
663.31	30480.80
663.45	30618.89
663.60	30761.66
663.74	30820.17
663.88	30644.63
664.02	30389.52
664.17	30438.67
664.31	29977.58
664.45	30274.83
664.59	30211.64
664.73	30235.04
664.88	30031.41
665.02	30335.68
665.16	30338.02
665.30	30335.68
665.44	29895.66
665.59	29663.95
665.73	30167.16
665.87	29722.46
666.01	30127.38
666.15	29993.97
666.29	29624.16
666.44	29682.67
666.58	29352.66
666.72	29195.84
666.86	29577.35
667.00	29563.31
667.14	29546.92
667.28	29584.37
667.43	29640.54
667.57	29701.40
667.71	29465.00
667.85	29490.75
667.99	28919.66
668.13	28971.15
668.27	29177.12
668.41	29151.37
668.56	28992.22
668.70	28943.06
668.84	28615.39
668.98	28938.38
669.12	28830.72
669.26	28573.26
669.40	28961.79
669.54	28573.26
669.68	28489.00
669.82	28435.17
669.96	28725.39
670.10	28407.08
670.25	28664.54
670.39	28393.04
670.53	28456.23
670.67	28175.37
670.81	28556.88
670.95	28318.14
671.09	28023.23
671.23	27871.10
671.37	28456.23
671.51	28400.06
671.65	28484.32
671.79	27840.67
671.93	28037.28
672.07	28404.74
672.21	27513.00
672.35	27644.07
672.49	28135.58
672.63	27840.67
672.77	27826.63
672.91	27573.85
673.05	27384.27
673.19	27463.85
673.33	27049.57
673.47	27056.59
673.61	27009.78
673.75	27140.85
673.89	26965.31
674.03	26815.52
674.17	27597.26
674.31	27009.78
674.45	27040.21
674.59	27014.46
674.73	27021.48
674.87	27213.41
675.01	26544.02
675.15	26527.63
675.29	26988.72
675.43	26815.52
675.56	26443.37
675.70	26621.25
675.84	26494.86
675.98	25560.99
676.12	25979.95
676.26	26274.85
676.40	26403.58
676.54	25993.99
676.68	26026.76
676.82	25893.35
676.96	25872.28
677.10	26267.83
677.23	25741.21
677.37	25898.03
677.51	25556.31
677.65	25603.12
677.79	25214.59
677.93	25493.12
678.07	24900.96
678.21	24982.88
678.34	24847.13
678.48	25013.31
678.62	24819.04
678.76	25043.73
678.90	25113.95
679.04	24917.34
679.18	24641.16
679.31	24428.17
679.45	24442.21
679.59	24762.87
679.73	24669.25
679.87	24704.35
680.00	24116.88
680.14	24116.88
680.28	24212.84
680.42	23908.57
680.56	23782.18
680.70	24009.22
680.83	23473.23
680.97	23667.50
681.11	23775.16
681.25	23711.97
681.39	23763.46
681.52	23594.94
681.66	23850.06
681.80	23538.77
681.94	23157.26
682.07	23234.50
682.21	23445.15
682.35	23264.92
682.49	23271.95
682.62	23051.94
682.76	22960.66
682.90	22974.70
683.04	22766.39
683.17	22658.73
683.31	22794.48
683.45	22937.25
683.59	22478.50
683.72	22277.22
683.86	22504.25
684.00	22541.70
684.13	22398.93
684.27	22080.61
684.41	22136.79
684.55	22148.49
684.68	21706.13
684.82	21626.55
684.96	21736.56
685.09	21994.01
685.23	21809.11
685.37	21963.59
685.50	21696.77
685.64	21647.61
685.78	21703.79
685.91	21458.03
686.05	21502.50
686.19	21221.64
686.32	21186.53
686.46	20812.04
686.60	21025.03
686.73	21401.86
686.87	21483.78
687.01	21001.63
687.14	20971.20
687.28	20489.05
687.42	20685.65
687.55	20456.28
687.69	20554.58
687.82	20088.82
687.96	20355.64
688.10	20191.80
688.23	20269.04
688.37	20276.06
688.50	19957.75
688.64	19967.11
688.78	19899.23
688.91	19864.13
689.05	19999.88
689.18	19866.47
689.32	19625.39
689.46	19449.85
689.59	19630.07
689.73	19625.39
689.86	19499.00
690.00	19433.47
690.13	19454.53
690.27	19522.41
690.41	19192.39
690.54	18530.02
690.68	18853.02
690.81	19061.32
690.95	18913.87
691.08	18890.46
691.22	18511.30
691.35	18515.98
691.49	18647.05
691.62	18328.74
691.76	18527.68
691.89	18555.77
692.03	18590.88
692.16	18417.68
692.30	18185.96
692.43	18038.51
692.57	18054.89
692.70	17951.91
692.84	17802.11
692.97	17862.97
693.11	17891.06
693.24	17558.70
693.38	17757.64
693.51	17383.16
693.65	17708.49
693.78	17900.42
693.92	17633.60
694.05	17394.86
694.19	17497.84
694.32	17752.96
694.45	17301.24
694.59	17408.90
694.72	17436.99
694.86	16772.28
694.99	16336.94
695.13	16563.97
695.26	16847.18
695.39	16783.98
695.53	16596.74
695.66	16479.71
695.80	16320.56
695.93	16212.89
696.07	16432.90
696.20	16442.26
696.33	16383.75
696.47	16088.84
696.60	16074.80
696.73	16133.31
696.87	16105.23
697.00	15819.68
697.14	15637.12
697.27	15730.74
697.40	15543.50
697.54	15510.73
697.67	15410.09
697.80	15770.53
697.94	15194.76
698.07	15136.24
698.21	15257.95
698.34	15262.63
698.47	14972.41
698.61	14839.00
698.74	15000.49
698.87	15159.65
699.01	15002.83
699.14	15047.30
699.27	15014.54
699.40	14862.40
699.54	14913.89
699.67	14576.86
699.80	14785.16
699.94	14434.08
700.07	14281.95
700.20	14207.05
700.34	14209.39
700.47	14342.80
700.60	14246.84
700.73	14190.67
700.87	14214.07
701.00	13926.19
701.13	13898.10
701.26	13652.34
701.40	13830.23
701.53	13694.47
701.66	13455.74
701.79	13675.75
701.93	13905.12
702.06	13804.48
702.19	13568.09
702.32	13713.20
702.46	13554.04
702.59	13158.49
702.72	13181.90
702.85	13240.41
702.99	12959.55
703.12	12980.61
703.25	12823.80
703.38	13111.68
703.51	13067.21
703.65	12898.69
703.78	12903.37
703.91	12821.45
704.04	12886.99
704.17	12744.22
704.31	12372.07
704.44	12571.02
704.57	12507.82
704.70	12407.18
704.83	12285.47
704.96	12161.42
705.10	12180.15
705.23	11946.09
>>>>>End Processed Spectral Data<<<<<
