SpectraSuite Data File
++++++++++++++++++++++++++++++++++++
Date: Thu Oct 24 13:21:17 EDT 2013
User: stostad
Dark Spectrum Present: No
Reference Spectrum Present: No
Number of Sampled Component Spectra: 1
Spectrometers: USB2+H05261
Integration Time (usec): 100000 (USB2+H05261)
Spectra Averaged: 1 (USB2+H05261)
Boxcar Smoothing: 0 (USB2+H05261)
Correct for Electrical Dark: No (USB2+H05261)
Strobe/Lamp Enabled: No (USB2+H05261)
Correct for Detector Non-linearity: No (USB2+H05261)
Correct for Stray Light: No (USB2+H05261)
Number of Pixels in Processed Spectrum: 2048
>>>>>Begin Processed Spectral Data<<<<<
365.73	592.16
365.92	592.16
366.12	592.16
366.32	496.19
366.52	472.79
366.72	540.66
366.91	437.68
367.11	477.47
367.31	440.02
367.51	421.30
367.70	444.70
367.90	435.34
368.10	433.00
368.30	430.66
368.49	414.27
368.69	521.94
368.89	440.02
369.09	479.81
369.28	447.04
369.48	538.32
369.68	479.81
369.87	559.39
370.07	543.00
370.27	575.77
370.47	545.34
370.66	755.99
370.86	812.17
371.06	793.44
371.25	812.17
371.45	807.48
371.65	877.70
371.84	833.23
372.04	777.06
372.24	847.27
372.44	957.28
372.63	823.87
372.83	854.30
373.03	896.43
373.22	887.06
373.42	868.34
373.62	891.74
373.81	971.32
374.01	936.21
374.21	945.58
374.40	910.47
374.60	884.72
374.79	943.24
374.99	908.13
375.19	898.77
375.38	936.21
375.58	940.90
375.78	978.34
375.97	933.87
376.17	933.87
376.37	929.19
376.56	887.06
376.76	1027.50
376.95	973.66
377.15	992.39
377.35	922.17
377.54	1074.31
377.74	915.15
377.93	1006.43
378.13	976.00
378.33	983.02
378.52	992.39
378.72	933.87
378.91	954.94
379.11	976.00
379.31	919.83
379.50	936.21
379.70	1004.09
379.89	1036.86
380.09	992.39
380.28	1053.24
380.48	1034.52
380.68	1006.43
380.87	1034.52
381.07	1086.01
381.26	1036.86
381.46	999.41
381.65	1025.15
381.85	1064.94
382.04	1076.65
382.24	1093.03
382.43	1053.24
382.63	1025.15
382.83	1081.33
383.02	1041.54
383.22	1076.65
383.41	1013.45
383.61	1125.80
383.80	1102.39
384.00	1041.54
384.19	1116.44
384.39	1020.47
384.58	1111.75
384.78	1109.41
384.97	1135.16
385.17	1006.43
385.36	1048.56
385.56	1078.99
385.75	1076.65
385.95	1130.48
386.14	1118.78
386.34	1240.48
386.53	1252.19
386.72	1156.22
386.92	1109.41
387.11	1217.08
387.31	1165.59
387.50	1111.75
387.70	1146.86
387.89	1174.95
388.09	1203.04
388.28	1144.52
388.48	1149.20
388.67	1165.59
388.86	1137.50
389.06	1210.06
389.25	1174.95
389.45	1196.01
389.64	1188.99
389.84	1242.82
390.03	1165.59
390.22	1268.57
390.42	1268.57
390.61	1205.38
390.81	1238.14
391.00	1289.64
391.19	1289.64
391.39	1327.08
391.58	1303.68
391.78	1268.57
391.97	1284.95
392.16	1296.66
392.36	1341.13
392.55	1310.70
392.75	1310.70
392.94	1299.00
393.13	1352.83
393.33	1329.42
393.52	1299.00
393.71	1406.66
393.91	1359.85
394.10	1331.76
394.29	1350.49
394.49	1364.53
394.68	1383.26
394.88	1392.62
395.07	1390.28
395.26	1413.68
395.46	1385.60
395.65	1406.66
395.84	1439.43
396.04	1526.03
396.23	1451.13
396.42	1401.98
396.62	1483.90
396.81	1603.27
397.00	1537.73
397.19	1500.28
397.39	1448.79
397.58	1504.96
397.77	1465.18
397.97	1460.49
398.16	1507.30
398.35	1446.45
398.55	1577.52
398.74	1493.26
398.93	1706.25
399.12	1612.63
399.32	1582.20
399.51	1584.54
399.70	1570.50
399.90	1563.48
400.09	1582.20
400.28	1706.25
400.47	1687.53
400.67	1650.08
400.86	1593.90
401.05	1746.04
401.24	1626.67
401.44	1708.59
401.63	1727.32
401.82	1804.55
402.01	1764.76
402.21	1664.12
402.40	1720.29
402.59	1673.48
402.78	1661.78
402.97	1701.57
403.17	1762.42
403.36	1809.23
403.55	1797.53
403.74	1783.49
403.93	1820.94
404.13	1834.98
404.32	1823.28
404.51	1846.68
404.70	1881.79
404.89	1867.75
405.09	1837.32
405.28	1891.15
405.47	1863.07
405.66	1870.09
405.85	1933.28
406.05	1891.15
406.24	2017.54
406.43	1900.52
406.62	2019.88
406.81	2078.40
407.00	1954.35
407.20	1926.26
407.39	2118.18
407.58	2165.00
407.77	2059.67
407.96	2085.42
408.15	2073.71
408.34	2036.27
408.54	2139.25
408.73	2083.08
408.92	2127.55
409.11	2125.21
409.30	2120.53
409.49	2150.95
409.68	2190.74
409.87	2221.17
410.07	2249.25
410.26	2244.57
410.45	2223.51
410.64	2214.15
410.83	2298.41
411.02	2244.57
411.21	2361.60
411.40	2342.88
411.59	2480.97
411.78	2366.28
411.98	2385.01
412.17	2326.49
412.36	2401.39
412.55	2443.52
412.74	2532.46
412.93	2492.67
413.12	2377.98
413.31	2548.84
413.50	2523.10
413.69	2509.05
413.88	2572.25
414.07	2647.15
414.26	2469.27
414.45	2635.44
414.64	2712.68
414.83	2672.89
415.02	2848.43
415.22	2752.47
415.41	2722.04
415.60	2665.87
415.79	2785.24
415.98	2768.85
416.17	2850.77
416.36	2722.04
416.55	2754.81
416.74	2745.45
416.93	2764.17
417.12	2918.65
417.31	3016.95
417.50	2965.46
417.69	3122.27
417.88	2979.50
418.07	2977.16
418.26	2946.73
418.45	3068.44
418.64	3054.40
418.83	3133.98
419.02	3243.98
419.21	3187.81
419.39	3133.98
419.58	3094.19
419.77	3183.13
419.96	3255.69
420.15	3297.81
420.34	3258.03
420.53	3222.92
420.72	3377.39
420.91	3073.12
421.10	3255.69
421.29	3328.24
421.48	3286.11
421.67	3311.86
421.86	3281.43
422.05	3283.77
422.24	3173.77
422.43	3365.69
422.61	3316.54
422.80	3522.51
422.99	3496.76
423.18	3456.97
423.37	3494.42
423.56	3375.05
423.75	3435.91
423.94	3295.47
424.13	3145.68
424.32	3283.77
424.50	3330.58
424.69	3583.36
424.88	3304.84
425.07	3485.06
425.26	3421.86
425.45	3297.81
425.64	3386.76
425.83	3487.40
426.01	3297.81
426.20	3452.29
426.39	3452.29
426.58	3417.18
426.77	3513.14
426.96	3597.40
427.15	3468.67
427.33	3611.45
427.52	3499.10
427.71	3599.74
427.90	3669.96
428.09	3609.11
428.28	3644.21
428.46	3660.60
428.65	3662.94
428.84	3679.32
429.03	3744.86
429.22	3604.42
429.40	3712.09
429.59	3667.62
429.78	3627.83
429.97	3492.08
430.16	3747.20
430.34	3744.86
430.53	3887.63
430.72	3712.09
430.91	3798.69
431.10	3918.06
431.28	3955.51
431.47	4063.17
431.66	4114.66
431.85	3791.67
432.03	4018.70
432.22	4004.66
432.41	3976.57
432.60	3911.04
432.79	3918.06
432.97	4072.53
433.16	3927.42
433.35	3906.35
433.54	4007.00
433.72	3999.98
433.91	4128.70
434.10	4117.00
434.28	4074.87
434.47	4166.15
434.66	4147.43
434.85	4222.33
435.03	4262.12
435.22	4404.89
435.41	4542.98
435.59	4521.92
435.78	4578.09
435.97	4432.97
436.16	4404.89
436.34	4383.82
436.53	4390.84
436.72	4339.35
436.90	4379.14
437.09	4393.19
437.28	4299.56
437.46	4517.23
437.65	4348.72
437.84	4461.06
438.02	4465.74
438.21	4440.00
438.40	4421.27
438.58	4400.21
438.77	4542.98
438.96	4554.68
439.14	4746.61
439.33	4645.96
439.52	4582.77
439.70	4828.53
439.89	4865.97
440.08	4683.41
440.26	4926.83
440.45	4856.61
440.63	4851.93
440.82	4954.91
441.01	4798.10
441.19	5022.79
441.38	4910.44
441.57	4940.87
441.75	5109.39
441.94	5074.28
442.12	5116.41
442.31	5156.20
442.50	5081.30
442.68	5095.35
442.87	5343.44
443.05	5425.36
443.24	5270.89
443.43	5242.80
443.61	5313.02
443.80	5401.96
443.98	5195.99
444.17	5163.22
444.35	5425.36
444.54	5453.45
444.73	5355.15
444.91	5401.96
445.10	5240.46
445.28	5362.17
445.47	5280.25
445.65	5313.02
445.84	5448.77
446.02	5416.00
446.21	5497.92
446.39	5376.21
446.58	5355.15
446.77	5490.90
446.95	5308.34
447.14	5432.38
447.32	5462.81
447.51	5465.15
447.69	5439.40
447.88	5362.17
448.06	5549.41
448.25	5645.37
448.43	5511.96
448.62	5535.37
448.80	5521.32
448.99	5518.98
449.17	5741.33
449.36	5500.26
449.54	5731.97
449.73	5713.25
449.91	5809.21
450.10	5741.33
450.28	5722.61
450.46	5806.87
450.65	5746.02
450.83	5832.62
451.02	5640.69
451.20	5884.11
451.39	6022.20
451.57	5884.11
451.76	5753.04
451.94	5820.91
452.13	6054.97
452.31	6073.69
452.49	5942.62
452.68	6061.99
452.86	6076.03
453.05	6045.60
453.23	6078.37
453.42	5991.77
453.60	5898.15
453.78	5980.07
453.97	6061.99
454.15	6064.33
454.34	6134.54
454.52	6120.50
454.70	6179.01
454.89	6080.71
455.07	6265.61
455.26	6202.42
455.44	6314.77
455.62	6469.24
455.81	6310.08
455.99	6209.44
456.17	6609.67
456.36	6326.47
456.54	6427.11
456.73	6363.92
456.91	6623.72
457.09	6434.13
457.28	6576.91
457.46	6623.72
457.64	6738.40
457.83	6668.19
458.01	6661.16
458.19	6752.45
458.38	6644.78
458.56	6640.10
458.74	6696.27
458.93	6857.77
459.11	6619.04
459.29	6710.32
459.48	6815.64
459.66	6871.81
459.84	6813.30
460.03	6892.88
460.21	6956.07
460.39	6937.35
460.57	6829.68
460.76	6904.58
460.94	6920.96
461.12	6960.75
461.31	7089.48
461.49	7035.65
461.67	7091.82
461.85	7023.95
462.04	7096.50
462.22	7440.56
462.40	7344.60
462.59	7311.83
462.77	7243.96
462.95	7260.34
463.13	7173.74
463.32	7279.07
463.50	7531.84
463.68	7311.83
463.86	7506.10
464.05	7166.72
464.23	7276.73
464.41	7494.40
464.59	7363.33
464.78	7789.30
464.96	7585.68
465.14	7536.52
465.32	7613.76
465.50	7475.67
465.69	7592.70
465.87	7461.63
466.05	7456.95
466.23	7555.25
466.41	7639.51
466.60	7735.47
466.78	7578.65
466.96	7662.91
467.14	7735.47
467.32	7662.91
467.51	7763.56
467.69	7470.99
467.87	7786.96
468.05	7885.26
468.23	7648.87
468.41	7868.88
468.60	7932.08
468.78	7819.73
468.96	7829.09
469.14	8056.12
469.32	8077.19
469.50	7763.56
469.69	7997.61
469.87	8292.52
470.05	8131.02
470.23	8065.49
470.41	7990.59
470.59	8135.70
470.77	8126.34
470.95	8215.28
471.14	8425.93
471.32	8147.40
471.50	8381.46
471.68	8304.22
471.86	8423.59
472.04	8386.14
472.22	8594.45
472.40	8510.19
472.58	8449.33
472.77	8613.17
472.95	8507.85
473.13	8842.54
473.31	8631.90
473.49	8580.40
473.67	8638.92
473.85	8748.92
474.03	9088.30
474.21	8868.29
474.39	9109.36
474.57	9050.85
474.75	8980.64
474.93	9280.22
475.12	9221.71
475.30	9331.72
475.48	9144.47
475.66	9310.65
475.84	9357.46
476.02	9348.10
476.20	9177.24
476.38	9558.75
476.56	9666.41
476.74	9839.61
476.92	9654.71
477.10	9816.21
477.28	9839.61
477.46	10001.11
477.64	10052.60
477.82	9912.17
478.00	10279.63
478.18	10232.82
478.36	10228.14
478.54	10401.34
478.72	10483.26
478.90	10457.51
479.08	10513.69
479.26	10787.53
479.44	10628.37
479.62	10808.59
479.80	10846.04
479.98	11014.56
480.16	11375.00
480.34	10972.43
480.52	11297.77
480.70	11288.40
480.88	11346.92
481.06	11309.47
481.24	11302.45
481.41	11775.24
481.59	11693.32
481.77	11850.13
481.95	11817.36
482.13	11910.99
482.31	11859.49
482.49	12166.10
482.67	12222.28
482.85	12283.13
483.03	12617.83
483.21	12559.31
483.39	12505.48
483.57	12503.14
483.74	12655.28
483.92	12886.99
484.10	12685.70
484.28	13008.70
484.46	13067.21
484.64	13432.33
484.82	13118.70
485.00	13231.05
485.18	13626.60
485.35	13816.18
485.53	13755.33
485.71	13823.20
485.89	14026.83
486.07	13825.54
486.25	14022.15
486.43	14167.26
486.61	14359.19
486.78	14040.87
486.96	14595.58
487.14	14773.46
487.32	14698.56
487.50	14724.31
487.68	14939.64
487.85	15129.22
488.03	15204.12
488.21	15492.01
488.39	15199.44
488.57	15414.77
488.75	15637.12
488.92	15903.94
489.10	15836.06
489.28	16018.63
489.46	16210.55
489.64	16072.46
489.81	16322.90
489.99	16538.23
490.17	16479.71
490.35	16779.30
490.53	16982.93
490.70	16915.05
490.88	16957.18
491.06	17247.41
491.24	17434.65
491.41	17043.78
491.59	17266.13
491.77	17439.33
491.95	17479.12
492.13	17752.96
492.30	17654.66
492.48	17781.05
492.66	17633.60
492.84	17846.58
493.01	18237.45
493.19	18073.62
493.37	18036.17
493.54	18068.94
493.72	18934.93
493.90	18665.77
494.08	18869.40
494.25	19119.84
494.43	18815.57
494.61	19117.50
494.79	19049.62
494.96	18941.96
495.14	19335.17
495.32	19585.60
495.49	19606.67
495.67	19508.37
495.85	19721.35
496.02	19967.11
496.20	19969.45
496.38	20046.69
496.55	19969.45
496.73	20636.50
496.91	20421.17
497.09	20467.98
497.26	21010.99
497.44	21036.74
497.62	20521.82
497.79	21048.44
497.97	20783.96
498.14	21137.38
498.32	21039.08
498.50	21303.56
498.67	21432.29
498.85	21359.73
499.03	21420.58
499.20	21713.15
499.38	21975.29
499.56	21689.74
499.73	21982.31
499.91	22047.85
500.08	22429.35
500.26	21799.75
500.44	21963.59
500.61	22410.63
500.79	22181.26
500.97	22511.27
501.14	22738.30
501.32	22438.72
501.49	22773.41
501.67	23119.81
501.84	22780.43
502.02	22920.87
502.20	23051.94
502.37	23047.26
502.55	22991.08
502.72	23084.70
502.90	23201.73
503.07	23421.74
503.25	23510.68
503.43	23531.75
503.60	23597.28
503.78	23482.59
503.95	23515.36
504.13	23475.57
504.30	23885.17
504.48	24032.62
504.65	23789.20
504.83	24091.13
505.01	24353.27
505.18	24325.19
505.36	24247.95
505.53	24336.89
505.71	24669.25
505.88	24669.25
506.06	24538.18
506.23	24692.65
506.41	24629.46
506.58	24964.15
506.76	25074.16
506.93	25041.39
507.11	24779.25
507.28	25025.01
507.46	25291.83
507.63	25373.75
507.81	25827.81
507.98	25184.16
508.16	25280.13
508.33	25446.30
508.50	25790.36
508.68	25993.99
508.85	25830.15
509.03	25820.79
509.20	25874.62
509.38	25961.22
509.55	26176.55
509.73	26214.00
509.90	26504.23
510.08	26274.85
510.25	26260.81
510.42	26295.92
510.60	26649.34
510.77	26560.40
510.95	26904.46
511.12	26752.32
511.30	26867.01
511.47	26916.16
511.64	26848.29
511.82	27047.23
511.99	26934.88
512.17	27351.50
512.34	27576.19
512.51	27623.00
512.69	27407.67
512.86	27667.47
513.04	27683.86
513.21	27611.30
513.38	27718.96
513.56	27730.67
513.73	27910.89
513.90	28168.35
514.08	27967.06
514.25	28498.36
514.43	27915.57
514.60	28386.02
514.77	27831.31
514.95	28709.01
515.12	27936.63
515.29	27978.76
515.47	28753.48
515.64	28781.57
515.81	28540.49
515.99	28797.95
516.16	28804.97
516.33	28680.92
516.51	29160.73
516.68	29057.75
516.85	29083.50
517.03	29158.39
517.20	29207.55
517.37	29046.05
517.54	29371.38
517.72	28978.17
517.89	29338.62
518.06	29092.86
518.24	29252.02
518.41	29682.67
518.58	29926.09
518.75	29153.71
518.93	29656.93
519.10	29504.79
519.27	29841.83
519.45	29823.11
519.62	29715.44
519.79	29710.76
519.96	29816.08
520.14	29893.32
520.31	30136.74
520.48	30277.17
520.65	30192.91
520.83	30148.44
521.00	30555.69
521.17	30396.54
521.34	30457.39
521.52	30677.40
521.69	30462.07
521.86	30836.56
522.03	31016.78
522.20	30668.04
522.38	31199.34
522.55	31271.90
522.72	31267.22
522.89	30895.07
523.07	31639.36
523.24	30932.52
523.41	31234.45
523.58	31342.11
523.75	31505.95
523.92	31309.35
524.10	31754.05
524.27	31613.62
524.44	31578.51
524.61	31440.42
524.78	31782.13
524.96	31681.49
525.13	32119.17
525.30	32446.85
525.47	31908.52
525.64	32023.21
525.81	32554.51
525.98	32128.53
526.16	32278.33
526.33	32072.36
526.50	32341.52
526.67	32112.15
526.84	32334.50
527.01	32563.87
527.18	32470.25
527.36	32554.51
527.53	32563.87
527.70	33003.89
527.87	32584.94
528.04	32804.95
528.21	32837.72
528.38	32676.22
528.55	33102.20
528.72	33001.55
528.89	33242.63
529.07	32723.03
529.24	33083.47
529.41	33483.70
529.58	33280.08
529.75	33621.80
529.92	33436.89
530.09	33256.67
530.26	33472.00
530.43	33242.63
530.60	33235.61
530.77	33673.29
530.94	34092.24
531.11	33713.08
531.28	33816.06
531.46	33935.43
531.63	34366.09
531.80	33699.03
531.97	33883.94
532.14	33862.87
532.31	33741.16
532.48	34352.04
532.65	34244.38
532.82	34148.42
532.99	33996.28
533.16	33902.66
533.33	33951.81
533.50	34855.26
533.67	34260.76
533.84	34036.07
534.01	34359.06
534.18	34394.17
534.35	34700.78
534.52	34345.02
534.69	35028.46
534.86	34487.79
535.03	34443.32
535.20	34347.36
535.37	35030.80
535.54	35012.07
535.71	35007.39
535.88	35304.64
536.05	34902.07
536.22	35019.10
536.38	35309.32
536.55	35283.58
536.72	35168.89
536.89	35395.92
537.06	35489.54
537.23	35646.36
537.40	35475.50
537.57	35480.18
537.74	35391.24
537.91	35924.88
538.08	35000.37
538.25	35257.83
538.42	35772.75
538.59	35627.63
538.75	35601.89
538.92	35880.41
539.09	35959.99
539.26	35440.39
539.43	35779.77
539.60	35868.71
539.77	35945.95
539.94	36257.24
540.11	36392.99
540.28	36493.63
540.44	36367.24
540.61	36566.19
540.78	36151.91
540.95	35920.20
541.12	36783.86
541.29	36629.38
541.46	36928.97
541.62	37137.28
541.79	37057.70
541.96	36540.44
542.13	36460.87
542.30	36732.37
542.47	36903.23
542.63	36673.85
542.80	37448.57
542.97	37603.05
543.14	37717.73
543.31	37645.18
543.48	37359.63
543.64	37766.88
543.81	37591.34
543.98	37848.80
544.15	37425.17
544.32	37469.64
544.48	38227.97
544.65	37834.76
544.82	37675.60
544.99	37715.39
545.16	37558.58
545.32	37982.21
545.49	38237.33
545.66	38827.15
545.83	38834.17
546.00	39288.23
546.16	38572.03
546.33	38431.60
546.50	38089.88
546.67	38171.80
546.83	37500.06
547.00	38405.85
547.17	38110.94
547.34	37979.87
547.50	38181.16
547.67	38754.59
547.84	38202.22
548.00	38384.79
548.17	38651.61
548.34	38319.25
548.51	38810.76
548.67	38782.68
548.84	38288.82
549.01	38375.42
549.18	38548.62
549.34	38546.28
549.51	38726.50
549.68	38752.25
549.84	38412.87
550.01	38639.90
550.18	38265.42
550.34	38478.41
550.51	38888.00
550.68	38862.26
550.84	38513.52
551.01	38614.16
551.18	38550.96
551.34	38822.47
551.51	38359.04
551.68	38565.01
551.84	38852.89
552.01	38602.46
552.18	38986.30
552.34	38679.69
552.51	39910.82
552.68	39302.28
552.84	39171.21
553.01	39285.89
553.18	38934.81
553.34	39115.03
553.51	39323.34
553.67	39449.73
553.84	39704.85
554.01	39711.87
554.17	39868.69
554.34	39557.39
554.51	39061.20
554.67	39386.54
554.84	39562.08
555.00	39136.10
555.17	39115.03
555.33	39346.75
555.50	39515.26
555.67	39531.65
555.83	39208.65
556.00	39459.09
556.16	40006.78
556.33	40119.12
556.50	39737.62
556.66	39316.32
556.83	39157.16
556.99	39847.62
557.16	39721.23
557.32	40140.19
557.49	40158.91
557.65	39515.26
557.82	39828.90
557.98	39971.67
558.15	39803.15
558.32	39618.25
558.48	39824.22
558.65	40573.19
558.81	40046.57
558.98	40524.04
559.14	39948.26
559.31	39978.69
559.47	40154.23
559.64	39990.39
559.80	40486.59
559.97	40364.88
560.13	40004.44
560.30	40343.81
560.46	40149.55
560.63	40507.65
560.79	40364.88
560.96	41085.76
561.12	40430.41
561.29	40336.79
561.45	40004.44
561.61	40374.24
561.78	40079.33
561.94	40645.74
562.11	40774.47
562.27	40788.52
562.44	40769.79
562.60	40758.09
562.77	40273.60
562.93	40802.56
563.10	40931.29
563.26	40617.66
563.42	40753.41
563.59	40655.11
563.75	40694.89
563.92	41148.96
564.08	40811.92
564.24	40950.01
564.41	40563.82
564.57	40463.18
564.74	40620.00
564.90	41359.61
565.07	40978.10
565.23	40699.58
565.39	41036.61
565.56	41357.27
565.72	40713.62
565.88	41041.29
566.05	40910.22
566.21	40938.31
566.38	40957.03
566.54	40631.70
566.70	40884.48
566.87	41254.28
567.03	41420.46
567.19	41411.10
567.36	41209.81
567.52	41050.66
567.68	41418.12
567.85	41265.99
568.01	41254.28
568.17	41214.49
568.34	41083.42
568.50	40811.92
568.66	41254.28
568.83	41734.09
568.99	41270.67
569.15	41184.07
569.32	41060.02
569.48	40816.60
569.64	41146.62
569.81	41043.63
569.97	41235.56
570.13	41076.40
570.30	41195.77
570.46	41296.41
570.62	41425.14
570.78	41247.26
570.95	41125.55
571.11	41455.57
571.27	41469.61
571.43	41195.77
571.60	41174.70
571.76	41322.16
571.92	41507.06
572.09	41493.02
572.25	41706.01
572.41	41729.41
572.57	41312.80
572.74	41811.33
572.90	40957.03
573.06	41745.80
573.22	41558.55
573.38	41315.14
573.55	41476.63
573.71	41640.47
573.87	41343.22
574.03	41474.29
574.20	41415.78
574.36	41731.75
574.52	41722.39
574.68	41366.63
574.84	41596.00
575.01	41600.68
575.17	41581.96
575.33	41848.78
575.49	41584.30
575.65	41635.79
575.82	41542.17
575.98	41876.86
576.14	42029.00
576.30	41956.44
576.46	41521.10
576.62	41694.30
576.79	41727.07
576.95	41429.82
577.11	41654.51
577.27	41808.99
577.43	41425.14
577.59	41591.32
577.75	41689.62
577.92	41659.20
578.08	41333.86
578.24	41581.96
578.40	41649.83
578.56	42237.31
578.72	41745.80
578.88	42333.27
579.04	42155.39
579.21	41600.68
579.37	41865.16
579.53	42103.90
579.69	41874.52
579.85	41769.20
580.01	41876.86
580.17	41584.30
580.33	42026.66
580.49	41769.20
580.65	42029.00
580.82	41755.16
580.98	41727.07
581.14	41865.16
581.30	41647.49
581.46	41406.42
581.62	41422.80
581.78	41631.11
581.94	42604.77
582.10	41682.60
582.26	42080.49
582.42	42052.41
582.58	41605.36
582.74	41984.53
582.90	41745.80
583.06	41977.51
583.22	42050.06
583.38	42288.80
583.54	41830.05
583.70	42036.02
583.86	42160.07
584.02	42040.70
584.18	42724.14
584.34	41876.86
584.50	42057.09
584.66	41645.15
584.82	41785.58
584.98	41921.34
585.14	41862.82
585.30	42080.49
585.46	41778.56
585.62	41942.40
585.78	42251.35
585.94	42244.33
586.10	41736.43
586.26	41876.86
586.42	42192.84
586.58	42005.59
586.74	42080.49
586.90	41621.75
587.06	41993.89
587.22	41862.82
587.38	42075.81
587.54	42885.64
587.70	42518.17
587.86	42403.49
588.02	41963.46
588.18	42277.10
588.34	41895.59
588.49	42326.25
588.65	42038.36
588.81	42012.62
588.97	42501.79
589.13	42607.11
589.29	42356.67
589.45	42754.57
589.61	42351.99
589.77	42614.13
589.93	42157.73
590.08	42450.30
590.24	42738.18
590.40	42309.86
590.56	41886.23
590.72	42356.67
590.88	42349.65
591.04	42092.19
591.20	42646.90
591.35	42176.45
591.51	43091.60
591.67	42787.33
591.83	42520.51
591.99	42899.68
592.15	42567.32
592.31	42454.98
592.46	42649.24
592.62	42864.57
592.78	42864.57
592.94	42396.46
593.10	42473.70
593.26	42630.52
593.41	42562.64
593.57	42864.57
593.73	42768.61
593.89	42890.32
594.05	42389.44
594.20	42029.00
594.36	42696.05
594.52	42391.78
594.68	42677.33
594.84	42288.80
594.99	43042.45
595.15	42646.90
595.31	42902.02
595.47	42775.63
595.62	42773.29
595.78	42443.27
595.94	42183.48
596.10	42588.39
596.25	42415.19
596.41	42564.98
596.57	42026.66
596.73	42733.50
596.88	42803.72
597.04	43030.75
597.20	42403.49
597.36	42784.99
597.51	43063.52
597.67	42965.21
597.83	42717.12
597.99	42871.59
598.14	42995.64
598.30	42859.89
598.46	43077.56
598.61	42684.35
598.77	42249.01
598.93	42801.38
599.09	42689.03
599.24	42876.27
599.40	42586.05
599.56	42862.23
599.71	42906.70
599.87	42710.10
600.03	42766.27
600.18	42651.58
600.34	42602.43
600.50	42665.63
600.65	42787.33
600.81	43000.32
600.97	43086.92
601.12	43044.79
601.28	42937.13
601.44	42913.72
601.59	43044.79
601.75	42366.04
601.91	43297.57
602.06	42649.24
602.22	42857.55
602.37	42827.12
602.53	42965.21
602.69	43030.75
602.84	42986.28
603.00	42866.91
603.16	43178.20
603.31	42721.80
603.47	42359.02
603.62	42607.11
603.78	42920.74
603.94	42665.63
604.09	42660.94
604.25	42749.88
604.40	42890.32
604.56	42637.54
604.71	43063.52
604.87	42543.92
605.03	42658.60
605.18	42443.27
605.34	42637.54
605.49	41738.77
605.65	42792.01
605.80	42382.42
605.96	42824.78
606.12	42644.56
606.27	42916.06
606.43	43150.12
606.58	43023.73
606.74	42586.05
606.89	42820.10
607.05	42536.90
607.20	42415.19
607.36	42031.34
607.51	42534.56
607.67	42754.57
607.82	42674.99
607.98	42574.34
608.13	42389.44
608.29	42569.66
608.44	42902.02
608.60	42309.86
608.75	42953.51
608.91	42511.15
609.06	42490.09
609.22	42632.86
609.37	42183.48
609.53	42478.38
609.68	42349.65
609.84	42466.68
609.99	42466.68
610.15	42775.63
610.30	42815.42
610.46	42529.87
610.61	43117.35
610.76	43199.27
610.92	42988.62
611.07	43159.48
611.23	43161.82
611.38	43225.01
611.54	43445.02
611.69	42916.06
611.84	43358.42
612.00	43482.47
612.15	43033.09
612.31	42946.49
612.46	42602.43
612.62	42405.83
612.77	42178.79
612.92	43122.03
613.08	42712.44
613.23	42241.99
613.39	41991.55
613.54	41673.24
613.69	42614.13
613.85	42256.03
614.00	42773.29
614.15	42117.94
614.31	42560.30
614.46	42562.64
614.62	42637.54
614.77	42246.67
614.92	42281.78
615.08	41914.31
615.23	42593.07
615.38	42101.56
615.54	41284.71
615.69	41626.43
615.84	41909.63
616.00	42073.47
616.15	42038.36
616.30	41722.39
616.46	41991.55
616.61	41390.03
616.76	41528.13
616.92	41336.20
617.07	41914.31
617.22	41359.61
617.37	41291.73
617.53	41347.90
617.68	41404.08
617.83	41886.23
617.99	41722.39
618.14	41989.21
618.29	41755.16
618.45	41521.10
618.60	41249.60
618.75	41406.42
618.90	40973.42
619.06	40758.09
619.21	40858.73
619.36	41071.72
619.51	40786.18
619.67	41127.89
619.82	40964.06
619.97	41212.15
620.12	40938.31
620.28	40917.25
620.43	41954.10
620.58	41249.60
620.73	41111.51
620.89	41265.99
621.04	41240.24
621.19	40641.06
621.34	41305.77
621.49	41111.51
621.65	41202.79
621.80	41200.45
621.95	40912.56
622.10	41230.88
622.25	40975.76
622.41	40610.64
622.56	41001.50
622.71	40725.32
622.86	40704.26
623.01	40591.91
623.16	40643.40
623.32	40577.87
623.47	40879.80
623.62	40950.01
623.77	40449.14
623.92	40982.78
624.07	41249.60
624.23	41081.08
624.38	41010.87
624.53	40935.97
624.68	40692.55
624.83	40570.85
624.98	40620.00
625.13	40446.80
625.29	39924.86
625.44	40322.75
625.59	40605.95
625.74	40189.34
625.89	40399.99
626.04	40348.50
626.19	40123.80
626.34	40123.80
626.49	40123.80
626.65	40844.69
626.80	40224.45
626.95	40142.53
627.10	39447.39
627.25	39903.79
627.40	40109.76
627.55	39772.72
627.70	40055.93
627.85	39859.32
628.00	40154.23
628.15	40215.08
628.30	39608.89
628.45	40079.33
628.60	39573.78
628.76	40039.54
628.91	39892.09
629.06	40062.95
629.21	39648.68
629.36	39777.40
629.51	39454.41
629.66	40201.04
629.81	39861.66
629.96	39285.89
630.11	39447.39
630.26	39929.54
630.41	39353.77
630.56	39548.03
630.71	39571.44
630.86	39636.97
631.01	39601.86
631.16	39751.66
631.31	39058.86
631.46	39122.05
631.61	39384.19
631.76	39295.25
631.91	39620.59
632.06	38876.30
632.21	39143.12
632.36	39398.24
632.51	38710.12
632.66	39143.12
632.81	39236.74
632.96	39056.52
633.10	39152.48
633.25	38852.89
633.40	39159.50
633.55	38995.67
633.70	39051.84
633.85	38401.17
634.00	38990.98
634.15	39496.54
634.30	38637.56
634.45	38768.63
634.60	39316.32
634.75	39019.07
634.90	38560.33
635.05	38873.96
635.19	38487.77
635.34	39129.08
635.49	38827.15
635.64	38499.47
635.79	38380.10
635.94	38766.29
636.09	38693.74
636.24	38408.19
636.39	38579.05
636.53	38857.57
636.68	38504.15
636.83	38211.59
636.98	39047.16
637.13	38415.21
637.28	38031.36
637.43	38710.12
637.57	38799.06
637.72	38127.33
637.87	38232.65
638.02	38176.48
638.17	38639.90
638.32	37745.82
638.46	37743.48
638.61	38157.75
638.76	38160.09
638.91	37937.74
639.06	38349.68
639.20	38845.87
639.35	38597.77
639.50	38532.24
639.65	38176.48
639.80	38010.30
639.94	37841.78
640.09	38064.13
640.24	37649.86
640.39	37930.72
640.54	37593.68
640.68	38307.55
640.83	37312.82
640.98	37483.68
641.13	37378.36
641.27	37464.96
641.42	37514.11
641.57	37394.74
641.72	37717.73
641.86	37446.23
642.01	37001.53
642.16	37401.76
642.31	37497.72
642.45	37853.48
642.60	37436.87
642.75	37287.07
642.90	38061.79
643.04	37357.29
643.19	37120.90
643.34	38054.77
643.48	37809.01
643.63	37640.50
643.78	37130.26
643.93	37191.11
644.07	37170.05
644.22	37425.17
644.37	36732.37
644.51	36615.34
644.66	37134.94
644.81	37642.84
644.95	37198.13
645.10	37165.37
645.25	37352.61
645.39	37336.23
645.54	37043.66
645.69	37181.75
645.83	37387.72
645.98	37221.54
646.13	37460.27
646.27	37411.12
646.42	37364.31
646.57	37266.01
646.71	36938.33
646.86	37043.66
647.00	36957.06
647.15	36931.31
647.30	37055.36
647.44	36582.57
647.59	36392.99
647.74	36758.11
647.88	37209.84
648.03	36954.72
648.17	36835.35
648.32	36383.63
648.47	36811.95
648.61	36456.18
648.76	36779.18
648.90	37017.91
649.05	36615.34
649.20	36783.86
649.34	37038.98
649.49	36912.59
649.63	36893.86
649.78	36767.48
649.92	36084.04
650.07	36554.49
650.21	36488.95
650.36	36460.87
650.51	36280.64
650.65	36547.47
650.80	36451.50
650.94	36566.19
651.09	36348.52
651.23	35952.97
651.38	36039.57
651.52	36407.03
651.67	36591.94
651.81	35985.74
651.96	35941.27
652.10	36339.16
652.25	35852.33
652.39	36252.56
652.54	36107.44
652.68	35543.38
652.83	35777.43
652.97	36196.38
653.12	35885.09
653.26	35962.33
653.41	36327.45
653.55	35934.24
653.70	35800.83
653.84	35704.87
653.99	35789.13
654.13	35857.01
654.27	35791.47
654.42	35545.72
654.56	35798.49
654.71	36100.42
654.85	35943.61
655.00	35751.68
655.14	35433.37
655.29	35388.90
655.43	35583.16
655.57	35335.07
655.72	35236.77
655.86	35723.60
656.01	35604.23
656.15	35110.38
656.30	35597.21
656.44	35697.85
656.58	35388.90
656.73	35363.15
656.87	35185.27
657.01	35700.19
657.16	35290.60
657.30	35063.57
657.45	35119.74
657.59	35311.66
657.73	34735.89
657.88	34838.87
658.02	34998.03
658.16	35873.39
658.31	35063.57
658.45	34902.07
658.60	35456.78
658.74	34644.61
658.88	34932.50
659.03	34766.32
659.17	34686.74
659.31	34515.88
659.46	34838.87
659.60	34693.76
659.74	34548.65
659.89	34883.34
660.03	34494.82
660.17	34635.25
660.32	34143.74
660.46	34279.49
660.60	34237.36
660.74	34080.54
660.89	34277.15
661.03	34291.19
661.17	34494.82
661.32	34117.99
661.46	34363.75
661.60	34279.49
661.74	33813.72
661.89	34326.30
662.03	33682.65
662.17	33539.88
662.31	33612.43
662.46	33879.25
662.60	33776.27
662.74	33893.30
662.88	33394.76
663.03	33694.35
663.17	33912.02
663.31	33504.77
663.45	33963.51
663.60	33261.35
663.74	33233.27
663.88	33479.02
664.02	33235.61
664.17	33453.28
664.31	33153.69
664.45	32886.87
664.59	32957.08
664.73	33095.18
664.88	33301.14
665.02	32830.69
665.16	32898.57
665.30	32849.42
665.44	33216.88
665.59	32727.71
665.73	32369.61
665.87	32496.00
666.01	32442.17
666.15	32835.38
666.29	32973.47
666.44	32566.21
666.58	32589.62
666.72	32425.78
666.86	32577.92
667.00	32858.78
667.14	32397.70
667.28	31950.65
667.43	32109.81
667.57	32393.01
667.71	32716.01
667.85	32615.37
667.99	32275.99
668.13	31868.73
668.27	32030.23
668.41	31695.53
668.56	31538.72
668.70	31725.96
668.84	31681.49
668.98	31325.73
669.12	31459.14
669.26	31374.88
669.40	31545.74
669.54	31934.27
669.68	31674.47
669.82	31056.57
669.96	31676.81
670.10	31358.50
670.25	31426.37
670.39	31082.31
670.53	30588.46
670.67	30955.93
670.81	31058.91
670.95	31227.43
671.09	31185.30
671.23	30895.07
671.37	31197.00
671.51	30902.09
671.65	31168.91
671.79	30583.78
671.93	30916.14
672.07	31234.45
672.21	30450.37
672.35	30731.23
672.49	30265.47
672.63	30574.42
672.77	30312.28
672.91	30258.45
673.05	30319.30
673.19	30155.46
673.33	29818.42
673.47	29502.45
673.61	29680.33
673.75	29654.59
673.89	29565.65
674.03	29343.30
674.17	29783.32
674.31	29759.91
674.45	30146.10
674.59	29764.59
674.73	29668.63
674.87	29223.93
675.01	29046.05
675.15	29099.88
675.29	29546.92
675.43	29472.03
675.56	29174.78
675.70	29247.33
675.84	28950.09
675.98	28046.64
676.12	28247.93
676.26	28477.30
676.40	28709.01
676.54	28861.15
676.68	28811.99
676.82	28086.43
676.96	28388.36
677.10	28671.56
677.23	28786.25
677.37	28769.86
677.51	27845.35
677.65	28109.83
677.79	27630.02
677.93	27665.13
678.07	27475.55
678.21	27751.73
678.34	27630.02
678.48	27356.18
678.62	27056.59
678.76	27454.48
678.90	27332.78
679.04	27241.50
679.18	26895.10
679.31	26888.07
679.45	26745.30
679.59	26735.94
679.73	27082.34
679.87	26731.26
680.00	26483.16
680.14	25921.43
680.28	26469.12
680.42	26628.27
680.56	26520.61
680.70	26300.60
680.83	25989.31
680.97	25823.13
681.11	26305.28
681.25	26005.69
681.39	25806.75
681.52	25811.43
681.66	25605.46
681.80	25752.91
681.94	25497.80
682.07	25432.26
682.21	25605.46
682.35	25511.84
682.49	25689.72
682.62	25446.30
682.76	25446.30
682.90	25083.52
683.04	24718.40
683.17	24645.84
683.31	24826.06
683.45	24676.27
683.59	24865.85
683.72	24849.47
683.86	24898.62
684.00	24624.78
684.13	24596.69
684.27	24002.19
684.41	24435.19
684.55	24079.43
684.68	24346.25
684.82	24074.75
684.96	23920.28
685.09	23939.00
685.23	23562.17
685.37	24006.87
685.50	23601.96
685.64	23559.83
685.78	23424.08
685.91	23388.97
686.05	23094.07
686.19	23009.81
686.32	23271.95
686.46	22860.01
686.60	23063.64
686.73	23360.89
686.87	23110.45
687.01	22958.31
687.14	22848.31
687.28	22405.95
687.42	22698.52
687.55	22682.13
687.69	22494.89
687.82	21975.29
687.96	22216.36
688.10	22326.37
688.23	22906.82
688.37	22279.56
688.50	22085.30
688.64	21940.18
688.78	21792.73
688.91	21783.37
689.05	21544.63
689.18	21741.24
689.32	21261.43
689.46	21642.93
689.59	21254.40
689.73	21558.67
689.86	21064.82
690.00	21486.12
690.13	21291.85
690.27	21057.80
690.41	21156.10
690.54	20365.00
690.68	20718.42
690.81	21050.78
690.95	20798.00
691.08	20542.88
691.22	20402.45
691.35	20123.93
691.49	20393.09
691.62	20327.55
691.76	20374.36
691.89	20521.82
692.03	20400.11
692.16	19875.83
692.30	19901.58
692.43	19756.46
692.57	19676.88
692.70	19728.38
692.84	19833.70
692.97	19845.40
693.11	19585.60
693.24	19220.48
693.38	19513.05
693.51	19150.26
693.65	19323.46
693.78	19508.37
693.92	19257.93
694.05	19047.28
694.19	19234.52
694.32	19133.88
694.45	19290.70
694.59	18888.12
694.72	18822.59
694.86	18590.88
694.99	18604.92
695.13	18345.12
695.26	18375.55
695.39	18218.73
695.53	18195.32
695.66	17914.46
695.80	17748.28
695.93	17809.14
696.07	18071.28
696.20	18118.09
696.33	17858.29
696.47	17816.16
696.60	17689.77
696.73	17797.43
696.87	17692.11
697.00	17689.77
697.14	17397.20
697.27	16922.07
697.40	17186.55
697.54	17137.40
697.67	16889.31
697.80	16788.66
697.94	17003.99
698.07	16599.08
698.21	16795.68
698.34	16549.93
698.47	16613.12
698.61	16435.24
698.74	16341.62
698.87	16542.91
699.01	16301.83
699.14	16678.66
699.27	16446.94
699.40	16559.29
699.54	16491.41
699.67	16093.52
699.80	16126.29
699.94	15545.84
700.07	15707.34
700.20	15749.46
700.34	15260.29
700.47	15707.34
700.60	15597.33
700.73	15597.33
700.87	15604.35
701.00	15480.30
701.13	15272.00
701.26	15054.33
701.40	15307.10
701.53	14944.32
701.66	14801.55
701.79	14874.10
701.93	15087.09
702.06	15246.25
702.19	14925.60
702.32	14939.64
702.46	14668.14
702.59	14537.07
702.72	14700.90
702.85	14490.26
702.99	14401.32
703.12	14164.92
703.25	14209.39
703.38	14092.37
703.51	14342.80
703.65	14476.21
703.78	14218.75
703.91	14068.96
704.04	14223.44
704.17	14015.13
704.31	13900.44
704.44	13722.56
704.57	13682.77
704.70	13495.53
704.83	13432.33
704.96	13352.76
705.10	13327.01
705.23	13207.64
>>>>>End Processed Spectral Data<<<<<
