SpectraSuite Data File
++++++++++++++++++++++++++++++++++++
Date: Thu Oct 24 13:21:15 EDT 2013
User: stostad
Dark Spectrum Present: No
Reference Spectrum Present: No
Number of Sampled Component Spectra: 1
Spectrometers: USB2+H05261
Integration Time (usec): 100000 (USB2+H05261)
Spectra Averaged: 1 (USB2+H05261)
Boxcar Smoothing: 0 (USB2+H05261)
Correct for Electrical Dark: No (USB2+H05261)
Strobe/Lamp Enabled: No (USB2+H05261)
Correct for Detector Non-linearity: No (USB2+H05261)
Correct for Stray Light: No (USB2+H05261)
Number of Pixels in Processed Spectrum: 2048
>>>>>Begin Processed Spectral Data<<<<<
365.73	606.20
365.92	606.20
366.12	606.20
366.32	454.06
366.52	479.81
366.72	430.66
366.91	383.85
367.11	440.02
367.31	479.81
367.51	470.45
367.70	503.22
367.90	449.38
368.10	414.27
368.30	428.32
368.49	442.36
368.69	454.06
368.89	409.59
369.09	519.60
369.28	463.43
369.48	526.62
369.68	458.74
369.87	519.60
370.07	592.16
370.27	543.00
370.47	554.71
370.66	739.61
370.86	760.67
371.06	748.97
371.25	828.55
371.45	823.87
371.65	725.57
371.84	870.68
372.04	793.44
372.24	868.34
372.44	919.83
372.63	880.04
372.83	861.32
373.03	901.11
373.22	833.23
373.42	903.45
373.62	891.74
373.81	788.76
374.01	844.93
374.21	898.77
374.40	891.74
374.60	924.51
374.79	880.04
374.99	889.40
375.19	908.13
375.38	1015.79
375.58	926.85
375.78	985.37
375.97	917.49
376.17	1013.45
376.37	931.53
376.56	964.30
376.76	971.32
376.95	901.11
377.15	961.96
377.35	959.62
377.54	922.17
377.74	999.41
377.93	936.21
378.13	936.21
378.33	912.81
378.52	891.74
378.72	973.66
378.91	968.98
379.11	910.47
379.31	987.71
379.50	887.06
379.70	1032.18
379.89	1013.45
380.09	983.02
380.28	915.15
380.48	957.28
380.68	910.47
380.87	938.55
381.07	1020.47
381.26	1048.56
381.46	1004.09
381.65	1004.09
381.85	959.62
382.04	945.58
382.24	1090.69
382.43	994.73
382.63	1029.84
382.83	1029.84
383.02	1083.67
383.22	1029.84
383.41	1008.77
383.61	1032.18
383.80	1107.07
384.00	1055.58
384.19	1123.46
384.39	1067.28
384.58	1067.28
384.78	1060.26
384.97	994.73
385.17	1025.15
385.36	1020.47
385.56	1095.37
385.75	1090.69
385.95	1053.24
386.14	1041.54
386.34	1074.31
386.53	1069.62
386.72	1125.80
386.92	1128.14
387.11	1203.04
387.31	1097.71
387.50	1093.03
387.70	985.37
387.89	1146.86
388.09	1006.43
388.28	1121.12
388.48	1151.54
388.67	1132.82
388.86	1114.10
389.06	1114.10
389.25	1109.41
389.45	1135.16
389.64	1240.48
389.84	1186.65
390.03	1233.46
390.22	1193.67
390.42	1172.61
390.61	1198.35
390.81	1221.76
391.00	1252.19
391.19	1217.08
391.39	1231.12
391.58	1263.89
391.78	1163.25
391.97	1177.29
392.16	1172.61
392.36	1188.99
392.55	1252.19
392.75	1242.82
392.94	1249.85
393.13	1331.76
393.33	1306.02
393.52	1249.85
393.71	1378.58
393.91	1327.08
394.10	1317.72
394.29	1261.55
394.49	1275.59
394.68	1343.47
394.88	1338.79
395.07	1336.45
395.26	1306.02
395.46	1291.98
395.65	1366.87
395.84	1401.98
396.04	1509.65
396.23	1350.49
396.42	1387.94
396.62	1404.32
396.81	1385.60
397.00	1444.11
397.19	1434.75
397.39	1462.83
397.58	1467.52
397.77	1472.20
397.97	1427.73
398.16	1439.43
398.35	1488.58
398.55	1437.09
398.74	1514.33
398.93	1500.28
399.12	1476.88
399.32	1500.28
399.51	1537.73
399.70	1551.78
399.90	1533.05
400.09	1533.05
400.28	1596.25
400.47	1603.27
400.67	1636.03
400.86	1614.97
401.05	1582.20
401.24	1565.82
401.44	1645.40
401.63	1645.40
401.82	1577.52
402.01	1631.35
402.21	1591.56
402.40	1533.05
402.59	1526.03
402.78	1633.69
402.97	1774.13
403.17	1640.72
403.36	1699.23
403.55	1673.48
403.74	1717.95
403.93	1790.51
404.13	1729.66
404.32	1717.95
404.51	1811.57
404.70	1743.70
404.89	1844.34
405.09	1837.32
405.28	1870.09
405.47	1825.62
405.66	1788.17
405.85	1802.21
406.05	1771.79
406.24	1844.34
406.43	1811.57
406.62	1891.15
406.81	1905.20
407.00	1703.91
407.20	1736.68
407.39	1949.67
407.58	1947.33
407.77	1942.64
407.96	1966.05
408.15	2005.84
408.34	1858.39
408.54	2045.63
408.73	1942.64
408.92	1952.01
409.11	1975.41
409.30	2036.27
409.49	2090.10
409.68	1977.75
409.87	2162.66
410.07	2087.76
410.26	2069.03
410.45	2190.74
410.64	2092.44
410.83	2190.74
411.02	2277.34
411.21	2108.82
411.40	2237.55
411.59	2303.09
411.78	2296.07
411.98	2218.83
412.17	2237.55
412.36	2291.38
412.55	2352.24
412.74	2417.77
412.93	2356.92
413.12	2321.81
413.31	2401.39
413.50	2326.49
413.69	2326.49
413.88	2459.90
414.07	2326.49
414.26	2445.86
414.45	2513.74
414.64	2525.44
414.83	2455.22
415.02	2471.61
415.22	2520.76
415.41	2651.83
415.60	2509.05
415.79	2658.85
415.98	2651.83
416.17	2677.57
416.36	2677.57
416.55	2693.96
416.74	2778.22
416.93	2626.08
417.12	2684.59
417.31	2794.60
417.50	2726.72
417.69	2853.11
417.88	2918.65
418.07	2843.75
418.26	2796.94
418.45	2981.84
418.64	2871.84
418.83	2939.71
419.02	2939.71
419.21	2958.44
419.39	2956.10
419.58	3038.02
419.77	2949.08
419.96	2993.55
420.15	3183.13
420.34	3012.27
420.53	2946.73
420.72	3108.23
420.91	3009.93
421.10	3047.38
421.29	3232.28
421.48	3122.27
421.67	3098.87
421.86	3000.57
422.05	3035.67
422.24	3162.06
422.43	3084.83
422.61	3098.87
422.80	3239.30
422.99	3187.81
423.18	3110.57
423.37	3218.24
423.56	3119.93
423.75	3129.30
423.94	3150.36
424.13	3091.85
424.32	3077.80
424.50	3131.64
424.69	3290.79
424.88	3162.06
425.07	3185.47
425.26	3155.04
425.45	3110.57
425.64	3171.43
425.83	3225.26
426.01	3295.47
426.20	3178.45
426.39	3234.62
426.58	3248.66
426.77	3260.37
426.96	3251.00
427.15	3286.11
427.33	3339.94
427.52	3339.94
427.71	3262.71
427.90	3262.71
428.09	3440.59
428.28	3379.73
428.46	3403.14
428.65	3337.60
428.84	3531.87
429.03	3449.95
429.22	3225.26
429.40	3459.31
429.59	3480.38
429.78	3489.74
429.97	3403.14
430.16	3480.38
430.34	3585.70
430.53	3550.59
430.72	3538.89
430.91	3468.67
431.10	3527.19
431.28	3562.30
431.47	3651.24
431.66	3660.60
431.85	3730.81
432.03	3719.11
432.22	3613.79
432.41	3632.51
432.60	3676.98
432.79	3817.41
432.97	3822.09
433.16	3843.16
433.35	3641.87
433.54	3784.65
433.72	3756.56
433.91	3880.61
434.10	3887.63
434.28	3740.18
434.47	3859.54
434.66	3962.53
434.85	3950.82
435.03	4135.73
435.22	4131.05
435.41	4348.72
435.59	4250.41
435.78	4194.24
435.97	4105.30
436.16	4039.76
436.34	4100.62
436.53	3913.38
436.72	4203.60
436.90	3988.27
437.09	4198.92
437.28	4147.43
437.46	4067.85
437.65	4170.83
437.84	4072.53
438.02	4142.75
438.21	4180.20
438.40	4105.30
438.58	4280.84
438.77	4198.92
438.96	4257.43
439.14	4313.61
439.33	4432.97
439.52	4440.00
439.70	4540.64
439.89	4521.92
440.08	4517.23
440.26	4575.75
440.45	4440.00
440.63	4568.73
440.82	4608.51
441.01	4669.37
441.19	4596.81
441.38	4727.88
441.57	4624.90
441.75	4788.74
441.94	4844.91
442.12	5029.81
442.31	4746.61
442.50	4802.78
442.68	4868.31
442.87	4880.02
443.05	4908.10
443.24	4997.04
443.43	5039.17
443.61	4884.70
443.80	5102.37
443.98	4865.97
444.17	4816.82
444.35	5069.60
444.54	5097.69
444.73	5071.94
444.91	5107.05
445.10	5191.31
445.28	5074.28
445.47	5137.48
445.65	5055.56
445.84	5053.22
446.02	5011.09
446.21	5048.54
446.39	5200.67
446.58	5163.22
446.77	5097.69
446.95	5022.79
447.14	5149.18
447.32	5132.79
447.51	5053.22
447.69	5095.35
447.88	4985.34
448.06	5071.94
448.25	4978.32
448.43	5069.60
448.62	5163.22
448.80	5144.50
448.99	5174.92
449.17	5156.20
449.36	5373.87
449.54	5315.36
449.73	5507.28
449.91	5420.68
450.10	5320.04
450.28	5373.87
450.46	5458.13
450.65	5317.70
450.83	5495.58
451.02	5383.23
451.20	5537.71
451.39	5465.15
451.57	5598.56
451.76	5500.26
451.94	5460.47
452.13	5509.62
452.31	5633.67
452.49	5572.82
452.68	5643.03
452.86	5540.05
453.05	5528.35
453.23	5661.76
453.42	5617.29
453.60	5537.71
453.78	5764.74
453.97	5689.84
454.15	5474.51
454.34	5542.39
454.52	5689.84
454.70	5703.89
454.89	5888.79
455.07	5849.00
455.26	5841.98
455.44	5942.62
455.62	5841.98
455.81	5802.19
455.99	5844.32
456.17	6017.52
456.36	5879.43
456.54	6071.35
456.73	6164.97
456.91	6207.10
457.09	6160.29
457.28	6190.72
457.46	6057.31
457.64	6274.98
457.83	6211.78
458.01	6148.59
458.19	6146.25
458.38	6272.64
458.56	6394.34
458.74	6258.59
458.93	6216.46
459.11	6429.45
459.29	6298.38
459.48	6466.90
459.66	6188.38
459.84	6422.43
460.03	6546.48
460.21	6431.79
460.39	6333.49
460.57	6593.29
460.76	6553.50
460.94	6483.28
461.12	6586.27
461.31	6654.14
461.49	6480.94
461.67	6434.13
461.85	6569.88
462.04	6476.26
462.22	7040.33
462.40	6958.41
462.59	6869.47
462.77	6773.51
462.95	6679.89
463.13	6628.40
463.32	6761.81
463.50	6979.48
463.68	6682.23
463.86	6916.28
464.05	6719.68
464.23	6885.86
464.41	6949.05
464.59	6885.86
464.78	6888.20
464.96	6892.88
465.14	6710.32
465.32	7040.33
465.50	7019.27
465.69	7002.88
465.87	6916.28
466.05	7002.88
466.23	7007.56
466.41	7040.33
466.60	7260.34
466.78	7037.99
466.96	7180.76
467.14	6988.84
467.32	7248.64
467.51	7096.50
467.69	6998.20
467.87	7143.32
468.05	7286.09
468.23	7187.79
468.41	7250.98
468.60	7328.22
468.78	7435.88
468.96	7258.00
469.14	7445.24
469.32	7482.69
469.50	7452.27
469.69	7552.91
469.87	7503.76
470.05	7723.77
470.23	7613.76
470.41	7641.85
470.59	7639.51
470.77	7590.36
470.95	7478.01
471.14	7702.70
471.32	7534.18
471.50	7770.58
471.68	7733.13
471.86	7672.28
472.04	7829.09
472.22	7918.03
472.40	7967.18
472.58	7871.22
472.77	7887.61
472.95	8114.64
473.13	8315.92
473.31	7999.95
473.49	8287.84
473.67	8028.04
473.85	8013.99
474.03	8383.80
474.21	8255.07
474.39	8519.55
474.57	8430.61
474.75	8524.23
474.93	8468.06
475.12	8519.55
475.30	8657.64
475.48	8648.28
475.66	8547.64
475.84	8678.71
476.02	8887.01
476.20	8641.26
476.38	8809.78
476.56	9039.15
476.74	9130.43
476.92	9139.79
477.10	8926.80
477.28	9118.73
477.46	9006.38
477.64	9198.31
477.82	9188.94
478.00	9453.42
478.18	9266.18
478.36	9439.38
478.54	9617.26
478.72	9675.77
478.90	9795.14
479.08	9785.78
479.26	9998.77
479.44	10064.30
479.62	10223.46
479.80	10178.99
479.98	10078.35
480.16	10286.65
480.34	10310.06
480.52	10457.51
480.70	10478.58
480.88	10401.34
481.06	10349.85
481.24	10539.43
481.41	10586.24
481.59	10892.85
481.77	10979.45
481.95	10824.98
482.13	11131.59
482.31	10988.82
482.49	11197.12
482.67	11295.43
482.85	11169.04
483.03	11267.34
483.21	11477.99
483.39	11480.33
483.57	11440.54
483.74	11772.89
483.92	11686.29
484.10	11779.92
484.28	12156.74
484.46	12386.12
484.64	12306.54
484.82	12304.20
485.00	12311.22
485.18	12856.56
485.35	12737.20
485.53	12624.85
485.71	12776.98
485.89	13062.53
486.07	13107.00
486.25	13158.49
486.43	12992.31
486.61	13198.28
486.78	13231.05
486.96	13275.52
487.14	13411.27
487.32	13514.25
487.50	13944.91
487.68	13778.73
487.85	13902.78
488.03	14036.19
488.21	14260.88
488.39	14223.44
488.57	14429.40
488.75	14274.93
488.92	14342.80
489.10	14944.32
489.28	14808.57
489.46	15164.33
489.64	14614.30
489.81	15096.46
489.99	15356.25
490.17	15452.22
490.35	15234.55
490.53	15356.25
490.70	15920.32
490.88	15683.93
491.06	15719.04
491.24	15857.13
491.41	16128.63
491.59	16023.31
491.77	16318.22
491.95	16189.49
492.13	16262.04
492.30	16568.65
492.48	16339.28
492.66	16414.18
492.84	16917.39
493.01	16507.80
493.19	16924.41
493.37	17071.87
493.54	16891.65
493.72	17422.95
493.90	17214.64
494.08	17458.06
494.25	17415.93
494.43	17380.82
494.61	17771.69
494.79	17706.15
494.96	17390.18
495.14	17919.14
495.32	18319.37
495.49	18082.98
495.67	18094.68
495.85	18274.90
496.02	18143.83
496.20	18408.31
496.38	18530.02
496.55	18597.90
496.73	18780.46
496.91	18984.09
497.09	18920.89
497.26	19047.28
497.44	19190.05
497.62	19239.20
497.79	19578.58
497.97	19227.50
498.14	19946.05
498.32	19665.18
498.50	19934.34
498.67	19826.68
498.85	19943.70
499.03	19655.82
499.20	20114.56
499.38	20421.17
499.56	20180.10
499.73	20301.81
499.91	20182.44
500.08	20390.75
500.26	20301.81
500.44	20276.06
500.61	20695.02
500.79	20669.27
500.97	20573.31
501.14	21123.33
501.32	20931.41
501.49	21083.55
501.67	21010.99
501.84	21418.24
502.02	21088.23
502.20	21493.14
502.37	21163.12
502.55	21420.58
502.72	21593.78
502.90	21467.39
503.07	21289.51
503.25	21518.89
503.43	21486.12
503.60	21750.60
503.78	21593.78
503.95	21797.41
504.13	21766.98
504.30	21935.50
504.48	22295.94
504.65	22111.04
504.83	22387.22
505.01	22586.17
505.18	22284.24
505.36	22436.38
505.53	22459.78
505.71	22583.83
505.88	22487.87
506.06	22796.82
506.23	22731.28
506.41	22862.35
506.58	22754.69
506.76	22810.86
506.93	22963.00
507.11	23019.17
507.28	23019.17
507.46	23260.24
507.63	23534.09
507.81	23733.03
507.98	23267.27
508.16	23274.29
508.33	23744.73
508.50	23625.37
508.68	23805.59
508.85	23889.85
509.03	23992.83
509.20	23838.36
509.38	24364.98
509.55	24166.03
509.73	24201.14
509.90	24294.76
510.08	24545.20
510.25	24421.15
510.42	24840.11
510.60	24470.30
510.77	24542.86
510.95	24786.27
511.12	24465.62
511.30	24610.73
511.47	25280.13
511.64	24886.92
511.82	25294.17
511.99	25193.53
512.17	25284.81
512.34	25270.76
512.51	25516.52
512.69	25434.60
512.86	25493.12
513.04	25820.79
513.21	25645.25
513.38	25560.99
513.56	25883.98
513.73	25745.89
513.90	25937.82
514.08	26059.52
514.25	26181.23
514.43	26017.40
514.60	26164.85
514.77	25984.63
514.95	26155.49
515.12	26132.08
515.29	26040.80
515.47	26300.60
515.64	26534.65
515.81	26246.77
515.99	26389.54
516.16	26621.25
516.33	26644.66
516.51	26672.74
516.68	26637.64
516.85	26808.50
517.03	26775.73
517.20	26967.65
517.37	27145.53
517.54	26780.41
517.72	26986.38
517.89	26862.33
518.06	27147.87
518.24	27009.78
518.41	27154.90
518.58	27309.37
518.75	27042.55
518.93	27000.42
519.10	27356.18
519.27	27489.59
519.45	27356.18
519.62	27646.41
519.79	27716.62
519.96	27707.26
520.14	27800.88
520.31	27779.82
520.48	28016.21
520.65	27908.55
520.83	28283.03
521.00	28121.54
521.17	28091.11
521.34	28114.52
521.52	28458.57
521.69	28217.50
521.86	28381.34
522.03	28758.16
522.20	28346.23
522.38	28524.11
522.55	28975.83
522.72	28350.91
522.89	28524.11
523.07	28601.35
523.24	28641.14
523.41	28945.41
523.58	28748.80
523.75	28968.81
523.92	28844.76
524.10	29039.03
524.27	29216.91
524.44	29347.98
524.61	29319.89
524.78	29525.86
524.96	29741.19
525.13	29441.60
525.30	29584.37
525.47	29928.43
525.64	30052.48
525.81	29888.64
525.98	29788.00
526.16	29713.10
526.33	29717.78
526.50	30455.05
526.67	29736.51
526.84	29848.85
527.01	29874.60
527.18	30232.70
527.36	29804.38
527.53	29965.88
527.70	30363.77
527.87	30235.04
528.04	30417.60
528.21	30288.87
528.38	30677.40
528.55	30431.65
528.72	30637.61
528.89	30724.21
529.07	30373.13
529.24	30508.88
529.41	30569.74
529.58	30733.57
529.75	31005.08
529.92	30857.62
530.09	30890.39
530.26	30792.09
530.43	30857.62
530.60	30752.30
530.77	30962.95
530.94	31356.16
531.11	30988.69
531.28	31395.95
531.46	31178.28
531.63	31454.46
531.80	31213.38
531.97	31545.74
532.14	31239.13
532.31	31290.62
532.48	31381.90
532.65	31988.10
532.82	31901.50
532.99	31590.21
533.16	31262.54
533.33	31496.59
533.50	31857.03
533.67	32070.02
533.84	31515.31
534.01	31569.15
534.18	31721.28
534.35	32119.17
534.52	31857.03
534.69	32130.87
534.86	31952.99
535.03	32093.43
535.20	32222.16
535.37	32491.32
535.54	32606.00
535.71	32243.22
535.88	32486.64
536.05	32126.19
536.22	32313.44
536.38	32458.55
536.55	32547.49
536.72	33057.73
536.89	32725.37
537.06	32797.93
537.23	33111.56
537.40	33015.60
537.57	32329.82
537.74	33036.66
537.91	32996.87
538.08	32896.23
538.25	32322.80
538.42	32919.63
538.59	33420.51
538.75	32844.74
538.92	32978.15
539.09	33312.84
539.26	32893.89
539.43	33310.50
539.60	33376.04
539.77	33319.87
539.94	34082.88
540.11	33619.46
540.28	33790.31
540.44	34120.33
540.61	33617.11
540.78	33345.61
540.95	33488.38
541.12	33862.87
541.29	34153.10
541.46	33977.56
541.62	34333.32
541.79	33989.26
541.96	34300.55
542.13	34061.82
542.30	34354.38
542.47	33900.32
542.63	34185.86
542.80	34490.13
542.97	34572.05
543.14	34965.26
543.31	35115.06
543.48	34494.82
543.64	34806.11
543.81	34932.50
543.98	34670.36
544.15	34939.52
544.32	35016.75
544.48	35276.55
544.65	35222.72
544.82	35201.66
544.99	35077.61
545.16	35159.53
545.32	34616.52
545.49	35496.56
545.66	35906.16
545.83	36058.29
546.00	36231.49
546.16	35737.64
546.33	35545.72
546.50	35103.35
546.67	35517.63
546.83	34705.46
547.00	35302.30
547.17	35447.41
547.34	35267.19
547.50	35269.53
547.67	35625.29
547.84	35482.52
548.00	35629.98
548.17	35438.05
548.34	35606.57
548.51	35723.60
548.67	35772.75
548.84	35718.92
549.01	35461.46
549.18	35812.54
549.34	35400.60
549.51	35543.38
549.68	36041.91
549.84	35407.62
550.01	35407.62
550.18	35330.39
550.34	35526.99
550.51	35597.21
550.68	35868.71
550.84	35363.15
551.01	36423.42
551.18	35592.53
551.34	35606.57
551.51	36369.58
551.68	35859.35
551.84	35967.01
552.01	36180.00
552.18	36170.64
552.34	36091.06
552.51	36472.57
552.68	36367.24
552.84	36442.14
553.01	36100.42
553.18	35842.96
553.34	36491.29
553.51	35959.99
553.67	36493.63
553.84	36861.10
554.01	36708.96
554.17	36437.46
554.34	36311.07
554.51	36346.18
554.67	36634.06
554.84	36786.20
555.00	36123.83
555.17	36414.05
555.33	36416.40
555.50	36343.84
555.67	36397.67
555.83	36783.86
556.00	36510.02
556.16	36931.31
556.33	36753.43
556.50	36725.35
556.66	36652.79
556.83	36421.08
556.99	37359.63
557.16	37127.92
557.32	37074.09
557.49	36978.12
557.65	36783.86
557.82	37212.18
557.98	36730.03
558.15	36921.95
558.32	37006.21
558.48	36615.34
558.65	37263.67
558.81	37111.53
558.98	37443.89
559.14	37198.13
559.31	37457.93
559.47	36788.54
559.64	37385.38
559.80	36694.92
559.97	37172.39
560.13	36950.04
560.30	37233.24
560.46	37193.45
560.63	37139.62
560.79	37689.65
560.96	37413.46
561.12	37308.14
561.29	37670.92
561.45	37745.82
561.61	37331.54
561.78	37317.50
561.94	37490.70
562.11	37823.06
562.27	37654.54
562.44	37670.92
562.60	37591.34
562.77	37680.28
562.93	37490.70
563.10	37682.62
563.26	37240.26
563.42	37514.11
563.59	38029.02
563.75	37532.83
563.92	37640.50
564.08	37600.71
564.24	38047.75
564.41	37867.53
564.57	37614.75
564.74	37813.70
564.90	37776.25
565.07	37904.98
565.23	38094.56
565.39	37511.77
565.56	38052.43
565.72	37858.17
565.88	38244.35
566.05	37626.45
566.21	37593.68
566.38	37425.17
566.54	37397.08
566.70	38089.88
566.87	38206.90
567.03	38043.07
567.19	38752.25
567.36	38211.59
567.52	37752.84
567.68	38281.80
567.85	37691.99
568.01	38024.34
568.17	37668.58
568.34	37977.53
568.50	37993.92
568.66	37904.98
568.83	38225.63
568.99	38366.06
569.15	38099.24
569.32	38052.43
569.48	37673.26
569.64	38148.39
569.81	38532.24
569.97	38167.12
570.13	37956.47
570.30	38043.07
570.46	37794.97
570.62	38108.60
570.78	37886.25
570.95	38085.20
571.11	38455.00
571.27	38602.46
571.43	38026.68
571.60	37902.64
571.76	38066.47
571.92	38328.61
572.09	38520.54
572.25	38696.08
572.41	38422.23
572.57	38539.26
572.74	38888.00
572.90	38717.14
573.06	38155.41
573.22	38115.62
573.38	38396.49
573.55	38085.20
573.71	38433.94
573.87	38354.36
574.03	38529.90
574.20	38541.60
574.36	38424.57
574.52	38471.39
574.68	38281.80
574.84	38998.01
575.01	38520.54
575.17	38644.59
575.33	38429.26
575.49	38244.35
575.65	38094.56
575.82	38527.56
575.98	38710.12
576.14	38909.07
576.30	38660.97
576.46	38520.54
576.62	38717.14
576.79	38675.01
576.95	38377.76
577.11	38593.09
577.27	38801.40
577.43	38974.60
577.59	38450.32
577.75	38735.87
577.92	38106.26
578.08	38101.58
578.24	38703.10
578.40	38789.70
578.56	38892.68
578.72	39040.14
578.88	39108.01
579.04	39459.09
579.21	38911.41
579.37	38721.82
579.53	38930.13
579.69	38696.08
579.85	38660.97
580.01	38953.54
580.17	38492.45
580.33	38628.20
580.49	39051.84
580.65	38815.44
580.82	38754.59
580.98	38677.35
581.14	38946.51
581.30	39145.46
581.46	38522.88
581.62	38782.68
581.78	38487.77
581.94	38726.50
582.10	38529.90
582.26	38335.63
582.42	39147.80
582.58	38499.47
582.74	38948.85
582.90	38792.04
583.06	38539.26
583.22	38906.73
583.38	38745.23
583.54	38649.27
583.70	38333.29
583.86	38649.27
584.02	38852.89
584.18	39124.40
584.34	38925.45
584.50	38548.62
584.66	39145.46
584.82	38653.95
584.98	39100.99
585.14	38862.26
585.30	38925.45
585.46	38679.69
585.62	38953.54
585.78	38855.23
585.94	38808.42
586.10	39103.33
586.26	39065.88
586.42	39068.22
586.58	38986.30
586.74	38972.26
586.90	39044.82
587.06	38813.10
587.22	39330.36
587.38	38728.84
587.54	39098.65
587.70	39096.31
587.86	39447.39
588.02	39168.87
588.18	38983.96
588.34	39115.03
588.49	39402.92
588.65	39187.59
588.81	38827.15
588.97	39363.13
589.13	38663.31
589.29	39321.00
589.45	38770.97
589.61	38972.26
589.77	39559.73
589.93	39187.59
590.08	39555.05
590.24	39290.57
590.40	39421.64
590.56	38932.47
590.72	38890.34
590.88	38663.31
591.04	39049.50
591.20	39592.50
591.35	39721.23
591.51	39775.06
591.67	39777.40
591.83	39746.98
591.99	39395.90
592.15	39351.43
592.31	39267.17
592.46	39255.46
592.62	39164.18
592.78	39728.25
592.94	39129.08
593.10	39271.85
593.26	39878.05
593.41	39643.99
593.57	38960.56
593.73	39459.09
593.89	39856.98
594.05	38883.32
594.20	38981.62
594.36	39423.98
594.52	39557.39
594.68	39281.21
594.84	39466.11
594.99	39381.85
595.15	39220.36
595.31	39604.20
595.47	39725.91
595.62	39196.95
595.78	39026.09
595.94	38644.59
596.10	39398.24
596.25	38855.23
596.41	39110.35
596.57	39360.79
596.73	39409.94
596.88	39192.27
597.04	39051.84
597.20	39344.41
597.36	39131.42
597.51	39749.32
597.67	39620.59
597.83	39079.92
597.99	39529.31
598.14	39409.94
598.30	39536.33
598.46	39264.83
598.61	39475.48
598.77	39463.77
598.93	39311.64
599.09	39711.87
599.24	39641.65
599.40	39969.33
599.56	39431.01
599.71	39597.18
599.87	39765.70
600.03	39199.29
600.18	39564.42
600.34	39765.70
600.50	39276.53
600.65	39033.11
600.81	40102.74
600.97	39559.73
601.12	39807.83
601.28	39325.68
601.44	39482.50
601.59	39545.69
601.75	39416.96
601.91	39622.93
602.06	39335.04
602.22	39765.70
602.37	39440.37
602.53	39545.69
602.69	39889.75
602.84	39737.62
603.00	39337.38
603.16	39372.49
603.31	39784.43
603.47	39243.76
603.62	39718.89
603.78	39634.63
603.94	39431.01
604.09	39597.18
604.25	39222.70
604.40	39351.43
604.56	39931.88
604.71	39372.49
604.87	39812.51
605.03	39409.94
605.18	39608.89
605.34	39086.95
605.49	39269.51
605.65	39360.79
605.80	39454.41
605.96	39105.67
606.12	39592.50
606.27	39915.50
606.43	39601.86
606.58	39835.92
606.74	39634.63
606.89	39358.45
607.05	39510.58
607.20	39470.79
607.36	38969.92
607.51	38890.34
607.67	39150.14
607.82	39618.25
607.98	39632.29
608.13	39356.11
608.29	39604.20
608.44	39379.51
608.60	39159.50
608.75	39386.54
608.91	39339.72
609.06	39311.64
609.22	39180.57
609.37	39105.67
609.53	39281.21
609.68	39103.33
609.84	39089.29
609.99	39477.82
610.15	39751.66
610.30	39754.00
610.46	40154.23
610.61	39632.29
610.76	39716.55
610.92	40065.29
611.07	40189.34
611.23	40252.53
611.38	40423.39
611.54	40301.68
611.69	40081.67
611.84	39913.16
612.00	40175.30
612.15	40037.20
612.31	40039.54
612.46	39636.97
612.62	39161.84
612.77	39096.31
612.92	39337.38
613.08	38993.32
613.23	39360.79
613.39	39161.84
613.54	39313.98
613.69	39199.29
613.85	38962.90
614.00	39386.54
614.15	39583.14
614.31	39136.10
614.46	39681.44
614.62	39356.11
614.77	38841.19
614.92	38934.81
615.08	38827.15
615.23	38646.93
615.38	38855.23
615.54	38443.30
615.69	38417.55
615.84	38724.16
616.00	38958.22
616.15	39065.88
616.30	39023.75
616.46	38595.43
616.61	38930.13
616.76	38763.95
616.92	38146.05
617.07	38675.01
617.22	38323.93
617.37	38216.27
617.53	38368.40
617.68	38677.35
617.83	38314.57
617.99	38602.46
618.14	38410.53
618.29	38380.10
618.45	38412.87
618.60	38251.38
618.75	38089.88
618.90	37860.51
619.06	37916.68
619.21	37860.51
619.36	38122.65
619.51	38005.62
619.67	38234.99
619.82	38000.94
619.97	38171.80
620.12	38302.87
620.28	38176.48
620.43	38590.75
620.58	38110.94
620.73	38075.84
620.89	38335.63
621.04	37972.85
621.19	37954.13
621.34	38169.46
621.49	37502.40
621.65	37663.90
621.80	38174.14
621.95	38007.96
622.10	37972.85
622.25	37633.47
622.41	37865.19
622.56	37715.39
622.71	37928.38
622.86	37406.44
623.01	37682.62
623.16	37661.56
623.32	37432.19
623.47	37638.15
623.62	37731.78
623.77	37525.81
623.92	37493.04
624.07	38155.41
624.23	37724.75
624.38	38197.54
624.53	37699.01
624.68	37549.21
624.83	37710.71
624.98	37284.73
625.13	37291.76
625.29	37413.46
625.44	37387.72
625.59	36973.44
625.74	37244.94
625.89	37689.65
626.04	37303.46
626.19	37125.58
626.34	36943.02
626.49	36715.98
626.65	37053.02
626.80	36893.86
626.95	36968.76
627.10	36617.68
627.25	36863.44
627.40	36685.56
627.55	36919.61
627.70	36943.02
627.85	36987.49
628.00	36720.66
628.15	36753.43
628.30	36966.42
628.45	36617.68
628.60	36322.77
628.76	36404.69
628.91	36723.01
629.06	36584.91
629.21	36531.08
629.36	36601.30
629.51	36385.97
629.66	36308.73
629.81	36500.65
629.96	36451.50
630.11	36877.48
630.26	36851.73
630.41	36833.01
630.56	36617.68
630.71	36376.61
630.86	36896.20
631.01	36615.34
631.16	36900.89
631.31	36121.49
631.46	35447.41
631.61	36198.73
631.76	36683.22
631.91	36144.89
632.06	36147.23
632.21	36137.87
632.36	36444.48
632.51	35983.40
632.66	36371.92
632.81	36079.36
632.96	35882.75
633.10	36095.74
633.25	36140.21
633.40	35629.98
633.55	36156.60
633.70	35864.03
633.85	36149.57
634.00	36098.08
634.15	36343.84
634.30	35964.67
634.45	35906.16
634.60	36336.82
634.75	36046.59
634.90	35608.91
635.05	36091.06
635.19	35697.85
635.34	35857.01
635.49	35913.18
635.64	35981.06
635.79	35786.79
635.94	35388.90
636.09	35154.85
636.24	35747.00
636.39	35470.82
636.53	35842.96
636.68	35395.92
636.83	35346.77
636.98	35613.59
637.13	35185.27
637.28	35559.76
637.43	35306.98
637.57	35751.68
637.72	35026.12
637.87	35044.84
638.02	35152.51
638.17	34974.63
638.32	34895.05
638.46	35086.97
638.61	35206.34
638.76	35480.18
638.91	35655.72
639.06	35196.98
639.20	35487.20
639.35	35409.96
639.50	35344.43
639.65	35145.48
639.80	34962.92
639.94	35232.08
640.09	34560.35
640.24	34974.63
640.39	34773.34
640.54	34581.42
640.68	34733.55
640.83	34529.92
640.98	34490.13
641.13	34483.11
641.27	35005.05
641.42	35012.07
641.57	34672.70
641.72	34953.56
641.86	34808.45
642.01	34445.66
642.16	34260.76
642.31	34623.54
642.45	34527.58
642.60	34202.25
642.75	34686.74
642.90	34916.11
643.04	34043.09
643.19	34099.26
643.34	34895.05
643.48	34595.46
643.63	34824.83
643.78	34183.52
643.93	33926.07
644.07	34230.33
644.22	34094.58
644.37	34450.35
644.51	34508.86
644.66	34078.20
644.81	34635.25
644.95	34597.80
645.10	34410.56
645.25	34448.00
645.39	34625.89
645.54	34429.28
645.69	34492.47
645.83	34553.33
645.98	34211.61
646.13	34220.97
646.27	34167.14
646.42	34068.84
646.57	34295.87
646.71	33930.75
646.86	33874.57
647.00	34005.64
647.15	34167.14
647.30	34071.18
647.44	33684.99
647.59	33722.44
647.74	33813.72
647.88	34288.85
648.03	33851.17
648.17	33673.29
648.32	33472.00
648.47	34043.09
648.61	33610.09
648.76	34031.39
648.90	33837.12
649.05	33710.74
649.20	33902.66
649.34	34525.24
649.49	33734.14
649.63	34052.45
649.78	33972.88
649.92	33944.79
650.07	34206.93
650.21	33436.89
650.36	33715.42
650.51	33233.27
650.65	33408.81
650.80	33841.81
650.94	33535.20
651.09	33319.87
651.23	33413.49
651.38	33184.12
651.52	33188.80
651.67	33516.47
651.81	33343.27
651.96	33141.99
652.10	33291.78
652.25	33214.54
652.39	32926.66
652.54	32648.13
652.68	33085.81
652.83	33415.83
652.97	33247.31
653.12	32940.70
653.26	32891.55
653.41	33331.57
653.55	33259.01
653.70	33394.76
653.84	32926.66
653.99	32971.13
654.13	32816.65
654.27	33013.26
654.42	32301.73
654.56	32940.70
654.71	32818.99
654.85	33184.12
655.00	32933.68
655.14	32465.57
655.29	32591.96
655.43	32577.92
655.57	32526.42
655.72	32566.21
655.86	32713.67
656.01	32437.48
656.15	33062.41
656.30	32905.59
656.44	32423.44
656.58	32652.81
656.73	32311.10
656.87	32779.20
657.01	32479.61
657.16	32346.20
657.30	32479.61
657.45	32772.18
657.59	31931.93
657.73	32268.97
657.88	32215.13
658.02	32224.50
658.16	32280.67
658.31	31936.61
658.45	32533.45
658.60	31969.38
658.74	32418.76
658.88	31700.22
659.03	31943.63
659.17	31796.18
659.31	32095.77
659.46	31924.91
659.60	32217.47
659.74	32161.30
659.89	32016.19
660.03	31791.50
660.17	31740.00
660.32	31377.22
660.46	31349.14
660.60	31695.53
660.74	31445.10
660.89	31864.05
661.03	31264.88
661.17	31637.02
661.32	31632.34
661.46	31735.32
661.60	31316.37
661.74	30801.45
661.89	31182.96
662.03	31229.77
662.17	31325.73
662.31	30897.41
662.46	31171.25
662.60	31033.16
662.74	31274.24
662.88	31089.34
663.03	30960.61
663.17	31108.06
663.31	30932.52
663.45	31433.39
663.60	30548.67
663.74	30810.81
663.88	30724.21
664.02	30682.08
664.17	30635.27
664.31	30382.49
664.45	30237.38
664.59	30455.05
664.73	30801.45
664.88	30759.32
665.02	30309.94
665.16	30756.98
665.30	30607.19
665.44	30462.07
665.59	30050.14
665.73	30293.55
665.87	29790.34
666.01	29776.30
666.15	29809.06
666.29	29757.57
666.44	30047.80
666.58	30078.22
666.72	29418.19
666.86	30040.78
667.00	29893.32
667.14	29567.99
667.28	29970.56
667.43	29872.26
667.57	29853.53
667.71	29886.30
667.85	29764.59
667.99	29085.84
668.13	29434.58
668.27	29139.67
668.41	29298.83
668.56	28957.11
668.70	29062.43
668.84	28952.43
668.98	29017.96
669.12	29149.03
669.26	28865.83
669.40	28943.06
669.54	28638.80
669.68	28961.79
669.82	28797.95
669.96	29099.88
670.10	28489.00
670.25	29113.92
670.39	28332.18
670.53	28582.62
670.67	28409.42
670.81	28762.84
670.95	28397.72
671.09	28383.68
671.23	28355.59
671.37	28507.72
671.51	28308.78
671.65	28652.84
671.79	28119.20
671.93	28266.65
672.07	28465.60
672.21	28224.52
672.35	28034.94
672.49	28404.74
672.63	27892.16
672.77	27777.48
672.91	27838.33
673.05	27618.32
673.19	27721.30
673.33	27292.99
673.47	26981.70
673.61	27253.20
673.75	27456.82
673.89	27360.86
674.03	27386.61
674.17	27091.70
674.31	27534.06
674.45	27274.26
674.59	27435.76
674.73	27234.47
674.87	27215.75
675.01	26639.98
675.15	26843.60
675.29	27089.36
675.43	26930.20
675.56	26923.18
675.70	26923.18
675.84	26630.62
675.98	25652.27
676.12	26349.75
676.26	26368.48
676.40	26314.64
676.54	26588.49
676.68	26106.34
676.82	25942.50
676.96	25912.07
677.10	26246.77
677.23	26022.08
677.37	26073.57
677.51	26237.41
677.65	25603.12
677.79	25507.16
677.93	25427.58
678.07	25163.10
678.21	25022.67
678.34	25146.72
678.48	25397.15
678.62	25071.82
678.76	24849.47
678.90	25181.82
679.04	24886.92
679.18	24943.09
679.31	24531.15
679.45	24931.39
679.59	24849.47
679.73	25064.80
679.87	24772.23
680.00	24561.58
680.14	24451.58
680.28	24336.89
680.42	23768.14
680.56	24313.48
680.70	24194.12
680.83	23894.53
680.97	23686.22
681.11	23953.04
681.25	24025.60
681.39	23573.88
681.52	23868.78
681.66	23681.54
681.80	23733.03
681.94	23625.37
682.07	23185.35
682.21	23709.63
682.35	23274.29
682.49	23428.76
682.62	23154.92
682.76	22937.25
682.90	22932.57
683.04	22892.78
683.17	22742.99
683.31	22644.68
683.45	23073.00
683.59	22860.01
683.72	22691.49
683.86	22677.45
684.00	22401.27
684.13	22408.29
684.27	22043.17
684.41	22188.28
684.55	22345.09
684.68	22494.89
684.82	21996.35
684.96	22115.72
685.09	21961.25
685.23	22010.40
685.37	22146.15
685.50	21874.65
685.64	21832.52
685.78	21357.39
685.91	21535.27
686.05	21722.51
686.19	20973.54
686.32	21277.81
686.46	21200.57
686.60	21511.86
686.73	21362.07
686.87	21413.56
687.01	21359.73
687.14	21188.87
687.28	20912.69
687.42	20655.23
687.55	20627.14
687.69	20683.31
687.82	20554.58
687.96	20507.77
688.10	20304.15
688.23	20720.76
688.37	20168.40
688.50	20264.36
688.64	20208.19
688.78	20496.07
688.91	20243.29
689.05	19829.02
689.18	19634.75
689.32	19538.79
689.46	19644.12
689.59	19885.19
689.73	19480.28
689.86	19445.17
690.00	19398.36
690.13	19520.07
690.27	19414.74
690.41	19543.47
690.54	19117.50
690.68	18862.38
690.81	19208.78
690.95	19271.97
691.08	19002.81
691.22	18572.15
691.35	18443.42
691.49	18916.21
691.62	18836.63
691.76	18862.38
691.89	18806.20
692.03	18558.11
692.16	18574.49
692.30	18487.89
692.43	18167.24
692.57	18150.85
692.70	18045.53
692.84	18129.79
692.97	18015.10
693.11	18104.04
693.24	18176.60
693.38	17523.59
693.51	17610.19
693.65	17886.37
693.78	17907.44
693.92	17715.51
694.05	17532.95
694.19	17750.62
694.32	17855.95
694.45	17970.63
694.59	17542.32
694.72	17198.26
694.86	16996.97
694.99	16601.42
695.13	16793.34
695.26	16828.45
695.39	16664.61
695.53	16896.33
695.66	16472.69
695.80	16521.84
695.93	16383.75
696.07	16175.44
696.20	16552.27
696.33	16496.10
696.47	16622.48
696.60	16098.20
696.73	16091.18
696.87	16346.30
697.00	15981.18
697.14	16163.74
697.27	15627.76
697.40	15943.73
697.54	15637.12
697.67	15632.44
697.80	15255.61
697.94	15424.13
698.07	15379.66
698.21	15524.77
698.34	15494.35
698.47	15318.81
698.61	15129.22
698.74	15138.58
698.87	15328.17
699.01	15302.42
699.14	15164.33
699.27	14937.30
699.40	14970.07
699.54	15056.67
699.67	14991.13
699.80	14773.46
699.94	14675.16
700.07	14602.60
700.20	14122.79
700.34	14527.71
700.47	14370.89
700.60	14436.42
700.73	14190.67
700.87	14253.86
701.00	14207.05
701.13	14057.26
701.26	14090.02
701.40	14188.33
701.53	13727.24
701.66	13664.05
701.79	13884.06
701.93	13760.01
702.06	13802.14
702.19	13884.06
702.32	13514.25
702.46	13429.99
702.59	13476.80
702.72	13343.39
702.85	13188.92
702.99	13121.04
703.12	13085.94
703.25	13039.12
703.38	12744.22
703.51	13060.19
703.65	12961.89
703.78	13020.40
703.91	12854.22
704.04	13245.09
704.17	12996.99
704.31	13048.49
704.44	12844.86
704.57	12521.87
704.70	12601.44
704.83	12409.52
704.96	12327.60
705.10	12255.04
705.23	12381.43
>>>>>End Processed Spectral Data<<<<<
