SpectraSuite Data File
++++++++++++++++++++++++++++++++++++
Date: Thu Oct 24 13:21:06 EDT 2013
User: stostad
Dark Spectrum Present: No
Reference Spectrum Present: No
Number of Sampled Component Spectra: 1
Spectrometers: USB2+H05261
Integration Time (usec): 100000 (USB2+H05261)
Spectra Averaged: 1 (USB2+H05261)
Boxcar Smoothing: 0 (USB2+H05261)
Correct for Electrical Dark: No (USB2+H05261)
Strobe/Lamp Enabled: No (USB2+H05261)
Correct for Detector Non-linearity: No (USB2+H05261)
Correct for Stray Light: No (USB2+H05261)
Number of Pixels in Processed Spectrum: 2048
>>>>>Begin Processed Spectral Data<<<<<
365.73	489.17
365.92	489.17
366.12	489.17
366.32	547.69
366.52	489.17
366.72	425.98
366.91	421.30
367.11	517.26
367.31	397.89
367.51	484.49
367.70	383.85
367.90	402.57
368.10	437.68
368.30	416.62
368.49	477.47
368.69	498.53
368.89	521.94
369.09	493.85
369.28	449.38
369.48	440.02
369.68	468.11
369.87	582.79
370.07	514.92
370.27	521.94
370.47	564.07
370.66	589.82
370.86	676.41
371.06	741.95
371.25	678.76
371.45	725.57
371.65	753.65
371.84	795.78
372.04	767.70
372.24	772.38
372.44	744.29
372.63	763.01
372.83	777.06
373.03	765.36
373.22	751.31
373.42	802.80
373.62	777.06
373.81	739.61
374.01	851.96
374.21	866.00
374.40	774.72
374.60	772.38
374.79	823.87
374.99	819.19
375.19	772.38
375.38	774.72
375.58	840.25
375.78	809.83
375.97	835.57
376.17	844.93
376.37	774.72
376.56	774.72
376.76	772.38
376.95	774.72
377.15	851.96
377.35	821.53
377.54	802.80
377.74	826.21
377.93	784.08
378.13	847.27
378.33	873.02
378.52	905.79
378.72	858.98
378.91	882.38
379.11	788.76
379.31	786.42
379.50	812.17
379.70	830.89
379.89	833.23
380.09	910.47
380.28	814.51
380.48	835.57
380.68	851.96
380.87	837.91
381.07	781.74
381.26	919.83
381.46	873.02
381.65	887.06
381.85	840.25
382.04	889.40
382.24	863.66
382.43	891.74
382.63	842.59
382.83	880.04
383.02	957.28
383.22	905.79
383.41	915.15
383.61	891.74
383.80	940.90
384.00	910.47
384.19	882.38
384.39	924.51
384.58	898.77
384.78	812.17
384.97	910.47
385.17	924.51
385.36	856.64
385.56	971.32
385.75	938.55
385.95	917.49
386.14	903.45
386.34	915.15
386.53	891.74
386.72	880.04
386.92	997.07
387.11	924.51
387.31	905.79
387.50	889.40
387.70	877.70
387.89	929.19
388.09	990.05
388.28	966.64
388.48	896.43
388.67	952.60
388.86	985.37
389.06	896.43
389.25	957.28
389.45	915.15
389.64	929.19
389.84	950.26
390.03	1006.43
390.22	952.60
390.42	940.90
390.61	943.24
390.81	980.68
391.00	976.00
391.19	1055.58
391.39	1071.97
391.58	931.53
391.78	1048.56
391.97	924.51
392.16	964.30
392.36	1055.58
392.55	940.90
392.75	1001.75
392.94	931.53
393.13	1039.20
393.33	1015.79
393.52	1064.94
393.71	1041.54
393.91	1036.86
394.10	1027.50
394.29	1029.84
394.49	1069.62
394.68	1060.26
394.88	994.73
395.07	1107.07
395.26	1029.84
395.46	1100.05
395.65	1078.99
395.84	1107.07
396.04	1074.31
396.23	1165.59
396.42	1090.69
396.62	1149.20
396.81	1130.48
397.00	1083.67
397.19	1132.82
397.39	1118.78
397.58	1198.35
397.77	1095.37
397.97	1100.05
398.16	1118.78
398.35	1160.91
398.55	1107.07
398.74	1214.74
398.93	1163.25
399.12	1139.84
399.32	1174.95
399.51	1165.59
399.70	1277.93
399.90	1181.97
400.09	1238.14
400.28	1306.02
400.47	1207.72
400.67	1217.08
400.86	1224.10
401.05	1284.95
401.24	1238.14
401.44	1261.55
401.63	1247.51
401.82	1249.85
402.01	1221.76
402.21	1270.91
402.40	1317.72
402.59	1249.85
402.78	1252.19
402.97	1352.83
403.17	1357.51
403.36	1291.98
403.55	1268.57
403.74	1252.19
403.93	1397.30
404.13	1357.51
404.32	1399.64
404.51	1329.42
404.70	1357.51
404.89	1245.16
405.09	1427.73
405.28	1350.49
405.47	1343.47
405.66	1338.79
405.85	1373.89
406.05	1401.98
406.24	1392.62
406.43	1458.15
406.62	1397.30
406.81	1413.68
407.00	1444.11
407.20	1418.36
407.39	1413.68
407.58	1453.47
407.77	1446.45
407.96	1416.02
408.15	1500.28
408.34	1519.01
408.54	1514.33
408.73	1561.14
408.92	1432.41
409.11	1493.26
409.30	1486.24
409.49	1467.52
409.68	1465.18
409.87	1488.58
410.07	1558.80
410.26	1629.01
410.45	1547.09
410.64	1523.69
410.83	1673.48
411.02	1554.12
411.21	1544.75
411.40	1607.95
411.59	1645.40
411.78	1549.43
411.98	1605.61
412.17	1605.61
412.36	1640.72
412.55	1694.55
412.74	1678.16
412.93	1643.06
413.12	1750.72
413.31	1696.89
413.50	1736.68
413.69	1666.46
413.88	1781.15
414.07	1792.85
414.26	1713.27
414.45	1739.02
414.64	1769.44
414.83	1804.55
415.02	1795.19
415.22	1832.64
415.41	1881.79
415.60	1842.00
415.79	1832.64
415.98	1867.75
416.17	1970.73
416.36	1895.83
416.55	1966.05
416.74	1959.03
416.93	1888.81
417.12	1853.70
417.31	1959.03
417.50	2031.58
417.69	2012.86
417.88	1984.77
418.07	2036.27
418.26	1952.01
418.45	1954.35
418.64	2083.08
418.83	2069.03
419.02	2092.44
419.21	2069.03
419.39	2050.31
419.58	2052.65
419.77	2071.37
419.96	2153.29
420.15	2104.14
420.34	2118.18
420.53	2052.65
420.72	2143.93
420.91	2050.31
421.10	2181.38
421.29	2324.15
421.48	2113.50
421.67	2267.98
421.86	2195.42
422.05	2150.95
422.24	2078.40
422.43	2202.44
422.61	2136.91
422.80	2253.94
422.99	2167.34
423.18	2258.62
423.37	2263.30
423.56	2303.09
423.75	2228.19
423.94	2270.32
424.13	2019.88
424.32	2146.27
424.50	2321.81
424.69	2300.75
424.88	2289.04
425.07	2263.30
425.26	2251.60
425.45	2286.70
425.64	2181.38
425.83	2181.38
426.01	2211.81
426.20	2237.55
426.39	2263.30
426.58	2291.38
426.77	2256.28
426.96	2291.38
427.15	2359.26
427.33	2251.60
427.52	2286.70
427.71	2349.90
427.90	2293.72
428.09	2300.75
428.28	2394.37
428.46	2356.92
428.65	2380.32
428.84	2480.97
429.03	2478.63
429.22	2373.30
429.40	2326.49
429.59	2473.95
429.78	2317.13
429.97	2282.02
430.16	2443.52
430.34	2396.71
430.53	2483.31
430.72	2569.91
430.91	2420.11
431.10	2417.77
431.28	2576.93
431.47	2478.63
431.66	2387.35
431.85	2509.05
432.03	2452.88
432.22	2649.49
432.41	2588.63
432.60	2588.63
432.79	2593.31
432.97	2576.93
433.16	2661.19
433.35	2616.72
433.54	2590.97
433.72	2640.12
433.91	2525.44
434.10	2677.57
434.28	2527.78
434.47	2605.02
434.66	2658.85
434.85	2670.55
435.03	2689.28
435.22	3038.02
435.41	3232.28
435.59	3091.85
435.78	2892.90
435.97	2906.95
436.16	2841.41
436.34	2813.32
436.53	2656.51
436.72	2761.83
436.90	2719.70
437.09	2846.09
437.28	2724.38
437.46	2827.37
437.65	2782.90
437.84	2932.69
438.02	2813.32
438.21	2757.15
438.40	2834.39
438.58	2895.24
438.77	3068.44
438.96	2958.44
439.14	3002.91
439.33	3000.57
439.52	2920.99
439.70	2984.18
439.89	2979.50
440.08	2951.42
440.26	2995.89
440.45	3054.40
440.63	3019.29
440.82	3016.95
441.01	3148.02
441.19	3028.65
441.38	3082.49
441.57	3103.55
441.75	3176.11
441.94	3290.79
442.12	3258.03
442.31	3213.56
442.50	3269.73
442.68	3169.09
442.87	3318.88
443.05	3115.25
443.24	3328.24
443.43	3173.77
443.61	3157.38
443.80	3349.31
443.98	3246.32
444.17	3218.24
444.35	3267.39
444.54	3328.24
444.73	3276.75
444.91	3260.37
445.10	3307.18
445.28	3300.16
445.47	3417.18
445.65	3389.10
445.84	3496.76
446.02	3426.54
446.21	3351.65
446.39	3260.37
446.58	3356.33
446.77	3438.25
446.95	3442.93
447.14	3353.99
447.32	3485.06
447.51	3272.07
447.69	3382.07
447.88	3382.07
448.06	3499.10
448.25	3410.16
448.43	3365.69
448.62	3421.86
448.80	3435.91
448.99	3414.84
449.17	3503.78
449.36	3342.28
449.54	3480.38
449.73	3531.87
449.91	3618.47
450.10	3473.36
450.28	3536.55
450.46	3590.38
450.65	3548.25
450.83	3576.34
451.02	3564.64
451.20	3723.79
451.39	3618.47
451.57	3749.54
451.76	3506.12
451.94	3662.94
452.13	3637.19
452.31	3627.83
452.49	3634.85
452.68	3569.32
452.86	3658.26
453.05	3721.45
453.23	3665.28
453.42	3698.05
453.60	3712.09
453.78	3707.41
453.97	3728.47
454.15	3660.60
454.34	3684.00
454.52	3763.58
454.70	3756.56
454.89	3796.35
455.07	3716.77
455.26	3786.99
455.44	3904.01
455.62	3777.62
455.81	3852.52
455.99	3911.04
456.17	3859.54
456.36	3878.27
456.54	3941.46
456.73	3981.25
456.91	4028.06
457.09	3906.35
457.28	4131.05
457.46	3962.53
457.64	4128.70
457.83	3885.29
458.01	3946.14
458.19	3983.59
458.38	3899.33
458.56	4149.77
458.74	4023.38
458.93	4170.83
459.11	4023.38
459.29	4100.62
459.48	4042.11
459.66	4152.11
459.84	4100.62
460.03	4208.28
460.21	4196.58
460.39	4278.50
460.57	4229.35
460.76	4280.84
460.94	4229.35
461.12	4311.27
461.31	4285.52
461.49	4210.62
461.67	4227.01
461.85	4271.48
462.04	4231.69
462.22	4650.64
462.40	4262.12
462.59	4320.63
462.77	4456.38
462.95	4542.98
463.13	4461.06
463.32	4447.02
463.50	4468.08
463.68	4498.51
463.86	4400.21
464.05	4351.06
464.23	4402.55
464.41	4463.40
464.59	4444.68
464.78	4550.00
464.96	4414.25
465.14	4411.91
465.32	4578.09
465.50	4648.30
465.69	4608.51
465.87	4587.45
466.05	4528.94
466.23	4643.62
466.41	4482.13
466.60	4643.62
466.78	4472.76
466.96	4634.26
467.14	4608.51
467.32	4781.71
467.51	4849.59
467.69	4425.95
467.87	4594.47
468.05	4634.26
468.23	4650.64
468.41	4638.94
468.60	4781.71
468.78	4753.63
468.96	4765.33
469.14	4744.27
469.32	4894.06
469.50	4791.08
469.69	4863.63
469.87	4814.48
470.05	4596.81
470.23	4835.55
470.41	4851.93
470.59	4891.72
470.77	4671.71
470.95	5071.94
471.14	5088.32
471.32	4903.42
471.50	4896.40
471.68	4975.98
471.86	4959.60
472.04	5015.77
472.22	5142.16
472.40	4957.25
472.58	5088.32
472.77	5125.77
472.95	5029.81
473.13	5275.57
473.31	5163.22
473.49	5053.22
473.67	5102.37
473.85	5305.99
474.03	5341.10
474.21	5301.31
474.39	5305.99
474.57	5289.61
474.75	5411.32
474.93	5514.30
475.12	5397.28
475.30	5479.19
475.48	5378.55
475.66	5432.38
475.84	5586.86
476.02	5523.66
476.20	5540.05
476.38	5544.73
476.56	5692.18
476.74	5774.10
476.92	5727.29
477.10	5701.54
477.28	5746.02
477.46	5717.93
477.64	5804.53
477.82	5802.19
478.00	5968.37
478.18	6040.92
478.36	6040.92
478.54	6106.46
478.72	6127.52
478.90	6228.17
479.08	6324.13
479.26	6331.15
479.44	6263.27
479.62	6260.93
479.80	6415.41
479.98	6356.90
480.16	6689.25
480.34	6548.82
480.52	6462.22
480.70	6506.69
480.88	6553.50
481.06	6494.99
481.24	6715.00
481.41	6792.23
481.59	6710.32
481.77	6911.60
481.95	6911.60
482.13	6932.67
482.31	6869.47
482.49	6920.96
482.67	6984.16
482.85	7220.55
483.03	7272.04
483.21	7311.83
483.39	7480.35
483.57	7438.22
483.74	7267.36
483.92	7438.22
484.10	7372.69
484.28	7557.59
484.46	7672.28
484.64	7770.58
484.82	7777.60
485.00	7742.49
485.18	7796.32
485.35	7918.03
485.53	7997.61
485.71	8074.85
485.89	8121.66
486.07	8168.47
486.25	8187.19
486.43	8304.22
486.61	8257.41
486.78	8215.28
486.96	8383.80
487.14	8318.26
487.32	8493.80
487.50	8596.79
487.68	8510.19
487.85	8777.01
488.03	9027.45
488.21	8896.38
488.39	8940.85
488.57	8980.64
488.75	8791.05
488.92	8912.76
489.10	9004.04
489.28	9191.28
489.46	9413.63
489.64	9071.92
489.81	9315.33
489.99	9528.32
490.17	9392.57
490.35	9687.48
490.53	9624.28
490.70	9591.52
490.88	9685.14
491.06	9774.08
491.24	9680.46
491.41	10068.98
491.59	10083.03
491.77	10010.47
491.95	10080.69
492.13	10059.62
492.30	10354.53
492.48	10207.08
492.66	10134.52
492.84	10157.92
493.01	10303.04
493.19	10333.47
493.37	10490.28
493.54	10342.83
493.72	10590.92
493.90	10485.60
494.08	10558.16
494.25	10724.33
494.43	10785.19
494.61	10930.30
494.79	10773.49
494.96	10946.69
495.14	10974.77
495.32	11042.65
495.49	10890.51
495.67	11098.82
495.85	11218.19
496.02	11136.27
496.20	11499.05
496.38	11349.26
496.55	11360.96
496.73	11798.64
496.91	11606.72
497.09	11765.87
497.26	11695.66
497.44	11683.95
497.62	11772.89
497.79	11761.19
497.97	11808.00
498.14	11681.61
498.32	11941.41
498.50	11929.71
498.67	12182.49
498.85	12166.10
499.03	12037.38
499.20	12236.32
499.38	12414.20
499.56	12428.24
499.73	12280.79
499.91	12219.94
500.08	12182.49
500.26	12266.75
500.44	12439.95
500.61	12692.73
500.79	12493.78
500.97	12744.22
501.14	12603.78
501.32	12730.17
501.49	12910.40
501.67	12772.30
501.84	13055.51
502.02	12847.20
502.20	12676.34
502.37	12980.61
502.55	12922.10
502.72	12971.25
502.90	13116.36
503.07	13097.64
503.25	13027.42
503.43	13275.52
503.60	13343.39
503.78	13301.26
503.95	13221.69
504.13	13371.48
504.30	13397.23
504.48	13586.81
504.65	13647.66
504.83	13561.06
505.01	13511.91
505.18	13472.12
505.36	13661.71
505.53	13862.99
505.71	13722.56
505.88	13909.80
506.06	13717.88
506.23	14083.00
506.41	13877.04
506.58	13872.36
506.76	13781.07
506.93	14232.80
507.11	13994.06
507.28	14174.28
507.46	14099.39
507.63	14171.94
507.81	14174.28
507.98	13989.38
508.16	13963.64
508.33	14193.01
508.50	14321.74
508.68	14239.82
508.85	14534.73
509.03	14581.54
509.20	14480.89
509.38	14677.50
509.55	14743.03
509.73	14668.14
509.90	14913.89
510.08	14562.81
510.25	14595.58
510.42	14710.27
510.60	14857.72
510.77	14913.89
510.95	14846.02
511.12	14810.91
511.30	14937.30
511.47	14925.60
511.64	15248.59
511.82	15124.54
511.99	14953.68
512.17	15311.78
512.34	15199.44
512.51	15365.62
512.69	15571.58
512.86	15496.69
513.04	15543.50
513.21	15538.82
513.38	15379.66
513.56	15288.38
513.73	15557.54
513.90	15880.53
514.08	15562.22
514.25	15433.49
514.43	15634.78
514.60	15747.12
514.77	15779.89
514.95	15798.62
515.12	15840.75
515.29	15861.81
515.47	15922.66
515.64	16135.65
515.81	15796.28
515.99	15824.36
516.16	16381.41
516.33	15976.50
516.51	16093.52
516.68	16060.76
516.85	16135.65
517.03	16116.93
517.20	16217.57
517.37	16208.21
517.54	16123.95
517.72	16409.50
517.89	16388.43
518.06	16482.05
518.24	16250.34
518.41	16556.95
518.58	16383.75
518.75	16397.79
518.93	16493.76
519.10	16542.91
519.27	16430.56
519.45	16650.57
519.62	16809.73
519.79	16816.75
519.96	16716.11
520.14	16631.85
520.31	16650.57
520.48	16685.68
520.65	16758.24
520.83	16760.58
521.00	16931.44
521.17	16727.81
521.34	17015.69
521.52	17158.47
521.69	17252.09
521.86	17502.53
522.03	17226.34
522.20	17106.98
522.38	17181.87
522.55	17249.75
522.72	17380.82
522.89	17408.90
523.07	17465.08
523.24	17420.61
523.41	17181.87
523.58	17305.92
523.75	17401.88
523.92	17287.20
524.10	17490.82
524.27	17771.69
524.44	17338.69
524.61	17397.20
524.78	17411.25
524.96	17811.48
525.13	17504.87
525.30	18017.44
525.47	18036.17
525.64	17919.14
525.81	17825.52
525.98	17855.95
526.16	17914.46
526.33	17783.39
526.50	18106.38
526.67	17914.46
526.84	18059.57
527.01	17972.97
527.18	18134.47
527.36	18326.39
527.53	18094.68
527.70	18108.72
527.87	18431.72
528.04	18455.12
528.21	18459.81
528.38	18235.11
528.55	18513.64
528.72	18595.56
528.89	18403.63
529.07	18389.59
529.24	18274.90
529.41	18265.54
529.58	18504.28
529.75	18747.69
529.92	18733.65
530.09	18848.33
530.26	18586.19
530.43	18574.49
530.60	18567.47
530.77	18712.58
530.94	18625.98
531.11	18911.53
531.28	19073.03
531.46	18719.60
531.63	18827.27
531.80	18689.18
531.97	18838.97
532.14	19063.66
532.31	18862.38
532.48	19171.33
532.65	19140.90
532.82	18752.37
532.99	18656.41
533.16	18897.49
533.33	18899.83
533.50	19185.37
533.67	19061.32
533.84	18824.93
534.01	19066.00
534.18	19101.11
534.35	19204.10
534.52	19246.23
534.69	19323.46
534.86	19435.81
535.03	19122.18
535.20	19447.51
535.37	19442.83
535.54	19393.68
535.71	19325.80
535.88	19405.38
536.05	19770.51
536.22	19592.62
536.38	19494.32
536.55	19513.05
536.72	19538.79
536.89	19770.51
537.06	19868.81
537.23	19742.42
537.40	19538.79
537.57	19924.98
537.74	19314.10
537.91	19915.62
538.08	19737.74
538.25	19763.48
538.42	19473.26
538.59	20133.29
538.75	20030.30
538.92	19779.87
539.09	20208.19
539.26	19845.40
539.43	20072.43
539.60	20065.41
539.77	19836.04
539.94	20439.90
540.11	20486.71
540.28	20313.51
540.44	20365.00
540.61	20147.33
540.78	19843.06
540.95	20542.88
541.12	20739.49
541.29	20449.26
541.46	20676.29
541.62	20666.93
541.79	20985.24
541.96	20353.30
542.13	20765.23
542.30	21092.91
542.47	20816.72
542.63	20985.24
542.80	20781.62
542.97	20975.88
543.14	21216.96
543.31	21303.56
543.48	21092.91
543.64	21179.51
543.81	21245.04
543.98	21010.99
544.15	21039.08
544.32	21411.22
544.48	21212.28
544.65	21074.18
544.82	21214.62
544.99	21240.36
545.16	21153.76
545.32	21345.69
545.49	21642.93
545.66	21994.01
545.83	22370.84
546.00	22015.08
546.16	21743.58
546.33	21399.52
546.50	21355.05
546.67	21570.38
546.83	21366.75
547.00	21385.47
547.17	21195.89
547.34	21172.49
547.50	21273.13
547.67	21479.10
547.84	21570.38
548.00	21823.16
548.17	21523.57
548.34	21380.79
548.51	21235.68
548.67	21345.69
548.84	21642.93
549.01	21261.43
549.18	21722.51
549.34	21699.11
549.51	21638.25
549.68	21233.34
549.84	21345.69
550.01	21514.20
550.18	21598.46
550.34	21111.63
550.51	21151.42
550.68	21551.65
550.84	21219.30
551.01	21542.29
551.18	21458.03
551.34	21596.12
551.51	21202.91
551.68	21408.88
551.84	21207.59
552.01	21593.78
552.18	21724.85
552.34	21324.62
552.51	22111.04
552.68	21537.61
552.84	21813.79
553.01	21975.29
553.18	21542.29
553.34	21394.84
553.51	21724.85
553.67	21685.06
553.84	21759.96
554.01	21865.28
554.17	21837.20
554.34	21734.21
554.51	21881.67
554.67	21858.26
554.84	21977.63
555.00	21682.72
555.17	21759.96
555.33	22082.95
555.50	21621.87
555.67	21862.94
555.83	21600.80
556.00	21671.02
556.16	22223.39
556.33	21977.63
556.50	21886.35
556.66	22066.57
556.83	21977.63
556.99	22036.14
557.16	21900.39
557.32	22209.34
557.49	22202.32
557.65	22195.30
557.82	22216.36
557.98	21846.56
558.15	21869.97
558.32	22118.06
558.48	22080.61
558.65	22239.77
558.81	22045.51
558.98	22043.17
559.14	22029.12
559.31	22087.64
559.47	22260.84
559.64	22345.09
559.80	22338.07
559.97	22146.15
560.13	22094.66
560.30	22380.20
560.46	22345.09
560.63	22274.88
560.79	22429.35
560.96	22260.84
561.12	22223.39
561.29	22258.49
561.45	22162.53
561.61	22499.57
561.78	22522.98
561.94	22616.60
562.11	22469.14
562.27	22654.05
562.44	22368.50
562.60	22560.42
562.77	22487.87
562.93	22630.64
563.10	22595.53
563.26	22209.34
563.42	22530.00
563.59	22408.29
563.75	22427.01
563.92	22656.39
564.08	22487.87
564.24	22565.10
564.41	22527.66
564.57	22581.49
564.74	22801.50
564.90	22728.94
565.07	22824.90
565.23	22457.44
565.39	22588.51
565.56	22759.37
565.72	22548.72
565.88	22906.82
566.05	22466.80
566.21	22288.92
566.38	22623.62
566.54	22738.30
566.70	22728.94
566.87	22705.54
567.03	22621.28
567.19	22970.02
567.36	22841.29
567.52	22625.96
567.68	22696.17
567.85	22548.72
568.01	22588.51
568.17	22457.44
568.34	22815.54
568.50	22724.26
568.66	22611.92
568.83	22986.40
568.99	22445.74
569.15	22614.26
569.32	22944.27
569.48	22534.68
569.64	22841.29
569.81	22574.47
569.97	22806.18
570.13	22649.36
570.30	22618.94
570.46	22892.78
570.62	22515.95
570.78	22581.49
570.95	22586.17
571.11	22852.99
571.27	23112.79
571.43	22277.22
571.60	22700.86
571.76	22988.74
571.92	22979.38
572.09	22754.69
572.25	23232.16
572.41	22902.14
572.57	23044.91
572.74	23065.98
572.90	22724.26
573.06	23065.98
573.22	22623.62
573.38	22576.81
573.55	22625.96
573.71	22382.54
573.87	22817.88
574.03	22689.15
574.20	23094.07
574.36	22836.61
574.52	22993.42
574.68	22782.77
574.84	22883.42
575.01	22953.63
575.17	22925.55
575.33	22792.14
575.49	22778.09
575.65	22918.53
575.82	22965.34
575.98	23388.97
576.14	23229.82
576.30	22944.27
576.46	23089.38
576.62	22916.19
576.79	23051.94
576.95	23023.85
577.11	22883.42
577.27	23026.19
577.43	22897.46
577.59	22888.10
577.75	22981.72
577.92	22654.05
578.08	23012.15
578.24	23035.55
578.40	22911.50
578.56	23058.96
578.72	23159.60
578.88	23264.92
579.04	23154.92
579.21	23049.60
579.37	23105.77
579.53	23145.56
579.69	23002.78
579.85	22998.10
580.01	23185.35
580.17	22860.01
580.33	23084.70
580.49	23283.65
580.65	23681.54
580.82	22965.34
580.98	22862.35
581.14	23117.47
581.30	23152.58
581.46	23065.98
581.62	22838.95
581.78	22611.92
581.94	22724.26
582.10	23028.53
582.26	22860.01
582.42	23220.45
582.58	22981.72
582.74	22951.29
582.90	22995.76
583.06	22867.03
583.22	23089.38
583.38	23054.28
583.54	23075.34
583.70	23042.57
583.86	23080.02
584.02	23168.96
584.18	23206.41
584.34	23264.92
584.50	23080.02
584.66	23360.89
584.82	23171.30
584.98	22883.42
585.14	22960.66
585.30	23115.13
585.46	23049.60
585.62	22541.70
585.78	23101.09
585.94	23225.14
586.10	23295.35
586.26	23166.62
586.42	23496.64
586.58	23267.27
586.74	23178.33
586.90	22906.82
587.06	23058.96
587.22	23445.15
587.38	23316.42
587.54	23314.08
587.70	23407.70
587.86	23307.05
588.02	23412.38
588.18	23358.55
588.34	23112.79
588.49	23578.56
588.65	23042.57
588.81	23285.99
588.97	23337.48
589.13	23051.94
589.29	23225.14
589.45	23117.47
589.61	23065.98
589.77	23475.57
589.93	23143.22
590.08	23300.03
590.24	23009.81
590.40	22925.55
590.56	23185.35
590.72	23028.53
590.88	23168.96
591.04	23082.36
591.20	23789.20
591.35	23716.65
591.51	23559.83
591.67	23498.98
591.83	23496.64
591.99	23337.48
592.15	23063.64
592.31	23594.94
592.46	23564.51
592.62	23257.90
592.78	23573.88
592.94	23051.94
593.10	23475.57
593.26	23449.83
593.41	23557.49
593.57	23213.43
593.73	23274.29
593.89	23321.10
594.05	23220.45
594.20	23161.94
594.36	23089.38
594.52	23248.54
594.68	23300.03
594.84	23065.98
594.99	23454.51
595.15	23094.07
595.31	23271.95
595.47	23091.73
595.62	23419.40
595.78	23356.21
595.94	23047.26
596.10	23342.16
596.25	23365.57
596.41	23014.49
596.57	23145.56
596.73	23616.01
596.88	23101.09
597.04	23594.94
597.20	23295.35
597.36	23096.41
597.51	23456.85
597.67	23400.68
597.83	23262.58
597.99	23377.27
598.14	23295.35
598.30	23454.51
598.46	23484.94
598.61	23218.11
598.77	23433.44
598.93	23307.05
599.09	23534.09
599.24	23704.95
599.40	23398.34
599.56	23407.70
599.71	23480.25
599.87	23307.05
600.03	23639.41
600.18	23473.23
600.34	23435.78
600.50	23274.29
600.65	23098.75
600.81	23791.55
600.97	23580.90
601.12	23623.03
601.28	23346.84
601.44	23587.92
601.59	22965.34
601.75	23496.64
601.91	23552.81
602.06	23761.12
602.22	23360.89
602.37	23473.23
602.53	23323.44
602.69	23700.26
602.84	23447.49
603.00	23634.73
603.16	23608.98
603.31	23569.19
603.47	23424.08
603.62	23351.52
603.78	23391.31
603.94	23122.15
604.09	23414.72
604.25	23374.93
604.40	23510.68
604.56	23222.80
604.71	23393.65
604.87	23264.92
605.03	23276.63
605.18	23405.36
605.34	23197.05
605.49	22946.61
605.65	23248.54
605.80	23311.74
605.96	23536.43
606.12	23494.30
606.27	23428.76
606.43	23379.61
606.58	23669.84
606.74	23601.96
606.89	23037.89
607.05	23094.07
607.20	22806.18
607.36	22831.93
607.51	23356.21
607.67	23613.66
607.82	23522.38
607.98	23309.40
608.13	23183.01
608.29	23173.64
608.44	23026.19
608.60	23051.94
608.75	23875.80
608.91	23421.74
609.06	23225.14
609.22	23339.82
609.37	23262.58
609.53	22967.68
609.68	23143.22
609.84	23131.51
609.99	23337.48
610.15	23269.61
610.30	23491.96
610.46	23868.78
610.61	23899.21
610.76	24149.65
610.92	24144.97
611.07	24357.96
611.23	24041.98
611.38	24432.85
611.54	24315.83
611.69	24219.86
611.84	24065.39
612.00	24201.14
612.15	23793.89
612.31	23452.17
612.46	23864.10
612.62	23585.58
612.77	23391.31
612.92	23648.77
613.08	23412.38
613.23	23325.78
613.39	23360.89
613.54	22958.31
613.69	23330.46
613.85	23358.55
614.00	23234.50
614.15	23405.36
614.31	23077.68
614.46	23241.52
614.62	23197.05
614.77	23112.79
614.92	23145.56
615.08	22988.74
615.23	23145.56
615.38	22895.12
615.54	22829.59
615.69	22733.62
615.84	23037.89
616.00	23185.35
616.15	22684.47
616.30	22724.26
616.46	22934.91
616.61	22581.49
616.76	22551.06
616.92	22637.66
617.07	22569.79
617.22	22867.03
617.37	22710.22
617.53	22703.20
617.68	22761.71
617.83	22618.94
617.99	22937.25
618.14	22726.60
618.29	22679.79
618.45	22778.09
618.60	22593.19
618.75	22618.94
618.90	22438.72
619.06	22331.05
619.21	22218.71
619.36	22218.71
619.51	22026.78
619.67	22075.93
619.82	22401.27
619.97	22513.61
620.12	22445.74
620.28	22281.90
620.43	22888.10
620.58	22328.71
620.73	22518.29
620.89	22581.49
621.04	22396.59
621.19	22089.98
621.34	21652.30
621.49	22211.68
621.65	22415.31
621.80	22586.17
621.95	21944.86
622.10	22331.05
622.25	22054.87
622.41	22354.46
622.56	22354.46
622.71	22293.60
622.86	22108.70
623.01	22071.25
623.16	21785.71
623.32	22024.44
623.47	22302.96
623.62	22286.58
623.77	22462.12
623.92	22321.69
624.07	22197.64
624.23	22218.71
624.38	22480.85
624.53	22207.00
624.68	22043.17
624.83	22022.10
624.98	22113.38
625.13	21563.36
625.29	21666.34
625.44	21970.61
625.59	21916.78
625.74	21928.48
625.89	22045.51
626.04	21645.27
626.19	21839.54
626.34	21694.43
626.49	21954.22
626.65	21914.44
626.80	21832.52
626.95	21727.19
627.10	21621.87
627.25	21495.48
627.40	21635.91
627.55	21596.12
627.70	21722.51
627.85	21664.00
628.00	21811.45
628.15	21745.92
628.30	21656.98
628.45	21523.57
628.60	21713.15
628.76	21659.32
628.91	21397.18
629.06	21362.07
629.21	21298.88
629.36	21649.96
629.51	21659.32
629.66	21322.28
629.81	21612.51
629.96	21326.96
630.11	21518.89
630.26	21385.47
630.41	21689.74
630.56	21305.90
630.71	21591.44
630.86	21703.79
631.01	21427.60
631.16	21844.22
631.31	21404.20
631.46	21013.33
631.61	21322.28
631.76	21130.36
631.91	21209.93
632.06	21315.26
632.21	21350.37
632.36	21060.14
632.51	21355.05
632.66	21287.17
632.81	21202.91
632.96	21177.17
633.10	21046.10
633.25	20854.17
633.40	20915.03
633.55	21046.10
633.70	20992.26
633.85	20769.91
634.00	21074.18
634.15	21135.04
634.30	20814.38
634.45	21010.99
634.60	21123.33
634.75	21348.03
634.90	20840.13
635.05	21062.48
635.19	20961.84
635.34	20819.07
635.49	21027.37
635.64	20870.56
635.79	20950.14
635.94	20971.20
636.09	20655.23
636.24	20968.86
636.39	20783.96
636.53	20964.18
636.68	20931.41
636.83	20711.40
636.98	21116.31
637.13	20650.55
637.28	20357.98
637.43	20589.69
637.57	20798.00
637.72	20334.57
637.87	20868.22
638.02	20503.09
638.17	20390.75
638.32	20423.51
638.46	20709.06
638.61	20467.98
638.76	20365.00
638.91	20690.34
639.06	20589.69
639.20	20423.51
639.35	20713.74
639.50	20465.64
639.65	20325.21
639.80	20592.03
639.94	20205.84
640.09	20325.21
640.24	20341.60
640.39	20575.65
640.54	20594.37
640.68	20292.44
640.83	20343.94
640.98	20004.56
641.13	20156.69
641.27	20126.27
641.42	19939.02
641.57	20257.34
641.72	20098.18
641.86	20074.77
642.01	19744.76
642.16	20219.89
642.31	19990.52
642.45	20208.19
642.60	20011.58
642.75	20067.75
642.90	20498.41
643.04	20130.95
643.19	19953.07
643.34	20311.17
643.48	20388.41
643.63	20297.13
643.78	19864.13
643.93	19807.95
644.07	19936.68
644.22	19740.08
644.37	20056.05
644.51	20032.65
644.66	20121.59
644.81	19953.07
644.95	20016.26
645.10	20240.95
645.25	19983.49
645.39	20173.08
645.54	19756.46
645.69	20332.23
645.83	20030.30
645.98	19702.63
646.13	19939.02
646.27	19896.89
646.42	19646.46
646.57	19976.47
646.71	19730.72
646.86	19693.27
647.00	19896.89
647.15	19915.62
647.30	19751.78
647.44	19864.13
647.59	19723.69
647.74	19936.68
647.88	19946.05
648.03	19578.58
648.17	19810.29
648.32	19302.40
648.47	19782.21
648.61	19889.87
648.76	19819.66
648.90	19611.35
649.05	19740.08
649.20	19564.54
649.34	19681.56
649.49	19606.67
649.63	19618.37
649.78	19697.95
649.92	19599.65
650.07	19590.28
650.21	19412.40
650.36	19740.08
650.51	19576.24
650.65	19749.44
650.80	19655.82
650.94	19548.15
651.09	19374.95
651.23	19290.70
651.38	19517.73
651.52	19356.23
651.67	19775.19
651.81	19311.76
651.96	19552.84
652.10	19482.62
652.25	19257.93
652.39	19164.31
652.54	19131.54
652.68	19161.97
652.83	18909.19
652.97	19192.39
653.12	19208.78
653.26	19688.59
653.41	19288.35
653.55	19309.42
653.70	18853.02
653.84	18860.04
653.99	19014.51
654.13	19271.97
654.27	19129.20
654.42	19417.08
654.56	19047.28
654.71	19281.33
654.85	19218.14
655.00	19300.06
655.14	19208.78
655.29	18923.23
655.43	19257.93
655.57	18995.79
655.72	19278.99
655.86	19019.19
656.01	18911.53
656.15	19056.64
656.30	19176.01
656.44	18930.25
656.58	18717.26
656.73	18829.61
656.87	18857.70
657.01	18944.30
657.16	18820.25
657.30	18953.66
657.45	18780.46
657.59	18862.38
657.73	18621.30
657.88	18464.49
658.02	18649.39
658.16	18579.17
658.31	18820.25
658.45	18745.35
658.60	18553.43
658.74	18487.89
658.88	18473.85
659.03	18682.16
659.17	18693.86
659.31	18750.03
659.46	18443.42
659.60	18445.76
659.74	18450.44
659.89	18520.66
660.03	18513.64
660.17	18438.74
660.32	18174.26
660.46	18164.90
660.60	18448.10
660.74	18494.91
660.89	18544.06
661.03	18230.43
661.17	18136.81
661.32	18094.68
661.46	18375.55
661.60	18405.97
661.74	18097.02
661.89	17685.09
662.03	17785.73
662.17	17905.10
662.31	17949.57
662.46	18045.53
662.60	18302.99
662.74	18136.81
662.88	17893.40
663.03	18097.02
663.17	18080.64
663.31	17745.94
663.45	17916.80
663.60	18017.44
663.74	17987.02
663.88	18218.73
664.02	17678.07
664.17	17708.49
664.31	17598.49
664.45	17357.41
664.59	17535.29
664.73	17231.02
664.88	17703.81
665.02	17582.10
665.16	17418.27
665.30	17401.88
665.44	17441.67
665.59	17376.14
665.73	17565.72
665.87	17338.69
666.01	17413.59
666.15	17158.47
666.29	17418.27
666.44	17270.81
666.58	17097.61
666.72	17284.86
666.86	17432.31
667.00	17130.38
667.14	17090.59
667.28	17172.51
667.43	17039.10
667.57	17322.30
667.71	17408.90
667.85	17511.89
667.99	17249.75
668.13	17123.36
668.27	17128.04
668.41	17156.13
668.56	16870.58
668.70	16966.54
668.84	16830.79
668.98	16819.09
669.12	16692.70
669.26	17003.99
669.40	16573.33
669.54	17074.21
669.68	16596.74
669.82	16423.54
669.96	16568.65
670.10	16858.88
670.25	16622.48
670.39	16720.79
670.53	16493.76
670.67	16257.36
670.81	17041.44
670.95	16645.89
671.09	16334.60
671.23	16308.85
671.37	16578.01
671.51	16439.92
671.65	16290.13
671.79	16287.79
671.93	16212.89
672.07	16379.07
672.21	16100.55
672.35	16163.74
672.49	16049.05
672.63	16016.29
672.77	16210.55
672.91	16163.74
673.05	15913.30
673.19	15379.66
673.33	15749.46
673.47	15550.52
673.61	15896.92
673.75	15349.23
673.89	15665.21
674.03	15646.48
674.17	15723.72
674.31	15646.48
674.45	15934.37
674.59	16018.63
674.73	15948.41
674.87	15925.00
675.01	15463.92
675.15	15386.68
675.29	15424.13
675.43	15728.40
675.56	15463.92
675.70	15445.20
675.84	15234.55
675.98	14923.26
676.12	14939.64
676.26	15346.89
676.40	15171.35
676.54	15295.40
676.68	15117.52
676.82	14960.70
676.96	14974.75
677.10	15129.22
677.23	14988.79
677.37	14967.73
677.51	15133.90
677.65	15009.86
677.79	14626.01
677.93	14518.34
678.07	14490.26
678.21	14415.36
678.34	14277.27
678.48	14183.65
678.62	14487.92
678.76	14272.59
678.90	14363.87
679.04	14518.34
679.18	14111.09
679.31	13888.74
679.45	14139.18
679.59	14216.41
679.73	14286.63
679.87	14085.34
680.00	13942.57
680.14	13984.70
680.28	13804.48
680.42	13617.24
680.56	13940.23
680.70	13839.59
680.83	13722.56
680.97	13523.62
681.11	13790.44
681.25	13731.92
681.39	13689.79
681.52	13605.53
681.66	13544.68
681.80	13537.66
681.94	13383.18
682.07	13476.80
682.21	13439.36
682.35	13336.37
682.49	13469.78
682.62	13327.01
682.76	13289.56
682.90	13048.49
683.04	12886.99
683.17	12999.34
683.31	13341.05
683.45	13060.19
683.59	12870.61
683.72	13064.87
683.86	13006.36
684.00	12933.80
684.13	13261.48
684.27	12556.97
684.41	13071.89
684.55	12905.71
684.68	12716.13
684.82	12395.48
684.96	12393.14
685.09	12446.97
685.23	12608.47
685.37	12519.53
685.50	12571.02
685.64	12418.88
685.78	12306.54
685.91	12353.35
686.05	12463.35
686.19	11946.09
686.32	12145.04
686.46	11929.71
686.60	11948.43
686.73	12297.17
686.87	11976.52
687.01	12140.36
687.14	12156.74
687.28	11941.41
687.42	12042.06
687.55	11932.05
687.69	11999.93
687.82	11782.26
687.96	11997.59
688.10	11934.39
688.23	11925.03
688.37	11782.26
688.50	11459.26
688.64	11690.98
688.78	11541.18
688.91	11426.50
689.05	11595.01
689.18	11435.86
689.32	11077.76
689.46	11520.12
689.59	11243.93
689.73	11201.80
689.86	11030.94
690.00	11211.17
690.13	11063.71
690.27	10967.75
690.41	10960.73
690.54	11124.57
690.68	10841.36
690.81	10848.38
690.95	11047.33
691.08	11091.80
691.22	10909.24
691.35	10672.84
691.49	10913.92
691.62	10782.85
691.76	10878.81
691.89	10782.85
692.03	10876.47
692.16	10754.76
692.30	10576.88
692.43	10731.36
692.57	10391.98
692.70	10520.71
692.84	10443.47
692.97	10340.49
693.11	10279.63
693.24	10296.02
693.38	10171.97
693.51	10183.67
693.65	10115.80
693.78	10366.23
693.92	10174.31
694.05	10157.92
694.19	10097.07
694.32	10064.30
694.45	10059.62
694.59	9930.89
694.72	9785.78
694.86	9851.31
694.99	9678.12
695.13	9774.08
695.26	9764.72
695.39	9771.74
695.53	9701.52
695.66	9635.99
695.80	9731.95
695.93	9465.13
696.07	9430.02
696.20	9582.15
696.33	9547.05
696.47	9556.41
696.60	9329.38
696.73	9371.50
696.87	9247.46
697.00	9493.21
697.14	9020.42
697.27	9013.40
697.40	9081.28
697.54	9193.62
697.67	9109.36
697.80	9004.04
697.94	8889.35
698.07	8877.65
698.21	9011.06
698.34	8828.50
698.47	8657.64
698.61	8809.78
698.74	8788.71
698.87	8662.32
699.01	8727.86
699.14	8762.97
699.27	8823.82
699.40	8744.24
699.54	8795.73
699.67	8800.41
699.80	8678.71
699.94	8390.82
700.07	8388.48
700.20	8297.20
700.34	8245.71
700.47	8381.46
700.60	8236.35
700.73	8327.63
700.87	8252.73
701.00	8285.50
701.13	8049.10
701.26	8145.06
701.40	8051.44
701.53	8184.85
701.66	8142.72
701.79	8404.86
701.93	8072.51
702.06	8212.94
702.19	7950.80
702.32	7744.83
702.46	7639.51
702.59	7686.32
702.72	7819.73
702.85	7602.06
702.99	7658.23
703.12	7520.14
703.25	7588.02
703.38	7676.96
703.51	7686.32
703.65	7489.71
703.78	7517.80
703.91	7569.29
704.04	7456.95
704.17	7581.00
704.31	7328.22
704.44	7218.21
704.57	7246.30
704.70	6993.52
704.83	7136.29
704.96	7272.04
705.10	7166.72
705.23	7375.03
>>>>>End Processed Spectral Data<<<<<
