SpectraSuite Data File
++++++++++++++++++++++++++++++++++++
Date: Thu Oct 24 13:21:07 EDT 2013
User: stostad
Dark Spectrum Present: No
Reference Spectrum Present: No
Number of Sampled Component Spectra: 1
Spectrometers: USB2+H05261
Integration Time (usec): 100000 (USB2+H05261)
Spectra Averaged: 1 (USB2+H05261)
Boxcar Smoothing: 0 (USB2+H05261)
Correct for Electrical Dark: No (USB2+H05261)
Strobe/Lamp Enabled: No (USB2+H05261)
Correct for Detector Non-linearity: No (USB2+H05261)
Correct for Stray Light: No (USB2+H05261)
Number of Pixels in Processed Spectrum: 2048
>>>>>Begin Processed Spectral Data<<<<<
365.73	465.77
365.92	465.77
366.12	465.77
366.32	458.74
366.52	411.93
366.72	465.77
366.91	489.17
367.11	496.19
367.31	472.79
367.51	390.87
367.70	461.09
367.90	498.53
368.10	447.04
368.30	430.66
368.49	454.06
368.69	521.94
368.89	372.15
369.09	470.45
369.28	472.79
369.48	428.32
369.68	458.74
369.87	519.60
370.07	482.15
370.27	575.77
370.47	603.86
370.66	702.16
370.86	674.07
371.06	718.54
371.25	667.05
371.45	725.57
371.65	699.82
371.84	699.82
372.04	704.50
372.24	716.20
372.44	870.68
372.63	760.67
372.83	737.27
373.03	873.02
373.22	702.16
373.42	739.61
373.62	781.74
373.81	788.76
374.01	844.93
374.21	805.14
374.40	828.55
374.60	858.98
374.79	791.10
374.99	800.46
375.19	765.36
375.38	711.52
375.58	826.21
375.78	779.40
375.97	873.02
376.17	821.53
376.37	830.89
376.56	784.08
376.76	800.46
376.95	793.44
377.15	816.85
377.35	880.04
377.54	903.45
377.74	802.80
377.93	877.70
378.13	814.51
378.33	826.21
378.52	828.55
378.72	781.74
378.91	788.76
379.11	828.55
379.31	798.12
379.50	894.08
379.70	753.65
379.89	828.55
380.09	798.12
380.28	880.04
380.48	814.51
380.68	812.17
380.87	837.91
381.07	821.53
381.26	887.06
381.46	882.38
381.65	861.32
381.85	774.72
382.04	844.93
382.24	884.72
382.43	884.72
382.63	922.17
382.83	947.92
383.02	837.91
383.22	973.66
383.41	807.48
383.61	858.98
383.80	961.96
384.00	894.08
384.19	875.36
384.39	889.40
384.58	842.59
384.78	858.98
384.97	877.70
385.17	877.70
385.36	861.32
385.56	870.68
385.75	912.81
385.95	887.06
386.14	884.72
386.34	959.62
386.53	931.53
386.72	826.21
386.92	978.34
387.11	917.49
387.31	924.51
387.50	936.21
387.70	901.11
387.89	957.28
388.09	875.36
388.28	994.73
388.48	980.68
388.67	933.87
388.86	973.66
389.06	1001.75
389.25	1013.45
389.45	905.79
389.64	947.92
389.84	961.96
390.03	1022.81
390.22	1022.81
390.42	968.98
390.61	959.62
390.81	1001.75
391.00	1036.86
391.19	1025.15
391.39	1050.90
391.58	1006.43
391.78	1032.18
391.97	1062.60
392.16	1022.81
392.36	1041.54
392.55	1015.79
392.75	994.73
392.94	994.73
393.13	992.39
393.33	1029.84
393.52	983.02
393.71	1090.69
393.91	994.73
394.10	959.62
394.29	1135.16
394.49	1067.28
394.68	1130.48
394.88	1060.26
395.07	1116.44
395.26	1048.56
395.46	1062.60
395.65	1086.01
395.84	1053.24
396.04	1158.57
396.23	1179.63
396.42	1067.28
396.62	1128.14
396.81	1109.41
397.00	1163.25
397.19	1097.71
397.39	1081.33
397.58	1093.03
397.77	1093.03
397.97	1153.88
398.16	1137.50
398.35	1170.27
398.55	1125.80
398.74	1231.12
398.93	1256.87
399.12	1174.95
399.32	1191.33
399.51	1186.65
399.70	1086.01
399.90	1149.20
400.09	1163.25
400.28	1308.36
400.47	1233.46
400.67	1282.61
400.86	1186.65
401.05	1291.98
401.24	1289.64
401.44	1261.55
401.63	1224.10
401.82	1275.59
402.01	1224.10
402.21	1226.44
402.40	1296.66
402.59	1214.74
402.78	1284.95
402.97	1289.64
403.17	1282.61
403.36	1371.55
403.55	1348.15
403.74	1366.87
403.93	1352.83
404.13	1310.70
404.32	1345.81
404.51	1383.26
404.70	1362.19
404.89	1371.55
405.09	1366.87
405.28	1460.49
405.47	1399.64
405.66	1373.89
405.85	1420.71
406.05	1371.55
406.24	1430.07
406.43	1434.75
406.62	1547.09
406.81	1416.02
407.00	1554.12
407.20	1502.62
407.39	1469.86
407.58	1434.75
407.77	1451.13
407.96	1521.35
408.15	1565.82
408.34	1504.96
408.54	1493.26
408.73	1535.39
408.92	1474.54
409.11	1598.59
409.30	1537.73
409.49	1554.12
409.68	1596.25
409.87	1509.65
410.07	1542.41
410.26	1556.46
410.45	1617.31
410.64	1638.38
410.83	1530.71
411.02	1685.19
411.21	1696.89
411.40	1537.73
411.59	1633.69
411.78	1643.06
411.98	1659.44
412.17	1722.63
412.36	1610.29
412.55	1727.32
412.74	1797.53
412.93	1788.17
413.12	1678.16
413.31	1739.02
413.50	1792.85
413.69	1778.81
413.88	1839.66
414.07	1837.32
414.26	1858.39
414.45	1837.32
414.64	1877.11
414.83	1865.41
415.02	1767.10
415.22	1870.09
415.41	1888.81
415.60	1916.90
415.79	1968.39
415.98	1966.05
416.17	2010.52
416.36	2029.24
416.55	1933.28
416.74	1975.41
416.93	1982.43
417.12	1930.94
417.31	1991.80
417.50	2052.65
417.69	2050.31
417.88	2024.56
418.07	2017.54
418.26	2069.03
418.45	2033.93
418.64	2125.21
418.83	2120.53
419.02	2078.40
419.21	2104.14
419.39	2174.36
419.58	2092.44
419.77	2172.02
419.96	2143.93
420.15	2296.07
420.34	2260.96
420.53	2214.15
420.72	2186.06
420.91	2221.17
421.10	2223.51
421.29	2312.45
421.48	2204.78
421.67	2223.51
421.86	2186.06
422.05	2291.38
422.24	2300.75
422.43	2307.77
422.61	2260.96
422.80	2298.41
422.99	2284.36
423.18	2352.24
423.37	2429.48
423.56	2263.30
423.75	2282.02
423.94	2216.49
424.13	2176.70
424.32	2305.43
424.50	2356.92
424.69	2389.69
424.88	2361.60
425.07	2282.02
425.26	2209.47
425.45	2324.15
425.64	2307.77
425.83	2218.83
426.01	2300.75
426.20	2385.01
426.39	2452.88
426.58	2326.49
426.77	2331.17
426.96	2324.15
427.15	2338.20
427.33	2406.07
427.52	2331.17
427.71	2422.45
427.90	2375.64
428.09	2422.45
428.28	2422.45
428.46	2520.76
428.65	2410.75
428.84	2502.03
429.03	2502.03
429.22	2530.12
429.40	2497.35
429.59	2544.16
429.78	2415.43
429.97	2385.01
430.16	2485.65
430.34	2502.03
430.53	2532.46
430.72	2518.42
430.91	2590.97
431.10	2565.23
431.28	2605.02
431.47	2586.29
431.66	2661.19
431.85	2597.99
432.03	2600.34
432.22	2551.18
432.41	2621.40
432.60	2651.83
432.79	2658.85
432.97	2626.08
433.16	2731.41
433.35	2581.61
433.54	2738.43
433.72	2738.43
433.91	2668.21
434.10	2684.59
434.28	2736.09
434.47	2752.47
434.66	2698.64
434.85	2839.07
435.03	2867.16
435.22	3101.21
435.41	3169.09
435.59	3005.25
435.78	2995.89
435.97	2902.26
436.16	2822.69
436.34	2916.31
436.53	3014.61
436.72	2937.37
436.90	2913.97
437.09	2876.52
437.28	2799.28
437.46	2885.88
437.65	2850.77
437.84	2867.16
438.02	2895.24
438.21	2937.37
438.40	2925.67
438.58	3038.02
438.77	3082.49
438.96	2956.10
439.14	3059.08
439.33	3080.14
439.52	3075.46
439.70	3110.57
439.89	3145.68
440.08	3105.89
440.26	3080.14
440.45	3110.57
440.63	3192.49
440.82	3155.04
441.01	3201.85
441.19	3166.74
441.38	3152.70
441.57	3225.26
441.75	3192.49
441.94	3372.71
442.12	3389.10
442.31	3370.37
442.50	3403.14
442.68	3342.28
442.87	3417.18
443.05	3435.91
443.24	3517.83
443.43	3391.44
443.61	3482.72
443.80	3585.70
443.98	3421.86
444.17	3368.03
444.35	3323.56
444.54	3548.25
444.73	3611.45
444.91	3426.54
445.10	3452.29
445.28	3431.23
445.47	3438.25
445.65	3480.38
445.84	3508.46
446.02	3520.17
446.21	3648.90
446.39	3487.40
446.58	3588.04
446.77	3492.08
446.95	3407.82
447.14	3393.78
447.32	3566.98
447.51	3489.74
447.69	3489.74
447.88	3564.64
448.06	3602.08
448.25	3454.63
448.43	3623.15
448.62	3557.61
448.80	3541.23
448.99	3634.85
449.17	3595.06
449.36	3480.38
449.54	3754.22
449.73	3712.09
449.91	3700.39
450.10	3557.61
450.28	3693.37
450.46	3744.86
450.65	3810.39
450.83	3672.30
451.02	3772.94
451.20	3798.69
451.39	3730.81
451.57	3803.37
451.76	3768.26
451.94	3819.75
452.13	3892.31
452.31	3836.14
452.49	3826.78
452.68	3777.62
452.86	3948.48
453.05	3943.80
453.23	3730.81
453.42	3742.52
453.60	3744.86
453.78	3822.09
453.97	3822.09
454.15	3904.01
454.34	3969.55
454.52	3925.08
454.70	4016.36
454.89	3840.82
455.07	3939.12
455.26	4035.08
455.44	3990.61
455.62	3964.87
455.81	3934.44
455.99	3936.78
456.17	4079.55
456.36	4093.60
456.54	4154.45
456.73	4194.24
456.91	4177.86
457.09	4180.20
457.28	4102.96
457.46	4007.00
457.64	4241.05
457.83	4285.52
458.01	4114.66
458.19	4194.24
458.38	4159.13
458.56	4152.11
458.74	4379.14
458.93	4313.61
459.11	4224.67
459.29	4159.13
459.48	4252.75
459.66	4318.29
459.84	4327.65
460.03	4362.76
460.21	4409.57
460.39	4395.53
460.57	4250.41
460.76	4580.43
460.94	4458.72
461.12	4456.38
461.31	4538.30
461.49	4454.04
461.67	4524.26
461.85	4468.08
462.04	4353.40
462.22	4734.90
462.40	4521.92
462.59	4608.51
462.77	4404.89
462.95	4575.75
463.13	4547.66
463.32	4444.68
463.50	4491.49
463.68	4660.01
463.86	4704.48
464.05	4594.47
464.23	4652.98
464.41	4587.45
464.59	4519.57
464.78	4685.75
464.96	4540.64
465.14	4540.64
465.32	4716.18
465.50	4702.14
465.69	4688.09
465.87	4695.11
466.05	4889.38
466.23	4734.90
466.41	4861.29
466.60	4945.55
466.78	4791.08
466.96	4734.90
467.14	4638.94
467.32	4840.23
467.51	4758.31
467.69	4678.73
467.87	4863.63
468.05	5029.81
468.23	4823.84
468.41	4940.87
468.60	4877.68
468.78	4884.70
468.96	4887.04
469.14	4880.02
469.32	5125.77
469.50	4800.44
469.69	4985.34
469.87	5043.85
470.05	4957.25
470.23	5050.88
470.41	5128.11
470.59	5172.58
470.77	5109.39
470.95	5097.69
471.14	5289.61
471.32	5083.64
471.50	5228.76
471.68	5153.86
471.86	5221.74
472.04	5322.38
472.22	5383.23
472.40	5313.02
472.58	5273.23
472.77	5275.57
472.95	5394.93
473.13	5500.26
473.31	5348.12
473.49	5416.00
473.67	5357.49
473.85	5523.66
474.03	5495.58
474.21	5591.54
474.39	5481.53
474.57	5416.00
474.75	5582.18
474.93	5589.20
475.12	5675.80
475.30	5731.97
475.48	5643.03
475.66	5537.71
475.84	5671.12
476.02	5720.27
476.20	5809.21
476.38	5849.00
476.56	6017.52
476.74	5839.64
476.92	5933.26
477.10	6040.92
477.28	6003.47
477.46	6162.63
477.64	6150.93
477.82	6368.60
478.00	6279.66
478.18	6324.13
478.36	6272.64
478.54	6286.68
478.72	6300.72
478.90	6459.88
479.08	6635.42
479.26	6707.98
479.44	6647.12
479.62	6621.38
479.80	6623.72
479.98	6780.53
480.16	6707.98
480.34	6633.08
480.52	7040.33
480.70	6817.98
480.88	6885.86
481.06	6956.07
481.24	6925.65
481.41	7229.91
481.59	7166.72
481.77	7129.27
481.95	7246.30
482.13	7220.55
482.31	7419.50
482.49	7403.11
482.67	7536.52
482.85	7543.55
483.03	7506.10
483.21	7648.87
483.39	7571.63
483.57	7688.66
483.74	7595.04
483.92	7925.05
484.10	7747.17
484.28	7733.13
484.46	8002.29
484.64	8072.51
484.82	8013.99
485.00	8241.03
485.18	8126.34
485.35	8346.35
485.53	8180.17
485.71	8524.23
485.89	8652.96
486.07	8315.92
486.25	8503.17
486.43	8573.38
486.61	8622.53
486.78	8624.87
486.96	8922.12
487.14	8819.14
487.32	8877.65
487.50	8915.10
487.68	8997.02
487.85	9064.89
488.03	9312.99
488.21	9329.38
488.39	9378.53
488.57	9387.89
488.75	9254.48
488.92	9619.60
489.10	9439.38
489.28	9514.28
489.46	9781.10
489.64	9373.85
489.81	9699.18
489.99	9937.91
490.17	9764.72
490.35	9966.00
490.53	9970.68
490.70	10228.14
490.88	10293.68
491.06	10307.72
491.24	10223.46
491.41	10305.38
491.59	10328.78
491.77	10272.61
491.95	10541.77
492.13	10541.77
492.30	10672.84
492.48	10499.64
492.66	10726.68
492.84	10862.43
493.01	10658.80
493.19	10871.79
493.37	10932.64
493.54	10911.58
493.72	11192.44
493.90	10986.47
494.08	10953.71
494.25	11307.13
494.43	11311.81
494.61	11283.72
494.79	11220.53
494.96	11353.94
495.14	11356.28
495.32	11398.41
495.49	11639.48
495.67	11468.62
495.85	11702.68
496.02	11545.86
496.20	11709.70
496.38	12131.00
496.55	11920.35
496.73	12304.20
496.91	11927.37
497.09	12152.06
497.26	12224.62
497.44	11983.54
497.62	12313.56
497.79	12395.48
497.97	12152.06
498.14	12571.02
498.32	12475.06
498.50	12461.01
498.67	12606.13
498.85	12671.66
499.03	12858.90
499.20	12622.51
499.38	12910.40
499.56	13114.02
499.73	12865.92
499.91	13055.51
500.08	13090.62
500.26	13001.68
500.44	13008.70
500.61	13027.42
500.79	13226.37
500.97	13378.50
501.14	13289.56
501.32	13493.19
501.49	13345.73
501.67	13270.84
501.84	13617.24
502.02	13453.40
502.20	13720.22
502.37	13516.59
502.55	13579.79
502.72	13757.67
502.90	13593.83
503.07	13624.26
503.25	13776.39
503.43	14087.68
503.60	13909.80
503.78	13841.93
503.95	13940.23
504.13	13994.06
504.30	13872.36
504.48	13893.42
504.65	14120.45
504.83	14113.43
505.01	14448.13
505.18	14174.28
505.36	14623.67
505.53	14286.63
505.71	14471.53
505.88	14523.02
506.06	14307.69
506.23	14469.19
506.41	14476.21
506.58	14630.69
506.76	14272.59
506.93	14789.85
507.11	14703.25
507.28	14815.59
507.46	14661.12
507.63	14792.19
507.81	14764.10
507.98	14787.50
508.16	15044.96
508.33	15176.03
508.50	14977.09
508.68	14951.34
508.85	15321.15
509.03	15171.35
509.20	15365.62
509.38	15360.94
509.55	15300.08
509.73	15269.66
509.90	15370.30
510.08	15211.14
510.25	15150.29
510.42	15473.28
510.60	15627.76
510.77	15494.35
510.95	15676.91
511.12	15475.62
511.30	15910.96
511.47	15964.79
511.64	15690.95
511.82	15824.36
511.99	15833.72
512.17	16053.73
512.34	16166.08
512.51	15969.48
512.69	16020.97
512.86	15896.92
513.04	16180.12
513.21	16198.85
513.38	16201.19
513.56	16404.81
513.73	16259.70
513.90	16236.30
514.08	16486.73
514.25	16503.12
514.43	16439.92
514.60	16615.46
514.77	16528.86
514.95	16559.29
515.12	16411.84
515.29	16603.76
515.47	16793.34
515.64	16762.92
515.81	16699.72
515.99	17006.33
516.16	16779.30
516.33	16751.21
516.51	17104.64
516.68	17020.38
516.85	17151.45
517.03	17081.23
517.20	17214.64
517.37	17027.40
517.54	16858.88
517.72	17200.60
517.89	17160.81
518.06	17216.98
518.24	17348.05
518.41	17362.09
518.58	17359.75
518.75	17193.58
518.93	17502.53
519.10	17284.86
519.27	17472.10
519.45	17500.19
519.62	17577.42
519.79	17675.73
519.96	17472.10
520.14	17572.74
520.31	17603.17
520.48	17467.42
520.65	17617.21
520.83	17727.22
521.00	18017.44
521.17	17605.51
521.34	17802.11
521.52	17963.61
521.69	17944.89
521.86	17848.93
522.03	18078.30
522.20	17862.97
522.38	18356.82
522.55	18251.50
522.72	18242.14
522.89	17965.95
523.07	18387.25
523.24	18148.51
523.41	18513.64
523.58	18104.04
523.75	18295.97
523.92	18216.39
524.10	18284.26
524.27	18321.71
524.44	18551.09
524.61	18565.13
524.78	18867.06
524.96	18635.35
525.13	18850.67
525.30	18932.59
525.47	18857.70
525.64	18689.18
525.81	18686.84
525.98	18815.57
526.16	18537.04
526.33	18649.39
526.50	18948.98
526.67	18593.22
526.84	18869.40
527.01	18712.58
527.18	19112.81
527.36	18965.36
527.53	18668.11
527.70	19344.53
527.87	19119.84
528.04	19110.47
528.21	19442.83
528.38	19044.94
528.55	19222.82
528.72	19276.65
528.89	19386.66
529.07	19185.37
529.24	19105.79
529.41	19229.84
529.58	19372.61
529.75	19328.14
529.92	19346.87
530.09	19506.02
530.26	19571.56
530.43	19552.84
530.60	19414.74
530.77	19496.66
530.94	19822.00
531.11	19594.96
531.28	19798.59
531.46	19901.58
531.63	19751.78
531.80	19618.37
531.97	19655.82
532.14	19878.17
532.31	19637.09
532.48	19847.74
532.65	19941.36
532.82	19983.49
532.99	20065.41
533.16	20034.99
533.33	19796.25
533.50	20119.24
533.67	19896.89
533.84	20081.80
534.01	20250.32
534.18	19990.52
534.35	20360.32
534.52	20042.01
534.69	20229.25
534.86	20149.67
535.03	20023.28
535.20	20011.58
535.37	20144.99
535.54	20404.79
535.71	20334.57
535.88	20556.93
536.05	20154.35
536.22	20437.56
536.38	20650.55
536.55	21025.03
536.72	20269.04
536.89	20673.95
537.06	20800.34
537.23	20673.95
537.40	21198.23
537.57	20931.41
537.74	20500.75
537.91	20903.32
538.08	20945.45
538.25	20526.50
538.42	20840.13
538.59	20814.38
538.75	20884.60
538.92	20767.57
539.09	21088.23
539.26	20732.47
539.43	20964.18
539.60	21219.30
539.77	20851.83
539.94	21394.84
540.11	21135.04
540.28	21095.25
540.44	21231.00
540.61	21310.58
540.78	21231.00
540.95	21500.16
541.12	21542.29
541.29	21771.66
541.46	21844.22
541.62	21944.86
541.79	21701.45
541.96	21820.81
542.13	21713.15
542.30	21923.80
542.47	21891.03
542.63	21975.29
542.80	22181.26
542.97	22277.22
543.14	21989.33
543.31	21956.57
543.48	21853.58
543.64	22260.84
543.81	22253.81
543.98	22448.08
544.15	22183.60
544.32	22321.69
544.48	22321.69
544.65	22352.12
544.82	22370.84
544.99	22281.90
545.16	22223.39
545.32	22424.67
545.49	22806.18
545.66	23131.51
545.83	23119.81
546.00	23175.98
546.16	22841.29
546.33	22806.18
546.50	22977.04
546.67	22644.68
546.83	22340.41
547.00	22473.82
547.17	22183.60
547.34	22118.06
547.50	22689.15
547.67	22607.23
547.84	22246.79
548.00	22822.56
548.17	22843.63
548.34	22340.41
548.51	22384.88
548.67	22455.10
548.84	22551.06
549.01	22785.12
549.18	22635.32
549.34	22628.30
549.51	22515.95
549.68	22768.73
549.84	22497.23
550.01	22232.75
550.18	22553.40
550.34	22595.53
550.51	22614.26
550.68	22565.10
550.84	22558.08
551.01	22635.32
551.18	22625.96
551.34	22445.74
551.51	22600.21
551.68	22335.73
551.84	22607.23
552.01	22450.42
552.18	22630.64
552.34	22689.15
552.51	22864.69
552.68	23065.98
552.84	22780.43
553.01	22897.46
553.18	23101.09
553.34	22911.50
553.51	22775.75
553.67	22815.54
553.84	22890.44
554.01	23026.19
554.17	22862.35
554.34	22944.27
554.51	22960.66
554.67	23080.02
554.84	22604.89
555.00	22665.75
555.17	23133.86
555.33	23129.17
555.50	22857.67
555.67	23140.88
555.83	22785.12
556.00	22930.23
556.16	23077.68
556.33	23285.99
556.50	22939.59
556.66	22740.64
556.83	22948.95
556.99	23089.38
557.16	23398.34
557.32	23501.32
557.49	23126.83
557.65	23091.73
557.82	23129.17
557.98	23016.83
558.15	22794.48
558.32	23239.18
558.48	23161.94
558.65	23227.48
558.81	23051.94
558.98	23096.41
559.14	23428.76
559.31	23190.03
559.47	23264.92
559.64	23473.23
559.80	23213.43
559.97	23562.17
560.13	23201.73
560.30	23419.40
560.46	23314.08
560.63	23604.30
560.79	23470.89
560.96	23789.20
561.12	23393.65
561.29	23421.74
561.45	23339.82
561.61	23264.92
561.78	23426.42
561.94	23183.01
562.11	23754.10
562.27	23211.09
562.44	23613.66
562.60	23594.94
562.77	23482.59
562.93	23620.69
563.10	23604.30
563.26	23484.94
563.42	23812.61
563.59	23260.24
563.75	23632.39
563.92	23620.69
564.08	23592.60
564.24	23625.37
564.41	23882.83
564.57	23962.40
564.74	23517.70
564.90	23800.91
565.07	23648.77
565.23	23821.97
565.39	23398.34
565.56	23789.20
565.72	23658.14
565.88	24025.60
566.05	23709.63
566.21	24002.19
566.38	23506.00
566.54	23634.73
566.70	23693.24
566.87	23817.29
567.03	23943.68
567.19	24126.24
567.36	23915.59
567.52	23805.59
567.68	23903.89
567.85	24093.47
568.01	23850.06
568.17	23728.35
568.34	23733.03
568.50	23784.52
568.66	23887.51
568.83	23936.66
568.99	23943.68
569.15	23784.52
569.32	23718.99
569.48	23861.76
569.64	23552.81
569.81	23976.45
569.97	23693.24
570.13	23590.26
570.30	23831.33
570.46	23922.62
570.62	23630.05
570.78	24126.24
570.95	23878.15
571.11	23786.86
571.27	23826.65
571.43	23583.24
571.60	23695.58
571.76	23812.61
571.92	23683.88
572.09	23889.85
572.25	24301.78
572.41	24091.13
572.57	24229.23
572.74	24144.97
572.90	23960.06
573.06	24175.39
573.22	23784.52
573.38	24203.48
573.55	23779.84
573.71	24114.54
573.87	23999.85
574.03	23948.36
574.20	24013.90
574.36	23999.85
574.52	23843.04
574.68	24006.87
574.84	23899.21
575.01	24173.05
575.17	23763.46
575.33	24444.56
575.49	24416.47
575.65	24144.97
575.82	24093.47
575.98	24098.16
576.14	24187.10
576.30	24566.26
576.46	23906.23
576.62	24350.93
576.79	24025.60
576.95	23950.70
577.11	23967.09
577.27	24355.61
577.43	24217.52
577.59	24238.59
577.75	24308.80
577.92	23695.58
578.08	23974.11
578.24	24269.01
578.40	24182.42
578.56	24409.45
578.72	23992.83
578.88	24453.92
579.04	24308.80
579.21	24350.93
579.37	24159.01
579.53	24325.19
579.69	24205.82
579.85	24102.84
580.01	24514.77
580.17	24386.04
580.33	24320.51
580.49	24100.50
580.65	24126.24
580.82	24105.18
580.98	24182.42
581.14	23976.45
581.30	24372.00
581.46	23840.70
581.62	24217.52
581.78	24093.47
581.94	23985.81
582.10	24088.79
582.26	24432.85
582.42	23957.72
582.58	24402.43
582.74	24622.44
582.90	24559.24
583.06	24437.53
583.22	24290.08
583.38	24201.14
583.54	24341.57
583.70	24404.77
583.86	24428.17
584.02	24453.92
584.18	24575.62
584.34	24109.86
584.50	24533.50
584.66	24091.13
584.82	23868.78
584.98	24196.46
585.14	24240.93
585.30	24287.74
585.46	24400.08
585.62	24119.22
585.78	24273.70
585.94	24245.61
586.10	24133.26
586.26	24250.29
586.42	24484.34
586.58	24091.13
586.74	24198.80
586.90	24573.28
587.06	24512.43
587.22	24463.28
587.38	24334.55
587.54	24903.30
587.70	24442.21
587.86	24524.13
588.02	24566.26
588.18	24477.32
588.34	24184.76
588.49	24627.12
588.65	24460.94
588.81	24407.11
588.97	24404.77
589.13	24435.19
589.29	24517.11
589.45	24163.69
589.61	24180.07
589.77	24521.79
589.93	24814.36
590.08	24709.04
590.24	24512.43
590.40	24500.73
590.56	24421.15
590.72	24400.08
590.88	24339.23
591.04	24175.39
591.20	24189.44
591.35	24226.89
591.51	24559.24
591.67	24900.96
591.83	24467.96
591.99	24545.20
592.15	24709.04
592.31	24816.70
592.46	24437.53
592.62	24222.20
592.78	24467.96
592.94	24379.02
593.10	24292.42
593.26	24748.82
593.41	24629.46
593.57	24608.39
593.73	24592.01
593.89	24879.89
594.05	24844.79
594.20	24503.07
594.36	24629.46
594.52	24379.02
594.68	24676.27
594.84	24409.45
594.99	24505.41
595.15	24627.12
595.31	24802.66
595.47	24737.12
595.62	24725.42
595.78	24563.92
595.94	24458.60
596.10	24596.69
596.25	24367.32
596.41	24727.76
596.57	24175.39
596.73	24631.80
596.88	24673.93
597.04	24423.49
597.20	24524.13
597.36	24650.52
597.51	24760.53
597.67	24395.40
597.83	24215.18
597.99	24592.01
598.14	24713.72
598.30	24568.60
598.46	24418.81
598.61	24769.89
598.77	24563.92
598.93	24826.06
599.09	24627.12
599.24	25263.74
599.40	24594.35
599.56	24629.46
599.71	24989.90
599.87	24765.21
600.03	24416.47
600.18	24702.01
600.34	24835.42
600.50	24517.11
600.65	24411.79
600.81	24659.88
600.97	24844.79
601.12	24486.68
601.28	24837.76
601.44	24327.53
601.59	24854.15
601.75	24367.32
601.91	24842.45
602.06	24521.79
602.22	24386.04
602.37	24713.72
602.53	24535.84
602.69	24793.29
602.84	24549.88
603.00	24540.52
603.16	24320.51
603.31	24442.21
603.47	24765.21
603.62	24673.93
603.78	24748.82
603.94	24690.31
604.09	24400.08
604.25	24493.71
604.40	24713.72
604.56	24561.58
604.71	24891.60
604.87	24430.51
605.03	24542.86
605.18	24425.83
605.34	24477.32
605.49	24119.22
605.65	24444.56
605.80	24521.79
605.96	24769.89
606.12	24304.12
606.27	24882.24
606.43	24711.38
606.58	24917.34
606.74	24858.83
606.89	24465.62
607.05	24678.61
607.20	24187.10
607.36	24161.35
607.51	24435.19
607.67	24563.92
607.82	24882.24
607.98	24570.94
608.13	24159.01
608.29	24610.73
608.44	24559.24
608.60	24498.39
608.75	24898.62
608.91	24638.82
609.06	24587.33
609.22	24680.95
609.37	23922.62
609.53	24592.01
609.68	24100.50
609.84	24425.83
609.99	24779.25
610.15	24353.27
610.30	24812.02
610.46	25102.25
610.61	25216.93
610.76	25303.53
610.92	25933.14
611.07	25226.29
611.23	25362.04
611.38	25488.43
611.54	25792.70
611.69	25118.63
611.84	25429.92
612.00	25233.32
612.15	24875.21
612.31	25006.28
612.46	24734.78
612.62	24905.64
612.77	24706.70
612.92	24751.17
613.08	24561.58
613.23	24723.08
613.39	24142.63
613.54	24500.73
613.69	24545.20
613.85	24694.99
614.00	24128.58
614.15	24606.05
614.31	24547.54
614.46	24430.51
614.62	24393.06
614.77	24610.73
614.92	24435.19
615.08	24070.07
615.23	24383.70
615.38	24011.56
615.54	23934.32
615.69	24091.13
615.84	24257.31
616.00	24098.16
616.15	23791.55
616.30	24409.45
616.46	23866.44
616.61	23758.78
616.76	23791.55
616.92	23805.59
617.07	24034.96
617.22	23740.05
617.37	23906.23
617.53	23864.10
617.68	24025.60
617.83	23953.04
617.99	23955.38
618.14	23995.17
618.29	24027.94
618.45	23978.79
618.60	23655.79
618.75	23534.09
618.90	23491.96
619.06	23611.32
619.21	23384.29
619.36	23557.49
619.51	23470.89
619.67	23501.32
619.82	23323.44
619.97	23616.01
620.12	23522.38
620.28	23496.64
620.43	23601.96
620.58	24009.22
620.73	24170.71
620.89	23765.80
621.04	23548.13
621.19	23396.00
621.34	23353.87
621.49	23274.29
621.65	23344.50
621.80	23398.34
621.95	23314.08
622.10	23410.04
622.25	23374.93
622.41	23466.21
622.56	23147.90
622.71	23527.06
622.86	23601.96
623.01	23367.91
623.16	23211.09
623.32	23133.86
623.47	23433.44
623.62	23157.26
623.77	23309.40
623.92	23421.74
624.07	23183.01
624.23	23454.51
624.38	23435.78
624.53	23274.29
624.68	23147.90
624.83	23232.16
624.98	23278.97
625.13	23246.20
625.29	23019.17
625.44	23077.68
625.59	23147.90
625.74	23222.80
625.89	23080.02
626.04	23164.28
626.19	22789.80
626.34	22733.62
626.49	23028.53
626.65	22963.00
626.80	22750.01
626.95	22803.84
627.10	22874.06
627.25	22967.68
627.40	22806.18
627.55	22576.81
627.70	22785.12
627.85	22581.49
628.00	22335.73
628.15	22733.62
628.30	23197.05
628.45	22548.72
628.60	22424.67
628.76	22338.07
628.91	22387.22
629.06	22434.03
629.21	22766.39
629.36	22677.45
629.51	22506.59
629.66	22696.17
629.81	22478.50
629.96	22764.05
630.11	22515.95
630.26	22677.45
630.41	22349.78
630.56	22700.86
630.71	22735.96
630.86	22654.05
631.01	22698.52
631.16	22583.83
631.31	22651.70
631.46	22342.75
631.61	22368.50
631.76	22513.61
631.91	22623.62
632.06	22146.15
632.21	22567.45
632.36	22586.17
632.51	22211.68
632.66	22176.58
632.81	22073.59
632.96	22022.10
633.10	22099.34
633.25	22057.21
633.40	21874.65
633.55	22059.55
633.70	21979.97
633.85	21575.06
634.00	22059.55
634.15	22202.32
634.30	22249.13
634.45	22136.79
634.60	22211.68
634.75	22431.69
634.90	22265.52
635.05	21916.78
635.19	21902.73
635.34	22050.19
635.49	22127.42
635.64	21809.11
635.79	21891.03
635.94	21769.32
636.09	22031.46
636.24	21881.67
636.39	21675.70
636.53	22026.78
636.68	21699.11
636.83	21776.34
636.98	21827.84
637.13	21584.42
637.28	21837.20
637.43	21771.66
637.57	21692.08
637.72	21357.39
637.87	21605.49
638.02	21706.13
638.17	21535.27
638.32	21418.24
638.46	21621.87
638.61	21603.14
638.76	21441.65
638.91	21825.50
639.06	21572.72
639.20	21785.71
639.35	21640.59
639.50	21652.30
639.65	21591.44
639.80	21687.40
639.94	21692.08
640.09	21362.07
640.24	21163.12
640.39	21465.05
640.54	21181.85
640.68	21453.35
640.83	21427.60
640.98	21291.85
641.13	21116.31
641.27	21427.60
641.42	21401.86
641.57	21146.74
641.72	21451.01
641.86	21247.38
642.01	20814.38
642.16	21036.74
642.31	21263.77
642.45	21170.15
642.60	21369.09
642.75	21228.66
642.90	21348.03
643.04	21170.15
643.19	20908.01
643.34	21301.22
643.48	21689.74
643.63	21436.97
643.78	21027.37
643.93	21116.31
644.07	20849.49
644.22	20987.58
644.37	21006.31
644.51	20982.90
644.66	21013.33
644.81	21139.72
644.95	21240.36
645.10	21116.31
645.25	21025.03
645.39	21104.61
645.54	20999.29
645.69	20933.75
645.83	21043.76
645.98	21259.09
646.13	21282.49
646.27	20802.68
646.42	21219.30
646.57	21071.84
646.71	20900.98
646.86	20774.60
647.00	20933.75
647.15	20868.22
647.30	20739.49
647.44	20475.01
647.59	20910.35
647.74	20697.36
647.88	21053.12
648.03	20912.69
648.17	20840.13
648.32	20339.26
648.47	20709.06
648.61	20744.17
648.76	20786.30
648.90	21015.67
649.05	20868.22
649.20	20900.98
649.34	20982.90
649.49	20821.41
649.63	20868.22
649.78	20781.62
649.92	20704.38
650.07	20807.36
650.21	20769.91
650.36	20851.83
650.51	20467.98
650.65	20582.67
650.80	20655.23
650.94	20709.06
651.09	20182.44
651.23	20067.75
651.38	20475.01
651.52	20219.89
651.67	20762.89
651.81	20561.61
651.96	20683.31
652.10	20592.03
652.25	20327.55
652.39	20301.81
652.54	20030.30
652.68	20121.59
652.83	20105.20
652.97	20524.16
653.12	20208.19
653.26	20566.29
653.41	20444.58
653.55	20341.60
653.70	19978.81
653.84	20334.57
653.99	20283.08
654.13	20226.91
654.27	20037.33
654.42	20318.19
654.56	20079.46
654.71	20376.70
654.85	20339.26
655.00	20400.11
655.14	20318.19
655.29	19929.66
655.43	19910.94
655.57	20006.90
655.72	19939.02
655.86	20252.66
656.01	19522.41
656.15	19974.13
656.30	20203.50
656.44	20079.46
656.58	20102.86
656.73	19861.79
656.87	19672.20
657.01	19885.19
657.16	19908.60
657.30	19761.14
657.45	19716.67
657.59	19789.23
657.73	19538.79
657.88	19824.34
658.02	19793.91
658.16	19594.96
658.31	19983.49
658.45	19756.46
658.60	19506.02
658.74	19601.99
658.88	19847.74
659.03	19859.45
659.17	19356.23
659.31	19510.71
659.46	19501.34
659.60	19559.86
659.74	19356.23
659.89	19653.48
660.03	19215.80
660.17	19482.62
660.32	19445.17
660.46	19157.28
660.60	19304.74
660.74	19309.42
660.89	19290.70
661.03	19424.11
661.17	19440.49
661.32	19094.09
661.46	19276.65
661.60	19304.74
661.74	19136.22
661.89	19124.52
662.03	19049.62
662.17	18944.30
662.31	19005.15
662.46	19094.09
662.60	19030.90
662.74	18862.38
662.88	18920.89
663.03	18923.23
663.17	19330.48
663.31	18876.42
663.45	18941.96
663.60	18670.45
663.74	18618.96
663.88	18623.64
664.02	18766.42
664.17	18565.13
664.31	18642.37
664.45	18455.12
664.59	18132.13
664.73	18515.98
664.88	18532.36
665.02	18403.63
665.16	18567.47
665.30	18611.94
665.44	18441.08
665.59	18541.72
665.73	18546.40
665.87	18450.44
666.01	18448.10
666.15	18242.14
666.29	18361.50
666.44	18497.25
666.58	17984.68
666.72	17968.29
666.86	18202.35
667.00	18073.62
667.14	18094.68
667.28	17888.71
667.43	18057.23
667.57	18422.36
667.71	18080.64
667.85	18082.98
667.99	18066.60
668.13	18335.76
668.27	18185.96
668.41	17867.65
668.56	17867.65
668.70	17991.70
668.84	17846.58
668.98	17518.91
669.12	17689.77
669.26	17675.73
669.40	17476.78
669.54	17701.47
669.68	17511.89
669.82	17640.62
669.96	17678.07
670.10	17563.38
670.25	17631.26
670.39	17397.20
670.53	17378.48
670.67	17294.22
670.81	17614.87
670.95	17441.67
671.09	17064.85
671.23	17289.54
671.37	17441.67
671.51	17502.53
671.65	17619.55
671.79	17139.74
671.93	17078.89
672.07	17366.78
672.21	17137.40
672.35	16978.25
672.49	16985.27
672.63	16795.68
672.77	16776.96
672.91	16922.07
673.05	16503.12
673.19	16830.79
673.33	16720.79
673.47	16528.86
673.61	16695.04
673.75	16938.46
673.89	16737.17
674.03	16477.37
674.17	16739.51
674.31	16517.16
674.45	16327.58
674.59	16453.97
674.73	16475.03
674.87	16573.33
675.01	16409.50
675.15	16704.40
675.29	16297.15
675.43	16311.19
675.56	16348.64
675.70	16255.02
675.84	16091.18
675.98	15503.71
676.12	15929.69
676.26	16159.06
676.40	16255.02
676.54	16156.72
676.68	16257.36
676.82	15578.61
676.96	15885.22
677.10	15960.11
677.23	15812.66
677.37	15606.69
677.51	15688.61
677.65	15515.41
677.79	15318.81
677.93	15428.81
678.07	15276.68
678.21	15169.01
678.34	15115.18
678.48	15274.34
678.62	14892.83
678.76	15117.52
678.90	15283.70
679.04	15059.01
679.18	14927.94
679.31	14946.66
679.45	14808.57
679.59	15019.22
679.73	14841.34
679.87	14864.74
680.00	14878.79
680.14	14661.12
680.28	14904.53
680.42	14663.46
680.56	14705.59
680.70	14956.02
680.83	14703.25
680.97	14841.34
681.11	14548.77
681.25	14569.83
681.39	14230.46
681.52	14415.36
681.66	14490.26
681.80	14508.98
681.94	14267.91
682.07	14143.86
682.21	14242.16
682.35	14293.65
682.49	14134.50
682.62	13909.80
682.76	14052.58
682.90	14111.09
683.04	13799.80
683.17	13802.14
683.31	13734.26
683.45	13790.44
683.59	13715.54
683.72	13671.07
683.86	13792.78
684.00	13727.24
684.13	13675.75
684.27	13408.93
684.41	13502.55
684.55	13511.91
684.68	13352.76
684.82	13530.64
684.96	13146.79
685.09	13186.58
685.23	13345.73
685.37	13256.79
685.50	13139.77
685.64	13177.22
685.78	12966.57
685.91	13074.23
686.05	13053.17
686.19	12650.60
686.32	12917.42
686.46	12678.68
686.60	12695.07
686.73	12985.29
686.87	12924.44
687.01	12709.11
687.14	12830.82
687.28	12631.87
687.42	12453.99
687.55	12468.03
687.69	12521.87
687.82	12325.26
687.96	12336.96
688.10	12276.11
688.23	12484.42
688.37	12224.62
688.50	12184.83
688.64	12393.14
688.78	12159.08
688.91	12161.42
689.05	12002.27
689.18	11716.72
689.32	11662.89
689.46	11920.35
689.59	11796.30
689.73	12051.42
689.86	11878.22
690.00	11744.81
690.13	11864.18
690.27	11908.65
690.41	11772.89
690.54	11672.25
690.68	11613.74
690.81	11726.08
690.95	11506.07
691.08	11587.99
691.22	11435.86
691.35	11363.30
691.49	11339.90
691.62	11255.64
691.76	11515.44
691.89	11208.83
692.03	11187.76
692.16	11293.08
692.30	11269.68
692.43	11077.76
692.57	10750.08
692.70	11143.29
692.84	11115.20
692.97	11108.18
693.11	10841.36
693.24	11012.22
693.38	10686.89
693.51	10621.35
693.65	10892.85
693.78	10637.73
693.92	10726.68
694.05	10691.57
694.19	10658.80
694.32	10752.42
694.45	10406.02
694.59	10621.35
694.72	10511.35
694.86	10242.18
694.99	10354.53
695.13	10539.43
695.26	10377.94
695.39	10228.14
695.53	10195.37
695.66	10267.93
695.80	10153.24
695.93	9949.62
696.07	9827.91
696.20	9907.49
696.33	10019.83
696.47	9846.63
696.60	9844.29
696.73	9710.88
696.87	9865.36
697.00	9671.09
697.14	9397.25
697.27	9500.23
697.40	9289.59
697.54	9628.96
697.67	9582.15
697.80	9427.68
697.94	9565.77
698.07	9366.82
698.21	9420.66
698.34	9298.95
698.47	9380.87
698.61	9256.82
698.74	9270.86
698.87	9242.78
699.01	9174.90
699.14	9408.95
699.27	9355.12
699.40	9228.73
699.54	9425.34
699.67	8959.57
699.80	8957.23
699.94	8912.76
700.07	8863.61
700.20	8784.03
700.34	8798.07
700.47	8720.84
700.60	8503.17
700.73	8578.06
700.87	8809.78
701.00	8575.72
701.13	8568.70
701.26	8475.08
701.40	8461.04
701.53	8615.51
701.66	8346.35
701.79	8430.61
701.93	8547.64
702.06	8517.21
702.19	8402.52
702.32	8273.79
702.46	8149.75
702.59	8086.55
702.72	8198.90
702.85	8042.08
702.99	7892.29
703.12	7824.41
703.25	8039.74
703.38	7948.46
703.51	8006.97
703.65	8084.21
703.78	8116.98
703.91	7971.86
704.04	7927.39
704.17	7801.01
704.31	7791.64
704.44	7782.28
704.57	7775.26
704.70	7672.28
704.83	7452.27
704.96	7702.70
705.10	7524.82
705.23	7562.27
>>>>>End Processed Spectral Data<<<<<
