SpectraSuite Data File
++++++++++++++++++++++++++++++++++++
Date: Thu Oct 24 13:21:41 EDT 2013
User: stostad
Dark Spectrum Present: No
Reference Spectrum Present: No
Number of Sampled Component Spectra: 1
Spectrometers: USB2+H05261
Integration Time (usec): 100000 (USB2+H05261)
Spectra Averaged: 1 (USB2+H05261)
Boxcar Smoothing: 0 (USB2+H05261)
Correct for Electrical Dark: No (USB2+H05261)
Strobe/Lamp Enabled: No (USB2+H05261)
Correct for Detector Non-linearity: No (USB2+H05261)
Correct for Stray Light: No (USB2+H05261)
Number of Pixels in Processed Spectrum: 2048
>>>>>Begin Processed Spectral Data<<<<<
365.73	561.73
365.92	561.73
366.12	561.73
366.32	510.24
366.52	519.60
366.72	479.81
366.91	486.83
367.11	468.11
367.31	451.72
367.51	489.17
367.70	496.19
367.90	498.53
368.10	554.71
368.30	475.13
368.49	451.72
368.69	543.00
368.89	503.22
369.09	533.64
369.28	482.15
369.48	517.26
369.68	456.40
369.87	554.71
370.07	477.47
370.27	601.52
370.47	828.55
370.66	1331.76
370.86	1425.39
371.06	1519.01
371.25	1526.03
371.45	1514.33
371.65	1565.82
371.84	1514.33
372.04	1629.01
372.24	1586.88
372.44	1598.59
372.63	1661.78
372.83	1694.55
373.03	1746.04
373.22	1605.61
373.42	1717.95
373.62	1708.59
373.81	1741.36
374.01	1774.13
374.21	1722.63
374.40	1795.19
374.60	1769.44
374.79	1748.38
374.99	1795.19
375.19	1659.44
375.38	1797.53
375.58	1842.00
375.78	1820.94
375.97	1837.32
376.17	1893.49
376.37	1947.33
376.56	1839.66
376.76	1898.17
376.95	2040.95
377.15	1886.47
377.35	1923.92
377.54	2069.03
377.74	2022.22
377.93	2005.84
378.13	2015.20
378.33	2073.71
378.52	2097.12
378.72	1991.80
378.91	1961.37
379.11	2113.50
379.31	2108.82
379.50	2092.44
379.70	2200.10
379.89	2069.03
380.09	2153.29
380.28	2127.55
380.48	2153.29
380.68	2195.42
380.87	2111.16
381.07	2235.21
381.26	2331.17
381.46	2328.83
381.65	2298.41
381.85	2270.32
382.04	2218.83
382.24	2340.54
382.43	2331.17
382.63	2389.69
382.83	2368.62
383.02	2448.20
383.22	2476.29
383.41	2452.88
383.61	2492.67
383.80	2429.48
384.00	2450.54
384.19	2527.78
384.39	2502.03
384.58	2387.35
384.78	2427.14
384.97	2581.61
385.17	2562.89
385.36	2523.10
385.56	2597.99
385.75	2574.59
385.95	2583.95
386.14	2567.57
386.34	2663.53
386.53	2605.02
386.72	2722.04
386.92	2712.68
387.11	2619.06
387.31	2806.30
387.50	2773.53
387.70	2801.62
387.89	2670.55
388.09	2757.15
388.28	2848.43
388.48	2752.47
388.67	2888.22
388.86	2883.54
389.06	2906.95
389.25	2853.11
389.45	2981.84
389.64	2918.65
389.84	2998.23
390.03	3005.25
390.22	3061.42
390.42	2995.89
390.61	2970.14
390.81	2991.20
391.00	3096.53
391.19	3084.83
391.39	3084.83
391.58	3096.53
391.78	3082.49
391.97	3192.49
392.16	3101.21
392.36	3253.34
392.55	3295.47
392.75	3211.22
392.94	3283.77
393.13	3269.73
393.33	3286.11
393.52	3471.01
393.71	3478.04
393.91	3339.94
394.10	3358.67
394.29	3358.67
394.49	3555.27
394.68	3534.21
394.88	3442.93
395.07	3660.60
395.26	3527.19
395.46	3651.24
395.65	3691.02
395.84	3758.90
396.04	3627.83
396.23	3665.28
396.42	3723.79
396.62	3775.28
396.81	3840.82
397.00	3665.28
397.19	3749.54
397.39	3829.12
397.58	3791.67
397.77	3824.44
397.97	4114.66
398.16	3922.74
398.35	4114.66
398.55	3906.35
398.74	4079.55
398.93	3999.98
399.12	3999.98
399.32	4065.51
399.51	4203.60
399.70	4175.52
399.90	4067.85
400.09	4252.75
400.28	4292.54
400.47	4329.99
400.67	4526.60
400.86	4283.18
401.05	4409.57
401.24	4440.00
401.44	4493.83
401.63	4407.23
401.82	4381.48
402.01	4571.07
402.21	4407.23
402.40	4437.66
402.59	4449.36
402.78	4514.89
402.97	4713.84
403.17	4870.65
403.36	4688.09
403.55	4739.58
403.74	4741.93
403.93	4971.30
404.13	4954.91
404.32	4961.94
404.51	4952.57
404.70	4926.83
404.89	5053.22
405.09	5062.58
405.28	5111.73
405.47	5121.09
405.66	5212.37
405.85	5107.05
406.05	5128.11
406.24	5172.58
406.43	5055.56
406.62	5352.81
406.81	5397.28
407.00	5221.74
407.20	5245.14
407.39	5371.53
407.58	5462.81
407.77	5568.13
407.96	5434.72
408.15	5511.96
408.34	5423.02
408.54	5734.31
408.73	5664.10
408.92	5799.85
409.11	5802.19
409.30	5877.09
409.49	5790.49
409.68	5891.13
409.87	5795.17
410.07	6033.90
410.26	6181.35
410.45	6001.13
410.64	6214.12
410.83	6066.67
411.02	6141.57
411.21	6417.75
411.40	6232.85
411.59	6202.42
411.78	6331.15
411.98	6424.77
412.17	6546.48
412.36	6504.35
412.55	6761.81
412.74	6642.44
412.93	6640.10
413.12	6670.53
413.31	6970.12
413.50	6801.60
413.69	6836.70
413.88	6977.14
414.07	7047.35
414.26	7084.80
414.45	6970.12
414.64	6981.82
414.83	7351.62
415.02	7470.99
415.22	7456.95
415.41	7527.16
415.60	7492.05
415.79	7606.74
415.98	7712.07
416.17	7763.56
416.36	7616.10
416.55	7634.83
416.74	7808.03
416.93	7850.16
417.12	7838.45
417.31	7983.57
417.50	8159.11
417.69	8067.83
417.88	8187.19
418.07	8229.32
418.26	8435.29
418.45	8482.10
418.64	8568.70
418.83	8498.49
419.02	8561.68
419.21	8528.91
419.39	8784.03
419.58	8454.02
419.77	8472.74
419.96	8627.21
420.15	8589.77
420.34	8730.20
420.53	8924.46
420.72	8798.07
420.91	8814.46
421.10	9020.42
421.29	9177.24
421.48	9095.32
421.67	9132.77
421.86	9217.03
422.05	9317.67
422.24	9329.38
422.43	9188.94
422.61	9401.93
422.80	9680.46
422.99	9423.00
423.18	9268.52
423.37	9593.86
423.56	9518.96
423.75	9357.46
423.94	9380.87
424.13	8835.52
424.32	9001.70
424.50	9549.39
424.69	9533.00
424.88	9357.46
425.07	9252.14
425.26	9462.79
425.45	9535.34
425.64	9558.75
425.83	9596.20
426.01	9607.90
426.20	9579.81
426.39	9734.29
426.58	9729.61
426.77	9689.82
426.96	9710.88
427.15	9762.37
427.33	9837.27
427.52	9837.27
427.71	10071.33
427.90	9907.49
428.09	10097.07
428.28	10291.34
428.46	9951.96
428.65	10186.01
428.84	10569.86
429.03	10455.17
429.22	10167.29
429.40	10260.91
429.59	10494.96
429.78	10164.95
429.97	10085.37
430.16	10658.80
430.34	10665.82
430.53	10759.44
430.72	10672.84
430.91	10761.78
431.10	11044.99
431.28	11136.27
431.47	11246.27
431.66	11171.38
431.85	10883.49
432.03	11260.32
432.22	11379.68
432.41	11094.14
432.60	11192.44
432.79	11604.38
432.97	11470.97
433.16	11440.54
433.35	11250.96
433.54	11634.80
433.72	11737.79
433.91	11754.17
434.10	11859.49
434.28	11557.57
434.47	11744.81
434.66	12058.44
434.85	12177.81
435.03	12138.02
435.22	12287.81
435.41	12678.68
435.59	12446.97
435.78	12425.90
435.97	12446.97
436.16	12196.53
436.34	12571.02
436.53	12514.84
436.72	12678.68
436.90	12325.26
437.09	12723.15
437.28	12482.08
437.46	12786.35
437.65	12753.58
437.84	13022.74
438.02	12959.55
438.21	12889.33
438.40	12931.46
438.58	13317.65
438.77	13542.34
438.96	13432.33
439.14	13584.47
439.33	13525.96
439.52	13760.01
439.70	13914.48
439.89	14253.86
440.08	14387.27
440.26	14169.60
440.45	14118.11
440.63	14317.06
440.82	14618.99
441.01	14321.74
441.19	15040.28
441.38	14745.38
441.57	14618.99
441.75	14871.76
441.94	15246.25
442.12	15414.77
442.31	15484.98
442.50	15707.34
442.68	15370.30
442.87	15571.58
443.05	15590.31
443.24	15854.79
443.43	15665.21
443.61	15845.43
443.80	16135.65
443.98	15875.85
444.17	15140.93
444.35	15786.91
444.54	16219.91
444.73	16058.42
444.91	15957.77
445.10	15946.07
445.28	16339.28
445.47	16105.23
445.65	16049.05
445.84	16308.85
446.02	16479.71
446.21	16475.03
446.39	16215.23
446.58	16620.14
446.77	16156.72
446.95	15871.17
447.14	16369.71
447.32	16386.09
447.51	16512.48
447.69	16369.71
447.88	16362.69
448.06	16460.99
448.25	16430.56
448.43	16704.40
448.62	16835.47
448.80	16596.74
448.99	16524.18
449.17	16762.92
449.36	16688.02
449.54	17064.85
449.73	17160.81
449.91	17579.76
450.10	17507.21
450.28	17682.75
450.46	17603.17
450.65	17479.12
450.83	17649.98
451.02	17462.74
451.20	17872.33
451.39	17741.26
451.57	17958.93
451.76	17638.28
451.94	17781.05
452.13	17949.57
452.31	18258.52
452.49	17930.84
452.68	18384.91
452.86	18129.79
453.05	18569.81
453.23	18218.73
453.42	18314.69
453.60	18153.20
453.78	18621.30
453.97	18459.81
454.15	18457.46
454.34	18448.10
454.52	18874.08
454.70	18806.20
454.89	18698.54
455.07	19105.79
455.26	19168.99
455.44	19447.51
455.62	19262.61
455.81	19358.57
455.99	19569.22
456.17	19536.45
456.36	19719.01
456.54	19580.92
456.73	19681.56
456.91	20463.30
457.09	20046.69
457.28	20388.41
457.46	20311.17
457.64	20589.69
457.83	20430.54
458.01	20627.14
458.19	20844.81
458.38	20748.85
458.56	20837.79
458.74	20823.75
458.93	20746.51
459.11	20966.52
459.29	20915.03
459.48	21132.70
459.66	21062.48
459.84	21275.47
460.03	21481.44
460.21	21664.00
460.39	21603.14
460.57	21366.75
460.76	21848.90
460.94	21933.16
461.12	21963.59
461.31	21888.69
461.49	22054.87
461.67	21921.46
461.85	22324.03
462.04	22202.32
462.22	23246.20
462.40	23061.30
462.59	22487.87
462.77	22654.05
462.95	22799.16
463.13	22455.10
463.32	22876.40
463.50	22717.24
463.68	23161.94
463.86	23344.50
464.05	22829.59
464.23	22677.45
464.41	23311.74
464.59	22951.29
464.78	24025.60
464.96	23356.21
465.14	23674.52
465.32	23550.47
465.50	23812.61
465.69	24147.31
465.87	23789.20
466.05	23953.04
466.23	24030.28
466.41	23697.92
466.60	24484.34
466.78	23950.70
466.96	24175.39
467.14	24198.80
467.32	24201.14
467.51	24774.57
467.69	23758.78
467.87	24617.75
468.05	24786.27
468.23	24280.72
468.41	24423.49
468.60	24854.15
468.78	25277.79
468.96	24739.46
469.14	25280.13
469.32	25675.68
469.50	24833.08
469.69	25680.36
469.87	25511.84
470.05	25626.53
470.23	26106.34
470.41	25764.62
470.59	25930.80
470.77	25923.77
470.95	26281.88
471.14	26967.65
471.32	25832.49
471.50	26974.67
471.68	26581.46
471.86	26794.45
472.04	27119.79
472.22	27510.66
472.40	26981.70
472.58	27489.59
472.77	27679.18
472.95	27955.36
473.13	28559.22
473.31	27683.86
473.49	28140.26
473.67	27971.74
473.85	28320.48
474.03	28804.97
474.21	28308.78
474.39	28961.79
474.57	28973.49
474.75	29551.60
474.93	29322.23
475.12	29509.47
475.30	29673.31
475.48	29820.77
475.66	29858.21
475.84	30302.92
476.02	30644.63
476.20	30548.67
476.38	31138.49
476.56	31505.95
476.74	31477.86
476.92	31402.97
477.10	31447.44
477.28	31810.22
477.46	32060.66
477.64	32149.60
477.82	32622.39
478.00	33661.58
478.18	33312.84
478.36	33394.76
478.54	33869.89
478.72	33855.85
478.90	34061.82
479.08	34426.94
479.26	34843.56
479.44	34883.34
479.62	35019.10
479.80	35618.27
479.98	36107.44
480.16	36554.49
480.34	36336.82
480.52	36596.62
480.70	36517.04
480.88	36545.12
481.06	37221.54
481.24	37474.32
481.41	37785.61
481.59	38117.96
481.77	38859.91
481.95	39035.45
482.13	39515.26
482.31	38983.96
482.49	40147.21
482.67	39716.55
482.85	40301.68
483.03	40683.19
483.21	41647.49
483.39	41427.48
483.57	41045.97
483.74	41551.53
483.92	42321.57
484.10	42134.32
484.28	42693.71
484.46	43416.94
484.64	43807.81
484.82	43681.42
485.00	44226.76
485.18	44538.05
485.35	45102.12
485.53	45425.12
485.71	45202.77
485.89	46321.54
486.07	46115.58
486.25	46047.70
486.43	46569.64
486.61	46724.11
486.78	47316.27
486.96	47576.07
487.14	47992.68
487.32	48282.91
487.50	48865.70
487.68	48662.08
487.85	49146.57
488.03	49495.31
488.21	50220.87
488.39	49932.99
488.57	49963.42
488.75	50412.80
488.92	50583.66
489.10	51222.62
489.28	51278.80
489.46	51714.14
489.64	51716.48
489.81	52425.66
489.99	52254.80
490.17	52825.89
490.35	53139.52
490.53	53256.55
490.70	53413.37
490.88	53151.23
491.06	53935.30
491.24	53766.79
491.41	54017.22
491.59	54337.88
491.77	54454.90
491.95	54773.22
492.13	54892.58
492.30	55075.15
492.48	55199.19
492.66	55213.24
492.84	55466.02
493.01	55828.80
493.19	55805.39
493.37	56219.67
493.54	56229.03
493.72	56736.93
493.90	56617.56
494.08	56776.72
494.25	57345.47
494.43	57155.88
494.61	57422.70
494.79	57277.59
494.96	57469.51
495.14	57717.61
495.32	57975.07
495.49	58113.16
495.67	58333.17
495.85	58756.81
496.02	58475.94
496.20	58492.33
496.38	58602.33
496.55	58822.34
496.73	59316.20
496.91	59159.38
497.09	59288.11
497.26	59426.20
497.44	59533.87
497.62	59707.07
497.79	59992.61
497.97	59791.33
498.14	60331.99
498.32	60324.97
498.50	60406.89
498.67	60552.00
498.85	60470.08
499.03	60725.20
499.20	60816.48
499.38	61066.92
499.56	61125.43
499.73	61071.60
499.91	61322.04
500.08	61443.74
500.26	61310.33
500.44	61410.98
500.61	61769.08
500.79	61595.88
500.97	61916.53
501.14	62159.95
501.32	62073.35
501.49	61991.43
501.67	62269.95
501.84	62234.84
502.02	62508.69
502.20	62389.32
502.37	62618.69
502.55	62386.98
502.72	62709.97
502.90	62670.18
503.07	62777.85
503.25	62850.41
503.43	63002.54
503.60	63128.93
503.78	63217.87
503.95	63208.51
504.13	63112.55
504.30	63494.05
504.48	63384.05
504.65	63540.86
504.83	63716.40
505.01	63828.75
505.18	63641.51
505.36	63882.58
505.53	63877.90
505.71	64051.10
505.88	64275.79
506.06	63994.93
506.23	64320.26
506.41	64182.17
506.58	64500.48
506.76	64285.15
506.93	64591.76
507.11	64523.89
507.28	64697.09
507.46	64804.75
507.63	64940.50
507.81	65076.26
507.98	64643.26
508.16	65006.04
508.33	65013.06
508.50	65319.67
508.68	65307.97
508.85	65535.00
509.03	65307.97
509.20	65443.72
509.38	65509.25
509.55	65535.00
509.73	65535.00
509.90	65535.00
510.08	65535.00
510.25	65535.00
510.42	65535.00
510.60	65535.00
510.77	65535.00
510.95	65535.00
511.12	65535.00
511.30	65535.00
511.47	65535.00
511.64	65535.00
511.82	65535.00
511.99	65535.00
512.17	65535.00
512.34	65535.00
512.51	65535.00
512.69	65535.00
512.86	65535.00
513.04	65535.00
513.21	65535.00
513.38	65535.00
513.56	65535.00
513.73	65535.00
513.90	65535.00
514.08	65535.00
514.25	65535.00
514.43	65535.00
514.60	65535.00
514.77	65535.00
514.95	65535.00
515.12	65535.00
515.29	65535.00
515.47	65535.00
515.64	65535.00
515.81	65535.00
515.99	65535.00
516.16	65535.00
516.33	65535.00
516.51	65535.00
516.68	65535.00
516.85	65535.00
517.03	65535.00
517.20	65535.00
517.37	65535.00
517.54	65535.00
517.72	65535.00
517.89	65535.00
518.06	65535.00
518.24	65535.00
518.41	65535.00
518.58	65535.00
518.75	65535.00
518.93	65535.00
519.10	65535.00
519.27	65535.00
519.45	65535.00
519.62	65535.00
519.79	65535.00
519.96	65535.00
520.14	65535.00
520.31	65535.00
520.48	65535.00
520.65	65535.00
520.83	65535.00
521.00	65535.00
521.17	65535.00
521.34	65535.00
521.52	65535.00
521.69	65535.00
521.86	65535.00
522.03	65535.00
522.20	65535.00
522.38	65535.00
522.55	65535.00
522.72	65535.00
522.89	65535.00
523.07	65535.00
523.24	65535.00
523.41	65535.00
523.58	65535.00
523.75	65535.00
523.92	65535.00
524.10	65535.00
524.27	65535.00
524.44	65535.00
524.61	65535.00
524.78	65535.00
524.96	65535.00
525.13	65535.00
525.30	65535.00
525.47	65535.00
525.64	65535.00
525.81	65535.00
525.98	65535.00
526.16	65535.00
526.33	65535.00
526.50	65535.00
526.67	65535.00
526.84	65535.00
527.01	65535.00
527.18	65535.00
527.36	65535.00
527.53	65535.00
527.70	65535.00
527.87	65535.00
528.04	65535.00
528.21	65535.00
528.38	65535.00
528.55	65535.00
528.72	65535.00
528.89	65535.00
529.07	65535.00
529.24	65535.00
529.41	65535.00
529.58	65535.00
529.75	65535.00
529.92	65535.00
530.09	65535.00
530.26	65535.00
530.43	65535.00
530.60	65535.00
530.77	65535.00
530.94	65535.00
531.11	65535.00
531.28	65535.00
531.46	65535.00
531.63	65535.00
531.80	65535.00
531.97	65535.00
532.14	65535.00
532.31	65535.00
532.48	65535.00
532.65	65535.00
532.82	65535.00
532.99	65535.00
533.16	65535.00
533.33	65535.00
533.50	65535.00
533.67	65535.00
533.84	65535.00
534.01	65535.00
534.18	65535.00
534.35	65535.00
534.52	65535.00
534.69	65535.00
534.86	65535.00
535.03	65535.00
535.20	65535.00
535.37	65535.00
535.54	65535.00
535.71	65535.00
535.88	65535.00
536.05	65535.00
536.22	65535.00
536.38	65535.00
536.55	65535.00
536.72	65535.00
536.89	65535.00
537.06	65535.00
537.23	65535.00
537.40	65535.00
537.57	65535.00
537.74	65535.00
537.91	65535.00
538.08	65535.00
538.25	65535.00
538.42	65535.00
538.59	65535.00
538.75	65535.00
538.92	65535.00
539.09	65535.00
539.26	65535.00
539.43	65535.00
539.60	65535.00
539.77	65535.00
539.94	65535.00
540.11	65535.00
540.28	65535.00
540.44	65535.00
540.61	65535.00
540.78	65535.00
540.95	65535.00
541.12	65535.00
541.29	65535.00
541.46	65535.00
541.62	65535.00
541.79	65535.00
541.96	65535.00
542.13	65535.00
542.30	65535.00
542.47	65535.00
542.63	65535.00
542.80	65535.00
542.97	65535.00
543.14	65535.00
543.31	65535.00
543.48	65535.00
543.64	65535.00
543.81	65535.00
543.98	65535.00
544.15	65535.00
544.32	65535.00
544.48	65535.00
544.65	65535.00
544.82	65535.00
544.99	65535.00
545.16	65535.00
545.32	65535.00
545.49	65535.00
545.66	65535.00
545.83	65535.00
546.00	65535.00
546.16	65535.00
546.33	65535.00
546.50	65535.00
546.67	65535.00
546.83	65535.00
547.00	65535.00
547.17	65535.00
547.34	65535.00
547.50	65535.00
547.67	65535.00
547.84	65535.00
548.00	65535.00
548.17	65535.00
548.34	65535.00
548.51	65535.00
548.67	65535.00
548.84	65535.00
549.01	65535.00
549.18	65535.00
549.34	65535.00
549.51	65535.00
549.68	65535.00
549.84	65535.00
550.01	65535.00
550.18	65535.00
550.34	65535.00
550.51	65535.00
550.68	65535.00
550.84	65535.00
551.01	65535.00
551.18	65535.00
551.34	65535.00
551.51	65535.00
551.68	65535.00
551.84	65535.00
552.01	65535.00
552.18	65535.00
552.34	65535.00
552.51	65535.00
552.68	65535.00
552.84	65535.00
553.01	65535.00
553.18	65535.00
553.34	65535.00
553.51	65535.00
553.67	65535.00
553.84	65535.00
554.01	65535.00
554.17	65535.00
554.34	65535.00
554.51	65535.00
554.67	65535.00
554.84	65535.00
555.00	65535.00
555.17	65535.00
555.33	65535.00
555.50	65535.00
555.67	65535.00
555.83	65535.00
556.00	65535.00
556.16	65535.00
556.33	65535.00
556.50	65535.00
556.66	65535.00
556.83	65535.00
556.99	65535.00
557.16	65535.00
557.32	65535.00
557.49	65535.00
557.65	65535.00
557.82	65535.00
557.98	65535.00
558.15	65535.00
558.32	65535.00
558.48	65535.00
558.65	65535.00
558.81	65535.00
558.98	65535.00
559.14	65535.00
559.31	65535.00
559.47	65535.00
559.64	65535.00
559.80	65535.00
559.97	65535.00
560.13	65535.00
560.30	65535.00
560.46	65535.00
560.63	65535.00
560.79	65535.00
560.96	65535.00
561.12	65535.00
561.29	65535.00
561.45	65535.00
561.61	65535.00
561.78	65535.00
561.94	65535.00
562.11	65535.00
562.27	65535.00
562.44	65535.00
562.60	65535.00
562.77	65535.00
562.93	65535.00
563.10	65535.00
563.26	65535.00
563.42	65535.00
563.59	65535.00
563.75	65535.00
563.92	65535.00
564.08	65535.00
564.24	65535.00
564.41	65535.00
564.57	65535.00
564.74	65535.00
564.90	65535.00
565.07	65535.00
565.23	65535.00
565.39	65535.00
565.56	65535.00
565.72	65535.00
565.88	65535.00
566.05	65535.00
566.21	65535.00
566.38	65535.00
566.54	65535.00
566.70	65535.00
566.87	65535.00
567.03	65535.00
567.19	65535.00
567.36	65535.00
567.52	65535.00
567.68	65535.00
567.85	65535.00
568.01	65535.00
568.17	65535.00
568.34	65535.00
568.50	65535.00
568.66	65535.00
568.83	65535.00
568.99	65535.00
569.15	65535.00
569.32	65535.00
569.48	65535.00
569.64	65535.00
569.81	65535.00
569.97	65535.00
570.13	65535.00
570.30	65535.00
570.46	65535.00
570.62	65535.00
570.78	65535.00
570.95	65535.00
571.11	65535.00
571.27	65535.00
571.43	65535.00
571.60	65535.00
571.76	65535.00
571.92	65535.00
572.09	65535.00
572.25	65535.00
572.41	65535.00
572.57	65535.00
572.74	65535.00
572.90	65535.00
573.06	65535.00
573.22	65535.00
573.38	65535.00
573.55	65535.00
573.71	65535.00
573.87	65535.00
574.03	65535.00
574.20	65535.00
574.36	65535.00
574.52	65535.00
574.68	65535.00
574.84	65535.00
575.01	65535.00
575.17	65535.00
575.33	65535.00
575.49	65535.00
575.65	65535.00
575.82	65535.00
575.98	65535.00
576.14	65535.00
576.30	65535.00
576.46	65535.00
576.62	65535.00
576.79	65535.00
576.95	65535.00
577.11	65535.00
577.27	65535.00
577.43	65535.00
577.59	65535.00
577.75	65535.00
577.92	65535.00
578.08	65535.00
578.24	65535.00
578.40	65535.00
578.56	65535.00
578.72	65535.00
578.88	65535.00
579.04	65535.00
579.21	65535.00
579.37	65535.00
579.53	65535.00
579.69	65535.00
579.85	65535.00
580.01	65535.00
580.17	65535.00
580.33	65535.00
580.49	65535.00
580.65	65535.00
580.82	65535.00
580.98	65535.00
581.14	65535.00
581.30	65535.00
581.46	65535.00
581.62	65535.00
581.78	65535.00
581.94	65535.00
582.10	65535.00
582.26	65535.00
582.42	65535.00
582.58	65535.00
582.74	65535.00
582.90	65535.00
583.06	65535.00
583.22	65535.00
583.38	65535.00
583.54	65535.00
583.70	65535.00
583.86	65535.00
584.02	65535.00
584.18	65535.00
584.34	65535.00
584.50	65535.00
584.66	65535.00
584.82	65535.00
584.98	65535.00
585.14	65535.00
585.30	65535.00
585.46	65535.00
585.62	65535.00
585.78	65535.00
585.94	65535.00
586.10	65535.00
586.26	65535.00
586.42	65535.00
586.58	65535.00
586.74	65535.00
586.90	65535.00
587.06	65535.00
587.22	65535.00
587.38	65535.00
587.54	65535.00
587.70	65535.00
587.86	65535.00
588.02	65535.00
588.18	65535.00
588.34	65535.00
588.49	65535.00
588.65	65535.00
588.81	65535.00
588.97	65535.00
589.13	65535.00
589.29	65535.00
589.45	65535.00
589.61	65535.00
589.77	65535.00
589.93	65535.00
590.08	65535.00
590.24	65535.00
590.40	65535.00
590.56	65535.00
590.72	65535.00
590.88	65535.00
591.04	65535.00
591.20	65535.00
591.35	65535.00
591.51	65535.00
591.67	65535.00
591.83	65535.00
591.99	65535.00
592.15	65535.00
592.31	65535.00
592.46	65535.00
592.62	65535.00
592.78	65535.00
592.94	65535.00
593.10	65535.00
593.26	65535.00
593.41	65535.00
593.57	65535.00
593.73	65535.00
593.89	65535.00
594.05	65535.00
594.20	65535.00
594.36	65535.00
594.52	65535.00
594.68	65535.00
594.84	65535.00
594.99	65535.00
595.15	65535.00
595.31	65535.00
595.47	65535.00
595.62	65535.00
595.78	65535.00
595.94	65535.00
596.10	65535.00
596.25	65535.00
596.41	65535.00
596.57	65535.00
596.73	65535.00
596.88	65535.00
597.04	65535.00
597.20	65535.00
597.36	65535.00
597.51	65535.00
597.67	65535.00
597.83	65535.00
597.99	65535.00
598.14	65535.00
598.30	65535.00
598.46	65535.00
598.61	65535.00
598.77	65535.00
598.93	65535.00
599.09	65535.00
599.24	65535.00
599.40	65535.00
599.56	65535.00
599.71	65535.00
599.87	65535.00
600.03	65535.00
600.18	65535.00
600.34	65535.00
600.50	65535.00
600.65	65535.00
600.81	65535.00
600.97	65535.00
601.12	65535.00
601.28	65535.00
601.44	65535.00
601.59	65535.00
601.75	65535.00
601.91	65535.00
602.06	65535.00
602.22	65535.00
602.37	65535.00
602.53	65535.00
602.69	65535.00
602.84	65535.00
603.00	65535.00
603.16	65535.00
603.31	65535.00
603.47	65535.00
603.62	65535.00
603.78	65535.00
603.94	65535.00
604.09	65535.00
604.25	65535.00
604.40	65535.00
604.56	65535.00
604.71	65535.00
604.87	65535.00
605.03	65535.00
605.18	65535.00
605.34	65535.00
605.49	65535.00
605.65	65535.00
605.80	65535.00
605.96	65535.00
606.12	65535.00
606.27	65535.00
606.43	65535.00
606.58	65535.00
606.74	65535.00
606.89	65535.00
607.05	65535.00
607.20	65535.00
607.36	65535.00
607.51	65535.00
607.67	65535.00
607.82	65535.00
607.98	65535.00
608.13	65535.00
608.29	65535.00
608.44	65535.00
608.60	65535.00
608.75	65535.00
608.91	65535.00
609.06	65535.00
609.22	65535.00
609.37	65535.00
609.53	65535.00
609.68	65535.00
609.84	65535.00
609.99	65535.00
610.15	65535.00
610.30	65535.00
610.46	65535.00
610.61	65535.00
610.76	65535.00
610.92	65535.00
611.07	65535.00
611.23	65535.00
611.38	65535.00
611.54	65535.00
611.69	65535.00
611.84	65535.00
612.00	65535.00
612.15	65535.00
612.31	65535.00
612.46	65535.00
612.62	65535.00
612.77	65535.00
612.92	65535.00
613.08	65535.00
613.23	65535.00
613.39	65535.00
613.54	65535.00
613.69	65535.00
613.85	65535.00
614.00	65535.00
614.15	65535.00
614.31	65535.00
614.46	65535.00
614.62	65535.00
614.77	65535.00
614.92	65535.00
615.08	65535.00
615.23	65535.00
615.38	65535.00
615.54	65535.00
615.69	65535.00
615.84	65535.00
616.00	65535.00
616.15	65535.00
616.30	65535.00
616.46	65535.00
616.61	65535.00
616.76	65535.00
616.92	65535.00
617.07	65535.00
617.22	65535.00
617.37	65535.00
617.53	65535.00
617.68	65535.00
617.83	65535.00
617.99	65535.00
618.14	65535.00
618.29	65535.00
618.45	65535.00
618.60	65535.00
618.75	65535.00
618.90	65535.00
619.06	65535.00
619.21	65535.00
619.36	65535.00
619.51	65535.00
619.67	65535.00
619.82	65535.00
619.97	65535.00
620.12	65535.00
620.28	65535.00
620.43	65535.00
620.58	65535.00
620.73	65535.00
620.89	65535.00
621.04	65535.00
621.19	65535.00
621.34	65535.00
621.49	65535.00
621.65	65535.00
621.80	65535.00
621.95	65535.00
622.10	65535.00
622.25	65535.00
622.41	65535.00
622.56	65535.00
622.71	65535.00
622.86	65535.00
623.01	65535.00
623.16	65535.00
623.32	65535.00
623.47	65535.00
623.62	65535.00
623.77	65535.00
623.92	65535.00
624.07	65535.00
624.23	65535.00
624.38	65535.00
624.53	65535.00
624.68	65535.00
624.83	65535.00
624.98	65535.00
625.13	65535.00
625.29	65535.00
625.44	65535.00
625.59	65535.00
625.74	65535.00
625.89	65535.00
626.04	65535.00
626.19	65535.00
626.34	65535.00
626.49	65535.00
626.65	65535.00
626.80	65535.00
626.95	65535.00
627.10	65535.00
627.25	65535.00
627.40	65535.00
627.55	65535.00
627.70	65535.00
627.85	65535.00
628.00	65535.00
628.15	65535.00
628.30	65535.00
628.45	65535.00
628.60	65535.00
628.76	65535.00
628.91	65535.00
629.06	65535.00
629.21	65535.00
629.36	65535.00
629.51	65535.00
629.66	65535.00
629.81	65535.00
629.96	65535.00
630.11	65535.00
630.26	65535.00
630.41	65535.00
630.56	65535.00
630.71	65535.00
630.86	65535.00
631.01	65535.00
631.16	65535.00
631.31	65535.00
631.46	65535.00
631.61	65535.00
631.76	65535.00
631.91	65535.00
632.06	65535.00
632.21	65535.00
632.36	65535.00
632.51	65535.00
632.66	65535.00
632.81	65535.00
632.96	65535.00
633.10	65535.00
633.25	65535.00
633.40	65535.00
633.55	65535.00
633.70	65535.00
633.85	65535.00
634.00	65535.00
634.15	65535.00
634.30	65535.00
634.45	65535.00
634.60	65535.00
634.75	65535.00
634.90	65535.00
635.05	65535.00
635.19	65535.00
635.34	65535.00
635.49	65535.00
635.64	65535.00
635.79	65535.00
635.94	65535.00
636.09	65535.00
636.24	65535.00
636.39	65535.00
636.53	65535.00
636.68	65535.00
636.83	65535.00
636.98	65535.00
637.13	65535.00
637.28	65535.00
637.43	65535.00
637.57	65535.00
637.72	65535.00
637.87	65535.00
638.02	65535.00
638.17	65535.00
638.32	65535.00
638.46	65535.00
638.61	65535.00
638.76	65535.00
638.91	65535.00
639.06	65535.00
639.20	65535.00
639.35	65535.00
639.50	65535.00
639.65	65535.00
639.80	65535.00
639.94	65535.00
640.09	65535.00
640.24	65535.00
640.39	65535.00
640.54	65535.00
640.68	65535.00
640.83	65535.00
640.98	65535.00
641.13	65535.00
641.27	65535.00
641.42	65535.00
641.57	65535.00
641.72	65535.00
641.86	65535.00
642.01	65535.00
642.16	65535.00
642.31	65535.00
642.45	65535.00
642.60	65535.00
642.75	65535.00
642.90	65535.00
643.04	65535.00
643.19	65535.00
643.34	65535.00
643.48	65535.00
643.63	65535.00
643.78	65535.00
643.93	65535.00
644.07	65535.00
644.22	65535.00
644.37	65535.00
644.51	65535.00
644.66	65535.00
644.81	65535.00
644.95	65535.00
645.10	65535.00
645.25	65535.00
645.39	65535.00
645.54	65535.00
645.69	65535.00
645.83	65535.00
645.98	65535.00
646.13	65535.00
646.27	65535.00
646.42	65535.00
646.57	65535.00
646.71	65535.00
646.86	65535.00
647.00	65535.00
647.15	65535.00
647.30	65535.00
647.44	65535.00
647.59	65535.00
647.74	65535.00
647.88	65535.00
648.03	65535.00
648.17	65535.00
648.32	65535.00
648.47	65535.00
648.61	65535.00
648.76	65535.00
648.90	65535.00
649.05	65535.00
649.20	65535.00
649.34	65535.00
649.49	65535.00
649.63	65535.00
649.78	65535.00
649.92	65535.00
650.07	65535.00
650.21	65535.00
650.36	65535.00
650.51	65535.00
650.65	65535.00
650.80	65535.00
650.94	65535.00
651.09	65535.00
651.23	65535.00
651.38	65535.00
651.52	65535.00
651.67	65535.00
651.81	65535.00
651.96	65535.00
652.10	65535.00
652.25	65535.00
652.39	65535.00
652.54	65535.00
652.68	65535.00
652.83	65535.00
652.97	65535.00
653.12	65535.00
653.26	65535.00
653.41	65535.00
653.55	65535.00
653.70	65535.00
653.84	65535.00
653.99	65535.00
654.13	65535.00
654.27	65535.00
654.42	65535.00
654.56	65535.00
654.71	65535.00
654.85	65535.00
655.00	65535.00
655.14	65535.00
655.29	65535.00
655.43	65535.00
655.57	65535.00
655.72	65535.00
655.86	65535.00
656.01	65535.00
656.15	65535.00
656.30	65535.00
656.44	65535.00
656.58	65535.00
656.73	65535.00
656.87	65535.00
657.01	65535.00
657.16	65535.00
657.30	65535.00
657.45	65535.00
657.59	65535.00
657.73	65535.00
657.88	65535.00
658.02	65535.00
658.16	65535.00
658.31	65535.00
658.45	65535.00
658.60	65535.00
658.74	65535.00
658.88	65535.00
659.03	65535.00
659.17	65535.00
659.31	65535.00
659.46	65535.00
659.60	65535.00
659.74	65535.00
659.89	65535.00
660.03	65535.00
660.17	65535.00
660.32	65535.00
660.46	65535.00
660.60	65535.00
660.74	65535.00
660.89	65535.00
661.03	65535.00
661.17	65535.00
661.32	65535.00
661.46	65535.00
661.60	65535.00
661.74	65535.00
661.89	65535.00
662.03	65535.00
662.17	65535.00
662.31	65535.00
662.46	65535.00
662.60	65535.00
662.74	65535.00
662.88	65535.00
663.03	65535.00
663.17	65535.00
663.31	65535.00
663.45	65535.00
663.60	65535.00
663.74	65535.00
663.88	65535.00
664.02	65535.00
664.17	65535.00
664.31	65535.00
664.45	65535.00
664.59	65535.00
664.73	65535.00
664.88	65535.00
665.02	65535.00
665.16	65535.00
665.30	65535.00
665.44	65535.00
665.59	65535.00
665.73	65535.00
665.87	65535.00
666.01	65535.00
666.15	65535.00
666.29	65535.00
666.44	65535.00
666.58	65535.00
666.72	65535.00
666.86	65535.00
667.00	65535.00
667.14	65535.00
667.28	65535.00
667.43	65535.00
667.57	65535.00
667.71	65535.00
667.85	65535.00
667.99	65535.00
668.13	65535.00
668.27	65535.00
668.41	65535.00
668.56	65535.00
668.70	65535.00
668.84	65535.00
668.98	65535.00
669.12	65535.00
669.26	65535.00
669.40	65535.00
669.54	65535.00
669.68	65535.00
669.82	65535.00
669.96	65535.00
670.10	65535.00
670.25	65535.00
670.39	65535.00
670.53	65535.00
670.67	65535.00
670.81	65535.00
670.95	65535.00
671.09	65535.00
671.23	65535.00
671.37	65535.00
671.51	65535.00
671.65	65535.00
671.79	65535.00
671.93	65535.00
672.07	65535.00
672.21	65535.00
672.35	65535.00
672.49	65535.00
672.63	65535.00
672.77	65535.00
672.91	65535.00
673.05	65535.00
673.19	65535.00
673.33	65535.00
673.47	65535.00
673.61	65535.00
673.75	65535.00
673.89	65535.00
674.03	65535.00
674.17	65535.00
674.31	65535.00
674.45	65535.00
674.59	65535.00
674.73	65535.00
674.87	65535.00
675.01	65535.00
675.15	65535.00
675.29	65535.00
675.43	65535.00
675.56	65535.00
675.70	65535.00
675.84	65535.00
675.98	65535.00
676.12	65535.00
676.26	65535.00
676.40	65535.00
676.54	65535.00
676.68	65535.00
676.82	65535.00
676.96	65535.00
677.10	65535.00
677.23	65535.00
677.37	65535.00
677.51	65535.00
677.65	65535.00
677.79	65535.00
677.93	65535.00
678.07	65535.00
678.21	65535.00
678.34	65535.00
678.48	65535.00
678.62	65535.00
678.76	65535.00
678.90	65535.00
679.04	65535.00
679.18	65535.00
679.31	65535.00
679.45	65535.00
679.59	65535.00
679.73	65535.00
679.87	65535.00
680.00	65535.00
680.14	65535.00
680.28	65535.00
680.42	65535.00
680.56	65535.00
680.70	65535.00
680.83	65535.00
680.97	65535.00
681.11	65535.00
681.25	65535.00
681.39	65535.00
681.52	65535.00
681.66	65535.00
681.80	65535.00
681.94	65535.00
682.07	65535.00
682.21	65535.00
682.35	65535.00
682.49	65535.00
682.62	65535.00
682.76	65535.00
682.90	65535.00
683.04	65535.00
683.17	65535.00
683.31	65535.00
683.45	65535.00
683.59	65535.00
683.72	65535.00
683.86	65535.00
684.00	65535.00
684.13	65535.00
684.27	65535.00
684.41	65535.00
684.55	65535.00
684.68	65535.00
684.82	65535.00
684.96	65535.00
685.09	65535.00
685.23	65535.00
685.37	65535.00
685.50	65535.00
685.64	65535.00
685.78	65535.00
685.91	65535.00
686.05	65535.00
686.19	65535.00
686.32	65535.00
686.46	65535.00
686.60	65535.00
686.73	65535.00
686.87	65535.00
687.01	65535.00
687.14	65535.00
687.28	65535.00
687.42	65535.00
687.55	65535.00
687.69	65535.00
687.82	65535.00
687.96	65535.00
688.10	65535.00
688.23	65535.00
688.37	65535.00
688.50	65535.00
688.64	65535.00
688.78	65535.00
688.91	65535.00
689.05	65535.00
689.18	65535.00
689.32	65535.00
689.46	65535.00
689.59	65535.00
689.73	65535.00
689.86	65535.00
690.00	65535.00
690.13	65535.00
690.27	65535.00
690.41	65535.00
690.54	65535.00
690.68	65535.00
690.81	65535.00
690.95	65535.00
691.08	65535.00
691.22	65535.00
691.35	65535.00
691.49	65535.00
691.62	65535.00
691.76	65535.00
691.89	65535.00
692.03	65336.05
692.16	65375.84
692.30	65160.51
692.43	65162.85
692.57	65050.51
692.70	65043.49
692.84	64666.66
692.97	64690.07
693.11	64720.49
693.24	64535.59
693.38	64481.76
693.51	64533.25
693.65	64528.57
693.78	64374.09
693.92	64399.84
694.05	64568.36
694.19	64364.73
694.32	64287.49
694.45	63992.59
694.59	63884.92
694.72	63674.27
694.86	63674.27
694.99	63374.69
695.13	63554.91
695.26	63332.56
695.39	62990.84
695.53	63168.72
695.66	62983.82
695.80	62873.81
695.93	62873.81
696.07	62567.20
696.20	62850.41
696.33	62625.71
696.47	62791.89
696.60	62658.48
696.73	62642.10
696.87	62623.37
697.00	62548.48
697.14	62202.08
697.27	61897.81
697.40	61825.25
697.54	61820.57
697.67	61495.24
697.80	61357.14
697.94	61165.22
698.07	60935.85
698.21	60917.12
698.34	60743.92
698.47	61160.54
698.61	60757.97
698.74	60921.80
698.87	60825.84
699.01	60444.33
699.14	60734.56
699.27	60779.03
699.40	60640.94
699.54	60610.51
699.67	60011.34
699.80	60065.17
699.94	59882.61
700.07	59976.23
700.20	59522.16
700.34	59538.55
700.47	59559.61
700.60	59194.49
700.73	59433.22
700.87	59072.78
701.00	59072.78
701.13	58894.90
701.26	59166.40
701.40	59206.19
701.53	59100.87
701.66	59126.61
701.79	58691.27
701.93	58382.32
702.06	58415.09
702.19	58113.16
702.32	58244.23
702.46	58148.27
702.59	58066.35
702.72	57446.11
702.85	57523.35
702.99	57698.89
703.12	57221.42
703.25	57139.50
703.38	56917.15
703.51	56652.67
703.65	56755.65
703.78	56336.69
703.91	56350.74
704.04	56624.58
704.17	56615.22
704.31	56427.98
704.44	56219.67
704.57	56364.78
704.70	55980.93
704.83	56076.90
704.96	55824.12
705.10	55826.46
705.23	55772.63
>>>>>End Processed Spectral Data<<<<<
