SpectraSuite Data File
++++++++++++++++++++++++++++++++++++
Date: Thu Oct 24 13:21:19 EDT 2013
User: stostad
Dark Spectrum Present: No
Reference Spectrum Present: No
Number of Sampled Component Spectra: 1
Spectrometers: USB2+H05261
Integration Time (usec): 100000 (USB2+H05261)
Spectra Averaged: 1 (USB2+H05261)
Boxcar Smoothing: 0 (USB2+H05261)
Correct for Electrical Dark: No (USB2+H05261)
Strobe/Lamp Enabled: No (USB2+H05261)
Correct for Detector Non-linearity: No (USB2+H05261)
Correct for Stray Light: No (USB2+H05261)
Number of Pixels in Processed Spectrum: 2048
>>>>>Begin Processed Spectral Data<<<<<
365.73	477.47
365.92	477.47
366.12	477.47
366.32	524.28
366.52	451.72
366.72	475.13
366.91	512.58
367.11	423.64
367.31	433.00
367.51	465.77
367.70	468.11
367.90	458.74
368.10	514.92
368.30	414.27
368.49	428.32
368.69	465.77
368.89	447.04
369.09	449.38
369.28	437.68
369.48	437.68
369.68	543.00
369.87	540.66
370.07	552.37
370.27	510.24
370.47	636.63
370.66	758.33
370.86	849.61
371.06	877.70
371.25	833.23
371.45	849.61
371.65	945.58
371.84	891.74
372.04	924.51
372.24	898.77
372.44	910.47
372.63	985.37
372.83	917.49
373.03	931.53
373.22	931.53
373.42	950.26
373.62	985.37
373.81	964.30
374.01	936.21
374.21	973.66
374.40	945.58
374.60	997.07
374.79	959.62
374.99	961.96
375.19	968.98
375.38	1027.50
375.58	926.85
375.78	1015.79
375.97	1015.79
376.17	1032.18
376.37	1025.15
376.56	966.64
376.76	1046.22
376.95	1018.13
377.15	1039.20
377.35	1048.56
377.54	1041.54
377.74	1004.09
377.93	1039.20
378.13	1006.43
378.33	1074.31
378.52	1102.39
378.72	1069.62
378.91	1093.03
379.11	1046.22
379.31	1067.28
379.50	985.37
379.70	1053.24
379.89	1102.39
380.09	1048.56
380.28	1100.05
380.48	1128.14
380.68	1090.69
380.87	1132.82
381.07	1100.05
381.26	1137.50
381.46	1048.56
381.65	1020.47
381.85	1135.16
382.04	1135.16
382.24	1172.61
382.43	1104.73
382.63	1128.14
382.83	1123.46
383.02	1149.20
383.22	1146.86
383.41	1167.93
383.61	1095.37
383.80	1149.20
384.00	1228.78
384.19	1118.78
384.39	1174.95
384.58	1207.72
384.78	1174.95
384.97	1118.78
385.17	1245.16
385.36	1275.59
385.56	1184.31
385.75	1188.99
385.95	1191.33
386.14	1249.85
386.34	1242.82
386.53	1207.72
386.72	1217.08
386.92	1193.67
387.11	1214.74
387.31	1259.21
387.50	1252.19
387.70	1263.89
387.89	1205.38
388.09	1207.72
388.28	1261.55
388.48	1266.23
388.67	1313.04
388.86	1247.51
389.06	1308.36
389.25	1390.28
389.45	1355.17
389.64	1364.53
389.84	1355.17
390.03	1392.62
390.22	1329.42
390.42	1350.49
390.61	1341.13
390.81	1352.83
391.00	1387.94
391.19	1390.28
391.39	1551.78
391.58	1401.98
391.78	1416.02
391.97	1519.01
392.16	1359.85
392.36	1392.62
392.55	1380.92
392.75	1411.34
392.94	1523.69
393.13	1472.20
393.33	1404.32
393.52	1511.99
393.71	1460.49
393.91	1474.54
394.10	1465.18
394.29	1523.69
394.49	1509.65
394.68	1535.39
394.88	1523.69
395.07	1654.76
395.26	1554.12
395.46	1568.16
395.65	1547.09
395.84	1579.86
396.04	1589.22
396.23	1640.72
396.42	1582.20
396.62	1748.38
396.81	1572.84
397.00	1600.93
397.19	1638.38
397.39	1703.91
397.58	1685.19
397.77	1675.82
397.97	1659.44
398.16	1654.76
398.35	1654.76
398.55	1659.44
398.74	1724.97
398.93	1715.61
399.12	1699.23
399.32	1680.50
399.51	1743.70
399.70	1788.17
399.90	1720.29
400.09	1717.95
400.28	1774.13
400.47	1732.00
400.67	1764.76
400.86	1865.41
401.05	1757.74
401.24	1856.04
401.44	1818.60
401.63	1895.83
401.82	1893.49
402.01	1874.77
402.21	2019.88
402.40	1802.21
402.59	1909.88
402.78	1902.86
402.97	1968.39
403.17	1933.28
403.36	2003.50
403.55	1966.05
403.74	2066.69
403.93	2094.78
404.13	2153.29
404.32	2129.89
404.51	2155.63
404.70	2120.53
404.89	2097.12
405.09	2167.34
405.28	2113.50
405.47	2139.25
405.66	2169.68
405.85	2225.85
406.05	2202.44
406.24	2223.51
406.43	2169.68
406.62	2289.04
406.81	2385.01
407.00	2293.72
407.20	2225.85
407.39	2235.21
407.58	2277.34
407.77	2286.70
407.96	2349.90
408.15	2385.01
408.34	2253.94
408.54	2321.81
408.73	2377.98
408.92	2462.24
409.11	2401.39
409.30	2492.67
409.49	2422.45
409.68	2464.58
409.87	2441.18
410.07	2452.88
410.26	2567.57
410.45	2572.25
410.64	2513.74
410.83	2509.05
411.02	2560.55
411.21	2654.17
411.40	2600.34
411.59	2661.19
411.78	2644.81
411.98	2656.51
412.17	2696.30
412.36	2733.75
412.55	2775.88
412.74	2801.62
412.93	2789.92
413.12	2729.06
413.31	3002.91
413.50	2897.58
413.69	2944.39
413.88	3021.63
414.07	2977.16
414.26	2974.82
414.45	2883.54
414.64	2916.31
414.83	3084.83
415.02	3136.32
415.22	3173.77
415.41	3152.70
415.60	3042.70
415.79	3171.43
415.98	3297.81
416.17	3105.89
416.36	3199.51
416.55	3201.85
416.74	3225.26
416.93	3117.59
417.12	3199.51
417.31	3353.99
417.50	3356.33
417.69	3433.57
417.88	3419.52
418.07	3372.71
418.26	3389.10
418.45	3513.14
418.64	3531.87
418.83	3424.20
419.02	3419.52
419.21	3435.91
419.39	3482.72
419.58	3531.87
419.77	3595.06
419.96	3592.72
420.15	3674.64
420.34	3662.94
420.53	3581.02
420.72	3786.99
420.91	3602.08
421.10	3691.02
421.29	3719.11
421.48	3693.37
421.67	3779.97
421.86	3815.07
422.05	3824.44
422.24	3648.90
422.43	3693.37
422.61	3784.65
422.80	3812.73
422.99	3754.22
423.18	3838.48
423.37	3808.05
423.56	3857.20
423.75	3838.48
423.94	3803.37
424.13	3538.89
424.32	3765.92
424.50	3805.71
424.69	3871.25
424.88	3843.16
425.07	3864.22
425.26	3908.69
425.45	3857.20
425.64	3730.81
425.83	3946.14
426.01	3962.53
426.20	3871.25
426.39	3857.20
426.58	4011.68
426.77	3915.72
426.96	3971.89
427.15	4035.08
427.33	4067.85
427.52	4070.19
427.71	4102.96
427.90	4042.11
428.09	4081.89
428.28	4194.24
428.46	4023.38
428.65	4184.88
428.84	4168.49
429.03	4248.07
429.22	4280.84
429.40	4147.43
429.59	4250.41
429.78	4166.15
429.97	4056.15
430.16	4266.80
430.34	4510.21
430.53	4397.87
430.72	4245.73
430.91	4276.16
431.10	4344.03
431.28	4432.97
431.47	4444.68
431.66	4409.57
431.85	4442.34
432.03	4688.09
432.22	4554.68
432.41	4496.17
432.60	4533.62
432.79	4678.73
432.97	4718.52
433.16	4620.22
433.35	4559.36
433.54	4596.81
433.72	4683.41
433.91	4807.46
434.10	4645.96
434.28	4681.07
434.47	4896.40
434.66	4887.04
434.85	4865.97
435.03	5022.79
435.22	5027.47
435.41	5270.89
435.59	5200.67
435.78	5111.73
435.97	5027.47
436.16	4957.25
436.34	4926.83
436.53	5036.83
436.72	4936.19
436.90	4992.36
437.09	5018.11
437.28	5006.41
437.46	5050.88
437.65	5074.28
437.84	5158.54
438.02	5011.09
438.21	5062.58
438.40	5172.58
438.58	5289.61
438.77	5160.88
438.96	5427.70
439.14	5418.34
439.33	5275.57
439.52	5434.72
439.70	5521.32
439.89	5577.50
440.08	5467.49
440.26	5352.81
440.45	5586.86
440.63	5495.58
440.82	5675.80
441.01	5692.18
441.19	5834.96
441.38	5802.19
441.57	5811.55
441.75	5926.24
441.94	5851.34
442.12	6024.54
442.31	6087.73
442.50	6120.50
442.68	5923.90
442.87	5891.13
443.05	5994.11
443.24	6087.73
443.43	6078.37
443.61	6160.29
443.80	6186.04
443.98	6094.76
444.17	5823.25
444.35	6099.44
444.54	6249.23
444.73	6043.26
444.91	6115.82
445.10	6225.82
445.28	6040.92
445.47	6129.86
445.65	6232.85
445.84	6319.45
446.02	6333.49
446.21	6282.00
446.39	6270.30
446.58	6485.62
446.77	6436.47
446.95	6319.45
447.14	6190.72
447.32	6464.56
447.51	6305.40
447.69	6392.00
447.88	6380.30
448.06	6331.15
448.25	6565.20
448.43	6443.49
448.62	6382.64
448.80	6342.85
448.99	6319.45
449.17	6689.25
449.36	6392.00
449.54	6597.97
449.73	6602.65
449.91	6590.95
450.10	6612.01
450.28	6576.91
450.46	6635.42
450.65	6626.06
450.83	6892.88
451.02	6773.51
451.20	6808.62
451.39	6813.30
451.57	6810.96
451.76	6752.45
451.94	6897.56
452.13	6862.45
452.31	6927.99
452.49	6855.43
452.68	6939.69
452.86	6871.81
453.05	7054.37
453.23	6963.09
453.42	6906.92
453.60	6857.77
453.78	7045.01
453.97	6958.41
454.15	7096.50
454.34	6972.46
454.52	7108.21
454.70	7110.55
454.89	6951.39
455.07	7117.57
455.26	7185.44
455.44	7234.60
455.62	7442.90
455.81	7269.70
455.99	7382.05
456.17	7358.64
456.36	7288.43
456.54	7379.71
456.73	7667.60
456.91	7599.72
457.09	7564.61
457.28	7646.53
457.46	7487.37
457.64	7700.36
457.83	7660.57
458.01	7737.81
458.19	7915.69
458.38	7775.26
458.56	7960.16
458.74	7964.84
458.93	7786.96
459.11	7810.37
459.29	7836.11
459.48	7836.11
459.66	7831.43
459.84	8086.55
460.03	8046.76
460.21	8013.99
460.39	8187.19
460.57	8081.87
460.76	8205.92
460.94	8301.88
461.12	8166.13
461.31	8163.79
461.49	8215.28
461.67	8318.26
461.85	8554.66
462.04	8182.51
462.22	8732.54
462.40	8524.23
462.59	8259.75
462.77	8334.65
462.95	8461.04
463.13	8400.18
463.32	8318.26
463.50	8552.32
463.68	8554.66
463.86	8657.64
464.05	8496.14
464.23	8484.44
464.41	8486.78
464.59	8524.23
464.78	8802.75
464.96	8638.92
465.14	8580.40
465.32	8739.56
465.50	8823.82
465.69	8638.92
465.87	8765.31
466.05	8713.81
466.23	8762.97
466.41	8720.84
466.60	9144.47
466.78	8891.70
466.96	9100.00
467.14	8992.34
467.32	8863.61
467.51	8849.57
467.69	8891.70
467.87	9018.08
468.05	9085.96
468.23	8889.35
468.41	8826.16
468.60	9226.39
468.78	9172.56
468.96	9055.53
469.14	9200.65
469.32	9570.45
469.50	9188.94
469.69	9254.48
469.87	9331.72
470.05	9448.74
470.23	9535.34
470.41	9376.19
470.59	9474.49
470.77	9727.27
470.95	9549.39
471.14	9935.57
471.32	9437.04
471.50	9771.74
471.68	9610.24
471.86	9973.02
472.04	9928.55
472.22	9987.07
472.40	9626.62
472.58	9905.15
472.77	10104.09
472.95	10178.99
473.13	10523.05
473.31	10352.19
473.49	10228.14
473.67	10094.73
473.85	10171.97
474.03	10326.44
474.21	10459.85
474.39	10565.18
474.57	10492.62
474.75	10714.97
474.93	10726.68
475.12	10773.49
475.30	10920.94
475.48	10714.97
475.66	10736.04
475.84	10913.92
476.02	11037.97
476.20	10965.41
476.38	11293.08
476.56	11573.95
476.74	11145.63
476.92	11358.62
477.10	11293.08
477.28	11604.38
477.46	11480.33
477.64	11749.49
477.82	11744.81
478.00	11974.18
478.18	11726.08
478.36	11800.98
478.54	12205.89
478.72	12233.98
478.90	12161.42
479.08	12233.98
479.26	12620.17
479.44	12620.17
479.62	12692.73
479.80	12788.69
479.98	12891.67
480.16	13167.85
480.34	13109.34
480.52	13083.59
480.70	13343.39
480.88	12982.95
481.06	13128.06
481.24	13451.06
481.41	13273.18
481.59	13748.31
481.77	13532.98
481.95	13745.97
482.13	14050.24
482.31	13841.93
482.49	14185.99
482.67	14340.46
482.85	14403.66
483.03	14293.65
483.21	14609.62
483.39	14932.62
483.57	14899.85
483.74	14848.36
483.92	15021.56
484.10	14703.25
484.28	15096.46
484.46	15667.55
484.64	15700.31
484.82	15693.29
485.00	15524.77
485.18	15999.90
485.35	16208.21
485.53	16353.32
485.71	16147.36
485.89	16865.90
486.07	16442.26
486.25	16367.37
486.43	16699.72
486.61	16985.27
486.78	17064.85
486.96	17123.36
487.14	17472.10
487.32	17348.05
487.50	17366.78
487.68	17509.55
487.85	17825.52
488.03	17923.82
488.21	17982.34
488.39	17982.34
488.57	18136.81
488.75	18698.54
488.92	18176.60
489.10	18686.84
489.28	18761.73
489.46	19300.06
489.64	18881.10
489.81	19646.46
489.99	19255.59
490.17	19419.42
490.35	19847.74
490.53	19854.76
490.70	19772.85
490.88	19686.25
491.06	20161.37
491.24	20194.14
491.41	20215.21
491.59	20491.39
491.77	20592.03
491.95	20657.57
492.13	20868.22
492.30	20800.34
492.48	21163.12
492.66	21202.91
492.84	21228.66
493.01	21427.60
493.19	21404.20
493.37	21790.39
493.54	21738.90
493.72	21921.46
493.90	22111.04
494.08	22195.30
494.25	22230.41
494.43	22494.89
494.61	22544.04
494.79	22607.23
494.96	22766.39
495.14	23229.82
495.32	23262.58
495.49	22934.91
495.67	23381.95
495.85	23419.40
496.02	23616.01
496.20	23934.32
496.38	23634.73
496.55	24046.66
496.73	24360.30
496.91	24009.22
497.09	24348.59
497.26	24151.99
497.44	24313.48
497.62	24580.31
497.79	24823.72
497.97	24638.82
498.14	25200.55
498.32	25249.70
498.50	25095.22
498.67	25521.20
498.85	25254.38
499.03	25563.33
499.20	25926.11
499.38	25802.07
499.56	25678.02
499.73	26143.78
499.91	25811.43
500.08	25935.48
500.26	25568.01
500.44	26075.91
500.61	26396.56
500.79	26700.83
500.97	26703.17
501.14	26857.65
501.32	26803.82
501.49	26611.89
501.67	26792.11
501.84	26934.88
502.02	27351.50
502.20	27702.58
502.37	27372.57
502.55	27431.08
502.72	27318.73
502.90	27611.30
503.07	27667.47
503.25	27468.53
503.43	27604.28
503.60	27606.62
503.78	28158.99
503.95	27510.66
504.13	28123.88
504.30	27995.15
504.48	28325.16
504.65	28582.62
504.83	28723.05
505.01	28711.35
505.18	28772.21
505.36	28746.46
505.53	28467.94
505.71	29153.71
505.88	29214.57
506.06	29244.99
506.23	28542.83
506.41	29027.32
506.58	29486.07
506.76	29336.27
506.93	29642.88
507.11	29336.27
507.28	30319.30
507.46	29649.91
507.63	30225.68
507.81	30064.18
507.98	30115.67
508.16	29979.92
508.33	29942.47
508.50	30331.00
508.68	30888.05
508.85	30469.09
509.03	30717.19
509.20	30579.10
509.38	30871.67
509.55	30778.04
509.73	31365.52
509.90	31424.03
510.08	31065.93
510.25	31124.44
510.42	31309.35
510.60	31468.50
510.77	31241.47
510.95	31718.94
511.12	31929.59
511.30	31299.98
511.47	32142.58
511.64	31426.37
511.82	31828.95
511.99	31931.93
512.17	31906.18
512.34	32187.05
512.51	32278.33
512.69	32393.01
512.86	32481.95
513.04	33273.06
513.21	32725.37
513.38	32861.12
513.56	32950.06
513.73	32758.14
513.90	33010.92
514.08	33244.97
514.25	33205.18
514.43	33481.36
514.60	33151.35
514.77	33029.64
514.95	33401.79
515.12	33387.74
515.29	33469.66
515.47	34031.39
515.64	33928.41
515.81	33677.97
515.99	34148.42
516.16	33722.44
516.33	33907.34
516.51	34459.71
516.68	34696.10
516.85	34125.01
517.03	34520.56
517.20	34410.56
517.37	34696.10
517.54	34597.80
517.72	34415.24
517.89	34848.24
518.06	34534.60
518.24	35154.85
518.41	35180.59
518.58	35180.59
518.75	34946.54
518.93	35269.53
519.10	35215.70
519.27	34958.24
519.45	35253.15
519.62	35618.27
519.79	35742.32
519.96	35517.63
520.14	35484.86
520.31	35154.85
520.48	35976.37
520.65	35620.61
520.83	36109.78
521.00	35878.07
521.17	35653.38
521.34	36273.62
521.52	36182.34
521.69	36144.89
521.86	36301.71
522.03	36430.44
522.20	36542.78
522.38	36687.90
522.55	37081.11
522.72	36828.33
522.89	36818.97
523.07	37418.14
523.24	36835.35
523.41	37146.64
523.58	36999.19
523.75	37357.29
523.92	37205.16
524.10	37338.57
524.27	37163.03
524.44	37724.75
524.61	37778.59
524.78	37544.53
524.96	37535.17
525.13	37818.38
525.30	38082.86
525.47	37780.93
525.64	37731.78
525.81	38127.33
525.98	38155.41
526.16	37696.67
526.33	37928.38
526.50	38272.44
526.67	38258.40
526.84	38583.73
527.01	38394.15
527.18	38143.71
527.36	38761.61
527.53	38546.28
527.70	38824.81
527.87	39012.05
528.04	38731.18
528.21	39058.86
528.38	38782.68
528.55	39395.90
528.72	38925.45
528.89	39154.82
529.07	39164.18
529.24	38562.67
529.41	39227.38
529.58	39419.30
529.75	39185.25
529.92	39494.20
530.09	39384.19
530.26	39468.45
530.43	39725.91
530.60	39440.37
530.77	39622.93
530.94	39915.50
531.11	39938.90
531.28	39807.83
531.46	40128.48
531.63	39817.19
531.80	40095.72
531.97	40076.99
532.14	40245.51
532.31	40430.41
532.48	40912.56
532.65	40657.45
532.82	40509.99
532.99	40472.54
533.16	40194.02
533.33	40762.77
533.50	40795.54
533.67	40652.76
533.84	40397.65
534.01	40886.82
534.18	41139.60
534.35	41017.89
534.52	40952.35
534.69	40823.62
534.86	40933.63
535.03	40811.92
535.20	41170.02
535.37	40964.06
535.54	41865.16
535.71	41099.81
535.88	41724.73
536.05	41560.89
536.22	41649.83
536.38	41474.29
536.55	41572.60
536.72	41855.80
536.89	41682.60
537.06	41818.35
537.23	42382.42
537.40	41858.14
537.57	41970.49
537.74	41706.01
537.91	42043.04
538.08	41979.85
538.25	41619.41
538.42	41979.85
538.59	42370.72
538.75	42012.62
538.92	42300.50
539.09	42192.84
539.26	42333.27
539.43	42249.01
539.60	42876.27
539.77	42763.93
539.94	43054.15
540.11	42930.11
540.28	42756.91
540.44	42684.35
540.61	43089.26
540.78	42845.85
540.95	42752.23
541.12	43175.86
541.29	43335.02
541.46	43096.28
541.62	43381.83
541.79	43791.42
541.96	43243.74
542.13	43608.86
542.30	43250.76
542.47	43304.59
542.63	43292.89
542.80	44013.77
542.97	44130.80
543.14	44163.57
543.31	44048.88
543.48	43981.01
543.64	44832.96
543.81	44573.16
543.98	44793.17
544.15	44362.51
544.32	44498.26
544.48	44807.22
544.65	44481.88
544.82	44406.98
544.99	44318.04
545.16	44292.30
545.32	44554.44
545.49	45170.00
545.66	45146.59
545.83	45071.70
546.00	45184.04
546.16	44942.97
546.33	45247.24
546.50	44612.95
546.67	45036.59
546.83	44474.86
547.00	44837.64
547.17	44924.24
547.34	45116.17
547.50	44524.01
547.67	45015.52
547.84	45141.91
548.00	45490.65
548.17	45909.61
548.34	44912.54
548.51	45462.57
548.67	45284.68
548.84	45324.47
549.01	45902.59
549.18	45509.38
549.34	45584.27
549.51	45708.32
549.68	45684.92
549.84	45717.68
550.01	45284.68
550.18	45090.42
550.34	45382.99
550.51	45741.09
550.68	45691.94
550.84	45565.55
551.01	45907.27
551.18	45514.06
551.34	45546.82
551.51	45696.62
551.68	45734.07
551.84	45523.42
552.01	45600.66
552.18	45963.44
552.34	46066.42
552.51	46417.50
552.68	46370.69
552.84	46068.76
553.01	46490.06
553.18	46073.45
553.34	45872.16
553.51	46117.92
553.67	46185.79
553.84	46920.72
554.01	46892.63
554.17	46553.26
554.34	46616.45
554.51	46557.94
554.67	46721.77
554.84	46356.65
555.00	46464.32
555.17	46251.33
555.33	46342.61
555.50	46216.22
555.67	46328.56
555.83	46927.74
556.00	46717.09
556.16	47002.64
556.33	46747.52
556.50	46354.31
556.66	46490.06
556.83	46637.51
556.99	46569.64
557.16	47262.44
557.32	47150.09
557.49	47037.75
557.65	47033.07
557.82	47023.70
557.98	46953.49
558.15	46822.42
558.32	47210.95
558.48	47021.36
558.65	47234.35
558.81	47337.33
558.98	47112.64
559.14	47327.97
559.31	47330.31
559.47	46873.91
559.64	47337.33
559.80	46913.70
559.97	47119.66
560.13	47199.24
560.30	47346.70
560.46	47491.81
560.63	47491.81
560.79	47529.26
560.96	47906.08
561.12	47639.26
561.29	47285.84
561.45	47753.95
561.61	47730.54
561.78	47412.23
561.94	47786.72
562.11	48025.45
562.27	47814.80
562.44	47922.47
562.60	47878.00
562.77	47585.43
562.93	47349.04
563.10	48088.65
563.26	47449.68
563.42	47796.08
563.59	47913.11
563.75	47962.26
563.92	47973.96
564.08	47721.18
564.24	48081.63
564.41	47737.57
564.57	47428.62
564.74	47550.32
564.90	48069.92
565.07	48523.99
565.23	48385.89
565.39	48336.74
565.56	48170.57
565.72	48236.10
565.88	48584.84
566.05	47889.70
566.21	47728.20
566.38	47552.66
566.54	47508.19
566.70	48039.50
566.87	48287.59
567.03	48409.30
567.19	48598.88
567.36	48821.23
567.52	48346.11
567.68	48191.63
567.85	48177.59
568.01	48470.15
568.17	48121.41
568.34	47856.93
568.50	48016.09
568.66	48196.31
568.83	48154.18
568.99	48257.17
569.15	48044.18
569.32	47943.53
569.48	47943.53
569.64	48083.97
569.81	48327.38
569.97	48437.39
570.13	48715.91
570.30	48425.68
570.46	48594.20
570.62	48121.41
570.78	48247.80
570.95	48121.41
571.11	48395.26
571.27	48259.51
571.43	48446.75
571.60	48168.22
571.76	48369.51
571.92	48144.82
572.09	48638.67
572.25	48713.57
572.41	48809.53
572.57	48942.94
572.74	49088.06
572.90	48264.19
573.06	48622.29
573.22	48353.13
573.38	48898.47
573.55	48357.81
573.71	48418.66
573.87	48481.86
574.03	48914.86
574.20	48891.45
574.36	48835.28
574.52	48355.47
574.68	48648.03
574.84	48729.95
575.01	48732.29
575.17	48980.39
575.33	48460.79
575.49	48619.95
575.65	48648.03
575.82	49291.68
575.98	48449.09
576.14	49167.63
576.30	49209.76
576.46	49221.47
576.62	48601.22
576.79	48563.78
576.95	48900.81
577.11	48994.43
577.27	48945.28
577.43	49134.87
577.59	48947.62
577.75	48633.99
577.92	48697.19
578.08	49071.67
578.24	48800.17
578.40	48942.94
578.56	48638.67
578.72	48832.94
578.88	49062.31
579.04	49368.92
579.21	48966.35
579.37	49172.31
579.53	48985.07
579.69	48648.03
579.85	48722.93
580.01	49401.69
580.17	48690.16
580.33	49069.33
580.49	49095.08
580.65	49432.11
580.82	49209.76
580.98	49066.99
581.14	49347.86
581.30	49373.60
581.46	49013.16
581.62	48940.60
581.78	48964.01
581.94	49256.57
582.10	48788.47
582.26	49008.48
582.42	49228.49
582.58	48964.01
582.74	49265.94
582.90	49265.94
583.06	49099.76
583.22	49226.15
583.38	49179.34
583.54	48720.59
583.70	48973.37
583.86	49237.85
584.02	49144.23
584.18	49514.03
584.34	48774.42
584.50	49296.36
584.66	48942.94
584.82	49015.50
584.98	49090.40
585.14	49191.04
585.30	49010.82
585.46	49247.21
585.62	49104.44
585.78	49546.80
585.94	49071.67
586.10	49291.68
586.26	49008.48
586.42	49467.22
586.58	49298.70
586.74	49195.72
586.90	48816.55
587.06	49242.53
587.22	49345.51
587.38	48898.47
587.54	49507.01
587.70	49867.45
587.86	49607.65
588.02	49666.17
588.18	49404.03
588.34	49420.41
588.49	49408.71
588.65	48896.13
588.81	49289.34
588.97	49373.60
589.13	49516.37
589.29	49666.17
589.45	49193.38
589.61	49549.14
589.77	49490.63
589.93	49420.41
590.08	49755.11
590.24	49790.22
590.40	49380.62
590.56	49886.18
590.72	49530.42
590.88	49275.30
591.04	49450.84
591.20	50265.34
591.35	49743.41
591.51	49853.41
591.67	49956.39
591.83	49801.92
591.99	49712.98
592.15	49691.91
592.31	49617.02
592.46	49830.01
592.62	49921.29
592.78	49509.35
592.94	49635.74
593.10	49394.67
593.26	49808.94
593.41	49794.90
593.57	50068.74
593.73	49860.43
593.89	50429.18
594.05	49619.36
594.20	49804.26
594.36	49729.36
594.52	49846.39
594.68	49759.79
594.84	49757.45
594.99	50052.36
595.15	49932.99
595.31	50171.72
595.47	49778.51
595.62	49663.83
595.78	49602.97
595.94	49434.45
596.10	49507.01
596.25	49595.95
596.41	49656.81
596.57	49619.36
596.73	50024.27
596.88	49661.49
597.04	50143.64
597.20	49654.47
597.36	50122.57
597.51	50061.72
597.67	49874.48
597.83	49886.18
597.99	49916.61
598.14	49972.78
598.30	49874.48
598.46	49923.63
598.61	50202.15
598.77	49666.17
598.93	50096.83
599.09	49778.51
599.24	49961.08
599.40	49942.35
599.56	49902.56
599.71	49930.65
599.87	50162.36
600.03	50279.39
600.18	50192.79
600.34	50281.73
600.50	49673.19
600.65	49502.33
600.81	50375.35
600.97	50284.07
601.12	50052.36
601.28	50040.65
601.44	50279.39
601.59	49902.56
601.75	49797.24
601.91	50391.73
602.06	49617.02
602.22	49951.71
602.37	49844.05
602.53	49844.05
602.69	50258.32
602.84	50380.03
603.00	50209.17
603.16	49947.03
603.31	49958.73
603.47	50059.38
603.62	49691.91
603.78	50178.75
603.94	49982.14
604.09	49895.54
604.25	49907.24
604.40	50197.47
604.56	49670.85
604.71	50459.61
604.87	49888.52
605.03	50035.97
605.18	49839.37
605.34	50103.85
605.49	49460.20
605.65	50129.59
605.80	49661.49
605.96	49890.86
606.12	50174.06
606.27	50546.21
606.43	50340.24
606.58	50202.15
606.74	50064.06
606.89	49792.56
607.05	49766.81
607.20	49598.29
607.36	49446.16
607.51	49617.02
607.67	49902.56
607.82	50122.57
607.98	49944.69
608.13	49921.29
608.29	50057.04
608.44	49965.76
608.60	50059.38
608.75	50176.40
608.91	50230.24
609.06	49855.75
609.22	50007.89
609.37	49389.98
609.53	49333.81
609.68	49862.77
609.84	49769.15
609.99	50108.53
610.15	50031.29
610.30	49813.62
610.46	50014.91
610.61	50220.87
610.76	50237.26
610.92	50122.57
611.07	49879.16
611.23	50241.94
611.38	50480.67
611.54	50480.67
611.69	50351.94
611.84	50419.82
612.00	50312.16
612.15	50148.32
612.31	49942.35
612.46	49883.84
612.62	50164.70
612.77	49769.15
612.92	49937.67
613.08	49565.52
613.23	49516.37
613.39	49642.76
613.54	49450.84
613.69	49736.38
613.85	49382.96
614.00	50218.53
614.15	49839.37
614.31	49783.19
614.46	49511.69
614.62	49717.66
614.77	49315.09
614.92	49375.94
615.08	49635.74
615.23	49656.81
615.38	49408.71
615.54	49237.85
615.69	48727.61
615.84	49495.31
616.00	49333.81
616.15	48870.39
616.30	49392.33
616.46	49382.96
616.61	48956.99
616.76	49137.21
616.92	48528.67
617.07	48573.14
617.22	48678.46
617.37	48996.77
617.53	48390.58
617.68	48411.64
617.83	48767.40
617.99	49102.10
618.14	48832.94
618.29	48870.39
618.45	48931.24
618.60	49132.53
618.75	48301.64
618.90	48376.53
619.06	48804.85
619.21	48566.12
619.36	48559.09
619.51	48364.83
619.67	48231.42
619.82	48502.92
619.97	48767.40
620.12	48566.12
620.28	48830.60
620.43	48811.87
620.58	49003.80
620.73	48315.68
620.89	48959.33
621.04	48921.88
621.19	48210.35
621.34	48605.91
621.49	47803.10
621.65	48189.29
621.80	48694.85
621.95	48664.42
622.10	48411.64
622.25	48360.15
622.41	48369.51
622.56	48191.63
622.71	48353.13
622.86	48231.42
623.01	48158.86
623.16	47524.58
623.32	47522.24
623.47	48264.19
623.62	48179.93
623.77	48130.78
623.92	48076.94
624.07	48062.90
624.23	48062.90
624.38	48509.94
624.53	48318.02
624.68	47887.36
624.83	48367.17
624.98	48067.58
625.13	47791.40
625.29	47894.38
625.44	47894.38
625.59	47744.59
625.74	47941.19
625.89	47700.12
626.04	47732.89
626.19	47594.79
626.34	47800.76
626.49	47779.70
626.65	48034.81
626.80	47821.83
626.95	47318.61
627.10	47285.84
627.25	47227.33
627.40	47676.71
627.55	47054.13
627.70	47047.11
627.85	47391.17
628.00	47531.60
628.15	47615.86
628.30	47229.67
628.45	47384.15
628.60	46967.53
628.76	47367.76
628.91	47454.36
629.06	47461.38
629.21	47210.95
629.36	46473.68
629.51	46967.53
629.66	47079.88
629.81	47051.79
629.96	47077.54
630.11	46679.64
630.26	46986.25
630.41	47105.62
630.56	46990.94
630.71	46951.15
630.86	47086.90
631.01	47323.29
631.16	47356.06
631.31	46522.83
631.46	46632.83
631.61	47166.48
631.76	46574.32
631.91	46719.43
632.06	46461.97
632.21	46415.16
632.36	46483.04
632.51	46405.80
632.66	46965.19
632.81	46298.14
632.96	46958.17
633.10	46873.91
633.25	46761.56
633.40	46651.56
633.55	46639.86
633.70	46368.35
633.85	46305.16
634.00	46719.43
634.15	46590.70
634.30	46150.68
634.45	46106.21
634.60	46014.93
634.75	46260.69
634.90	45970.46
635.05	46003.23
635.19	45755.13
635.34	46136.64
635.49	46007.91
635.64	45797.26
635.79	45947.06
635.94	45808.96
636.09	45647.47
636.24	45991.53
636.39	45993.87
636.53	46366.01
636.68	45949.40
636.83	45893.22
636.98	46272.39
637.13	45776.20
637.28	45785.56
637.43	45984.51
637.57	45539.80
637.72	45586.61
637.87	45530.44
638.02	45619.38
638.17	45808.96
638.32	45570.23
638.46	44912.54
638.61	45483.63
638.76	45670.87
638.91	46026.63
639.06	45801.94
639.20	46354.31
639.35	45635.77
639.50	45148.93
639.65	44980.42
639.80	45530.44
639.94	44999.14
640.09	45113.83
640.24	45450.86
640.39	44978.07
640.54	45027.23
640.68	45158.30
640.83	45024.89
640.98	45165.32
641.13	44783.81
641.27	45165.32
641.42	45275.32
641.57	44898.50
641.72	44926.58
641.86	44524.01
642.01	44304.00
642.16	44421.03
642.31	44498.26
642.45	44896.16
642.60	44568.48
642.75	44641.04
642.90	44893.82
643.04	44367.20
643.19	44573.16
643.34	45394.69
643.48	44514.65
643.63	44605.93
643.78	44236.12
643.93	44250.17
644.07	44388.26
644.22	44383.58
644.37	44402.30
644.51	44685.51
644.66	44428.05
644.81	44842.32
644.95	44783.81
645.10	44362.51
645.25	44411.67
645.39	44545.08
645.54	44664.44
645.69	44395.28
645.83	44311.02
645.98	43971.64
646.13	44196.34
646.27	44690.19
646.42	44381.24
646.57	44165.91
646.71	44065.27
646.86	44313.36
647.00	43814.83
647.15	44615.29
647.30	44257.19
647.44	43941.22
647.59	44006.75
647.74	44013.77
647.88	43934.20
648.03	44194.00
648.17	43522.26
648.32	43480.13
648.47	43821.85
648.61	43679.08
648.76	43959.94
648.90	43524.60
649.05	43833.55
649.20	43536.30
649.34	43959.94
649.49	43739.93
649.63	44116.76
649.78	44325.07
649.92	43761.00
650.07	44154.21
650.21	43491.83
650.36	43470.77
650.51	43386.51
650.65	43475.45
650.80	43449.70
650.94	43540.99
651.09	43370.13
651.23	43166.50
651.38	43529.28
651.52	43459.07
651.67	43564.39
651.81	43480.13
651.96	43330.34
652.10	43370.13
652.25	43236.72
652.39	42848.19
652.54	42471.36
652.68	42808.40
652.83	42958.19
652.97	42597.75
653.12	43133.73
653.26	43409.92
653.41	42988.62
653.55	43210.97
653.70	42972.24
653.84	42541.58
653.99	42990.96
654.13	42717.12
654.27	42948.83
654.42	42824.78
654.56	42642.22
654.71	42740.52
654.85	42431.57
655.00	43000.32
655.14	42836.48
655.29	42616.47
655.43	42607.11
655.57	42398.80
655.72	42480.72
655.86	42490.09
656.01	42499.45
656.15	42422.21
656.30	42422.21
656.44	43007.34
656.58	42794.36
656.73	42564.98
656.87	42211.56
657.01	42724.14
657.16	42965.21
657.30	42738.18
657.45	42052.41
657.59	42131.98
657.73	41495.36
657.88	41762.18
658.02	42408.17
658.16	42106.24
658.31	42216.24
658.45	42326.25
658.60	42295.82
658.74	42005.59
658.88	41804.31
659.03	41607.70
659.17	41659.20
659.31	41764.52
659.46	41216.83
659.60	41502.38
659.74	41668.56
659.89	41537.49
660.03	41703.67
660.17	41698.98
660.32	41551.53
660.46	41329.18
660.60	41237.90
660.74	41237.90
660.89	41717.71
661.03	40580.21
661.17	41113.85
661.32	41057.68
661.46	40559.14
661.60	40804.90
661.74	40514.67
661.89	40580.21
662.03	40980.44
662.17	40788.52
662.31	40694.89
662.46	40591.91
662.60	40652.76
662.74	40449.14
662.88	40334.45
663.03	40187.00
663.17	40512.33
663.31	40402.33
663.45	40767.45
663.60	40060.61
663.74	39910.82
663.88	39941.24
664.02	39243.76
664.17	40109.76
664.31	39707.19
664.45	39917.84
664.59	39852.30
664.73	40360.20
664.88	40224.45
665.02	39695.49
665.16	39852.30
665.30	39704.85
665.44	40027.84
665.59	39578.46
665.73	39512.92
665.87	39255.46
666.01	39335.04
666.15	39405.26
666.29	39248.44
666.44	39220.36
666.58	38663.31
666.72	38618.84
666.86	38955.88
667.00	39290.57
667.14	38852.89
667.28	38796.72
667.43	38803.74
667.57	38944.17
667.71	39271.85
667.85	39126.74
667.99	39028.43
668.13	38462.02
668.27	38469.04
668.41	38780.34
668.56	38443.30
668.70	38291.16
668.84	38073.49
668.98	38012.64
669.12	38054.77
669.26	37895.61
669.40	37696.67
669.54	37963.49
669.68	38061.79
669.82	38171.80
669.96	37567.94
670.10	37729.44
670.25	37820.72
670.39	37546.87
670.53	37516.45
670.67	37006.21
670.81	37340.91
670.95	37497.72
671.09	37043.66
671.23	37060.04
671.37	37317.50
671.51	37687.31
671.65	37612.41
671.79	37172.39
671.93	37645.18
672.07	37226.22
672.21	36921.95
672.35	36830.67
672.49	36959.40
672.63	36800.24
672.77	36699.60
672.91	37036.64
673.05	36037.23
673.19	36121.49
673.33	35777.43
673.47	35679.13
673.61	36011.48
673.75	35941.27
673.89	36081.70
674.03	36353.20
674.17	35983.40
674.31	36023.19
674.45	36121.49
674.59	36194.04
674.73	36004.46
674.87	35622.95
675.01	35379.54
675.15	35267.19
675.29	35143.14
675.43	35292.94
675.56	35241.45
675.70	34665.67
675.84	34932.50
675.98	33958.83
676.12	34525.24
676.26	34998.03
676.40	34955.90
676.54	34796.74
676.68	34569.71
676.82	33930.75
676.96	34773.34
677.10	34382.47
677.23	34054.79
677.37	34380.13
677.51	34057.14
677.65	33879.25
677.79	33467.32
677.93	33296.46
678.07	33223.90
678.21	33401.79
678.34	33031.98
678.48	33167.73
678.62	33223.90
678.76	33280.08
678.90	33022.62
679.04	33139.65
679.18	32687.92
679.31	32524.08
679.45	32390.67
679.59	32893.89
679.73	32477.27
679.87	32540.47
680.00	32325.14
680.14	32175.34
680.28	31845.33
680.42	31716.60
680.56	32074.70
680.70	31412.33
680.83	31672.13
680.97	31817.24
681.11	31686.17
681.25	31653.40
681.39	31566.81
681.52	31487.23
681.66	31597.23
681.80	30841.24
681.94	30967.63
682.07	30871.67
682.21	31192.32
682.35	30927.84
682.49	31267.22
682.62	30843.58
682.76	30756.98
682.90	30326.32
683.04	30211.64
683.17	30288.87
683.31	30024.39
683.45	30204.61
683.59	29902.68
683.72	29846.51
683.86	29788.00
684.00	29481.39
684.13	29675.65
684.27	29392.45
684.41	29039.03
684.55	29560.97
684.68	29500.11
684.82	28797.95
684.96	29090.52
685.09	29113.92
685.23	28804.97
685.37	28978.17
685.50	28938.38
685.64	28753.48
685.78	28442.19
685.91	28589.64
686.05	28723.05
686.19	27880.46
686.32	27873.44
686.46	27953.02
686.60	28032.60
686.73	28315.80
686.87	28126.22
687.01	27728.33
687.14	27889.82
687.28	27501.29
687.42	27454.48
687.55	27477.89
687.69	27353.84
687.82	26932.54
687.96	26981.70
688.10	26941.91
688.23	27028.51
688.37	26909.14
688.50	26745.30
688.64	26930.20
688.78	26867.01
688.91	26696.15
689.05	26541.68
689.18	26022.08
689.32	25961.22
689.46	26286.56
689.59	26047.82
689.73	25986.97
689.86	25659.29
690.00	25781.00
690.13	25518.86
690.27	25549.29
690.41	25373.75
690.54	25408.86
690.68	25127.99
690.81	25467.37
690.95	25317.57
691.08	24975.86
691.22	24699.67
691.35	24622.44
691.49	25116.29
691.62	24641.16
691.76	24776.91
691.89	24924.36
692.03	24795.64
692.16	24297.10
692.30	24191.78
692.43	24264.33
692.57	24311.14
692.70	23995.17
692.84	24159.01
692.97	23772.82
693.11	24137.94
693.24	23562.17
693.38	23845.38
693.51	23667.50
693.65	23585.58
693.78	23384.29
693.92	23494.30
694.05	23190.03
694.19	23087.04
694.32	23108.11
694.45	23452.17
694.59	23323.44
694.72	22740.64
694.86	22216.36
694.99	22132.11
695.13	22504.25
695.26	22082.95
695.39	22026.78
695.53	21944.86
695.66	22338.07
695.80	21862.94
695.93	21727.19
696.07	21577.40
696.20	21675.70
696.33	21788.05
696.47	21535.27
696.60	21542.29
696.73	21500.16
696.87	21664.00
697.00	21413.56
697.14	21085.89
697.27	20996.95
697.40	20842.47
697.54	20748.85
697.67	20498.41
697.80	20503.09
697.94	20315.85
698.07	20643.52
698.21	20142.65
698.34	20533.52
698.47	20304.15
698.61	20084.14
698.74	20121.59
698.87	20086.48
699.01	20365.00
699.14	19964.77
699.27	19920.30
699.40	20142.65
699.54	20156.69
699.67	19847.74
699.80	19307.08
699.94	19456.87
700.07	19157.28
700.20	18892.80
700.34	19009.83
700.47	18789.82
700.60	19346.87
700.73	19030.90
700.87	18876.42
701.00	18733.65
701.13	18434.06
701.26	18490.23
701.40	18352.14
701.53	18183.62
701.66	18153.20
701.79	18108.72
701.93	18340.44
702.06	18216.39
702.19	17830.20
702.32	17837.22
702.46	17869.99
702.59	17633.60
702.72	17343.37
702.85	17373.80
702.99	17322.30
703.12	17434.65
703.25	17212.30
703.38	17315.28
703.51	17444.01
703.65	17284.86
703.78	17359.75
703.91	17205.28
704.04	17013.35
704.17	17242.73
704.31	17006.33
704.44	16681.00
704.57	16699.72
704.70	16566.31
704.83	15866.49
704.96	16070.12
705.10	16472.69
705.23	16517.16
>>>>>End Processed Spectral Data<<<<<
