SpectraSuite Data File
++++++++++++++++++++++++++++++++++++
Date: Thu Oct 24 13:21:15 EDT 2013
User: stostad
Dark Spectrum Present: No
Reference Spectrum Present: No
Number of Sampled Component Spectra: 1
Spectrometers: USB2+H05261
Integration Time (usec): 100000 (USB2+H05261)
Spectra Averaged: 1 (USB2+H05261)
Boxcar Smoothing: 0 (USB2+H05261)
Correct for Electrical Dark: No (USB2+H05261)
Strobe/Lamp Enabled: No (USB2+H05261)
Correct for Detector Non-linearity: No (USB2+H05261)
Correct for Stray Light: No (USB2+H05261)
Number of Pixels in Processed Spectrum: 2048
>>>>>Begin Processed Spectral Data<<<<<
365.73	622.58
365.92	622.58
366.12	622.58
366.32	463.43
366.52	435.34
366.72	477.47
366.91	472.79
367.11	456.40
367.31	500.87
367.51	433.00
367.70	451.72
367.90	493.85
368.10	472.79
368.30	491.51
368.49	470.45
368.69	465.77
368.89	447.04
369.09	465.77
369.28	505.56
369.48	482.15
369.68	594.50
369.87	582.79
370.07	540.66
370.27	594.50
370.47	671.73
370.66	741.95
370.86	826.21
371.06	781.74
371.25	877.70
371.45	802.80
371.65	896.43
371.84	751.31
372.04	868.34
372.24	882.38
372.44	833.23
372.63	880.04
372.83	791.10
373.03	919.83
373.22	896.43
373.42	807.48
373.62	849.61
373.81	833.23
374.01	870.68
374.21	889.40
374.40	821.53
374.60	901.11
374.79	854.30
374.99	840.25
375.19	842.59
375.38	952.60
375.58	875.36
375.78	908.13
375.97	964.30
376.17	957.28
376.37	905.79
376.56	940.90
376.76	947.92
376.95	901.11
377.15	894.08
377.35	896.43
377.54	997.07
377.74	919.83
377.93	880.04
378.13	919.83
378.33	961.96
378.52	950.26
378.72	898.77
378.91	922.17
379.11	983.02
379.31	938.55
379.50	987.71
379.70	1050.90
379.89	980.68
380.09	985.37
380.28	976.00
380.48	1046.22
380.68	933.87
380.87	952.60
381.07	1015.79
381.26	1050.90
381.46	1062.60
381.65	973.66
381.85	992.39
382.04	964.30
382.24	954.94
382.43	1008.77
382.63	1027.50
382.83	987.71
383.02	1008.77
383.22	1060.26
383.41	1053.24
383.61	1008.77
383.80	1128.14
384.00	985.37
384.19	1027.50
384.39	1029.84
384.58	1050.90
384.78	1041.54
384.97	1114.10
385.17	1046.22
385.36	1090.69
385.56	1086.01
385.75	1008.77
385.95	1064.94
386.14	1062.60
386.34	1067.28
386.53	1039.20
386.72	1100.05
386.92	1078.99
387.11	1078.99
387.31	1062.60
387.50	987.71
387.70	1083.67
387.89	1088.35
388.09	1083.67
388.28	1083.67
388.48	1015.79
388.67	1109.41
388.86	1177.29
389.06	1132.82
389.25	1198.35
389.45	1153.88
389.64	1107.07
389.84	1132.82
390.03	1158.57
390.22	1177.29
390.42	1132.82
390.61	1170.27
390.81	1109.41
391.00	1177.29
391.19	1196.01
391.39	1123.46
391.58	1123.46
391.78	1247.51
391.97	1167.93
392.16	1121.12
392.36	1254.53
392.55	1235.80
392.75	1245.16
392.94	1198.35
393.13	1224.10
393.33	1186.65
393.52	1261.55
393.71	1289.64
393.91	1259.21
394.10	1247.51
394.29	1341.13
394.49	1327.08
394.68	1366.87
394.88	1306.02
395.07	1327.08
395.26	1352.83
395.46	1270.91
395.65	1343.47
395.84	1348.15
396.04	1387.94
396.23	1434.75
396.42	1282.61
396.62	1397.30
396.81	1357.51
397.00	1331.76
397.19	1378.58
397.39	1446.45
397.58	1369.21
397.77	1458.15
397.97	1516.67
398.16	1327.08
398.35	1392.62
398.55	1364.53
398.74	1460.49
398.93	1530.71
399.12	1420.71
399.32	1425.39
399.51	1530.71
399.70	1565.82
399.90	1514.33
400.09	1556.46
400.28	1504.96
400.47	1401.98
400.67	1586.88
400.86	1476.88
401.05	1547.09
401.24	1577.52
401.44	1643.06
401.63	1659.44
401.82	1664.12
402.01	1624.33
402.21	1540.07
402.40	1617.31
402.59	1673.48
402.78	1717.95
402.97	1633.69
403.17	1666.46
403.36	1586.88
403.55	1717.95
403.74	1713.27
403.93	1781.15
404.13	1636.03
404.32	1750.72
404.51	1664.12
404.70	1724.97
404.89	1785.83
405.09	1842.00
405.28	1834.98
405.47	1844.34
405.66	1802.21
405.85	1856.04
406.05	1746.04
406.24	1724.97
406.43	1827.96
406.62	1802.21
406.81	2005.84
407.00	1827.96
407.20	1872.43
407.39	1902.86
407.58	1966.05
407.77	1977.75
407.96	1994.14
408.15	1930.94
408.34	1926.26
408.54	1860.73
408.73	1933.28
408.92	1874.77
409.11	1970.73
409.30	2094.78
409.49	1975.41
409.68	2029.24
409.87	2026.90
410.07	2031.58
410.26	2054.99
410.45	2038.61
410.64	2251.60
410.83	2127.55
411.02	2111.16
411.21	2162.66
411.40	2228.19
411.59	2253.94
411.78	2162.66
411.98	2157.97
412.17	2232.87
412.36	2373.30
412.55	2300.75
412.74	2363.94
412.93	2209.47
413.12	2289.04
413.31	2354.58
413.50	2415.43
413.69	2394.37
413.88	2546.50
414.07	2385.01
414.26	2380.32
414.45	2459.90
414.64	2513.74
414.83	2455.22
415.02	2478.63
415.22	2511.39
415.41	2612.04
415.60	2595.65
415.79	2509.05
415.98	2593.31
416.17	2637.78
416.36	2583.95
416.55	2654.17
416.74	2623.74
416.93	2665.87
417.12	2747.79
417.31	2768.85
417.50	2698.64
417.69	2757.15
417.88	2780.56
418.07	2799.28
418.26	2850.77
418.45	2867.16
418.64	2878.86
418.83	2796.94
419.02	2843.75
419.21	2850.77
419.39	2869.50
419.58	2970.14
419.77	2815.66
419.96	2867.16
420.15	2981.84
420.34	2993.55
420.53	2988.86
420.72	3103.55
420.91	3033.33
421.10	3070.78
421.29	2988.86
421.48	3028.65
421.67	2991.20
421.86	3173.77
422.05	3075.46
422.24	3103.55
422.43	3094.19
422.61	3159.72
422.80	3148.02
422.99	3087.17
423.18	3166.74
423.37	3241.64
423.56	3091.85
423.75	3129.30
423.94	3026.31
424.13	2984.18
424.32	3042.70
424.50	3082.49
424.69	3178.45
424.88	3281.43
425.07	3180.79
425.26	3220.58
425.45	3148.02
425.64	3178.45
425.83	3183.13
426.01	3258.03
426.20	3119.93
426.39	3229.94
426.58	3185.47
426.77	3206.53
426.96	3323.56
427.15	3229.94
427.33	3316.54
427.52	3176.11
427.71	3201.85
427.90	3290.79
428.09	3459.31
428.28	3440.59
428.46	3358.67
428.65	3363.35
428.84	3616.13
429.03	3379.73
429.22	3332.92
429.40	3379.73
429.59	3445.27
429.78	3365.69
429.97	3272.07
430.16	3466.33
430.34	3501.44
430.53	3595.06
430.72	3513.14
430.91	3478.04
431.10	3501.44
431.28	3651.24
431.47	3714.43
431.66	3646.55
431.85	3595.06
432.03	3679.32
432.22	3630.17
432.41	3742.52
432.60	3779.97
432.79	3669.96
432.97	3726.13
433.16	3618.47
433.35	3824.44
433.54	3784.65
433.72	3829.12
433.91	3822.09
434.10	3716.77
434.28	3737.84
434.47	3836.14
434.66	3934.44
434.85	3861.88
435.03	4072.53
435.22	4091.26
435.41	4196.58
435.59	4135.73
435.78	4264.46
435.97	4060.83
436.16	4025.72
436.34	3962.53
436.53	4177.86
436.72	4018.70
436.90	3892.31
437.09	3971.89
437.28	3908.69
437.46	4077.21
437.65	4037.42
437.84	4011.68
438.02	4168.49
438.21	4107.64
438.40	4196.58
438.58	4201.26
438.77	4311.27
438.96	4250.41
439.14	4360.42
439.33	4290.20
439.52	4301.90
439.70	4428.29
439.89	4320.63
440.08	4568.73
440.26	4327.65
440.45	4432.97
440.63	4477.44
440.82	4641.28
441.01	4596.81
441.19	4564.04
441.38	4660.01
441.57	4681.07
441.75	4533.62
441.94	4802.78
442.12	4690.43
442.31	4762.99
442.50	4704.48
442.68	4798.10
442.87	4678.73
443.05	4793.42
443.24	4952.57
443.43	5008.75
443.61	4917.47
443.80	4957.25
443.98	4936.19
444.17	4720.86
444.35	4833.21
444.54	4882.36
444.73	4936.19
444.91	4952.57
445.10	4924.49
445.28	4865.97
445.47	5036.83
445.65	4959.60
445.84	4971.30
446.02	5001.72
446.21	5025.13
446.39	4940.87
446.58	5146.84
446.77	5022.79
446.95	4786.40
447.14	4966.62
447.32	5069.60
447.51	5027.47
447.69	4940.87
447.88	5025.13
448.06	5184.29
448.25	5090.67
448.43	5060.24
448.62	5188.97
448.80	5121.09
448.99	5121.09
449.17	5163.22
449.36	5102.37
449.54	5118.75
449.73	5203.01
449.91	5205.35
450.10	5174.92
450.28	5313.02
450.46	5530.69
450.65	5451.11
450.83	5460.47
451.02	5261.52
451.20	5366.85
451.39	5390.25
451.57	5355.15
451.76	5362.17
451.94	5231.10
452.13	5338.76
452.31	5366.85
452.49	5460.47
452.68	5586.86
452.86	5469.83
453.05	5380.89
453.23	5540.05
453.42	5533.03
453.60	5551.75
453.78	5621.97
453.97	5451.11
454.15	5586.86
454.34	5628.99
454.52	5614.95
454.70	5547.07
454.89	5626.65
455.07	5678.14
455.26	5760.06
455.44	5919.21
455.62	5797.51
455.81	5820.91
455.99	5792.83
456.17	5830.27
456.36	5816.23
456.54	5923.90
456.73	5994.11
456.91	6207.10
457.09	5982.41
457.28	5919.21
457.46	5973.05
457.64	6101.78
457.83	6171.99
458.01	6092.41
458.19	6167.31
458.38	6087.73
458.56	6263.27
458.74	6047.94
458.93	6230.51
459.11	6181.35
459.29	6296.04
459.48	6078.37
459.66	6366.26
459.84	6260.93
460.03	6375.62
460.21	6483.28
460.39	6235.19
460.57	6384.98
460.76	6356.90
460.94	6569.88
461.12	6436.47
461.31	6384.98
461.49	6504.35
461.67	6588.61
461.85	6565.20
462.04	6490.31
462.22	6977.14
462.40	6619.04
462.59	6771.17
462.77	6698.61
462.95	6665.85
463.13	6511.37
463.32	6672.87
463.50	6754.79
463.68	6946.71
463.86	6675.21
464.05	6630.74
464.23	6661.16
464.41	6839.05
464.59	6729.04
464.78	6956.07
464.96	7054.37
465.14	6792.23
465.32	6825.00
465.50	6960.75
465.69	6937.35
465.87	6853.09
466.05	6862.45
466.23	6775.85
466.41	6864.79
466.60	6991.18
466.78	7016.93
466.96	7007.56
467.14	7063.74
467.32	7176.08
467.51	7098.84
467.69	6883.52
467.87	6939.69
468.05	7089.48
468.23	7059.06
468.41	7002.88
468.60	7269.70
468.78	7059.06
468.96	7131.61
469.14	7180.76
469.32	7337.58
469.50	7208.85
469.69	7248.64
469.87	7489.71
470.05	7314.17
470.23	7456.95
470.41	7323.54
470.59	7592.70
470.77	7480.35
470.95	7438.22
471.14	7726.11
471.32	7538.87
471.50	7655.89
471.68	7606.74
471.86	7744.83
472.04	7744.83
472.22	8013.99
472.40	7740.15
472.58	7852.50
472.77	7829.09
472.95	8042.08
473.13	8212.94
473.31	7859.52
473.49	7981.23
473.67	7894.63
473.85	7955.48
474.03	8283.16
474.21	8112.30
474.39	8297.20
474.57	8191.88
474.75	8388.48
474.93	8414.23
475.12	8376.78
475.30	8329.97
475.48	8360.39
475.66	8400.18
475.84	8358.05
476.02	8503.17
476.20	8538.27
476.38	8819.14
476.56	8997.02
476.74	8671.68
476.92	8704.45
477.10	8678.71
477.28	9092.98
477.46	8912.76
477.64	9195.96
477.82	9118.73
478.00	9254.48
478.18	9348.10
478.36	9474.49
478.54	9554.07
478.72	9387.89
478.90	9687.48
479.08	9682.80
479.26	9767.06
479.44	9823.23
479.62	9830.25
479.80	9853.66
479.98	10099.41
480.16	10036.22
480.34	10134.52
480.52	10265.59
480.70	10225.80
480.88	10190.69
481.06	10298.36
481.24	10178.99
481.41	10574.54
481.59	10658.80
481.77	10693.91
481.95	10700.93
482.13	10888.17
482.31	10562.84
482.49	11229.89
482.67	11056.69
482.85	11276.70
483.03	11370.32
483.21	11239.25
483.39	11571.61
483.57	11307.13
483.74	11777.58
483.92	11768.21
484.10	11494.37
484.28	11861.84
484.46	11852.47
484.64	12063.12
484.82	11990.56
485.00	12222.28
485.18	12386.12
485.35	12461.01
485.53	12486.76
485.71	12636.55
485.89	12826.14
486.07	12711.45
486.25	12816.77
486.43	12648.26
486.61	12912.74
486.78	13221.69
486.96	13184.24
487.14	13446.38
487.32	13376.16
487.50	13266.16
487.68	13439.36
487.85	13891.08
488.03	13984.70
488.21	14036.19
488.39	13818.52
488.57	14125.13
488.75	14071.30
488.92	14111.09
489.10	14504.30
489.28	14544.09
489.46	14656.43
489.64	14380.25
489.81	14836.66
489.99	14855.38
490.17	14951.34
490.35	15000.49
490.53	15325.83
490.70	15660.52
490.88	15150.29
491.06	15637.12
491.24	15939.05
491.41	15737.76
491.59	15967.13
491.77	15866.49
491.95	16086.50
492.13	16020.97
492.30	16411.84
492.48	16177.78
492.66	16102.89
492.84	16334.60
493.01	16617.80
493.19	16554.61
493.37	16531.20
493.54	16411.84
493.72	16959.52
493.90	16854.20
494.08	17231.02
494.25	17202.94
494.43	17310.60
494.61	17467.42
494.79	17429.97
494.96	17294.22
495.14	17692.11
495.32	17460.40
495.49	17862.97
495.67	17921.48
495.85	17762.33
496.02	17989.36
496.20	18148.51
496.38	18127.45
496.55	18050.21
496.73	18803.86
496.91	18202.35
497.09	18712.58
497.26	18743.01
497.44	18707.90
497.62	18829.61
497.79	19187.71
497.97	18941.96
498.14	19122.18
498.32	19470.92
498.50	19377.30
498.67	19342.19
498.85	19391.34
499.03	19417.08
499.20	19915.62
499.38	19843.06
499.56	19669.86
499.73	20081.80
499.91	19880.51
500.08	19924.98
500.26	19997.54
500.44	20238.61
500.61	20283.08
500.79	20273.72
500.97	20152.01
501.14	20458.62
501.32	20648.21
501.49	20643.52
501.67	20573.31
501.84	20786.30
502.02	20870.56
502.20	20936.09
502.37	20882.26
502.55	20652.89
502.72	20954.82
502.90	21123.33
503.07	21142.06
503.25	21598.46
503.43	21032.05
503.60	21577.40
503.78	21476.76
503.95	21259.09
504.13	21671.02
504.30	21563.36
504.48	21731.87
504.65	21834.86
504.83	21853.58
505.01	22260.84
505.18	21933.16
505.36	22256.15
505.53	22038.48
505.71	21869.97
505.88	22305.31
506.06	22092.32
506.23	22485.53
506.41	22382.54
506.58	22455.10
506.76	22438.72
506.93	22672.77
507.11	22642.34
507.28	23033.21
507.46	22789.80
507.63	22513.61
507.81	22895.12
507.98	22918.53
508.16	22958.31
508.33	23112.79
508.50	23285.99
508.68	23482.59
508.85	23592.60
509.03	23267.27
509.20	23496.64
509.38	23826.65
509.55	23728.35
509.73	23906.23
509.90	23852.40
510.08	23892.19
510.25	23866.44
510.42	23988.15
510.60	24067.73
510.77	23915.59
510.95	24308.80
511.12	24322.85
511.30	24329.87
511.47	24360.30
511.64	24744.14
511.82	24718.40
511.99	24577.97
512.17	24989.90
512.34	24463.28
512.51	25043.73
512.69	25296.51
512.86	24870.53
513.04	25160.76
513.21	25036.71
513.38	25228.63
513.56	25287.15
513.73	25174.80
513.90	25467.37
514.08	25441.62
514.25	25949.52
514.43	25476.73
514.60	25558.65
514.77	25397.15
514.95	25713.13
515.12	25343.32
515.29	25752.91
515.47	26169.53
515.64	25832.49
515.81	26380.18
515.99	25869.94
516.16	25839.51
516.33	26239.75
516.51	26443.37
516.68	26579.12
516.85	26150.81
517.03	26649.34
517.20	26707.85
517.37	26464.44
517.54	26464.44
517.72	26677.43
517.89	26717.22
518.06	27000.42
518.24	26948.93
518.41	26855.31
518.58	26576.78
518.75	26546.36
518.93	27037.87
519.10	26780.41
519.27	26986.38
519.45	26878.71
519.62	26904.46
519.79	27220.43
519.96	27054.25
520.14	26923.18
520.31	27096.38
520.48	26948.93
520.65	27276.60
520.83	27365.54
521.00	28004.51
521.17	27690.88
521.34	27733.01
521.52	27819.61
521.69	27929.61
521.86	28070.04
522.03	27953.02
522.20	27880.46
522.38	28425.81
522.55	28037.28
522.72	27866.42
522.89	28212.82
523.07	28271.33
523.24	28123.88
523.41	28332.18
523.58	28278.35
523.75	28563.90
523.92	28201.11
524.10	28730.08
524.27	29001.58
524.44	28561.56
524.61	28922.00
524.78	28739.44
524.96	28807.31
525.13	28467.94
525.30	28903.28
525.47	29111.58
525.64	29188.82
525.81	29663.95
525.98	29069.45
526.16	29188.82
526.33	28912.64
526.50	29296.49
526.67	29315.21
526.84	29249.67
527.01	29708.42
527.18	29750.55
527.36	29818.42
527.53	29654.59
527.70	29483.73
527.87	29968.22
528.04	29759.91
528.21	29954.18
528.38	29804.38
528.55	29743.53
528.72	30005.67
528.89	30101.63
529.07	30052.48
529.24	29696.72
529.41	30305.26
529.58	30157.80
529.75	30363.77
529.92	30071.20
530.09	29820.77
530.26	30181.21
530.43	30244.40
530.60	29972.90
530.77	30206.95
530.94	30717.19
531.11	30684.42
531.28	30878.69
531.46	30476.12
531.63	30756.98
531.80	30696.13
531.97	30878.69
532.14	31234.45
532.31	30728.89
532.48	30712.51
532.65	30766.34
532.82	30841.24
532.99	31182.96
533.16	31096.36
533.33	30897.41
533.50	31356.16
533.67	31431.05
533.84	30995.71
534.01	31206.36
534.18	31110.40
534.35	31548.08
534.52	31274.24
534.69	31515.31
534.86	31309.35
535.03	31372.54
535.20	31133.81
535.37	31709.58
535.54	31793.84
535.71	31667.45
535.88	31728.30
536.05	31941.29
536.22	32233.86
536.38	32072.36
536.55	32542.81
536.72	31976.40
536.89	32294.71
537.06	32079.38
537.23	32294.71
537.40	32432.80
537.57	32208.11
537.74	32128.53
537.91	32428.12
538.08	32425.78
538.25	32273.65
538.42	32074.70
538.59	32294.71
538.75	32549.83
538.92	32552.17
539.09	32533.45
539.26	32493.66
539.43	32369.61
539.60	32348.54
539.77	32580.26
539.94	32613.02
540.11	33050.70
540.28	33069.43
540.44	32598.98
540.61	32851.76
540.78	33092.83
540.95	32957.08
541.12	33223.90
541.29	32985.17
541.46	33474.34
541.62	33553.92
541.79	33663.93
541.96	33036.66
542.13	33589.03
542.30	33420.51
542.47	33811.38
542.63	33652.22
542.80	33895.64
542.97	34169.48
543.14	33860.53
543.31	34080.54
543.48	34464.39
543.64	34237.36
543.81	33792.65
543.98	34293.53
544.15	34019.69
544.32	34113.31
544.48	34277.15
544.65	34452.69
544.82	34569.71
544.99	33926.07
545.16	34293.53
545.32	34396.51
545.49	34871.64
545.66	35201.66
545.83	34974.63
546.00	35480.18
546.16	35232.08
546.33	34969.94
546.50	33989.26
546.67	34684.40
546.83	34401.19
547.00	34525.24
547.17	34473.75
547.34	34305.23
547.50	35086.97
547.67	34600.14
547.84	34967.60
548.00	35136.12
548.17	35342.09
548.34	34609.50
548.51	34948.88
548.67	34789.72
548.84	35115.06
549.01	34579.07
549.18	35424.01
549.34	34691.42
549.51	35358.47
549.68	35241.45
549.84	35262.51
550.01	35023.78
550.18	34827.17
550.34	34991.01
550.51	34843.56
550.68	35154.85
550.84	34686.74
551.01	34906.75
551.18	34780.36
551.34	34967.60
551.51	35222.72
551.68	35253.15
551.84	35150.17
552.01	35077.61
552.18	35466.14
552.34	35196.98
552.51	36062.97
552.68	35328.05
552.84	35768.07
553.01	35634.66
553.18	35344.43
553.34	35728.28
553.51	35491.88
553.67	35409.96
553.84	36006.80
554.01	35814.88
554.17	35941.27
554.34	35747.00
554.51	35578.48
554.67	35929.56
554.84	35613.59
555.00	35833.60
555.17	35768.07
555.33	35978.72
555.50	35817.22
555.67	35576.14
555.83	36009.14
556.00	35983.40
556.16	36126.17
556.33	35810.20
556.50	36072.34
556.66	36112.13
556.83	35580.82
556.99	36402.35
557.16	36517.04
557.32	36563.85
557.49	36414.05
557.65	36065.31
557.82	36217.45
557.98	36355.54
558.15	36357.88
558.32	36456.18
558.48	36474.91
558.65	36444.48
558.81	36453.84
558.98	36556.83
559.14	36390.65
559.31	36002.12
559.47	36512.36
559.64	36514.70
559.80	36430.44
559.97	36383.63
560.13	36062.97
560.30	36545.12
560.46	36451.50
560.63	36753.43
560.79	36699.60
560.96	36835.35
561.12	36828.33
561.29	36973.44
561.45	36484.27
561.61	36938.33
561.78	36519.38
561.94	36765.14
562.11	37130.26
562.27	36849.39
562.44	37067.06
562.60	36917.27
562.77	36664.49
562.93	36725.35
563.10	37130.26
563.26	37118.56
563.42	36999.19
563.59	36935.99
563.75	36575.55
563.92	37195.79
564.08	36629.38
564.24	37312.82
564.41	36713.64
564.57	36804.92
564.74	36847.05
564.90	37230.90
565.07	37078.77
565.23	37062.38
565.39	37083.45
565.56	37322.18
565.72	37067.06
565.88	37156.00
566.05	37443.89
566.21	36823.65
566.38	37013.23
566.54	36678.54
566.70	37373.67
566.87	37610.07
567.03	37158.34
567.19	37921.36
567.36	37167.71
567.52	37046.00
567.68	37577.30
567.85	37560.92
568.01	37090.47
568.17	37464.96
568.34	37261.33
568.50	37331.54
568.66	37776.25
568.83	37156.00
568.99	37464.96
569.15	37345.59
569.32	37530.49
569.48	37106.85
569.64	37221.54
569.81	37464.96
569.97	37158.34
570.13	37418.14
570.30	37542.19
570.46	37233.24
570.62	37502.40
570.78	37106.85
570.95	36849.39
571.11	37902.64
571.27	37607.73
571.43	37050.68
571.60	37329.20
571.76	37525.81
571.92	37387.72
572.09	37514.11
572.25	37897.95
572.41	37663.90
572.57	37897.95
572.74	38295.85
572.90	37673.26
573.06	37464.96
573.22	37715.39
573.38	37572.62
573.55	37467.30
573.71	37872.21
573.87	37834.76
574.03	37446.23
574.20	37666.24
574.36	37708.37
574.52	37694.33
574.68	37483.68
574.84	37965.83
575.01	37801.99
575.17	38031.36
575.33	37542.19
575.49	37841.78
575.65	37691.99
575.82	38115.62
575.98	37809.01
576.14	37734.12
576.30	38213.93
576.46	38141.37
576.62	38061.79
576.79	37598.37
576.95	37600.71
577.11	38096.90
577.27	38113.28
577.43	38010.30
577.59	37677.94
577.75	38033.71
577.92	37539.85
578.08	37736.46
578.24	37689.65
578.40	37837.10
578.56	38256.06
578.72	37965.83
578.88	37968.17
579.04	38419.89
579.21	38092.22
579.37	38134.35
579.53	38106.26
579.69	37684.97
579.85	38164.78
580.01	38148.39
580.17	38101.58
580.33	38181.16
580.49	37881.57
580.65	37830.08
580.82	37902.64
580.98	37947.11
581.14	38043.07
581.30	37792.63
581.46	37890.93
581.62	37649.86
581.78	37888.59
581.94	37551.56
582.10	37605.39
582.26	38017.32
582.42	37640.50
582.58	37699.01
582.74	38230.31
582.90	38024.34
583.06	37972.85
583.22	38120.31
583.38	38127.33
583.54	38127.33
583.70	38033.71
583.86	38412.87
584.02	38007.96
584.18	38190.52
584.34	37865.19
584.50	38181.16
584.66	37371.33
584.82	38059.45
584.98	38408.19
585.14	38181.16
585.30	38132.01
585.46	38078.18
585.62	37830.08
585.78	38167.12
585.94	37876.89
586.10	38323.93
586.26	38279.46
586.42	38295.85
586.58	38377.76
586.74	37935.40
586.90	37862.85
587.06	38148.39
587.22	38267.76
587.38	38120.31
587.54	38553.30
587.70	38602.46
587.86	38164.78
588.02	38157.75
588.18	38136.69
588.34	38508.83
588.49	38532.24
588.65	38024.34
588.81	38480.75
588.97	38078.18
589.13	38249.03
589.29	38321.59
589.45	38396.49
589.61	38866.94
589.77	38660.97
589.93	38356.70
590.08	38192.86
590.24	38672.67
590.40	38443.30
590.56	38572.03
590.72	38396.49
590.88	38026.68
591.04	38511.17
591.20	38714.80
591.35	38682.03
591.51	39049.50
591.67	39161.84
591.83	38883.32
591.99	38796.72
592.15	38595.43
592.31	38522.88
592.46	38684.37
592.62	38412.87
592.78	38607.14
592.94	38696.08
593.10	38665.65
593.26	38632.88
593.41	38834.17
593.57	38693.74
593.73	39040.14
593.89	38836.51
594.05	38682.03
594.20	38225.63
594.36	38579.05
594.52	38518.20
594.68	38557.99
594.84	38497.13
594.99	38848.21
595.15	39023.75
595.31	38576.71
595.47	38698.42
595.62	38803.74
595.78	38314.57
595.94	38543.94
596.10	38539.26
596.25	38920.77
596.41	38534.58
596.57	38487.77
596.73	38806.08
596.88	38515.86
597.04	38618.84
597.20	38518.20
597.36	38574.37
597.51	38843.53
597.67	38820.13
597.83	38565.01
597.99	38960.56
598.14	38742.89
598.30	38871.62
598.46	38855.23
598.61	38749.91
598.77	38810.76
598.93	38895.02
599.09	38721.82
599.24	39145.46
599.40	38684.37
599.56	39068.22
599.71	39122.05
599.87	39168.87
600.03	38600.12
600.18	38707.78
600.34	38663.31
600.50	38574.37
600.65	39044.82
600.81	38958.22
600.97	39002.69
601.12	38927.79
601.28	39168.87
601.44	38728.84
601.59	38520.54
601.75	38703.10
601.91	39168.87
602.06	39014.39
602.22	38810.76
602.37	38518.20
602.53	38899.70
602.69	39035.45
602.84	39030.77
603.00	38759.27
603.16	38565.01
603.31	38827.15
603.47	38333.29
603.62	38565.01
603.78	38806.08
603.94	38696.08
604.09	38455.00
604.25	38775.66
604.40	38677.35
604.56	38600.12
604.71	38850.55
604.87	38562.67
605.03	39007.37
605.18	38770.97
605.34	38583.73
605.49	38298.19
605.65	38780.34
605.80	38246.69
605.96	38754.59
606.12	39037.80
606.27	38600.12
606.43	39084.61
606.58	38742.89
606.74	38986.30
606.89	38447.98
607.05	38302.87
607.20	38246.69
607.36	38040.73
607.51	38700.76
607.67	38469.04
607.82	38415.21
607.98	39047.16
608.13	38368.40
608.29	38600.12
608.44	38799.06
608.60	38836.51
608.75	39070.56
608.91	38497.13
609.06	38600.12
609.22	38546.28
609.37	38092.22
609.53	38366.06
609.68	38272.44
609.84	38806.08
609.99	38567.35
610.15	39042.48
610.30	39131.42
610.46	38841.19
610.61	38803.74
610.76	39559.73
610.92	39117.37
611.07	39583.14
611.23	39545.69
611.38	39423.98
611.54	39246.10
611.69	39152.48
611.84	39196.95
612.00	39131.42
612.15	39108.01
612.31	39119.71
612.46	39077.58
612.62	38700.76
612.77	38869.28
612.92	38539.26
613.08	38691.40
613.23	38567.35
613.39	38153.07
613.54	38199.88
613.69	38424.57
613.85	38567.35
614.00	38469.04
614.15	38597.77
614.31	38117.96
614.46	38473.73
614.62	38380.10
614.77	38298.19
614.92	38050.09
615.08	38075.84
615.23	38117.96
615.38	38115.62
615.54	37649.86
615.69	37729.44
615.84	37722.41
616.00	38064.13
616.15	37631.13
616.30	38277.12
616.46	38101.58
616.61	37621.77
616.76	37794.97
616.92	37460.27
617.07	37853.48
617.22	37134.94
617.37	37624.11
617.53	37385.38
617.68	37825.40
617.83	37563.26
617.99	37626.45
618.14	37436.87
618.29	37574.96
618.45	37443.89
618.60	37448.57
618.75	37254.31
618.90	37123.24
619.06	37148.98
619.21	37230.90
619.36	36994.51
619.51	37347.93
619.67	37202.82
619.82	37144.30
619.97	37268.35
620.12	37518.79
620.28	37167.71
620.43	37523.47
620.58	37163.03
620.73	37364.31
620.89	37425.17
621.04	37553.90
621.19	37104.51
621.34	37305.80
621.49	37193.45
621.65	37144.30
621.80	37254.31
621.95	37338.57
622.10	37347.93
622.25	37268.35
622.41	37046.00
622.56	36821.31
622.71	36690.24
622.86	36781.52
623.01	36699.60
623.16	36935.99
623.32	36830.67
623.47	36463.21
623.62	37228.56
623.77	36758.11
623.92	36938.33
624.07	36914.93
624.23	37083.45
624.38	37139.62
624.53	36861.10
624.68	37397.08
624.83	36952.38
624.98	36645.77
625.13	36294.69
625.29	36444.48
625.44	36629.38
625.59	36657.47
625.74	36470.23
625.89	36180.00
626.04	36517.04
626.19	36472.57
626.34	36297.03
626.49	36407.03
626.65	36301.71
626.80	36381.29
626.95	36009.14
627.10	35690.83
627.25	36126.17
627.40	35941.27
627.55	36184.68
627.70	36215.11
627.85	36477.25
628.00	36208.09
628.15	36055.95
628.30	35569.12
628.45	35955.31
628.60	36172.98
628.76	35931.90
628.91	36233.83
629.06	35974.03
629.21	35852.33
629.36	35491.88
629.51	35786.79
629.66	35732.96
629.81	35768.07
629.96	35730.62
630.11	35899.14
630.26	36105.10
630.41	36484.27
630.56	35716.58
630.71	35805.52
630.86	36105.10
631.01	36109.78
631.16	36182.34
631.31	35723.60
631.46	35030.80
631.61	35756.36
631.76	35812.54
631.91	35772.75
632.06	35323.36
632.21	35955.31
632.36	35517.63
632.51	35519.97
632.66	35512.95
632.81	35091.65
632.96	35283.58
633.10	35409.96
633.25	35491.88
633.40	35325.71
633.55	35351.45
633.70	35229.74
633.85	34485.45
634.00	35234.42
634.15	35622.95
634.30	34974.63
634.45	34623.54
634.60	35306.98
634.75	35194.64
634.90	35346.77
635.05	35026.12
635.19	34579.07
635.34	35077.61
635.49	34948.88
635.64	35082.29
635.79	34960.58
635.94	34785.04
636.09	34508.86
636.24	34672.70
636.39	35005.05
636.53	35101.01
636.68	34841.21
636.83	34665.67
636.98	35393.58
637.13	34658.65
637.28	34827.17
637.43	34335.66
637.57	34838.87
637.72	34457.37
637.87	34738.23
638.02	34628.23
638.17	34518.22
638.32	34309.91
638.46	34298.21
638.61	34546.31
638.76	34155.44
638.91	34862.28
639.06	34724.19
639.20	34869.30
639.35	34663.33
639.50	34607.16
639.65	34569.71
639.80	34689.08
639.94	34103.95
640.09	33949.47
640.24	34520.56
640.39	34113.31
640.54	34120.33
640.68	34462.05
640.83	34155.44
640.98	33846.49
641.13	33755.21
641.27	33869.89
641.42	34054.79
641.57	33895.64
641.72	34066.50
641.86	33710.74
642.01	33118.58
642.16	34185.86
642.31	33413.49
642.45	33771.59
642.60	33656.90
642.75	33848.83
642.90	34249.06
643.04	33757.55
643.19	33582.01
643.34	33935.43
643.48	34127.35
643.63	33682.65
643.78	33694.35
643.93	33174.75
644.07	33474.34
644.22	33308.16
644.37	33469.66
644.51	33228.59
644.66	33322.21
644.81	33708.40
644.95	33457.96
645.10	33699.03
645.25	33804.36
645.39	33516.47
645.54	33450.94
645.69	34192.89
645.83	33371.36
645.98	33607.75
646.13	33759.89
646.27	33523.49
646.42	33614.77
646.57	33474.34
646.71	33256.67
646.86	33420.51
647.00	33261.35
647.15	33514.13
647.30	33743.50
647.44	33137.30
647.59	33326.89
647.74	33127.94
647.88	33514.13
648.03	33118.58
648.17	33088.15
648.32	32643.45
648.47	32917.29
648.61	32802.61
648.76	33170.07
648.90	33333.91
649.05	33275.40
649.20	33020.28
649.34	33481.36
649.49	33266.03
649.63	33102.20
649.78	32968.79
649.92	32879.85
650.07	33605.41
650.21	32835.38
650.36	32917.29
650.51	32730.05
650.65	32971.13
650.80	32917.29
650.94	33120.92
651.09	33153.69
651.23	32620.05
651.38	33031.98
651.52	32442.17
651.67	32650.47
651.81	32692.60
651.96	32683.24
652.10	32797.93
652.25	32423.44
652.39	32596.64
652.54	32334.50
652.68	31880.44
652.83	32460.89
652.97	32582.60
653.12	32404.72
653.26	32694.94
653.41	32645.79
653.55	32758.14
653.70	32322.80
653.84	32568.55
653.99	32570.90
654.13	32505.36
654.27	32500.68
654.42	32552.17
654.56	32355.57
654.71	31920.23
654.85	32421.10
655.00	32297.05
655.14	31859.37
655.29	32114.49
655.43	31875.76
655.57	31665.11
655.72	32098.11
655.86	31971.72
656.01	32149.60
656.15	31821.92
656.30	31758.73
656.44	31721.28
656.58	32173.00
656.73	31779.79
656.87	31903.84
657.01	31742.35
657.16	31676.81
657.30	31693.19
657.45	31697.88
657.59	32037.25
657.73	31400.63
657.88	31367.86
658.02	31468.50
658.16	31543.40
658.31	31435.74
658.45	31929.59
658.60	31262.54
658.74	31264.88
658.88	31559.78
659.03	31356.16
659.17	31241.47
659.31	31304.67
659.46	31496.59
659.60	31409.99
659.74	31295.30
659.89	30991.03
660.03	31307.01
660.17	31374.88
660.32	30682.08
660.46	31304.67
660.60	30796.77
660.74	31246.15
660.89	30654.00
661.03	30677.40
661.17	30862.30
661.32	30513.56
661.46	31070.61
661.60	30878.69
661.74	30525.27
661.89	30515.90
662.03	30450.37
662.17	30595.48
662.31	30202.27
662.46	30602.50
662.60	30267.81
662.74	30389.52
662.88	30235.04
663.03	30565.06
663.17	30441.01
663.31	30005.67
663.45	30457.39
663.60	29893.32
663.74	30174.19
663.88	30162.48
664.02	29771.61
664.17	29933.11
664.31	29944.81
664.45	29628.84
664.59	29862.90
664.73	29596.07
664.88	29996.31
665.02	29584.37
665.16	29792.68
665.30	30068.86
665.44	29645.23
665.59	29631.18
665.73	29759.91
665.87	29347.98
666.01	29628.84
666.15	29268.40
666.29	29500.11
666.44	29013.28
666.58	28678.58
666.72	28549.85
666.86	28982.85
667.00	29380.74
667.14	29413.51
667.28	28849.44
667.43	29153.71
667.57	29336.27
667.71	29366.70
667.85	29195.84
667.99	28945.41
668.13	29034.35
668.27	28460.91
668.41	28545.17
668.56	28882.21
668.70	28294.74
668.84	28465.60
668.98	28226.86
669.12	28329.84
669.26	28128.56
669.40	27899.19
669.54	28182.39
669.68	28346.23
669.82	28074.73
669.96	28325.16
670.10	28112.17
670.25	28212.82
670.39	27913.23
670.53	27697.90
670.67	27634.71
670.81	27833.65
670.95	27742.37
671.09	27929.61
671.23	27632.36
671.37	28149.62
671.51	27901.53
671.65	27871.10
671.79	27648.75
671.93	27613.64
672.07	27590.24
672.21	27384.27
672.35	27580.87
672.49	27297.67
672.63	27405.33
672.77	27276.60
672.91	27498.95
673.05	27250.86
673.19	26827.22
673.33	26876.37
673.47	26532.31
673.61	27042.55
673.75	26679.77
673.89	26705.51
674.03	26930.20
674.17	26602.53
674.31	26820.20
674.45	26504.23
674.59	26740.62
674.73	26855.31
674.87	26707.85
675.01	25951.86
675.15	26199.96
675.29	26375.50
675.43	26331.03
675.56	26368.48
675.70	26160.17
675.84	25923.77
675.98	25238.00
676.12	25570.35
676.26	25546.95
676.40	26061.87
676.54	25820.79
676.68	25781.00
676.82	25474.39
676.96	25720.15
677.10	25902.71
677.23	25364.39
677.37	25242.68
677.51	25102.25
677.65	25315.23
677.79	24716.06
677.93	24636.48
678.07	24842.45
678.21	24622.44
678.34	24650.52
678.48	24648.18
678.62	24589.67
678.76	24680.95
678.90	24283.06
679.04	24725.42
679.18	24086.45
679.31	23810.27
679.45	23950.70
679.59	24439.87
679.73	24458.60
679.87	24292.42
680.00	23711.97
680.14	23943.68
680.28	23927.30
680.42	23779.84
680.56	23688.56
680.70	23747.08
680.83	23295.35
680.97	23199.39
681.11	23316.42
681.25	23339.82
681.39	23527.06
681.52	23344.50
681.66	23133.86
681.80	23159.60
681.94	22827.24
682.07	22761.71
682.21	23084.70
682.35	22759.37
682.49	22998.10
682.62	22810.86
682.76	22792.14
682.90	22494.89
683.04	22260.84
683.17	22520.63
683.31	22195.30
683.45	22080.61
683.59	22211.68
683.72	21834.86
683.86	22225.73
684.00	22043.17
684.13	22059.55
684.27	22080.61
684.41	21558.67
684.55	21542.29
684.68	21607.83
684.82	21544.63
684.96	21420.58
685.09	21385.47
685.23	21795.07
685.37	21818.47
685.50	21357.39
685.64	21303.56
685.78	21303.56
685.91	21198.23
686.05	20936.09
686.19	20594.37
686.32	20683.31
686.46	20573.31
686.60	20484.37
686.73	20957.16
686.87	20741.83
687.01	20676.29
687.14	20402.45
687.28	20395.43
687.42	20540.54
687.55	20034.99
687.69	20161.37
687.82	19859.45
687.96	20100.52
688.10	19929.66
688.23	19997.54
688.37	19953.07
688.50	19758.80
688.64	19770.51
688.78	19915.62
688.91	19819.66
689.05	19309.42
689.18	19255.59
689.32	19070.68
689.46	19517.73
689.59	19140.90
689.73	19271.97
689.86	18752.37
690.00	19026.21
690.13	18934.93
690.27	18728.97
690.41	18993.45
690.54	18319.37
690.68	18462.15
690.81	18705.56
690.95	18501.93
691.08	18408.31
691.22	18113.41
691.35	18242.14
691.49	18377.89
691.62	18534.70
691.76	18417.68
691.89	18764.07
692.03	18523.00
692.16	18192.98
692.30	17998.72
692.43	17673.39
692.57	17781.05
692.70	17589.13
692.84	17366.78
692.97	17451.03
693.11	17642.96
693.24	17610.19
693.38	17383.16
693.51	17305.92
693.65	17441.67
693.78	17362.09
693.92	17261.45
694.05	17013.35
694.19	17071.87
694.32	17614.87
694.45	17397.20
694.59	17256.77
694.72	16631.85
694.86	16453.97
694.99	16528.86
695.13	16390.77
695.26	16416.52
695.39	16170.76
695.53	16285.45
695.66	16154.38
695.80	16135.65
695.93	16072.46
696.07	16231.62
696.20	16051.39
696.33	16023.31
696.47	16016.29
696.60	15761.17
696.73	15688.61
696.87	16077.14
697.00	15641.80
697.14	15555.20
697.27	15440.51
697.40	15454.56
697.54	15304.76
697.67	15192.42
697.80	15204.12
697.94	14869.42
698.07	14988.79
698.21	14984.11
698.34	15047.30
698.47	14923.26
698.61	14321.74
698.74	14813.25
698.87	14721.97
699.01	14565.15
699.14	14740.69
699.27	14274.93
699.40	15077.73
699.54	14862.40
699.67	14478.55
699.80	14595.58
699.94	14520.68
700.07	14064.28
700.20	13657.03
700.34	13895.76
700.47	13888.74
700.60	14284.29
700.73	14225.78
700.87	13994.06
701.00	13841.93
701.13	13832.57
701.26	13703.84
701.40	13603.19
701.53	13448.72
701.66	13322.33
701.79	13259.13
701.93	13451.06
702.06	13434.68
702.19	13371.48
702.32	13348.08
702.46	13167.85
702.59	12898.69
702.72	13156.15
702.85	12842.52
702.99	12751.24
703.12	12711.45
703.25	12659.96
703.38	12692.73
703.51	13067.21
703.65	12713.79
703.78	12816.77
703.91	12718.47
704.04	12762.94
704.17	12585.06
704.31	12624.85
704.44	12365.05
704.57	12294.83
704.70	12112.27
704.83	11768.21
704.96	12053.76
705.10	11997.59
705.23	11957.80
>>>>>End Processed Spectral Data<<<<<
