SpectraSuite Data File
++++++++++++++++++++++++++++++++++++
Date: Thu Oct 24 13:21:16 EDT 2013
User: stostad
Dark Spectrum Present: No
Reference Spectrum Present: No
Number of Sampled Component Spectra: 1
Spectrometers: USB2+H05261
Integration Time (usec): 100000 (USB2+H05261)
Spectra Averaged: 1 (USB2+H05261)
Boxcar Smoothing: 0 (USB2+H05261)
Correct for Electrical Dark: No (USB2+H05261)
Strobe/Lamp Enabled: No (USB2+H05261)
Correct for Detector Non-linearity: No (USB2+H05261)
Correct for Stray Light: No (USB2+H05261)
Number of Pixels in Processed Spectrum: 2048
>>>>>Begin Processed Spectral Data<<<<<
365.73	543.00
365.92	543.00
366.12	543.00
366.32	507.90
366.52	362.78
366.72	374.49
366.91	491.51
367.11	468.11
367.31	531.30
367.51	449.38
367.70	489.17
367.90	468.11
368.10	547.69
368.30	477.47
368.49	500.87
368.69	489.17
368.89	449.38
369.09	472.79
369.28	458.74
369.48	472.79
369.68	557.05
369.87	533.64
370.07	484.49
370.27	603.86
370.47	620.24
370.66	746.63
370.86	753.65
371.06	798.12
371.25	814.51
371.45	821.53
371.65	828.55
371.84	830.89
372.04	725.57
372.24	837.91
372.44	835.57
372.63	905.79
372.83	828.55
373.03	849.61
373.22	844.93
373.42	908.13
373.62	863.66
373.81	870.68
374.01	908.13
374.21	926.85
374.40	870.68
374.60	924.51
374.79	786.42
374.99	931.53
375.19	910.47
375.38	866.00
375.58	980.68
375.78	877.70
375.97	894.08
376.17	910.47
376.37	990.05
376.56	910.47
376.76	945.58
376.95	931.53
377.15	922.17
377.35	976.00
377.54	966.64
377.74	997.07
377.93	945.58
378.13	994.73
378.33	905.79
378.52	910.47
378.72	933.87
378.91	999.41
379.11	994.73
379.31	990.05
379.50	983.02
379.70	959.62
379.89	922.17
380.09	985.37
380.28	917.49
380.48	1048.56
380.68	915.15
380.87	959.62
381.07	990.05
381.26	1013.45
381.46	966.64
381.65	1008.77
381.85	947.92
382.04	1041.54
382.24	940.90
382.43	1025.15
382.63	1008.77
382.83	1104.73
383.02	1095.37
383.22	1050.90
383.41	1006.43
383.61	976.00
383.80	1064.94
384.00	1081.33
384.19	1078.99
384.39	1029.84
384.58	1025.15
384.78	1088.35
384.97	1041.54
385.17	1125.80
385.36	1027.50
385.56	1139.84
385.75	1062.60
385.95	1151.54
386.14	1137.50
386.34	1069.62
386.53	1097.71
386.72	1146.86
386.92	1041.54
387.11	1088.35
387.31	1107.07
387.50	1144.52
387.70	1053.24
387.89	1067.28
388.09	1217.08
388.28	1100.05
388.48	1139.84
388.67	1156.22
388.86	1219.42
389.06	1198.35
389.25	1235.80
389.45	1107.07
389.64	1235.80
389.84	1158.57
390.03	1146.86
390.22	1212.40
390.42	1114.10
390.61	1188.99
390.81	1198.35
391.00	1116.44
391.19	1233.46
391.39	1231.12
391.58	1217.08
391.78	1233.46
391.97	1226.44
392.16	1226.44
392.36	1242.82
392.55	1221.76
392.75	1294.32
392.94	1266.23
393.13	1280.27
393.33	1270.91
393.52	1301.34
393.71	1331.76
393.91	1301.34
394.10	1233.46
394.29	1303.68
394.49	1343.47
394.68	1317.72
394.88	1289.64
395.07	1409.00
395.26	1327.08
395.46	1277.93
395.65	1350.49
395.84	1364.53
396.04	1359.85
396.23	1420.71
396.42	1345.81
396.62	1432.41
396.81	1390.28
397.00	1430.07
397.19	1425.39
397.39	1387.94
397.58	1376.24
397.77	1401.98
397.97	1404.32
398.16	1467.52
398.35	1444.11
398.55	1465.18
398.74	1497.94
398.93	1432.41
399.12	1488.58
399.32	1537.73
399.51	1523.69
399.70	1472.20
399.90	1481.56
400.09	1556.46
400.28	1586.88
400.47	1516.67
400.67	1584.54
400.86	1533.05
401.05	1526.03
401.24	1598.59
401.44	1624.33
401.63	1563.48
401.82	1556.46
402.01	1507.30
402.21	1514.33
402.40	1568.16
402.59	1657.10
402.78	1659.44
402.97	1682.85
403.17	1633.69
403.36	1575.18
403.55	1610.29
403.74	1762.42
403.93	1640.72
404.13	1746.04
404.32	1877.11
404.51	1755.40
404.70	1832.64
404.89	1727.32
405.09	1858.39
405.28	1832.64
405.47	1790.51
405.66	1764.76
405.85	1872.43
406.05	1902.86
406.24	1746.04
406.43	1834.98
406.62	1912.22
406.81	1832.64
407.00	1844.34
407.20	1795.19
407.39	1806.89
407.58	1907.54
407.77	1970.73
407.96	1909.88
408.15	2045.63
408.34	1966.05
408.54	1952.01
408.73	1968.39
408.92	2047.97
409.11	2113.50
409.30	2118.18
409.49	1973.07
409.68	2125.21
409.87	2054.99
410.07	2057.33
410.26	2071.37
410.45	2010.52
410.64	2162.66
410.83	2190.74
411.02	2214.15
411.21	2317.13
411.40	2186.06
411.59	2242.23
411.78	2197.76
411.98	2314.79
412.17	2232.87
412.36	2284.36
412.55	2375.64
412.74	2282.02
412.93	2305.43
413.12	2251.60
413.31	2324.15
413.50	2347.56
413.69	2349.90
413.88	2506.71
414.07	2466.92
414.26	2520.76
414.45	2509.05
414.64	2457.56
414.83	2448.20
415.02	2572.25
415.22	2588.63
415.41	2597.99
415.60	2619.06
415.79	2609.70
415.98	2583.95
416.17	2642.46
416.36	2635.44
416.55	2623.74
416.74	2722.04
416.93	2630.76
417.12	2789.92
417.31	2677.57
417.50	2644.81
417.69	2745.45
417.88	2745.45
418.07	2780.56
418.26	2750.13
418.45	2846.09
418.64	2799.28
418.83	2874.18
419.02	2946.73
419.21	2846.09
419.39	2991.20
419.58	2885.88
419.77	2876.52
419.96	2878.86
420.15	2951.42
420.34	2963.12
420.53	3070.78
420.72	3101.21
420.91	3002.91
421.10	3115.25
421.29	3183.13
421.48	2986.52
421.67	3063.76
421.86	3052.06
422.05	3002.91
422.24	3075.46
422.43	3066.10
422.61	3049.72
422.80	3049.72
422.99	3201.85
423.18	3192.49
423.37	3281.43
423.56	3098.87
423.75	3119.93
423.94	3068.44
424.13	2836.73
424.32	3096.53
424.50	3227.60
424.69	3169.09
424.88	3300.16
425.07	3162.06
425.26	3185.47
425.45	3178.45
425.64	3265.05
425.83	3073.12
426.01	3190.15
426.20	3166.74
426.39	3201.85
426.58	3300.16
426.77	3133.98
426.96	3405.48
427.15	3194.83
427.33	3255.69
427.52	3428.88
427.71	3274.41
427.90	3403.14
428.09	3353.99
428.28	3358.67
428.46	3316.54
428.65	3328.24
428.84	3550.59
429.03	3414.84
429.22	3499.10
429.40	3574.00
429.59	3485.06
429.78	3290.79
429.97	3229.94
430.16	3468.67
430.34	3552.93
430.53	3564.64
430.72	3552.93
430.91	3510.80
431.10	3386.76
431.28	3574.00
431.47	3557.61
431.66	3686.34
431.85	3606.77
432.03	3747.20
432.22	3777.62
432.41	3632.51
432.60	3641.87
432.79	3719.11
432.97	3595.06
433.16	3735.50
433.35	3712.09
433.54	3829.12
433.72	3824.44
433.91	3819.75
434.10	3915.72
434.28	3866.56
434.47	3775.28
434.66	3885.29
434.85	3974.23
435.03	3887.63
435.22	3988.27
435.41	4224.67
435.59	4166.15
435.78	4219.99
435.97	4189.56
436.16	4161.47
436.34	3946.14
436.53	4184.88
436.72	4133.39
436.90	4049.13
437.09	4021.04
437.28	4049.13
437.46	4016.36
437.65	4128.70
437.84	4117.00
438.02	4191.90
438.21	4152.11
438.40	4198.92
438.58	4409.57
438.77	4276.16
438.96	4322.97
439.14	4280.84
439.33	4180.20
439.52	4418.93
439.70	4329.99
439.89	4514.89
440.08	4552.34
440.26	4449.36
440.45	4451.70
440.63	4472.76
440.82	4547.66
441.01	4582.77
441.19	4599.15
441.38	4645.96
441.57	4645.96
441.75	4596.81
441.94	4770.01
442.12	4671.71
442.31	4905.76
442.50	4847.25
442.68	4835.55
442.87	4868.31
443.05	4781.71
443.24	4828.53
443.43	4999.38
443.61	4997.04
443.80	5055.56
443.98	4908.10
444.17	4821.50
444.35	4884.70
444.54	5004.07
444.73	5001.72
444.91	4994.70
445.10	4856.61
445.28	5071.94
445.47	5121.09
445.65	5069.60
445.84	4994.70
446.02	5121.09
446.21	5046.20
446.39	4971.30
446.58	4973.64
446.77	5085.98
446.95	4980.66
447.14	4863.63
447.32	5085.98
447.51	5062.58
447.69	4990.02
447.88	5025.13
448.06	5174.92
448.25	5097.69
448.43	5018.11
448.62	5277.91
448.80	5118.75
448.99	5280.25
449.17	5256.84
449.36	5116.41
449.54	5233.44
449.73	5310.68
449.91	5310.68
450.10	5357.49
450.28	5427.70
450.46	5359.83
450.65	5289.61
450.83	5490.90
451.02	5275.57
451.20	5530.69
451.39	5483.88
451.57	5301.31
451.76	5369.19
451.94	5432.38
452.13	5551.75
452.31	5345.78
452.49	5451.11
452.68	5394.93
452.86	5547.07
453.05	5570.48
453.23	5483.88
453.42	5614.95
453.60	5640.69
453.78	5647.71
453.97	5621.97
454.15	5579.84
454.34	5570.48
454.52	5542.39
454.70	5706.23
454.89	5797.51
455.07	5682.82
455.26	5703.89
455.44	5813.89
455.62	5893.47
455.81	5743.67
455.99	5699.20
456.17	5818.57
456.36	5832.62
456.54	6033.90
456.73	6047.94
456.91	6054.97
457.09	6171.99
457.28	5933.26
457.46	5954.32
457.64	6232.85
457.83	6143.91
458.01	6193.06
458.19	6195.40
458.38	6169.65
458.56	6111.14
458.74	6307.74
458.93	6274.98
459.11	6326.47
459.29	6303.06
459.48	6380.30
459.66	6399.02
459.84	6319.45
460.03	6438.81
460.21	6471.58
460.39	6244.55
460.57	6466.90
460.76	6572.22
460.94	6530.09
461.12	6494.99
461.31	6424.77
461.49	6382.64
461.67	6520.73
461.85	6511.37
462.04	6539.46
462.22	6778.19
462.40	6796.92
462.59	6743.08
462.77	6693.93
462.95	6773.51
463.13	6597.97
463.32	6820.32
463.50	6963.09
463.68	6773.51
463.86	6698.61
464.05	6719.68
464.23	6614.35
464.41	6764.15
464.59	6724.36
464.78	6967.77
464.96	6867.13
465.14	6590.95
465.32	6888.20
465.50	6932.67
465.69	6944.37
465.87	6960.75
466.05	6935.01
466.23	6946.71
466.41	6904.58
466.60	7183.10
466.78	7033.31
466.96	7080.12
467.14	6956.07
467.32	7028.63
467.51	7227.57
467.69	6988.84
467.87	7159.70
468.05	7246.30
468.23	7061.40
468.41	7213.53
468.60	7133.95
468.78	7227.57
468.96	7014.59
469.14	7250.98
469.32	7421.84
469.50	7155.02
469.69	7545.89
469.87	7349.28
470.05	7417.16
470.23	7499.08
470.41	7286.09
470.59	7475.67
470.77	7555.25
470.95	7550.57
471.14	7723.77
471.32	7555.25
471.50	7641.85
471.68	7548.23
471.86	7964.84
472.04	7651.21
472.22	7997.61
472.40	7686.32
472.58	7742.49
472.77	7822.07
472.95	8049.10
473.13	8250.39
473.31	7948.46
473.49	8105.28
473.67	7974.21
473.85	8142.72
474.03	8126.34
474.21	8255.07
474.39	8266.77
474.57	8170.81
474.75	8250.39
474.93	8416.57
475.12	8360.39
475.30	8580.40
475.48	8292.52
475.66	8734.88
475.84	8468.06
476.02	8732.54
476.20	8762.97
476.38	8842.54
476.56	8833.18
476.74	8917.44
476.92	8926.80
477.10	8877.65
477.28	9132.77
477.46	8905.74
477.64	9132.77
477.82	9177.24
478.00	9493.21
478.18	9401.93
478.36	9397.25
478.54	9675.77
478.72	9467.47
478.90	9521.30
479.08	9774.08
479.26	9895.78
479.44	9769.40
479.62	10019.83
479.80	10083.03
479.98	10054.94
480.16	10260.91
480.34	10136.86
480.52	10356.87
480.70	10420.06
480.88	10314.74
481.06	10541.77
481.24	10452.83
481.41	10569.86
481.59	10572.20
481.77	10890.51
481.95	10984.13
482.13	11014.56
482.31	10904.56
482.49	11201.80
482.67	11382.03
482.85	11211.17
483.03	11400.75
483.21	11602.04
483.39	11826.73
483.57	11562.25
483.74	11534.16
483.92	11756.51
484.10	11826.73
484.28	12004.61
484.46	12058.44
484.64	12255.04
484.82	11997.59
485.00	12187.17
485.18	12568.68
485.35	12629.53
485.53	12631.87
485.71	12587.40
485.89	12769.96
486.07	12676.34
486.25	12809.75
486.43	12915.08
486.61	13193.60
486.78	13032.10
486.96	13123.38
487.14	13319.99
487.32	13528.30
487.50	13439.36
487.68	13605.53
487.85	13837.25
488.03	14061.94
488.21	14368.55
488.39	13944.91
488.57	14211.73
488.75	13998.74
488.92	14691.54
489.10	14380.25
489.28	14469.19
489.46	14829.63
489.64	14658.78
489.81	15026.24
489.99	14888.15
490.17	15105.82
490.35	15410.09
490.53	15309.44
490.70	15653.50
490.88	15321.15
491.06	15967.13
491.24	15704.99
491.41	15751.81
491.59	15999.90
491.77	16184.80
491.95	16383.75
492.13	16161.40
492.30	16329.92
492.48	16336.94
492.66	16215.23
492.84	16437.58
493.01	16582.70
493.19	17018.04
493.37	16875.26
493.54	17008.67
493.72	17001.65
493.90	16856.54
494.08	17060.16
494.25	17270.81
494.43	17446.35
494.61	17397.20
494.79	17439.33
494.96	17748.28
495.14	17867.65
495.32	17902.76
495.49	18188.30
495.67	18164.90
495.85	18122.77
496.02	18092.34
496.20	18506.62
496.38	17951.91
496.55	18162.56
496.73	18810.89
496.91	18286.61
497.09	19178.35
497.26	18792.16
497.44	18841.31
497.62	19267.29
497.79	19271.97
497.97	19087.07
498.14	19445.17
498.32	19152.60
498.50	19473.26
498.67	19370.27
498.85	19601.99
499.03	19440.49
499.20	19768.16
499.38	19988.18
499.56	19915.62
499.73	20107.54
499.91	20039.67
500.08	20189.46
500.26	19997.54
500.44	20173.08
500.61	20374.36
500.79	20776.94
500.97	20226.91
501.14	20650.55
501.32	20872.90
501.49	20798.00
501.67	20638.84
501.84	20908.01
502.02	20720.76
502.20	20954.82
502.37	20903.32
502.55	21231.00
502.72	20989.92
502.90	21584.42
503.07	21273.13
503.25	21703.79
503.43	21326.96
503.60	21628.89
503.78	21589.10
503.95	21603.14
504.13	21633.57
504.30	21553.99
504.48	21553.99
504.65	21652.30
504.83	22171.89
505.01	22059.55
505.18	22380.20
505.36	22546.38
505.53	22312.33
505.71	22562.76
505.88	22253.81
506.06	22572.13
506.23	22696.17
506.41	22876.40
506.58	22244.45
506.76	22766.39
506.93	22558.08
507.11	22988.74
507.28	22948.95
507.46	23089.38
507.63	23250.88
507.81	23061.30
507.98	23061.30
508.16	23206.41
508.33	23800.91
508.50	23613.66
508.68	23428.76
508.85	23531.75
509.03	23737.71
509.20	23564.51
509.38	23917.93
509.55	24063.05
509.73	23948.36
509.90	24533.50
510.08	24151.99
510.25	24126.24
510.42	24250.29
510.60	24304.12
510.77	24479.66
510.95	24566.26
511.12	24290.08
511.30	24847.13
511.47	25032.03
511.64	24940.75
511.82	24975.86
511.99	24390.72
512.17	24793.29
512.34	24753.51
512.51	24959.47
512.69	25233.32
512.86	25102.25
513.04	25249.70
513.21	25399.49
513.38	25088.20
513.56	25266.08
513.73	25413.54
513.90	25792.70
514.08	25640.57
514.25	25844.20
514.43	25900.37
514.60	25841.85
514.77	25530.56
514.95	25921.43
515.12	25504.82
515.29	25809.09
515.47	26103.99
515.64	26286.56
515.81	26118.04
515.99	26441.03
516.16	26188.25
516.33	26429.33
516.51	26946.59
516.68	26553.38
516.85	26452.73
517.03	26913.82
517.20	26602.53
517.37	26930.20
517.54	26595.51
517.72	26506.57
517.89	26567.42
518.06	26684.45
518.24	26525.29
518.41	26972.33
518.58	27087.02
518.75	26845.94
518.93	27044.89
519.10	26787.43
519.27	27407.67
519.45	27243.84
519.62	27330.44
519.79	27498.95
519.96	27213.41
520.14	27796.20
520.31	27491.93
520.48	27072.98
520.65	27353.84
520.83	27861.74
521.00	28229.20
521.17	27852.38
521.34	27864.08
521.52	28121.54
521.69	27941.32
521.86	28053.66
522.03	28086.43
522.20	28039.62
522.38	28477.30
522.55	28320.48
522.72	28098.13
522.89	28322.82
523.07	28486.66
523.24	28732.42
523.41	28875.19
523.58	28393.04
523.75	28666.88
523.92	28524.11
524.10	28671.56
524.27	28734.76
524.44	28872.85
524.61	28938.38
524.78	28982.85
524.96	29008.60
525.13	29184.14
525.30	29142.01
525.47	29738.85
525.64	29184.14
525.81	29467.34
525.98	29373.72
526.16	29184.14
526.33	29347.98
526.50	29462.66
526.67	29647.57
526.84	29397.13
527.01	29450.96
527.18	29565.65
527.36	29738.85
527.53	29752.89
527.70	30089.93
527.87	29942.47
528.04	30038.44
528.21	30213.98
528.38	29900.34
528.55	30101.63
528.72	30019.71
528.89	30164.82
529.07	30319.30
529.24	30192.91
529.41	30464.41
529.58	30419.94
529.75	30490.16
529.92	30621.23
530.09	30630.59
530.26	30363.77
530.43	30422.28
530.60	30370.79
530.77	30756.98
530.94	30698.47
531.11	30642.29
531.28	30494.84
531.46	30871.67
531.63	31033.16
531.80	31250.83
531.97	31058.91
532.14	31082.31
532.31	31040.18
532.48	31307.01
532.65	31391.26
532.82	31030.82
532.99	31182.96
533.16	31108.06
533.33	31175.94
533.50	31447.44
533.67	31215.72
533.84	30918.48
534.01	31440.42
534.18	31646.38
534.35	31590.21
534.52	31367.86
534.69	31578.51
534.86	32070.02
535.03	31314.03
535.20	31482.55
535.37	31786.82
535.54	32301.73
535.71	32205.77
535.88	32451.53
536.05	32163.64
536.22	32437.48
536.38	32268.97
536.55	32737.07
536.72	32362.59
536.89	32601.32
537.06	32594.30
537.23	32591.96
537.40	32273.65
537.57	32301.73
537.74	32479.61
537.91	32861.12
538.08	32481.95
538.25	32168.32
538.42	32453.87
538.59	32833.04
538.75	32844.74
538.92	32762.82
539.09	32783.88
539.26	33106.88
539.43	32594.30
539.60	32671.54
539.77	32566.21
539.94	33291.78
540.11	33474.34
540.28	32847.08
540.44	33352.63
540.61	33127.94
540.78	33151.35
540.95	33511.79
541.12	33387.74
541.29	33479.02
541.46	33654.56
541.62	34057.14
541.79	33914.36
541.96	33600.73
542.13	33472.00
542.30	33795.00
542.47	33738.82
542.63	33872.23
542.80	34036.07
542.97	34263.10
543.14	34616.52
543.31	34480.77
543.48	34092.24
543.64	34660.99
543.81	34532.26
543.98	34778.02
544.15	34452.69
544.32	34206.93
544.48	34864.62
544.65	34642.27
544.82	34803.77
544.99	34305.23
545.16	34555.67
545.32	34635.25
545.49	35042.50
545.66	35196.98
545.83	35599.55
546.00	35784.45
546.16	35271.87
546.33	35152.51
546.50	35161.87
546.67	34682.06
546.83	34169.48
547.00	34780.36
547.17	34916.11
547.34	34876.32
547.50	35063.57
547.67	35047.18
547.84	35220.38
548.00	35030.80
548.17	35302.30
548.34	35016.75
548.51	35192.30
548.67	35260.17
548.84	34998.03
549.01	35274.21
549.18	35196.98
549.34	35145.48
549.51	35288.26
549.68	35269.53
549.84	35171.23
550.01	35295.28
550.18	34866.96
550.34	35456.78
550.51	35517.63
550.68	35503.59
550.84	35065.91
551.01	35234.42
551.18	35051.86
551.34	35512.95
551.51	35377.20
551.68	35545.72
551.84	35431.03
552.01	35161.87
552.18	35501.25
552.34	35700.19
552.51	35702.53
552.68	35730.62
552.84	35871.05
553.01	35793.81
553.18	35700.19
553.34	36116.81
553.51	36027.87
553.67	35938.93
553.84	36460.87
554.01	36084.04
554.17	36147.23
554.34	35765.73
554.51	36168.30
554.67	36315.75
554.84	35931.90
555.00	35817.22
555.17	35718.92
555.33	36409.37
555.50	36037.23
555.67	36348.52
555.83	36053.61
556.00	36149.57
556.16	36467.89
556.33	36189.36
556.50	36151.91
556.66	36189.36
556.83	36041.91
556.99	36453.84
557.16	36198.73
557.32	36545.12
557.49	36987.49
557.65	36538.10
557.82	36154.26
557.98	36573.21
558.15	36692.58
558.32	36481.93
558.48	36416.40
558.65	36549.81
558.81	36486.61
558.98	36964.08
559.14	36804.92
559.31	36596.62
559.47	36741.73
559.64	36701.94
559.80	36837.69
559.97	36800.24
560.13	36479.59
560.30	36692.58
560.46	36800.24
560.63	37151.32
560.79	37123.24
560.96	36940.68
561.12	36701.94
561.29	36840.03
561.45	36912.59
561.61	37184.09
561.78	36591.94
561.94	36762.79
562.11	37439.21
562.27	37329.20
562.44	36774.50
562.60	37397.08
562.77	36896.20
562.93	37270.69
563.10	37036.64
563.26	36833.01
563.42	37092.81
563.59	37125.58
563.75	37102.17
563.92	37148.98
564.08	37193.45
564.24	37230.90
564.41	37298.78
564.57	37097.49
564.74	37645.18
564.90	37123.24
565.07	37661.56
565.23	37331.54
565.39	37280.05
565.56	37408.78
565.72	37504.74
565.88	37486.02
566.05	36968.76
566.21	36903.23
566.38	37170.05
566.54	37383.04
566.70	37645.18
566.87	37607.73
567.03	37809.01
567.19	38040.73
567.36	37729.44
567.52	37455.59
567.68	37607.73
567.85	37642.84
568.01	37670.92
568.17	37490.70
568.34	37481.34
568.50	37579.64
568.66	37811.35
568.83	37947.11
568.99	37177.07
569.15	37776.25
569.32	37706.03
569.48	37528.15
569.64	37806.67
569.81	37860.51
569.97	37626.45
570.13	37296.44
570.30	37434.53
570.46	38085.20
570.62	37436.87
570.78	37450.91
570.95	37368.99
571.11	37867.53
571.27	37766.88
571.43	37233.24
571.60	37579.64
571.76	37446.23
571.92	37876.89
572.09	37801.99
572.25	37956.47
572.41	38073.49
572.57	38120.31
572.74	37883.91
572.90	38054.77
573.06	37736.46
573.22	38110.94
573.38	37525.81
573.55	38052.43
573.71	37975.19
573.87	38209.25
574.03	37659.22
574.20	38345.00
574.36	37787.95
574.52	38115.62
574.68	38078.18
574.84	38124.99
575.01	37624.11
575.17	37764.54
575.33	38141.37
575.49	37998.60
575.65	37942.42
575.82	38150.73
575.98	38101.58
576.14	38230.31
576.30	38555.64
576.46	38253.72
576.62	38185.84
576.79	38134.35
576.95	37352.61
577.11	38419.89
577.27	38888.00
577.43	38249.03
577.59	38218.61
577.75	38328.61
577.92	38022.00
578.08	37862.85
578.24	38000.94
578.40	37872.21
578.56	38073.49
578.72	38120.31
578.88	38752.25
579.04	38340.32
579.21	37876.89
579.37	38150.73
579.53	38618.84
579.69	38314.57
579.85	38726.50
580.01	38511.17
580.17	38312.23
580.33	38162.43
580.49	38616.50
580.65	38176.48
580.82	38415.21
580.98	38274.78
581.14	38132.01
581.30	38185.84
581.46	38052.43
581.62	38047.75
581.78	37942.42
581.94	38382.45
582.10	37879.23
582.26	38103.92
582.42	38232.65
582.58	38078.18
582.74	38368.40
582.90	38096.90
583.06	38220.95
583.22	38054.77
583.38	37912.00
583.54	38190.52
583.70	37881.57
583.86	38333.29
584.02	38120.31
584.18	38909.07
584.34	38181.16
584.50	38424.57
584.66	38286.48
584.82	38017.32
584.98	38497.13
585.14	38337.98
585.30	38480.75
585.46	38450.32
585.62	38096.90
585.78	38742.89
585.94	38749.91
586.10	38314.57
586.26	38398.83
586.42	38260.74
586.58	38459.68
586.74	38312.23
586.90	38064.13
587.06	38415.21
587.22	38639.90
587.38	38150.73
587.54	38667.99
587.70	38476.07
587.86	38499.47
588.02	38740.55
588.18	38815.44
588.34	38644.59
588.49	38567.35
588.65	38157.75
588.81	38485.43
588.97	38667.99
589.13	38462.02
589.29	38670.33
589.45	38813.10
589.61	38857.57
589.77	38965.24
589.93	38869.28
590.08	38445.64
590.24	38735.87
590.40	39035.45
590.56	38838.85
590.72	38543.94
590.88	38447.98
591.04	38710.12
591.20	38768.63
591.35	38890.34
591.51	39119.71
591.67	38663.31
591.83	39068.22
591.99	38672.67
592.15	38471.39
592.31	38628.20
592.46	38595.43
592.62	39047.16
592.78	38885.66
592.94	39152.48
593.10	39423.98
593.26	39042.48
593.41	39227.38
593.57	38850.55
593.73	39105.67
593.89	39267.17
594.05	38756.93
594.20	38417.55
594.36	38752.25
594.52	38742.89
594.68	38670.33
594.84	38611.82
594.99	39250.78
595.15	38974.60
595.31	39161.84
595.47	38878.64
595.62	38759.27
595.78	38431.60
595.94	38522.88
596.10	38529.90
596.25	38677.35
596.41	38536.92
596.57	38756.93
596.73	38787.36
596.88	38981.62
597.04	38686.71
597.20	38703.10
597.36	39103.33
597.51	39386.54
597.67	39051.84
597.83	38983.96
597.99	39136.10
598.14	39131.42
598.30	38686.71
598.46	39192.27
598.61	38815.44
598.77	38932.47
598.93	39257.81
599.09	38815.44
599.24	39412.28
599.40	39203.97
599.56	39241.42
599.71	39089.29
599.87	38759.27
600.03	38923.11
600.18	39178.23
600.34	39143.12
600.50	39538.67
600.65	39016.73
600.81	39501.22
600.97	39573.78
601.12	39119.71
601.28	39253.12
601.44	38951.20
601.59	38976.94
601.75	38560.33
601.91	38913.75
602.06	38607.14
602.22	38972.26
602.37	38937.15
602.53	39302.28
602.69	39100.99
602.84	39342.06
603.00	38770.97
603.16	38967.58
603.31	39395.90
603.47	38941.83
603.62	38618.84
603.78	38857.57
603.94	38759.27
604.09	38778.00
604.25	38845.87
604.40	38794.38
604.56	38911.41
604.71	38986.30
604.87	39150.14
605.03	38653.95
605.18	38672.67
605.34	38796.72
605.49	38335.63
605.65	38443.30
605.80	38557.99
605.96	39208.65
606.12	38934.81
606.27	39473.13
606.43	38888.00
606.58	39571.44
606.74	39356.11
606.89	38983.96
607.05	38920.77
607.20	38829.49
607.36	38763.95
607.51	38586.07
607.67	39082.27
607.82	38745.23
607.98	38876.30
608.13	38838.85
608.29	38677.35
608.44	38836.51
608.60	39075.24
608.75	39498.88
608.91	38998.01
609.06	39175.89
609.22	38731.18
609.37	38160.09
609.53	38504.15
609.68	38532.24
609.84	38590.75
609.99	39035.45
610.15	39199.29
610.30	39047.16
610.46	39344.41
610.61	39002.69
610.76	39573.78
610.92	39468.45
611.07	39714.21
611.23	39655.70
611.38	39505.90
611.54	39693.15
611.69	39737.62
611.84	39449.73
612.00	39360.79
612.15	39108.01
612.31	38892.68
612.46	38981.62
612.62	38717.14
612.77	38937.15
612.92	38986.30
613.08	38969.92
613.23	38782.68
613.39	38110.94
613.54	38515.86
613.69	38415.21
613.85	38672.67
614.00	38426.92
614.15	38562.67
614.31	38941.83
614.46	38546.28
614.62	38913.75
614.77	38569.69
614.92	38499.47
615.08	38181.16
615.23	38920.77
615.38	38312.23
615.54	37904.98
615.69	38024.34
615.84	38281.80
616.00	38469.04
616.15	38054.77
616.30	38466.70
616.46	38162.43
616.61	38244.35
616.76	37935.40
616.92	37425.17
617.07	37811.35
617.22	37809.01
617.37	37490.70
617.53	37439.21
617.68	37993.92
617.83	38197.54
617.99	38218.61
618.14	37909.66
618.29	37968.17
618.45	38089.88
618.60	38094.56
618.75	37411.12
618.90	37006.21
619.06	37415.80
619.21	37317.50
619.36	37460.27
619.51	37378.36
619.67	37497.72
619.82	37720.07
619.97	37352.61
620.12	37687.31
620.28	37354.95
620.43	37432.19
620.58	37881.57
620.73	37577.30
620.89	37493.04
621.04	37450.91
621.19	37521.13
621.34	37584.32
621.49	37153.66
621.65	36872.80
621.80	37432.19
621.95	37577.30
622.10	37638.15
622.25	37392.40
622.41	37310.48
622.56	37029.62
622.71	37177.07
622.86	36957.06
623.01	37046.00
623.16	36765.14
623.32	36954.72
623.47	37095.15
623.62	37509.43
623.77	37156.00
623.92	37235.58
624.07	37574.96
624.23	37434.53
624.38	37301.12
624.53	37275.37
624.68	36978.12
624.83	37017.91
624.98	37036.64
625.13	36811.95
625.29	36900.89
625.44	36748.75
625.59	36935.99
625.74	36325.11
625.89	36444.48
626.04	36224.47
626.19	36556.83
626.34	36545.12
626.49	36699.60
626.65	36676.19
626.80	36645.77
626.95	36388.31
627.10	36535.76
627.25	36357.88
627.40	36182.34
627.55	36257.24
627.70	36189.36
627.85	36325.11
628.00	36318.09
628.15	36142.55
628.30	36250.22
628.45	36123.83
628.60	36027.87
628.76	36165.96
628.91	35978.72
629.06	36327.45
629.21	36102.76
629.36	36280.64
629.51	35938.93
629.66	36208.09
629.81	35983.40
629.96	36231.49
630.11	35747.00
630.26	35765.73
630.41	36215.11
630.56	35887.43
630.71	35885.09
630.86	36465.55
631.01	36210.43
631.16	36205.75
631.31	35686.15
631.46	35660.40
631.61	35744.66
631.76	35613.59
631.91	36187.02
632.06	36093.40
632.21	35662.74
632.36	35847.64
632.51	35756.36
632.66	35367.84
632.81	35564.44
632.96	35761.05
633.10	35690.83
633.25	35416.99
633.40	35833.60
633.55	35321.02
633.70	34799.08
633.85	34892.71
634.00	35302.30
634.15	35569.12
634.30	35211.02
634.45	35388.90
634.60	35374.86
634.75	35072.93
634.90	35407.62
635.05	35651.04
635.19	35178.25
635.34	35054.20
635.49	35044.84
635.64	34939.52
635.79	35035.48
635.94	34796.74
636.09	34983.99
636.24	34778.02
636.39	35021.44
636.53	35548.06
636.68	35267.19
636.83	34864.62
636.98	35178.25
637.13	34993.35
637.28	35021.44
637.43	35351.45
637.57	34906.75
637.72	34742.91
637.87	34728.87
638.02	34930.16
638.17	34876.32
638.32	34225.65
638.46	34022.03
638.61	34300.55
638.76	34799.08
638.91	34969.94
639.06	34883.34
639.20	35255.49
639.35	34773.34
639.50	34693.76
639.65	34480.77
639.80	34588.44
639.94	34536.94
640.09	34527.58
640.24	34504.18
640.39	34377.79
640.54	34314.59
640.68	34164.80
640.83	34345.02
640.98	34284.17
641.13	33940.11
641.27	34347.36
641.42	34052.45
641.57	34017.35
641.72	34492.47
641.86	33951.81
642.01	33486.04
642.16	33773.93
642.31	34153.10
642.45	34609.50
642.60	33762.23
642.75	34220.97
642.90	34506.52
643.04	33874.57
643.19	33752.87
643.34	33991.60
643.48	34059.48
643.63	33968.19
643.78	34040.75
643.93	33867.55
644.07	33406.47
644.22	33673.29
644.37	33750.52
644.51	33472.00
644.66	33720.10
644.81	33308.16
644.95	33528.17
645.10	33598.39
645.25	34045.43
645.39	34373.11
645.54	33909.68
645.69	33731.80
645.83	33729.46
645.98	33546.90
646.13	33837.12
646.27	33684.99
646.42	33977.56
646.57	33951.81
646.71	33677.97
646.86	33153.69
647.00	33769.25
647.15	33795.00
647.30	33713.08
647.44	33724.78
647.59	33502.43
647.74	33940.11
647.88	33607.75
648.03	33181.77
648.17	33209.86
648.32	33188.80
648.47	33298.80
648.61	33329.23
648.76	33060.07
648.90	33584.35
649.05	33357.32
649.20	33549.24
649.34	33469.66
649.49	33397.10
649.63	33656.90
649.78	33556.26
649.92	33493.07
650.07	33553.92
650.21	33167.73
650.36	33144.33
650.51	33226.24
650.65	32924.32
650.80	33376.04
650.94	33251.99
651.09	32685.58
651.23	32746.44
651.38	33111.56
651.52	32837.72
651.67	32999.21
651.81	32926.66
651.96	32837.72
652.10	32816.65
652.25	33048.36
652.39	32641.11
652.54	32802.61
652.68	32402.38
652.83	32496.00
652.97	33177.09
653.12	32432.80
653.26	32442.17
653.41	32706.65
653.55	32601.32
653.70	32219.81
653.84	32643.45
653.99	32435.14
654.13	32290.03
654.27	32470.25
654.42	32002.14
654.56	32751.12
654.71	32587.28
654.85	32865.80
655.00	32591.96
655.14	32222.16
655.29	32198.75
655.43	32020.87
655.57	31938.95
655.72	31990.44
655.86	32259.60
656.01	32023.21
656.15	31669.79
656.30	32088.74
656.44	32240.88
656.58	32278.33
656.73	32133.21
656.87	32261.94
657.01	31833.63
657.16	31885.12
657.30	32093.43
657.45	31648.72
657.59	31723.62
657.73	31807.88
657.88	31587.87
658.02	31971.72
658.16	31885.12
658.31	31690.85
658.45	31725.96
658.60	32233.86
658.74	31702.56
658.88	31683.83
659.03	31480.21
659.17	31068.27
659.31	31409.99
659.46	31290.62
659.60	31468.50
659.74	31534.04
659.89	31449.78
660.03	31229.77
660.17	31709.58
660.32	31145.51
660.46	31309.35
660.60	31087.00
660.74	30941.88
660.89	31377.22
661.03	30848.26
661.17	31019.12
661.32	31028.48
661.46	30712.51
661.60	30995.71
661.74	30738.26
661.89	30595.48
662.03	30773.36
662.17	30499.52
662.31	30700.81
662.46	30581.44
662.60	30593.14
662.74	30651.66
662.88	30899.75
663.03	31014.44
663.17	30593.14
663.31	30164.82
663.45	30590.80
663.60	30192.91
663.74	30331.00
663.88	30457.39
664.02	29795.02
664.17	30295.89
664.31	29762.25
664.45	29715.44
664.59	29834.81
664.73	29790.34
664.88	30188.23
665.02	29797.36
665.16	29998.65
665.30	29757.57
665.44	29567.99
665.59	29359.68
665.73	29713.10
665.87	29488.41
666.01	29453.30
666.15	29638.20
666.29	29266.06
666.44	29078.82
666.58	28826.04
666.72	29106.90
666.86	29553.94
667.00	29357.34
667.14	29085.84
667.28	28982.85
667.43	29223.93
667.57	29252.02
667.71	29244.99
667.85	28945.41
667.99	29116.26
668.13	28819.02
668.27	28580.28
668.41	29125.63
668.56	28746.46
668.70	28638.80
668.84	28889.23
668.98	28538.15
669.12	28807.31
669.26	28732.42
669.40	28119.20
669.54	28498.36
669.68	28044.30
669.82	28460.91
669.96	28549.85
670.10	28634.11
670.25	28322.82
670.39	28189.41
670.53	27981.10
670.67	28011.53
670.81	28294.74
670.95	28322.82
671.09	27983.44
671.23	27573.85
671.37	28116.86
671.51	28276.01
671.65	28114.52
671.79	27634.71
671.93	27992.81
672.07	27915.57
672.21	27470.87
672.35	27262.56
672.49	27534.06
672.63	27648.75
672.77	27765.78
672.91	27543.42
673.05	27501.29
673.19	27384.27
673.33	26916.16
673.47	26803.82
673.61	26937.23
673.75	26888.07
673.89	26852.97
674.03	26654.02
674.17	26955.95
674.31	27054.25
674.45	27030.85
674.59	26754.66
674.73	27239.15
674.87	26443.37
675.01	26429.33
675.15	26366.13
675.29	26876.37
675.43	26415.29
675.56	26787.43
675.70	26340.39
675.84	26054.84
675.98	25247.36
676.12	25848.88
676.26	25797.38
676.40	26153.15
676.54	25682.70
676.68	26026.76
676.82	25570.35
676.96	25865.26
677.10	26129.74
677.23	25729.51
677.37	25722.49
677.51	25495.46
677.65	25167.78
677.79	25149.06
677.93	25022.67
678.07	24833.08
678.21	24575.62
678.34	24507.75
678.48	24372.00
678.62	24774.57
678.76	24828.40
678.90	24690.31
679.04	24875.21
679.18	24144.97
679.31	24259.65
679.45	24276.04
679.59	24280.72
679.73	24711.38
679.87	24030.28
680.00	24006.87
680.14	23578.56
680.28	23934.32
680.42	23721.33
680.56	23906.23
680.70	23730.69
680.83	23805.59
680.97	23356.21
681.11	23826.65
681.25	23606.64
681.39	23332.80
681.52	22993.42
681.66	23227.48
681.80	23403.02
681.94	23262.58
682.07	23019.17
682.21	23330.46
682.35	23136.20
682.49	22991.08
682.62	22902.14
682.76	22792.14
682.90	22799.16
683.04	22850.65
683.17	22424.67
683.31	22478.50
683.45	22544.04
683.59	22139.13
683.72	22530.00
683.86	22359.14
684.00	22410.63
684.13	21876.99
684.27	21830.18
684.41	21701.45
684.55	21647.61
684.68	21392.50
684.82	21465.05
684.96	21465.05
685.09	21460.37
685.23	21483.78
685.37	21565.70
685.50	21680.38
685.64	21596.12
685.78	21287.17
685.91	21048.44
686.05	20912.69
686.19	20961.84
686.32	20622.46
686.46	20676.29
686.60	20837.79
686.73	21153.76
686.87	21268.45
687.01	20643.52
687.14	20526.50
687.28	20397.77
687.42	20315.85
687.55	20203.50
687.69	20437.56
687.82	20393.09
687.96	20269.04
688.10	19901.58
688.23	20294.79
688.37	19934.34
688.50	19693.27
688.64	19700.29
688.78	20247.97
688.91	20044.35
689.05	19176.01
689.18	19407.72
689.32	19199.41
689.46	19276.65
689.59	19321.12
689.73	19250.91
689.86	18822.59
690.00	18841.31
690.13	19161.97
690.27	19220.48
690.41	19166.65
690.54	18780.46
690.68	19030.90
690.81	18625.98
690.95	18862.38
691.08	18665.77
691.22	18405.97
691.35	18480.87
691.49	18792.16
691.62	18307.67
691.76	18183.62
691.89	18321.71
692.03	18288.95
692.16	18338.10
692.30	18331.08
692.43	18064.25
692.57	17825.52
692.70	17762.33
692.84	17717.86
692.97	17752.96
693.11	17881.69
693.24	17703.81
693.38	17226.34
693.51	17170.17
693.65	17432.31
693.78	17191.23
693.92	17383.16
694.05	16835.47
694.19	17429.97
694.32	17436.99
694.45	17282.52
694.59	17198.26
694.72	16882.28
694.86	16929.09
694.99	16561.63
695.13	16521.84
695.26	16795.68
695.39	16327.58
695.53	16493.76
695.66	16168.42
695.80	15910.96
695.93	16196.51
696.07	15995.22
696.20	16360.34
696.33	16226.93
696.47	16011.60
696.60	15861.81
696.73	15789.25
696.87	15892.24
697.00	15910.96
697.14	15543.50
697.27	15517.75
697.40	15197.10
697.54	15400.72
697.67	15398.38
697.80	15140.93
697.94	15239.23
698.07	15248.59
698.21	15459.24
698.34	14991.13
698.47	14934.96
698.61	14658.78
698.74	14944.32
698.87	14960.70
699.01	14843.68
699.14	14939.64
699.27	14768.78
699.40	14822.61
699.54	14670.48
699.67	14642.39
699.80	14387.27
699.94	14459.83
700.07	14267.91
700.20	14171.94
700.34	13738.94
700.47	14221.10
700.60	13846.61
700.73	14083.00
700.87	14111.09
701.00	13724.90
701.13	13837.25
701.26	13984.70
701.40	13692.13
701.53	13359.78
701.66	13245.09
701.79	13591.49
701.93	13500.21
702.06	13642.98
702.19	13460.42
702.32	13460.42
702.46	13331.69
702.59	13193.60
702.72	13092.96
702.85	12814.43
702.99	12755.92
703.12	12734.85
703.25	12681.02
703.38	12814.43
703.51	12872.95
703.65	12828.48
703.78	12734.85
703.91	12809.75
704.04	12865.92
704.17	12620.17
704.31	12292.49
704.44	12306.54
704.57	12325.26
704.70	12306.54
704.83	11915.67
704.96	11939.07
705.10	12025.67
705.23	12243.34
>>>>>End Processed Spectral Data<<<<<
