SpectraSuite Data File
++++++++++++++++++++++++++++++++++++
Date: Thu Oct 24 13:21:13 EDT 2013
User: stostad
Dark Spectrum Present: No
Reference Spectrum Present: No
Number of Sampled Component Spectra: 1
Spectrometers: USB2+H05261
Integration Time (usec): 100000 (USB2+H05261)
Spectra Averaged: 1 (USB2+H05261)
Boxcar Smoothing: 0 (USB2+H05261)
Correct for Electrical Dark: No (USB2+H05261)
Strobe/Lamp Enabled: No (USB2+H05261)
Correct for Detector Non-linearity: No (USB2+H05261)
Correct for Stray Light: No (USB2+H05261)
Number of Pixels in Processed Spectrum: 2048
>>>>>Begin Processed Spectral Data<<<<<
365.73	554.71
365.92	554.71
366.12	554.71
366.32	411.93
366.52	475.13
366.72	535.98
366.91	468.11
367.11	407.25
367.31	404.91
367.51	447.04
367.70	477.47
367.90	461.09
368.10	451.72
368.30	411.93
368.49	451.72
368.69	454.06
368.89	493.85
369.09	456.40
369.28	447.04
369.48	500.87
369.68	491.51
369.87	557.05
370.07	540.66
370.27	547.69
370.47	599.18
370.66	627.26
370.86	653.01
371.06	716.20
371.25	699.82
371.45	662.37
371.65	709.18
371.84	755.99
372.04	725.57
372.24	739.61
372.44	718.54
372.63	763.01
372.83	660.03
373.03	723.23
373.22	802.80
373.42	753.65
373.62	791.10
373.81	779.40
374.01	777.06
374.21	737.27
374.40	711.52
374.60	704.50
374.79	741.95
374.99	788.76
375.19	716.20
375.38	748.97
375.58	777.06
375.78	774.72
375.97	868.34
376.17	734.93
376.37	802.80
376.56	730.25
376.76	809.83
376.95	744.29
377.15	711.52
377.35	793.44
377.54	751.31
377.74	798.12
377.93	709.18
378.13	805.14
378.33	809.83
378.52	767.70
378.72	753.65
378.91	791.10
379.11	805.14
379.31	751.31
379.50	709.18
379.70	812.17
379.89	830.89
380.09	795.78
380.28	812.17
380.48	786.42
380.68	814.51
380.87	823.87
381.07	821.53
381.26	858.98
381.46	854.30
381.65	873.02
381.85	807.48
382.04	821.53
382.24	805.14
382.43	805.14
382.63	788.76
382.83	833.23
383.02	903.45
383.22	863.66
383.41	835.57
383.61	781.74
383.80	842.59
384.00	779.40
384.19	774.72
384.39	821.53
384.58	835.57
384.78	802.80
384.97	880.04
385.17	868.34
385.36	805.14
385.56	844.93
385.75	851.96
385.95	894.08
386.14	821.53
386.34	894.08
386.53	910.47
386.72	823.87
386.92	786.42
387.11	851.96
387.31	809.83
387.50	784.08
387.70	755.99
387.89	851.96
388.09	795.78
388.28	854.30
388.48	847.27
388.67	919.83
388.86	880.04
389.06	880.04
389.25	858.98
389.45	863.66
389.64	905.79
389.84	858.98
390.03	936.21
390.22	894.08
390.42	912.81
390.61	887.06
390.81	919.83
391.00	854.30
391.19	959.62
391.39	947.92
391.58	980.68
391.78	959.62
391.97	954.94
392.16	851.96
392.36	1041.54
392.55	950.26
392.75	898.77
392.94	917.49
393.13	901.11
393.33	884.72
393.52	924.51
393.71	985.37
393.91	929.19
394.10	912.81
394.29	938.55
394.49	968.98
394.68	980.68
394.88	915.15
395.07	978.34
395.26	959.62
395.46	952.60
395.65	987.71
395.84	917.49
396.04	957.28
396.23	961.96
396.42	959.62
396.62	1064.94
396.81	1020.47
397.00	990.05
397.19	1050.90
397.39	1029.84
397.58	1027.50
397.77	1001.75
397.97	1095.37
398.16	1015.79
398.35	992.39
398.55	999.41
398.74	976.00
398.93	1095.37
399.12	1008.77
399.32	1057.92
399.51	1006.43
399.70	1114.10
399.90	1048.56
400.09	1032.18
400.28	1081.33
400.47	1046.22
400.67	1090.69
400.86	1041.54
401.05	1015.79
401.24	1100.05
401.44	1062.60
401.63	1121.12
401.82	1090.69
402.01	1081.33
402.21	1078.99
402.40	1149.20
402.59	1132.82
402.78	1198.35
402.97	1104.73
403.17	1172.61
403.36	1125.80
403.55	1146.86
403.74	1179.63
403.93	1181.97
404.13	1193.67
404.32	1289.64
404.51	1214.74
404.70	1226.44
404.89	1181.97
405.09	1259.21
405.28	1191.33
405.47	1245.16
405.66	1317.72
405.85	1233.46
406.05	1282.61
406.24	1191.33
406.43	1249.85
406.62	1299.00
406.81	1231.12
407.00	1345.81
407.20	1280.27
407.39	1315.38
407.58	1256.87
407.77	1380.92
407.96	1287.29
408.15	1256.87
408.34	1308.36
408.54	1371.55
408.73	1378.58
408.92	1320.06
409.11	1256.87
409.30	1383.26
409.49	1369.21
409.68	1336.45
409.87	1439.43
410.07	1455.81
410.26	1359.85
410.45	1355.17
410.64	1397.30
410.83	1441.77
411.02	1423.05
411.21	1420.71
411.40	1533.05
411.59	1488.58
411.78	1423.05
411.98	1465.18
412.17	1432.41
412.36	1514.33
412.55	1444.11
412.74	1495.60
412.93	1631.35
413.12	1504.96
413.31	1629.01
413.50	1469.86
413.69	1504.96
413.88	1551.78
414.07	1540.07
414.26	1671.14
414.45	1554.12
414.64	1514.33
414.83	1614.97
415.02	1624.33
415.22	1636.03
415.41	1680.50
415.60	1614.97
415.79	1645.40
415.98	1643.06
416.17	1687.53
416.36	1685.19
416.55	1617.31
416.74	1734.34
416.93	1666.46
417.12	1732.00
417.31	1797.53
417.50	1682.85
417.69	1753.06
417.88	1816.26
418.07	1788.17
418.26	1736.68
418.45	1762.42
418.64	1832.64
418.83	1771.79
419.02	1732.00
419.21	1872.43
419.39	1914.56
419.58	1846.68
419.77	1715.61
419.96	1739.02
420.15	1905.20
420.34	1806.89
420.53	1837.32
420.72	1886.47
420.91	1867.75
421.10	1877.11
421.29	1860.73
421.48	1839.66
421.67	1888.81
421.86	1888.81
422.05	1811.57
422.24	1944.99
422.43	1785.83
422.61	1863.07
422.80	1952.01
422.99	1909.88
423.18	1933.28
423.37	1970.73
423.56	1870.09
423.75	1928.60
423.94	1994.14
424.13	1921.58
424.32	1830.30
424.50	1966.05
424.69	2026.90
424.88	2069.03
425.07	1952.01
425.26	1909.88
425.45	2010.52
425.64	2069.03
425.83	1891.15
426.01	1987.11
426.20	1952.01
426.39	2012.86
426.58	1994.14
426.77	1966.05
426.96	2008.18
427.15	1928.60
427.33	2066.69
427.52	2005.84
427.71	2038.61
427.90	2043.29
428.09	2162.66
428.28	2113.50
428.46	2043.29
428.65	2080.74
428.84	2085.42
429.03	1980.09
429.22	2141.59
429.40	2033.93
429.59	2064.35
429.78	2022.22
429.97	2040.95
430.16	2139.25
430.34	2050.31
430.53	2108.82
430.72	2148.61
430.91	2136.91
431.10	2073.71
431.28	2097.12
431.47	2132.23
431.66	2188.40
431.85	2071.37
432.03	2176.70
432.22	2265.64
432.41	2143.93
432.60	2275.00
432.79	2258.62
432.97	2242.23
433.16	2298.41
433.35	2169.68
433.54	2186.06
433.72	2174.36
433.91	2225.85
434.10	2258.62
434.28	2225.85
434.47	2385.01
434.66	2321.81
434.85	2363.94
435.03	2485.65
435.22	2696.30
435.41	2904.60
435.59	2799.28
435.78	2628.42
435.97	2546.50
436.16	2502.03
436.34	2298.41
436.53	2387.35
436.72	2495.01
436.90	2431.82
437.09	2359.26
437.28	2375.64
437.46	2361.60
437.65	2387.35
437.84	2420.11
438.02	2415.43
438.21	2471.61
438.40	2399.05
438.58	2492.67
438.77	2492.67
438.96	2476.29
439.14	2434.16
439.33	2588.63
439.52	2600.34
439.70	2546.50
439.89	2579.27
440.08	2635.44
440.26	2647.15
440.45	2661.19
440.63	2700.98
440.82	2649.49
441.01	2621.40
441.19	2588.63
441.38	2555.86
441.57	2565.23
441.75	2757.15
441.94	2853.11
442.12	2705.66
442.31	2705.66
442.50	2768.85
442.68	2696.30
442.87	2740.77
443.05	2738.43
443.24	2801.62
443.43	2801.62
443.61	2773.53
443.80	2864.82
443.98	2820.35
444.17	2654.17
444.35	2780.56
444.54	2815.66
444.73	2871.84
444.91	2867.16
445.10	2935.03
445.28	2911.63
445.47	2822.69
445.65	2892.90
445.84	2829.71
446.02	2902.26
446.21	2864.82
446.39	2951.42
446.58	2820.35
446.77	2890.56
446.95	2818.00
447.14	2904.60
447.32	3023.97
447.51	2871.84
447.69	2862.48
447.88	2979.50
448.06	2876.52
448.25	2937.37
448.43	2867.16
448.62	2874.18
448.80	2930.35
448.99	2984.18
449.17	2932.69
449.36	2972.48
449.54	2925.67
449.73	2993.55
449.91	2892.90
450.10	3082.49
450.28	3187.81
450.46	3068.44
450.65	3026.31
450.83	3042.70
451.02	2965.46
451.20	3096.53
451.39	3028.65
451.57	3052.06
451.76	3063.76
451.94	3094.19
452.13	3080.14
452.31	3138.66
452.49	3054.40
452.68	3157.38
452.86	3119.93
453.05	3215.90
453.23	3164.40
453.42	3089.51
453.60	3073.12
453.78	3143.34
453.97	3035.67
454.15	3108.23
454.34	3131.64
454.52	3290.79
454.70	3148.02
454.89	3262.71
455.07	3148.02
455.26	3199.51
455.44	3164.40
455.62	3276.75
455.81	3192.49
455.99	3328.24
456.17	3248.66
456.36	3243.98
456.54	3410.16
456.73	3253.34
456.91	3316.54
457.09	3431.23
457.28	3433.57
457.46	3424.20
457.64	3379.73
457.83	3372.71
458.01	3431.23
458.19	3412.50
458.38	3398.46
458.56	3492.08
458.74	3396.12
458.93	3492.08
459.11	3485.06
459.29	3562.30
459.48	3459.31
459.66	3363.35
459.84	3414.84
460.03	3616.13
460.21	3557.61
460.39	3597.40
460.57	3536.55
460.76	3506.12
460.94	3588.04
461.12	3660.60
461.31	3630.17
461.49	3662.94
461.67	3503.78
461.85	3508.46
462.04	3632.51
462.22	3887.63
462.40	3742.52
462.59	3693.37
462.77	3686.34
462.95	3581.02
463.13	3686.34
463.32	3517.83
463.50	3712.09
463.68	3674.64
463.86	3737.84
464.05	3681.66
464.23	3630.17
464.41	3784.65
464.59	3735.50
464.78	3772.94
464.96	3831.46
465.14	3665.28
465.32	3721.45
465.50	3829.12
465.69	3812.73
465.87	3702.73
466.05	3815.07
466.23	3822.09
466.41	3840.82
466.60	3906.35
466.78	3854.86
466.96	3768.26
467.14	3740.18
467.32	3920.40
467.51	3953.16
467.69	3875.93
467.87	3946.14
468.05	3845.50
468.23	3901.67
468.41	3796.35
468.60	3889.97
468.78	3868.91
468.96	3864.22
469.14	3948.48
469.32	3992.95
469.50	3950.82
469.69	3927.42
469.87	4081.89
470.05	4081.89
470.23	4016.36
470.41	4098.28
470.59	4084.23
470.77	4196.58
470.95	4154.45
471.14	4194.24
471.32	4135.73
471.50	4070.19
471.68	4252.75
471.86	4198.92
472.04	4196.58
472.22	4297.22
472.40	4217.65
472.58	4128.70
472.77	4184.88
472.95	4149.77
473.13	4386.16
473.31	4124.02
473.49	4280.84
473.67	4194.24
473.85	4360.42
474.03	4395.53
474.21	4468.08
474.39	4432.97
474.57	4329.99
474.75	4463.40
474.93	4568.73
475.12	4582.77
475.30	4386.16
475.48	4550.00
475.66	4580.43
475.84	4507.87
476.02	4683.41
476.20	4671.71
476.38	4657.67
476.56	4823.84
476.74	4676.39
476.92	4786.40
477.10	4751.29
477.28	4760.65
477.46	4809.80
477.64	4809.80
477.82	4807.46
478.00	4943.21
478.18	4891.72
478.36	4870.65
478.54	4983.00
478.72	4997.04
478.90	5109.39
479.08	5104.71
479.26	5310.68
479.44	5245.14
479.62	5240.46
479.80	5329.40
479.98	5238.12
480.16	5259.18
480.34	5373.87
480.52	5399.62
480.70	5338.76
480.88	5472.17
481.06	5371.53
481.24	5605.58
481.41	5535.37
481.59	5530.69
481.77	5497.92
481.95	5643.03
482.13	5657.07
482.31	5860.70
482.49	5720.27
482.67	5844.32
482.85	5916.87
483.03	5919.21
483.21	5907.51
483.39	5919.21
483.57	5935.60
483.74	6033.90
483.92	6356.90
484.10	6073.69
484.28	6314.77
484.46	6270.30
484.64	6359.24
484.82	6209.44
485.00	6202.42
485.18	6356.90
485.35	6513.71
485.53	6436.47
485.71	6394.34
485.89	6630.74
486.07	6558.18
486.25	6640.10
486.43	6736.06
486.61	6829.68
486.78	6761.81
486.96	6839.05
487.14	6895.22
487.32	6881.18
487.50	6993.52
487.68	7148.00
487.85	6913.94
488.03	7206.51
488.21	7339.92
488.39	7101.19
488.57	7307.15
488.75	7171.40
488.92	7398.43
489.10	7321.20
489.28	7356.30
489.46	7501.42
489.64	7356.30
489.81	7644.19
489.99	7681.64
490.17	7871.22
490.35	7728.45
490.53	7709.72
490.70	7723.77
490.88	7878.24
491.06	8084.21
491.24	7850.16
491.41	7992.93
491.59	8046.76
491.77	8039.74
491.95	8198.90
492.13	8109.96
492.30	8269.11
492.48	8140.38
492.66	8217.62
492.84	8528.91
493.01	8180.17
493.19	8386.14
493.37	8496.14
493.54	8407.20
493.72	8528.91
493.90	8514.87
494.08	8458.70
494.25	8456.36
494.43	8659.98
494.61	8723.18
494.79	8716.16
494.96	8613.17
495.14	8837.86
495.32	9036.81
495.49	9081.28
495.67	9174.90
495.85	8982.98
496.02	9151.49
496.20	9165.54
496.38	9057.87
496.55	9289.59
496.73	9476.83
496.91	9355.12
497.09	9458.10
497.26	9336.40
497.44	9296.61
497.62	9371.50
497.79	9507.26
497.97	9530.66
498.14	9717.90
498.32	9523.64
498.50	9397.25
498.67	9799.82
498.85	9741.31
499.03	9650.03
499.20	9783.44
499.38	9846.63
499.56	9757.69
499.73	10001.11
499.91	9687.48
500.08	9933.23
500.26	9935.57
500.44	9748.33
500.61	10150.90
500.79	10183.67
500.97	10157.92
501.14	10134.52
501.32	10085.37
501.49	10300.70
501.67	10244.52
501.84	10462.19
502.02	10218.78
502.20	10174.31
502.37	10359.21
502.55	10214.10
502.72	10399.00
502.90	10490.28
503.07	10537.09
503.25	10513.69
503.43	10544.11
503.60	10590.92
503.78	10642.42
503.95	10560.50
504.13	10670.50
504.30	10663.48
504.48	10590.92
504.65	10551.14
504.83	10740.72
505.01	10862.43
505.18	10803.91
505.36	10775.83
505.53	10923.28
505.71	10743.06
505.88	11133.93
506.06	10949.03
506.23	11157.33
506.41	10986.47
506.58	11243.93
506.76	10822.64
506.93	11126.91
507.11	11124.57
507.28	11265.00
507.46	11372.66
507.63	11384.37
507.81	11101.16
507.98	11169.04
508.16	11171.38
508.33	11351.60
508.50	11424.15
508.68	11227.55
508.85	11304.79
509.03	11499.05
509.20	11332.87
509.38	11595.01
509.55	11569.27
509.73	11599.70
509.90	11826.73
510.08	11754.17
510.25	11705.02
510.42	11637.14
510.60	11880.56
510.77	11786.94
510.95	11995.25
511.12	11967.16
511.30	11899.28
511.47	11901.62
511.64	11992.90
511.82	12231.64
511.99	11672.25
512.17	11896.94
512.34	11908.65
512.51	12084.19
512.69	12229.30
512.86	12259.73
513.04	12231.64
513.21	12219.94
513.38	12152.06
513.56	12271.43
513.73	12343.99
513.90	12442.29
514.08	12203.55
514.25	12421.22
514.43	12449.31
514.60	12411.86
514.77	12470.37
514.95	12294.83
515.12	12486.76
515.29	12329.94
515.47	12444.63
515.64	12606.13
515.81	12479.74
515.99	12496.12
516.16	12758.26
516.33	12854.22
516.51	12861.24
516.68	12798.05
516.85	12769.96
517.03	13032.10
517.20	12840.18
517.37	12858.90
517.54	12755.92
517.72	12915.08
517.89	12840.18
518.06	12922.10
518.24	12961.89
518.41	12891.67
518.58	12905.71
518.75	12861.24
518.93	12943.16
519.10	12945.50
519.27	12959.55
519.45	12950.18
519.62	13057.85
519.79	13254.45
519.96	13055.51
520.14	12945.50
520.31	13151.47
520.48	13032.10
520.65	13107.00
520.83	13212.32
521.00	13605.53
521.17	13261.48
521.34	13469.78
521.52	13289.56
521.69	13095.30
521.86	13425.31
522.03	13547.02
522.20	13469.78
522.38	13490.85
522.55	13429.99
522.72	13432.33
522.89	13598.51
523.07	13722.56
523.24	13689.79
523.41	13474.46
523.58	13554.04
523.75	13947.25
523.92	13568.09
524.10	14010.45
524.27	13898.10
524.44	13797.46
524.61	13769.37
524.78	13862.99
524.96	13783.41
525.13	13930.87
525.30	14087.68
525.47	14122.79
525.64	13956.61
525.81	13872.36
525.98	13984.70
526.16	14050.24
526.33	14167.26
526.50	14291.31
526.67	14204.71
526.84	14153.22
527.01	14188.33
527.18	14235.14
527.36	14185.99
527.53	14345.14
527.70	14118.11
527.87	14516.00
528.04	14354.51
528.21	14080.66
528.38	14452.81
528.55	14380.25
528.72	14396.64
528.89	14251.52
529.07	14466.85
529.24	14462.17
529.41	14516.00
529.58	14415.36
529.75	14614.30
529.92	14434.08
530.09	14473.87
530.26	14736.01
530.43	14436.42
530.60	14373.23
530.77	14473.87
530.94	14576.86
531.11	14478.55
531.28	14565.15
531.46	14370.89
531.63	14677.50
531.80	14728.99
531.97	14733.67
532.14	14689.20
532.31	14663.46
532.48	14728.99
532.65	14965.39
532.82	14771.12
532.99	14846.02
533.16	14803.89
533.33	14939.64
533.50	14972.41
533.67	15241.57
533.84	14801.55
534.01	15047.30
534.18	15068.37
534.35	15311.78
534.52	15021.56
534.69	15208.80
534.86	14867.08
535.03	15030.92
535.20	15016.88
535.37	15187.74
535.54	15236.89
535.71	15197.10
535.88	15342.21
536.05	15112.84
536.22	15508.39
536.38	15377.32
536.55	15412.43
536.72	15353.91
536.89	15068.37
537.06	15304.76
537.23	15339.87
537.40	15229.87
537.57	15454.56
537.74	15384.34
537.91	15576.27
538.08	15473.28
538.25	15295.40
538.42	15536.48
538.59	15499.03
538.75	15091.77
538.92	15768.19
539.09	15763.51
539.26	15576.27
539.43	15763.51
539.60	15674.57
539.77	15861.81
539.94	15660.52
540.11	15885.22
540.28	16030.33
540.44	15592.65
540.61	15829.04
540.78	15704.99
540.95	15784.57
541.12	16070.12
541.29	16549.93
541.46	16245.66
541.62	16126.29
541.79	16453.97
541.96	16224.59
542.13	15985.86
542.30	16306.51
542.47	16393.11
542.63	16582.70
542.80	16737.17
542.97	16470.35
543.14	16531.20
543.31	16505.46
543.48	16353.32
543.64	16437.58
543.81	16580.36
543.98	16709.08
544.15	16563.97
544.32	16545.25
544.48	16704.40
544.65	16695.04
544.82	16580.36
544.99	16538.23
545.16	16582.70
545.32	16599.08
545.49	17341.03
545.66	17476.78
545.83	17469.76
546.00	17366.78
546.16	16999.31
546.33	17090.59
546.50	16793.34
546.67	16945.48
546.83	16622.48
547.00	16486.73
547.17	16299.49
547.34	16503.12
547.50	16456.31
547.67	16755.90
547.84	16589.72
548.00	16549.93
548.17	16615.46
548.34	16386.09
548.51	16552.27
548.67	16652.91
548.84	16879.94
549.01	16915.05
549.18	16709.08
549.34	16348.64
549.51	16444.60
549.68	16631.85
549.84	16645.89
550.01	16617.80
550.18	16451.63
550.34	16893.99
550.51	16718.45
550.68	16657.59
550.84	16435.24
551.01	16854.20
551.18	16350.98
551.34	16559.29
551.51	16734.83
551.68	16854.20
551.84	16697.38
552.01	16395.45
552.18	16727.81
552.34	16746.53
552.51	16725.47
552.68	16879.94
552.84	16655.25
553.01	16573.33
553.18	16489.07
553.34	16971.22
553.51	16702.06
553.67	16816.75
553.84	17125.70
554.01	16844.84
554.17	16957.18
554.34	17032.08
554.51	16870.58
554.67	16940.80
554.84	16463.33
555.00	16858.88
555.17	16875.26
555.33	16802.71
555.50	16638.87
555.67	16592.06
555.83	16755.90
556.00	17034.42
556.16	17029.74
556.33	16648.23
556.50	16762.92
556.66	16910.37
556.83	16842.50
556.99	17188.89
557.16	16961.86
557.32	16936.12
557.49	16875.26
557.65	16849.52
557.82	16915.05
557.98	16840.15
558.15	16816.75
558.32	16826.11
558.48	17041.44
558.65	17104.64
558.81	16865.90
558.98	16961.86
559.14	17266.13
559.31	16833.13
559.47	17081.23
559.64	16865.90
559.80	17128.04
559.97	16891.65
560.13	16706.74
560.30	16828.45
560.46	16929.09
560.63	17380.82
560.79	17132.72
560.96	16910.37
561.12	16821.43
561.29	17270.81
561.45	17245.07
561.61	17036.76
561.78	17275.49
561.94	17067.19
562.11	17114.00
562.27	17397.20
562.44	17186.55
562.60	17039.10
562.77	17025.06
562.93	17025.06
563.10	16971.22
563.26	16938.46
563.42	17165.49
563.59	17053.14
563.75	17369.12
563.92	17106.98
564.08	17329.33
564.24	17074.21
564.41	17109.32
564.57	17198.26
564.74	17050.80
564.90	16851.86
565.07	17146.76
565.23	17338.69
565.39	17008.67
565.56	17301.24
565.72	17301.24
565.88	17128.04
566.05	17200.60
566.21	17013.35
566.38	17121.02
566.54	17317.62
566.70	16833.13
566.87	17460.40
567.03	17198.26
567.19	17118.68
567.36	17296.56
567.52	17050.80
567.68	17390.18
567.85	17132.72
568.01	17231.02
568.17	17198.26
568.34	17315.28
568.50	17455.72
568.66	17191.23
568.83	17404.22
568.99	17106.98
569.15	17273.15
569.32	17280.18
569.48	17268.47
569.64	17547.00
569.81	17165.49
569.97	17373.80
570.13	17249.75
570.30	17387.84
570.46	17291.88
570.62	17245.07
570.78	17280.18
570.95	17504.87
571.11	17486.14
571.27	17249.75
571.43	17179.53
571.60	17378.48
571.76	17305.92
571.92	17142.08
572.09	17352.73
572.25	17202.94
572.41	17425.29
572.57	17355.07
572.74	17448.69
572.90	17280.18
573.06	17399.54
573.22	17441.67
573.38	17312.94
573.55	17657.00
573.71	17451.03
573.87	17364.43
574.03	17289.54
574.20	17153.79
574.36	17041.44
574.52	16901.01
574.68	17444.01
574.84	17310.60
575.01	17614.87
575.17	17490.82
575.33	17436.99
575.49	17216.98
575.65	17376.14
575.82	17694.45
575.98	17619.55
576.14	17387.84
576.30	17561.04
576.46	17586.79
576.62	17425.29
576.79	17713.17
576.95	17371.46
577.11	17572.74
577.27	17469.76
577.43	17336.35
577.59	17790.41
577.75	17036.76
577.92	17387.84
578.08	17631.26
578.24	17233.36
578.40	17605.51
578.56	17645.30
578.72	17399.54
578.88	17661.68
579.04	17659.34
579.21	17362.09
579.37	17607.85
579.53	17699.13
579.69	17345.71
579.85	17305.92
580.01	17202.94
580.17	17509.55
580.33	17472.10
580.49	17427.63
580.65	17446.35
580.82	17343.37
580.98	17432.31
581.14	17572.74
581.30	17558.70
581.46	17493.16
581.62	17504.87
581.78	17303.58
581.94	17205.28
582.10	17329.33
582.26	17308.26
582.42	17549.34
582.58	17331.67
582.74	17738.92
582.90	17397.20
583.06	17359.75
583.22	17612.53
583.38	17259.11
583.54	17511.89
583.70	17256.77
583.86	17975.31
584.02	17462.74
584.18	17504.87
584.34	17350.39
584.50	17329.33
584.66	17357.41
584.82	17397.20
584.98	17369.12
585.14	17490.82
585.30	17444.01
585.46	17048.46
585.62	17624.23
585.78	17238.05
585.94	17282.52
586.10	17425.29
586.26	17930.84
586.42	17593.81
586.58	17614.87
586.74	17563.38
586.90	17385.50
587.06	17715.51
587.22	17624.23
587.38	17523.59
587.54	17488.48
587.70	17900.42
587.86	17561.04
588.02	17563.38
588.18	17455.72
588.34	17657.00
588.49	17287.20
588.65	17418.27
588.81	17734.24
588.97	17502.53
589.13	17518.91
589.29	17444.01
589.45	17436.99
589.61	17570.40
589.77	17678.07
589.93	17493.16
590.08	17525.93
590.24	17743.60
590.40	17879.35
590.56	17465.08
590.72	17507.21
590.88	17348.05
591.04	17785.73
591.20	17474.44
591.35	17598.49
591.51	17699.13
591.67	17717.86
591.83	17799.77
591.99	17668.70
592.15	17930.84
592.31	17741.26
592.46	17593.81
592.62	17575.08
592.78	17518.91
592.94	17921.48
593.10	17451.03
593.26	18118.09
593.41	17675.73
593.57	17315.28
593.73	17369.12
593.89	17647.64
594.05	17408.90
594.20	17322.30
594.36	17420.61
594.52	17467.42
594.68	17589.13
594.84	17408.90
594.99	17455.72
595.15	17757.64
595.31	17645.30
595.47	17614.87
595.62	17401.88
595.78	17462.74
595.94	17202.94
596.10	17261.45
596.25	17474.44
596.41	17268.47
596.57	17359.75
596.73	17511.89
596.88	17474.44
597.04	17518.91
597.20	16980.59
597.36	17488.48
597.51	17879.35
597.67	17156.13
597.83	17523.59
597.99	17624.23
598.14	17535.29
598.30	17825.52
598.46	17561.04
598.61	17774.03
598.77	17628.92
598.93	17586.79
599.09	17528.27
599.24	17523.59
599.40	17689.77
599.56	17624.23
599.71	17561.04
599.87	17745.94
600.03	17469.76
600.18	17689.77
600.34	17631.26
600.50	17509.55
600.65	17565.72
600.81	17621.89
600.97	17731.90
601.12	17872.33
601.28	17642.96
601.44	17366.78
601.59	17703.81
601.75	17490.82
601.91	17558.70
602.06	17357.41
602.22	18019.78
602.37	17472.10
602.53	17612.53
602.69	17596.15
602.84	17427.63
603.00	17554.02
603.16	17500.19
603.31	17357.41
603.47	17458.06
603.62	17441.67
603.78	17671.04
603.94	17387.84
604.09	17322.30
604.25	17420.61
604.40	17319.96
604.56	17476.78
604.71	17268.47
604.87	17301.24
605.03	17638.28
605.18	17678.07
605.34	17336.35
605.49	17348.05
605.65	17436.99
605.80	17408.90
605.96	17495.50
606.12	17556.36
606.27	17687.43
606.43	17614.87
606.58	17572.74
606.74	17563.38
606.89	17315.28
607.05	17254.43
607.20	17062.51
607.36	17275.49
607.51	17207.62
607.67	17263.79
607.82	17200.60
607.98	17355.07
608.13	17326.99
608.29	17481.46
608.44	17392.52
608.60	17413.59
608.75	17603.17
608.91	17502.53
609.06	17200.60
609.22	17453.37
609.37	17226.34
609.53	17149.11
609.68	17490.82
609.84	17446.35
609.99	17933.18
610.15	17429.97
610.30	17717.86
610.46	17820.84
610.61	18108.72
610.76	18143.83
610.92	18363.84
611.07	18551.09
611.23	18604.92
611.38	18714.92
611.54	18504.28
611.69	18515.98
611.84	18298.31
612.00	18132.13
612.15	17802.11
612.31	17769.35
612.46	17757.64
612.62	17699.13
612.77	17455.72
612.92	17404.22
613.08	17345.71
613.23	17235.70
613.39	17591.47
613.54	17364.43
613.69	17355.07
613.85	17315.28
614.00	17310.60
614.15	17434.65
614.31	17514.23
614.46	17647.64
614.62	17387.84
614.77	16973.56
614.92	17247.41
615.08	17263.79
615.23	17067.19
615.38	17125.70
615.54	16772.28
615.69	16922.07
615.84	16851.86
616.00	17144.42
616.15	17153.79
616.30	17074.21
616.46	16865.90
616.61	16814.41
616.76	16905.69
616.92	16744.19
617.07	16901.01
617.22	16568.65
617.37	16641.21
617.53	16596.74
617.68	16512.48
617.83	16599.08
617.99	16802.71
618.14	16924.41
618.29	16807.39
618.45	17029.74
618.60	17095.27
618.75	16807.39
618.90	16671.64
619.06	16854.20
619.21	16582.70
619.36	16482.05
619.51	16613.12
619.67	16620.14
619.82	16486.73
619.97	16594.40
620.12	16606.10
620.28	16585.04
620.43	16542.91
620.58	16755.90
620.73	16636.53
620.89	16552.27
621.04	17064.85
621.19	16423.54
621.34	16762.92
621.49	16484.39
621.65	16641.21
621.80	16776.96
621.95	16456.31
622.10	16762.92
622.25	16458.65
622.41	16479.71
622.56	16273.74
622.71	16411.84
622.86	16402.47
623.01	16381.41
623.16	16374.39
623.32	16297.15
623.47	16182.46
623.62	16416.52
623.77	16135.65
623.92	16334.60
624.07	16360.34
624.23	16414.18
624.38	16673.98
624.53	16519.50
624.68	16278.43
624.83	16320.56
624.98	16388.43
625.13	16126.29
625.29	16109.91
625.44	16255.02
625.59	16023.31
625.74	15932.03
625.89	16191.83
626.04	16163.74
626.19	16084.16
626.34	16123.95
626.49	16180.12
626.65	16147.36
626.80	15796.28
626.95	16009.26
627.10	15597.33
627.25	15978.84
627.40	16259.70
627.55	16173.10
627.70	15899.26
627.85	15990.54
628.00	16137.99
628.15	15990.54
628.30	16053.73
628.45	16030.33
628.60	15974.16
628.76	15829.04
628.91	15850.11
629.06	16091.18
629.21	15976.50
629.36	15723.72
629.51	16030.33
629.66	15917.98
629.81	15868.83
629.96	15845.43
630.11	15754.15
630.26	16123.95
630.41	16044.37
630.56	15946.07
630.71	16189.49
630.86	15644.14
631.01	16023.31
631.16	15784.57
631.31	15854.79
631.46	15501.37
631.61	15941.39
631.76	16079.48
631.91	15651.16
632.06	15854.79
632.21	15477.96
632.36	15602.01
632.51	15527.11
632.66	15681.59
632.81	15548.18
632.96	15782.23
633.10	15456.90
633.25	15417.11
633.40	15417.11
633.55	15697.97
633.70	15494.35
633.85	15421.79
634.00	15662.86
634.15	15515.41
634.30	15587.97
634.45	15470.94
634.60	15543.50
634.75	15534.14
634.90	15470.94
635.05	15358.60
635.19	15440.51
635.34	15756.49
635.49	15309.44
635.64	15035.60
635.79	15363.28
635.94	15194.76
636.09	15330.51
636.24	15035.60
636.39	15264.97
636.53	15623.08
636.68	15351.57
636.83	15424.13
636.98	15229.87
637.13	15255.61
637.28	15229.87
637.43	15002.83
637.57	15314.13
637.72	14911.55
637.87	15353.91
638.02	15138.58
638.17	15019.22
638.32	15028.58
638.46	15037.94
638.61	15131.56
638.76	14967.73
638.91	15396.04
639.06	15396.04
639.20	15288.38
639.35	15215.82
639.50	14991.13
639.65	15059.01
639.80	15068.37
639.94	15222.84
640.09	15140.93
640.24	14841.34
640.39	15321.15
640.54	14857.72
640.68	15059.01
640.83	15014.54
640.98	15119.86
641.13	14785.16
641.27	14956.02
641.42	14913.89
641.57	14759.42
641.72	14932.62
641.86	15000.49
642.01	14867.08
642.16	14946.66
642.31	14892.83
642.45	14927.94
642.60	14981.77
642.75	14686.86
642.90	14956.02
643.04	14930.28
643.19	14860.06
643.34	14703.25
643.48	14738.35
643.63	14822.61
643.78	14839.00
643.93	14483.24
644.07	14593.24
644.22	14260.88
644.37	14396.64
644.51	14703.25
644.66	14677.50
644.81	14684.52
644.95	14609.62
645.10	14693.88
645.25	14626.01
645.39	14778.14
645.54	14724.31
645.69	14700.90
645.83	14719.63
645.98	14778.14
646.13	14665.80
646.27	14661.12
646.42	14745.38
646.57	14593.24
646.71	14466.85
646.86	14841.34
647.00	14576.86
647.15	14504.30
647.30	14530.05
647.44	14724.31
647.59	14831.97
647.74	14600.26
647.88	14546.43
648.03	14391.95
648.17	14588.56
648.32	14207.05
648.47	14342.80
648.61	14136.84
648.76	14228.12
648.90	14602.60
649.05	14478.55
649.20	14553.45
649.34	14710.27
649.49	14356.85
649.63	14485.58
649.78	14279.61
649.92	14513.66
650.07	14728.99
650.21	14333.44
650.36	14415.36
650.51	14251.52
650.65	14490.26
650.80	14221.10
650.94	14520.68
651.09	14485.58
651.23	14394.29
651.38	14277.27
651.52	14188.33
651.67	14375.57
651.81	14377.91
651.96	14471.53
652.10	14188.33
652.25	14029.17
652.39	14169.60
652.54	14377.91
652.68	13802.14
652.83	14174.28
652.97	14164.92
653.12	14270.25
653.26	14073.64
653.41	14223.44
653.55	14094.71
653.70	13933.21
653.84	14298.33
653.99	14122.79
654.13	14143.86
654.27	14083.00
654.42	14040.87
654.56	13923.85
654.71	13965.98
654.85	14106.41
655.00	13933.21
655.14	14108.75
655.29	13790.44
655.43	13837.25
655.57	13881.72
655.72	13891.08
655.86	13715.54
656.01	13914.48
656.15	13853.63
656.30	13980.02
656.44	13900.44
656.58	13916.83
656.73	13834.91
656.87	13942.57
657.01	13996.40
657.16	13879.38
657.30	13724.90
657.45	13914.48
657.59	14017.47
657.73	13678.09
657.88	13785.76
658.02	13928.53
658.16	13750.65
658.31	13612.56
658.45	13853.63
658.60	13745.97
658.74	13600.85
658.88	13722.56
659.03	13736.60
659.17	13514.25
659.31	13741.29
659.46	13586.81
659.60	13729.58
659.74	13532.98
659.89	13523.62
660.03	13366.80
660.17	13544.68
660.32	13528.30
660.46	13570.43
660.60	13497.87
660.74	13444.04
660.89	13610.22
661.03	13202.96
661.17	13123.38
661.32	13378.50
661.46	13554.04
661.60	13249.77
661.74	13331.69
661.89	13397.23
662.03	13315.31
662.17	13385.52
662.31	13231.05
662.46	13366.80
662.60	13371.48
662.74	13263.82
662.88	13352.76
663.03	13186.58
663.17	13289.56
663.31	13266.16
663.45	13343.39
663.60	12919.76
663.74	13090.62
663.88	13186.58
664.02	13001.68
664.17	13177.22
664.31	12744.22
664.45	12737.20
664.59	12936.14
664.73	13123.38
664.88	13055.51
665.02	12945.50
665.16	12903.37
665.30	13074.23
665.44	12751.24
665.59	12926.78
665.73	12931.46
665.87	13015.72
666.01	12641.23
666.15	12681.02
666.29	12840.18
666.44	12779.32
666.58	12458.67
666.72	12507.82
666.86	12734.85
667.00	12793.37
667.14	12723.15
667.28	12554.63
667.43	12666.98
667.57	12748.90
667.71	12435.27
667.85	12318.24
667.99	12381.43
668.13	12437.61
668.27	12294.83
668.41	12437.61
668.56	12243.34
668.70	12358.03
668.84	12439.95
668.98	12444.63
669.12	12327.60
669.26	12332.28
669.40	12416.54
669.54	12278.45
669.68	12365.05
669.82	12166.10
669.96	12411.86
670.10	12304.20
670.25	12262.07
670.39	12046.74
670.53	12084.19
670.67	12233.98
670.81	12465.69
670.95	12257.39
671.09	12030.35
671.23	12109.93
671.37	12189.51
671.51	12074.82
671.65	12063.12
671.79	12168.45
671.93	11889.92
672.07	11997.59
672.21	11784.60
672.35	11796.30
672.49	11829.07
672.63	11765.87
672.77	11672.25
672.91	11934.39
673.05	11749.49
673.19	11613.74
673.33	11587.99
673.47	11793.96
673.61	11414.79
673.75	11587.99
673.89	11461.60
674.03	11370.32
674.17	11433.52
674.31	11733.11
674.45	11894.60
674.59	11747.15
674.73	11449.90
674.87	11414.79
675.01	11262.66
675.15	11459.26
675.29	11286.06
675.43	11386.71
675.56	11330.53
675.70	11410.11
675.84	11295.43
675.98	10939.66
676.12	11243.93
676.26	11087.12
676.40	11180.74
676.54	11234.57
676.68	11016.90
676.82	10951.37
676.96	11009.88
677.10	11049.67
677.23	11049.67
677.37	11234.57
677.51	10911.58
677.65	11143.29
677.79	10621.35
677.93	10565.18
678.07	10560.50
678.21	10633.05
678.34	10644.76
678.48	10628.37
678.62	10686.89
678.76	10579.22
678.90	10455.17
679.04	10525.39
679.18	10183.67
679.31	10340.49
679.45	10331.12
679.59	10600.29
679.73	10562.84
679.87	10441.13
680.00	10303.04
680.14	10253.89
680.28	10092.39
680.42	10101.75
680.56	10083.03
680.70	10050.26
680.83	10024.51
680.97	10010.47
681.11	10328.78
681.25	10108.77
681.39	10036.22
681.52	10284.31
681.66	10157.92
681.80	10132.18
681.94	9940.26
682.07	9916.85
682.21	9973.02
682.35	9832.59
682.49	9968.34
682.62	9837.27
682.76	9708.54
682.90	9745.99
683.04	9638.33
683.17	9699.18
683.31	9713.22
683.45	9401.93
683.59	9584.49
683.72	9549.39
683.86	9680.46
684.00	9310.65
684.13	9537.68
684.27	9589.17
684.41	9394.91
684.55	9455.76
684.68	9329.38
684.82	9315.33
684.96	9373.85
685.09	9165.54
685.23	9408.95
685.37	9514.28
685.50	9305.97
685.64	9217.03
685.78	9078.94
685.91	9205.33
686.05	9355.12
686.19	9039.15
686.32	8821.48
686.46	8887.01
686.60	8952.55
686.73	9104.68
686.87	8926.80
687.01	9036.81
687.14	8872.97
687.28	8821.48
687.42	8762.97
687.55	8697.43
687.69	8870.63
687.82	8681.05
687.96	8615.51
688.10	8720.84
688.23	8842.54
688.37	8557.00
688.50	8746.58
688.64	8858.93
688.78	8521.89
688.91	8479.76
689.05	8634.24
689.18	8444.65
689.32	8547.64
689.46	8435.29
689.59	8472.74
689.73	8409.54
689.86	8198.90
690.00	8126.34
690.13	8248.05
690.27	8241.03
690.41	8187.19
690.54	8116.98
690.68	8116.98
690.81	8133.36
690.95	8023.36
691.08	8180.17
691.22	8028.04
691.35	8056.12
691.49	7885.26
691.62	7887.61
691.76	7960.16
691.89	7843.14
692.03	7882.92
692.16	7831.43
692.30	7765.90
692.43	7796.32
692.57	7604.40
692.70	7686.32
692.84	7728.45
692.97	7625.47
693.11	7555.25
693.24	7627.81
693.38	7555.25
693.51	7625.47
693.65	7646.53
693.78	7566.95
693.92	7461.63
694.05	7473.33
694.19	7431.20
694.32	7433.54
694.45	7562.27
694.59	7370.35
694.72	7370.35
694.86	7162.04
694.99	6874.15
695.13	7178.42
695.26	7110.55
695.39	7152.68
695.53	7162.04
695.66	7162.04
695.80	6911.60
695.93	6885.86
696.07	7000.54
696.20	6890.54
696.33	7007.56
696.47	6977.14
696.60	6803.94
696.73	6888.20
696.87	6794.58
697.00	6799.26
697.14	6935.01
697.27	6743.08
697.40	6766.49
697.54	6661.16
697.67	6668.19
697.80	6740.74
697.94	6560.52
698.07	6682.23
698.21	6670.53
698.34	6506.69
698.47	6553.50
698.61	6509.03
698.74	6424.77
698.87	6331.15
699.01	6406.05
699.14	6394.34
699.27	6333.49
699.40	6417.75
699.54	6494.99
699.67	6347.53
699.80	6429.45
699.94	6190.72
700.07	6211.78
700.20	6223.48
700.34	6265.61
700.47	6186.04
700.60	6153.27
700.73	6092.41
700.87	6195.40
701.00	5996.45
701.13	6045.60
701.26	6073.69
701.40	5968.37
701.53	5982.41
701.66	6008.16
701.79	6031.56
701.93	5975.39
702.06	5865.38
702.19	5832.62
702.32	5757.72
702.46	5724.95
702.59	5867.72
702.72	5666.44
702.85	5769.42
702.99	5577.50
703.12	5734.31
703.25	5628.99
703.38	5598.56
703.51	5717.93
703.65	5626.65
703.78	5755.38
703.91	5638.35
704.04	5727.29
704.17	5603.24
704.31	5572.82
704.44	5423.02
704.57	5455.79
704.70	5357.49
704.83	5458.13
704.96	5280.25
705.10	5404.30
705.23	5270.89
>>>>>End Processed Spectral Data<<<<<
