SpectraSuite Data File
++++++++++++++++++++++++++++++++++++
Date: Thu Oct 24 13:21:18 EDT 2013
User: stostad
Dark Spectrum Present: No
Reference Spectrum Present: No
Number of Sampled Component Spectra: 1
Spectrometers: USB2+H05261
Integration Time (usec): 100000 (USB2+H05261)
Spectra Averaged: 1 (USB2+H05261)
Boxcar Smoothing: 0 (USB2+H05261)
Correct for Electrical Dark: No (USB2+H05261)
Strobe/Lamp Enabled: No (USB2+H05261)
Correct for Detector Non-linearity: No (USB2+H05261)
Correct for Stray Light: No (USB2+H05261)
Number of Pixels in Processed Spectrum: 2048
>>>>>Begin Processed Spectral Data<<<<<
365.73	636.63
365.92	636.63
366.12	636.63
366.32	500.87
366.52	486.83
366.72	514.92
366.91	496.19
367.11	411.93
367.31	510.24
367.51	465.77
367.70	454.06
367.90	461.09
368.10	468.11
368.30	409.59
368.49	454.06
368.69	482.15
368.89	465.77
369.09	533.64
369.28	451.72
369.48	559.39
369.68	505.56
369.87	580.45
370.07	540.66
370.27	592.16
370.47	608.54
370.66	809.83
370.86	849.61
371.06	908.13
371.25	957.28
371.45	929.19
371.65	903.45
371.84	903.45
372.04	929.19
372.24	880.04
372.44	933.87
372.63	1011.11
372.83	954.94
373.03	919.83
373.22	943.24
373.42	961.96
373.62	926.85
373.81	926.85
374.01	943.24
374.21	1050.90
374.40	952.60
374.60	971.32
374.79	947.92
374.99	1036.86
375.19	954.94
375.38	1006.43
375.58	976.00
375.78	1060.26
375.97	1057.92
376.17	1137.50
376.37	1008.77
376.56	961.96
376.76	1053.24
376.95	1006.43
377.15	1036.86
377.35	1011.11
377.54	1109.41
377.74	1046.22
377.93	1118.78
378.13	983.02
378.33	992.39
378.52	1048.56
378.72	1029.84
378.91	976.00
379.11	1018.13
379.31	1100.05
379.50	1039.20
379.70	1069.62
379.89	1118.78
380.09	1095.37
380.28	1048.56
380.48	1029.84
380.68	1057.92
380.87	1036.86
381.07	1125.80
381.26	1090.69
381.46	1121.12
381.65	1128.14
381.85	1074.31
382.04	1167.93
382.24	1081.33
382.43	1093.03
382.63	1118.78
382.83	1205.38
383.02	1217.08
383.22	1086.01
383.41	1109.41
383.61	1151.54
383.80	1163.25
384.00	1231.12
384.19	1226.44
384.39	1158.57
384.58	1245.16
384.78	1249.85
384.97	1114.10
385.17	1198.35
385.36	1193.67
385.56	1167.93
385.75	1139.84
385.95	1179.63
386.14	1284.95
386.34	1296.66
386.53	1242.82
386.72	1282.61
386.92	1289.64
387.11	1294.32
387.31	1273.25
387.50	1299.00
387.70	1291.98
387.89	1343.47
388.09	1259.21
388.28	1331.76
388.48	1291.98
388.67	1252.19
388.86	1270.91
389.06	1256.87
389.25	1273.25
389.45	1317.72
389.64	1420.71
389.84	1378.58
390.03	1378.58
390.22	1390.28
390.42	1366.87
390.61	1348.15
390.81	1387.94
391.00	1334.11
391.19	1406.66
391.39	1404.32
391.58	1390.28
391.78	1385.60
391.97	1462.83
392.16	1486.24
392.36	1511.99
392.55	1479.22
392.75	1558.80
392.94	1413.68
393.13	1500.28
393.33	1481.56
393.52	1453.47
393.71	1558.80
393.91	1516.67
394.10	1448.79
394.29	1528.37
394.49	1483.90
394.68	1490.92
394.88	1521.35
395.07	1586.88
395.26	1554.12
395.46	1493.26
395.65	1565.82
395.84	1621.99
396.04	1561.14
396.23	1579.86
396.42	1631.35
396.62	1610.29
396.81	1706.25
397.00	1586.88
397.19	1636.03
397.39	1607.95
397.58	1657.10
397.77	1776.47
397.97	1638.38
398.16	1593.90
398.35	1671.14
398.55	1692.21
398.74	1813.92
398.93	1872.43
399.12	1809.23
399.32	1706.25
399.51	1764.76
399.70	1785.83
399.90	1673.48
400.09	1783.49
400.28	1785.83
400.47	1900.52
400.67	1959.03
400.86	1893.49
401.05	1928.60
401.24	1877.11
401.44	1879.45
401.63	2012.86
401.82	1940.30
402.01	1956.69
402.21	1973.07
402.40	1905.20
402.59	1933.28
402.78	1952.01
402.97	1991.80
403.17	2024.56
403.36	2087.76
403.55	2029.24
403.74	2097.12
403.93	2069.03
404.13	2120.53
404.32	2139.25
404.51	2127.55
404.70	2106.48
404.89	2069.03
405.09	2202.44
405.28	2118.18
405.47	2127.55
405.66	2129.89
405.85	2235.21
406.05	2108.82
406.24	2188.40
406.43	2326.49
406.62	2300.75
406.81	2380.32
407.00	2230.53
407.20	2216.49
407.39	2314.79
407.58	2314.79
407.77	2352.24
407.96	2394.37
408.15	2326.49
408.34	2342.88
408.54	2497.35
408.73	2377.98
408.92	2413.09
409.11	2502.03
409.30	2455.22
409.49	2523.10
409.68	2534.80
409.87	2562.89
410.07	2593.31
410.26	2572.25
410.45	2469.27
410.64	2562.89
410.83	2670.55
411.02	2485.65
411.21	2640.12
411.40	2647.15
411.59	2764.17
411.78	2705.66
411.98	2810.98
412.17	2799.28
412.36	2708.00
412.55	2726.72
412.74	2857.79
412.93	2792.26
413.12	2885.88
413.31	2909.29
413.50	2855.45
413.69	2958.44
413.88	3105.89
414.07	2977.16
414.26	3054.40
414.45	3052.06
414.64	3068.44
414.83	3070.78
415.02	3035.67
415.22	3155.04
415.41	3227.60
415.60	3225.26
415.79	3173.77
415.98	3169.09
416.17	3304.84
416.36	3185.47
416.55	3159.72
416.74	3358.67
416.93	3351.65
417.12	3346.97
417.31	3407.82
417.50	3454.63
417.69	3510.80
417.88	3452.29
418.07	3492.08
418.26	3517.83
418.45	3543.57
418.64	3681.66
418.83	3595.06
419.02	3592.72
419.21	3681.66
419.39	3590.38
419.58	3566.98
419.77	3634.85
419.96	3691.02
420.15	3740.18
420.34	3585.70
420.53	3691.02
420.72	3765.92
420.91	3899.33
421.10	3775.28
421.29	3854.86
421.48	3691.02
421.67	3927.42
421.86	3847.84
422.05	3889.97
422.24	3871.25
422.43	3950.82
422.61	4074.87
422.80	3969.55
422.99	3866.56
423.18	3957.85
423.37	3901.67
423.56	3913.38
423.75	3871.25
423.94	3857.20
424.13	3595.06
424.32	3906.35
424.50	4002.32
424.69	4147.43
424.88	4018.70
425.07	3922.74
425.26	3824.44
425.45	3997.64
425.64	3857.20
425.83	3882.95
426.01	3925.08
426.20	3946.14
426.39	4035.08
426.58	3997.64
426.77	3999.98
426.96	4107.64
427.15	4159.13
427.33	4084.23
427.52	4107.64
427.71	4187.22
427.90	4081.89
428.09	4147.43
428.28	4325.31
428.46	4124.02
428.65	4191.90
428.84	4344.03
429.03	4304.25
429.22	4243.39
429.40	4290.20
429.59	4334.67
429.78	4168.49
429.97	4325.31
430.16	4259.78
430.34	4491.49
430.53	4411.91
430.72	4507.87
430.91	4449.36
431.10	4442.34
431.28	4533.62
431.47	4528.94
431.66	4514.89
431.85	4533.62
432.03	4601.49
432.22	4507.87
432.41	4526.60
432.60	4617.88
432.79	4594.47
432.97	4748.95
433.16	4767.67
433.35	4615.54
433.54	4669.37
433.72	4690.43
433.91	4744.27
434.10	4798.10
434.28	4774.69
434.47	4826.18
434.66	4800.44
434.85	4870.65
435.03	4992.36
435.22	5090.67
435.41	5387.91
435.59	5291.95
435.78	5226.42
435.97	5198.33
436.16	5174.92
436.34	5053.22
436.53	5172.58
436.72	5153.86
436.90	4863.63
437.09	5144.50
437.28	5179.61
437.46	5067.26
437.65	5135.14
437.84	5214.71
438.02	5282.59
438.21	5153.86
438.40	5191.31
438.58	5451.11
438.77	5371.53
438.96	5357.49
439.14	5467.49
439.33	5483.88
439.52	5483.88
439.70	5504.94
439.89	5650.05
440.08	5563.45
440.26	5657.07
440.45	5708.57
440.63	5689.84
440.82	5823.25
441.01	5795.17
441.19	5856.02
441.38	6003.47
441.57	5919.21
441.75	5949.64
441.94	6118.16
442.12	6094.76
442.31	6223.48
442.50	6164.97
442.68	6080.71
442.87	6167.31
443.05	6258.59
443.24	6296.04
443.43	6356.90
443.61	6211.78
443.80	6448.18
443.98	6090.07
444.17	6085.39
444.35	6286.68
444.54	6417.75
444.73	6305.40
444.91	6260.93
445.10	6291.36
445.28	6408.39
445.47	6342.85
445.65	6314.77
445.84	6424.77
446.02	6377.96
446.21	6384.98
446.39	6392.00
446.58	6431.79
446.77	6539.46
446.95	6291.36
447.14	6312.42
447.32	6773.51
447.51	6558.18
447.69	6558.18
447.88	6574.56
448.06	6431.79
448.25	6523.07
448.43	6476.26
448.62	6581.59
448.80	6448.18
448.99	6707.98
449.17	6661.16
449.36	6574.56
449.54	6768.83
449.73	6743.08
449.91	7054.37
450.10	6890.54
450.28	6906.92
450.46	6796.92
450.65	6757.13
450.83	6839.05
451.02	6829.68
451.20	7026.29
451.39	6754.79
451.57	7063.74
451.76	6841.39
451.94	6967.77
452.13	7021.61
452.31	6920.96
452.49	6885.86
452.68	7045.01
452.86	7117.57
453.05	7140.97
453.23	7133.95
453.42	6930.33
453.60	6855.43
453.78	7213.53
453.97	7164.38
454.15	7098.84
454.34	7164.38
454.52	7279.07
454.70	7274.38
454.89	7398.43
455.07	7454.61
455.26	7466.31
455.44	7569.29
455.62	7466.31
455.81	7318.86
455.99	7487.37
456.17	7520.14
456.36	7531.84
456.54	7796.32
456.73	7583.34
456.91	8016.33
457.09	7702.70
457.28	7829.09
457.46	7733.13
457.64	7758.88
457.83	7929.74
458.01	7871.22
458.19	8093.57
458.38	7861.86
458.56	7981.23
458.74	8131.02
458.93	8011.65
459.11	8028.04
459.29	8013.99
459.48	8030.38
459.66	8013.99
459.84	8175.49
460.03	8243.37
460.21	8344.01
460.39	8353.37
460.57	8348.69
460.76	8358.05
460.94	8456.36
461.12	8367.42
461.31	8231.66
461.49	8152.09
461.67	8456.36
461.85	8524.23
462.04	8461.04
462.22	8819.14
462.40	8615.51
462.59	8603.81
462.77	8575.72
462.95	8505.51
463.13	8702.11
463.32	8645.94
463.50	8788.71
463.68	8788.71
463.86	8805.10
464.05	8798.07
464.23	8634.24
464.41	8648.28
464.59	8737.22
464.78	8896.38
464.96	8961.91
465.14	8915.10
465.32	8987.66
465.50	8985.32
465.69	8872.97
465.87	9041.49
466.05	8994.68
466.23	9107.02
466.41	9039.15
466.60	9177.24
466.78	8807.44
466.96	8994.68
467.14	8954.89
467.32	9088.30
467.51	9287.25
467.69	8933.82
467.87	9334.06
468.05	9334.06
468.23	9132.77
468.41	9383.21
468.60	9336.40
468.78	9334.06
468.96	9369.16
469.14	9327.03
469.32	9483.85
469.50	9427.68
469.69	9369.16
469.87	9575.13
470.05	9830.25
470.23	9605.56
470.41	9764.72
470.59	9743.65
470.77	9790.46
470.95	9750.67
471.14	9982.38
471.32	9891.10
471.50	9827.91
471.68	9853.66
471.86	10171.97
472.04	10057.28
472.22	10209.42
472.40	10193.03
472.58	10040.90
472.77	10256.23
472.95	10321.76
473.13	10750.08
473.31	10183.67
473.49	10616.67
473.67	10399.00
473.85	10565.18
474.03	10649.44
474.21	10663.48
474.39	10778.17
474.57	10677.52
474.75	10878.81
474.93	10843.70
475.12	10909.24
475.30	11180.74
475.48	10881.15
475.66	11173.72
475.84	11054.35
476.02	11105.84
476.20	11108.18
476.38	11344.58
476.56	11653.53
476.74	11595.01
476.92	11632.46
477.10	11482.67
477.28	11782.26
477.46	11674.59
477.64	11698.00
477.82	11983.54
478.00	12238.66
478.18	12067.80
478.36	12311.22
478.54	12472.71
478.72	12327.60
478.90	12453.99
479.08	12262.07
479.26	12755.92
479.44	12919.76
479.62	12947.84
479.80	13083.59
479.98	13095.30
480.16	13589.15
480.34	13205.30
480.52	13385.52
480.70	13298.92
480.88	13364.46
481.06	13495.53
481.24	13661.71
481.41	13713.20
481.59	14127.47
481.77	13951.93
481.95	13984.70
482.13	14525.36
482.31	14366.21
482.49	14672.82
482.67	14668.14
482.85	14658.78
483.03	14927.94
483.21	15021.56
483.39	15201.78
483.57	15283.70
483.74	15279.02
483.92	15438.17
484.10	15269.66
484.28	15791.59
484.46	15761.17
484.64	16257.36
484.82	15910.96
485.00	15999.90
485.18	16191.83
485.35	16755.90
485.53	16329.92
485.71	16657.59
485.89	16940.80
486.07	16814.41
486.25	17099.95
486.43	17195.92
486.61	17216.98
486.78	17221.66
486.96	17415.93
487.14	17869.99
487.32	17715.51
487.50	17860.63
487.68	17935.53
487.85	18115.75
488.03	18511.30
488.21	18675.13
488.39	18387.25
488.57	18855.36
488.75	18534.70
488.92	18810.89
489.10	19082.39
489.28	19208.78
489.46	19522.41
489.64	19204.10
489.81	19562.20
489.99	19829.02
490.17	19632.41
490.35	19971.79
490.53	20152.01
490.70	20500.75
490.88	20386.07
491.06	20870.56
491.24	20730.12
491.41	20816.72
491.59	21273.13
491.77	20830.77
491.95	21376.11
492.13	21458.03
492.30	21298.88
492.48	21137.38
492.66	21713.15
492.84	21963.59
493.01	21516.54
493.19	22181.26
493.37	22321.69
493.54	22394.25
493.72	22380.20
493.90	22246.79
494.08	22637.66
494.25	22843.63
494.43	22651.70
494.61	23220.45
494.79	22988.74
494.96	22998.10
495.14	23372.59
495.32	23742.39
495.49	23775.16
495.67	23960.06
495.85	23992.83
496.02	23997.51
496.20	24325.19
496.38	24095.82
496.55	24201.14
496.73	24631.80
496.91	24669.25
497.09	24790.95
497.26	25116.29
497.44	24847.13
497.62	25137.35
497.79	25612.48
497.97	25390.13
498.14	25352.68
498.32	25855.90
498.50	25895.69
498.67	26377.84
498.85	25713.13
499.03	26120.38
499.20	25942.50
499.38	26335.71
499.56	26253.79
499.73	26621.25
499.91	26487.84
500.08	26560.40
500.26	26429.33
500.44	26939.57
500.61	27023.83
500.79	26822.54
500.97	27030.85
501.14	27515.34
501.32	27662.79
501.49	27461.51
501.67	27686.20
501.84	27833.65
502.02	28044.30
502.20	28299.42
502.37	27824.29
502.55	27676.83
502.72	28079.41
502.90	27946.00
503.07	28112.17
503.25	28353.25
503.43	28240.90
503.60	28835.40
503.78	28795.61
503.95	28271.33
504.13	28528.79
504.30	28718.37
504.48	28788.59
504.65	29195.84
504.83	29525.86
505.01	29390.11
505.18	29635.86
505.36	29469.69
505.53	29675.65
505.71	29392.45
505.88	29694.38
506.06	29565.65
506.23	30103.97
506.41	29694.38
506.58	29750.55
506.76	30293.55
506.93	30089.93
507.11	29972.90
507.28	30562.72
507.46	30906.77
507.63	30686.76
507.81	30787.41
507.98	30340.36
508.16	30431.65
508.33	30925.50
508.50	31208.70
508.68	31613.62
508.85	31461.48
509.03	31082.31
509.20	31166.57
509.38	31384.24
509.55	31611.28
509.73	32006.83
509.90	31573.83
510.08	31835.97
510.25	31922.57
510.42	31878.10
510.60	32425.78
510.77	32362.59
510.95	32425.78
511.12	32187.05
511.30	32257.26
511.47	32954.74
511.64	32725.37
511.82	33111.56
511.99	32769.84
512.17	32648.13
512.34	32561.53
512.51	33558.60
512.69	33579.67
512.86	33507.11
513.04	33619.46
513.21	33497.75
513.38	33628.82
513.56	33453.28
513.73	33600.73
513.90	33809.04
514.08	33813.72
514.25	34295.87
514.43	34117.99
514.60	34075.86
514.77	34073.52
514.95	34227.99
515.12	33986.92
515.29	33954.15
515.47	34349.70
515.64	35021.44
515.81	34455.03
515.99	34719.51
516.16	34871.64
516.33	34733.55
516.51	35374.86
516.68	34660.99
516.85	35227.40
517.03	35262.51
517.20	35175.91
517.37	35618.27
517.54	35285.92
517.72	35402.94
517.89	35005.05
518.06	35435.71
518.24	36123.83
518.41	36051.27
518.58	36077.02
518.75	35896.80
518.93	35810.20
519.10	35569.12
519.27	36510.02
519.45	35761.05
519.62	36079.36
519.79	36498.31
519.96	36545.12
520.14	36767.48
520.31	35978.72
520.48	36662.15
520.65	36678.54
520.83	36900.89
521.00	36992.17
521.17	36657.47
521.34	36961.74
521.52	36650.45
521.69	36889.18
521.86	37254.31
522.03	37181.75
522.20	37483.68
522.38	37600.71
522.55	37977.53
522.72	37710.71
522.89	37832.42
523.07	37965.83
523.24	37717.73
523.41	37605.39
523.58	37832.42
523.75	38134.35
523.92	38010.30
524.10	38260.74
524.27	38162.43
524.44	38447.98
524.61	38476.07
524.78	38583.73
524.96	38117.96
525.13	38611.82
525.30	39442.71
525.47	38602.46
525.64	38562.67
525.81	39058.86
525.98	39278.87
526.16	38941.83
526.33	38742.89
526.50	39166.52
526.67	39136.10
526.84	39824.22
527.01	39285.89
527.18	39414.62
527.36	39810.17
527.53	39494.20
527.70	39901.45
527.87	39718.89
528.04	39672.08
528.21	40533.40
528.38	40184.66
528.55	40388.28
528.72	39775.06
528.89	39842.94
529.07	40259.55
529.24	39906.13
529.41	40142.53
529.58	40397.65
529.75	40467.86
529.92	40662.13
530.09	39824.22
530.26	40037.20
530.43	40205.72
530.60	40254.87
530.77	40280.62
530.94	40842.35
531.11	40620.00
531.28	40952.35
531.46	40950.01
531.63	41378.33
531.80	40982.78
531.97	41069.38
532.14	41219.17
532.31	40933.63
532.48	41097.47
532.65	41071.72
532.82	41347.90
532.99	41291.73
533.16	41507.06
533.33	41329.18
533.50	41841.76
533.67	41333.86
533.84	41361.95
534.01	41614.72
534.18	41825.37
534.35	42469.02
534.52	41926.02
534.69	41949.42
534.86	41853.46
535.03	42298.16
535.20	42124.96
535.37	42241.99
535.54	42759.25
535.71	42274.76
535.88	42515.83
536.05	42040.70
536.22	42731.16
536.38	42354.33
536.55	43028.41
536.72	42590.73
536.89	43075.22
537.06	42775.63
537.23	42848.19
537.40	43084.58
537.57	42890.32
537.74	43063.52
537.91	42944.15
538.08	42859.89
538.25	43030.75
538.42	43131.39
538.59	43576.09
538.75	42932.45
538.92	43225.01
539.09	43613.54
539.26	43082.24
539.43	43098.62
539.60	43716.53
539.77	43325.66
539.94	44196.34
540.11	43913.13
540.28	43924.83
540.44	44184.63
540.61	43791.42
540.78	43454.39
540.95	43658.01
541.12	43913.13
541.29	43920.15
541.46	44603.59
541.62	44311.02
541.79	44849.35
541.96	44617.63
542.13	44257.19
542.30	44467.84
542.47	44575.50
542.63	44390.60
542.80	44596.57
542.97	45127.87
543.14	45436.82
543.31	45404.05
543.48	44945.31
543.64	45261.28
543.81	45275.32
543.98	45151.27
544.15	45368.94
544.32	45277.66
544.48	45729.39
544.65	45525.76
544.82	45282.34
544.99	45315.11
545.16	45509.38
545.32	45467.25
545.49	45844.07
545.66	46375.37
545.83	46452.61
546.00	46333.24
546.16	46190.47
546.33	46075.79
546.50	45846.41
546.67	46150.68
546.83	45642.79
547.00	45996.21
547.17	45483.63
547.34	46094.51
547.50	46127.28
547.67	46466.66
547.84	46330.90
548.00	46719.43
548.17	46677.30
548.34	45755.13
548.51	46483.04
548.67	46394.10
548.84	46040.68
549.01	46459.63
549.18	46003.23
549.34	46667.94
549.51	46560.28
549.68	46593.04
549.84	46646.88
550.01	46560.28
550.18	46337.93
550.34	46293.46
550.51	46176.43
550.68	46658.58
550.84	46541.55
551.01	46658.58
551.18	46637.51
551.34	46422.19
551.51	46586.02
551.68	46759.22
551.84	46724.11
552.01	46717.09
552.18	46562.62
552.34	47185.20
552.51	47086.90
552.68	47285.84
552.84	47227.33
553.01	47480.11
553.18	47152.43
553.34	47318.61
553.51	47267.12
553.67	47124.35
553.84	47306.91
554.01	47767.99
554.17	47250.74
554.34	47487.13
554.51	47351.38
554.67	47494.15
554.84	47777.36
555.00	47203.92
555.17	47428.62
555.33	47863.96
555.50	47477.77
555.67	47592.45
555.83	47716.50
556.00	47580.75
556.16	47945.87
556.33	47782.04
556.50	47559.69
556.66	48009.07
556.83	47370.10
556.99	48090.99
557.16	47924.81
557.32	48154.18
557.49	48282.91
557.65	48006.73
557.82	48095.67
557.98	47807.78
558.15	47885.02
558.32	48371.85
558.48	47915.45
558.65	48437.39
558.81	48020.77
558.98	48460.79
559.14	48229.08
559.31	48629.31
559.47	48189.29
559.64	48285.25
559.80	48343.77
559.97	47971.62
560.13	48205.67
560.30	47845.23
560.46	48350.79
560.63	48428.02
560.79	49003.80
560.96	48711.23
561.12	48617.61
561.29	48385.89
561.45	48699.53
561.61	49038.90
561.78	48633.99
561.94	48589.52
562.11	48809.53
562.27	49015.50
562.44	49048.27
562.60	49034.22
562.77	48751.02
562.93	48456.11
563.10	49104.44
563.26	48713.57
563.42	48968.69
563.59	48568.46
563.75	48872.73
563.92	49041.24
564.08	48938.26
564.24	49095.08
564.41	48956.99
564.57	48690.16
564.74	48629.31
564.90	49301.04
565.07	49141.89
565.23	48797.83
565.39	49331.47
565.56	49762.13
565.72	49177.00
565.88	49144.23
566.05	49102.10
566.21	48720.59
566.38	49137.21
566.54	49123.16
566.70	49130.19
566.87	49771.49
567.03	48971.03
567.19	49621.70
567.36	49893.20
567.52	48938.26
567.68	49563.18
567.85	49394.67
568.01	49394.67
568.17	49378.28
568.34	49052.95
568.50	49401.69
568.66	49593.61
568.83	49645.10
568.99	49319.77
569.15	49263.60
569.32	49673.19
569.48	48914.86
569.64	49448.50
569.81	49048.27
569.97	49212.10
570.13	49563.18
570.30	49696.59
570.46	49485.95
570.62	49191.04
570.78	49277.64
570.95	49312.75
571.11	49666.17
571.27	49352.54
571.43	49499.99
571.60	49617.02
571.76	49525.74
571.92	49628.72
572.09	49380.62
572.25	49925.97
572.41	49621.70
572.57	50005.55
572.74	49916.61
572.90	49996.18
573.06	49626.38
573.22	49588.93
573.38	49815.96
573.55	49181.68
573.71	49617.02
573.87	49638.08
574.03	49467.22
574.20	49792.56
574.36	49698.94
574.52	49808.94
574.68	49605.31
574.84	50012.57
575.01	50003.20
575.17	50206.83
575.33	49649.78
575.49	49743.41
575.65	49989.16
575.82	49982.14
575.98	49928.31
576.14	50188.11
576.30	49961.08
576.46	49860.43
576.62	49591.27
576.79	49827.66
576.95	49504.67
577.11	50064.06
577.27	49940.01
577.43	50127.25
577.59	50382.37
577.75	49984.48
577.92	49818.30
578.08	49909.58
578.24	50033.63
578.40	49806.60
578.56	50127.25
578.72	49982.14
578.88	50305.13
579.04	50492.38
579.21	49975.12
579.37	50508.76
579.53	50475.99
579.69	49773.83
579.85	50171.72
580.01	49787.88
580.17	50096.83
580.33	50066.40
580.49	50033.63
580.65	50394.07
580.82	50452.59
580.98	50143.64
581.14	50068.74
581.30	50501.74
581.46	49965.76
581.62	50028.95
581.78	50085.12
581.94	50138.96
582.10	49956.39
582.26	50171.72
582.42	50050.02
582.58	50190.45
582.74	50073.42
582.90	50206.83
583.06	50504.08
583.22	49776.17
583.38	49874.48
583.54	50117.89
583.70	50143.64
583.86	50431.52
584.02	50096.83
584.18	50291.09
584.34	50232.58
584.50	50232.58
584.66	50298.11
584.82	50167.04
584.98	50157.68
585.14	50089.80
585.30	49923.63
585.46	50260.66
585.62	49982.14
585.78	50600.04
585.94	50085.12
586.10	50475.99
586.26	50473.65
586.42	50714.73
586.58	50501.74
586.74	49698.94
586.90	50468.97
587.06	50417.48
587.22	50600.04
587.38	50225.56
587.54	50714.73
587.70	50824.73
587.86	50555.57
588.02	50679.62
588.18	50733.45
588.34	50649.19
588.49	50740.47
588.65	50405.78
588.81	50291.09
588.97	50988.57
589.13	50337.90
589.29	50574.30
589.45	50850.48
589.61	50890.27
589.77	50726.43
589.93	50696.00
590.08	50632.81
590.24	50672.60
590.40	50759.20
590.56	50946.44
590.72	50717.07
590.88	50562.59
591.04	50578.98
591.20	50941.76
591.35	50756.86
591.51	51793.71
591.67	51105.60
591.83	51260.07
591.99	51107.94
592.15	50791.97
592.31	50756.86
592.46	51016.66
592.62	50803.67
592.78	50693.66
592.94	50801.33
593.10	51077.51
593.26	51140.71
593.41	51341.99
593.57	50878.57
593.73	50817.71
593.89	51007.29
594.05	51105.60
594.20	50473.65
594.36	50679.62
594.52	50602.38
594.68	50667.92
594.84	50501.74
594.99	51365.40
595.15	51033.04
595.31	50932.40
595.47	50955.80
595.62	51019.00
595.78	50588.34
595.94	50447.91
596.10	50628.13
596.25	50904.31
596.41	50586.00
596.57	50775.58
596.73	51117.30
596.88	50642.17
597.04	50845.80
597.20	51192.20
597.36	50946.44
597.51	50911.33
597.67	50806.01
597.83	50644.51
597.99	50667.92
598.14	50880.91
598.30	50979.21
598.46	50972.19
598.61	51014.32
598.77	50827.07
598.93	50911.33
599.09	50986.23
599.24	51271.78
599.40	51440.29
599.56	51147.73
599.71	51114.96
599.87	51681.37
600.03	51386.46
600.18	51180.49
600.34	51028.36
600.50	50937.08
600.65	50770.90
600.81	51370.08
600.97	51320.93
601.12	51161.77
601.28	51437.95
601.44	50923.04
601.59	50927.72
601.75	50880.91
601.91	51260.07
602.06	50735.79
602.22	50981.55
602.37	50813.03
602.53	51189.86
602.69	51398.16
602.84	51161.77
603.00	50948.78
603.16	51180.49
603.31	50979.21
603.47	50932.40
603.62	50932.40
603.78	50969.85
603.94	50911.33
604.09	50897.29
604.25	50916.01
604.40	50932.40
604.56	51112.62
604.71	51107.94
604.87	51391.14
605.03	50787.28
605.18	50497.06
605.34	51157.09
605.49	50691.32
605.65	50955.80
605.80	50876.22
605.96	51494.13
606.12	51271.78
606.27	51540.94
606.43	51622.86
606.58	51398.16
606.74	51538.60
606.89	50890.27
607.05	51147.73
607.20	50911.33
607.36	50850.48
607.51	50642.17
607.67	51187.52
607.82	50822.39
607.98	51072.83
608.13	50939.42
608.29	51068.15
608.44	50745.15
608.60	50782.60
608.75	50843.46
608.91	50981.55
609.06	50768.56
609.22	50904.31
609.37	50609.40
609.53	50768.56
609.68	50684.30
609.84	50721.75
609.99	50948.78
610.15	50576.64
610.30	50883.25
610.46	51178.15
610.61	51646.26
610.76	51496.47
610.92	51019.00
611.07	51372.42
611.23	51208.58
611.38	51547.96
611.54	51414.55
611.69	51529.23
611.84	51386.46
612.00	51096.24
612.15	51334.97
612.31	51702.43
612.46	51267.09
612.62	50894.95
612.77	50763.88
612.92	51079.85
613.08	50705.37
613.23	50625.79
613.39	50586.00
613.54	50717.07
613.69	51044.74
613.85	50920.70
614.00	50450.25
614.15	51124.32
614.31	50836.44
614.46	50815.37
614.62	50625.79
614.77	50955.80
614.92	50698.34
615.08	50583.66
615.23	50672.60
615.38	50522.80
615.54	50384.71
615.69	50658.56
615.84	50293.43
616.00	50745.15
616.15	50307.47
616.30	50244.28
616.46	50286.41
616.61	50176.40
616.76	50148.32
616.92	49804.26
617.07	50506.42
617.22	49869.79
617.37	49680.21
617.53	50405.78
617.68	50117.89
617.83	50302.79
617.99	50021.93
618.14	50534.51
618.29	50216.19
618.45	50010.23
618.60	50026.61
618.75	50021.93
618.90	49570.21
619.06	49214.44
619.21	49378.28
619.36	49773.83
619.51	49881.50
619.67	49247.21
619.82	49394.67
619.97	49874.48
620.12	50277.05
620.28	50066.40
620.43	50218.53
620.58	49808.94
620.73	49764.47
620.89	49645.10
621.04	49951.71
621.19	49570.21
621.34	50028.95
621.49	49446.16
621.65	49544.46
621.80	49881.50
621.95	49649.78
622.10	49965.76
622.25	49570.21
622.41	49251.89
622.56	49577.23
622.71	49570.21
622.86	49563.18
623.01	49247.21
623.16	49303.38
623.32	48870.39
623.47	49146.57
623.62	49385.30
623.77	49333.81
623.92	49315.09
624.07	49610.00
624.23	49717.66
624.38	49563.18
624.53	49429.77
624.68	49382.96
624.83	49698.94
624.98	49198.06
625.13	48886.77
625.29	49141.89
625.44	49263.60
625.59	48961.67
625.74	49148.91
625.89	49048.27
626.04	48701.87
626.19	49123.16
626.34	48641.01
626.49	48828.26
626.65	48751.02
626.80	49031.88
626.95	48402.28
627.10	48507.60
627.25	48748.68
627.40	48266.53
627.55	48261.85
627.70	48360.15
627.85	48596.54
628.00	48786.13
628.15	48643.35
628.30	48545.05
628.45	48500.58
628.60	48605.91
628.76	48383.55
628.91	48587.18
629.06	48268.87
629.21	48280.57
629.36	47800.76
629.51	48453.77
629.66	48491.22
629.81	48299.30
629.96	48336.74
630.11	48566.12
630.26	48264.19
630.41	48575.48
630.56	48329.72
630.71	48051.20
630.86	48533.35
631.01	48397.60
631.16	48432.71
631.31	48119.07
631.46	48065.24
631.61	48027.79
631.76	48481.86
631.91	48158.86
632.06	47941.19
632.21	47674.37
632.36	48261.85
632.51	47590.11
632.66	48215.04
632.81	47728.20
632.96	47943.53
633.10	48060.56
633.25	47547.98
633.40	48060.56
633.55	48027.79
633.70	47892.04
633.85	47419.25
634.00	47952.90
634.15	47512.88
634.30	47683.73
634.45	47473.09
634.60	47405.21
634.75	47599.47
634.90	47650.97
635.05	47737.57
635.19	47388.83
635.34	47271.80
635.49	47519.90
635.64	47346.70
635.79	47114.98
635.94	47349.04
636.09	47543.30
636.24	47339.68
636.39	47646.29
636.53	47384.15
636.68	46967.53
636.83	47012.00
636.98	47250.74
637.13	47189.88
637.28	46976.89
637.43	46958.17
637.57	46927.74
637.72	46852.84
637.87	46555.60
638.02	46864.55
638.17	47077.54
638.32	46897.31
638.46	46506.44
638.61	46562.62
638.76	46862.21
638.91	47117.32
639.06	47042.43
639.20	47112.64
639.35	47320.95
639.50	46431.55
639.65	46880.93
639.80	47112.64
639.94	46401.12
640.09	46314.52
640.24	46146.00
640.39	46672.62
640.54	46731.14
640.68	46724.11
640.83	46560.28
640.98	46274.73
641.13	46003.23
641.27	46337.93
641.42	46227.92
641.57	46466.66
641.72	46209.20
641.86	46094.51
642.01	45764.49
642.16	45933.01
642.31	45818.33
642.45	46740.50
642.60	46012.59
642.75	46021.95
642.90	46410.48
643.04	46045.36
643.19	46005.57
643.34	46295.80
643.48	46412.82
643.63	46131.96
643.78	45783.22
643.93	45654.49
644.07	45839.39
644.22	45677.90
644.37	45841.73
644.51	45418.10
644.66	45605.34
644.81	45715.34
644.95	46143.66
645.10	45944.72
645.25	45837.05
645.39	46162.39
645.54	46108.55
645.69	46295.80
645.83	46012.59
645.98	45544.48
646.13	45172.34
646.27	45750.45
646.42	45598.32
646.57	45696.62
646.71	45450.86
646.86	45656.83
647.00	45570.23
647.15	45654.49
647.30	46064.08
647.44	45385.33
647.59	45617.04
647.74	45200.43
647.88	45617.04
648.03	45275.32
648.17	45214.47
648.32	45041.27
648.47	44942.97
648.61	45048.29
648.76	45123.19
648.90	45001.48
649.05	45036.59
649.20	45221.49
649.34	45614.70
649.49	45965.78
649.63	45125.53
649.78	45301.07
649.92	45230.85
650.07	45523.42
650.21	45289.37
650.36	45186.38
650.51	45184.04
650.65	45144.25
650.80	45191.06
650.94	44788.49
651.09	44776.79
651.23	44755.72
651.38	45146.59
651.52	44954.67
651.67	44856.37
651.81	44669.12
651.96	44821.26
652.10	45319.79
652.25	44704.23
652.39	44626.99
652.54	44439.75
652.68	44275.91
652.83	44257.19
652.97	44121.44
653.12	44367.20
653.26	44144.84
653.41	44919.56
653.55	44584.86
653.70	44528.69
653.84	44699.55
653.99	44626.99
654.13	43945.90
654.27	44414.01
654.42	44439.75
654.56	44098.03
654.71	44364.85
654.85	44219.74
655.00	44175.27
655.14	43674.40
655.29	43838.23
655.43	44308.68
655.57	43737.59
655.72	43789.08
655.86	44287.62
656.01	44259.53
656.15	43777.38
656.30	44315.70
656.44	44140.16
656.58	44163.57
656.73	43789.08
656.87	44493.58
657.01	43655.67
657.16	44133.14
657.30	43372.47
657.45	43510.56
657.59	43398.21
657.73	43548.01
657.88	43262.46
658.02	43372.47
658.16	44126.12
658.31	43819.51
658.45	44128.46
658.60	43761.00
658.74	43674.40
658.88	43737.59
659.03	43215.65
659.17	42895.00
659.31	42560.30
659.46	42569.66
659.60	42597.75
659.74	42979.26
659.89	42988.62
660.03	42597.75
660.17	42876.27
660.32	42487.74
660.46	42616.47
660.60	42579.03
660.74	42831.80
660.89	42564.98
661.03	42157.73
661.17	42464.34
661.32	42326.25
661.46	42464.34
661.60	42178.79
661.74	42368.38
661.89	42377.74
662.03	42436.25
662.17	42087.51
662.31	42256.03
662.46	42117.94
662.60	42057.09
662.74	42052.41
662.88	41486.00
663.03	41944.74
663.17	42232.63
663.31	41827.71
663.45	42408.17
663.60	41556.21
663.74	41656.85
663.88	41532.81
664.02	41397.06
664.17	41436.84
664.31	40755.75
664.45	41170.02
664.59	41439.18
664.73	41516.42
664.88	41165.34
665.02	41153.64
665.16	41420.46
665.30	41130.23
665.44	41001.50
665.59	40711.28
665.73	40870.43
665.87	40694.89
666.01	40542.76
666.15	40680.85
666.29	40655.11
666.44	40858.73
666.58	40318.07
666.72	40172.96
666.86	40474.88
667.00	40561.48
667.14	40275.94
667.28	40172.96
667.43	40568.51
667.57	40645.74
667.71	40304.02
667.85	40369.56
667.99	40212.74
668.13	40030.18
668.27	39709.53
668.41	40072.31
668.56	39702.51
668.70	40098.06
668.84	39370.15
668.98	39075.24
669.12	39115.03
669.26	39414.62
669.40	39068.22
669.54	39594.84
669.68	39374.83
669.82	39407.60
669.96	39566.76
670.10	39473.13
670.25	39309.30
670.39	38829.49
670.53	38703.10
670.67	39166.52
670.81	39182.91
670.95	38625.86
671.09	38829.49
671.23	38249.03
671.37	38532.24
671.51	38852.89
671.65	38595.43
671.79	38478.41
671.93	38916.09
672.07	38859.91
672.21	38457.34
672.35	38302.87
672.49	38139.03
672.63	38302.87
672.77	37806.67
672.91	38134.35
673.05	37401.76
673.19	37837.10
673.33	37188.77
673.47	37799.65
673.61	37457.93
673.75	37862.85
673.89	37102.17
674.03	38029.02
674.17	37205.16
674.31	37743.48
674.45	37338.57
674.59	37399.42
674.73	37481.34
674.87	36893.86
675.01	36430.44
675.15	36643.43
675.29	36884.50
675.43	36851.73
675.56	36404.69
675.70	36397.67
675.84	36390.65
675.98	35012.07
676.12	35896.80
676.26	36378.95
676.40	36161.28
676.54	36425.76
676.68	36182.34
676.82	35082.29
676.96	36002.12
677.10	36247.88
677.23	35459.12
677.37	35747.00
677.51	35475.50
677.65	35323.36
677.79	34747.59
677.93	34799.08
678.07	34878.66
678.21	34574.39
678.34	34574.39
678.48	34693.76
678.62	34195.23
678.76	34022.03
678.90	34204.59
679.04	34742.91
679.18	34223.31
679.31	33844.15
679.45	34040.75
679.59	34249.06
679.73	33930.75
679.87	33598.39
680.00	33399.44
680.14	33160.71
680.28	33385.40
680.42	33069.43
680.56	33553.92
680.70	32755.80
680.83	32435.14
680.97	32828.35
681.11	33041.34
681.25	32144.92
681.39	32781.54
681.52	32308.76
681.66	32341.52
681.80	32074.70
681.94	32128.53
682.07	32474.93
682.21	32121.51
682.35	32201.09
682.49	32002.14
682.62	31983.42
682.76	32067.68
682.90	31955.33
683.04	31819.58
683.17	31330.41
683.31	31484.89
683.45	31180.62
683.59	31000.40
683.72	31171.25
683.86	31208.70
684.00	30974.65
684.13	30689.10
684.27	30455.05
684.41	30909.11
684.55	30277.17
684.68	30483.14
684.82	30258.45
684.96	30136.74
685.09	30338.02
685.23	30274.83
685.37	30171.85
685.50	30073.54
685.64	29888.64
685.78	29336.27
685.91	29596.07
686.05	30101.63
686.19	29053.07
686.32	29509.47
686.46	29041.37
686.60	29394.79
686.73	29455.64
686.87	29266.06
687.01	29142.01
687.14	28950.09
687.28	28989.88
687.42	29071.79
687.55	28521.77
687.69	28826.04
687.82	28465.60
687.96	28657.52
688.10	28278.35
688.23	28273.67
688.37	27978.76
688.50	27835.99
688.64	28025.57
688.78	28100.47
688.91	27847.69
689.05	27697.90
689.18	27527.04
689.32	26801.47
689.46	27377.25
689.59	27285.97
689.73	27351.50
689.86	26810.84
690.00	26972.33
690.13	26775.73
690.27	26434.01
690.41	26923.18
690.54	26195.28
690.68	26359.11
690.81	26235.06
690.95	26536.99
691.08	26235.06
691.22	26183.57
691.35	25935.48
691.49	26359.11
691.62	25958.88
691.76	25809.09
691.89	25977.61
692.03	26103.99
692.16	25631.21
692.30	25212.25
692.43	25200.55
692.57	25277.79
692.70	25371.41
692.84	25336.30
692.97	25029.69
693.11	24638.82
693.24	24278.38
693.38	24503.07
693.51	24533.50
693.65	24692.65
693.78	24840.11
693.92	24830.74
694.05	24470.30
694.19	23903.89
694.32	24273.70
694.45	23981.13
694.59	24044.32
694.72	24278.38
694.86	23396.00
694.99	23171.30
695.13	23117.47
695.26	23264.92
695.39	23007.47
695.53	23281.31
695.66	23159.60
695.80	23016.83
695.93	22848.31
696.07	23014.49
696.20	22815.54
696.33	22675.11
696.47	22735.96
696.60	22815.54
696.73	22424.67
696.87	22401.27
697.00	22195.30
697.14	22291.26
697.27	21942.52
697.40	21682.72
697.54	21919.12
697.67	21404.20
697.80	21383.13
697.94	21294.19
698.07	21090.57
698.21	21462.71
698.34	21317.60
698.47	21113.97
698.61	21008.65
698.74	21132.70
698.87	21401.86
699.01	21142.06
699.14	20828.43
699.27	20802.68
699.40	21160.78
699.54	21097.59
699.67	20816.72
699.80	20446.92
699.94	20201.16
700.07	20196.48
700.20	19824.34
700.34	19513.05
700.47	19791.57
700.60	19807.95
700.73	20102.86
700.87	19510.71
701.00	19728.38
701.13	19246.23
701.26	19435.81
701.40	19147.92
701.53	19199.41
701.66	19124.52
701.79	18890.46
701.93	19342.19
702.06	18991.11
702.19	18831.95
702.32	19133.88
702.46	18682.16
702.59	18714.92
702.72	18684.50
702.85	18462.15
702.99	18288.95
703.12	18195.32
703.25	18036.17
703.38	18288.95
703.51	18349.80
703.65	18094.68
703.78	18150.85
703.91	17818.50
704.04	17895.74
704.17	18040.85
704.31	17898.08
704.44	17642.96
704.57	17565.72
704.70	17303.58
704.83	17322.30
704.96	17202.94
705.10	17291.88
705.23	17270.81
>>>>>End Processed Spectral Data<<<<<
