SpectraSuite Data File
++++++++++++++++++++++++++++++++++++
Date: Thu Oct 24 13:21:47 EDT 2013
User: stostad
Dark Spectrum Present: No
Reference Spectrum Present: No
Number of Sampled Component Spectra: 1
Spectrometers: USB2+H05261
Integration Time (usec): 100000 (USB2+H05261)
Spectra Averaged: 1 (USB2+H05261)
Boxcar Smoothing: 0 (USB2+H05261)
Correct for Electrical Dark: No (USB2+H05261)
Strobe/Lamp Enabled: No (USB2+H05261)
Correct for Detector Non-linearity: No (USB2+H05261)
Correct for Stray Light: No (USB2+H05261)
Number of Pixels in Processed Spectrum: 2048
>>>>>Begin Processed Spectral Data<<<<<
365.73	1095.37
365.92	1095.37
366.12	1095.37
366.32	997.07
366.52	896.43
366.72	957.28
366.91	929.19
367.11	1006.43
367.31	976.00
367.51	919.83
367.70	912.81
367.90	1001.75
368.10	966.64
368.30	908.13
368.49	840.25
368.69	973.66
368.89	983.02
369.09	945.58
369.28	1008.77
369.48	943.24
369.68	976.00
369.87	1036.86
370.07	1067.28
370.27	976.00
370.47	1404.32
370.66	2335.85
370.86	2424.80
371.06	2382.67
371.25	2478.63
371.45	2553.52
371.65	2565.23
371.84	2586.29
372.04	2569.91
372.24	2647.15
372.44	2644.81
372.63	2635.44
372.83	2700.98
373.03	2846.09
373.22	2778.22
373.42	2766.51
373.62	2750.13
373.81	2864.82
374.01	2806.30
374.21	2820.35
374.40	2911.63
374.60	2855.45
374.79	2970.14
374.99	2970.14
375.19	3054.40
375.38	3148.02
375.58	2958.44
375.78	3035.67
375.97	3075.46
376.17	3129.30
376.37	3084.83
376.56	3110.57
376.76	3131.64
376.95	3129.30
377.15	3194.83
377.35	3166.74
377.54	3227.60
377.74	3290.79
377.93	3358.67
378.13	3300.16
378.33	3363.35
378.52	3311.86
378.72	3337.60
378.91	3344.63
379.11	3337.60
379.31	3405.48
379.50	3328.24
379.70	3447.61
379.89	3550.59
380.09	3475.70
380.28	3475.70
380.48	3510.80
380.68	3536.55
380.87	3555.27
381.07	3613.79
381.26	3676.98
381.46	3698.05
381.65	3595.06
381.85	3688.68
382.04	3688.68
382.24	3749.54
382.43	3772.94
382.63	3822.09
382.83	3843.16
383.02	3831.46
383.22	3779.97
383.41	3950.82
383.61	4126.36
383.80	4046.79
384.00	3999.98
384.19	3939.12
384.39	3957.85
384.58	4074.87
384.78	4023.38
384.97	4063.17
385.17	4053.81
385.36	4088.92
385.56	4060.83
385.75	4201.26
385.95	4081.89
386.14	4276.16
386.34	4222.33
386.53	4306.59
386.72	4432.97
386.92	4355.74
387.11	4521.92
387.31	4479.79
387.50	4491.49
387.70	4451.70
387.89	4456.38
388.09	4503.19
388.28	4477.44
388.48	4629.58
388.67	4564.04
388.86	4564.04
389.06	4638.94
389.25	4732.56
389.45	4744.27
389.64	4709.16
389.84	4849.59
390.03	5013.43
390.22	4805.12
390.42	4931.51
390.61	4868.31
390.81	5015.77
391.00	4973.64
391.19	4945.55
391.39	5046.20
391.58	5074.28
391.78	5308.34
391.97	5266.21
392.16	5310.68
392.36	5188.97
392.55	5331.74
392.75	5364.51
392.94	5411.32
393.13	5313.02
393.33	5305.99
393.52	5591.54
393.71	5465.15
393.91	5586.86
394.10	5575.16
394.29	5619.63
394.49	5441.75
394.68	5741.33
394.88	5654.73
395.07	5792.83
395.26	6019.86
395.46	5839.64
395.65	5827.93
395.84	5928.58
396.04	6031.56
396.23	6080.71
396.42	6113.48
396.62	6139.23
396.81	6155.61
397.00	6155.61
397.19	6274.98
397.39	6148.59
397.58	6221.14
397.77	6209.44
397.97	6558.18
398.16	6256.25
398.35	6553.50
398.55	6436.47
398.74	6445.84
398.93	6743.08
399.12	6527.75
399.32	6455.20
399.51	6651.80
399.70	6663.51
399.90	6677.55
400.09	6960.75
400.28	6862.45
400.47	7007.56
400.67	7185.44
400.86	6918.62
401.05	7059.06
401.24	6956.07
401.44	6988.84
401.63	7227.57
401.82	7267.36
402.01	7171.40
402.21	7234.60
402.40	7283.75
402.59	7267.36
402.78	7515.46
402.97	7644.19
403.17	7599.72
403.36	7562.27
403.55	7613.76
403.74	7836.11
403.93	7829.09
404.13	7669.94
404.32	7840.79
404.51	7810.37
404.70	8159.11
404.89	7840.79
405.09	8175.49
405.28	8107.62
405.47	8428.27
405.66	8212.94
405.85	8170.81
406.05	8395.50
406.24	8166.13
406.43	8297.20
406.62	8428.27
406.81	8772.33
407.00	8519.55
407.20	8386.14
407.39	8411.89
407.58	8877.65
407.77	8917.44
407.96	8809.78
408.15	8905.74
408.34	8779.35
408.54	9149.15
408.73	9088.30
408.92	9076.60
409.11	9301.29
409.30	9191.28
409.49	9334.06
409.68	9460.45
409.87	9322.35
410.07	9680.46
410.26	9783.44
410.45	9626.62
410.64	9685.14
410.83	9783.44
411.02	9905.15
411.21	9900.47
411.40	10022.17
411.59	10160.27
411.78	10143.88
411.98	10174.31
412.17	10319.42
412.36	10597.95
412.55	10703.27
412.74	10841.36
412.93	10654.12
413.12	10647.10
413.31	11040.31
413.50	10876.47
413.69	11124.57
413.88	11143.29
414.07	11169.04
414.26	11302.45
414.45	11531.82
414.64	11351.60
414.83	11538.84
415.02	11833.75
415.22	11988.22
415.41	12051.42
415.60	11976.52
415.79	12044.40
415.98	12266.75
416.17	12358.03
416.36	12327.60
416.55	12292.49
416.74	12594.42
416.93	12446.97
417.12	12711.45
417.31	12891.67
417.50	12896.35
417.69	13263.82
417.88	13308.29
418.07	13219.35
418.26	13514.25
418.45	13575.11
418.64	13914.48
418.83	13701.50
419.02	13673.41
419.21	13905.12
419.39	13839.59
419.58	14052.58
419.77	13727.24
419.96	14043.21
420.15	14143.86
420.34	14171.94
420.53	14204.71
420.72	14649.41
420.91	14303.01
421.10	14696.22
421.29	14740.69
421.48	14616.65
421.67	14799.21
421.86	14562.81
422.05	14953.68
422.24	14939.64
422.43	15206.46
422.61	15094.11
422.80	15302.42
422.99	15161.99
423.18	15400.72
423.37	15405.41
423.56	15246.25
423.75	15051.99
423.94	14778.14
424.13	14190.67
424.32	14888.15
424.50	15503.71
424.69	15704.99
424.88	15836.06
425.07	15190.08
425.26	15225.18
425.45	15147.95
425.64	15342.21
425.83	15543.50
426.01	15447.54
426.20	15880.53
426.39	15763.51
426.58	15468.60
426.77	15541.16
426.96	15852.45
427.15	16166.08
427.33	16177.78
427.52	15992.88
427.71	16362.69
427.90	16128.63
428.09	16397.79
428.28	16489.07
428.46	16395.45
428.65	16477.37
428.84	17111.66
429.03	16786.32
429.22	16592.06
429.40	16840.15
429.59	17249.75
429.78	16463.33
429.97	16280.77
430.16	17259.11
430.34	17483.80
430.53	17586.79
430.72	17448.69
430.91	17240.39
431.10	17465.08
431.28	17909.78
431.47	17792.75
431.66	18080.64
431.85	18052.55
432.03	18256.18
432.22	18438.74
432.41	18527.68
432.60	18232.77
432.79	18665.77
432.97	18843.65
433.16	18803.86
433.35	18686.84
433.54	19145.58
433.72	19379.64
433.91	19042.60
434.10	19332.82
434.28	19002.81
434.47	19417.08
434.66	19632.41
434.85	19948.39
435.03	19838.38
435.22	19693.27
435.41	20404.79
435.59	20130.95
435.78	20350.96
435.97	20276.06
436.16	20381.38
436.34	20189.46
436.53	20505.43
436.72	20830.77
436.90	20208.19
437.09	21195.89
437.28	20421.17
437.46	20886.94
437.65	20795.66
437.84	21273.13
438.02	21135.04
438.21	21034.39
438.40	21212.28
438.58	21862.94
438.77	22286.58
438.96	21876.99
439.14	22270.20
439.33	22679.79
439.52	22740.64
439.70	22635.32
439.89	23363.23
440.08	23356.21
440.26	23260.24
440.45	23255.56
440.63	23513.02
440.82	24159.01
441.01	24077.09
441.19	24264.33
441.38	24542.86
441.57	24397.74
441.75	24540.52
441.94	25181.82
442.12	24975.86
442.31	25699.08
442.50	25809.09
442.68	25551.63
442.87	25614.82
443.05	26099.31
443.24	26052.50
443.43	26038.46
443.61	26279.54
443.80	27180.64
443.98	25783.34
444.17	25329.28
444.35	26249.11
444.54	26944.25
444.73	26700.83
444.91	26230.38
445.10	26867.01
445.28	26937.23
445.47	26766.37
445.65	26759.34
445.84	27026.17
446.02	27728.33
446.21	27175.96
446.39	27112.77
446.58	27316.39
446.77	27297.67
446.95	26600.19
447.14	27353.84
447.32	27749.39
447.51	27257.88
447.69	27136.17
447.88	27517.68
448.06	27531.72
448.25	27194.68
448.43	27725.99
448.62	27681.52
448.80	27491.93
448.99	27962.38
449.17	27646.41
449.36	27651.09
449.54	28208.14
449.73	28889.23
449.91	28858.81
450.10	28919.66
450.28	29352.66
450.46	29144.35
450.65	29586.71
450.83	29446.28
451.02	28872.85
451.20	29565.65
451.39	29577.35
451.57	29841.83
451.76	29413.51
451.94	29710.76
452.13	30405.90
452.31	29486.07
452.49	29926.09
452.68	30567.40
452.86	30422.28
453.05	30742.94
453.23	30974.65
453.42	30316.96
453.60	30312.28
453.78	30948.90
453.97	30820.17
454.15	30995.71
454.34	30920.82
454.52	31721.28
454.70	31880.44
454.89	31861.71
455.07	32180.03
455.26	32011.51
455.44	32919.63
455.62	32397.70
455.81	32779.20
455.99	32699.62
456.17	32804.95
456.36	33031.98
456.54	33270.72
456.73	33790.31
456.91	34092.24
457.09	34260.76
457.28	34176.50
457.46	33701.37
457.64	34408.22
457.83	34443.32
458.01	34117.99
458.19	35079.95
458.38	34555.67
458.56	35129.10
458.74	35402.94
458.93	35115.06
459.11	35360.81
459.29	35395.92
459.48	35442.73
459.66	35662.74
459.84	35871.05
460.03	36259.58
460.21	36180.00
460.39	36510.02
460.57	36488.95
460.76	36608.32
460.94	36933.65
461.12	37031.96
461.31	36935.99
461.49	36795.56
461.67	36931.31
461.85	38096.90
462.04	37600.71
462.22	38237.33
462.40	38349.68
462.59	37755.18
462.77	38178.82
462.95	38319.25
463.13	38398.83
463.32	38408.19
463.50	38810.76
463.68	39203.97
463.86	38810.76
464.05	38394.15
464.23	38630.54
464.41	39225.04
464.59	38342.66
464.78	40093.38
464.96	39725.91
465.14	39503.56
465.32	40479.57
465.50	40346.15
465.69	40027.84
465.87	40495.95
466.05	40194.02
466.23	40170.61
466.41	40872.78
466.60	41333.86
466.78	40491.27
466.96	40327.43
467.14	40727.66
467.32	41137.26
467.51	41375.99
467.69	40804.90
467.87	41848.78
468.05	41970.49
468.23	41116.19
468.41	41244.92
468.60	42045.38
468.78	42445.62
468.96	41509.40
469.14	43328.00
469.32	43180.54
469.50	42071.13
469.69	43030.75
469.87	43543.33
470.05	43475.45
470.23	43880.36
470.41	44142.50
470.59	44666.78
470.77	43931.86
470.95	44355.49
471.14	45350.22
471.32	43962.28
471.50	45064.67
471.68	45134.89
471.86	45689.60
472.04	45930.67
472.22	46464.32
472.40	45610.02
472.58	46300.48
472.77	46670.28
472.95	46646.88
473.13	48088.65
473.31	46815.40
473.49	47056.47
473.67	47126.69
473.85	47695.44
474.03	48133.12
474.21	48788.47
474.39	48680.80
474.57	48449.09
474.75	48914.86
474.93	49113.80
475.12	49610.00
475.30	49413.39
475.48	49556.16
475.66	49991.50
475.84	50260.66
476.02	50806.01
476.20	50305.13
476.38	51480.08
476.56	51683.71
476.74	51718.82
476.92	51461.36
477.10	51489.45
477.28	52069.90
477.46	52573.11
477.64	52816.53
477.82	53223.78
478.00	53738.70
478.18	53471.88
478.36	53691.89
478.54	54518.10
478.72	54408.09
478.90	54892.58
479.08	55082.17
479.26	55543.25
479.44	55454.31
479.62	55547.93
479.80	56016.04
479.98	56128.39
480.16	56631.60
480.34	56542.66
480.52	56931.19
480.70	57233.12
480.88	56729.90
481.06	57158.22
481.24	57418.02
481.41	57602.92
481.59	57989.11
481.77	58379.98
481.95	58475.94
482.13	58667.87
482.31	58679.57
482.49	59363.01
482.67	59316.20
482.85	59587.70
483.03	59896.65
483.21	60224.32
483.39	60364.76
483.57	60236.03
483.74	60430.29
483.92	60755.63
484.10	60636.26
484.28	61095.00
484.46	61361.82
484.64	62019.52
484.82	61666.09
485.00	61726.95
485.18	62438.47
485.35	62499.33
485.53	62700.61
485.71	62810.62
485.89	63217.87
486.07	63000.20
486.25	63124.25
486.43	63365.32
486.61	63566.61
486.78	63826.41
486.96	64018.33
487.14	64278.13
487.32	64240.68
487.50	64622.19
487.68	64790.71
487.85	65127.75
488.03	65385.21
488.21	65535.00
488.39	65471.81
488.57	65535.00
488.75	65535.00
488.92	65535.00
489.10	65535.00
489.28	65535.00
489.46	65535.00
489.64	65535.00
489.81	65535.00
489.99	65535.00
490.17	65535.00
490.35	65535.00
490.53	65535.00
490.70	65535.00
490.88	65535.00
491.06	65535.00
491.24	65535.00
491.41	65535.00
491.59	65535.00
491.77	65535.00
491.95	65535.00
492.13	65535.00
492.30	65535.00
492.48	65535.00
492.66	65535.00
492.84	65535.00
493.01	65535.00
493.19	65535.00
493.37	65535.00
493.54	65535.00
493.72	65535.00
493.90	65535.00
494.08	65535.00
494.25	65535.00
494.43	65535.00
494.61	65535.00
494.79	65535.00
494.96	65535.00
495.14	65535.00
495.32	65535.00
495.49	65535.00
495.67	65535.00
495.85	65535.00
496.02	65535.00
496.20	65535.00
496.38	65535.00
496.55	65535.00
496.73	65535.00
496.91	65535.00
497.09	65535.00
497.26	65535.00
497.44	65535.00
497.62	65535.00
497.79	65535.00
497.97	65535.00
498.14	65535.00
498.32	65535.00
498.50	65535.00
498.67	65535.00
498.85	65535.00
499.03	65535.00
499.20	65535.00
499.38	65535.00
499.56	65535.00
499.73	65535.00
499.91	65535.00
500.08	65535.00
500.26	65535.00
500.44	65535.00
500.61	65535.00
500.79	65535.00
500.97	65535.00
501.14	65535.00
501.32	65535.00
501.49	65535.00
501.67	65535.00
501.84	65535.00
502.02	65535.00
502.20	65535.00
502.37	65535.00
502.55	65535.00
502.72	65535.00
502.90	65535.00
503.07	65535.00
503.25	65535.00
503.43	65535.00
503.60	65535.00
503.78	65535.00
503.95	65535.00
504.13	65535.00
504.30	65535.00
504.48	65535.00
504.65	65535.00
504.83	65535.00
505.01	65535.00
505.18	65535.00
505.36	65535.00
505.53	65535.00
505.71	65535.00
505.88	65535.00
506.06	65535.00
506.23	65535.00
506.41	65535.00
506.58	65535.00
506.76	65535.00
506.93	65535.00
507.11	65535.00
507.28	65535.00
507.46	65535.00
507.63	65535.00
507.81	65535.00
507.98	65535.00
508.16	65535.00
508.33	65535.00
508.50	65535.00
508.68	65535.00
508.85	65535.00
509.03	65535.00
509.20	65535.00
509.38	65535.00
509.55	65535.00
509.73	65535.00
509.90	65535.00
510.08	65535.00
510.25	65535.00
510.42	65535.00
510.60	65535.00
510.77	65535.00
510.95	65535.00
511.12	65535.00
511.30	65535.00
511.47	65535.00
511.64	65535.00
511.82	65535.00
511.99	65535.00
512.17	65535.00
512.34	65535.00
512.51	65535.00
512.69	65535.00
512.86	65535.00
513.04	65535.00
513.21	65535.00
513.38	65535.00
513.56	65535.00
513.73	65535.00
513.90	65535.00
514.08	65535.00
514.25	65535.00
514.43	65535.00
514.60	65535.00
514.77	65535.00
514.95	65535.00
515.12	65535.00
515.29	65535.00
515.47	65535.00
515.64	65535.00
515.81	65535.00
515.99	65535.00
516.16	65535.00
516.33	65535.00
516.51	65535.00
516.68	65535.00
516.85	65535.00
517.03	65535.00
517.20	65535.00
517.37	65535.00
517.54	65535.00
517.72	65535.00
517.89	65535.00
518.06	65535.00
518.24	65535.00
518.41	65535.00
518.58	65535.00
518.75	65535.00
518.93	65535.00
519.10	65535.00
519.27	65535.00
519.45	65535.00
519.62	65535.00
519.79	65535.00
519.96	65535.00
520.14	65535.00
520.31	65535.00
520.48	65535.00
520.65	65535.00
520.83	65535.00
521.00	65535.00
521.17	65535.00
521.34	65535.00
521.52	65535.00
521.69	65535.00
521.86	65535.00
522.03	65535.00
522.20	65535.00
522.38	65535.00
522.55	65535.00
522.72	65535.00
522.89	65535.00
523.07	65535.00
523.24	65535.00
523.41	65535.00
523.58	65535.00
523.75	65535.00
523.92	65535.00
524.10	65535.00
524.27	65535.00
524.44	65535.00
524.61	65535.00
524.78	65535.00
524.96	65535.00
525.13	65535.00
525.30	65535.00
525.47	65535.00
525.64	65535.00
525.81	65535.00
525.98	65535.00
526.16	65535.00
526.33	65535.00
526.50	65535.00
526.67	65535.00
526.84	65535.00
527.01	65535.00
527.18	65535.00
527.36	65535.00
527.53	65535.00
527.70	65535.00
527.87	65535.00
528.04	65535.00
528.21	65535.00
528.38	65535.00
528.55	65535.00
528.72	65535.00
528.89	65535.00
529.07	65535.00
529.24	65535.00
529.41	65535.00
529.58	65535.00
529.75	65535.00
529.92	65535.00
530.09	65535.00
530.26	65535.00
530.43	65535.00
530.60	65535.00
530.77	65535.00
530.94	65535.00
531.11	65535.00
531.28	65535.00
531.46	65535.00
531.63	65535.00
531.80	65535.00
531.97	65535.00
532.14	65535.00
532.31	65535.00
532.48	65535.00
532.65	65535.00
532.82	65535.00
532.99	65535.00
533.16	65535.00
533.33	65535.00
533.50	65535.00
533.67	65535.00
533.84	65535.00
534.01	65535.00
534.18	65535.00
534.35	65535.00
534.52	65535.00
534.69	65535.00
534.86	65535.00
535.03	65535.00
535.20	65535.00
535.37	65535.00
535.54	65535.00
535.71	65535.00
535.88	65535.00
536.05	65535.00
536.22	65535.00
536.38	65535.00
536.55	65535.00
536.72	65535.00
536.89	65535.00
537.06	65535.00
537.23	65535.00
537.40	65535.00
537.57	65535.00
537.74	65535.00
537.91	65535.00
538.08	65535.00
538.25	65535.00
538.42	65535.00
538.59	65535.00
538.75	65535.00
538.92	65535.00
539.09	65535.00
539.26	65535.00
539.43	65535.00
539.60	65535.00
539.77	65535.00
539.94	65535.00
540.11	65535.00
540.28	65535.00
540.44	65535.00
540.61	65535.00
540.78	65535.00
540.95	65535.00
541.12	65535.00
541.29	65535.00
541.46	65535.00
541.62	65535.00
541.79	65535.00
541.96	65535.00
542.13	65535.00
542.30	65535.00
542.47	65535.00
542.63	65535.00
542.80	65535.00
542.97	65535.00
543.14	65535.00
543.31	65535.00
543.48	65535.00
543.64	65535.00
543.81	65535.00
543.98	65535.00
544.15	65535.00
544.32	65535.00
544.48	65535.00
544.65	65535.00
544.82	65535.00
544.99	65535.00
545.16	65535.00
545.32	65535.00
545.49	65535.00
545.66	65535.00
545.83	65535.00
546.00	65535.00
546.16	65535.00
546.33	65535.00
546.50	65535.00
546.67	65535.00
546.83	65535.00
547.00	65535.00
547.17	65535.00
547.34	65535.00
547.50	65535.00
547.67	65535.00
547.84	65535.00
548.00	65535.00
548.17	65535.00
548.34	65535.00
548.51	65535.00
548.67	65535.00
548.84	65535.00
549.01	65535.00
549.18	65535.00
549.34	65535.00
549.51	65535.00
549.68	65535.00
549.84	65535.00
550.01	65535.00
550.18	65535.00
550.34	65535.00
550.51	65535.00
550.68	65535.00
550.84	65535.00
551.01	65535.00
551.18	65535.00
551.34	65535.00
551.51	65535.00
551.68	65535.00
551.84	65535.00
552.01	65535.00
552.18	65535.00
552.34	65535.00
552.51	65535.00
552.68	65535.00
552.84	65535.00
553.01	65535.00
553.18	65535.00
553.34	65535.00
553.51	65535.00
553.67	65535.00
553.84	65535.00
554.01	65535.00
554.17	65535.00
554.34	65535.00
554.51	65535.00
554.67	65535.00
554.84	65535.00
555.00	65535.00
555.17	65535.00
555.33	65535.00
555.50	65535.00
555.67	65535.00
555.83	65535.00
556.00	65535.00
556.16	65535.00
556.33	65535.00
556.50	65535.00
556.66	65535.00
556.83	65535.00
556.99	65535.00
557.16	65535.00
557.32	65535.00
557.49	65535.00
557.65	65535.00
557.82	65535.00
557.98	65535.00
558.15	65535.00
558.32	65535.00
558.48	65535.00
558.65	65535.00
558.81	65535.00
558.98	65535.00
559.14	65535.00
559.31	65535.00
559.47	65535.00
559.64	65535.00
559.80	65535.00
559.97	65535.00
560.13	65535.00
560.30	65535.00
560.46	65535.00
560.63	65535.00
560.79	65535.00
560.96	65535.00
561.12	65535.00
561.29	65535.00
561.45	65535.00
561.61	65535.00
561.78	65535.00
561.94	65535.00
562.11	65535.00
562.27	65535.00
562.44	65535.00
562.60	65535.00
562.77	65535.00
562.93	65535.00
563.10	65535.00
563.26	65535.00
563.42	65535.00
563.59	65535.00
563.75	65535.00
563.92	65535.00
564.08	65535.00
564.24	65535.00
564.41	65535.00
564.57	65535.00
564.74	65535.00
564.90	65535.00
565.07	65535.00
565.23	65535.00
565.39	65535.00
565.56	65535.00
565.72	65535.00
565.88	65535.00
566.05	65535.00
566.21	65535.00
566.38	65535.00
566.54	65535.00
566.70	65535.00
566.87	65535.00
567.03	65535.00
567.19	65535.00
567.36	65535.00
567.52	65535.00
567.68	65535.00
567.85	65535.00
568.01	65535.00
568.17	65535.00
568.34	65535.00
568.50	65535.00
568.66	65535.00
568.83	65535.00
568.99	65535.00
569.15	65535.00
569.32	65535.00
569.48	65535.00
569.64	65535.00
569.81	65535.00
569.97	65535.00
570.13	65535.00
570.30	65535.00
570.46	65535.00
570.62	65535.00
570.78	65535.00
570.95	65535.00
571.11	65535.00
571.27	65535.00
571.43	65535.00
571.60	65535.00
571.76	65535.00
571.92	65535.00
572.09	65535.00
572.25	65535.00
572.41	65535.00
572.57	65535.00
572.74	65535.00
572.90	65535.00
573.06	65535.00
573.22	65535.00
573.38	65535.00
573.55	65535.00
573.71	65535.00
573.87	65535.00
574.03	65535.00
574.20	65535.00
574.36	65535.00
574.52	65535.00
574.68	65535.00
574.84	65535.00
575.01	65535.00
575.17	65535.00
575.33	65535.00
575.49	65535.00
575.65	65535.00
575.82	65535.00
575.98	65535.00
576.14	65535.00
576.30	65535.00
576.46	65535.00
576.62	65535.00
576.79	65535.00
576.95	65535.00
577.11	65535.00
577.27	65535.00
577.43	65535.00
577.59	65535.00
577.75	65535.00
577.92	65535.00
578.08	65535.00
578.24	65535.00
578.40	65535.00
578.56	65535.00
578.72	65535.00
578.88	65535.00
579.04	65535.00
579.21	65535.00
579.37	65535.00
579.53	65535.00
579.69	65535.00
579.85	65535.00
580.01	65535.00
580.17	65535.00
580.33	65535.00
580.49	65535.00
580.65	65535.00
580.82	65535.00
580.98	65535.00
581.14	65535.00
581.30	65535.00
581.46	65535.00
581.62	65535.00
581.78	65535.00
581.94	65535.00
582.10	65535.00
582.26	65535.00
582.42	65535.00
582.58	65535.00
582.74	65535.00
582.90	65535.00
583.06	65535.00
583.22	65535.00
583.38	65535.00
583.54	65535.00
583.70	65535.00
583.86	65535.00
584.02	65535.00
584.18	65535.00
584.34	65535.00
584.50	65535.00
584.66	65535.00
584.82	65535.00
584.98	65535.00
585.14	65535.00
585.30	65535.00
585.46	65535.00
585.62	65535.00
585.78	65535.00
585.94	65535.00
586.10	65535.00
586.26	65535.00
586.42	65535.00
586.58	65535.00
586.74	65535.00
586.90	65535.00
587.06	65535.00
587.22	65535.00
587.38	65535.00
587.54	65535.00
587.70	65535.00
587.86	65535.00
588.02	65535.00
588.18	65535.00
588.34	65535.00
588.49	65535.00
588.65	65535.00
588.81	65535.00
588.97	65535.00
589.13	65535.00
589.29	65535.00
589.45	65535.00
589.61	65535.00
589.77	65535.00
589.93	65535.00
590.08	65535.00
590.24	65535.00
590.40	65535.00
590.56	65535.00
590.72	65535.00
590.88	65535.00
591.04	65535.00
591.20	65535.00
591.35	65535.00
591.51	65535.00
591.67	65535.00
591.83	65535.00
591.99	65535.00
592.15	65535.00
592.31	65535.00
592.46	65535.00
592.62	65535.00
592.78	65535.00
592.94	65535.00
593.10	65535.00
593.26	65535.00
593.41	65535.00
593.57	65535.00
593.73	65535.00
593.89	65535.00
594.05	65535.00
594.20	65535.00
594.36	65535.00
594.52	65535.00
594.68	65535.00
594.84	65535.00
594.99	65535.00
595.15	65535.00
595.31	65535.00
595.47	65535.00
595.62	65535.00
595.78	65535.00
595.94	65535.00
596.10	65535.00
596.25	65535.00
596.41	65535.00
596.57	65535.00
596.73	65535.00
596.88	65535.00
597.04	65535.00
597.20	65535.00
597.36	65535.00
597.51	65535.00
597.67	65535.00
597.83	65535.00
597.99	65535.00
598.14	65535.00
598.30	65535.00
598.46	65535.00
598.61	65535.00
598.77	65535.00
598.93	65535.00
599.09	65535.00
599.24	65535.00
599.40	65535.00
599.56	65535.00
599.71	65535.00
599.87	65535.00
600.03	65535.00
600.18	65535.00
600.34	65535.00
600.50	65535.00
600.65	65535.00
600.81	65535.00
600.97	65535.00
601.12	65535.00
601.28	65535.00
601.44	65535.00
601.59	65535.00
601.75	65535.00
601.91	65535.00
602.06	65535.00
602.22	65535.00
602.37	65535.00
602.53	65535.00
602.69	65535.00
602.84	65535.00
603.00	65535.00
603.16	65535.00
603.31	65535.00
603.47	65535.00
603.62	65535.00
603.78	65535.00
603.94	65535.00
604.09	65535.00
604.25	65535.00
604.40	65535.00
604.56	65535.00
604.71	65535.00
604.87	65535.00
605.03	65535.00
605.18	65535.00
605.34	65535.00
605.49	65535.00
605.65	65535.00
605.80	65535.00
605.96	65535.00
606.12	65535.00
606.27	65535.00
606.43	65535.00
606.58	65535.00
606.74	65535.00
606.89	65535.00
607.05	65535.00
607.20	65535.00
607.36	65535.00
607.51	65535.00
607.67	65535.00
607.82	65535.00
607.98	65535.00
608.13	65535.00
608.29	65535.00
608.44	65535.00
608.60	65535.00
608.75	65535.00
608.91	65535.00
609.06	65535.00
609.22	65535.00
609.37	65535.00
609.53	65535.00
609.68	65535.00
609.84	65535.00
609.99	65535.00
610.15	65535.00
610.30	65535.00
610.46	65535.00
610.61	65535.00
610.76	65535.00
610.92	65535.00
611.07	65535.00
611.23	65535.00
611.38	65535.00
611.54	65535.00
611.69	65535.00
611.84	65535.00
612.00	65535.00
612.15	65535.00
612.31	65535.00
612.46	65535.00
612.62	65535.00
612.77	65535.00
612.92	65535.00
613.08	65535.00
613.23	65535.00
613.39	65535.00
613.54	65535.00
613.69	65535.00
613.85	65535.00
614.00	65535.00
614.15	65535.00
614.31	65535.00
614.46	65535.00
614.62	65535.00
614.77	65535.00
614.92	65535.00
615.08	65535.00
615.23	65535.00
615.38	65535.00
615.54	65535.00
615.69	65535.00
615.84	65535.00
616.00	65535.00
616.15	65535.00
616.30	65535.00
616.46	65535.00
616.61	65535.00
616.76	65535.00
616.92	65535.00
617.07	65535.00
617.22	65535.00
617.37	65535.00
617.53	65535.00
617.68	65535.00
617.83	65535.00
617.99	65535.00
618.14	65535.00
618.29	65535.00
618.45	65535.00
618.60	65535.00
618.75	65535.00
618.90	65535.00
619.06	65535.00
619.21	65535.00
619.36	65535.00
619.51	65535.00
619.67	65535.00
619.82	65535.00
619.97	65535.00
620.12	65535.00
620.28	65535.00
620.43	65535.00
620.58	65535.00
620.73	65535.00
620.89	65535.00
621.04	65535.00
621.19	65535.00
621.34	65535.00
621.49	65535.00
621.65	65535.00
621.80	65535.00
621.95	65535.00
622.10	65535.00
622.25	65535.00
622.41	65535.00
622.56	65535.00
622.71	65535.00
622.86	65535.00
623.01	65535.00
623.16	65535.00
623.32	65535.00
623.47	65535.00
623.62	65535.00
623.77	65535.00
623.92	65535.00
624.07	65535.00
624.23	65535.00
624.38	65535.00
624.53	65535.00
624.68	65535.00
624.83	65535.00
624.98	65535.00
625.13	65535.00
625.29	65535.00
625.44	65535.00
625.59	65535.00
625.74	65535.00
625.89	65535.00
626.04	65535.00
626.19	65535.00
626.34	65535.00
626.49	65535.00
626.65	65535.00
626.80	65535.00
626.95	65535.00
627.10	65535.00
627.25	65535.00
627.40	65535.00
627.55	65535.00
627.70	65535.00
627.85	65535.00
628.00	65535.00
628.15	65535.00
628.30	65535.00
628.45	65535.00
628.60	65535.00
628.76	65535.00
628.91	65535.00
629.06	65535.00
629.21	65535.00
629.36	65535.00
629.51	65535.00
629.66	65535.00
629.81	65535.00
629.96	65535.00
630.11	65535.00
630.26	65535.00
630.41	65535.00
630.56	65535.00
630.71	65535.00
630.86	65535.00
631.01	65535.00
631.16	65535.00
631.31	65535.00
631.46	65535.00
631.61	65535.00
631.76	65535.00
631.91	65535.00
632.06	65535.00
632.21	65535.00
632.36	65535.00
632.51	65535.00
632.66	65535.00
632.81	65535.00
632.96	65535.00
633.10	65535.00
633.25	65535.00
633.40	65535.00
633.55	65535.00
633.70	65535.00
633.85	65535.00
634.00	65535.00
634.15	65535.00
634.30	65535.00
634.45	65535.00
634.60	65535.00
634.75	65535.00
634.90	65535.00
635.05	65535.00
635.19	65535.00
635.34	65535.00
635.49	65535.00
635.64	65535.00
635.79	65535.00
635.94	65535.00
636.09	65535.00
636.24	65535.00
636.39	65535.00
636.53	65535.00
636.68	65535.00
636.83	65535.00
636.98	65535.00
637.13	65535.00
637.28	65535.00
637.43	65535.00
637.57	65535.00
637.72	65535.00
637.87	65535.00
638.02	65535.00
638.17	65535.00
638.32	65535.00
638.46	65535.00
638.61	65535.00
638.76	65535.00
638.91	65535.00
639.06	65535.00
639.20	65535.00
639.35	65535.00
639.50	65535.00
639.65	65535.00
639.80	65535.00
639.94	65535.00
640.09	65535.00
640.24	65535.00
640.39	65535.00
640.54	65535.00
640.68	65535.00
640.83	65535.00
640.98	65535.00
641.13	65535.00
641.27	65535.00
641.42	65535.00
641.57	65535.00
641.72	65535.00
641.86	65535.00
642.01	65535.00
642.16	65535.00
642.31	65535.00
642.45	65535.00
642.60	65535.00
642.75	65535.00
642.90	65535.00
643.04	65535.00
643.19	65535.00
643.34	65535.00
643.48	65535.00
643.63	65535.00
643.78	65535.00
643.93	65535.00
644.07	65535.00
644.22	65535.00
644.37	65535.00
644.51	65535.00
644.66	65535.00
644.81	65535.00
644.95	65535.00
645.10	65535.00
645.25	65535.00
645.39	65535.00
645.54	65535.00
645.69	65535.00
645.83	65535.00
645.98	65535.00
646.13	65535.00
646.27	65535.00
646.42	65535.00
646.57	65535.00
646.71	65535.00
646.86	65535.00
647.00	65535.00
647.15	65535.00
647.30	65535.00
647.44	65535.00
647.59	65535.00
647.74	65535.00
647.88	65535.00
648.03	65535.00
648.17	65535.00
648.32	65535.00
648.47	65535.00
648.61	65535.00
648.76	65535.00
648.90	65535.00
649.05	65535.00
649.20	65535.00
649.34	65535.00
649.49	65535.00
649.63	65535.00
649.78	65535.00
649.92	65535.00
650.07	65535.00
650.21	65535.00
650.36	65535.00
650.51	65535.00
650.65	65535.00
650.80	65535.00
650.94	65535.00
651.09	65535.00
651.23	65535.00
651.38	65535.00
651.52	65535.00
651.67	65535.00
651.81	65535.00
651.96	65535.00
652.10	65535.00
652.25	65535.00
652.39	65535.00
652.54	65535.00
652.68	65535.00
652.83	65535.00
652.97	65535.00
653.12	65535.00
653.26	65535.00
653.41	65535.00
653.55	65535.00
653.70	65535.00
653.84	65535.00
653.99	65535.00
654.13	65535.00
654.27	65535.00
654.42	65535.00
654.56	65535.00
654.71	65535.00
654.85	65535.00
655.00	65535.00
655.14	65535.00
655.29	65535.00
655.43	65535.00
655.57	65535.00
655.72	65535.00
655.86	65535.00
656.01	65535.00
656.15	65535.00
656.30	65535.00
656.44	65535.00
656.58	65535.00
656.73	65535.00
656.87	65535.00
657.01	65535.00
657.16	65535.00
657.30	65535.00
657.45	65535.00
657.59	65535.00
657.73	65535.00
657.88	65535.00
658.02	65535.00
658.16	65535.00
658.31	65535.00
658.45	65535.00
658.60	65535.00
658.74	65535.00
658.88	65535.00
659.03	65535.00
659.17	65535.00
659.31	65535.00
659.46	65535.00
659.60	65535.00
659.74	65535.00
659.89	65535.00
660.03	65535.00
660.17	65535.00
660.32	65535.00
660.46	65535.00
660.60	65535.00
660.74	65535.00
660.89	65535.00
661.03	65535.00
661.17	65535.00
661.32	65535.00
661.46	65535.00
661.60	65535.00
661.74	65535.00
661.89	65535.00
662.03	65535.00
662.17	65535.00
662.31	65535.00
662.46	65535.00
662.60	65535.00
662.74	65535.00
662.88	65535.00
663.03	65535.00
663.17	65535.00
663.31	65535.00
663.45	65535.00
663.60	65535.00
663.74	65535.00
663.88	65535.00
664.02	65535.00
664.17	65535.00
664.31	65535.00
664.45	65535.00
664.59	65535.00
664.73	65535.00
664.88	65535.00
665.02	65535.00
665.16	65535.00
665.30	65535.00
665.44	65535.00
665.59	65535.00
665.73	65535.00
665.87	65535.00
666.01	65535.00
666.15	65535.00
666.29	65535.00
666.44	65535.00
666.58	65535.00
666.72	65535.00
666.86	65535.00
667.00	65535.00
667.14	65535.00
667.28	65535.00
667.43	65535.00
667.57	65535.00
667.71	65535.00
667.85	65535.00
667.99	65535.00
668.13	65535.00
668.27	65535.00
668.41	65535.00
668.56	65535.00
668.70	65535.00
668.84	65535.00
668.98	65535.00
669.12	65535.00
669.26	65535.00
669.40	65535.00
669.54	65535.00
669.68	65535.00
669.82	65535.00
669.96	65535.00
670.10	65535.00
670.25	65535.00
670.39	65535.00
670.53	65535.00
670.67	65535.00
670.81	65535.00
670.95	65535.00
671.09	65535.00
671.23	65535.00
671.37	65535.00
671.51	65535.00
671.65	65535.00
671.79	65535.00
671.93	65535.00
672.07	65535.00
672.21	65535.00
672.35	65535.00
672.49	65535.00
672.63	65535.00
672.77	65535.00
672.91	65535.00
673.05	65535.00
673.19	65535.00
673.33	65535.00
673.47	65535.00
673.61	65535.00
673.75	65535.00
673.89	65535.00
674.03	65535.00
674.17	65535.00
674.31	65535.00
674.45	65535.00
674.59	65535.00
674.73	65535.00
674.87	65535.00
675.01	65535.00
675.15	65535.00
675.29	65535.00
675.43	65535.00
675.56	65535.00
675.70	65535.00
675.84	65535.00
675.98	65535.00
676.12	65535.00
676.26	65535.00
676.40	65535.00
676.54	65535.00
676.68	65535.00
676.82	65535.00
676.96	65535.00
677.10	65535.00
677.23	65535.00
677.37	65535.00
677.51	65535.00
677.65	65535.00
677.79	65535.00
677.93	65535.00
678.07	65535.00
678.21	65535.00
678.34	65535.00
678.48	65535.00
678.62	65535.00
678.76	65535.00
678.90	65535.00
679.04	65535.00
679.18	65535.00
679.31	65535.00
679.45	65535.00
679.59	65535.00
679.73	65535.00
679.87	65535.00
680.00	65535.00
680.14	65535.00
680.28	65535.00
680.42	65535.00
680.56	65535.00
680.70	65535.00
680.83	65535.00
680.97	65535.00
681.11	65535.00
681.25	65535.00
681.39	65535.00
681.52	65535.00
681.66	65535.00
681.80	65535.00
681.94	65535.00
682.07	65535.00
682.21	65535.00
682.35	65535.00
682.49	65535.00
682.62	65535.00
682.76	65535.00
682.90	65535.00
683.04	65535.00
683.17	65535.00
683.31	65535.00
683.45	65535.00
683.59	65535.00
683.72	65535.00
683.86	65535.00
684.00	65535.00
684.13	65535.00
684.27	65535.00
684.41	65535.00
684.55	65535.00
684.68	65535.00
684.82	65535.00
684.96	65535.00
685.09	65535.00
685.23	65535.00
685.37	65535.00
685.50	65535.00
685.64	65535.00
685.78	65535.00
685.91	65535.00
686.05	65535.00
686.19	65535.00
686.32	65535.00
686.46	65535.00
686.60	65535.00
686.73	65535.00
686.87	65535.00
687.01	65535.00
687.14	65535.00
687.28	65535.00
687.42	65535.00
687.55	65535.00
687.69	65535.00
687.82	65535.00
687.96	65535.00
688.10	65535.00
688.23	65535.00
688.37	65535.00
688.50	65535.00
688.64	65535.00
688.78	65535.00
688.91	65535.00
689.05	65535.00
689.18	65535.00
689.32	65535.00
689.46	65535.00
689.59	65535.00
689.73	65535.00
689.86	65535.00
690.00	65535.00
690.13	65535.00
690.27	65535.00
690.41	65535.00
690.54	65535.00
690.68	65535.00
690.81	65535.00
690.95	65535.00
691.08	65535.00
691.22	65535.00
691.35	65535.00
691.49	65535.00
691.62	65535.00
691.76	65535.00
691.89	65535.00
692.03	65535.00
692.16	65535.00
692.30	65535.00
692.43	65535.00
692.57	65535.00
692.70	65535.00
692.84	65535.00
692.97	65535.00
693.11	65535.00
693.24	65535.00
693.38	65535.00
693.51	65535.00
693.65	65535.00
693.78	65535.00
693.92	65535.00
694.05	65535.00
694.19	65535.00
694.32	65535.00
694.45	65535.00
694.59	65535.00
694.72	65535.00
694.86	65535.00
694.99	65535.00
695.13	65535.00
695.26	65535.00
695.39	65535.00
695.53	65535.00
695.66	65535.00
695.80	65535.00
695.93	65535.00
696.07	65535.00
696.20	65535.00
696.33	65535.00
696.47	65535.00
696.60	65535.00
696.73	65535.00
696.87	65535.00
697.00	65535.00
697.14	65535.00
697.27	65535.00
697.40	65535.00
697.54	65535.00
697.67	65535.00
697.80	65535.00
697.94	65535.00
698.07	65535.00
698.21	65535.00
698.34	65535.00
698.47	65535.00
698.61	65535.00
698.74	65535.00
698.87	65535.00
699.01	65535.00
699.14	65535.00
699.27	65535.00
699.40	65535.00
699.54	65535.00
699.67	65535.00
699.80	65535.00
699.94	65535.00
700.07	65535.00
700.20	65535.00
700.34	65535.00
700.47	65535.00
700.60	65535.00
700.73	65535.00
700.87	65535.00
701.00	65535.00
701.13	65535.00
701.26	65535.00
701.40	65535.00
701.53	65535.00
701.66	65535.00
701.79	65535.00
701.93	65535.00
702.06	65535.00
702.19	65535.00
702.32	65535.00
702.46	65535.00
702.59	65535.00
702.72	65535.00
702.85	65535.00
702.99	65535.00
703.12	65535.00
703.25	65535.00
703.38	65535.00
703.51	65535.00
703.65	65535.00
703.78	65535.00
703.91	65535.00
704.04	65535.00
704.17	65535.00
704.31	65535.00
704.44	65535.00
704.57	65535.00
704.70	65535.00
704.83	65535.00
704.96	65535.00
705.10	65535.00
705.23	65535.00
>>>>>End Processed Spectral Data<<<<<
