SpectraSuite Data File
++++++++++++++++++++++++++++++++++++
Date: Thu Oct 24 13:21:19 EDT 2013
User: stostad
Dark Spectrum Present: No
Reference Spectrum Present: No
Number of Sampled Component Spectra: 1
Spectrometers: USB2+H05261
Integration Time (usec): 100000 (USB2+H05261)
Spectra Averaged: 1 (USB2+H05261)
Boxcar Smoothing: 0 (USB2+H05261)
Correct for Electrical Dark: No (USB2+H05261)
Strobe/Lamp Enabled: No (USB2+H05261)
Correct for Detector Non-linearity: No (USB2+H05261)
Correct for Stray Light: No (USB2+H05261)
Number of Pixels in Processed Spectrum: 2048
>>>>>Begin Processed Spectral Data<<<<<
365.73	592.16
365.92	592.16
366.12	592.16
366.32	458.74
366.52	526.62
366.72	447.04
366.91	545.34
367.11	433.00
367.31	416.62
367.51	458.74
367.70	388.53
367.90	447.04
368.10	461.09
368.30	463.43
368.49	463.43
368.69	470.45
368.89	477.47
369.09	425.98
369.28	505.56
369.48	475.13
369.68	521.94
369.87	482.15
370.07	489.17
370.27	535.98
370.47	674.07
370.66	786.42
370.86	816.85
371.06	844.93
371.25	903.45
371.45	793.44
371.65	987.71
371.84	924.51
372.04	849.61
372.24	870.68
372.44	926.85
372.63	866.00
372.83	901.11
373.03	1036.86
373.22	950.26
373.42	968.98
373.62	917.49
373.81	961.96
374.01	968.98
374.21	952.60
374.40	947.92
374.60	1001.75
374.79	947.92
374.99	971.32
375.19	1025.15
375.38	1027.50
375.58	994.73
375.78	978.34
375.97	997.07
376.17	1067.28
376.37	1013.45
376.56	1013.45
376.76	924.51
376.95	966.64
377.15	971.32
377.35	1008.77
377.54	1062.60
377.74	1095.37
377.93	1008.77
378.13	987.71
378.33	1104.73
378.52	1036.86
378.72	1039.20
378.91	1125.80
379.11	1020.47
379.31	1041.54
379.50	1053.24
379.70	1027.50
379.89	1083.67
380.09	1090.69
380.28	1104.73
380.48	1069.62
380.68	1074.31
380.87	1151.54
381.07	1165.59
381.26	1156.22
381.46	1121.12
381.65	1160.91
381.85	1130.48
382.04	1165.59
382.24	1125.80
382.43	1146.86
382.63	1111.75
382.83	1163.25
383.02	1144.52
383.22	1284.95
383.41	1163.25
383.61	1139.84
383.80	1170.27
384.00	1139.84
384.19	1121.12
384.39	1177.29
384.58	1210.06
384.78	1174.95
384.97	1156.22
385.17	1146.86
385.36	1249.85
385.56	1254.53
385.75	1228.78
385.95	1207.72
386.14	1191.33
386.34	1174.95
386.53	1238.14
386.72	1282.61
386.92	1270.91
387.11	1287.29
387.31	1233.46
387.50	1254.53
387.70	1282.61
387.89	1341.13
388.09	1191.33
388.28	1273.25
388.48	1277.93
388.67	1219.42
388.86	1350.49
389.06	1306.02
389.25	1376.24
389.45	1327.08
389.64	1378.58
389.84	1317.72
390.03	1343.47
390.22	1341.13
390.42	1404.32
390.61	1343.47
390.81	1322.40
391.00	1331.76
391.19	1373.89
391.39	1409.00
391.58	1306.02
391.78	1437.09
391.97	1383.26
392.16	1413.68
392.36	1493.26
392.55	1460.49
392.75	1448.79
392.94	1409.00
393.13	1411.34
393.33	1479.22
393.52	1490.92
393.71	1486.24
393.91	1526.03
394.10	1483.90
394.29	1528.37
394.49	1460.49
394.68	1509.65
394.88	1519.01
395.07	1633.69
395.26	1526.03
395.46	1530.71
395.65	1570.50
395.84	1612.63
396.04	1673.48
396.23	1542.41
396.42	1603.27
396.62	1650.08
396.81	1638.38
397.00	1753.06
397.19	1650.08
397.39	1732.00
397.58	1652.42
397.77	1643.06
397.97	1755.40
398.16	1638.38
398.35	1739.02
398.55	1715.61
398.74	1790.51
398.93	1729.66
399.12	1692.21
399.32	1732.00
399.51	1732.00
399.70	1856.04
399.90	1788.17
400.09	1757.74
400.28	1837.32
400.47	1778.81
400.67	1902.86
400.86	1741.36
401.05	1746.04
401.24	1881.79
401.44	1863.07
401.63	1888.81
401.82	1863.07
402.01	1813.92
402.21	1926.26
402.40	1879.45
402.59	1984.77
402.78	2003.50
402.97	1923.92
403.17	2019.88
403.36	1891.15
403.55	2073.71
403.74	2062.01
403.93	2120.53
404.13	2062.01
404.32	2113.50
404.51	2106.48
404.70	2179.04
404.89	2143.93
405.09	2211.81
405.28	2204.78
405.47	2092.44
405.66	2172.02
405.85	2106.48
406.05	2249.25
406.24	2186.06
406.43	2186.06
406.62	2244.57
406.81	2253.94
407.00	2293.72
407.20	2319.47
407.39	2270.32
407.58	2389.69
407.77	2359.26
407.96	2373.30
408.15	2408.41
408.34	2352.24
408.54	2462.24
408.73	2389.69
408.92	2392.03
409.11	2396.71
409.30	2511.39
409.49	2377.98
409.68	2473.95
409.87	2483.31
410.07	2626.08
410.26	2420.11
410.45	2595.65
410.64	2605.02
410.83	2558.21
411.02	2590.97
411.21	2609.70
411.40	2616.72
411.59	2677.57
411.78	2724.38
411.98	2595.65
412.17	2754.81
412.36	2761.83
412.55	2724.38
412.74	2874.18
412.93	2778.22
413.12	2787.58
413.31	3059.08
413.50	2916.31
413.69	2904.60
413.88	2956.10
414.07	2972.48
414.26	3028.65
414.45	2963.12
414.64	2956.10
414.83	3028.65
415.02	3096.53
415.22	3176.11
415.41	3080.14
415.60	3098.87
415.79	3115.25
415.98	3173.77
416.17	3136.32
416.36	3143.34
416.55	3258.03
416.74	3253.34
416.93	3274.41
417.12	3201.85
417.31	3370.37
417.50	3377.39
417.69	3428.88
417.88	3447.61
418.07	3494.42
418.26	3557.61
418.45	3463.99
418.64	3550.59
418.83	3583.36
419.02	3412.50
419.21	3604.42
419.39	3599.74
419.58	3590.38
419.77	3574.00
419.96	3592.72
420.15	3679.32
420.34	3721.45
420.53	3822.09
420.72	3754.22
420.91	3674.64
421.10	3723.79
421.29	3721.45
421.48	3845.50
421.67	3641.87
421.86	3728.47
422.05	3812.73
422.24	3850.18
422.43	3770.60
422.61	3854.86
422.80	3962.53
422.99	3985.93
423.18	3936.78
423.37	3992.95
423.56	3932.10
423.75	3962.53
423.94	3871.25
424.13	3691.02
424.32	3700.39
424.50	3868.91
424.69	3875.93
424.88	3904.01
425.07	3850.18
425.26	3873.59
425.45	3763.58
425.64	3906.35
425.83	3728.47
426.01	3955.51
426.20	3953.16
426.39	3983.59
426.58	3988.27
426.77	4018.70
426.96	3983.59
427.15	3971.89
427.33	4147.43
427.52	4049.13
427.71	4133.39
427.90	3990.61
428.09	4170.83
428.28	4189.56
428.46	4140.41
428.65	4175.52
428.84	4264.46
429.03	4304.25
429.22	4180.20
429.40	4250.41
429.59	4276.16
429.78	4124.02
429.97	4056.15
430.16	4339.35
430.34	4423.61
430.53	4414.25
430.72	4346.37
430.91	4437.66
431.10	4311.27
431.28	4517.23
431.47	4512.55
431.66	4442.34
431.85	4559.36
432.03	4578.09
432.22	4575.75
432.41	4510.21
432.60	4561.70
432.79	4447.02
432.97	4662.35
433.16	4788.74
433.35	4685.75
433.54	4702.14
433.72	4863.63
433.91	4671.71
434.10	4746.61
434.28	4660.01
434.47	4734.90
434.66	4765.33
434.85	4926.83
435.03	4821.50
435.22	4971.30
435.41	5366.85
435.59	5102.37
435.78	5109.39
435.97	5135.14
436.16	5085.98
436.34	4898.74
436.53	5018.11
436.72	4968.96
436.90	4884.70
437.09	5053.22
437.28	4997.04
437.46	5067.26
437.65	5076.62
437.84	5219.39
438.02	5055.56
438.21	5177.26
438.40	4973.64
438.58	5261.52
438.77	5294.29
438.96	5376.21
439.14	5298.97
439.33	5268.55
439.52	5523.66
439.70	5446.43
439.89	5614.95
440.08	5591.54
440.26	5598.56
440.45	5397.28
440.63	5720.27
440.82	5746.02
441.01	5659.42
441.19	5776.44
441.38	5963.68
441.57	5912.19
441.75	5975.39
441.94	5930.92
442.12	6169.65
442.31	5991.77
442.50	6052.63
442.68	5949.64
442.87	5994.11
443.05	5982.41
443.24	6171.99
443.43	6033.90
443.61	6122.84
443.80	6263.27
443.98	5994.11
444.17	5907.51
444.35	6204.76
444.54	6417.75
444.73	6209.44
444.91	6204.76
445.10	6225.82
445.28	6157.95
445.47	6118.16
445.65	6246.89
445.84	6324.13
446.02	6286.68
446.21	6375.62
446.39	6312.42
446.58	6436.47
446.77	6354.55
446.95	6279.66
447.14	6345.19
447.32	6286.68
447.51	6314.77
447.69	6265.61
447.88	6310.08
448.06	6403.71
448.25	6455.20
448.43	6413.07
448.62	6389.66
448.80	6492.65
448.99	6382.64
449.17	6413.07
449.36	6516.05
449.54	6506.69
449.73	6675.21
449.91	6715.00
450.10	6736.06
450.28	6642.44
450.46	6836.70
450.65	6717.34
450.83	6698.61
451.02	6827.34
451.20	6993.52
451.39	6918.62
451.57	6848.41
451.76	6911.60
451.94	6794.58
452.13	6899.90
452.31	7124.59
452.49	6939.69
452.68	7101.19
452.86	6986.50
453.05	7005.22
453.23	6993.52
453.42	6904.58
453.60	6958.41
453.78	7035.65
453.97	7131.61
454.15	7087.14
454.34	7096.50
454.52	7087.14
454.70	7042.67
454.89	6935.01
455.07	7073.10
455.26	7239.28
455.44	7344.60
455.62	7311.83
455.81	7269.70
455.99	7344.60
456.17	7494.40
456.36	7211.19
456.54	7611.42
456.73	7578.65
456.91	7618.44
457.09	7550.57
457.28	7632.49
457.46	7513.12
457.64	7569.29
457.83	7735.47
458.01	7510.78
458.19	7915.69
458.38	7702.70
458.56	7845.48
458.74	7611.42
458.93	7768.24
459.11	7943.78
459.29	7857.18
459.48	7948.46
459.66	7896.97
459.84	8084.21
460.03	8231.66
460.21	8135.70
460.39	8037.40
460.57	8056.12
460.76	8266.77
460.94	8308.90
461.12	8154.43
461.31	8098.25
461.49	8236.35
461.67	8138.04
461.85	8484.44
462.04	8269.11
462.22	8568.70
462.40	8503.17
462.59	8463.38
462.77	8456.36
462.95	8622.53
463.13	8334.65
463.32	8503.17
463.50	8746.58
463.68	8655.30
463.86	8816.80
464.05	8552.32
464.23	8582.74
464.41	8641.26
464.59	8409.54
464.78	8933.82
464.96	8741.90
465.14	8601.47
465.32	8688.07
465.50	8959.57
465.69	9153.84
465.87	8812.12
466.05	8912.76
466.23	8788.71
466.41	8891.70
466.60	9020.42
466.78	8779.35
466.96	8861.27
467.14	8875.31
467.32	9076.60
467.51	9018.08
467.69	8798.07
467.87	9067.24
468.05	9118.73
468.23	9034.47
468.41	9036.81
468.60	9116.39
468.78	9078.94
468.96	9228.73
469.14	9256.82
469.32	9425.34
469.50	9001.70
469.69	9514.28
469.87	9535.34
470.05	9394.91
470.23	9497.89
470.41	9724.93
470.59	9713.22
470.77	9600.88
470.95	9544.70
471.14	9774.08
471.32	9554.07
471.50	9806.84
471.68	9614.92
471.86	9783.44
472.04	9891.10
472.22	10181.33
472.40	10029.20
472.58	10036.22
472.77	10066.64
472.95	10183.67
473.13	10361.55
473.31	10012.81
473.49	10104.09
473.67	10209.42
473.85	10368.57
474.03	10513.69
474.21	10450.49
474.39	10452.83
474.57	10626.03
474.75	10839.02
474.93	10516.03
475.12	10820.30
475.30	10904.56
475.48	10717.31
475.66	11019.24
475.84	10743.06
476.02	11105.84
476.20	11143.29
476.38	11286.06
476.56	11412.45
476.74	11449.90
476.92	11262.66
477.10	11396.07
477.28	11653.53
477.46	11712.04
477.64	11580.97
477.82	11756.51
478.00	11868.86
478.18	11995.25
478.36	11999.93
478.54	12208.23
478.72	12325.26
478.90	12367.39
479.08	12631.87
479.26	12315.90
479.44	12498.46
479.62	12769.96
479.80	12952.52
479.98	12968.91
480.16	13078.91
480.34	13027.42
480.52	13116.36
480.70	13252.11
480.88	13151.47
481.06	13322.33
481.24	13198.28
481.41	13811.50
481.59	13977.68
481.77	13867.67
481.95	13874.70
482.13	13940.23
482.31	13928.53
482.49	14300.67
482.67	14441.11
482.85	14532.39
483.03	14780.48
483.21	14967.73
483.39	14874.10
483.57	14841.34
483.74	14951.34
483.92	15379.66
484.10	15122.20
484.28	15487.32
484.46	15473.28
484.64	15590.31
484.82	15367.96
485.00	15833.72
485.18	16173.10
485.35	16245.66
485.53	16222.25
485.71	16500.78
485.89	16547.59
486.07	16362.69
486.25	16741.85
486.43	16746.53
486.61	17057.82
486.78	17228.68
486.96	17228.68
487.14	17579.76
487.32	17233.36
487.50	17427.63
487.68	17785.73
487.85	17785.73
488.03	18207.03
488.21	18284.26
488.39	18134.47
488.57	18438.74
488.75	18611.94
488.92	18513.64
489.10	18712.58
489.28	18897.49
489.46	19300.06
489.64	18920.89
489.81	19112.81
489.99	19321.12
490.17	19393.68
490.35	19758.80
490.53	19836.04
490.70	20247.97
490.88	19871.15
491.06	20203.50
491.24	19992.86
491.41	20638.84
491.59	20496.07
491.77	20723.10
491.95	20805.02
492.13	20847.15
492.30	21170.15
492.48	21249.72
492.66	21245.04
492.84	21326.96
493.01	21458.03
493.19	21783.37
493.37	21624.21
493.54	21930.82
493.72	22080.61
493.90	22118.06
494.08	22522.98
494.25	22331.05
494.43	22518.29
494.61	22494.89
494.79	22771.07
494.96	22398.93
495.14	22981.72
495.32	23386.63
495.49	23183.01
495.67	23391.31
495.85	23365.57
496.02	23494.30
496.20	23779.84
496.38	23871.12
496.55	23789.20
496.73	24498.39
496.91	24184.76
497.09	24056.03
497.26	24552.22
497.44	24266.67
497.62	24599.03
497.79	25095.22
497.97	25027.35
498.14	25280.13
498.32	25530.56
498.50	25570.35
498.67	25703.76
498.85	25411.20
499.03	25748.23
499.20	25947.18
499.38	25666.31
499.56	25687.38
499.73	25837.17
499.91	26258.47
500.08	26583.80
500.26	25977.61
500.44	26436.35
500.61	26656.36
500.79	26480.82
500.97	26752.32
501.14	27185.32
501.32	27143.19
501.49	27042.55
501.67	27143.19
501.84	27302.35
502.02	26752.32
502.20	27307.03
502.37	27466.19
502.55	27424.06
502.72	27826.63
502.90	27730.67
503.07	28046.64
503.25	27786.84
503.43	27913.23
503.60	28318.14
503.78	28147.28
503.95	27920.25
504.13	28102.81
504.30	28414.10
504.48	28266.65
504.65	28512.41
504.83	29359.68
505.01	28872.85
505.18	28769.86
505.36	28959.45
505.53	28767.52
505.71	28999.24
505.88	29638.20
506.06	29249.67
506.23	29408.83
506.41	29156.05
506.58	29780.98
506.76	29399.47
506.93	29394.79
507.11	29926.09
507.28	29970.56
507.46	29738.85
507.63	29963.54
507.81	29951.84
507.98	29729.48
508.16	29886.30
508.33	30258.45
508.50	30478.46
508.68	30560.37
508.85	30824.86
509.03	30492.50
509.20	30998.06
509.38	31070.61
509.55	31065.93
509.73	31164.23
509.90	31484.89
510.08	31316.37
510.25	31772.77
510.42	31632.34
510.60	31681.49
510.77	31903.84
510.95	31924.91
511.12	32044.27
511.30	32123.85
511.47	32259.60
511.64	32243.22
511.82	32245.56
511.99	32362.59
512.17	32070.02
512.34	32343.86
512.51	32790.91
512.69	32954.74
512.86	32769.84
513.04	32781.54
513.21	33394.76
513.38	33104.54
513.56	32608.34
513.73	32760.48
513.90	33151.35
514.08	33387.74
514.25	33574.98
514.43	33591.37
514.60	33556.26
514.77	33633.50
514.95	33998.62
515.12	33420.51
515.29	33558.60
515.47	34157.78
515.64	33893.30
515.81	34094.58
515.99	34007.98
516.16	34216.29
516.33	34455.03
516.51	34660.99
516.68	34373.11
516.85	34593.12
517.03	34684.40
517.20	35269.53
517.37	34609.50
517.54	34506.52
517.72	34604.82
517.89	34859.94
518.06	35129.10
518.24	35318.68
518.41	35096.33
518.58	35253.15
518.75	35189.95
518.93	35379.54
519.10	35234.42
519.27	35370.18
519.45	35831.26
519.62	35873.39
519.79	35873.39
519.96	35786.79
520.14	35934.24
520.31	35356.13
520.48	35997.44
520.65	35662.74
520.83	35962.33
521.00	35852.33
521.17	36332.14
521.34	36062.97
521.52	36004.46
521.69	36392.99
521.86	36704.28
522.03	37120.90
522.20	37076.43
522.38	37322.18
522.55	36989.83
522.72	37376.01
522.89	36940.68
523.07	37453.25
523.24	37144.30
523.41	37605.39
523.58	36959.40
523.75	37670.92
523.92	37659.22
524.10	37544.53
524.27	37701.35
524.44	37832.42
524.61	37717.73
524.78	37867.53
524.96	37523.47
525.13	38115.62
525.30	38242.01
525.47	38492.45
525.64	38497.13
525.81	38239.67
525.98	38398.83
526.16	38195.20
526.33	38342.66
526.50	38543.94
526.67	38831.83
526.84	38490.11
527.01	39075.24
527.18	38607.14
527.36	38864.60
527.53	38653.95
527.70	39166.52
527.87	39271.85
528.04	38712.46
528.21	39405.26
528.38	39136.10
528.55	39379.51
528.72	39658.04
528.89	39271.85
529.07	39105.67
529.24	39173.55
529.41	39765.70
529.58	39487.18
529.75	39524.63
529.92	39634.63
530.09	39620.59
530.26	39847.62
530.43	40032.52
530.60	39751.66
530.77	39592.50
530.94	40348.50
531.11	39997.41
531.28	40201.04
531.46	40444.46
531.63	40041.88
531.80	40388.28
531.97	40498.29
532.14	40524.04
532.31	40388.28
532.48	40769.79
532.65	40774.47
532.82	40863.41
532.99	40538.08
533.16	40451.48
533.33	41111.51
533.50	40959.38
533.67	41020.23
533.84	40760.43
534.01	41170.02
534.18	40797.88
534.35	41500.04
534.52	40933.63
534.69	40893.84
534.86	40931.29
535.03	40868.09
535.20	41600.68
535.37	41436.84
535.54	41951.76
535.71	41383.01
535.88	41591.32
536.05	41893.25
536.22	41944.74
536.38	42024.32
536.55	41979.85
536.72	42003.25
536.89	42541.58
537.06	42405.83
537.23	42548.60
537.40	42405.83
537.57	42160.07
537.74	42033.68
537.91	42614.13
538.08	42389.44
538.25	41860.48
538.42	42443.27
538.59	42464.34
538.75	42387.10
538.92	42869.25
539.09	42930.11
539.26	42394.12
539.43	42068.79
539.60	42394.12
539.77	42635.20
539.94	43178.20
540.11	43014.37
540.28	43346.72
540.44	43367.79
540.61	43180.54
540.78	43023.73
540.95	43157.14
541.12	43171.18
541.29	43559.71
541.46	43604.18
541.62	44318.04
541.79	43510.56
541.96	43353.74
542.13	43416.94
542.30	43615.88
542.47	43730.57
542.63	43732.91
542.80	43973.98
542.97	43997.39
543.14	44156.55
543.31	44439.75
543.48	44327.41
543.64	44926.58
543.81	44577.84
543.98	44383.58
544.15	44296.98
544.32	44311.02
544.48	44601.25
544.65	44825.94
544.82	44765.09
544.99	44336.77
545.16	45132.55
545.32	45059.99
545.49	45158.30
545.66	45500.01
545.83	45687.26
546.00	46043.02
546.16	45467.25
546.33	44839.98
546.50	45003.82
546.67	45010.84
546.83	44584.86
547.00	45043.61
547.17	44678.49
547.34	45106.80
547.50	45490.65
547.67	45881.52
547.84	45605.34
548.00	45963.44
548.17	45794.92
548.34	45471.93
548.51	45813.65
548.67	45378.31
548.84	45890.88
549.01	45633.42
549.18	45731.73
549.34	45483.63
549.51	45975.14
549.68	45705.98
549.84	45954.08
550.01	45514.06
550.18	45443.84
550.34	45305.75
550.51	45846.41
550.68	46050.04
550.84	45916.63
551.01	46045.36
551.18	45902.59
551.34	45254.26
551.51	45720.02
551.68	45478.95
551.84	46239.62
552.01	45853.44
552.18	46223.24
552.34	46248.99
552.51	46251.33
552.68	46466.66
552.84	46878.59
553.01	46461.97
553.18	46595.38
553.34	46342.61
553.51	46057.06
553.67	46569.64
553.84	46766.24
554.01	47026.04
554.17	46920.72
554.34	46522.83
554.51	46663.26
554.67	46995.62
554.84	46497.08
555.00	46274.73
555.17	46370.69
555.33	46644.54
555.50	46852.84
555.67	47030.72
555.83	46571.98
556.00	47110.30
556.16	47143.07
556.33	46892.63
556.50	46557.94
556.66	47234.35
556.83	46904.34
556.99	47388.83
557.16	47114.98
557.32	47316.27
557.49	47669.69
557.65	47007.32
557.82	47061.15
557.98	47313.93
558.15	47297.55
558.32	47168.82
558.48	46941.78
558.65	47342.02
558.81	47550.32
558.98	47576.07
559.14	47461.38
559.31	47580.75
559.47	47229.67
559.64	47388.83
559.80	47800.76
559.97	47688.42
560.13	47276.48
560.30	47540.96
560.46	47533.94
560.63	47407.55
560.79	47934.17
560.96	47817.14
561.12	47861.61
561.29	47899.06
561.45	47763.31
561.61	48020.77
561.78	47629.90
561.94	47798.42
562.11	48383.55
562.27	48203.33
562.44	48493.56
562.60	47739.91
562.77	47819.49
562.93	48109.71
563.10	47924.81
563.26	47798.42
563.42	48133.12
563.59	48308.66
563.75	47959.92
563.92	48751.02
564.08	48154.18
564.24	48348.45
564.41	47840.55
564.57	47992.68
564.74	47782.04
564.90	48428.02
565.07	48439.73
565.23	48444.41
565.39	48509.94
565.56	48509.94
565.72	47796.08
565.88	48435.05
566.05	48343.77
566.21	48154.18
566.38	48018.43
566.54	48364.83
566.70	48626.97
566.87	48484.20
567.03	48060.56
567.19	49059.97
567.36	48884.43
567.52	48224.40
567.68	48514.62
567.85	48416.32
568.01	48893.79
568.17	48519.31
568.34	48617.61
568.50	48498.24
568.66	48760.38
568.83	48589.52
568.99	48624.63
569.15	48350.79
569.32	48463.13
569.48	48673.78
569.64	48842.30
569.81	48570.80
569.97	48516.96
570.13	48903.15
570.30	48416.32
570.46	48638.67
570.62	48563.78
570.78	48727.61
570.95	48772.08
571.11	48893.79
571.27	48655.06
571.43	48732.29
571.60	48526.33
571.76	48786.13
571.92	48809.53
572.09	49015.50
572.25	49151.25
572.41	49031.88
572.57	48767.40
572.74	49085.72
572.90	49216.78
573.06	48751.02
573.22	48966.35
573.38	48814.21
573.55	48854.00
573.71	48846.98
573.87	48760.38
574.03	48465.47
574.20	48896.13
574.36	48746.34
574.52	48774.42
574.68	49169.97
574.84	49333.81
575.01	49003.80
575.17	49069.33
575.33	48917.20
575.49	48596.54
575.65	48835.28
575.82	49169.97
575.98	49162.95
576.14	49392.33
576.30	49153.59
576.46	48589.52
576.62	48896.13
576.79	49181.68
576.95	49162.95
577.11	49418.07
577.27	49343.17
577.43	49043.59
577.59	49153.59
577.75	49455.52
577.92	48832.94
578.08	49029.54
578.24	48781.45
578.40	49305.73
578.56	49148.91
578.72	49219.13
578.88	49600.63
579.04	49635.74
579.21	49511.69
579.37	49347.86
579.53	49413.39
579.69	49389.98
579.85	48935.92
580.01	49673.19
580.17	49198.06
580.33	49364.24
580.49	49104.44
580.65	49291.68
580.82	49549.14
580.98	49336.15
581.14	49584.25
581.30	49858.09
581.46	49249.55
581.62	49303.38
581.78	49146.57
581.94	49071.67
582.10	49263.60
582.26	49397.01
582.42	49120.82
582.58	49247.21
582.74	49249.55
582.90	49464.88
583.06	49443.82
583.22	49551.48
583.38	49326.79
583.54	49200.40
583.70	49345.51
583.86	49523.40
584.02	49263.60
584.18	49198.06
584.34	49507.01
584.50	49738.72
584.66	49382.96
584.82	49443.82
584.98	49439.14
585.14	49406.37
585.30	49198.06
585.46	49799.58
585.62	49134.87
585.78	50033.63
585.94	49450.84
586.10	49434.45
586.26	49464.88
586.42	49712.98
586.58	49532.76
586.74	49429.77
586.90	49488.29
587.06	49265.94
587.22	49797.24
587.38	49315.09
587.54	49703.62
587.70	49996.18
587.86	49668.51
588.02	49827.66
588.18	50162.36
588.34	50014.91
588.49	49766.81
588.65	49556.16
588.81	49549.14
588.97	49563.18
589.13	49687.23
589.29	49745.75
589.45	49869.79
589.61	50131.93
589.77	49848.73
589.93	49670.85
590.08	49909.58
590.24	50248.96
590.40	49869.79
590.56	49989.16
590.72	49553.82
590.88	49544.46
591.04	49968.10
591.20	50197.47
591.35	50211.51
591.51	50412.80
591.67	50155.34
591.83	50429.18
591.99	49785.54
592.15	50101.51
592.31	49975.12
592.46	50167.04
592.62	49841.71
592.78	49921.29
592.94	50302.79
593.10	50061.72
593.26	50602.38
593.41	50401.10
593.57	50120.23
593.73	50358.97
593.89	50321.52
594.05	49853.41
594.20	49518.71
594.36	49808.94
594.52	49921.29
594.68	49741.06
594.84	50237.26
594.99	50532.17
595.15	50078.10
595.31	50000.86
595.47	50368.33
595.62	50394.07
595.78	50042.99
595.94	49984.48
596.10	49729.36
596.25	49780.85
596.41	49734.04
596.57	49811.28
596.73	49844.05
596.88	49954.05
597.04	50267.69
597.20	50609.40
597.36	50138.96
597.51	50347.26
597.67	50033.63
597.83	49837.03
597.99	50342.58
598.14	50042.99
598.30	50174.06
598.46	50157.68
598.61	50522.80
598.77	50504.08
598.93	50019.59
599.09	50319.18
599.24	50586.00
599.40	50387.05
599.56	50038.31
599.71	50560.25
599.87	50429.18
600.03	50113.21
600.18	50328.54
600.34	49918.95
600.50	50061.72
600.65	50206.83
600.81	50459.61
600.97	50279.39
601.12	50569.61
601.28	50335.56
601.44	50143.64
601.59	50492.38
601.75	50394.07
601.91	50511.10
602.06	50244.28
602.22	50148.32
602.37	50433.86
602.53	50361.31
602.69	50370.67
602.84	50309.82
603.00	50375.35
603.16	50454.93
603.31	50138.96
603.47	50384.71
603.62	50365.99
603.78	50328.54
603.94	49748.09
604.09	50363.65
604.25	50248.96
604.40	50312.16
604.56	50492.38
604.71	50583.66
604.87	50326.20
605.03	50274.71
605.18	50145.98
605.34	50284.07
605.49	50047.68
605.65	49876.82
605.80	49881.50
605.96	50363.65
606.12	50569.61
606.27	50461.95
606.43	50487.70
606.58	50344.92
606.74	50501.74
606.89	50174.06
607.05	50082.78
607.20	49996.18
607.36	49495.31
607.51	49883.84
607.67	49675.53
607.82	50206.83
607.98	50005.55
608.13	49918.95
608.29	49811.28
608.44	49944.69
608.60	50195.13
608.75	50300.45
608.91	49773.83
609.06	50050.02
609.22	50246.62
609.37	49837.03
609.53	50263.00
609.68	49996.18
609.84	49827.66
609.99	49989.16
610.15	50101.51
610.30	50057.04
610.46	50553.23
610.61	50660.90
610.76	50347.26
610.92	50513.44
611.07	50410.46
611.23	50380.03
611.38	50801.33
611.54	50890.27
611.69	50548.55
611.84	50789.62
612.00	50436.20
612.15	50731.11
612.31	50499.40
612.46	50073.42
612.62	50103.85
612.77	50101.51
612.92	50115.55
613.08	49757.45
613.23	49862.77
613.39	49474.24
613.54	49984.48
613.69	50099.17
613.85	50398.76
614.00	49815.96
614.15	49916.61
614.31	50188.11
614.46	50478.33
614.62	49649.78
614.77	49656.81
614.92	50005.55
615.08	49193.38
615.23	49991.50
615.38	49916.61
615.54	49441.48
615.69	49471.90
615.84	49347.86
616.00	49792.56
616.15	49560.84
616.30	49977.46
616.46	49474.24
616.61	49186.36
616.76	49542.12
616.92	49059.97
617.07	49436.80
617.22	49188.70
617.37	49085.72
617.53	49017.84
617.68	49305.73
617.83	49607.65
617.99	49287.00
618.14	49448.50
618.29	49294.02
618.45	49661.49
618.60	49188.70
618.75	48748.68
618.90	48692.50
619.06	48591.86
619.21	48612.93
619.36	48652.72
619.51	48671.44
619.67	48605.91
619.82	48655.06
619.97	49134.87
620.12	48942.94
620.28	49099.76
620.43	49488.29
620.58	49235.51
620.73	49097.42
620.89	48875.07
621.04	49083.37
621.19	48893.79
621.34	48556.75
621.49	48856.34
621.65	48495.90
621.80	49102.10
621.95	49029.54
622.10	48854.00
622.25	48488.88
622.41	48631.65
622.56	48456.11
622.71	48725.27
622.86	48273.55
623.01	47941.19
623.16	48076.94
623.32	48051.20
623.47	48858.68
623.62	48561.44
623.77	48311.00
623.92	48725.27
624.07	48727.61
624.23	48736.98
624.38	48603.56
624.53	48580.16
624.68	48381.21
624.83	48498.24
624.98	48182.27
625.13	48128.44
625.29	48238.44
625.44	48163.54
625.59	48100.35
625.74	48308.66
625.89	47917.79
626.04	47889.70
626.19	48053.54
626.34	47976.30
626.49	47992.68
626.65	47679.05
626.80	47828.85
626.95	47821.83
627.10	47978.64
627.25	47299.89
627.40	47861.61
627.55	47686.07
627.70	47798.42
627.85	47496.49
628.00	47349.04
628.15	47461.38
628.30	47660.33
628.45	47936.51
628.60	47414.57
628.76	47735.23
628.91	47667.35
629.06	47377.12
629.21	47571.39
629.36	47344.36
629.51	47569.05
629.66	47592.45
629.81	47037.75
629.96	47430.96
630.11	47543.30
630.26	47803.10
630.41	47416.91
630.56	47054.13
630.71	47278.82
630.86	47657.99
631.01	47695.44
631.16	47224.99
631.31	47019.02
631.46	46791.99
631.61	47409.89
631.76	46791.99
631.91	46990.94
632.06	47084.56
632.21	46511.13
632.36	46621.13
632.51	46976.89
632.66	47140.73
632.81	46752.20
632.96	46988.60
633.10	46941.78
633.25	46689.01
633.40	46824.76
633.55	46763.90
633.70	46583.68
633.85	46667.94
634.00	46656.24
634.15	46515.81
634.30	46501.76
634.45	46284.09
634.60	46878.59
634.75	46700.71
634.90	46534.53
635.05	46494.74
635.19	46384.74
635.34	46328.56
635.49	46382.40
635.64	46284.09
635.79	46344.95
635.94	45879.18
636.09	46319.20
636.24	46885.61
636.39	46529.85
636.53	46621.13
636.68	46349.63
636.83	46464.32
636.98	46241.96
637.13	46174.09
637.28	46241.96
637.43	45916.63
637.57	45467.25
637.72	45633.42
637.87	45722.37
638.02	46157.70
638.17	46124.94
638.32	45642.79
638.46	45586.61
638.61	45832.37
638.76	45925.99
638.91	45965.78
639.06	45783.22
639.20	46136.64
639.35	45705.98
639.50	45682.58
639.65	46078.13
639.80	45830.03
639.94	45141.91
640.09	45184.04
640.24	45577.25
640.39	45591.30
640.54	45560.87
640.68	45542.14
640.83	45467.25
640.98	45256.60
641.13	44835.30
641.27	45645.13
641.42	45291.71
641.57	44800.19
641.72	44917.22
641.86	45097.44
642.01	44362.51
642.16	45006.16
642.31	44994.46
642.45	45326.81
642.60	45015.52
642.75	44804.88
642.90	44678.49
643.04	45352.56
643.19	44648.06
643.34	45406.39
643.48	45291.71
643.63	45219.15
643.78	44802.53
643.93	44683.17
644.07	44722.96
644.22	44512.31
644.37	44149.53
644.51	44868.07
644.66	44854.03
644.81	44884.45
644.95	45265.96
645.10	44872.75
645.25	44999.14
645.39	45003.82
645.54	44729.98
645.69	44641.04
645.83	44594.23
645.98	44430.39
646.13	44343.79
646.27	44594.23
646.42	44519.33
646.57	44837.64
646.71	44446.77
646.86	44828.28
647.00	44439.75
647.15	44603.59
647.30	44463.16
647.44	44135.48
647.59	44416.35
647.74	44280.60
647.88	44339.11
648.03	44322.72
648.17	44306.34
648.32	43995.05
648.47	44313.36
648.61	43789.08
648.76	44184.63
648.90	44137.82
649.05	43882.70
649.20	44083.99
649.34	44179.95
649.49	44383.58
649.63	44596.57
649.78	44453.79
649.92	44184.63
650.07	44287.62
650.21	44264.21
650.36	43920.15
650.51	44041.86
650.65	44074.63
650.80	44079.31
650.94	43964.62
651.09	43335.02
651.23	43622.90
651.38	43765.68
651.52	44027.82
651.67	43515.24
651.81	43379.49
651.96	43548.01
652.10	43761.00
652.25	43697.80
652.39	43473.11
652.54	43276.51
652.68	43217.99
652.83	43344.38
652.97	43154.80
653.12	43353.74
653.26	43253.10
653.41	43903.77
653.55	43503.54
653.70	43428.64
653.84	43765.68
653.99	43428.64
654.13	43241.40
654.27	43414.60
654.42	43206.29
654.56	43171.18
654.71	43398.21
654.85	43033.09
655.00	43005.00
655.14	42948.83
655.29	42986.28
655.43	42630.52
655.57	42440.93
655.72	42604.77
655.86	43016.71
656.01	43026.07
656.15	42777.97
656.30	42763.93
656.44	43292.89
656.58	42983.94
656.73	43147.78
656.87	42588.39
657.01	43187.56
657.16	43360.76
657.30	42768.61
657.45	42256.03
657.59	42639.88
657.73	42480.72
657.88	42066.45
658.02	42211.56
658.16	42960.53
658.31	42766.27
658.45	42583.71
658.60	42478.38
658.74	42562.64
658.88	42164.75
659.03	42094.53
659.17	42038.36
659.31	42419.87
659.46	41691.96
659.60	41680.26
659.74	41785.58
659.89	41464.93
660.03	41979.85
660.17	42127.30
660.32	41780.90
660.46	41155.98
660.60	41603.02
660.74	41366.63
660.89	41944.74
661.03	41296.41
661.17	41588.98
661.32	41017.89
661.46	41453.23
661.60	40954.69
661.74	41383.01
661.89	40755.75
662.03	41359.61
662.17	41104.49
662.31	40718.30
662.46	41008.53
662.60	41167.68
662.74	40605.95
662.88	40367.22
663.03	40828.30
663.17	40914.90
663.31	41022.57
663.45	41078.74
663.60	40575.53
663.74	40343.81
663.88	40304.02
664.02	40304.02
664.17	40093.38
664.31	40196.36
664.45	39835.92
664.59	40718.30
664.73	40254.87
664.88	40741.71
665.02	39566.76
665.16	40158.91
665.30	40023.16
665.44	40435.10
665.59	39711.87
665.73	39484.84
665.87	39892.09
666.01	39959.97
666.15	39482.50
666.29	39601.86
666.44	40306.37
666.58	39278.87
666.72	39119.71
666.86	39590.16
667.00	39849.96
667.14	39089.29
667.28	38995.67
667.43	39164.18
667.57	39328.02
667.71	39306.96
667.85	39342.06
667.99	38897.36
668.13	38728.84
668.27	38951.20
668.41	39180.57
668.56	38286.48
668.70	38464.36
668.84	38223.29
668.98	37989.24
669.12	37846.46
669.26	38417.55
669.40	38286.48
669.54	38075.84
669.68	38300.53
669.82	38211.59
669.96	38277.12
670.10	38153.07
670.25	38223.29
670.39	38132.01
670.53	37598.37
670.67	37940.08
670.81	38164.78
670.95	37792.63
671.09	37130.26
671.23	37184.09
671.37	37642.84
671.51	37731.78
671.65	37897.95
671.79	37598.37
671.93	37500.06
672.07	37359.63
672.21	37441.55
672.35	37612.41
672.49	37020.25
672.63	37088.13
672.77	36971.10
672.91	37008.55
673.05	36414.05
673.19	36634.06
673.33	36533.42
673.47	36252.56
673.61	37153.66
673.75	36219.79
673.89	36437.46
674.03	36102.76
674.17	36336.82
674.31	36439.80
674.45	36378.95
674.59	36371.92
674.73	36458.52
674.87	36222.13
675.01	35592.53
675.15	35512.95
675.29	35835.94
675.43	35325.71
675.56	35342.09
675.70	35452.09
675.84	35047.18
675.98	34015.01
676.12	35281.24
676.26	34892.71
676.40	35110.38
676.54	35117.40
676.68	34679.72
676.82	34127.35
676.96	34707.80
677.10	34740.57
677.23	34586.10
677.37	34885.68
677.51	34291.19
677.65	33816.06
677.79	33530.51
677.93	33577.33
678.07	33736.48
678.21	34066.50
678.34	33591.37
678.48	33567.96
678.62	33455.62
678.76	33308.16
678.90	32971.13
679.04	33219.22
679.18	33141.99
679.31	32315.78
679.45	33053.05
679.59	32797.93
679.73	32711.33
679.87	32917.29
680.00	32886.87
680.14	32425.78
680.28	32589.62
680.42	32573.24
680.56	32313.44
680.70	32030.23
680.83	31494.25
680.97	31789.16
681.11	31999.80
681.25	31524.68
681.39	31892.14
681.52	31892.14
681.66	31433.39
681.80	31417.01
681.94	30756.98
682.07	31290.62
682.21	31075.29
682.35	31325.73
682.49	31398.29
682.62	30906.77
682.76	30707.83
682.90	30705.49
683.04	30532.29
683.17	30733.57
683.31	30256.11
683.45	30771.02
683.59	30068.86
683.72	30029.07
683.86	30167.16
684.00	30101.63
684.13	29865.24
684.27	29432.24
684.41	29603.10
684.55	29722.46
684.68	29659.27
684.82	29804.38
684.96	29104.56
685.09	28903.28
685.23	29284.78
685.37	29319.89
685.50	29326.91
685.64	28961.79
685.78	28786.25
685.91	28664.54
686.05	28980.51
686.19	28238.56
686.32	28395.38
686.46	28175.37
686.60	28264.31
686.73	28301.76
686.87	28486.66
687.01	28229.20
687.14	28011.53
687.28	27681.52
687.42	27585.55
687.55	27651.09
687.69	27557.47
687.82	27211.07
687.96	27608.96
688.10	26977.01
688.23	27683.86
688.37	27089.36
688.50	27147.87
688.64	27094.04
688.78	27536.40
688.91	26883.39
689.05	26993.40
689.18	26132.08
689.32	26064.21
689.46	26389.54
689.59	26141.44
689.73	26043.14
689.86	25902.71
690.00	25593.76
690.13	25869.94
690.27	25329.28
690.41	25722.49
690.54	25167.78
690.68	25422.90
690.81	25528.22
690.95	25675.68
691.08	25441.62
691.22	25326.94
691.35	25441.62
691.49	25127.99
691.62	25186.50
691.76	25165.44
691.89	25050.75
692.03	25195.87
692.16	24931.39
692.30	24290.08
692.43	24648.18
692.57	24484.34
692.70	24521.79
692.84	24474.98
692.97	24070.07
693.11	24341.57
693.24	23817.29
693.38	23833.68
693.51	23503.66
693.65	23747.08
693.78	23662.82
693.92	23985.81
694.05	23152.58
694.19	23248.54
694.32	23363.23
694.45	23164.28
694.59	23028.53
694.72	23087.04
694.86	22731.28
694.99	22419.99
695.13	22228.07
695.26	22370.84
695.39	22471.48
695.53	22480.85
695.66	22045.51
695.80	22312.33
695.93	21881.67
696.07	21834.86
696.20	22001.04
696.33	21844.22
696.47	21909.75
696.60	22015.08
696.73	21914.44
696.87	21844.22
697.00	21671.02
697.14	21160.78
697.27	21153.76
697.40	21099.93
697.54	21209.93
697.67	20734.81
697.80	20484.37
697.94	20706.72
698.07	20781.62
698.21	20486.71
698.34	20477.35
698.47	20556.93
698.61	20423.51
698.74	20198.82
698.87	20582.67
699.01	20133.29
699.14	20325.21
699.27	20271.38
699.40	20355.64
699.54	20285.42
699.67	19822.00
699.80	19779.87
699.94	19522.41
700.07	19501.34
700.20	19033.24
700.34	18939.62
700.47	19183.03
700.60	19470.92
700.73	19314.10
700.87	19166.65
701.00	18881.10
701.13	18642.37
701.26	18621.30
701.40	18700.88
701.53	18410.65
701.66	18331.08
701.79	18061.91
701.93	18588.53
702.06	18361.50
702.19	18527.68
702.32	18061.91
702.46	17855.95
702.59	17820.84
702.72	17547.00
702.85	17619.55
702.99	17745.94
703.12	17752.96
703.25	17834.88
703.38	17729.56
703.51	17418.27
703.65	17432.31
703.78	17612.53
703.91	17291.88
704.04	17568.06
704.17	17362.09
704.31	17275.49
704.44	16915.05
704.57	16856.54
704.70	16676.32
704.83	16741.85
704.96	16276.09
705.10	16453.97
705.23	16500.78
>>>>>End Processed Spectral Data<<<<<
