SpectraSuite Data File
++++++++++++++++++++++++++++++++++++
Date: Thu Oct 24 13:21:10 EDT 2013
User: stostad
Dark Spectrum Present: No
Reference Spectrum Present: No
Number of Sampled Component Spectra: 1
Spectrometers: USB2+H05261
Integration Time (usec): 100000 (USB2+H05261)
Spectra Averaged: 1 (USB2+H05261)
Boxcar Smoothing: 0 (USB2+H05261)
Correct for Electrical Dark: No (USB2+H05261)
Strobe/Lamp Enabled: No (USB2+H05261)
Correct for Detector Non-linearity: No (USB2+H05261)
Correct for Stray Light: No (USB2+H05261)
Number of Pixels in Processed Spectrum: 2048
>>>>>Begin Processed Spectral Data<<<<<
365.73	594.50
365.92	594.50
366.12	594.50
366.32	514.92
366.52	479.81
366.72	418.96
366.91	472.79
367.11	425.98
367.31	489.17
367.51	475.13
367.70	482.15
367.90	514.92
368.10	505.56
368.30	498.53
368.49	458.74
368.69	472.79
368.89	489.17
369.09	449.38
369.28	461.09
369.48	437.68
369.68	526.62
369.87	475.13
370.07	472.79
370.27	528.96
370.47	596.84
370.66	706.84
370.86	716.20
371.06	795.78
371.25	770.04
371.45	746.63
371.65	627.26
371.84	828.55
372.04	777.06
372.24	809.83
372.44	791.10
372.63	732.59
372.83	784.08
373.03	760.67
373.22	706.84
373.42	739.61
373.62	753.65
373.81	798.12
374.01	858.98
374.21	786.42
374.40	795.78
374.60	795.78
374.79	823.87
374.99	786.42
375.19	833.23
375.38	805.14
375.58	819.19
375.78	882.38
375.97	903.45
376.17	826.21
376.37	856.64
376.56	772.38
376.76	844.93
376.95	819.19
377.15	807.48
377.35	873.02
377.54	816.85
377.74	791.10
377.93	835.57
378.13	931.53
378.33	880.04
378.52	795.78
378.72	837.91
378.91	875.36
379.11	788.76
379.31	828.55
379.50	819.19
379.70	837.91
379.89	880.04
380.09	788.76
380.28	861.32
380.48	938.55
380.68	903.45
380.87	901.11
381.07	840.25
381.26	1034.52
381.46	837.91
381.65	912.81
381.85	884.72
382.04	926.85
382.24	940.90
382.43	936.21
382.63	819.19
382.83	908.13
383.02	905.79
383.22	887.06
383.41	833.23
383.61	910.47
383.80	898.77
384.00	891.74
384.19	856.64
384.39	830.89
384.58	945.58
384.78	877.70
384.97	915.15
385.17	954.94
385.36	823.87
385.56	964.30
385.75	842.59
385.95	950.26
386.14	866.00
386.34	870.68
386.53	936.21
386.72	901.11
386.92	1032.18
387.11	983.02
387.31	940.90
387.50	915.15
387.70	917.49
387.89	964.30
388.09	957.28
388.28	966.64
388.48	936.21
388.67	992.39
388.86	868.34
389.06	980.68
389.25	985.37
389.45	964.30
389.64	961.96
389.84	1050.90
390.03	1029.84
390.22	964.30
390.42	1008.77
390.61	980.68
390.81	1048.56
391.00	1029.84
391.19	1057.92
391.39	994.73
391.58	922.17
391.78	1057.92
391.97	1015.79
392.16	947.92
392.36	1041.54
392.55	1018.13
392.75	997.07
392.94	1139.84
393.13	1116.44
393.33	1020.47
393.52	990.05
393.71	1102.39
393.91	1013.45
394.10	1011.11
394.29	1107.07
394.49	1123.46
394.68	1078.99
394.88	1100.05
395.07	1083.67
395.26	1055.58
395.46	1078.99
395.65	1074.31
395.84	1188.99
396.04	1137.50
396.23	1167.93
396.42	1118.78
396.62	1167.93
396.81	1156.22
397.00	1090.69
397.19	1219.42
397.39	1235.80
397.58	1184.31
397.77	1210.06
397.97	1191.33
398.16	1179.63
398.35	1144.52
398.55	1203.04
398.74	1193.67
398.93	1317.72
399.12	1242.82
399.32	1214.74
399.51	1198.35
399.70	1181.97
399.90	1238.14
400.09	1160.91
400.28	1256.87
400.47	1221.76
400.67	1235.80
400.86	1270.91
401.05	1301.34
401.24	1263.89
401.44	1289.64
401.63	1303.68
401.82	1341.13
402.01	1266.23
402.21	1334.11
402.40	1317.72
402.59	1263.89
402.78	1301.34
402.97	1308.36
403.17	1343.47
403.36	1224.10
403.55	1336.45
403.74	1401.98
403.93	1455.81
404.13	1413.68
404.32	1404.32
404.51	1362.19
404.70	1425.39
404.89	1446.45
405.09	1432.41
405.28	1394.96
405.47	1474.54
405.66	1392.62
405.85	1404.32
406.05	1446.45
406.24	1399.64
406.43	1535.39
406.62	1427.73
406.81	1624.33
407.00	1530.71
407.20	1507.30
407.39	1406.66
407.58	1556.46
407.77	1523.69
407.96	1586.88
408.15	1584.54
408.34	1563.48
408.54	1584.54
408.73	1584.54
408.92	1526.03
409.11	1593.90
409.30	1547.09
409.49	1535.39
409.68	1537.73
409.87	1563.48
410.07	1629.01
410.26	1650.08
410.45	1643.06
410.64	1640.72
410.83	1650.08
411.02	1727.32
411.21	1675.82
411.40	1652.42
411.59	1619.65
411.78	1692.21
411.98	1797.53
412.17	1692.21
412.36	1708.59
412.55	1729.66
412.74	1891.15
412.93	1823.28
413.12	1816.26
413.31	1926.26
413.50	1858.39
413.69	1764.76
413.88	1846.68
414.07	1914.56
414.26	1870.09
414.45	1916.90
414.64	1916.90
414.83	1933.28
415.02	1970.73
415.22	1989.46
415.41	1987.11
415.60	1921.58
415.79	1959.03
415.98	1959.03
416.17	1996.48
416.36	1954.35
416.55	1930.94
416.74	2029.24
416.93	2015.20
417.12	2015.20
417.31	2083.08
417.50	2101.80
417.69	2155.63
417.88	2052.65
418.07	2057.33
418.26	2179.04
418.45	2153.29
418.64	2162.66
418.83	2132.23
419.02	2183.72
419.21	2270.32
419.39	2244.57
419.58	2235.21
419.77	2165.00
419.96	2214.15
420.15	2244.57
420.34	2232.87
420.53	2277.34
420.72	2326.49
420.91	2289.04
421.10	2300.75
421.29	2216.49
421.48	2256.28
421.67	2272.66
421.86	2331.17
422.05	2377.98
422.24	2296.07
422.43	2387.35
422.61	2368.62
422.80	2380.32
422.99	2265.64
423.18	2321.81
423.37	2436.50
423.56	2307.77
423.75	2410.75
423.94	2368.62
424.13	2310.11
424.32	2300.75
424.50	2338.20
424.69	2373.30
424.88	2382.67
425.07	2366.28
425.26	2333.51
425.45	2326.49
425.64	2310.11
425.83	2324.15
426.01	2368.62
426.20	2267.98
426.39	2298.41
426.58	2335.85
426.77	2331.17
426.96	2408.41
427.15	2534.80
427.33	2396.71
427.52	2506.71
427.71	2466.92
427.90	2436.50
428.09	2544.16
428.28	2406.07
428.46	2480.97
428.65	2464.58
428.84	2490.33
429.03	2527.78
429.22	2495.01
429.40	2621.40
429.59	2443.52
429.78	2560.55
429.97	2457.56
430.16	2450.54
430.34	2551.18
430.53	2609.70
430.72	2523.10
430.91	2553.52
431.10	2637.78
431.28	2672.89
431.47	2628.42
431.66	2771.19
431.85	2787.58
432.03	2747.79
432.22	2871.84
432.41	2731.41
432.60	2623.74
432.79	2670.55
432.97	2743.11
433.16	2808.64
433.35	2801.62
433.54	2729.06
433.72	2822.69
433.91	2761.83
434.10	2757.15
434.28	2757.15
434.47	2829.71
434.66	2724.38
434.85	2813.32
435.03	3021.63
435.22	3145.68
435.41	3337.60
435.59	3304.84
435.78	3227.60
435.97	3016.95
436.16	3035.67
436.34	2953.76
436.53	2953.76
436.72	2984.18
436.90	2928.01
437.09	2867.16
437.28	2848.43
437.46	3073.12
437.65	2998.23
437.84	2986.52
438.02	3124.62
438.21	3005.25
438.40	2897.58
438.58	3141.00
438.77	3112.91
438.96	3091.85
439.14	3180.79
439.33	3169.09
439.52	3208.87
439.70	3075.46
439.89	3234.62
440.08	3332.92
440.26	3290.79
440.45	3173.77
440.63	3314.20
440.82	3269.73
441.01	3363.35
441.19	3274.41
441.38	3391.44
441.57	3332.92
441.75	3428.88
441.94	3454.63
442.12	3377.39
442.31	3473.36
442.50	3435.91
442.68	3435.91
442.87	3438.25
443.05	3454.63
443.24	3564.64
443.43	3482.72
443.61	3445.27
443.80	3609.11
443.98	3541.23
444.17	3351.65
444.35	3456.97
444.54	3599.74
444.73	3552.93
444.91	3503.78
445.10	3754.22
445.28	3702.73
445.47	3431.23
445.65	3454.63
445.84	3590.38
446.02	3602.08
446.21	3534.21
446.39	3599.74
446.58	3604.42
446.77	3667.62
446.95	3571.66
447.14	3524.85
447.32	3730.81
447.51	3611.45
447.69	3513.14
447.88	3627.83
448.06	3662.94
448.25	3698.05
448.43	3634.85
448.62	3754.22
448.80	3662.94
448.99	3815.07
449.17	3822.09
449.36	3698.05
449.54	3803.37
449.73	3794.01
449.91	3801.03
450.10	3726.13
450.28	3880.61
450.46	3943.80
450.65	3747.20
450.83	3812.73
451.02	3772.94
451.20	3906.35
451.39	3852.52
451.57	3808.05
451.76	3871.25
451.94	3971.89
452.13	3889.97
452.31	3838.48
452.49	3925.08
452.68	3871.25
452.86	3960.19
453.05	3962.53
453.23	4081.89
453.42	3861.88
453.60	3904.01
453.78	3899.33
453.97	4002.32
454.15	3889.97
454.34	3885.29
454.52	4084.23
454.70	4049.13
454.89	4072.53
455.07	4042.11
455.26	4072.53
455.44	4264.46
455.62	4128.70
455.81	4091.26
455.99	4177.86
456.17	4114.66
456.36	4266.80
456.54	4217.65
456.73	4283.18
456.91	4292.54
457.09	4135.73
457.28	4297.22
457.46	4147.43
457.64	4159.13
457.83	4337.01
458.01	4379.14
458.19	4407.23
458.38	4348.72
458.56	4416.59
458.74	4458.72
458.93	4322.97
459.11	4311.27
459.29	4355.74
459.48	4458.72
459.66	4449.36
459.84	4517.23
460.03	4456.38
460.21	4566.39
460.39	4470.42
460.57	4582.77
460.76	4458.72
460.94	4601.49
461.12	4652.98
461.31	4629.58
461.49	4524.26
461.67	4660.01
461.85	4599.15
462.04	4634.26
462.22	5004.07
462.40	4901.08
462.59	4564.04
462.77	4662.35
462.95	4753.63
463.13	4674.05
463.32	4671.71
463.50	4812.14
463.68	4924.49
463.86	4770.01
464.05	4592.13
464.23	4751.29
464.41	4784.06
464.59	4695.11
464.78	4912.78
464.96	4826.18
465.14	4744.27
465.32	4842.57
465.50	4933.85
465.69	4950.23
465.87	4840.23
466.05	4959.60
466.23	4720.86
466.41	4898.74
466.60	5041.51
466.78	4903.42
466.96	4873.00
467.14	4992.36
467.32	4901.08
467.51	5025.13
467.69	4910.44
467.87	5027.47
468.05	4997.04
468.23	5008.75
468.41	4873.00
468.60	5123.43
468.78	5055.56
468.96	5043.85
469.14	5078.96
469.32	5153.86
469.50	5088.32
469.69	5067.26
469.87	5217.05
470.05	5195.99
470.23	5071.94
470.41	5149.18
470.59	5341.10
470.77	5118.75
470.95	5301.31
471.14	5413.66
471.32	5181.95
471.50	5404.30
471.68	5373.87
471.86	5413.66
472.04	5577.50
472.22	5544.73
472.40	5387.91
472.58	5493.24
472.77	5561.11
472.95	5528.35
473.13	5827.93
473.31	5636.01
473.49	5579.84
473.67	5547.07
473.85	5633.67
474.03	5729.63
474.21	5701.54
474.39	5841.98
474.57	5701.54
474.75	5832.62
474.93	5804.53
475.12	5788.14
475.30	5895.81
475.48	5921.56
475.66	6193.06
475.84	5881.77
476.02	6005.81
476.20	6202.42
476.38	6141.57
476.56	6211.78
476.74	6143.91
476.92	6010.50
477.10	6232.85
477.28	6202.42
477.46	6270.30
477.64	6232.85
477.82	6286.68
478.00	6626.06
478.18	6326.47
478.36	6576.91
478.54	6537.12
478.72	6523.07
478.90	6829.68
479.08	6658.82
479.26	6691.59
479.44	6686.91
479.62	6918.62
479.80	6953.73
479.98	6960.75
480.16	7124.59
480.34	6874.15
480.52	7026.29
480.70	7243.96
480.88	7033.31
481.06	7155.02
481.24	7171.40
481.41	7232.26
481.59	7232.26
481.77	7215.87
481.95	7414.82
482.13	7445.24
482.31	7405.46
482.49	7873.56
482.67	7669.94
482.85	7840.79
483.03	7770.58
483.21	7826.75
483.39	7824.41
483.57	7941.44
483.74	8081.87
483.92	8210.60
484.10	7920.37
484.28	8107.62
484.46	8369.76
484.64	8409.54
484.82	8187.19
485.00	8568.70
485.18	8500.83
485.35	8667.00
485.53	8627.21
485.71	8690.41
485.89	8786.37
486.07	8812.12
486.25	8798.07
486.43	8709.13
486.61	8898.72
486.78	9172.56
486.96	9062.55
487.14	9149.15
487.32	9074.26
487.50	9310.65
487.68	9214.69
487.85	9551.73
488.03	9689.82
488.21	9666.41
488.39	9741.31
488.57	9727.27
488.75	9647.69
488.92	9811.53
489.10	9881.74
489.28	9816.21
489.46	10026.86
489.64	9886.42
489.81	9975.36
489.99	10113.45
490.17	10319.42
490.35	10303.04
490.53	10375.59
490.70	10785.19
490.88	10560.50
491.06	10506.66
491.24	10471.56
491.41	10853.06
491.59	10726.68
491.77	10593.26
491.95	10787.53
492.13	10864.77
492.30	11094.14
492.48	10775.83
492.66	11066.05
492.84	11012.22
493.01	11262.66
493.19	11248.61
493.37	11576.29
493.54	11150.31
493.72	11435.86
493.90	11595.01
494.08	11592.67
494.25	11728.42
494.43	11449.90
494.61	11693.32
494.79	11630.12
494.96	11705.02
495.14	12046.74
495.32	11999.93
495.49	12229.30
495.67	12241.00
495.85	12053.76
496.02	12081.85
496.20	12402.50
496.38	12442.29
496.55	12140.36
496.73	12615.49
496.91	12610.81
497.09	12549.95
497.26	12430.59
497.44	12727.83
497.62	12657.62
497.79	12898.69
497.97	13099.98
498.14	13008.70
498.32	13284.88
498.50	12945.50
498.67	13118.70
498.85	13137.43
499.03	13158.49
499.20	13219.35
499.38	13224.03
499.56	13259.13
499.73	13429.99
499.91	13341.05
500.08	13408.93
500.26	13537.66
500.44	13427.65
500.61	13591.49
500.79	13657.03
500.97	13872.36
501.14	13846.61
501.32	13968.32
501.49	13472.12
501.67	13895.76
501.84	14017.47
502.02	14085.34
502.20	13968.32
502.37	14029.17
502.55	14075.98
502.72	14064.28
502.90	14064.28
503.07	14052.58
503.25	14244.50
503.43	14111.09
503.60	14387.27
503.78	14281.95
503.95	14331.10
504.13	14621.33
504.30	14450.47
504.48	14633.03
504.65	14743.03
504.83	14857.72
505.01	14878.79
505.18	14785.16
505.36	15028.58
505.53	14633.03
505.71	14693.88
505.88	14979.43
506.06	15143.27
506.23	15105.82
506.41	15066.03
506.58	14918.57
506.76	15176.03
506.93	15169.01
507.11	15166.67
507.28	15365.62
507.46	15316.47
507.63	15630.10
507.81	15461.58
507.98	15257.95
508.16	15440.51
508.33	15648.82
508.50	15690.95
508.68	15499.03
508.85	15756.49
509.03	15906.28
509.20	15913.30
509.38	15590.31
509.55	15957.77
509.73	15857.13
509.90	16149.70
510.08	16273.74
510.25	16060.76
510.42	16088.84
510.60	16259.70
510.77	16510.14
510.95	16257.36
511.12	16109.91
511.30	16519.50
511.47	16339.28
511.64	16418.86
511.82	16648.23
511.99	16163.74
512.17	16606.10
512.34	16332.26
512.51	16863.56
512.69	16709.08
512.86	16835.47
513.04	16755.90
513.21	16641.21
513.38	16791.00
513.56	16568.65
513.73	16851.86
513.90	16933.78
514.08	17102.29
514.25	17132.72
514.43	17144.42
514.60	16723.13
514.77	16908.03
514.95	17350.39
515.12	17444.01
515.29	17249.75
515.47	17273.15
515.64	17633.60
515.81	17289.54
515.99	17554.02
516.16	17280.18
516.33	17652.32
516.51	17755.30
516.68	17352.73
516.85	17778.71
517.03	17642.96
517.20	17509.55
517.37	17834.88
517.54	17666.36
517.72	17816.16
517.89	17825.52
518.06	17834.88
518.24	17970.63
518.41	17895.74
518.58	17729.56
518.75	18026.81
518.93	17912.12
519.10	17891.06
519.27	17937.87
519.45	18183.62
519.62	18267.88
519.79	18108.72
519.96	18288.95
520.14	18497.25
520.31	18167.24
520.48	18185.96
520.65	18483.21
520.83	18478.53
521.00	18647.05
521.17	18422.36
521.34	18607.26
521.52	18518.32
521.69	18558.11
521.86	18799.18
522.03	18965.36
522.20	18815.57
522.38	18717.26
522.55	18682.16
522.72	18576.83
522.89	18838.97
523.07	19014.51
523.24	19044.94
523.41	18937.27
523.58	18717.26
523.75	19019.19
523.92	18967.70
524.10	19321.12
524.27	19297.72
524.44	19337.51
524.61	18906.85
524.78	19330.48
524.96	19239.20
525.13	19531.77
525.30	19349.21
525.47	19548.15
525.64	19201.76
525.81	19536.45
525.98	19536.45
526.16	19374.95
526.33	19688.59
526.50	19648.80
526.67	19653.48
526.84	19442.83
527.01	19683.91
527.18	19709.65
527.36	19777.53
527.53	19534.11
527.70	19791.57
527.87	19674.54
528.04	19866.47
528.21	20081.80
528.38	19763.48
528.55	19814.98
528.72	19758.80
528.89	20116.90
529.07	19623.05
529.24	19824.34
529.41	19946.05
529.58	20173.08
529.75	20503.09
529.92	20439.90
530.09	20290.10
530.26	20159.03
530.43	20280.74
530.60	20290.10
530.77	19887.53
530.94	20655.23
531.11	20311.17
531.28	20102.86
531.46	20538.20
531.63	20390.75
531.80	20397.77
531.97	20678.63
532.14	20231.59
532.31	20510.11
532.48	20659.91
532.65	20762.89
532.82	20636.50
532.99	20526.50
533.16	20533.52
533.33	20807.36
533.50	20940.77
533.67	20835.45
533.84	20388.41
534.01	20879.92
534.18	21132.70
534.35	21231.00
534.52	20758.21
534.69	20652.89
534.86	20830.77
535.03	21111.63
535.20	20856.51
535.37	21036.74
535.54	21472.07
535.71	21149.08
535.88	21366.75
536.05	21156.10
536.22	21380.79
536.38	21207.59
536.55	21387.82
536.72	21350.37
536.89	21261.43
537.06	21263.77
537.23	21305.90
537.40	21664.00
537.57	21252.06
537.74	21359.73
537.91	21799.75
538.08	21820.81
538.25	21394.84
538.42	21476.76
538.59	21963.59
538.75	21696.77
538.92	21687.40
539.09	21568.04
539.26	21687.40
539.43	21692.08
539.60	21816.13
539.77	21977.63
539.94	21970.61
540.11	22134.45
540.28	21795.07
540.44	21881.67
540.61	21762.30
540.78	22031.46
540.95	22307.65
541.12	22331.05
541.29	22305.31
541.46	22221.05
541.62	22263.18
541.79	22822.56
541.96	22487.87
542.13	22579.15
542.30	22576.81
542.47	22785.12
542.63	22686.81
542.80	22668.09
542.97	22948.95
543.14	23222.80
543.31	22897.46
543.48	22565.10
543.64	22885.76
543.81	22787.46
543.98	22951.29
544.15	22948.95
544.32	22916.19
544.48	23112.79
544.65	22958.31
544.82	23112.79
544.99	22984.06
545.16	23201.73
545.32	23119.81
545.49	23709.63
545.66	23871.12
545.83	24311.14
546.00	24278.38
546.16	23702.61
546.33	23786.86
546.50	23307.05
546.67	23110.45
546.83	22682.13
547.00	23161.94
547.17	22967.68
547.34	23005.13
547.50	23412.38
547.67	23328.12
547.84	23269.61
548.00	23644.09
548.17	23536.43
548.34	23229.82
548.51	23096.41
548.67	23185.35
548.84	23293.01
549.01	23337.48
549.18	23386.63
549.34	23480.25
549.51	23309.40
549.68	23452.17
549.84	22953.63
550.01	23728.35
550.18	23227.48
550.34	23447.49
550.51	22974.70
550.68	23307.05
550.84	23335.14
551.01	23470.89
551.18	23487.28
551.34	23201.73
551.51	23585.58
551.68	23264.92
551.84	23220.45
552.01	23126.83
552.18	23541.11
552.34	23260.24
552.51	23714.31
552.68	23302.37
552.84	23316.42
553.01	23784.52
553.18	23536.43
553.34	23644.09
553.51	23648.77
553.67	23824.31
553.84	24105.18
554.01	23908.57
554.17	24222.20
554.34	23840.70
554.51	23737.71
554.67	23756.44
554.84	23960.06
555.00	23782.18
555.17	23356.21
555.33	23838.36
555.50	23683.88
555.67	23772.82
555.83	23786.86
556.00	23826.65
556.16	24135.60
556.33	24144.97
556.50	23838.36
556.66	23969.43
556.83	23693.24
556.99	24072.41
557.16	24453.92
557.32	24212.84
557.49	24034.96
557.65	24109.86
557.82	24133.26
557.98	23864.10
558.15	24123.90
558.32	24025.60
558.48	24056.03
558.65	24339.23
558.81	24121.56
558.98	24086.45
559.14	24432.85
559.31	23850.06
559.47	24112.20
559.64	23955.38
559.80	23997.51
559.97	24360.30
560.13	23999.85
560.30	24032.62
560.46	24004.53
560.63	24687.97
560.79	24161.35
560.96	24346.25
561.12	24423.49
561.29	24299.44
561.45	24409.45
561.61	24025.60
561.78	24339.23
561.94	24301.78
562.11	24526.47
562.27	24432.85
562.44	24517.11
562.60	24496.05
562.77	23880.49
562.93	24159.01
563.10	24762.87
563.26	24105.18
563.42	24552.22
563.59	24425.83
563.75	24489.03
563.92	24526.47
564.08	24292.42
564.24	24648.18
564.41	24709.04
564.57	24629.46
564.74	24168.37
564.90	24552.22
565.07	24847.13
565.23	24615.41
565.39	24687.97
565.56	24456.26
565.72	24444.56
565.88	24273.70
566.05	24474.98
566.21	24566.26
566.38	24507.75
566.54	24765.21
566.70	24732.44
566.87	24467.96
567.03	24744.14
567.19	24669.25
567.36	25064.80
567.52	24748.82
567.68	24915.00
567.85	24657.54
568.01	24816.70
568.17	24774.57
568.34	24741.80
568.50	24903.30
568.66	24746.48
568.83	24772.23
568.99	24603.71
569.15	24650.52
569.32	24748.82
569.48	24446.90
569.64	24723.08
569.81	24786.27
569.97	24215.18
570.13	24608.39
570.30	24634.14
570.46	25090.54
570.62	24772.23
570.78	24540.52
570.95	24893.94
571.11	24746.48
571.27	24781.59
571.43	24973.52
571.60	24800.32
571.76	25025.01
571.92	24664.57
572.09	25142.03
572.25	24889.26
572.41	24931.39
572.57	24699.67
572.74	25020.33
572.90	24692.65
573.06	25151.40
573.22	24882.24
573.38	25060.12
573.55	24868.19
573.71	24805.00
573.87	24952.45
574.03	25015.65
574.20	24652.86
574.36	24533.50
574.52	24844.79
574.68	25088.20
574.84	24900.96
575.01	24847.13
575.17	24631.80
575.33	24781.59
575.49	24910.32
575.65	24964.15
575.82	25123.31
575.98	24898.62
576.14	25106.93
576.30	25137.35
576.46	24893.94
576.62	25188.85
576.79	25474.39
576.95	24879.89
577.11	25207.57
577.27	25188.85
577.43	25165.44
577.59	25053.09
577.75	25029.69
577.92	24439.87
578.08	25209.91
578.24	24849.47
578.40	25170.12
578.56	25111.61
578.72	25245.02
578.88	25338.64
579.04	25418.22
579.21	25193.53
579.37	25532.90
579.53	24870.53
579.69	24762.87
579.85	25329.28
580.01	25392.47
580.17	25181.82
580.33	24524.13
580.49	24898.62
580.65	25186.50
580.82	25301.19
580.98	25132.67
581.14	25085.86
581.30	25404.17
581.46	25312.89
581.62	25053.09
581.78	24915.00
581.94	24929.05
582.10	25036.71
582.26	24884.58
582.42	24893.94
582.58	25324.60
582.74	25172.46
582.90	24802.66
583.06	25383.11
583.22	25132.67
583.38	25277.79
583.54	25123.31
583.70	25289.49
583.86	25390.13
584.02	25081.18
584.18	25116.29
584.34	25338.64
584.50	25069.48
584.66	24959.47
584.82	24662.22
584.98	25483.75
585.14	24774.57
585.30	25404.17
585.46	25025.01
585.62	24973.52
585.78	25092.88
585.94	25207.57
586.10	24996.92
586.26	25104.59
586.42	25371.41
586.58	25139.69
586.74	25184.16
586.90	25322.26
587.06	25256.72
587.22	25586.74
587.38	25329.28
587.54	25385.45
587.70	25394.81
587.86	25549.29
588.02	25331.62
588.18	25385.45
588.34	24847.13
588.49	25404.17
588.65	25144.38
588.81	25259.06
588.97	25270.76
589.13	25046.07
589.29	25228.63
589.45	25132.67
589.61	25348.00
589.77	25518.86
589.93	25212.25
590.08	25741.21
590.24	25422.90
590.40	25518.86
590.56	25263.74
590.72	25294.17
590.88	25095.22
591.04	24823.72
591.20	25294.17
591.35	25284.81
591.51	25628.87
591.67	25600.78
591.83	25785.68
591.99	25738.87
592.15	25621.84
592.31	25530.56
592.46	25364.39
592.62	25394.81
592.78	25207.57
592.94	25338.64
593.10	25310.55
593.26	25511.84
593.41	25661.63
593.57	25624.18
593.73	25338.64
593.89	25486.09
594.05	25373.75
594.20	25242.68
594.36	25254.38
594.52	25422.90
594.68	25628.87
594.84	25455.67
594.99	25837.17
595.15	25373.75
595.31	25736.53
595.47	25303.53
595.62	25621.84
595.78	25230.98
595.94	25284.81
596.10	25380.77
596.25	25399.49
596.41	25355.02
596.57	25404.17
596.73	25298.85
596.88	25425.24
597.04	25254.38
597.20	25418.22
597.36	25642.91
597.51	25773.98
597.67	25343.32
597.83	25544.61
597.99	25572.69
598.14	26010.37
598.30	25795.04
598.46	25331.62
598.61	25649.93
598.77	25553.97
598.93	25280.13
599.09	25322.26
599.24	25914.41
599.40	25771.64
599.56	25762.28
599.71	25818.45
599.87	25788.02
600.03	25874.62
600.18	25399.49
600.34	25617.16
600.50	25507.16
600.65	25621.84
600.81	25577.37
600.97	25544.61
601.12	25549.29
601.28	25577.37
601.44	25537.59
601.59	25731.85
601.75	25469.71
601.91	25631.21
602.06	25476.73
602.22	25591.42
602.37	25624.18
602.53	25530.56
602.69	25771.64
602.84	25558.65
603.00	25701.42
603.16	25502.48
603.31	25333.96
603.47	25397.15
603.62	25748.23
603.78	25275.45
603.94	25516.52
604.09	25488.43
604.25	25596.10
604.40	25560.99
604.56	25869.94
604.71	25551.63
604.87	25766.96
605.03	25624.18
605.18	25165.44
605.34	25228.63
605.49	25418.22
605.65	25528.22
605.80	25130.33
605.96	25376.09
606.12	25268.42
606.27	25582.06
606.43	25142.03
606.58	25439.28
606.74	25401.83
606.89	25493.12
607.05	25371.41
607.20	25284.81
607.36	25303.53
607.51	25294.17
607.67	24947.77
607.82	25598.44
607.98	25394.81
608.13	25446.30
608.29	25649.93
608.44	25617.16
608.60	25441.62
608.75	25483.75
608.91	25312.89
609.06	25230.98
609.22	26024.42
609.37	24903.30
609.53	25270.76
609.68	25294.17
609.84	25252.04
609.99	25481.41
610.15	25624.18
610.30	25823.13
610.46	25860.58
610.61	26106.34
610.76	26239.75
610.92	26398.90
611.07	26260.81
611.23	26403.58
611.38	26742.96
611.54	26246.77
611.69	26583.80
611.84	26183.57
612.00	25869.94
612.15	26052.50
612.31	25886.32
612.46	25106.93
612.62	25343.32
612.77	25340.98
612.92	25532.90
613.08	25411.20
613.23	25600.78
613.39	25308.21
613.54	25579.71
613.69	25205.23
613.85	25195.87
614.00	25549.29
614.15	25240.34
614.31	25422.90
614.46	25418.22
614.62	25425.24
614.77	25010.96
614.92	25158.42
615.08	25057.78
615.23	25305.87
615.38	24954.79
615.54	24694.99
615.69	24608.39
615.84	25053.09
616.00	25043.73
616.15	24929.05
616.30	24926.71
616.46	25032.03
616.61	24367.32
616.76	24929.05
616.92	24498.39
617.07	24814.36
617.22	24254.97
617.37	24261.99
617.53	24783.93
617.68	24755.85
617.83	24334.55
617.99	24900.96
618.14	24805.00
618.29	24819.04
618.45	24634.14
618.60	24905.64
618.75	24512.43
618.90	24273.70
619.06	24390.72
619.21	24154.33
619.36	24587.33
619.51	24301.78
619.67	24400.08
619.82	24278.38
619.97	24418.81
620.12	24311.14
620.28	24685.63
620.43	24739.46
620.58	24421.15
620.73	24606.05
620.89	24430.51
621.04	24615.41
621.19	24428.17
621.34	24287.74
621.49	24201.14
621.65	24130.92
621.80	24308.80
621.95	24261.99
622.10	24032.62
622.25	24465.62
622.41	24215.18
622.56	24229.23
622.71	24549.88
622.86	24044.32
623.01	23953.04
623.16	24091.13
623.32	23814.95
623.47	23955.38
623.62	24313.48
623.77	24072.41
623.92	24318.17
624.07	24549.88
624.23	23768.14
624.38	24245.61
624.53	23768.14
624.68	23957.72
624.83	24182.42
624.98	24381.36
625.13	23845.38
625.29	24273.70
625.44	24215.18
625.59	23939.00
625.74	23831.33
625.89	24013.90
626.04	23683.88
626.19	23728.35
626.34	23775.16
626.49	23859.42
626.65	23639.41
626.80	23583.24
626.95	23711.97
627.10	23543.45
627.25	23651.11
627.40	23255.56
627.55	23889.85
627.70	23658.14
627.85	23754.10
628.00	23597.28
628.15	23690.90
628.30	23501.32
628.45	23489.62
628.60	23503.66
628.76	23323.44
628.91	23484.94
629.06	23410.04
629.21	23541.11
629.36	23220.45
629.51	23419.40
629.66	23400.68
629.81	23140.88
629.96	23431.10
630.11	23133.86
630.26	23285.99
630.41	23449.83
630.56	23405.36
630.71	23517.70
630.86	23758.78
631.01	23295.35
631.16	23550.47
631.31	23159.60
631.46	22888.10
631.61	23218.11
631.76	22871.72
631.91	23583.24
632.06	23098.75
632.21	23206.41
632.36	23091.73
632.51	23021.51
632.66	23075.34
632.81	22836.61
632.96	23054.28
633.10	23175.98
633.25	23115.13
633.40	23068.32
633.55	22831.93
633.70	22508.93
633.85	22993.42
634.00	22588.51
634.15	22923.21
634.30	22948.95
634.45	23318.76
634.60	22726.60
634.75	22815.54
634.90	22970.02
635.05	22766.39
635.19	22490.21
635.34	23091.73
635.49	22991.08
635.64	22604.89
635.79	22752.35
635.94	22520.63
636.09	22696.17
636.24	22745.33
636.39	22471.48
636.53	22684.47
636.68	22555.74
636.83	22721.92
636.98	22679.79
637.13	22466.80
637.28	22574.47
637.43	22672.77
637.57	22485.53
637.72	22581.49
637.87	22670.43
638.02	22251.47
638.17	22328.71
638.32	22562.76
638.46	22349.78
638.61	22359.14
638.76	22499.57
638.91	22429.35
639.06	22670.43
639.20	22665.75
639.35	22630.64
639.50	22192.96
639.65	22228.07
639.80	22169.55
639.94	22410.63
640.09	22345.09
640.24	22272.54
640.39	22396.59
640.54	22115.72
640.68	22001.04
640.83	22342.75
640.98	22237.43
641.13	22153.17
641.27	22216.36
641.42	22008.06
641.57	22415.31
641.72	22019.76
641.86	21919.12
642.01	21635.91
642.16	22036.14
642.31	21788.05
642.45	22134.45
642.60	21771.66
642.75	21951.88
642.90	21986.99
643.04	21563.36
643.19	21895.71
643.34	22036.14
643.48	22279.56
643.63	21937.84
643.78	21394.84
643.93	22022.10
644.07	21605.49
644.22	21921.46
644.37	21472.07
644.51	21881.67
644.66	22118.06
644.81	22066.57
644.95	21813.79
645.10	22001.04
645.25	22239.77
645.39	22071.25
645.54	21774.00
645.69	22015.08
645.83	21986.99
645.98	21991.67
646.13	21708.47
646.27	21621.87
646.42	21743.58
646.57	21596.12
646.71	21790.39
646.86	21472.07
647.00	21790.39
647.15	21514.20
647.30	21607.83
647.44	21682.72
647.59	21708.47
647.74	21385.47
647.88	21514.20
648.03	21584.42
648.17	21439.31
648.32	21013.33
648.47	21376.11
648.61	21661.66
648.76	21350.37
648.90	21575.06
649.05	21284.83
649.20	21577.40
649.34	21455.69
649.49	21497.82
649.63	21736.56
649.78	21448.67
649.92	21369.09
650.07	21418.24
650.21	21699.11
650.36	21298.88
650.51	21310.58
650.65	21476.76
650.80	21518.89
650.94	21195.89
651.09	21270.79
651.23	20966.52
651.38	21095.25
651.52	21212.28
651.67	21418.24
651.81	21451.01
651.96	21558.67
652.10	21322.28
652.25	21055.46
652.39	21160.78
652.54	20954.82
652.68	20730.12
652.83	21160.78
652.97	20917.37
653.12	20821.41
653.26	20786.30
653.41	21027.37
653.55	21406.54
653.70	21254.40
653.84	20973.54
653.99	20774.60
654.13	20842.47
654.27	20734.81
654.42	21039.08
654.56	20886.94
654.71	20959.50
654.85	20989.92
655.00	20882.26
655.14	20938.43
655.29	20592.03
655.43	20748.85
655.57	20851.83
655.72	20879.92
655.86	20861.19
656.01	20856.51
656.15	20814.38
656.30	20247.97
656.44	20547.56
656.58	20596.71
656.73	20442.24
656.87	20470.33
657.01	20395.43
657.16	20652.89
657.30	20435.22
657.45	20603.74
657.59	20673.95
657.73	20453.94
657.88	20301.81
658.02	20521.82
658.16	20325.21
658.31	20276.06
658.45	20306.49
658.60	19946.05
658.74	20093.50
658.88	20484.37
659.03	20191.80
659.17	20297.13
659.31	20376.70
659.46	20451.60
659.60	20212.87
659.74	20273.72
659.89	20123.93
660.03	20121.59
660.17	20170.74
660.32	20184.78
660.46	19955.41
660.60	19929.66
660.74	19999.88
660.89	20196.48
661.03	19857.10
661.17	19714.33
661.32	19866.47
661.46	19878.17
661.60	19910.94
661.74	19772.85
661.89	20067.75
662.03	19594.96
662.17	19616.03
662.31	19580.92
662.46	19527.09
662.60	19611.35
662.74	19424.11
662.88	19695.61
663.03	19545.81
663.17	19683.91
663.31	19618.37
663.45	19576.24
663.60	19346.87
663.74	19683.91
663.88	19686.25
664.02	19257.93
664.17	19377.30
664.31	18932.59
664.45	19180.69
664.59	19058.98
664.73	19222.82
664.88	19339.85
665.02	19023.87
665.16	19356.23
665.30	19257.93
665.44	19484.96
665.59	18934.93
665.73	18981.74
665.87	18876.42
666.01	19110.47
666.15	19243.88
666.29	18663.43
666.44	18946.64
666.58	18548.75
666.72	18698.54
666.86	18686.84
667.00	18717.26
667.14	18668.11
667.28	18862.38
667.43	18679.82
667.57	19077.71
667.71	18492.57
667.85	18649.39
667.99	18771.10
668.13	18944.30
668.27	18843.65
668.41	18640.03
668.56	18511.30
668.70	18436.40
668.84	18429.38
668.98	18071.28
669.12	18183.62
669.26	18405.97
669.40	18469.17
669.54	18223.41
669.68	18106.38
669.82	18352.14
669.96	18272.56
670.10	18043.19
670.25	18338.10
670.39	17905.10
670.53	18047.87
670.67	18162.56
670.81	18228.09
670.95	17972.97
671.09	17994.04
671.23	17640.62
671.37	18127.45
671.51	17806.80
671.65	17928.50
671.79	17841.90
671.93	17652.32
672.07	17963.61
672.21	17476.78
672.35	17689.77
672.49	17425.29
672.63	17638.28
672.77	17411.25
672.91	17642.96
673.05	17544.66
673.19	17434.65
673.33	17352.73
673.47	17142.08
673.61	17153.79
673.75	17149.11
673.89	16940.80
674.03	17074.21
674.17	17167.83
674.31	16959.52
674.45	17188.89
674.59	17099.95
674.73	17104.64
674.87	17209.96
675.01	16737.17
675.15	17039.10
675.29	17362.09
675.43	16826.11
675.56	17085.91
675.70	16711.42
675.84	16575.67
675.98	16130.97
676.12	16620.14
676.26	16959.52
676.40	16936.12
676.54	16671.64
676.68	16514.82
676.82	16341.62
676.96	16585.04
677.10	16727.81
677.23	16596.74
677.37	16685.68
677.51	16383.75
677.65	16191.83
677.79	15999.90
677.93	15854.79
678.07	15768.19
678.21	15779.89
678.34	15683.93
678.48	15875.85
678.62	15838.41
678.76	15742.44
678.90	15754.15
679.04	15772.87
679.18	15531.80
679.31	15407.75
679.45	15571.58
679.59	15147.95
679.73	15597.33
679.87	15442.85
680.00	15463.92
680.14	15250.93
680.28	15339.87
680.42	15407.75
680.56	15492.01
680.70	15126.88
680.83	15204.12
680.97	15122.20
681.11	15351.57
681.25	14925.60
681.39	14930.28
681.52	15044.96
681.66	15014.54
681.80	14906.87
681.94	14696.22
682.07	14649.41
682.21	14754.74
682.35	14944.32
682.49	14712.61
682.62	14485.58
682.76	14361.53
682.90	14508.98
683.04	14303.01
683.17	14382.59
683.31	14326.42
683.45	14389.61
683.59	14298.33
683.72	14019.81
683.86	14209.39
684.00	14288.97
684.13	14122.79
684.27	13696.82
684.41	13907.46
684.55	13916.83
684.68	13825.54
684.82	13675.75
684.96	13715.54
685.09	13511.91
685.23	13844.27
685.37	14057.26
685.50	13788.10
685.64	13717.88
685.78	13657.03
685.91	13752.99
686.05	13441.70
686.19	13186.58
686.32	13460.42
686.46	13245.09
686.60	13172.54
686.73	13334.03
686.87	13341.05
687.01	13104.66
687.14	13401.91
687.28	13036.78
687.42	12713.79
687.55	12903.37
687.69	13102.32
687.82	12947.84
687.96	12851.88
688.10	12856.56
688.23	12919.76
688.37	12924.44
688.50	12617.83
688.64	12491.44
688.78	12819.11
688.91	12547.61
689.05	12332.28
689.18	12390.80
689.32	12004.61
689.46	12198.87
689.59	12121.63
689.73	12547.61
689.86	12152.06
690.00	12285.47
690.13	12503.14
690.27	12173.13
690.41	12203.55
690.54	11817.36
690.68	11899.28
690.81	12030.35
690.95	12042.06
691.08	11878.22
691.22	11653.53
691.35	11644.17
691.49	11896.94
691.62	11796.30
691.76	11786.94
691.89	11847.79
692.03	11597.35
692.16	11489.69
692.30	11513.10
692.43	11545.86
692.57	11447.56
692.70	11419.47
692.84	11611.40
692.97	11573.95
693.11	11459.26
693.24	11290.74
693.38	11052.01
693.51	11232.23
693.65	10911.58
693.78	10946.69
693.92	11054.35
694.05	11080.10
694.19	11225.21
694.32	11052.01
694.45	11145.63
694.59	11026.26
694.72	10848.38
694.86	10576.88
694.99	10359.21
695.13	10406.02
695.26	10733.70
695.39	10380.28
695.53	10471.56
695.66	10387.30
695.80	10246.87
695.93	10366.23
696.07	10424.75
696.20	10368.57
696.33	10225.80
696.47	10354.53
696.60	10197.71
696.73	10356.87
696.87	10300.70
697.00	10012.81
697.14	10333.47
697.27	10232.82
697.40	10038.56
697.54	9769.40
697.67	9909.83
697.80	9811.53
697.94	9891.10
698.07	9818.55
698.21	9788.12
698.34	9717.90
698.47	9378.53
698.61	9760.03
698.74	9317.67
698.87	9600.88
699.01	9298.95
699.14	9458.10
699.27	9476.83
699.40	9525.98
699.54	9565.77
699.67	9359.80
699.80	9095.32
699.94	9064.89
700.07	9116.39
700.20	8961.91
700.34	8952.55
700.47	8938.51
700.60	9151.49
700.73	8978.30
700.87	8891.70
701.00	8664.66
701.13	8851.91
701.26	8870.63
701.40	8716.16
701.53	8695.09
701.66	8631.90
701.79	8615.51
701.93	9050.85
702.06	8725.52
702.19	8669.34
702.32	8655.30
702.46	8676.37
702.59	8491.46
702.72	8395.50
702.85	8374.44
702.99	8336.99
703.12	8358.05
703.25	8149.75
703.38	8175.49
703.51	8423.59
703.65	8140.38
703.78	8290.18
703.91	8184.85
704.04	8273.79
704.17	8161.45
704.31	8152.09
704.44	7817.39
704.57	7829.09
704.70	7864.20
704.83	7808.03
704.96	7927.39
705.10	7929.74
705.23	7693.34
>>>>>End Processed Spectral Data<<<<<
