SpectraSuite Data File
++++++++++++++++++++++++++++++++++++
Date: Thu Oct 24 13:21:19 EDT 2013
User: stostad
Dark Spectrum Present: No
Reference Spectrum Present: No
Number of Sampled Component Spectra: 1
Spectrometers: USB2+H05261
Integration Time (usec): 100000 (USB2+H05261)
Spectra Averaged: 1 (USB2+H05261)
Boxcar Smoothing: 0 (USB2+H05261)
Correct for Electrical Dark: No (USB2+H05261)
Strobe/Lamp Enabled: No (USB2+H05261)
Correct for Detector Non-linearity: No (USB2+H05261)
Correct for Stray Light: No (USB2+H05261)
Number of Pixels in Processed Spectrum: 2048
>>>>>Begin Processed Spectral Data<<<<<
365.73	543.00
365.92	543.00
366.12	543.00
366.32	559.39
366.52	526.62
366.72	493.85
366.91	444.70
367.11	503.22
367.31	397.89
367.51	411.93
367.70	468.11
367.90	437.68
368.10	440.02
368.30	484.49
368.49	428.32
368.69	484.49
368.89	533.64
369.09	407.25
369.28	477.47
369.48	491.51
369.68	510.24
369.87	496.19
370.07	500.87
370.27	608.54
370.47	613.22
370.66	819.19
370.86	753.65
371.06	844.93
371.25	908.13
371.45	926.85
371.65	812.17
371.84	791.10
372.04	812.17
372.24	884.72
372.44	856.64
372.63	896.43
372.83	936.21
373.03	938.55
373.22	854.30
373.42	999.41
373.62	987.71
373.81	931.53
374.01	1011.11
374.21	992.39
374.40	933.87
374.60	1029.84
374.79	961.96
374.99	992.39
375.19	1043.88
375.38	968.98
375.58	908.13
375.78	947.92
375.97	966.64
376.17	1025.15
376.37	954.94
376.56	1048.56
376.76	1036.86
376.95	1090.69
377.15	997.07
377.35	1039.20
377.54	1078.99
377.74	1069.62
377.93	1032.18
378.13	1053.24
378.33	1029.84
378.52	1043.88
378.72	1078.99
378.91	1121.12
379.11	1128.14
379.31	1128.14
379.50	1071.97
379.70	990.05
379.89	1090.69
380.09	1109.41
380.28	1102.39
380.48	1050.90
380.68	1074.31
380.87	1088.35
381.07	1034.52
381.26	1165.59
381.46	1125.80
381.65	1217.08
381.85	1193.67
382.04	1139.84
382.24	1060.26
382.43	1233.46
382.63	1165.59
382.83	1107.07
383.02	1116.44
383.22	1174.95
383.41	1097.71
383.61	1191.33
383.80	1149.20
384.00	1238.14
384.19	1212.40
384.39	1203.04
384.58	1210.06
384.78	1247.51
384.97	1151.54
385.17	1242.82
385.36	1231.12
385.56	1163.25
385.75	1125.80
385.95	1287.29
386.14	1210.06
386.34	1231.12
386.53	1252.19
386.72	1291.98
386.92	1196.01
387.11	1261.55
387.31	1224.10
387.50	1291.98
387.70	1289.64
387.89	1212.40
388.09	1334.11
388.28	1205.38
388.48	1217.08
388.67	1256.87
388.86	1270.91
389.06	1315.38
389.25	1268.57
389.45	1352.83
389.64	1296.66
389.84	1420.71
390.03	1263.89
390.22	1352.83
390.42	1364.53
390.61	1350.49
390.81	1345.81
391.00	1364.53
391.19	1376.24
391.39	1385.60
391.58	1446.45
391.78	1495.60
391.97	1411.34
392.16	1366.87
392.36	1483.90
392.55	1537.73
392.75	1404.32
392.94	1434.75
393.13	1455.81
393.33	1500.28
393.52	1476.88
393.71	1511.99
393.91	1504.96
394.10	1455.81
394.29	1495.60
394.49	1523.69
394.68	1394.96
394.88	1455.81
395.07	1610.29
395.26	1530.71
395.46	1533.05
395.65	1490.92
395.84	1579.86
396.04	1636.03
396.23	1612.63
396.42	1589.22
396.62	1584.54
396.81	1600.93
397.00	1614.97
397.19	1617.31
397.39	1671.14
397.58	1682.85
397.77	1703.91
397.97	1638.38
398.16	1652.42
398.35	1699.23
398.55	1638.38
398.74	1748.38
398.93	1788.17
399.12	1739.02
399.32	1673.48
399.51	1755.40
399.70	1783.49
399.90	1818.60
400.09	1825.62
400.28	1795.19
400.47	1750.72
400.67	1844.34
400.86	1884.13
401.05	1790.51
401.24	1884.13
401.44	1916.90
401.63	1895.83
401.82	1930.94
402.01	1863.07
402.21	1898.17
402.40	2045.63
402.59	1947.33
402.78	1909.88
402.97	2012.86
403.17	2024.56
403.36	1996.48
403.55	2066.69
403.74	2015.20
403.93	2195.42
404.13	2127.55
404.32	2064.35
404.51	2211.81
404.70	2160.31
404.89	2059.67
405.09	2160.31
405.28	2076.06
405.47	2092.44
405.66	2143.93
405.85	2181.38
406.05	2169.68
406.24	2225.85
406.43	2143.93
406.62	2277.34
406.81	2211.81
407.00	2265.64
407.20	2207.13
407.39	2230.53
407.58	2291.38
407.77	2249.25
407.96	2242.23
408.15	2415.43
408.34	2370.96
408.54	2473.95
408.73	2429.48
408.92	2359.26
409.11	2413.09
409.30	2473.95
409.49	2434.16
409.68	2495.01
409.87	2541.82
410.07	2532.46
410.26	2640.12
410.45	2497.35
410.64	2471.61
410.83	2546.50
411.02	2612.04
411.21	2614.38
411.40	2642.46
411.59	2698.64
411.78	2588.63
411.98	2640.12
412.17	2670.55
412.36	2775.88
412.55	2771.19
412.74	2885.88
412.93	2918.65
413.12	2794.60
413.31	2871.84
413.50	2874.18
413.69	2920.99
413.88	2984.18
414.07	2942.05
414.26	2958.44
414.45	2984.18
414.64	3047.38
414.83	2946.73
415.02	3021.63
415.22	3117.59
415.41	3117.59
415.60	3108.23
415.79	3171.43
415.98	3269.73
416.17	3269.73
416.36	3176.11
416.55	3332.92
416.74	3328.24
416.93	3262.71
417.12	3330.58
417.31	3363.35
417.50	3403.14
417.69	3459.31
417.88	3515.48
418.07	3473.36
418.26	3428.88
418.45	3506.12
418.64	3634.85
418.83	3466.33
419.02	3536.55
419.21	3627.83
419.39	3517.83
419.58	3648.90
419.77	3597.40
419.96	3557.61
420.15	3662.94
420.34	3672.30
420.53	3744.86
420.72	3672.30
420.91	3735.50
421.10	3714.43
421.29	3740.18
421.48	3716.77
421.67	3765.92
421.86	3688.68
422.05	3726.13
422.24	3723.79
422.43	3815.07
422.61	3882.95
422.80	3922.74
422.99	3911.04
423.18	3950.82
423.37	3913.38
423.56	3885.29
423.75	3779.97
423.94	3892.31
424.13	3534.21
424.32	3831.46
424.50	3901.67
424.69	3992.95
424.88	3957.85
425.07	4004.66
425.26	3838.48
425.45	3950.82
425.64	3904.01
425.83	3946.14
426.01	3990.61
426.20	3904.01
426.39	3920.40
426.58	3887.63
426.77	4011.68
426.96	4065.51
427.15	3990.61
427.33	4093.60
427.52	4081.89
427.71	4149.77
427.90	4079.55
428.09	4280.84
428.28	4084.23
428.46	4161.47
428.65	4114.66
428.84	4437.66
429.03	4372.12
429.22	4241.05
429.40	4432.97
429.59	4189.56
429.78	4168.49
429.97	4189.56
430.16	4337.01
430.34	4348.72
430.53	4454.04
430.72	4320.63
430.91	4454.04
431.10	4430.63
431.28	4500.85
431.47	4491.49
431.66	4622.56
431.85	4451.70
432.03	4526.60
432.22	4730.22
432.41	4489.15
432.60	4564.04
432.79	4552.34
432.97	4723.20
433.16	4657.67
433.35	4559.36
433.54	4704.48
433.72	4800.44
433.91	4608.51
434.10	4793.42
434.28	4856.61
434.47	4842.57
434.66	4798.10
434.85	4889.38
435.03	4891.72
435.22	4997.04
435.41	5235.78
435.59	5060.24
435.78	4952.57
435.97	4990.02
436.16	5006.41
436.34	4957.25
436.53	5139.82
436.72	5156.20
436.90	5029.81
437.09	5050.88
437.28	5085.98
437.46	5139.82
437.65	5167.90
437.84	5128.11
438.02	5029.81
438.21	5036.83
438.40	5069.60
438.58	5233.44
438.77	5401.96
438.96	5219.39
439.14	5462.81
439.33	5488.56
439.52	5509.62
439.70	5423.02
439.89	5610.26
440.08	5540.05
440.26	5598.56
440.45	5591.54
440.63	5809.21
440.82	5870.06
441.01	5666.44
441.19	5827.93
441.38	5872.40
441.57	5844.32
441.75	5746.02
441.94	5827.93
442.12	5973.05
442.31	6064.33
442.50	6232.85
442.68	6001.13
442.87	6076.03
443.05	6076.03
443.24	6104.12
443.43	6258.59
443.61	6289.02
443.80	6331.15
443.98	6106.46
444.17	5926.24
444.35	6090.07
444.54	6260.93
444.73	6101.78
444.91	6263.27
445.10	6363.92
445.28	6345.19
445.47	6239.87
445.65	6267.95
445.84	6399.02
446.02	6415.41
446.21	6314.77
446.39	6195.40
446.58	6417.75
446.77	6445.84
446.95	6216.46
447.14	6345.19
447.32	6384.98
447.51	6452.86
447.69	6370.94
447.88	6251.57
448.06	6438.81
448.25	6478.60
448.43	6511.37
448.62	6448.18
448.80	6434.13
448.99	6448.18
449.17	6609.67
449.36	6476.26
449.54	6745.42
449.73	6647.12
449.91	6705.63
450.10	6600.31
450.28	6883.52
450.46	6789.89
450.65	6719.68
450.83	6731.38
451.02	6799.26
451.20	6963.09
451.39	6895.22
451.57	6691.59
451.76	6668.19
451.94	6698.61
452.13	6904.58
452.31	7108.21
452.49	6857.77
452.68	6946.71
452.86	6888.20
453.05	7045.01
453.23	6984.16
453.42	7002.88
453.60	7049.69
453.78	7208.85
453.97	7098.84
454.15	7115.23
454.34	7105.87
454.52	7276.73
454.70	7143.32
454.89	7173.74
455.07	7302.47
455.26	7339.92
455.44	7356.30
455.62	7536.52
455.81	7459.29
455.99	7412.48
456.17	7328.22
456.36	7527.16
456.54	7529.50
456.73	7679.30
456.91	7705.04
457.09	7597.38
457.28	7929.74
457.46	7609.08
457.64	7922.71
457.83	7719.09
458.01	7765.90
458.19	7857.18
458.38	7602.06
458.56	7906.33
458.74	7831.43
458.93	7955.48
459.11	7920.37
459.29	7901.65
459.48	8030.38
459.66	8042.08
459.84	8084.21
460.03	8060.80
460.21	8128.68
460.39	8098.25
460.57	8264.43
460.76	8147.40
460.94	8411.89
461.12	8182.51
461.31	8245.71
461.49	8128.68
461.67	8191.88
461.85	8514.87
462.04	8383.80
462.22	8601.47
462.40	8645.94
462.59	8369.76
462.77	8397.84
462.95	8475.08
463.13	8592.11
463.32	8381.46
463.50	8531.25
463.68	8606.15
463.86	8608.49
464.05	8622.53
464.23	8561.68
464.41	8587.43
464.59	8554.66
464.78	8903.40
464.96	8737.22
465.14	8582.74
465.32	8847.22
465.50	8758.28
465.69	8968.93
465.87	9156.18
466.05	8760.63
466.23	8879.99
466.41	8882.33
466.60	8917.44
466.78	8833.18
466.96	8851.91
467.14	8975.95
467.32	8943.19
467.51	9006.38
467.69	9095.32
467.87	9125.75
468.05	9291.93
468.23	8966.59
468.41	9240.44
468.60	9085.96
468.78	9315.33
468.96	9238.09
469.14	9689.82
469.32	9320.01
469.50	9359.80
469.69	9254.48
469.87	9621.94
470.05	9607.90
470.23	9549.39
470.41	9495.55
470.59	9846.63
470.77	9699.18
470.95	9563.43
471.14	9748.33
471.32	9867.70
471.50	9851.31
471.68	9895.78
471.86	9912.17
472.04	10120.48
472.22	10303.04
472.40	9956.64
472.58	10040.90
472.77	10125.16
472.95	10249.21
473.13	10581.56
473.31	10209.42
473.49	10122.82
473.67	10134.52
473.85	10333.47
474.03	10689.23
474.21	10569.86
474.39	10649.44
474.57	10396.66
474.75	10846.04
474.93	10881.15
475.12	10607.31
475.30	10881.15
475.48	10729.02
475.66	10864.77
475.84	11115.20
476.02	10986.47
476.20	11246.27
476.38	11494.37
476.56	11370.32
476.74	11609.06
476.92	11262.66
477.10	11510.75
477.28	11513.10
477.46	11630.12
477.64	11779.92
477.82	11885.24
478.00	12278.45
478.18	12100.57
478.36	12182.49
478.54	12304.20
478.72	12348.67
478.90	12343.99
479.08	12610.81
479.26	12847.20
479.44	12718.47
479.62	12784.01
479.80	12971.25
479.98	13186.58
480.16	13109.34
480.34	13004.02
480.52	13298.92
480.70	13240.41
480.88	13308.29
481.06	13322.33
481.24	13537.66
481.41	13811.50
481.59	13937.89
481.77	13907.46
481.95	14012.79
482.13	14143.86
482.31	13963.64
482.49	14235.14
482.67	14445.79
482.85	14668.14
483.03	14665.80
483.21	14888.15
483.39	14988.79
483.57	14897.51
483.74	15051.99
483.92	15272.00
484.10	15192.42
484.28	15592.65
484.46	15779.89
484.64	15850.11
484.82	15618.39
485.00	15775.21
485.18	16100.55
485.35	16379.07
485.53	16301.83
485.71	16472.69
485.89	16767.60
486.07	16489.07
486.25	16610.78
486.43	16678.66
486.61	16795.68
486.78	17224.00
486.96	17317.62
487.14	17418.27
487.32	17399.54
487.50	17589.13
487.68	17965.95
487.85	17776.37
488.03	18319.37
488.21	18047.87
488.39	18031.49
488.57	18499.59
488.75	18560.45
488.92	18523.00
489.10	18843.65
489.28	18995.79
489.46	19290.70
489.64	19194.73
489.81	19536.45
489.99	19314.10
490.17	19386.66
490.35	20034.99
490.53	19765.82
490.70	20154.35
490.88	19992.86
491.06	20390.75
491.24	20709.06
491.41	20442.24
491.59	20922.05
491.77	20577.99
491.95	21104.61
492.13	21050.78
492.30	21479.10
492.48	21371.43
492.66	21296.53
492.84	21125.68
493.01	21600.80
493.19	21776.34
493.37	22057.21
493.54	21879.33
493.72	22075.93
493.90	22277.22
494.08	22164.87
494.25	22689.15
494.43	22930.23
494.61	22679.79
494.79	23250.88
494.96	22707.88
495.14	23110.45
495.32	23248.54
495.49	23513.02
495.67	23543.45
495.85	23424.08
496.02	23700.26
496.20	23840.70
496.38	23639.41
496.55	23693.24
496.73	24390.72
496.91	24381.36
497.09	24421.15
497.26	24748.82
497.44	24531.15
497.62	24992.24
497.79	25062.46
497.97	25123.31
498.14	25144.38
498.32	25507.16
498.50	25450.99
498.67	25745.89
498.85	25582.06
499.03	25666.31
499.20	25696.74
499.38	25762.28
499.56	26291.24
499.73	26071.23
499.91	26211.66
500.08	26541.68
500.26	26370.82
500.44	26319.32
500.61	26869.35
500.79	26352.09
500.97	26937.23
501.14	27281.28
501.32	27164.26
501.49	27295.33
501.67	27241.50
501.84	27339.80
502.02	27257.88
502.20	27644.07
502.37	27419.38
502.55	27597.26
502.72	27475.55
502.90	27386.61
503.07	27700.24
503.25	27974.08
503.43	27246.18
503.60	28137.92
503.78	28404.74
503.95	28168.35
504.13	28252.61
504.30	28154.30
504.48	28491.34
504.65	28849.44
504.83	29060.09
505.01	29376.06
505.18	28706.67
505.36	29095.20
505.53	28828.38
505.71	28980.51
505.88	29638.20
506.06	29167.76
506.23	29572.67
506.41	29469.69
506.58	29521.18
506.76	29586.71
506.93	30167.16
507.11	29504.79
507.28	30277.17
507.46	29706.08
507.63	29923.75
507.81	30649.32
507.98	29867.58
508.16	30153.12
508.33	30302.92
508.50	30136.74
508.68	30616.55
508.85	30918.48
509.03	30995.71
509.20	30625.91
509.38	31180.62
509.55	31164.23
509.73	31112.74
509.90	31489.57
510.08	31740.00
510.25	31487.23
510.42	31938.95
510.60	31630.00
510.77	31555.10
510.95	32184.71
511.12	31828.95
511.30	32058.32
511.47	32091.09
511.64	32444.51
511.82	32470.25
511.99	32278.33
512.17	32355.57
512.34	32699.62
512.51	32652.81
512.69	33017.94
512.86	32826.01
513.04	33186.46
513.21	33233.27
513.38	33036.66
513.56	33289.44
513.73	32947.72
513.90	33390.08
514.08	33256.67
514.25	33745.84
514.43	33703.71
514.60	33659.24
514.77	33883.94
514.95	33780.95
515.12	33530.51
515.29	33809.04
515.47	34192.89
515.64	34579.07
515.81	34305.23
515.99	33827.76
516.16	34171.82
516.33	34387.15
516.51	34387.15
516.68	34548.65
516.85	34602.48
517.03	34941.86
517.20	34878.66
517.37	35136.12
517.54	34670.36
517.72	34913.77
517.89	34965.26
518.06	34740.57
518.24	35629.98
518.41	35189.95
518.58	35044.84
518.75	35267.19
518.93	35489.54
519.10	35402.94
519.27	35700.19
519.45	35491.88
519.62	35632.32
519.79	35777.43
519.96	35945.95
520.14	36030.21
520.31	35791.47
520.48	35887.43
520.65	36191.70
520.83	36598.96
521.00	36376.61
521.17	35838.28
521.34	36676.19
521.52	36685.56
521.69	36549.81
521.86	36601.30
522.03	36861.10
522.20	37336.23
522.38	37244.94
522.55	37317.50
522.72	37319.84
522.89	37186.43
523.07	37244.94
523.24	37120.90
523.41	37308.14
523.58	36973.44
523.75	37425.17
523.92	37383.04
524.10	37975.19
524.27	37570.28
524.44	38099.24
524.61	37886.25
524.78	38176.48
524.96	38064.13
525.13	38499.47
525.30	38602.46
525.47	38932.47
525.64	38665.65
525.81	38464.36
525.98	37872.21
526.16	38188.18
526.33	38010.30
526.50	38780.34
526.67	38363.72
526.84	38682.03
527.01	38576.71
527.18	38595.43
527.36	38476.07
527.53	39030.77
527.70	39164.18
527.87	38930.13
528.04	39262.49
528.21	39416.96
528.38	39189.93
528.55	39636.97
528.72	39573.78
528.89	39166.52
529.07	39346.75
529.24	39119.71
529.41	39344.41
529.58	39501.22
529.75	39821.87
529.92	39814.85
530.09	39625.27
530.26	39559.73
530.43	39950.60
530.60	39833.58
530.77	39917.84
530.94	40336.79
531.11	40191.68
531.28	40577.87
531.46	40786.18
531.63	40587.23
531.80	40275.94
531.97	40289.98
532.14	40378.92
532.31	40339.13
532.48	40615.32
532.65	40851.71
532.82	40699.58
532.99	40875.12
533.16	40477.22
533.33	41024.91
533.50	40957.03
533.67	41055.34
533.84	40790.86
534.01	40870.43
534.18	40847.03
534.35	41422.80
534.52	41371.31
534.69	41368.97
534.86	41343.22
535.03	41226.20
535.20	41212.15
535.37	41228.54
535.54	42092.19
535.71	41771.54
535.88	41748.14
536.05	42153.05
536.22	41799.63
536.38	42202.20
536.55	42066.45
536.72	42429.23
536.89	42525.19
537.06	42059.43
537.23	42614.13
537.40	42349.65
537.57	42703.07
537.74	42253.69
537.91	42747.54
538.08	42183.48
538.25	42202.20
538.42	42529.87
538.59	42677.33
538.75	42129.64
538.92	42637.54
539.09	43194.59
539.26	42478.38
539.43	42667.97
539.60	42595.41
539.77	43328.00
539.94	43562.05
540.11	43349.06
540.28	43688.44
540.44	43468.43
540.61	43285.87
540.78	43217.99
540.95	43592.48
541.12	43325.66
541.29	43728.23
541.46	43246.08
541.62	43852.28
541.79	44140.16
541.96	43367.79
542.13	43901.43
542.30	43758.66
542.47	44327.41
542.63	43742.27
542.80	44140.16
542.97	44673.81
543.14	44432.73
543.31	44900.84
543.48	44669.12
543.64	44587.21
543.81	44559.12
543.98	44676.15
544.15	44664.44
544.32	44966.37
544.48	45034.25
544.65	44938.29
544.82	44800.19
544.99	44809.56
545.16	44641.04
545.32	44409.32
545.49	45460.23
545.66	45956.42
545.83	45762.15
546.00	45958.76
546.16	45654.49
546.33	45429.80
546.50	45137.23
546.67	45448.52
546.83	45181.70
547.00	45134.89
547.17	44818.92
547.34	45322.13
547.50	45268.30
547.67	45600.66
547.84	45750.45
548.00	45713.00
548.17	45925.99
548.34	45705.98
548.51	45876.84
548.67	45642.79
548.84	46012.59
549.01	45893.22
549.18	45930.67
549.34	45947.06
549.51	46244.30
549.68	46155.36
549.84	46096.85
550.01	46026.63
550.18	45507.04
550.34	45801.94
550.51	46127.28
550.68	46136.64
550.84	45963.44
551.01	46043.02
551.18	45738.75
551.34	45549.17
551.51	45778.54
551.68	46085.15
551.84	45888.54
552.01	46270.05
552.18	46288.77
552.34	46110.89
552.51	46799.01
552.68	46623.47
552.84	46939.44
553.01	46752.20
553.18	46679.64
553.34	47281.16
553.51	46153.02
553.67	46649.22
553.84	46803.69
554.01	47224.99
554.17	46714.75
554.34	47007.32
554.51	47292.86
554.67	47021.36
554.84	46408.14
555.00	46677.30
555.17	46674.96
555.33	46681.98
555.50	46894.97
555.67	46986.25
555.83	47023.70
556.00	47072.85
556.16	46876.25
556.33	47023.70
556.50	46986.25
556.66	47597.13
556.83	46838.80
556.99	47349.04
557.16	47400.53
557.32	47821.83
557.49	47496.49
557.65	47440.32
557.82	47519.90
557.98	47234.35
558.15	47327.97
558.32	47707.14
558.48	47505.85
558.65	47688.42
558.81	47835.87
558.98	47833.53
559.14	47707.14
559.31	47529.26
559.47	48154.18
559.64	47990.34
559.80	47711.82
559.97	47232.01
560.13	47503.51
560.30	47592.45
560.46	47920.13
560.63	48268.87
560.79	48027.79
560.96	48172.91
561.12	47845.23
561.29	47908.43
561.45	47503.51
561.61	48289.93
561.78	47973.96
561.94	48229.08
562.11	48477.18
562.27	48446.75
562.44	48011.41
562.60	47805.44
562.77	47868.64
562.93	48311.00
563.10	48182.27
563.26	47791.40
563.42	48652.72
563.59	48495.90
563.75	47990.34
563.92	48559.09
564.08	48285.25
564.24	48163.54
564.41	48399.94
564.57	48444.41
564.74	47995.03
564.90	48603.56
565.07	48643.35
565.23	48566.12
565.39	48704.21
565.56	49109.12
565.72	48577.82
565.88	48704.21
566.05	48875.07
566.21	47971.62
566.38	48191.63
566.54	48320.36
566.70	48519.31
566.87	48971.03
567.03	48760.38
567.19	49111.46
567.36	48692.50
567.52	48720.59
567.68	48690.16
567.85	48762.72
568.01	48865.70
568.17	48907.83
568.34	48685.48
568.50	48760.38
568.66	48549.73
568.83	48891.45
568.99	48828.26
569.15	48685.48
569.32	49277.64
569.48	48741.66
569.64	48907.83
569.81	48519.31
569.97	48765.06
570.13	48734.63
570.30	48687.82
570.46	48772.08
570.62	48334.40
570.78	48718.25
570.95	48591.86
571.11	48971.03
571.27	48900.81
571.43	48985.07
571.60	48699.53
571.76	48802.51
571.92	49088.06
572.09	48758.04
572.25	49193.38
572.41	49165.29
572.57	49174.66
572.74	49577.23
572.90	48856.34
573.06	48928.90
573.22	49008.48
573.38	49022.52
573.55	49081.03
573.71	49265.94
573.87	48900.81
574.03	48835.28
574.20	49174.66
574.36	49361.90
574.52	49008.48
574.68	49120.82
574.84	49045.93
575.01	49209.76
575.17	49507.01
575.33	49214.44
575.49	49387.64
575.65	49338.49
575.82	49537.44
575.98	49347.86
576.14	49680.21
576.30	49460.20
576.46	49064.65
576.62	49216.78
576.79	48975.71
576.95	48933.58
577.11	49268.28
577.27	49406.37
577.43	49357.22
577.59	49144.23
577.75	49373.60
577.92	49050.61
578.08	49315.09
578.24	49261.26
578.40	49659.15
578.56	49294.02
578.72	49333.81
578.88	49837.03
579.04	50143.64
579.21	49195.72
579.37	49734.04
579.53	49736.38
579.69	49333.81
579.85	49546.80
580.01	49703.62
580.17	49570.21
580.33	49464.88
580.49	49429.77
580.65	49399.35
580.82	49305.73
580.98	49373.60
581.14	49516.37
581.30	49724.68
581.46	49984.48
581.62	49492.97
581.78	49008.48
581.94	49574.89
582.10	48828.26
582.26	49193.38
582.42	49193.38
582.58	49471.90
582.74	49682.55
582.90	49427.43
583.06	49504.67
583.22	49698.94
583.38	49516.37
583.54	49268.28
583.70	49326.79
583.86	49581.91
584.02	49600.63
584.18	49872.14
584.34	49504.67
584.50	49834.69
584.66	49272.96
584.82	49015.50
584.98	49549.14
585.14	49818.30
585.30	49635.74
585.46	49647.44
585.62	49748.09
585.78	49883.84
585.94	49977.46
586.10	49932.99
586.26	49785.54
586.42	49642.76
586.58	49818.30
586.74	49523.40
586.90	49602.97
587.06	49874.48
587.22	50267.69
587.38	49598.29
587.54	50145.98
587.70	50574.30
587.86	50094.49
588.02	50103.85
588.18	49963.42
588.34	49858.09
588.49	50145.98
588.65	49720.00
588.81	50092.15
588.97	50155.34
589.13	49755.11
589.29	49689.57
589.45	49801.92
589.61	49851.07
589.77	50113.21
589.93	50000.86
590.08	49954.05
590.24	50157.68
590.40	50183.43
590.56	50293.43
590.72	49869.79
590.88	49305.73
591.04	49923.63
591.20	50464.29
591.35	50260.66
591.51	50618.77
591.67	50583.66
591.83	50459.61
591.99	50160.02
592.15	50438.54
592.31	50389.39
592.46	50239.60
592.62	50258.32
592.78	49813.62
592.94	49975.12
593.10	50061.72
593.26	50391.73
593.41	50160.02
593.57	50192.79
593.73	50302.79
593.89	50452.59
594.05	50071.08
594.20	49633.40
594.36	50113.21
594.52	50108.53
594.68	50246.62
594.84	50031.29
594.99	50642.17
595.15	50347.26
595.31	50237.26
595.47	50401.10
595.62	50110.87
595.78	50057.04
595.94	50202.15
596.10	50305.13
596.25	49720.00
596.41	50384.71
596.57	49921.29
596.73	49975.12
596.88	50293.43
597.04	50609.40
597.20	50197.47
597.36	50127.25
597.51	50438.54
597.67	50248.96
597.83	49944.69
597.99	50798.99
598.14	50717.07
598.30	50639.83
598.46	50370.67
598.61	50672.60
598.77	49951.71
598.93	50717.07
599.09	50621.11
599.24	50871.54
599.40	50279.39
599.56	50447.91
599.71	50445.57
599.87	50691.32
600.03	50300.45
600.18	50305.13
600.34	50492.38
600.50	50417.48
600.65	50255.98
600.81	50859.84
600.97	50822.39
601.12	50871.54
601.28	50674.94
601.44	50536.85
601.59	50206.83
601.75	50298.11
601.91	50836.44
602.06	50389.39
602.22	50178.75
602.37	50686.64
602.53	50445.57
602.69	50375.35
602.84	50293.43
603.00	50775.58
603.16	50590.68
603.31	50258.32
603.47	50440.89
603.62	50742.81
603.78	50667.92
603.94	50344.92
604.09	50330.88
604.25	50293.43
604.40	50270.03
604.56	50625.79
604.71	50609.40
604.87	50630.47
605.03	50674.94
605.18	50564.93
605.34	50529.83
605.49	50183.43
605.65	50330.88
605.80	50504.08
605.96	50323.86
606.12	50817.71
606.27	51236.67
606.43	50389.39
606.58	50681.96
606.74	50480.67
606.89	50314.50
607.05	50412.80
607.20	50588.34
607.36	50000.86
607.51	50394.07
607.67	50094.49
607.82	50358.97
607.98	50312.16
608.13	50567.27
608.29	50447.91
608.44	50209.17
608.60	50365.99
608.75	50258.32
608.91	50567.27
609.06	50326.20
609.22	50216.19
609.37	50071.08
609.53	49762.13
609.68	50232.58
609.84	50286.41
609.99	50302.79
610.15	50286.41
610.30	50672.60
610.46	50328.54
610.61	50586.00
610.76	50761.54
610.92	50672.60
611.07	50623.45
611.23	50700.68
611.38	50696.00
611.54	50604.72
611.69	50733.45
611.84	50927.72
612.00	50806.01
612.15	50597.70
612.31	50766.22
612.46	50270.03
612.62	50471.31
612.77	49996.18
612.92	50291.09
613.08	49771.49
613.23	50225.56
613.39	50092.15
613.54	50143.64
613.69	49888.52
613.85	50052.36
614.00	50478.33
614.15	50302.79
614.31	50024.27
614.46	50206.83
614.62	49886.18
614.77	49914.26
614.92	49780.85
615.08	49879.16
615.23	49705.96
615.38	50237.26
615.54	49511.69
615.69	49886.18
615.84	49757.45
616.00	49804.26
616.15	49544.46
616.30	49970.44
616.46	49940.01
616.61	49172.31
616.76	49963.42
616.92	49315.09
617.07	49247.21
617.22	49567.87
617.37	49275.30
617.53	49029.54
617.68	49535.10
617.83	49476.58
617.99	49446.16
618.14	49815.96
618.29	49195.72
618.45	49460.20
618.60	49272.96
618.75	49205.08
618.90	48924.22
619.06	48751.02
619.21	48236.10
619.36	49013.16
619.51	48856.34
619.67	48858.68
619.82	49095.08
619.97	49298.70
620.12	49422.75
620.28	48952.30
620.43	49324.45
620.58	49373.60
620.73	48800.17
620.89	49031.88
621.04	49354.88
621.19	49155.93
621.34	48842.30
621.49	48439.73
621.65	48718.25
621.80	49354.88
621.95	48854.00
622.10	48966.35
622.25	48968.69
622.41	48617.61
622.56	48442.07
622.71	48891.45
622.86	48554.41
623.01	48336.74
623.16	48301.64
623.32	48395.26
623.47	48835.28
623.62	48786.13
623.77	48685.48
623.92	48961.67
624.07	48830.60
624.23	49099.76
624.38	48896.13
624.53	48580.16
624.68	48666.76
624.83	48917.20
624.98	48690.16
625.13	48074.60
625.29	48325.04
625.44	48495.90
625.59	48282.91
625.74	48149.50
625.89	48388.24
626.04	48561.44
626.19	48137.80
626.34	48418.66
626.49	48128.44
626.65	48149.50
626.80	48460.79
626.95	47910.77
627.10	47501.17
627.25	47622.88
627.40	47894.38
627.55	47669.69
627.70	47744.59
627.85	47838.21
628.00	47601.82
628.15	47824.17
628.30	47700.12
628.45	47936.51
628.60	47674.37
628.76	47695.44
628.91	47746.93
629.06	47690.76
629.21	47466.06
629.36	47152.43
629.51	47990.34
629.66	47524.58
629.81	47442.66
629.96	47604.16
630.11	47482.45
630.26	47576.07
630.41	47707.14
630.56	47627.56
630.71	47503.51
630.86	47767.99
631.01	47590.11
631.16	47508.19
631.31	47271.80
631.46	47014.34
631.61	47400.53
631.76	47379.46
631.91	47316.27
632.06	47260.10
632.21	47248.39
632.36	46906.68
632.51	46761.56
632.66	47203.92
632.81	46920.72
632.96	47290.52
633.10	46995.62
633.25	47047.11
633.40	47143.07
633.55	47199.24
633.70	46976.89
633.85	46241.96
634.00	46775.61
634.15	46848.16
634.30	46670.28
634.45	46953.49
634.60	46787.31
634.75	47185.20
634.90	46906.68
635.05	46656.24
635.19	46808.37
635.34	46609.43
635.49	46773.27
635.64	46461.97
635.79	46630.49
635.94	46330.90
636.09	46433.89
636.24	46220.90
636.39	46918.38
636.53	46733.48
636.68	46368.35
636.83	46543.89
636.98	46761.56
637.13	46106.21
637.28	46663.26
637.43	46319.20
637.57	46017.27
637.72	45984.51
637.87	45928.33
638.02	46040.68
638.17	46239.62
638.32	45984.51
638.46	46059.40
638.61	45853.44
638.76	46047.70
638.91	46642.20
639.06	46738.16
639.20	46340.27
639.35	46223.24
639.50	46380.06
639.65	45907.27
639.80	45827.69
639.94	46052.38
640.09	45394.69
640.24	45827.69
640.39	46185.79
640.54	45727.05
640.68	45724.71
640.83	45495.33
640.98	45511.72
641.13	45305.75
641.27	45649.81
641.42	45179.36
641.57	45556.19
641.72	45390.01
641.86	45373.63
642.01	45008.50
642.16	44680.83
642.31	45432.14
642.45	45593.64
642.60	45474.27
642.75	45024.89
642.90	45127.87
643.04	45251.92
643.19	45399.37
643.34	45698.96
643.48	45642.79
643.63	45130.21
643.78	44889.13
643.93	45123.19
644.07	44617.63
644.22	44828.28
644.37	44645.72
644.51	45022.54
644.66	44835.30
644.81	45146.59
644.95	45261.28
645.10	45109.14
645.25	44830.62
645.39	45270.64
645.54	44779.13
645.69	45024.89
645.83	44484.22
645.98	44552.10
646.13	44891.48
646.27	45125.53
646.42	45090.42
646.57	44924.24
646.71	44940.63
646.86	44641.04
647.00	45022.54
647.15	44739.34
647.30	45162.98
647.44	44552.10
647.59	44828.28
647.74	44458.48
647.88	45041.27
648.03	44449.11
648.17	44245.49
648.32	43885.04
648.47	44088.67
648.61	44395.28
648.76	44135.48
648.90	43962.28
649.05	44182.29
649.20	44542.74
649.34	44093.35
649.49	44524.01
649.63	44669.12
649.78	44781.47
649.92	43805.47
650.07	44577.84
650.21	44636.36
650.36	43913.13
650.51	43966.96
650.65	43945.90
650.80	43988.03
650.94	43945.90
651.09	43899.09
651.23	44149.53
651.38	44208.04
651.52	44179.95
651.67	44163.57
651.81	43681.42
651.96	43723.55
652.10	44179.95
652.25	43669.72
652.39	43948.24
652.54	43571.41
652.68	43573.75
652.83	43742.27
652.97	43730.57
653.12	43463.75
653.26	43388.85
653.41	44100.37
653.55	43557.37
653.70	43449.70
653.84	43594.82
653.99	43576.09
654.13	43402.89
654.27	43658.01
654.42	43093.94
654.56	43344.38
654.71	43260.12
654.85	43459.07
655.00	43447.36
655.14	42784.99
655.29	43208.63
655.43	43103.31
655.57	42604.77
655.72	43370.13
655.86	43477.79
656.01	43222.67
656.15	42960.53
656.30	43407.58
656.44	43461.41
656.58	43175.86
656.73	43274.16
656.87	43807.81
657.01	43077.56
657.16	43225.01
657.30	42969.90
657.45	42925.42
657.59	42480.72
657.73	42515.83
657.88	42831.80
658.02	42183.48
658.16	42883.30
658.31	42988.62
658.45	42822.44
658.60	42412.85
658.74	42424.55
658.88	42508.81
659.03	42148.37
659.17	42211.56
659.31	41816.01
659.46	42204.54
659.60	42190.50
659.74	42183.48
659.89	42157.73
660.03	41698.98
660.17	42466.68
660.32	41635.79
660.46	41670.90
660.60	41626.43
660.74	41659.20
660.89	42124.96
661.03	41523.44
661.17	41848.78
661.32	41045.97
661.46	41265.99
661.60	41359.61
661.74	41495.36
661.89	41270.67
662.03	41427.48
662.17	40811.92
662.31	41067.04
662.46	41345.56
662.60	41244.92
662.74	41378.33
662.88	40875.12
663.03	41092.79
663.17	41092.79
663.31	41013.21
663.45	41158.32
663.60	41141.94
663.74	40800.22
663.88	40573.19
664.02	40126.14
664.17	40933.63
664.31	40488.93
664.45	40198.70
664.59	40411.69
664.73	40870.43
664.88	40652.76
665.02	40135.51
665.16	40727.66
665.30	40800.22
665.44	40285.30
665.59	39915.50
665.73	40194.02
665.87	40149.55
666.01	40044.23
666.15	39777.40
666.29	40189.34
666.44	40222.11
666.58	39597.18
666.72	39445.05
666.86	39569.10
667.00	39864.00
667.14	39435.69
667.28	39388.88
667.43	39543.35
667.57	39791.45
667.71	39353.77
667.85	39636.97
667.99	39166.52
668.13	39180.57
668.27	38642.24
668.41	39089.29
668.56	38773.31
668.70	38813.10
668.84	38534.58
668.98	38410.53
669.12	38567.35
669.26	38143.71
669.40	38546.28
669.54	38529.90
669.68	37982.21
669.82	38345.00
669.96	38373.08
670.10	38361.38
670.25	38478.41
670.39	37904.98
670.53	38010.30
670.67	37827.74
670.81	38452.66
670.95	37624.11
671.09	37457.93
671.23	37291.76
671.37	38155.41
671.51	37993.92
671.65	37736.46
671.79	37965.83
671.93	37708.37
672.07	38014.98
672.21	37471.98
672.35	37764.54
672.49	37441.55
672.63	37235.58
672.77	37942.42
672.91	37064.72
673.05	36767.48
673.19	37153.66
673.33	36641.09
673.47	36418.74
673.61	36968.76
673.75	36556.83
673.89	37001.53
674.03	36418.74
674.17	36416.40
674.31	36751.09
674.45	36840.03
674.59	36423.42
674.73	36755.77
674.87	36151.91
675.01	35702.53
675.15	36229.15
675.29	35871.05
675.43	35821.90
675.56	35817.22
675.70	35234.42
675.84	35229.74
675.98	34206.93
676.12	35030.80
676.26	35482.52
676.40	35173.57
676.54	35618.27
676.68	34967.60
676.82	34611.84
676.96	35150.17
677.10	35072.93
677.23	34761.64
677.37	34944.20
677.51	34768.66
677.65	34864.62
677.79	34078.20
677.93	33947.13
678.07	34103.95
678.21	34094.58
678.34	33809.04
678.48	33479.02
678.62	33153.69
678.76	33502.43
678.90	33462.64
679.04	33813.72
679.18	33294.12
679.31	32655.15
679.45	32863.46
679.59	33326.89
679.73	33282.42
679.87	33081.13
680.00	32917.29
680.14	32425.78
680.28	32758.14
680.42	32610.68
680.56	33165.39
680.70	32395.35
680.83	31983.42
680.97	32180.03
681.11	32170.66
681.25	31826.60
681.39	31901.50
681.52	31899.16
681.66	31943.63
681.80	31981.08
681.94	31531.70
682.07	31599.57
682.21	31592.55
682.35	31227.43
682.49	31370.20
682.62	31405.31
682.76	31098.70
682.90	30595.48
683.04	30675.06
683.17	30761.66
683.31	30607.19
683.45	30651.66
683.59	30450.37
683.72	29912.05
683.86	29968.22
684.00	29818.42
684.13	30071.20
684.27	29443.94
684.41	29928.43
684.55	30410.58
684.68	30132.06
684.82	29780.98
684.96	29457.98
685.09	29469.69
685.23	29699.06
685.37	29504.79
685.50	29972.90
685.64	29207.55
685.78	29202.86
685.91	29069.45
686.05	28641.14
686.19	28498.36
686.32	28837.74
686.46	28664.54
686.60	28493.68
686.73	28601.35
686.87	28701.99
687.01	28533.47
687.14	28231.54
687.28	28140.26
687.42	28173.03
687.55	27782.16
687.69	27751.73
687.82	27536.40
687.96	27496.61
688.10	27405.33
688.23	27637.05
688.37	27447.46
688.50	27185.32
688.64	27360.86
688.78	27648.75
688.91	26958.29
689.05	26967.65
689.18	26682.11
689.32	26146.12
689.46	26639.98
689.59	26368.48
689.73	26478.48
689.86	26403.58
690.00	26312.30
690.13	26017.40
690.27	25844.20
690.41	25893.35
690.54	25713.13
690.68	25586.74
690.81	25528.22
690.95	25844.20
691.08	25766.96
691.22	24947.77
691.35	25167.78
691.49	25186.50
691.62	25207.57
691.76	25039.05
691.89	25324.60
692.03	25446.30
692.16	25174.80
692.30	25078.84
692.43	24566.26
692.57	24690.31
692.70	24685.63
692.84	24692.65
692.97	24271.36
693.11	24154.33
693.24	23683.88
693.38	24100.50
693.51	23894.53
693.65	24271.36
693.78	24149.65
693.92	23967.09
694.05	23934.32
694.19	23168.96
694.32	23531.75
694.45	23936.66
694.59	23756.44
694.72	23229.82
694.86	22670.43
694.99	22632.98
695.13	22785.12
695.26	22801.50
695.39	22277.22
695.53	22981.72
695.66	22836.61
695.80	22218.71
695.93	22398.93
696.07	22204.66
696.20	22274.88
696.33	21902.73
696.47	21982.31
696.60	22284.24
696.73	22136.79
696.87	21841.88
697.00	22010.40
697.14	21418.24
697.27	21404.20
697.40	21364.41
697.54	21209.93
697.67	21018.01
697.80	20952.48
697.94	21083.55
698.07	20940.77
698.21	20776.94
698.34	20350.96
698.47	20662.25
698.61	20102.86
698.74	20650.55
698.87	20753.53
699.01	20009.24
699.14	20339.26
699.27	20381.38
699.40	20386.07
699.54	20369.68
699.67	20201.16
699.80	19889.87
699.94	19679.22
700.07	19419.42
700.20	19110.47
700.34	19304.74
700.47	19372.61
700.60	19304.74
700.73	19386.66
700.87	19304.74
701.00	19140.90
701.13	19000.47
701.26	18546.40
701.40	18618.96
701.53	18391.93
701.66	18579.17
701.79	18665.77
701.93	18691.52
702.06	19035.58
702.19	18429.38
702.32	18319.37
702.46	18118.09
702.59	17949.57
702.72	17963.61
702.85	17792.75
702.99	17980.00
703.12	17713.17
703.25	18031.49
703.38	17872.33
703.51	17792.75
703.65	17593.81
703.78	17755.30
703.91	17341.03
704.04	17547.00
704.17	17729.56
704.31	17434.65
704.44	16915.05
704.57	16886.97
704.70	16608.44
704.83	16924.41
704.96	16449.28
705.10	16821.43
705.23	16776.96
>>>>>End Processed Spectral Data<<<<<
