SpectraSuite Data File
++++++++++++++++++++++++++++++++++++
Date: Thu Oct 24 13:21:15 EDT 2013
User: stostad
Dark Spectrum Present: No
Reference Spectrum Present: No
Number of Sampled Component Spectra: 1
Spectrometers: USB2+H05261
Integration Time (usec): 100000 (USB2+H05261)
Spectra Averaged: 1 (USB2+H05261)
Boxcar Smoothing: 0 (USB2+H05261)
Correct for Electrical Dark: No (USB2+H05261)
Strobe/Lamp Enabled: No (USB2+H05261)
Correct for Detector Non-linearity: No (USB2+H05261)
Correct for Stray Light: No (USB2+H05261)
Number of Pixels in Processed Spectrum: 2048
>>>>>Begin Processed Spectral Data<<<<<
365.73	535.98
365.92	535.98
366.12	535.98
366.32	484.49
366.52	463.43
366.72	493.85
366.91	479.81
367.11	444.70
367.31	440.02
367.51	447.04
367.70	451.72
367.90	482.15
368.10	479.81
368.30	444.70
368.49	362.78
368.69	475.13
368.89	477.47
369.09	468.11
369.28	524.28
369.48	533.64
369.68	496.19
369.87	528.96
370.07	397.89
370.27	550.03
370.47	592.16
370.66	770.04
370.86	807.48
371.06	802.80
371.25	791.10
371.45	809.83
371.65	788.76
371.84	777.06
372.04	830.89
372.24	767.70
372.44	709.18
372.63	837.91
372.83	844.93
373.03	884.72
373.22	795.78
373.42	903.45
373.62	884.72
373.81	858.98
374.01	875.36
374.21	905.79
374.40	877.70
374.60	931.53
374.79	870.68
374.99	947.92
375.19	868.34
375.38	987.71
375.58	882.38
375.78	936.21
375.97	940.90
376.17	926.85
376.37	985.37
376.56	990.05
376.76	873.02
376.95	959.62
377.15	889.40
377.35	884.72
377.54	985.37
377.74	936.21
377.93	905.79
378.13	931.53
378.33	887.06
378.52	924.51
378.72	912.81
378.91	926.85
379.11	976.00
379.31	903.45
379.50	994.73
379.70	898.77
379.89	1006.43
380.09	959.62
380.28	957.28
380.48	997.07
380.68	957.28
380.87	1001.75
381.07	1011.11
381.26	1050.90
381.46	1043.88
381.65	1053.24
381.85	931.53
382.04	994.73
382.24	1029.84
382.43	1053.24
382.63	1013.45
382.83	1027.50
383.02	1001.75
383.22	1111.75
383.41	940.90
383.61	1032.18
383.80	1170.27
384.00	1027.50
384.19	1022.81
384.39	1011.11
384.58	978.34
384.78	1046.22
384.97	1013.45
385.17	1011.11
385.36	1078.99
385.56	1043.88
385.75	1139.84
385.95	1022.81
386.14	1088.35
386.34	1081.33
386.53	1032.18
386.72	1090.69
386.92	1163.25
387.11	1095.37
387.31	1139.84
387.50	1081.33
387.70	1116.44
387.89	1130.48
388.09	1121.12
388.28	1121.12
388.48	1146.86
388.67	1172.61
388.86	1107.07
389.06	1107.07
389.25	1078.99
389.45	1165.59
389.64	1196.01
389.84	1184.31
390.03	1144.52
390.22	1160.91
390.42	1224.10
390.61	1200.69
390.81	1188.99
391.00	1137.50
391.19	1282.61
391.39	1203.04
391.58	1235.80
391.78	1144.52
391.97	1306.02
392.16	1158.57
392.36	1341.13
392.55	1294.32
392.75	1282.61
392.94	1238.14
393.13	1226.44
393.33	1301.34
393.52	1259.21
393.71	1357.51
393.91	1341.13
394.10	1313.04
394.29	1343.47
394.49	1186.65
394.68	1322.40
394.88	1350.49
395.07	1331.76
395.26	1411.34
395.46	1308.36
395.65	1448.79
395.84	1479.22
396.04	1371.55
396.23	1418.36
396.42	1390.28
396.62	1423.05
396.81	1437.09
397.00	1313.04
397.19	1425.39
397.39	1493.26
397.58	1369.21
397.77	1394.96
397.97	1526.03
398.16	1479.22
398.35	1413.68
398.55	1352.83
398.74	1472.20
398.93	1462.83
399.12	1448.79
399.32	1516.67
399.51	1439.43
399.70	1507.30
399.90	1533.05
400.09	1509.65
400.28	1537.73
400.47	1500.28
400.67	1610.29
400.86	1645.40
401.05	1586.88
401.24	1533.05
401.44	1584.54
401.63	1605.61
401.82	1614.97
402.01	1561.14
402.21	1547.09
402.40	1643.06
402.59	1554.12
402.78	1579.86
402.97	1671.14
403.17	1717.95
403.36	1638.38
403.55	1647.74
403.74	1764.76
403.93	1785.83
404.13	1813.92
404.32	1746.04
404.51	1790.51
404.70	1842.00
404.89	1729.66
405.09	1839.66
405.28	1834.98
405.47	1781.15
405.66	1811.57
405.85	1949.67
406.05	1949.67
406.24	1816.26
406.43	1760.08
406.62	1823.28
406.81	1874.77
407.00	1867.75
407.20	1781.15
407.39	1914.56
407.58	1895.83
407.77	1975.41
407.96	1947.33
408.15	1947.33
408.34	1956.69
408.54	2029.24
408.73	1944.99
408.92	1966.05
409.11	2073.71
409.30	2129.89
409.49	2012.86
409.68	2019.88
409.87	2146.27
410.07	2115.84
410.26	2120.53
410.45	2263.30
410.64	2036.27
410.83	2122.87
411.02	2097.12
411.21	2165.00
411.40	2172.02
411.59	2284.36
411.78	2218.83
411.98	2169.68
412.17	2195.42
412.36	2331.17
412.55	2406.07
412.74	2392.03
412.93	2314.79
413.12	2338.20
413.31	2408.41
413.50	2417.77
413.69	2314.79
413.88	2429.48
414.07	2422.45
414.26	2476.29
414.45	2516.08
414.64	2567.57
414.83	2469.27
415.02	2499.69
415.22	2661.19
415.41	2537.14
415.60	2651.83
415.79	2621.40
415.98	2719.70
416.17	2661.19
416.36	2750.13
416.55	2675.23
416.74	2675.23
416.93	2787.58
417.12	2771.19
417.31	2771.19
417.50	2813.32
417.69	2869.50
417.88	2782.90
418.07	2729.06
418.26	2822.69
418.45	2946.73
418.64	3094.19
418.83	2939.71
419.02	2820.35
419.21	3021.63
419.39	2925.67
419.58	2944.39
419.77	2906.95
419.96	3007.59
420.15	3002.91
420.34	2998.23
420.53	3045.04
420.72	3047.38
420.91	3073.12
421.10	3077.80
421.29	3091.85
421.48	3040.36
421.67	3087.17
421.86	3082.49
422.05	3229.94
422.24	3204.19
422.43	3159.72
422.61	3180.79
422.80	3080.14
422.99	3162.06
423.18	3101.21
423.37	3309.52
423.56	3119.93
423.75	3152.70
423.94	3080.14
424.13	2986.52
424.32	3089.51
424.50	3241.64
424.69	3194.83
424.88	3267.39
425.07	3281.43
425.26	3131.64
425.45	3152.70
425.64	3124.62
425.83	3194.83
426.01	3227.60
426.20	3300.16
426.39	3293.13
426.58	3274.41
426.77	3251.00
426.96	3288.45
427.15	3274.41
427.33	3267.39
427.52	3349.31
427.71	3339.94
427.90	3361.01
428.09	3396.12
428.28	3396.12
428.46	3342.28
428.65	3375.05
428.84	3569.32
429.03	3501.44
429.22	3463.99
429.40	3485.06
429.59	3531.87
429.78	3393.78
429.97	3349.31
430.16	3478.04
430.34	3545.91
430.53	3630.17
430.72	3588.04
430.91	3641.87
431.10	3522.51
431.28	3595.06
431.47	3637.19
431.66	3756.56
431.85	3765.92
432.03	3637.19
432.22	3859.54
432.41	3784.65
432.60	3772.94
432.79	3644.21
432.97	3840.82
433.16	3723.79
433.35	3840.82
433.54	3737.84
433.72	3831.46
433.91	3925.08
434.10	3918.06
434.28	3852.52
434.47	3904.01
434.66	3953.16
434.85	3964.87
435.03	4014.02
435.22	4145.09
435.41	4337.01
435.59	4215.30
435.78	4210.62
435.97	4028.06
436.16	4091.26
436.34	4049.13
436.53	4042.11
436.72	4170.83
436.90	3981.25
437.09	4142.75
437.28	4042.11
437.46	4072.53
437.65	4025.72
437.84	4276.16
438.02	4135.73
438.21	4168.49
438.40	4208.28
438.58	4367.44
438.77	4409.57
438.96	4224.67
439.14	4418.93
439.33	4454.04
439.52	4334.67
439.70	4465.74
439.89	4498.51
440.08	4547.66
440.26	4613.20
440.45	4489.15
440.63	4699.80
440.82	4821.50
441.01	4643.62
441.19	4524.26
441.38	4676.39
441.57	4587.45
441.75	4702.14
441.94	4844.91
442.12	4889.38
442.31	4915.12
442.50	4835.55
442.68	4833.21
442.87	4938.53
443.05	4910.44
443.24	5006.41
443.43	4898.74
443.61	5060.24
443.80	5090.67
443.98	4887.04
444.17	4805.12
444.35	5085.98
444.54	4933.85
444.73	4917.47
444.91	5034.49
445.10	4990.02
445.28	5025.13
445.47	4983.00
445.65	5074.28
445.84	5006.41
446.02	5210.03
446.21	5041.51
446.39	5205.35
446.58	5149.18
446.77	5188.97
446.95	5013.43
447.14	4978.32
447.32	5174.92
447.51	5149.18
447.69	4926.83
447.88	5074.28
448.06	5210.03
448.25	5102.37
448.43	5158.54
448.62	5118.75
448.80	4971.30
448.99	5186.63
449.17	5233.44
449.36	5076.62
449.54	5355.15
449.73	5217.05
449.91	5357.49
450.10	5376.21
450.28	5338.76
450.46	5467.49
450.65	5341.10
450.83	5493.24
451.02	5392.59
451.20	5547.07
451.39	5645.37
451.57	5500.26
451.76	5500.26
451.94	5603.24
452.13	5568.13
452.31	5596.22
452.49	5558.77
452.68	5617.29
452.86	5518.98
453.05	5535.37
453.23	5603.24
453.42	5551.75
453.60	5687.50
453.78	5767.08
453.97	5621.97
454.15	5699.20
454.34	5563.45
454.52	5846.66
454.70	5748.36
454.89	5764.74
455.07	5783.46
455.26	5729.63
455.44	5863.04
455.62	5825.59
455.81	5809.21
455.99	6108.80
456.17	5928.58
456.36	6069.01
456.54	6010.50
456.73	6099.44
456.91	6097.10
457.09	6115.82
457.28	6113.48
457.46	6113.48
457.64	6153.27
457.83	6258.59
458.01	6106.46
458.19	6249.23
458.38	6160.29
458.56	6108.80
458.74	6225.82
458.93	6218.80
459.11	6366.26
459.29	6361.58
459.48	6235.19
459.66	6366.26
459.84	6413.07
460.03	6476.26
460.21	6597.97
460.39	6319.45
460.57	6408.39
460.76	6483.28
460.94	6487.96
461.12	6511.37
461.31	6595.63
461.49	6722.02
461.67	6567.54
461.85	6712.66
462.04	6668.19
462.22	7115.23
462.40	6874.15
462.59	6810.96
462.77	6579.25
462.95	6834.36
463.13	6747.76
463.32	6829.68
463.50	6778.19
463.68	7019.27
463.86	6897.56
464.05	6920.96
464.23	6771.17
464.41	6904.58
464.59	6796.92
464.78	7028.63
464.96	6920.96
465.14	6794.58
465.32	6899.90
465.50	7169.06
465.69	7169.06
465.87	7066.08
466.05	6801.60
466.23	7073.10
466.41	7016.93
466.60	7178.42
466.78	7098.84
466.96	7115.23
467.14	7159.70
467.32	7169.06
467.51	7260.34
467.69	7126.93
467.87	7405.46
468.05	7396.09
468.23	7040.33
468.41	7091.82
468.60	7279.07
468.78	7321.20
468.96	7068.42
469.14	7506.10
469.32	7435.88
469.50	7260.34
469.69	7386.73
469.87	7550.57
470.05	7421.84
470.23	7581.00
470.41	7707.38
470.59	7688.66
470.77	7501.42
470.95	7480.35
471.14	7803.35
471.32	7744.83
471.50	7698.02
471.68	7817.39
471.86	7812.71
472.04	7880.58
472.22	8187.19
472.40	8051.44
472.58	8035.06
472.77	8088.89
472.95	8177.83
473.13	8400.18
473.31	7976.55
473.49	8177.83
473.67	8128.68
473.85	8259.75
474.03	8339.33
474.21	8297.20
474.39	8386.14
474.57	8388.48
474.75	8442.31
474.93	8585.08
475.12	8344.01
475.30	8566.36
475.48	8634.24
475.66	8645.94
475.84	8634.24
476.02	8872.97
476.20	8791.05
476.38	8842.54
476.56	8910.42
476.74	8917.44
476.92	8835.52
477.10	9015.74
477.28	9146.81
477.46	9200.65
477.64	9366.82
477.82	9329.38
478.00	9528.32
478.18	9270.86
478.36	9432.36
478.54	9610.24
478.72	9694.50
478.90	9846.63
479.08	9860.68
479.26	10005.79
479.44	9998.77
479.62	9996.43
479.80	9970.68
479.98	10237.50
480.16	10567.52
480.34	10186.01
480.52	10296.02
480.70	10569.86
480.88	10263.25
481.06	10520.71
481.24	10670.50
481.41	10789.87
481.59	10663.48
481.77	10984.13
481.95	11044.99
482.13	10920.94
482.31	11084.78
482.49	11482.67
482.67	11222.87
482.85	11559.91
483.03	11522.46
483.21	11543.52
483.39	11768.21
483.57	11492.03
483.74	11571.61
483.92	11843.11
484.10	11714.38
484.28	11957.80
484.46	12226.96
484.64	12346.33
484.82	12294.83
485.00	12489.10
485.18	12690.38
485.35	12645.91
485.53	12580.38
485.71	12753.58
485.89	13193.60
486.07	12875.29
486.25	13427.65
486.43	13298.92
486.61	13142.11
486.78	13692.13
486.96	13453.40
487.14	13813.84
487.32	13483.83
487.50	13668.73
487.68	13783.41
487.85	13848.95
488.03	13844.27
488.21	14129.81
488.39	14108.75
488.57	14532.39
488.75	14654.09
488.92	14530.05
489.10	14649.41
489.28	15019.22
489.46	14778.14
489.64	14918.57
489.81	15129.22
489.99	15197.10
490.17	15403.07
490.35	15442.85
490.53	15220.50
490.70	15587.97
490.88	15583.29
491.06	16013.95
491.24	15831.38
491.41	15950.75
491.59	16037.35
491.77	16093.52
491.95	16137.99
492.13	16311.19
492.30	16451.63
492.48	16503.12
492.66	16648.23
492.84	16758.24
493.01	17092.93
493.19	16872.92
493.37	16961.86
493.54	16858.88
493.72	17322.30
493.90	17282.52
494.08	17362.09
494.25	17465.08
494.43	17525.93
494.61	17392.52
494.79	17551.68
494.96	17727.22
495.14	17752.96
495.32	17954.25
495.49	18057.23
495.67	18363.84
495.85	18431.72
496.02	18499.59
496.20	18424.70
496.38	18427.04
496.55	18359.16
496.73	18932.59
496.91	18944.30
497.09	19068.34
497.26	19023.87
497.44	18995.79
497.62	19159.63
497.79	19309.42
497.97	19440.49
498.14	19660.50
498.32	19754.12
498.50	19688.59
498.67	19974.13
498.85	20006.90
499.03	19735.40
499.20	19957.75
499.38	19985.83
499.56	20278.40
499.73	20334.57
499.91	20304.15
500.08	20713.74
500.26	20458.62
500.44	20496.07
500.61	20858.85
500.79	20666.93
500.97	20732.47
501.14	20828.43
501.32	20872.90
501.49	20786.30
501.67	21305.90
501.84	21408.88
502.02	21291.85
502.20	21348.03
502.37	21509.52
502.55	21076.52
502.72	21329.30
502.90	21710.81
503.07	21532.93
503.25	21750.60
503.43	22005.72
503.60	21884.01
503.78	21474.42
503.95	21895.71
504.13	21703.79
504.30	21790.39
504.48	21837.20
504.65	22281.90
504.83	22281.90
505.01	22391.91
505.18	22398.93
505.36	22677.45
505.53	22670.43
505.71	22398.93
505.88	22635.32
506.06	22824.90
506.23	22845.97
506.41	22679.79
506.58	23136.20
506.76	22771.07
506.93	22993.42
507.11	23180.67
507.28	23419.40
507.46	23321.10
507.63	23353.87
507.81	23555.15
507.98	23388.97
508.16	23552.81
508.33	23786.86
508.50	23564.51
508.68	23786.86
508.85	23992.83
509.03	23847.72
509.20	24018.58
509.38	24025.60
509.55	24212.84
509.73	24453.92
509.90	24130.92
510.08	24360.30
510.25	24369.66
510.42	24514.77
510.60	24704.35
510.77	24587.33
510.95	24814.36
511.12	24772.23
511.30	24645.84
511.47	24762.87
511.64	24812.02
511.82	25226.29
511.99	24753.51
512.17	24730.10
512.34	25429.92
512.51	25708.44
512.69	25542.27
512.86	25212.25
513.04	25893.35
513.21	25387.79
513.38	25621.84
513.56	25504.82
513.73	25380.77
513.90	25989.31
514.08	26157.83
514.25	26120.38
514.43	26043.14
514.60	26010.37
514.77	25944.84
514.95	26560.40
515.12	25806.75
515.29	26335.71
515.47	26211.66
515.64	26726.58
515.81	26501.89
515.99	26396.56
516.16	26602.53
516.33	26899.78
516.51	26977.01
516.68	26705.51
516.85	26911.48
517.03	27187.66
517.20	26925.52
517.37	26941.91
517.54	26986.38
517.72	27119.79
517.89	27154.90
518.06	27335.12
518.24	27276.60
518.41	27417.04
518.58	27105.74
518.75	26857.65
518.93	27564.49
519.10	27501.29
519.27	27477.89
519.45	27410.01
519.62	27871.10
519.79	27536.40
519.96	27920.25
520.14	27992.81
520.31	27442.78
520.48	27669.81
520.65	27899.19
520.83	28332.18
521.00	28339.21
521.17	28032.60
521.34	28114.52
521.52	28222.18
521.69	28350.91
521.86	28500.70
522.03	28474.96
522.20	28451.55
522.38	28917.32
522.55	28840.08
522.72	28816.68
522.89	28905.62
523.07	28507.72
523.24	28828.38
523.41	29013.28
523.58	28938.38
523.75	28833.06
523.92	29345.64
524.10	29287.12
524.27	29268.40
524.44	29495.43
524.61	29228.61
524.78	29640.54
524.96	29244.99
525.13	29685.01
525.30	29937.79
525.47	30019.71
525.64	29453.30
525.81	29818.42
525.98	30113.33
526.16	29731.83
526.33	29502.45
526.50	30312.28
526.67	29827.79
526.84	29827.79
527.01	29900.34
527.18	30206.95
527.36	30639.95
527.53	30125.04
527.70	30738.26
527.87	30459.73
528.04	30483.14
528.21	30539.31
528.38	30483.14
528.55	30323.98
528.72	30284.19
528.89	30359.09
529.07	30499.52
529.24	30642.29
529.41	30595.48
529.58	30703.15
529.75	30810.81
529.92	30649.32
530.09	31122.10
530.26	30869.33
530.43	30792.09
530.60	30691.44
530.77	30810.81
530.94	30998.06
531.11	31438.08
531.28	30831.88
531.46	31456.80
531.63	31494.25
531.80	31150.19
531.97	31264.88
532.14	31505.95
532.31	31374.88
532.48	31550.42
532.65	31875.76
532.82	31702.56
532.99	31585.53
533.16	31695.53
533.33	31541.06
533.50	31875.76
533.67	31810.22
533.84	31826.60
534.01	31807.88
534.18	31417.01
534.35	32243.22
534.52	31854.69
534.69	31536.38
534.86	32299.39
535.03	31838.31
535.20	32048.96
535.37	32343.86
535.54	32437.48
535.71	31805.54
535.88	32201.09
536.05	32322.80
536.22	32666.86
536.38	32655.15
536.55	32840.06
536.72	32360.25
536.89	32666.86
537.06	32804.95
537.23	32685.58
537.40	33191.14
537.57	32804.95
537.74	32936.02
537.91	33010.92
538.08	33060.07
538.25	32781.54
538.42	32950.06
538.59	32835.38
538.75	32940.70
538.92	33109.22
539.09	33385.40
539.26	32959.42
539.43	33085.81
539.60	32699.62
539.77	33219.22
539.94	33890.96
540.11	33633.50
540.28	33921.38
540.44	33717.76
540.61	33490.73
540.78	33418.17
540.95	33479.02
541.12	33612.43
541.29	33780.95
541.46	33895.64
541.62	33832.44
541.79	34174.16
541.96	33919.04
542.13	34211.61
542.30	34361.40
542.47	34195.23
542.63	34286.51
542.80	34387.15
542.97	34660.99
543.14	34436.30
543.31	34607.16
543.48	34665.67
543.64	34911.43
543.81	35143.14
543.98	34911.43
544.15	35105.70
544.32	34719.51
544.48	35335.07
544.65	34763.98
544.82	35091.65
544.99	34873.98
545.16	35108.04
545.32	34768.66
545.49	35782.11
545.66	35861.69
545.83	35770.41
546.00	36287.67
546.16	35873.39
546.33	35314.00
546.50	35283.58
546.67	35204.00
546.83	35569.12
547.00	35058.88
547.17	34698.44
547.34	35175.91
547.50	35267.19
547.67	35674.45
547.84	35187.61
548.00	35892.12
548.17	36144.89
548.34	35454.44
548.51	35899.14
548.67	35821.90
548.84	35751.68
549.01	35688.49
549.18	35924.88
549.34	35835.94
549.51	35943.61
549.68	35952.97
549.84	35452.09
550.01	35950.63
550.18	35260.17
550.34	35793.81
550.51	35508.27
550.68	36088.72
550.84	35709.55
551.01	35929.56
551.18	35945.95
551.34	35517.63
551.51	35744.66
551.68	35859.35
551.84	36062.97
552.01	35552.74
552.18	36362.56
552.34	35959.99
552.51	36313.41
552.68	36460.87
552.84	36271.28
553.01	36226.81
553.18	36091.06
553.34	36170.64
553.51	36285.33
553.67	36025.53
553.84	36575.55
554.01	36814.29
554.17	36739.39
554.34	36715.98
554.51	36229.15
554.67	36987.49
554.84	36521.72
555.00	36264.26
555.17	36231.49
555.33	36613.00
555.50	36692.58
555.67	36793.22
555.83	36561.51
556.00	36854.08
556.16	36701.94
556.33	36814.29
556.50	36706.62
556.66	36872.80
556.83	36313.41
556.99	36964.08
557.16	36828.33
557.32	37151.32
557.49	36912.59
557.65	37158.34
557.82	36631.72
557.98	36905.57
558.15	36835.35
558.32	37270.69
558.48	36725.35
558.65	36893.86
558.81	37305.80
558.98	37268.35
559.14	37385.38
559.31	36535.76
559.47	37193.45
559.64	37305.80
559.80	36964.08
559.97	37237.92
560.13	37060.04
560.30	36701.94
560.46	37216.86
560.63	37127.92
560.79	37221.54
560.96	37645.18
561.12	37432.19
561.29	37188.77
561.45	37584.32
561.61	37361.97
561.78	37165.37
561.94	37713.05
562.11	37759.86
562.27	37797.31
562.44	37577.30
562.60	37858.17
562.77	37486.02
562.93	37207.50
563.10	37947.11
563.26	37411.12
563.42	38059.45
563.59	37813.70
563.75	37633.47
563.92	37762.20
564.08	37649.86
564.24	37713.05
564.41	37460.27
564.57	37261.33
564.74	37645.18
564.90	37816.04
565.07	38129.67
565.23	38120.31
565.39	37654.54
565.56	37827.74
565.72	37879.23
565.88	38003.28
566.05	37858.17
566.21	37516.45
566.38	37460.27
566.54	38129.67
566.70	37879.23
566.87	38455.00
567.03	38190.52
567.19	38672.67
567.36	38246.69
567.52	37851.14
567.68	38007.96
567.85	37727.10
568.01	38265.42
568.17	37921.36
568.34	38185.84
568.50	38169.46
568.66	38164.78
568.83	38206.90
568.99	37734.12
569.15	37986.89
569.32	38117.96
569.48	38181.16
569.64	38024.34
569.81	37921.36
569.97	37689.65
570.13	37839.44
570.30	38045.41
570.46	38384.79
570.62	38190.52
570.78	38024.34
570.95	38066.47
571.11	38202.22
571.27	38120.31
571.43	38000.94
571.60	38307.55
571.76	38447.98
571.92	38251.38
572.09	38455.00
572.25	38511.17
572.41	38504.15
572.57	38312.23
572.74	38813.10
572.90	38174.14
573.06	38356.70
573.22	38607.14
573.38	38438.62
573.55	38508.83
573.71	38410.53
573.87	38106.26
574.03	38541.60
574.20	38412.87
574.36	38438.62
574.52	37897.95
574.68	38234.99
574.84	38565.01
575.01	38293.50
575.17	38150.73
575.33	38127.33
575.49	38536.92
575.65	37865.19
575.82	38628.20
575.98	38597.77
576.14	38911.41
576.30	38759.27
576.46	38728.84
576.62	38417.55
576.79	38300.53
576.95	38382.45
577.11	38639.90
577.27	38885.66
577.43	38904.38
577.59	38710.12
577.75	38391.81
577.92	38274.78
578.08	38447.98
578.24	38621.18
578.40	38525.22
578.56	38770.97
578.72	39108.01
578.88	39131.42
579.04	39171.21
579.21	38911.41
579.37	39054.18
579.53	38890.34
579.69	38583.73
579.85	38745.23
580.01	39112.69
580.17	38796.72
580.33	38677.35
580.49	38754.59
580.65	38747.57
580.82	38527.56
580.98	38590.75
581.14	38904.38
581.30	38707.78
581.46	38651.61
581.62	38925.45
581.78	38438.62
581.94	38408.19
582.10	38703.10
582.26	38932.47
582.42	38445.64
582.58	38550.96
582.74	38754.59
582.90	38986.30
583.06	38965.24
583.22	38892.68
583.38	38937.15
583.54	38946.51
583.70	38340.32
583.86	38754.59
584.02	38782.68
584.18	39012.05
584.34	38895.02
584.50	39079.92
584.66	38916.09
584.82	38485.43
584.98	38675.01
585.14	38766.29
585.30	38742.89
585.46	39054.18
585.62	38588.41
585.78	39063.54
585.94	39115.03
586.10	38574.37
586.26	39178.23
586.42	38979.28
586.58	38920.77
586.74	38801.40
586.90	38836.51
587.06	38726.50
587.22	39393.56
587.38	38831.83
587.54	39562.08
587.70	39356.11
587.86	39351.43
588.02	39271.85
588.18	39466.11
588.34	39203.97
588.49	39014.39
588.65	39042.48
588.81	38895.02
588.97	39185.25
589.13	39323.34
589.29	39213.34
589.45	39040.14
589.61	39098.65
589.77	39306.96
589.93	38698.42
590.08	39559.73
590.24	39538.67
590.40	39604.20
590.56	39171.21
590.72	38976.94
590.88	38899.70
591.04	38925.45
591.20	39274.19
591.35	39271.85
591.51	39943.58
591.67	39817.19
591.83	39782.09
591.99	39068.22
592.15	39194.61
592.31	39346.75
592.46	39077.58
592.62	39082.27
592.78	39405.26
592.94	39281.21
593.10	39641.65
593.26	39704.85
593.41	39746.98
593.57	39494.20
593.73	39889.75
593.89	39608.89
594.05	39152.48
594.20	39082.27
594.36	39248.44
594.52	39480.16
594.68	39089.29
594.84	39229.72
594.99	39845.28
595.15	39526.97
595.31	39723.57
595.47	39203.97
595.62	39239.08
595.78	39117.37
595.94	39386.54
596.10	39152.48
596.25	39290.57
596.41	39295.25
596.57	39295.25
596.73	39821.87
596.88	39227.38
597.04	39578.46
597.20	39599.52
597.36	39576.12
597.51	39423.98
597.67	39440.37
597.83	39108.01
597.99	39648.68
598.14	39629.95
598.30	39426.32
598.46	39344.41
598.61	39203.97
598.77	39405.26
598.93	39510.58
599.09	39480.16
599.24	39655.70
599.40	39384.19
599.56	39831.24
599.71	39225.04
599.87	39306.96
600.03	39515.26
600.18	39934.22
600.34	39381.85
600.50	40025.50
600.65	39541.01
600.81	39938.90
600.97	39653.36
601.12	39824.22
601.28	39517.60
601.44	39234.40
601.59	39908.47
601.75	39585.48
601.91	39662.72
602.06	39395.90
602.22	39321.00
602.37	39536.33
602.53	39510.58
602.69	39742.30
602.84	39552.71
603.00	39571.44
603.16	39407.60
603.31	39290.57
603.47	39634.63
603.62	39636.97
603.78	39168.87
603.94	39381.85
604.09	39365.47
604.25	39660.38
604.40	39161.84
604.56	39693.15
604.71	39442.71
604.87	39271.85
605.03	39351.43
605.18	39035.45
605.34	39302.28
605.49	38813.10
605.65	38993.32
605.80	39185.25
605.96	39056.52
606.12	39505.90
606.27	40135.51
606.43	39585.48
606.58	39709.53
606.74	39723.57
606.89	39583.14
607.05	39283.55
607.20	39365.47
607.36	39213.34
607.51	39199.29
607.67	39360.79
607.82	39157.16
607.98	39264.83
608.13	39885.07
608.29	39796.13
608.44	39283.55
608.60	39173.55
608.75	39821.87
608.91	39620.59
609.06	39147.80
609.22	39543.35
609.37	38857.57
609.53	39751.66
609.68	39196.95
609.84	39154.82
609.99	39812.51
610.15	39129.08
610.30	39627.61
610.46	39515.26
610.61	40079.33
610.76	40032.52
610.92	40367.22
611.07	40182.32
611.23	40088.70
611.38	40100.40
611.54	40308.71
611.69	40002.10
611.84	40093.38
612.00	39978.69
612.15	39702.51
612.31	39775.06
612.46	39431.01
612.62	39255.46
612.77	39325.68
612.92	39318.66
613.08	39480.16
613.23	39213.34
613.39	39159.50
613.54	39166.52
613.69	39405.26
613.85	39203.97
614.00	39393.56
614.15	39634.63
614.31	38967.58
614.46	39814.85
614.62	38885.66
614.77	38719.48
614.92	38993.32
615.08	38497.13
615.23	38988.64
615.38	38349.68
615.54	38487.77
615.69	38630.54
615.84	38761.61
616.00	39072.90
616.15	38660.97
616.30	38880.98
616.46	39054.18
616.61	38663.31
616.76	38244.35
616.92	38094.56
617.07	38623.52
617.22	38059.45
617.37	38136.69
617.53	38216.27
617.68	38476.07
617.83	38305.21
617.99	38431.60
618.14	38686.71
618.29	38319.25
618.45	38066.47
618.60	38286.48
618.75	37881.57
618.90	37942.42
619.06	37441.55
619.21	38129.67
619.36	38171.80
619.51	38230.31
619.67	37834.76
619.82	38047.75
619.97	38195.20
620.12	37993.92
620.28	38464.36
620.43	38588.41
620.58	37750.50
620.73	37923.70
620.89	38094.56
621.04	38078.18
621.19	37954.13
621.34	38174.14
621.49	37748.16
621.65	37607.73
621.80	38059.45
621.95	38106.26
622.10	38153.07
622.25	37790.29
622.41	37574.96
622.56	37762.20
622.71	38167.12
622.86	38007.96
623.01	37680.28
623.16	37469.64
623.32	37823.06
623.47	37305.80
623.62	37979.87
623.77	38012.64
623.92	37432.19
624.07	37848.80
624.23	37596.03
624.38	37832.42
624.53	37607.73
624.68	37294.10
624.83	37577.30
624.98	37158.34
625.13	37174.73
625.29	37277.71
625.44	37727.10
625.59	36954.72
625.74	37301.12
625.89	37256.65
626.04	37120.90
626.19	37310.48
626.34	37017.91
626.49	37195.79
626.65	37195.79
626.80	37226.22
626.95	36725.35
627.10	36589.59
627.25	37097.49
627.40	36912.59
627.55	36793.22
627.70	36851.73
627.85	36816.63
628.00	36561.51
628.15	36875.14
628.30	36561.51
628.45	37118.56
628.60	36987.49
628.76	36566.19
628.91	36446.82
629.06	36610.66
629.21	36517.04
629.36	36528.74
629.51	36545.12
629.66	36498.31
629.81	36542.78
629.96	36538.10
630.11	36966.42
630.26	36617.68
630.41	36685.56
630.56	36463.21
630.71	36779.18
630.86	36652.79
631.01	36224.47
631.16	36414.05
631.31	36196.38
631.46	36039.57
631.61	35859.35
631.76	36095.74
631.91	36381.29
632.06	36172.98
632.21	36472.57
632.36	35608.91
632.51	36137.87
632.66	36273.62
632.81	36070.00
632.96	36474.91
633.10	36486.61
633.25	36037.23
633.40	36055.95
633.55	36060.63
633.70	35522.31
633.85	35332.73
634.00	35945.95
634.15	35730.62
634.30	35679.13
634.45	35924.88
634.60	35669.76
634.75	36144.89
634.90	35952.97
635.05	35990.42
635.19	35831.26
635.34	35784.45
635.49	35903.82
635.64	35660.40
635.79	35571.46
635.94	35459.12
636.09	35147.82
636.24	35405.28
636.39	35702.53
636.53	35817.22
636.68	35777.43
636.83	35309.32
636.98	35899.14
637.13	35461.46
637.28	35281.24
637.43	35309.32
637.57	35405.28
637.72	34869.30
637.87	35150.17
638.02	35555.08
638.17	35543.38
638.32	34785.04
638.46	35096.33
638.61	35323.36
638.76	35005.05
638.91	35426.35
639.06	35112.72
639.20	35601.89
639.35	35625.29
639.50	35290.60
639.65	35388.90
639.80	34955.90
639.94	35290.60
640.09	34724.19
640.24	34951.22
640.39	35021.44
640.54	34918.45
640.68	34679.72
640.83	35204.00
640.98	34583.76
641.13	34593.12
641.27	34408.22
641.42	34600.14
641.57	34506.52
641.72	34925.47
641.86	34424.60
642.01	34480.77
642.16	34040.75
642.31	34274.80
642.45	34469.07
642.60	34586.10
642.75	34448.00
642.90	34422.26
643.04	34302.89
643.19	34181.18
643.34	34623.54
643.48	34892.71
643.63	34536.94
643.78	34307.57
643.93	33820.74
644.07	34183.52
644.22	33933.09
644.37	34066.50
644.51	34422.26
644.66	34047.77
644.81	34501.84
644.95	34703.12
645.10	34181.18
645.25	34366.09
645.39	34277.15
645.54	34380.13
645.69	34382.47
645.83	34267.78
645.98	34220.97
646.13	34614.18
646.27	34218.63
646.42	34298.21
646.57	34263.10
646.71	33895.64
646.86	33951.81
647.00	33738.82
647.15	34066.50
647.30	33907.34
647.44	33689.67
647.59	33752.87
647.74	34099.26
647.88	34223.31
648.03	33809.04
648.17	33626.48
648.32	33628.82
648.47	33734.14
648.61	33034.32
648.76	33804.36
648.90	33846.49
649.05	33764.57
649.20	33504.77
649.34	34064.16
649.49	33844.15
649.63	34005.64
649.78	34265.44
649.92	33249.65
650.07	34253.74
650.21	33633.50
650.36	33652.22
650.51	33647.54
650.65	33890.96
650.80	34005.64
650.94	33308.16
651.09	32889.21
651.23	33230.93
651.38	33659.24
651.52	33432.21
651.67	33404.13
651.81	33441.57
651.96	33130.28
652.10	33429.87
652.25	33113.90
652.39	33130.28
652.54	32809.63
652.68	32334.50
652.83	33172.41
652.97	33701.37
653.12	32624.73
653.26	33441.57
653.41	33511.79
653.55	33081.13
653.70	32943.04
653.84	32954.74
653.99	33097.52
654.13	33092.83
654.27	32964.10
654.42	32474.93
654.56	32982.83
654.71	32959.42
654.85	33242.63
655.00	32980.49
655.14	32645.79
655.29	32465.57
655.43	33043.68
655.57	32510.04
655.72	32608.34
655.86	33053.05
656.01	33013.26
656.15	32517.06
656.30	32690.26
656.44	32718.35
656.58	32711.33
656.73	32210.45
656.87	32254.92
657.01	32430.46
657.16	32397.70
657.30	32538.13
657.45	32795.59
657.59	31922.57
657.73	31812.56
657.88	32231.52
658.02	32201.09
658.16	32385.99
658.31	32182.37
658.45	32250.24
658.60	32034.91
658.74	32079.38
658.88	31782.13
659.03	31931.93
659.17	32357.91
659.31	32154.28
659.46	31840.65
659.60	32032.57
659.74	31927.25
659.89	31475.52
660.03	31522.34
660.17	31875.76
660.32	31557.44
660.46	31594.89
660.60	31360.84
660.74	31400.63
660.89	31611.28
661.03	31613.62
661.17	31608.93
661.32	31566.81
661.46	31899.16
661.60	31587.87
661.74	30944.22
661.89	30948.90
662.03	31201.68
662.17	31115.08
662.31	30508.88
662.46	31428.71
662.60	30773.36
662.74	30799.11
662.88	31288.28
663.03	31145.51
663.17	31016.78
663.31	30539.31
663.45	31089.34
663.60	30857.62
663.74	30852.94
663.88	31119.76
664.02	30733.57
664.17	30286.53
664.31	30380.15
664.45	30518.25
664.59	30424.62
664.73	30646.97
664.88	30604.84
665.02	30534.63
665.16	30841.24
665.30	30368.45
665.44	30785.07
665.59	30115.67
665.73	30218.66
665.87	30038.44
666.01	29912.05
666.15	29963.54
666.29	29764.59
666.44	30106.31
666.58	29516.50
666.72	29586.71
666.86	29780.98
667.00	29956.52
667.14	29764.59
667.28	29572.67
667.43	29696.72
667.57	29612.46
667.71	29926.09
667.85	29465.00
667.99	29366.70
668.13	29209.89
668.27	29230.95
668.41	29259.04
668.56	29289.46
668.70	29060.09
668.84	29017.96
668.98	29146.69
669.12	28762.84
669.26	28954.77
669.40	28952.43
669.54	29062.43
669.68	28500.70
669.82	28893.91
669.96	29001.58
670.10	29085.84
670.25	28870.51
670.39	28795.61
670.53	28166.01
670.67	28301.76
670.81	28978.17
670.95	28823.70
671.09	28304.10
671.23	28435.17
671.37	28664.54
671.51	28500.70
671.65	28367.29
671.79	28112.17
671.93	27871.10
672.07	28030.26
672.21	28226.86
672.35	27868.76
672.49	27978.76
672.63	27960.04
672.77	28091.11
672.91	27562.15
673.05	28006.85
673.19	27372.57
673.33	27257.88
673.47	27136.17
673.61	27569.17
673.75	27225.11
673.89	27276.60
674.03	27285.97
674.17	27152.55
674.31	27513.00
674.45	27480.23
674.59	27503.64
674.73	27311.71
674.87	27285.97
675.01	27267.24
675.15	27002.76
675.29	26838.92
675.43	26602.53
675.56	26707.85
675.70	26714.87
675.84	26614.23
675.98	25750.57
676.12	26263.15
676.26	26359.11
676.40	26265.49
676.54	26284.22
676.68	26548.70
676.82	25500.14
676.96	26087.61
677.10	26321.66
677.23	26085.27
677.37	26057.18
677.51	25830.15
677.65	25668.66
677.79	25535.24
677.93	25474.39
678.07	24964.15
678.21	25296.51
678.34	25247.36
678.48	25219.27
678.62	25223.95
678.76	24800.32
678.90	24947.77
679.04	24858.83
679.18	24805.00
679.31	24659.88
679.45	24964.15
679.59	25160.76
679.73	24889.26
679.87	24685.63
680.00	24549.88
680.14	24357.96
680.28	24381.36
680.42	24159.01
680.56	24449.24
680.70	24009.22
680.83	23866.44
680.97	24098.16
681.11	23931.98
681.25	24044.32
681.39	23639.41
681.52	24208.16
681.66	23908.57
681.80	23700.26
681.94	23587.92
682.07	23791.55
682.21	23557.49
682.35	23183.01
682.49	23403.02
682.62	23234.50
682.76	22869.37
682.90	23133.86
683.04	22752.35
683.17	22742.99
683.31	22874.06
683.45	22574.47
683.59	22820.22
683.72	22934.91
683.86	22960.66
684.00	22675.11
684.13	22471.48
684.27	22113.38
684.41	22216.36
684.55	21891.03
684.68	22279.56
684.82	22099.34
684.96	21865.28
685.09	22181.26
685.23	21778.68
685.37	22052.53
685.50	22061.89
685.64	21675.70
685.78	21565.70
685.91	21509.52
686.05	21280.15
686.19	21125.68
686.32	21296.53
686.46	21329.30
686.60	21282.49
686.73	21289.51
686.87	21322.28
687.01	21341.00
687.14	21078.86
687.28	20938.43
687.42	20788.64
687.55	20826.09
687.69	20582.67
687.82	20397.77
687.96	20479.69
688.10	20554.58
688.23	20613.10
688.37	20278.40
688.50	20163.72
688.64	20343.94
688.78	19997.54
688.91	20198.82
689.05	20032.65
689.18	19499.00
689.32	19613.69
689.46	19609.01
689.59	19836.04
689.73	19482.62
689.86	19440.49
690.00	19665.18
690.13	19496.66
690.27	19583.26
690.41	19337.51
690.54	19136.22
690.68	19070.68
690.81	18995.79
690.95	19283.67
691.08	18944.30
691.22	18782.80
691.35	18752.37
691.49	19180.69
691.62	18302.99
691.76	18618.96
691.89	18864.72
692.03	18906.85
692.16	18511.30
692.30	18321.71
692.43	18029.15
692.57	18026.81
692.70	18118.09
692.84	18075.96
692.97	18075.96
693.11	18092.34
693.24	17944.89
693.38	17734.24
693.51	17661.68
693.65	17731.90
693.78	17619.55
693.92	17862.97
694.05	17682.75
694.19	17642.96
694.32	17724.88
694.45	17802.11
694.59	17467.42
694.72	17252.09
694.86	16807.39
694.99	16629.51
695.13	16669.30
695.26	16798.02
695.39	16538.23
695.53	17011.01
695.66	16748.87
695.80	16245.66
695.93	16517.16
696.07	16561.63
696.20	16566.31
696.33	16606.10
696.47	16566.31
696.60	16482.05
696.73	16285.45
696.87	16421.20
697.00	16248.00
697.14	15840.75
697.27	15744.78
697.40	15894.58
697.54	15686.27
697.67	15459.24
697.80	15634.78
697.94	15564.56
698.07	15171.35
698.21	15594.99
698.34	15564.56
698.47	15082.41
698.61	15077.73
698.74	15061.35
698.87	15204.12
699.01	14963.04
699.14	15115.18
699.27	14977.09
699.40	14995.81
699.54	15180.71
699.67	15173.69
699.80	14668.14
699.94	14665.80
700.07	14508.98
700.20	14314.72
700.34	14209.39
700.47	14438.76
700.60	14504.30
700.73	14319.40
700.87	14384.93
701.00	14338.12
701.13	14148.54
701.26	13802.14
701.40	13961.30
701.53	13839.59
701.66	13720.22
701.79	13846.61
701.93	13937.89
702.06	13832.57
702.19	13631.28
702.32	13514.25
702.46	13212.32
702.59	13432.33
702.72	13312.97
702.85	13034.44
702.99	13102.32
703.12	13301.26
703.25	13046.15
703.38	13219.35
703.51	12957.21
703.65	12905.71
703.78	13099.98
703.91	12858.90
704.04	12992.31
704.17	12868.27
704.31	12809.75
704.44	12870.61
704.57	12753.58
704.70	12329.94
704.83	12266.75
704.96	12070.14
705.10	12248.02
705.23	12180.15
>>>>>End Processed Spectral Data<<<<<
