SpectraSuite Data File
++++++++++++++++++++++++++++++++++++
Date: Thu Oct 24 13:21:19 EDT 2013
User: stostad
Dark Spectrum Present: No
Reference Spectrum Present: No
Number of Sampled Component Spectra: 1
Spectrometers: USB2+H05261
Integration Time (usec): 100000 (USB2+H05261)
Spectra Averaged: 1 (USB2+H05261)
Boxcar Smoothing: 0 (USB2+H05261)
Correct for Electrical Dark: No (USB2+H05261)
Strobe/Lamp Enabled: No (USB2+H05261)
Correct for Detector Non-linearity: No (USB2+H05261)
Correct for Stray Light: No (USB2+H05261)
Number of Pixels in Processed Spectrum: 2048
>>>>>Begin Processed Spectral Data<<<<<
365.73	578.11
365.92	578.11
366.12	578.11
366.32	514.92
366.52	430.66
366.72	472.79
366.91	496.19
367.11	428.32
367.31	449.38
367.51	454.06
367.70	425.98
367.90	489.17
368.10	454.06
368.30	454.06
368.49	465.77
368.69	561.73
368.89	482.15
369.09	461.09
369.28	498.53
369.48	442.36
369.68	470.45
369.87	519.60
370.07	545.34
370.27	573.43
370.47	592.16
370.66	795.78
370.86	837.91
371.06	875.36
371.25	868.34
371.45	922.17
371.65	833.23
371.84	884.72
372.04	812.17
372.24	898.77
372.44	924.51
372.63	861.32
372.83	961.96
373.03	926.85
373.22	884.72
373.42	891.74
373.62	889.40
373.81	961.96
374.01	961.96
374.21	933.87
374.40	1062.60
374.60	1032.18
374.79	945.58
374.99	887.06
375.19	1001.75
375.38	1102.39
375.58	1053.24
375.78	1062.60
375.97	933.87
376.17	880.04
376.37	1055.58
376.56	940.90
376.76	1029.84
376.95	959.62
377.15	1011.11
377.35	1006.43
377.54	1036.86
377.74	1048.56
377.93	1006.43
378.13	997.07
378.33	1095.37
378.52	1050.90
378.72	1090.69
378.91	1121.12
379.11	1043.88
379.31	1020.47
379.50	1081.33
379.70	1128.14
379.89	1114.10
380.09	1125.80
380.28	1109.41
380.48	1114.10
380.68	1102.39
380.87	1158.57
381.07	1064.94
381.26	1128.14
381.46	1095.37
381.65	1104.73
381.85	1071.97
382.04	1158.57
382.24	1139.84
382.43	1088.35
382.63	1226.44
382.83	1153.88
383.02	1104.73
383.22	1144.52
383.41	1135.16
383.61	1160.91
383.80	1247.51
384.00	1191.33
384.19	1184.31
384.39	1217.08
384.58	1184.31
384.78	1167.93
384.97	1083.67
385.17	1186.65
385.36	1203.04
385.56	1160.91
385.75	1263.89
385.95	1177.29
386.14	1331.76
386.34	1181.97
386.53	1200.69
386.72	1212.40
386.92	1259.21
387.11	1273.25
387.31	1254.53
387.50	1261.55
387.70	1291.98
387.89	1336.45
388.09	1214.74
388.28	1275.59
388.48	1362.19
388.67	1352.83
388.86	1270.91
389.06	1310.70
389.25	1329.42
389.45	1289.64
389.64	1303.68
389.84	1380.92
390.03	1348.15
390.22	1315.38
390.42	1352.83
390.61	1437.09
390.81	1383.26
391.00	1399.64
391.19	1409.00
391.39	1385.60
391.58	1411.34
391.78	1430.07
391.97	1458.15
392.16	1334.11
392.36	1500.28
392.55	1416.02
392.75	1458.15
392.94	1399.64
393.13	1413.68
393.33	1390.28
393.52	1446.45
393.71	1493.26
393.91	1511.99
394.10	1446.45
394.29	1448.79
394.49	1448.79
394.68	1530.71
394.88	1486.24
395.07	1488.58
395.26	1502.62
395.46	1540.07
395.65	1600.93
395.84	1685.19
396.04	1610.29
396.23	1664.12
396.42	1577.52
396.62	1614.97
396.81	1584.54
397.00	1689.87
397.19	1612.63
397.39	1624.33
397.58	1612.63
397.77	1596.25
397.97	1598.59
398.16	1657.10
398.35	1650.08
398.55	1708.59
398.74	1680.50
398.93	1727.32
399.12	1748.38
399.32	1710.93
399.51	1710.93
399.70	1753.06
399.90	1696.89
400.09	1788.17
400.28	1767.10
400.47	1816.26
400.67	1736.68
400.86	1724.97
401.05	1867.75
401.24	1825.62
401.44	1760.08
401.63	1799.87
401.82	1827.96
402.01	1837.32
402.21	1891.15
402.40	1963.71
402.59	1937.96
402.78	1893.49
402.97	1865.41
403.17	1956.69
403.36	1956.69
403.55	2073.71
403.74	2134.57
403.93	2031.58
404.13	2108.82
404.32	2106.48
404.51	2218.83
404.70	2160.31
404.89	2064.35
405.09	2176.70
405.28	2127.55
405.47	2134.57
405.66	2165.00
405.85	2258.62
406.05	2165.00
406.24	2284.36
406.43	2174.36
406.62	2193.08
406.81	2289.04
407.00	2427.14
407.20	2392.03
407.39	2251.60
407.58	2267.98
407.77	2326.49
407.96	2363.94
408.15	2317.13
408.34	2324.15
408.54	2373.30
408.73	2389.69
408.92	2392.03
409.11	2457.56
409.30	2471.61
409.49	2455.22
409.68	2530.12
409.87	2450.54
410.07	2504.37
410.26	2558.21
410.45	2525.44
410.64	2530.12
410.83	2544.16
411.02	2567.57
411.21	2597.99
411.40	2658.85
411.59	2658.85
411.78	2649.49
411.98	2780.56
412.17	2703.32
412.36	2759.49
412.55	2719.70
412.74	2792.26
412.93	2878.86
413.12	2794.60
413.31	2935.03
413.50	2871.84
413.69	2860.13
413.88	2928.01
414.07	2925.67
414.26	2951.42
414.45	2981.84
414.64	2967.80
414.83	3021.63
415.02	3073.12
415.22	3108.23
415.41	3117.59
415.60	3131.64
415.79	3246.32
415.98	3279.09
416.17	3255.69
416.36	3283.77
416.55	3105.89
416.74	3386.76
416.93	3323.56
417.12	3258.03
417.31	3403.14
417.50	3276.75
417.69	3370.37
417.88	3389.10
418.07	3398.46
418.26	3452.29
418.45	3410.16
418.64	3644.21
418.83	3405.48
419.02	3517.83
419.21	3613.79
419.39	3651.24
419.58	3454.63
419.77	3510.80
419.96	3534.21
420.15	3723.79
420.34	3606.77
420.53	3658.26
420.72	3763.58
420.91	3742.52
421.10	3812.73
421.29	3723.79
421.48	3672.30
421.67	3761.24
421.86	3779.97
422.05	3796.35
422.24	3796.35
422.43	3831.46
422.61	3941.46
422.80	3850.18
422.99	3875.93
423.18	3906.35
423.37	3801.03
423.56	3920.40
423.75	3925.08
423.94	3829.12
424.13	3574.00
424.32	3681.66
424.50	4025.72
424.69	3950.82
424.88	4023.38
425.07	3969.55
425.26	3882.95
425.45	3859.54
425.64	3974.23
425.83	3831.46
426.01	4070.19
426.20	3873.59
426.39	3918.06
426.58	3971.89
426.77	4009.34
426.96	3908.69
427.15	3913.38
427.33	4154.45
427.52	4117.00
427.71	4119.34
427.90	4016.36
428.09	4161.47
428.28	4154.45
428.46	4252.75
428.65	4229.35
428.84	4311.27
429.03	4222.33
429.22	4257.43
429.40	4262.12
429.59	4308.93
429.78	4114.66
429.97	4051.47
430.16	4320.63
430.34	4491.49
430.53	4482.13
430.72	4376.80
430.91	4245.73
431.10	4442.34
431.28	4437.66
431.47	4610.86
431.66	4547.66
431.85	4397.87
432.03	4592.13
432.22	4629.58
432.41	4561.70
432.60	4369.78
432.79	4603.83
432.97	4620.22
433.16	4589.79
433.35	4493.83
433.54	4748.95
433.72	4720.86
433.91	4762.99
434.10	4755.97
434.28	4678.73
434.47	4587.45
434.66	4760.65
434.85	4819.16
435.03	4943.21
435.22	5123.43
435.41	5228.76
435.59	5118.75
435.78	5081.30
435.97	5245.14
436.16	4994.70
436.34	4868.31
436.53	5050.88
436.72	5125.77
436.90	4849.59
437.09	5018.11
437.28	4938.53
437.46	4964.28
437.65	5153.86
437.84	5160.88
438.02	5116.41
438.21	5273.23
438.40	5011.09
438.58	5362.17
438.77	5242.80
438.96	5427.70
439.14	5540.05
439.33	5362.17
439.52	5504.94
439.70	5444.09
439.89	5570.48
440.08	5624.31
440.26	5537.71
440.45	5486.22
440.63	5619.63
440.82	5720.27
441.01	5547.07
441.19	5834.96
441.38	5703.89
441.57	5624.31
441.75	5813.89
441.94	5949.64
442.12	5954.32
442.31	6104.12
442.50	6125.18
442.68	5856.02
442.87	5966.03
443.05	6052.63
443.24	6071.35
443.43	6132.20
443.61	6083.05
443.80	6471.58
443.98	5984.75
444.17	5884.11
444.35	6202.42
444.54	6321.79
444.73	5949.64
444.91	6310.08
445.10	6277.32
445.28	6267.95
445.47	6188.38
445.65	6282.00
445.84	6347.53
446.02	6230.51
446.21	6277.32
446.39	6473.92
446.58	6263.27
446.77	6284.34
446.95	6253.91
447.14	6384.98
447.32	6436.47
447.51	6270.30
447.69	6090.07
447.88	6445.84
448.06	6569.88
448.25	6356.90
448.43	6450.52
448.62	6246.89
448.80	6333.49
448.99	6265.61
449.17	6427.11
449.36	6342.85
449.54	6523.07
449.73	6516.05
449.91	6693.93
450.10	6766.49
450.28	6768.83
450.46	6874.15
450.65	6656.48
450.83	6719.68
451.02	6693.93
451.20	6998.20
451.39	6846.07
451.57	6899.90
451.76	6677.55
451.94	6712.66
452.13	6810.96
452.31	7033.31
452.49	6792.23
452.68	6963.09
452.86	6944.37
453.05	6965.43
453.23	7047.35
453.42	6785.21
453.60	6876.49
453.78	7096.50
453.97	7056.72
454.15	7028.63
454.34	7023.95
454.52	7187.79
454.70	7082.46
454.89	7140.97
455.07	7197.15
455.26	7293.11
455.44	7262.68
455.62	7129.27
455.81	7468.65
455.99	7325.88
456.17	7445.24
456.36	7400.77
456.54	7475.67
456.73	7585.68
456.91	7681.64
457.09	7527.16
457.28	7896.97
457.46	7723.77
457.64	7620.78
457.83	7777.60
458.01	7712.07
458.19	7960.16
458.38	7632.49
458.56	7843.14
458.74	7843.14
458.93	7730.79
459.11	7948.46
459.29	7857.18
459.48	7981.23
459.66	7819.73
459.84	7906.33
460.03	8215.28
460.21	7901.65
460.39	8037.40
460.57	8004.63
460.76	8252.73
460.94	8243.37
461.12	8245.71
461.31	8152.09
461.49	8210.60
461.67	8116.98
461.85	8416.57
462.04	8116.98
462.22	8669.34
462.40	8603.81
462.59	8425.93
462.77	8411.89
462.95	8423.59
463.13	8610.83
463.32	8383.80
463.50	8540.61
463.68	8496.14
463.86	8554.66
464.05	8482.10
464.23	8437.63
464.41	8643.60
464.59	8542.96
464.78	8786.37
464.96	8769.99
465.14	8587.43
465.32	8814.46
465.50	8833.18
465.69	8688.07
465.87	8767.65
466.05	8814.46
466.23	8837.86
466.41	8936.17
466.60	9100.00
466.78	8821.48
466.96	8805.10
467.14	9076.60
467.32	9029.79
467.51	9202.99
467.69	8711.47
467.87	9034.47
468.05	9125.75
468.23	8973.61
468.41	8908.08
468.60	8985.32
468.78	9275.54
468.96	9039.15
469.14	9460.45
469.32	9446.40
469.50	9067.24
469.69	9444.06
469.87	9507.26
470.05	9163.20
470.23	9551.73
470.41	9352.78
470.59	9666.41
470.77	9411.29
470.95	9488.53
471.14	10031.54
471.32	9434.70
471.50	9696.84
471.68	9738.97
471.86	9891.10
472.04	9940.26
472.22	10038.56
472.40	9980.04
472.58	10073.67
472.77	10197.71
472.95	10225.80
473.13	10480.92
473.31	10047.92
473.49	10321.76
473.67	10167.29
473.85	10281.97
474.03	10471.56
474.21	10434.11
474.39	10581.56
474.57	10506.66
474.75	10567.52
474.93	10918.60
475.12	10705.61
475.30	10951.37
475.48	10787.53
475.66	11005.20
475.84	10897.53
476.02	10949.03
476.20	11164.36
476.38	11080.10
476.56	11555.22
476.74	11349.26
476.92	11403.09
477.10	11222.87
477.28	11763.53
477.46	11662.89
477.64	11683.95
477.82	11690.98
478.00	12018.65
478.18	11765.87
478.36	12145.04
478.54	12114.61
478.72	12271.43
478.90	12519.53
479.08	12393.14
479.26	12479.74
479.44	12624.85
479.62	12711.45
479.80	12919.76
479.98	12844.86
480.16	13172.54
480.34	12886.99
480.52	13249.77
480.70	13219.35
480.88	12987.63
481.06	13219.35
481.24	13455.74
481.41	13804.48
481.59	13694.47
481.77	13558.72
481.95	14083.00
482.13	13970.66
482.31	14029.17
482.49	14293.65
482.67	14015.13
482.85	14232.80
483.03	14712.61
483.21	14539.41
483.39	14782.82
483.57	14551.11
483.74	14888.15
483.92	15082.41
484.10	14953.68
484.28	15477.96
484.46	15648.82
484.64	15445.20
484.82	15697.97
485.00	15695.63
485.18	15770.53
485.35	16376.73
485.53	16360.34
485.71	16266.72
485.89	16318.22
486.07	16439.92
486.25	16709.08
486.43	16533.54
486.61	16854.20
486.78	16959.52
486.96	17511.89
487.14	17446.35
487.32	17006.33
487.50	17736.58
487.68	17474.44
487.85	17806.80
488.03	18134.47
488.21	18211.71
488.39	18001.06
488.57	18398.95
488.75	18375.55
488.92	18569.81
489.10	18658.75
489.28	18541.72
489.46	19143.24
489.64	19077.71
489.81	19414.74
489.99	19482.62
490.17	19316.44
490.35	19817.32
490.53	19932.00
490.70	20032.65
490.88	19861.79
491.06	20056.05
491.24	20198.82
491.41	20208.19
491.59	20470.33
491.77	20809.70
491.95	20620.12
492.13	20538.20
492.30	20893.96
492.48	21259.09
492.66	21319.94
492.84	21373.77
493.01	21638.25
493.19	21486.12
493.37	21561.02
493.54	22010.40
493.72	21865.28
493.90	22052.53
494.08	22274.88
494.25	22410.63
494.43	22663.41
494.61	22480.85
494.79	22551.06
494.96	22492.55
495.14	22909.16
495.32	22946.61
495.49	23183.01
495.67	23304.71
495.85	23403.02
496.02	23433.44
496.20	23578.56
496.38	23538.77
496.55	23761.12
496.73	24247.95
496.91	24259.65
497.09	24322.85
497.26	24130.92
497.44	24374.34
497.62	24397.74
497.79	24847.13
497.97	24865.85
498.14	25195.87
498.32	25242.68
498.50	25280.13
498.67	25315.23
498.85	25640.57
499.03	25399.49
499.20	25865.26
499.38	25743.55
499.56	26197.62
499.73	26075.91
499.91	26059.52
500.08	26363.79
500.26	25902.71
500.44	26426.99
500.61	26473.80
500.79	26721.90
500.97	26459.76
501.14	26944.25
501.32	26487.84
501.49	26593.17
501.67	26712.53
501.84	27019.14
502.02	27133.83
502.20	27377.25
502.37	27105.74
502.55	27330.44
502.72	27147.87
502.90	27501.29
503.07	27452.14
503.25	27625.34
503.43	27718.96
503.60	28060.68
503.78	28203.46
503.95	27676.83
504.13	28006.85
504.30	28273.67
504.48	27992.81
504.65	28704.33
504.83	28776.89
505.01	28957.11
505.18	28957.11
505.36	29120.95
505.53	28755.82
505.71	28943.06
505.88	29071.79
506.06	28819.02
506.23	28982.85
506.41	29270.74
506.58	29230.95
506.76	29385.43
506.93	29692.04
507.11	29675.65
507.28	30022.05
507.46	30099.29
507.63	30155.46
507.81	30209.29
507.98	29991.62
508.16	29905.02
508.33	29802.04
508.50	30108.65
508.68	30445.69
508.85	30515.90
509.03	30326.32
509.20	30565.06
509.38	30902.09
509.55	30930.18
509.73	31349.14
509.90	31009.76
510.08	31185.30
510.25	31491.91
510.42	31026.14
510.60	31768.09
510.77	31491.91
510.95	31700.22
511.12	31543.40
511.30	31445.10
511.47	32053.64
511.64	31768.09
511.82	32367.27
511.99	32156.62
512.17	32397.70
512.34	32191.73
512.51	32622.39
512.69	32400.04
512.86	32898.57
513.04	32921.98
513.21	32533.45
513.38	32758.14
513.56	33046.02
513.73	32753.46
513.90	32975.81
514.08	32783.88
514.25	33301.14
514.43	33502.43
514.60	33425.19
514.77	33048.36
514.95	33261.35
515.12	33455.62
515.29	33905.00
515.47	33415.83
515.64	34080.54
515.81	33476.68
515.99	33839.47
516.16	33940.11
516.33	34209.27
516.51	34824.83
516.68	34101.61
516.85	34384.81
517.03	34274.80
517.20	34433.96
517.37	33940.11
517.54	34457.37
517.72	34817.81
517.89	34499.50
518.06	34759.30
518.24	34937.18
518.41	34710.14
518.58	34653.97
518.75	34749.93
518.93	35101.01
519.10	35115.06
519.27	35468.48
519.45	35304.64
519.62	35538.69
519.79	35669.76
519.96	35541.03
520.14	35363.15
520.31	35576.14
520.48	35786.79
520.65	35754.02
520.83	36060.63
521.00	35892.12
521.17	35779.77
521.34	35674.45
521.52	36210.43
521.69	36332.14
521.86	36842.37
522.03	36311.07
522.20	36629.38
522.38	36648.11
522.55	36769.82
522.72	36648.11
522.89	36732.37
523.07	37090.47
523.24	37013.23
523.41	37104.51
523.58	36781.52
523.75	37078.77
523.92	37221.54
524.10	37336.23
524.27	37490.70
524.44	37453.25
524.61	37263.67
524.78	37319.84
524.96	37340.91
525.13	37734.12
525.30	38249.03
525.47	38471.39
525.64	38213.93
525.81	38188.18
525.98	38085.20
526.16	38223.29
526.33	37769.22
526.50	38689.06
526.67	38164.78
526.84	38293.50
527.01	38696.08
527.18	38852.89
527.36	38445.64
527.53	38649.27
527.70	38958.22
527.87	39201.63
528.04	39044.82
528.21	39138.44
528.38	38778.00
528.55	39255.46
528.72	38967.58
528.89	39026.09
529.07	38852.89
529.24	38838.85
529.41	39456.75
529.58	39194.61
529.75	39292.91
529.92	38972.26
530.09	39140.78
530.26	39512.92
530.43	39548.03
530.60	39459.09
530.77	39449.73
530.94	40556.80
531.11	40093.38
531.28	40142.53
531.46	39882.73
531.63	39957.63
531.80	40425.73
531.97	40313.39
532.14	40397.65
532.31	40165.93
532.48	40224.45
532.65	40622.34
532.82	40231.47
532.99	40566.16
533.16	40622.34
533.33	40872.78
533.50	41034.27
533.67	40636.38
533.84	40552.12
534.01	40996.82
534.18	41125.55
534.35	41720.05
534.52	40851.71
534.69	41273.01
534.86	40961.72
535.03	41296.41
535.20	41315.14
535.37	41448.55
535.54	41628.77
535.71	41265.99
535.88	41755.16
536.05	41111.51
536.22	41415.78
536.38	41507.06
536.55	41769.20
536.72	41347.90
536.89	41895.59
537.06	41736.43
537.23	42330.93
537.40	41984.53
537.57	42033.68
537.74	42241.99
537.91	41979.85
538.08	42113.26
538.25	41806.65
538.42	41741.11
538.59	42347.31
538.75	41986.87
538.92	42270.08
539.09	42663.28
539.26	42597.75
539.43	42082.83
539.60	42293.48
539.77	42447.96
539.94	42581.37
540.11	42787.33
540.28	42588.39
540.44	42845.85
540.61	43208.63
540.78	43110.33
540.95	42878.61
541.12	43180.54
541.29	42986.28
541.46	43606.52
541.62	43473.11
541.79	43468.43
541.96	43189.91
542.13	43548.01
542.30	43056.50
542.47	43328.00
542.63	43187.56
542.80	43814.83
542.97	44306.34
543.14	44334.43
543.31	44170.59
543.48	44502.95
543.64	44589.55
543.81	44376.56
543.98	43894.41
544.15	44589.55
544.32	44304.00
544.48	44570.82
544.65	44165.91
544.82	44432.73
544.99	44404.64
545.16	44786.15
545.32	44306.34
545.49	44875.09
545.66	45471.93
545.83	45361.92
546.00	45322.13
546.16	45469.59
546.33	44980.42
546.50	44603.59
546.67	45102.12
546.83	44208.04
547.00	44617.63
547.17	44744.02
547.34	44741.68
547.50	44854.03
547.67	45361.92
547.84	45106.80
548.00	45385.33
548.17	45577.25
548.34	45205.11
548.51	45277.66
548.67	45614.70
548.84	45347.88
549.01	45308.09
549.18	45308.09
549.34	45095.10
549.51	45509.38
549.68	45869.82
549.84	45366.60
550.01	45581.93
550.18	45584.27
550.34	45106.80
550.51	45481.29
550.68	45399.37
550.84	45336.18
551.01	46127.28
551.18	45130.21
551.34	45361.92
551.51	45350.22
551.68	46115.58
551.84	45876.84
552.01	45607.68
552.18	45752.79
552.34	45855.78
552.51	46590.70
552.68	45876.84
552.84	46192.81
553.01	46506.44
553.18	46188.13
553.34	46122.60
553.51	45982.16
553.67	46476.02
553.84	46560.28
554.01	46665.60
554.17	46401.12
554.34	46703.05
554.51	46649.22
554.67	46480.70
554.84	46443.25
555.00	46298.14
555.17	46469.00
555.33	46398.78
555.50	46614.11
555.67	46712.41
555.83	46806.03
556.00	46752.20
556.16	47194.56
556.33	46782.63
556.50	46436.23
556.66	46576.66
556.83	46850.50
556.99	47147.75
557.16	47117.32
557.32	47096.26
557.49	47206.26
557.65	46803.69
557.82	46768.58
557.98	47150.09
558.15	46782.63
558.32	47070.51
558.48	46803.69
558.65	47372.44
558.81	47042.43
558.98	47091.58
559.14	47323.29
559.31	47292.86
559.47	47290.52
559.64	47129.03
559.80	47056.47
559.97	47784.38
560.13	47185.20
560.30	47161.79
560.46	47454.36
560.63	47356.06
560.79	47683.73
560.96	47657.99
561.12	47393.51
561.29	47470.75
561.45	47370.10
561.61	47751.61
561.78	47693.10
561.94	48346.11
562.11	47966.94
562.27	47751.61
562.44	47990.34
562.60	47604.16
562.77	47793.74
562.93	47423.93
563.10	47580.75
563.26	47618.20
563.42	47746.93
563.59	47512.88
563.75	47842.89
563.92	47798.42
564.08	47849.91
564.24	47749.27
564.41	47571.39
564.57	47959.92
564.74	47407.55
564.90	48231.42
565.07	47847.57
565.23	48296.95
565.39	48360.15
565.56	48479.52
565.72	47983.32
565.88	48006.73
566.05	48009.07
566.21	47934.17
566.38	47657.99
566.54	47760.97
566.70	48109.71
566.87	48278.23
567.03	48371.85
567.19	48467.81
567.36	48591.86
567.52	47657.99
567.68	48325.04
567.85	48198.65
568.01	48570.80
568.17	48385.89
568.34	48144.82
568.50	48130.78
568.66	48486.54
568.83	48931.24
568.99	48364.83
569.15	48289.93
569.32	48313.34
569.48	48367.17
569.64	48472.49
569.81	47936.51
569.97	48266.53
570.13	48484.20
570.30	48320.36
570.46	48619.95
570.62	48184.61
570.78	48275.89
570.95	48062.90
571.11	48336.74
571.27	48215.04
571.43	48292.27
571.60	48774.42
571.76	48500.58
571.92	48458.45
572.09	48411.64
572.25	48456.11
572.41	48697.19
572.57	48563.78
572.74	48882.09
572.90	48198.65
573.06	48479.52
573.22	48573.14
573.38	48037.16
573.55	48282.91
573.71	48722.93
573.87	48788.47
574.03	48748.68
574.20	48816.55
574.36	48659.74
574.52	48699.53
574.68	48507.60
574.84	48718.25
575.01	48498.24
575.17	48935.92
575.33	48802.51
575.49	48708.89
575.65	48603.56
575.82	49071.67
575.98	48856.34
576.14	49008.48
576.30	48861.02
576.46	48802.51
576.62	48491.22
576.79	48701.87
576.95	48706.55
577.11	48842.30
577.27	48917.20
577.43	48989.75
577.59	49350.20
577.75	48638.67
577.92	48725.27
578.08	49036.56
578.24	48802.51
578.40	49294.02
578.56	48797.83
578.72	49088.06
578.88	49537.44
579.04	49612.34
579.21	49209.76
579.37	49141.89
579.53	49427.43
579.69	48610.59
579.85	49062.31
580.01	49284.66
580.17	49322.11
580.33	48978.05
580.49	48914.86
580.65	49380.62
580.82	48849.32
580.98	49038.90
581.14	49422.75
581.30	49057.63
581.46	49116.14
581.62	48645.69
581.78	48727.61
581.94	49127.84
582.10	48842.30
582.26	48987.41
582.42	49200.40
582.58	48844.64
582.74	48856.34
582.90	49411.05
583.06	49130.19
583.22	49387.64
583.38	48968.69
583.54	48811.87
583.70	48760.38
583.86	49277.64
584.02	48861.02
584.18	49635.74
584.34	49326.79
584.50	49457.86
584.66	49043.59
584.82	48875.07
584.98	49446.16
585.14	48926.56
585.30	49289.34
585.46	49488.29
585.62	49184.02
585.78	49537.44
585.94	49214.44
586.10	49535.10
586.26	49350.20
586.42	49347.86
586.58	49523.40
586.74	49516.37
586.90	48940.60
587.06	49006.14
587.22	49673.19
587.38	49560.84
587.54	49312.75
587.70	50197.47
587.86	49279.98
588.02	49727.02
588.18	49331.47
588.34	49450.84
588.49	49425.09
588.65	49350.20
588.81	49401.69
588.97	49551.48
589.13	49364.24
589.29	49492.97
589.45	49769.15
589.61	49523.40
589.77	49485.95
589.93	49523.40
590.08	49764.47
590.24	49759.79
590.40	49488.29
590.56	49649.78
590.72	49663.83
590.88	49528.08
591.04	49380.62
591.20	49546.80
591.35	49712.98
591.51	50358.97
591.67	50244.28
591.83	49897.88
591.99	49483.61
592.15	49893.20
592.31	49799.58
592.46	49361.90
592.62	49736.38
592.78	49701.28
592.94	49427.43
593.10	49808.94
593.26	49947.03
593.41	49944.69
593.57	49862.77
593.73	50160.02
593.89	50174.06
594.05	49687.23
594.20	49598.29
594.36	49923.63
594.52	49778.51
594.68	49937.67
594.84	49511.69
594.99	50216.19
595.15	49900.22
595.31	49951.71
595.47	50396.42
595.62	49984.48
595.78	49663.83
595.94	49256.57
596.10	49492.97
596.25	49673.19
596.41	49799.58
596.57	49495.31
596.73	49876.82
596.88	50141.30
597.04	50436.20
597.20	49741.06
597.36	50045.33
597.51	49881.50
597.67	49977.46
597.83	49841.71
597.99	50124.91
598.14	49914.26
598.30	49822.98
598.46	49935.33
598.61	50035.97
598.77	49757.45
598.93	50263.00
599.09	49918.95
599.24	50075.76
599.40	50174.06
599.56	50000.86
599.71	49909.58
599.87	49989.16
600.03	50349.60
600.18	49961.08
600.34	49797.24
600.50	49947.03
600.65	49689.57
600.81	50375.35
600.97	50129.59
601.12	50504.08
601.28	50213.85
601.44	50080.44
601.59	50255.98
601.75	49785.54
601.91	50309.82
602.06	50068.74
602.22	49738.72
602.37	49972.78
602.53	49748.09
602.69	50576.64
602.84	49928.31
603.00	49876.82
603.16	50101.51
603.31	49757.45
603.47	49785.54
603.62	49724.68
603.78	49853.41
603.94	49762.13
604.09	49935.33
604.25	49727.02
604.40	50021.93
604.56	49956.39
604.71	49897.88
604.87	49932.99
605.03	50153.00
605.18	49738.72
605.34	50103.85
605.49	49792.56
605.65	49822.98
605.80	49963.42
605.96	50148.32
606.12	50253.64
606.27	50555.57
606.43	50206.83
606.58	50281.73
606.74	49874.48
606.89	49914.26
607.05	50164.70
607.20	49710.64
607.36	49764.47
607.51	49790.22
607.67	49921.29
607.82	49752.77
607.98	49546.80
608.13	49642.76
608.29	49961.08
608.44	49890.86
608.60	50054.70
608.75	49762.13
608.91	49897.88
609.06	50017.25
609.22	49731.70
609.37	49233.17
609.53	49591.27
609.68	49518.71
609.84	49757.45
609.99	49949.37
610.15	50246.62
610.30	49862.77
610.46	49902.56
610.61	50082.78
610.76	50078.10
610.92	50298.11
611.07	50412.80
611.23	50115.55
611.38	50148.32
611.54	50560.25
611.69	50255.98
611.84	50206.83
612.00	50323.86
612.15	50337.90
612.31	50010.23
612.46	50005.55
612.62	49984.48
612.77	49673.19
612.92	50052.36
613.08	49958.73
613.23	49764.47
613.39	49542.12
613.54	49748.09
613.69	49556.16
613.85	49689.57
614.00	49654.47
614.15	49801.92
614.31	49413.39
614.46	49736.38
614.62	49509.35
614.77	49521.05
614.92	49425.09
615.08	49230.83
615.23	49340.83
615.38	49233.17
615.54	49076.35
615.69	48772.08
615.84	49446.16
616.00	49490.63
616.15	49324.45
616.30	49598.29
616.46	49113.80
616.61	48900.81
616.76	48987.41
616.92	48830.60
617.07	48987.41
617.22	48746.34
617.37	48430.36
617.53	48704.21
617.68	48598.88
617.83	48985.07
617.99	49331.47
618.14	49212.10
618.29	48713.57
618.45	48861.02
618.60	48889.11
618.75	48645.69
618.90	48226.74
619.06	48203.33
619.21	48102.69
619.36	48636.33
619.51	48596.54
619.67	48404.62
619.82	48879.75
619.97	48690.16
620.12	48528.67
620.28	48896.13
620.43	48769.74
620.58	49034.22
620.73	48823.58
620.89	48325.04
621.04	48376.53
621.19	48170.57
621.34	48486.54
621.49	48294.61
621.65	48098.01
621.80	48486.54
621.95	48622.29
622.10	48715.91
622.25	48378.87
622.41	48285.25
622.56	48081.63
622.71	48388.24
622.86	48002.05
623.01	47711.82
623.16	47496.49
623.32	47833.53
623.47	48325.04
623.62	48107.37
623.77	48186.95
623.92	48271.21
624.07	48278.23
624.23	48229.08
624.38	48350.79
624.53	47973.96
624.68	48261.85
624.83	48271.21
624.98	47997.37
625.13	47611.18
625.29	48079.28
625.44	47800.76
625.59	47463.72
625.74	47688.42
625.89	47604.16
626.04	47606.50
626.19	47721.18
626.34	47522.24
626.49	47576.07
626.65	47384.15
626.80	48130.78
626.95	47435.64
627.10	47529.26
627.25	47522.24
627.40	47349.04
627.55	47288.18
627.70	47217.97
627.85	47114.98
628.00	47440.32
628.15	47346.70
628.30	47288.18
628.45	47398.19
628.60	47302.23
628.76	47072.85
628.91	47578.41
629.06	47133.71
629.21	47047.11
629.36	46899.65
629.51	47208.61
629.66	47388.83
629.81	47220.31
629.96	46789.65
630.11	47250.74
630.26	46937.10
630.41	47077.54
630.56	47257.76
630.71	47110.30
630.86	47290.52
631.01	46969.87
631.16	46902.00
631.31	46656.24
631.46	46256.01
631.61	46604.75
631.76	47037.75
631.91	46944.12
632.06	46153.02
632.21	46660.92
632.36	46590.70
632.51	46684.33
632.66	46850.50
632.81	46225.58
632.96	46740.50
633.10	46295.80
633.25	47014.34
633.40	46670.28
633.55	46438.57
633.70	46071.10
633.85	45598.32
634.00	46071.10
634.15	46520.49
634.30	46131.96
634.45	46066.42
634.60	46689.01
634.75	46440.91
634.90	46143.66
635.05	46754.54
635.19	46436.23
635.34	46227.92
635.49	45570.23
635.64	45909.61
635.79	46108.55
635.94	46256.01
636.09	46239.62
636.24	45834.71
636.39	45876.84
636.53	46693.69
636.68	45956.42
636.83	45556.19
636.98	46115.58
637.13	45392.35
637.28	45925.99
637.43	45544.48
637.57	45701.30
637.72	45289.37
637.87	45350.22
638.02	45813.65
638.17	45787.90
638.32	45399.37
638.46	45116.17
638.61	45682.58
638.76	45474.27
638.91	45811.31
639.06	45556.19
639.20	45991.53
639.35	45654.49
639.50	45488.31
639.65	45574.91
639.80	45357.24
639.94	45081.06
640.09	45216.81
640.24	45027.23
640.39	45256.60
640.54	44734.66
640.68	45406.39
640.83	45242.56
640.98	45027.23
641.13	45095.10
641.27	44692.53
641.42	44467.84
641.57	44641.04
641.72	44966.37
641.86	44692.53
642.01	44179.95
642.16	45294.05
642.31	44603.59
642.45	45198.09
642.60	44362.51
642.75	44741.68
642.90	44676.15
643.04	44861.05
643.19	44758.06
643.34	44945.31
643.48	44898.50
643.63	45237.87
643.78	44208.04
643.93	44605.93
644.07	44105.06
644.22	43777.38
644.37	43838.23
644.51	44367.20
644.66	44348.47
644.81	44893.82
644.95	44540.39
645.10	44493.58
645.25	44378.90
645.39	44362.51
645.54	44334.43
645.69	44767.43
645.83	44149.53
645.98	44051.22
646.13	44385.92
646.27	44474.86
646.42	44259.53
646.57	44575.50
646.71	44573.16
646.86	44130.80
647.00	43824.19
647.15	44465.50
647.30	44205.70
647.44	44053.56
647.59	43995.05
647.74	43854.62
647.88	44236.12
648.03	44163.57
648.17	43941.22
648.32	43831.21
648.47	43824.19
648.61	43290.55
648.76	44051.22
648.90	43452.05
649.05	43533.96
649.20	43744.61
649.34	43524.60
649.49	44168.25
649.63	44346.13
649.78	43959.94
649.92	43646.31
650.07	44203.36
650.21	43445.02
650.36	43578.43
650.51	43550.35
650.65	43690.78
650.80	43358.42
650.94	43548.01
651.09	43779.72
651.23	43407.58
651.38	43154.80
651.52	43075.22
651.67	43358.42
651.81	43784.40
651.96	43302.25
652.10	43496.52
652.25	43533.96
652.39	42845.85
652.54	43217.99
652.68	43276.51
652.83	42696.05
652.97	42630.52
653.12	43056.50
653.26	43185.22
653.41	43353.74
653.55	43363.11
653.70	42852.87
653.84	43491.83
653.99	42836.48
654.13	43091.60
654.27	42920.74
654.42	42930.11
654.56	42499.45
654.71	42927.77
654.85	43037.77
655.00	42813.08
655.14	42611.79
655.29	42459.66
655.43	42630.52
655.57	42569.66
655.72	42213.90
655.86	42843.51
656.01	42438.59
656.15	42239.65
656.30	42686.69
656.44	42609.45
656.58	42815.42
656.73	42630.52
656.87	42920.74
657.01	42539.24
657.16	42707.76
657.30	42120.28
657.45	41743.45
657.59	42033.68
657.73	41888.57
657.88	41811.33
658.02	41851.12
658.16	42223.26
658.31	42176.45
658.45	42436.25
658.60	42230.29
658.74	42122.62
658.88	42110.92
659.03	41961.12
659.17	41993.89
659.31	41273.01
659.46	41883.89
659.60	41565.57
659.74	41029.59
659.89	41691.96
660.03	41860.48
660.17	41684.94
660.32	41069.38
660.46	41312.80
660.60	41010.87
660.74	41132.57
660.89	41155.98
661.03	40896.18
661.17	41387.69
661.32	40755.75
661.46	41214.49
661.60	40762.77
661.74	40832.99
661.89	40435.10
662.03	40938.31
662.17	40821.28
662.31	40643.40
662.46	40678.51
662.60	40392.97
662.74	40605.95
662.88	40470.20
663.03	40362.54
663.17	40608.29
663.31	40465.52
663.45	40573.19
663.60	40367.22
663.74	39840.60
663.88	40535.74
664.02	39854.64
664.17	40245.51
664.31	39620.59
664.45	39206.31
664.59	39739.96
664.73	40030.18
664.88	40486.59
665.02	39789.11
665.16	40076.99
665.30	39737.62
665.44	39695.49
665.59	39325.68
665.73	39306.96
665.87	39229.72
666.01	39501.22
666.15	39379.51
666.29	39159.50
666.44	39416.96
666.58	39061.20
666.72	38761.61
666.86	38953.54
667.00	38976.94
667.14	38925.45
667.28	38494.79
667.43	39037.80
667.57	39178.23
667.71	39297.59
667.85	39321.00
667.99	38614.16
668.13	38155.41
668.27	38211.59
668.41	39065.88
668.56	38174.14
668.70	38253.72
668.84	37794.97
668.98	37851.14
669.12	38307.55
669.26	37652.20
669.40	37612.41
669.54	38656.29
669.68	37794.97
669.82	37574.96
669.96	37846.46
670.10	37897.95
670.25	37766.88
670.39	37404.10
670.53	37315.16
670.67	37467.30
670.81	37769.22
670.95	37146.64
671.09	37219.20
671.23	37392.40
671.37	37706.03
671.51	37633.47
671.65	37352.61
671.79	36952.38
671.93	37242.60
672.07	37598.37
672.21	36973.44
672.35	36973.44
672.49	36891.52
672.63	36481.93
672.77	36875.14
672.91	36175.32
673.05	36540.44
673.19	36332.14
673.33	36077.02
673.47	35641.68
673.61	36350.86
673.75	36566.19
673.89	35913.18
674.03	35995.10
674.17	35711.89
674.31	35845.30
674.45	36013.82
674.59	36144.89
674.73	36320.43
674.87	35697.85
675.01	35232.08
675.15	35414.65
675.29	35489.54
675.43	35477.84
675.56	34904.41
675.70	35161.87
675.84	34558.01
675.98	33633.50
676.12	34490.13
676.26	34707.80
676.40	34878.66
676.54	34668.02
676.68	34270.12
676.82	34094.58
676.96	34429.28
677.10	34660.99
677.23	34333.32
677.37	34579.07
677.51	34007.98
677.65	33802.02
677.79	33769.25
677.93	33432.21
678.07	33275.40
678.21	33748.18
678.34	33591.37
678.48	33275.40
678.62	32929.00
678.76	33102.20
678.90	33125.60
679.04	32940.70
679.18	32685.58
679.31	32383.65
679.45	32671.54
679.59	33057.73
679.73	32690.26
679.87	32577.92
680.00	31899.16
680.14	32505.36
680.28	32280.67
680.42	32060.66
680.56	32226.84
680.70	31559.78
680.83	31618.30
680.97	31936.61
681.11	31433.39
681.25	31349.14
681.39	31505.95
681.52	31639.36
681.66	31213.38
681.80	30984.01
681.94	30916.14
682.07	30972.31
682.21	30691.44
682.35	30789.75
682.49	30920.82
682.62	30836.56
682.76	30529.95
682.90	30511.22
683.04	30476.12
683.17	30211.64
683.31	30026.73
683.45	30543.99
683.59	30141.42
683.72	29783.32
683.86	29944.81
684.00	29497.77
684.13	29502.45
684.27	29425.22
684.41	29436.92
684.55	29750.55
684.68	29699.06
684.82	29024.98
684.96	28795.61
685.09	29366.70
685.23	29099.88
685.37	29158.39
685.50	28828.38
685.64	28636.45
685.78	28549.85
685.91	28257.29
686.05	28102.81
686.19	28350.91
686.32	28180.05
686.46	27931.95
686.60	28329.84
686.73	28329.84
686.87	27992.81
687.01	28208.14
687.14	27906.21
687.28	27447.46
687.42	27058.93
687.55	27108.08
687.69	27330.44
687.82	27143.19
687.96	27185.32
688.10	27360.86
688.23	27253.20
688.37	27096.38
688.50	26904.46
688.64	27051.91
688.78	26771.05
688.91	26675.09
689.05	26754.66
689.18	26312.30
689.32	26092.29
689.46	26111.02
689.59	25963.56
689.73	25860.58
689.86	25249.70
690.00	25635.89
690.13	25656.95
690.27	25750.57
690.41	25359.70
690.54	25195.87
690.68	25144.38
690.81	25441.62
690.95	25200.55
691.08	25345.66
691.22	24989.90
691.35	24716.06
691.49	25149.06
691.62	25017.99
691.76	25043.73
691.89	24814.36
692.03	24552.22
692.16	24505.41
692.30	24086.45
692.43	24388.38
692.57	24030.28
692.70	24081.77
692.84	24084.11
692.97	23917.93
693.11	23782.18
693.24	23506.00
693.38	23580.90
693.51	23339.82
693.65	23431.10
693.78	23344.50
693.92	23168.96
694.05	23040.23
694.19	22892.78
694.32	23309.40
694.45	23129.17
694.59	23002.78
694.72	22551.06
694.86	22471.48
694.99	22520.63
695.13	22361.48
695.26	22169.55
695.39	21944.86
695.53	22288.92
695.66	22265.52
695.80	21827.84
695.93	22108.70
696.07	21701.45
696.20	21764.64
696.33	22026.78
696.47	21675.70
696.60	21696.77
696.73	21500.16
696.87	21642.93
697.00	21448.67
697.14	21348.03
697.27	20720.76
697.40	20996.95
697.54	20798.00
697.67	20414.15
697.80	20608.42
697.94	20257.34
698.07	20596.71
698.21	20662.25
698.34	20472.67
698.47	20313.51
698.61	19765.82
698.74	20191.80
698.87	19988.18
699.01	19950.73
699.14	20109.88
699.27	20105.20
699.40	20262.02
699.54	20360.32
699.67	19932.00
699.80	19433.47
699.94	19192.39
700.07	19232.18
700.20	18855.36
700.34	19157.28
700.47	19133.88
700.60	19044.94
700.73	18941.96
700.87	18890.46
701.00	18403.63
701.13	18614.28
701.26	18429.38
701.40	18480.87
701.53	18384.91
701.66	18090.00
701.79	18150.85
701.93	18202.35
702.06	18267.88
702.19	18216.39
702.32	17937.87
702.46	17830.20
702.59	17701.47
702.72	17535.29
702.85	17348.05
702.99	17366.78
703.12	17549.34
703.25	17198.26
703.38	17593.81
703.51	17294.22
703.65	17605.51
703.78	17603.17
703.91	17341.03
704.04	17109.32
704.17	17224.00
704.31	17160.81
704.44	16758.24
704.57	16503.12
704.70	16428.22
704.83	16194.17
704.96	16381.41
705.10	16315.87
705.23	16175.44
>>>>>End Processed Spectral Data<<<<<
