SpectraSuite Data File
++++++++++++++++++++++++++++++++++++
Date: Thu Oct 24 13:21:19 EDT 2013
User: stostad
Dark Spectrum Present: No
Reference Spectrum Present: No
Number of Sampled Component Spectra: 1
Spectrometers: USB2+H05261
Integration Time (usec): 100000 (USB2+H05261)
Spectra Averaged: 1 (USB2+H05261)
Boxcar Smoothing: 0 (USB2+H05261)
Correct for Electrical Dark: No (USB2+H05261)
Strobe/Lamp Enabled: No (USB2+H05261)
Correct for Detector Non-linearity: No (USB2+H05261)
Correct for Stray Light: No (USB2+H05261)
Number of Pixels in Processed Spectrum: 2048
>>>>>Begin Processed Spectral Data<<<<<
365.73	638.97
365.92	638.97
366.12	638.97
366.32	496.19
366.52	496.19
366.72	463.43
366.91	507.90
367.11	440.02
367.31	454.06
367.51	519.60
367.70	533.64
367.90	423.64
368.10	430.66
368.30	442.36
368.49	468.11
368.69	510.24
368.89	507.90
369.09	458.74
369.28	470.45
369.48	526.62
369.68	538.32
369.87	571.09
370.07	545.34
370.27	554.71
370.47	606.20
370.66	713.86
370.86	819.19
371.06	847.27
371.25	884.72
371.45	856.64
371.65	816.85
371.84	870.68
372.04	840.25
372.24	849.61
372.44	880.04
372.63	971.32
372.83	891.74
373.03	959.62
373.22	961.96
373.42	866.00
373.62	978.34
373.81	950.26
374.01	992.39
374.21	971.32
374.40	961.96
374.60	1048.56
374.79	945.58
374.99	997.07
375.19	1067.28
375.38	966.64
375.58	992.39
375.78	1086.01
375.97	940.90
376.17	1018.13
376.37	1050.90
376.56	1006.43
376.76	1004.09
376.95	1048.56
377.15	929.19
377.35	1027.50
377.54	1015.79
377.74	1029.84
377.93	954.94
378.13	1034.52
378.33	1086.01
378.52	1022.81
378.72	1036.86
378.91	1048.56
379.11	1057.92
379.31	1034.52
379.50	1090.69
379.70	1060.26
379.89	1135.16
380.09	1064.94
380.28	1111.75
380.48	1088.35
380.68	1125.80
380.87	1071.97
381.07	1118.78
381.26	1090.69
381.46	1128.14
381.65	1125.80
381.85	1109.41
382.04	1156.22
382.24	1086.01
382.43	1107.07
382.63	1160.91
382.83	1153.88
383.02	1069.62
383.22	1165.59
383.41	1188.99
383.61	1062.60
383.80	1142.18
384.00	1228.78
384.19	1165.59
384.39	1242.82
384.58	1240.48
384.78	1224.10
384.97	1198.35
385.17	1177.29
385.36	1228.78
385.56	1170.27
385.75	1219.42
385.95	1181.97
386.14	1233.46
386.34	1186.65
386.53	1177.29
386.72	1137.50
386.92	1277.93
387.11	1249.85
387.31	1357.51
387.50	1252.19
387.70	1247.51
387.89	1233.46
388.09	1322.40
388.28	1289.64
388.48	1329.42
388.67	1268.57
388.86	1352.83
389.06	1273.25
389.25	1350.49
389.45	1371.55
389.64	1289.64
389.84	1306.02
390.03	1357.51
390.22	1343.47
390.42	1394.96
390.61	1366.87
390.81	1336.45
391.00	1387.94
391.19	1331.76
391.39	1366.87
391.58	1392.62
391.78	1430.07
391.97	1336.45
392.16	1476.88
392.36	1423.05
392.55	1451.13
392.75	1483.90
392.94	1390.28
393.13	1387.94
393.33	1458.15
393.52	1502.62
393.71	1542.41
393.91	1514.33
394.10	1448.79
394.29	1540.07
394.49	1369.21
394.68	1575.18
394.88	1556.46
395.07	1516.67
395.26	1607.95
395.46	1500.28
395.65	1568.16
395.84	1556.46
396.04	1636.03
396.23	1640.72
396.42	1551.78
396.62	1647.74
396.81	1640.72
397.00	1568.16
397.19	1668.80
397.39	1605.61
397.58	1659.44
397.77	1636.03
397.97	1732.00
398.16	1689.87
398.35	1816.26
398.55	1764.76
398.74	1703.91
398.93	1650.08
399.12	1741.36
399.32	1797.53
399.51	1795.19
399.70	1764.76
399.90	1739.02
400.09	1839.66
400.28	1753.06
400.47	1755.40
400.67	1706.25
400.86	1839.66
401.05	1827.96
401.24	1823.28
401.44	1900.52
401.63	1839.66
401.82	1820.94
402.01	1888.81
402.21	1900.52
402.40	1872.43
402.59	1872.43
402.78	2022.22
402.97	1884.13
403.17	1975.41
403.36	1940.30
403.55	2064.35
403.74	1984.77
403.93	2125.21
404.13	2174.36
404.32	2062.01
404.51	2087.76
404.70	2165.00
404.89	2052.65
405.09	2146.27
405.28	2080.74
405.47	2097.12
405.66	2129.89
405.85	2214.15
406.05	2132.23
406.24	2118.18
406.43	2223.51
406.62	2209.47
406.81	2265.64
407.00	2267.98
407.20	2272.66
407.39	2279.68
407.58	2263.30
407.77	2258.62
407.96	2335.85
408.15	2342.88
408.34	2230.53
408.54	2361.60
408.73	2401.39
408.92	2394.37
409.11	2534.80
409.30	2457.56
409.49	2415.43
409.68	2473.95
409.87	2523.10
410.07	2516.08
410.26	2459.90
410.45	2527.78
410.64	2605.02
410.83	2588.63
411.02	2633.10
411.21	2644.81
411.40	2726.72
411.59	2698.64
411.78	2605.02
411.98	2621.40
412.17	2642.46
412.36	2771.19
412.55	2722.04
412.74	2789.92
412.93	2803.96
413.12	2836.73
413.31	2881.20
413.50	2918.65
413.69	2810.98
413.88	3000.57
414.07	2944.39
414.26	2806.30
414.45	3016.95
414.64	3038.02
414.83	2960.78
415.02	3002.91
415.22	3157.38
415.41	3159.72
415.60	3243.98
415.79	3129.30
415.98	3440.59
416.17	3178.45
416.36	3323.56
416.55	3192.49
416.74	3391.44
416.93	3337.60
417.12	3267.39
417.31	3337.60
417.50	3274.41
417.69	3372.71
417.88	3403.14
418.07	3403.14
418.26	3407.82
418.45	3478.04
418.64	3566.98
418.83	3506.12
419.02	3482.72
419.21	3543.57
419.39	3693.37
419.58	3557.61
419.77	3517.83
419.96	3555.27
420.15	3688.68
420.34	3695.71
420.53	3552.93
420.72	3719.11
420.91	3684.00
421.10	3667.62
421.29	3786.99
421.48	3775.28
421.67	3733.15
421.86	3688.68
422.05	3775.28
422.24	3801.03
422.43	3798.69
422.61	3662.94
422.80	3786.99
422.99	3815.07
423.18	3899.33
423.37	3988.27
423.56	3904.01
423.75	3847.84
423.94	3749.54
424.13	3620.81
424.32	3712.09
424.50	3920.40
424.69	3999.98
424.88	3852.52
425.07	3911.04
425.26	3911.04
425.45	3859.54
425.64	3798.69
425.83	3840.82
426.01	3798.69
426.20	3887.63
426.39	4072.53
426.58	3990.61
426.77	3976.57
426.96	4021.04
427.15	3964.87
427.33	4117.00
427.52	3978.91
427.71	4119.34
427.90	4079.55
428.09	4046.79
428.28	4056.15
428.46	4180.20
428.65	4056.15
428.84	4156.79
429.03	4301.90
429.22	4133.39
429.40	4175.52
429.59	4250.41
429.78	4252.75
429.97	4121.68
430.16	4236.37
430.34	4322.97
430.53	4271.48
430.72	4468.08
430.91	4339.35
431.10	4280.84
431.28	4442.34
431.47	4468.08
431.66	4507.87
431.85	4416.59
432.03	4526.60
432.22	4706.82
432.41	4568.73
432.60	4468.08
432.79	4578.09
432.97	4671.71
433.16	4641.28
433.35	4627.24
433.54	4603.83
433.72	4713.84
433.91	4823.84
434.10	4725.54
434.28	4788.74
434.47	4692.77
434.66	4741.93
434.85	4727.88
435.03	4819.16
435.22	5008.75
435.41	5224.08
435.59	5069.60
435.78	5242.80
435.97	5071.94
436.16	4894.06
436.34	4875.34
436.53	5006.41
436.72	5149.18
436.90	4884.70
437.09	5034.49
437.28	4964.28
437.46	5191.31
437.65	5015.77
437.84	5221.74
438.02	5011.09
438.21	5097.69
438.40	5116.41
438.58	5303.65
438.77	5352.81
438.96	5240.46
439.14	5303.65
439.33	5336.42
439.52	5313.02
439.70	5483.88
439.89	5586.86
440.08	5523.66
440.26	5476.85
440.45	5689.84
440.63	5671.12
440.82	5919.21
441.01	5715.59
441.19	5699.20
441.38	5764.74
441.57	5717.93
441.75	6001.13
441.94	6054.97
442.12	5905.17
442.31	6029.22
442.50	6005.81
442.68	5989.43
442.87	5961.34
443.05	6031.56
443.24	6106.46
443.43	6265.61
443.61	6148.59
443.80	6349.87
443.98	6076.03
444.17	5858.36
444.35	5954.32
444.54	6113.48
444.73	6104.12
444.91	6242.21
445.10	6258.59
445.28	6169.65
445.47	6146.25
445.65	6197.74
445.84	6434.13
446.02	6279.66
446.21	6221.14
446.39	6047.94
446.58	6305.40
446.77	6106.46
446.95	6392.00
447.14	6209.44
447.32	6401.37
447.51	6289.02
447.69	6272.64
447.88	6298.38
448.06	6480.94
448.25	6345.19
448.43	6499.67
448.62	6471.58
448.80	6267.95
448.99	6314.77
449.17	6530.09
449.36	6377.96
449.54	6583.93
449.73	6511.37
449.91	6635.42
450.10	6586.27
450.28	6855.43
450.46	6689.25
450.65	6654.14
450.83	6686.91
451.02	6693.93
451.20	6911.60
451.39	6778.19
451.57	6644.78
451.76	6885.86
451.94	6913.94
452.13	6902.24
452.31	6953.73
452.49	6906.92
452.68	6864.79
452.86	6991.18
453.05	7066.08
453.23	7129.27
453.42	6979.48
453.60	6766.49
453.78	7061.40
453.97	7045.01
454.15	7066.08
454.34	6855.43
454.52	7239.28
454.70	7082.46
454.89	7126.93
455.07	7110.55
455.26	7265.02
455.44	7391.41
455.62	7290.77
455.81	7250.98
455.99	7405.46
456.17	7487.37
456.36	7325.88
456.54	7433.54
456.73	7653.55
456.91	7627.81
457.09	7520.14
457.28	7578.65
457.46	7534.18
457.64	7735.47
457.83	7948.46
458.01	7683.98
458.19	7918.03
458.38	7630.15
458.56	7779.94
458.74	7880.58
458.93	7847.82
459.11	7922.71
459.29	7815.05
459.48	7903.99
459.66	7660.57
459.84	7969.52
460.03	8287.84
460.21	8028.04
460.39	7950.80
460.57	8060.80
460.76	8208.26
460.94	8058.46
461.12	7903.99
461.31	8222.30
461.49	8046.76
461.67	8039.74
461.85	8470.40
462.04	8318.26
462.22	8737.22
462.40	8304.22
462.59	8355.71
462.77	8332.31
462.95	8524.23
463.13	8435.29
463.32	8561.68
463.50	8580.40
463.68	8547.64
463.86	8662.32
464.05	8449.33
464.23	8545.30
464.41	8655.30
464.59	8613.17
464.78	8779.35
464.96	8617.85
465.14	8571.04
465.32	8669.34
465.50	8683.39
465.69	8894.04
465.87	8622.53
466.05	8669.34
466.23	8819.14
466.41	8884.67
466.60	9020.42
466.78	8842.54
466.96	8767.65
467.14	8910.42
467.32	9095.32
467.51	8954.89
467.69	8793.39
467.87	8987.66
468.05	9121.07
468.23	8887.01
468.41	8791.05
468.60	9055.53
468.78	8999.36
468.96	9090.64
469.14	9224.05
469.32	9308.31
469.50	9111.71
469.69	9378.53
469.87	9406.61
470.05	9579.81
470.23	9472.15
470.41	9582.15
470.59	9577.47
470.77	9547.05
470.95	9390.23
471.14	9696.84
471.32	9444.06
471.50	9647.69
471.68	9661.73
471.86	9788.12
472.04	9825.57
472.22	10167.29
472.40	9860.68
472.58	9841.95
472.77	9853.66
472.95	10141.54
473.13	10382.62
473.31	10211.76
473.49	10384.96
473.67	10298.36
473.85	10127.50
474.03	10443.47
474.21	10497.30
474.39	10569.86
474.57	10532.41
474.75	10682.20
474.93	10808.59
475.12	10665.82
475.30	10651.78
475.48	10731.36
475.66	10944.34
475.84	10867.11
476.02	10920.94
476.20	11185.42
476.38	10995.84
476.56	11318.83
476.74	11445.22
476.92	11391.39
477.10	11302.45
477.28	11751.83
477.46	11344.58
477.64	11543.52
477.82	11913.33
478.00	12035.03
478.18	12159.08
478.36	11946.09
478.54	12358.03
478.72	12042.06
478.90	12030.35
479.08	12491.44
479.26	12421.22
479.44	12512.50
479.62	12659.96
479.80	12814.43
479.98	12835.50
480.16	13235.73
480.34	12987.63
480.52	13142.11
480.70	13074.23
480.88	12992.31
481.06	13191.26
481.24	13310.63
481.41	13535.32
481.59	13671.07
481.77	13760.01
481.95	13767.03
482.13	13865.33
482.31	13846.61
482.49	14153.22
482.67	14202.37
482.85	14300.67
483.03	14579.20
483.21	14611.96
483.39	14927.94
483.57	14656.43
483.74	14799.21
483.92	15068.37
484.10	15091.77
484.28	14981.77
484.46	15499.03
484.64	15822.02
484.82	15508.39
485.00	15674.57
485.18	15843.09
485.35	16353.32
485.53	15854.79
485.71	16315.87
485.89	16383.75
486.07	16477.37
486.25	16540.57
486.43	16563.97
486.61	16791.00
486.78	16676.32
486.96	17188.89
487.14	17453.37
487.32	17308.26
487.50	17575.08
487.68	17685.09
487.85	17621.89
488.03	17783.39
488.21	18029.15
488.39	18267.88
488.57	18382.57
488.75	18288.95
488.92	18331.08
489.10	18525.34
489.28	18806.20
489.46	18941.96
489.64	18752.37
489.81	19283.67
489.99	19157.28
490.17	19501.34
490.35	19585.60
490.53	19620.71
490.70	20276.06
490.88	19737.74
491.06	19941.36
491.24	20081.80
491.41	20173.08
491.59	20341.60
491.77	20311.17
491.95	20952.48
492.13	20957.16
492.30	21111.63
492.48	21053.12
492.66	21261.43
492.84	21301.22
493.01	21664.00
493.19	21336.32
493.37	21633.57
493.54	21802.09
493.72	21937.84
493.90	21745.92
494.08	22050.19
494.25	22670.43
494.43	22338.07
494.61	22485.53
494.79	22443.40
494.96	22551.06
495.14	22628.30
495.32	23089.38
495.49	22913.84
495.67	23255.56
495.85	23335.14
496.02	23285.99
496.20	23768.14
496.38	23594.94
496.55	23782.18
496.73	24116.88
496.91	24144.97
497.09	24044.32
497.26	24208.16
497.44	24290.08
497.62	24421.15
497.79	24435.19
497.97	24812.02
498.14	25144.38
498.32	25146.72
498.50	25013.31
498.67	25799.73
498.85	25060.12
499.03	25638.23
499.20	25706.10
499.38	25727.17
499.56	26078.25
499.73	26195.28
499.91	26136.76
500.08	26080.59
500.26	25956.54
500.44	26373.16
500.61	26611.89
500.79	26349.75
500.97	26352.09
501.14	26476.14
501.32	26581.46
501.49	26740.62
501.67	26696.15
501.84	27072.98
502.02	27417.04
502.20	27051.91
502.37	27255.54
502.55	27075.32
502.72	27335.12
502.90	27325.75
503.07	27407.67
503.25	27730.67
503.43	27449.80
503.60	27784.50
503.78	27772.80
503.95	27751.73
504.13	27819.61
504.30	27866.42
504.48	27931.95
504.65	28093.45
504.83	28666.88
505.01	28673.90
505.18	28982.85
505.36	28662.20
505.53	28713.69
505.71	28952.43
505.88	28886.89
506.06	28769.86
506.23	29130.31
506.41	29027.32
506.58	29266.06
506.76	29003.92
506.93	29514.16
507.11	29312.87
507.28	29778.64
507.46	30040.78
507.63	29724.80
507.81	29734.17
507.98	29743.53
508.16	29986.94
508.33	30078.22
508.50	30476.12
508.68	30445.69
508.85	30574.42
509.03	30649.32
509.20	30433.99
509.38	30728.89
509.55	31271.90
509.73	31393.61
509.90	31154.87
510.08	31409.99
510.25	30927.84
510.42	30881.03
510.60	31419.35
510.77	31608.93
510.95	31358.50
511.12	31573.83
511.30	31770.43
511.47	31651.06
511.64	31793.84
511.82	32212.79
511.99	31859.37
512.17	31627.66
512.34	32402.38
512.51	32451.53
512.69	32369.61
512.86	32414.08
513.04	32811.97
513.21	32418.76
513.38	33081.13
513.56	32769.84
513.73	32776.86
513.90	33336.25
514.08	33216.88
514.25	33486.04
514.43	33291.78
514.60	32837.72
514.77	33364.34
514.95	32952.40
515.12	33331.57
515.29	33853.51
515.47	33605.41
515.64	33900.32
515.81	33642.86
515.99	34270.12
516.16	33823.08
516.33	33961.17
516.51	34412.90
516.68	34122.67
516.85	33977.56
517.03	34693.76
517.20	34822.49
517.37	34164.80
517.54	34101.61
517.72	34471.41
517.89	34176.50
518.06	34719.51
518.24	34817.81
518.41	35290.60
518.58	34897.39
518.75	34857.60
518.93	34998.03
519.10	34803.77
519.27	35005.05
519.45	34934.84
519.62	35470.82
519.79	35526.99
519.96	35323.36
520.14	35672.10
520.31	35599.55
520.48	35644.02
520.65	35618.27
520.83	36128.51
521.00	35936.59
521.17	36189.36
521.34	36320.43
521.52	36170.64
521.69	36177.66
521.86	36077.02
522.03	36364.90
522.20	36699.60
522.38	36741.73
522.55	36877.48
522.72	36767.48
522.89	37010.89
523.07	36596.62
523.24	36652.79
523.41	36741.73
523.58	36577.89
523.75	37331.54
523.92	37546.87
524.10	37088.13
524.27	37097.49
524.44	37591.34
524.61	37612.41
524.78	37479.00
524.96	37256.65
525.13	37621.77
525.30	37979.87
525.47	38148.39
525.64	38220.95
525.81	38064.13
525.98	38143.71
526.16	38096.90
526.33	38078.18
526.50	38433.94
526.67	38326.27
526.84	38464.36
527.01	38085.20
527.18	38164.78
527.36	38433.94
527.53	38396.49
527.70	39398.24
527.87	39079.92
528.04	38913.75
528.21	38778.00
528.38	38871.62
528.55	38990.98
528.72	38820.13
528.89	39147.80
529.07	38859.91
529.24	38829.49
529.41	39344.41
529.58	39894.43
529.75	39091.63
529.92	39433.35
530.09	39185.25
530.26	39232.06
530.43	39363.13
530.60	39482.50
530.77	39384.19
530.94	39622.93
531.11	39915.50
531.28	39718.89
531.46	40144.87
531.63	40198.70
531.80	40027.84
531.97	39927.20
532.14	40350.84
532.31	40313.39
532.48	40041.88
532.65	40725.32
532.82	40212.74
532.99	40643.40
533.16	40294.66
533.33	40318.07
533.50	40797.88
533.67	40449.14
533.84	40315.73
534.01	40629.36
534.18	41088.10
534.35	41560.89
534.52	40479.57
534.69	40772.13
534.86	41099.81
535.03	40554.46
535.20	41118.53
535.37	41439.18
535.54	41841.76
535.71	41256.62
535.88	41404.08
536.05	42050.06
536.22	41633.45
536.38	41771.54
536.55	41504.72
536.72	41572.60
536.89	41551.53
537.06	41591.32
537.23	42476.04
537.40	41715.37
537.57	41457.91
537.74	42003.25
537.91	42024.32
538.08	41902.61
538.25	42007.94
538.42	41750.48
538.59	42316.89
538.75	42155.39
538.92	42522.85
539.09	42560.30
539.26	42380.08
539.43	42204.54
539.60	42380.08
539.77	42745.20
539.94	42850.53
540.11	42981.60
540.28	43044.79
540.44	42579.03
540.61	42824.78
540.78	42946.49
540.95	42747.54
541.12	42887.98
541.29	42815.42
541.46	42864.57
541.62	43234.38
541.79	43550.35
541.96	43269.48
542.13	43388.85
542.30	43445.02
542.47	43292.89
542.63	43103.31
542.80	43243.74
542.97	43732.91
543.14	43990.37
543.31	44020.80
543.48	43810.15
543.64	44713.59
543.81	44619.97
543.98	44259.53
544.15	44304.00
544.32	44268.89
544.48	44252.51
544.65	44383.58
544.82	44282.94
544.99	43924.83
545.16	44435.07
545.32	44362.51
545.49	45177.02
545.66	44952.33
545.83	45354.90
546.00	45593.64
546.16	45504.70
546.33	44725.30
546.50	44847.00
546.67	44673.81
546.83	44116.76
547.00	44896.16
547.17	44652.74
547.34	44507.63
547.50	44973.39
547.67	45366.60
547.84	45268.30
548.00	45635.77
548.17	45631.08
548.34	45010.84
548.51	45492.99
548.67	44877.43
548.84	45256.60
549.01	45067.02
549.18	45277.66
549.34	45287.03
549.51	45759.81
549.68	45705.98
549.84	45478.95
550.01	45687.26
550.18	45144.25
550.34	45240.21
550.51	45408.73
550.68	45757.47
550.84	45605.34
551.01	45769.18
551.18	45565.55
551.34	45626.40
551.51	45652.15
551.68	45764.49
551.84	45354.90
552.01	45249.58
552.18	45916.63
552.34	45923.65
552.51	46312.18
552.68	45895.56
552.84	46113.23
553.01	46094.51
553.18	46176.43
553.34	46089.83
553.51	46300.48
553.67	46696.03
553.84	46443.25
554.01	46419.84
554.17	46955.83
554.34	46686.67
554.51	46459.63
554.67	46436.23
554.84	46319.20
555.00	45947.06
555.17	46117.92
555.33	46536.87
555.50	46398.78
555.67	46705.39
555.83	46777.95
556.00	46646.88
556.16	47035.41
556.33	46944.12
556.50	46567.30
556.66	46972.21
556.83	46548.57
556.99	47112.64
557.16	46946.47
557.32	47112.64
557.49	46995.62
557.65	46300.48
557.82	47262.44
557.98	46752.20
558.15	46965.19
558.32	47089.24
558.48	46958.17
558.65	47056.47
558.81	47274.14
558.98	47061.15
559.14	47110.30
559.31	47072.85
559.47	47334.99
559.64	47320.95
559.80	47222.65
559.97	47213.29
560.13	47199.24
560.30	46450.27
560.46	47669.69
560.63	47550.32
560.79	47599.47
560.96	47487.13
561.12	47498.83
561.29	47330.31
561.45	47246.05
561.61	47765.65
561.78	47377.12
561.94	47482.45
562.11	47613.52
562.27	47606.50
562.44	47796.08
562.60	47878.00
562.77	47711.82
562.93	47360.74
563.10	47962.26
563.26	47629.90
563.42	48170.57
563.59	47576.07
563.75	47980.98
563.92	47934.17
564.08	47714.16
564.24	47639.26
564.41	47856.93
564.57	48062.90
564.74	47536.28
564.90	48067.58
565.07	48034.81
565.23	47767.99
565.39	48355.47
565.56	48589.52
565.72	48004.39
565.88	48200.99
566.05	47714.16
566.21	47709.48
566.38	48184.61
566.54	47749.27
566.70	48498.24
566.87	48449.09
567.03	48037.16
567.19	48430.36
567.36	48523.99
567.52	48177.59
567.68	48193.97
567.85	48135.46
568.01	48285.25
568.17	48172.91
568.34	48369.51
568.50	48149.50
568.66	48502.92
568.83	48362.49
568.99	48360.15
569.15	48217.38
569.32	48531.01
569.48	48566.12
569.64	48308.66
569.81	48318.02
569.97	47931.83
570.13	48289.93
570.30	48257.17
570.46	48325.04
570.62	48320.36
570.78	48308.66
570.95	48397.60
571.11	48954.64
571.27	48212.70
571.43	48090.99
571.60	48186.95
571.76	47889.70
571.92	48177.59
572.09	48418.66
572.25	48657.40
572.41	48479.52
572.57	48633.99
572.74	48942.94
572.90	48657.40
573.06	48610.59
573.22	48643.35
573.38	48732.29
573.55	48619.95
573.71	49099.76
573.87	48744.00
574.03	48708.89
574.20	48549.73
574.36	49041.24
574.52	48453.77
574.68	48762.72
574.84	48697.19
575.01	48802.51
575.17	48851.66
575.33	48753.36
575.49	48664.42
575.65	48734.63
575.82	48956.99
575.98	48645.69
576.14	48851.66
576.30	48783.79
576.46	48285.25
576.62	48779.10
576.79	48889.11
576.95	48568.46
577.11	48987.41
577.27	49385.30
577.43	49181.68
577.59	49198.06
577.75	48568.46
577.92	48699.53
578.08	48587.18
578.24	48641.01
578.40	49296.36
578.56	49279.98
578.72	48851.66
578.88	49153.59
579.04	49478.92
579.21	48994.43
579.37	49284.66
579.53	48942.94
579.69	48926.56
579.85	48830.60
580.01	48961.67
580.17	48994.43
580.33	49137.21
580.49	49361.90
580.65	48992.09
580.82	48947.62
580.98	49083.37
581.14	48968.69
581.30	49387.64
581.46	49001.46
581.62	48671.44
581.78	48645.69
581.94	48959.33
582.10	48779.10
582.26	48889.11
582.42	49134.87
582.58	48793.15
582.74	49329.13
582.90	49460.20
583.06	49270.62
583.22	48898.47
583.38	49074.01
583.54	48751.02
583.70	48896.13
583.86	48598.88
584.02	49003.80
584.18	49099.76
584.34	48964.01
584.50	49184.02
584.66	48947.62
584.82	48849.32
584.98	49104.44
585.14	49031.88
585.30	49062.31
585.46	48971.03
585.62	48832.94
585.78	49429.77
585.94	49172.31
586.10	49310.41
586.26	49069.33
586.42	49048.27
586.58	49413.39
586.74	49099.76
586.90	49214.44
587.06	49144.23
587.22	49069.33
587.38	49240.19
587.54	49558.50
587.70	49776.17
587.86	49322.11
588.02	49315.09
588.18	49694.25
588.34	49450.84
588.49	49659.15
588.65	49329.13
588.81	48980.39
588.97	49584.25
589.13	49523.40
589.29	49043.59
589.45	49469.56
589.61	49588.93
589.77	49712.98
589.93	49357.22
590.08	49680.21
590.24	49844.05
590.40	49921.29
590.56	49240.19
590.72	49560.84
590.88	49359.56
591.04	49584.25
591.20	49567.87
591.35	49928.31
591.51	50452.59
591.67	49909.58
591.83	50202.15
591.99	49521.05
592.15	49724.68
592.31	49832.35
592.46	49783.19
592.62	49682.55
592.78	49446.16
592.94	49436.80
593.10	49544.46
593.26	50005.55
593.41	49883.84
593.57	49970.44
593.73	50000.86
593.89	50071.08
594.05	49359.56
594.20	49368.92
594.36	49923.63
594.52	49673.19
594.68	49544.46
594.84	49776.17
594.99	50110.87
595.15	50103.85
595.31	49319.77
595.47	50110.87
595.62	49647.44
595.78	49886.18
595.94	49324.45
596.10	49504.67
596.25	49483.61
596.41	49975.12
596.57	49326.79
596.73	49614.68
596.88	49350.20
597.04	50003.20
597.20	50085.12
597.36	50059.38
597.51	50150.66
597.67	49565.52
597.83	49696.59
597.99	49935.33
598.14	50120.23
598.30	49965.76
598.46	49958.73
598.61	49862.77
598.77	49757.45
598.93	50010.23
599.09	49822.98
599.24	50258.32
599.40	49930.65
599.56	50040.65
599.71	49963.42
599.87	49947.03
600.03	49663.83
600.18	49815.96
600.34	50155.34
600.50	49872.14
600.65	50188.11
600.81	50178.75
600.97	50057.04
601.12	50459.61
601.28	50258.32
601.44	50181.09
601.59	50220.87
601.75	49507.01
601.91	50340.24
602.06	49832.35
602.22	50073.42
602.37	49851.07
602.53	50171.72
602.69	50288.75
602.84	49844.05
603.00	50052.36
603.16	50099.17
603.31	49771.49
603.47	50145.98
603.62	49638.08
603.78	50429.18
603.94	49710.64
604.09	49900.22
604.25	49876.82
604.40	50031.29
604.56	50195.13
604.71	50150.66
604.87	50263.00
605.03	49624.04
605.18	49968.10
605.34	49799.58
605.49	49844.05
605.65	49324.45
605.80	49612.34
605.96	49862.77
606.12	50143.64
606.27	50586.00
606.43	49837.03
606.58	50057.04
606.74	49797.24
606.89	50052.36
607.05	49720.00
607.20	49801.92
607.36	49333.81
607.51	49724.68
607.67	49523.40
607.82	49626.38
607.98	49853.41
608.13	49886.18
608.29	49743.41
608.44	50045.33
608.60	49689.57
608.75	49949.37
608.91	50129.59
609.06	49773.83
609.22	49687.23
609.37	49312.75
609.53	49900.22
609.68	50277.05
609.84	49532.76
609.99	49712.98
610.15	49680.21
610.30	49961.08
610.46	49710.64
610.61	50375.35
610.76	50183.43
610.92	49815.96
611.07	50225.56
611.23	50380.03
611.38	50368.33
611.54	50412.80
611.69	50298.11
611.84	50202.15
612.00	49949.37
612.15	50398.76
612.31	50363.65
612.46	49741.06
612.62	49876.82
612.77	49544.46
612.92	49893.20
613.08	49581.91
613.23	49722.34
613.39	49460.20
613.54	49343.17
613.69	49731.70
613.85	49712.98
614.00	49717.66
614.15	49818.30
614.31	49542.12
614.46	50021.93
614.62	49488.29
614.77	49380.62
614.92	49720.00
615.08	49090.40
615.23	49577.23
615.38	49598.29
615.54	48772.08
615.69	49099.76
615.84	49345.51
616.00	49172.31
616.15	49146.57
616.30	49432.11
616.46	48935.92
616.61	48917.20
616.76	49165.29
616.92	48605.91
617.07	48879.75
617.22	48942.94
617.37	48844.64
617.53	48622.29
617.68	48844.64
617.83	48940.60
617.99	49104.44
618.14	48956.99
618.29	49329.13
618.45	48832.94
618.60	48610.59
618.75	48601.22
618.90	48542.71
619.06	48161.20
619.21	48528.67
619.36	48505.26
619.51	48203.33
619.67	48250.14
619.82	48666.76
619.97	49045.93
620.12	48729.95
620.28	48397.60
620.43	48671.44
620.58	49130.19
620.73	48383.55
620.89	48619.95
621.04	48332.06
621.19	48233.76
621.34	48224.40
621.49	47936.51
621.65	48250.14
621.80	48685.48
621.95	48531.01
622.10	48523.99
622.25	48376.53
622.41	47997.37
622.56	47976.30
622.71	48303.98
622.86	48240.78
623.01	47901.40
623.16	47559.69
623.32	48339.08
623.47	48177.59
623.62	48083.97
623.77	48336.74
623.92	48446.75
624.07	48119.07
624.23	48179.93
624.38	48500.58
624.53	48090.99
624.68	48114.39
624.83	48004.39
624.98	48224.40
625.13	47931.83
625.29	47657.99
625.44	47936.51
625.59	47564.37
625.74	48037.16
625.89	47426.28
626.04	47627.56
626.19	47557.35
626.34	47576.07
626.49	47573.73
626.65	47903.74
626.80	47777.36
626.95	47522.24
627.10	47370.10
627.25	47229.67
627.40	47035.41
627.55	47131.37
627.70	47271.80
627.85	47459.04
628.00	47014.34
628.15	47269.46
628.30	46997.96
628.45	47423.93
628.60	47250.74
628.76	46731.14
628.91	47035.41
629.06	47182.86
629.21	47222.65
629.36	47107.96
629.51	47295.21
629.66	47283.50
629.81	46419.84
629.96	47063.49
630.11	47051.79
630.26	46932.42
630.41	47044.77
630.56	46756.88
630.71	46817.74
630.86	47063.49
631.01	46955.83
631.16	47246.05
631.31	46845.82
631.46	46759.22
631.61	46890.29
631.76	46593.04
631.91	46829.44
632.06	46696.03
632.21	46670.28
632.36	46576.66
632.51	46576.66
632.66	47344.36
632.81	46358.99
632.96	46550.91
633.10	46457.29
633.25	46476.02
633.40	46698.37
633.55	46227.92
633.70	46101.53
633.85	46124.94
634.00	46852.84
634.15	46469.00
634.30	46354.31
634.45	45909.61
634.60	46054.72
634.75	46354.31
634.90	45914.29
635.05	46117.92
635.19	45471.93
635.34	46028.98
635.49	46033.66
635.64	45563.21
635.79	45432.14
635.94	45855.78
636.09	45865.14
636.24	46169.41
636.39	46150.68
636.53	46693.69
636.68	45977.48
636.83	45687.26
636.98	45993.87
637.13	45813.65
637.28	45771.52
637.43	45268.30
637.57	45481.29
637.72	45015.52
637.87	45141.91
638.02	45104.46
638.17	45748.11
638.32	45301.07
638.46	44982.76
638.61	45357.24
638.76	45429.80
638.91	45839.39
639.06	45787.90
639.20	45881.52
639.35	45469.59
639.50	45230.85
639.65	45371.28
639.80	45516.40
639.94	45095.10
640.09	45270.64
640.24	45212.13
640.39	45572.57
640.54	45457.88
640.68	45504.70
640.83	44914.88
640.98	44851.69
641.13	44610.61
641.27	45057.65
641.42	44875.09
641.57	44809.56
641.72	45151.27
641.86	44814.24
642.01	44177.61
642.16	44456.14
642.31	44465.50
642.45	44795.51
642.60	44470.18
642.75	44645.72
642.90	44912.54
643.04	44170.59
643.19	44521.67
643.34	44891.48
643.48	45202.77
643.63	44622.31
643.78	43842.92
643.93	44659.76
644.07	44404.64
644.22	44243.15
644.37	44156.55
644.51	44102.71
644.66	44641.04
644.81	44711.25
644.95	44423.37
645.10	44554.44
645.25	44278.25
645.39	44624.65
645.54	44772.11
645.69	44507.63
645.83	44172.93
645.98	44444.43
646.13	44404.64
646.27	44484.22
646.42	44355.49
646.57	44411.67
646.71	44343.79
646.86	43896.75
647.00	44203.36
647.15	44119.10
647.30	44311.02
647.44	44318.04
647.59	44044.20
647.74	43737.59
647.88	44273.57
648.03	43817.17
648.17	43643.97
648.32	43482.47
648.47	43725.89
648.61	43477.79
648.76	44009.09
648.90	43761.00
649.05	43440.34
649.20	43831.21
649.34	44177.61
649.49	43952.92
649.63	43859.30
649.78	44013.77
649.92	43428.64
650.07	43889.73
650.21	43580.78
650.36	43744.61
650.51	43208.63
650.65	43318.64
650.80	43772.70
650.94	43339.70
651.09	43674.40
651.23	43185.22
651.38	43981.01
651.52	43047.13
651.67	43349.06
651.81	43377.15
651.96	43445.02
652.10	43166.50
652.25	42946.49
652.39	42803.72
652.54	42398.80
652.68	42887.98
652.83	43168.84
652.97	42941.81
653.12	43187.56
653.26	42995.64
653.41	43061.18
653.55	43159.48
653.70	42913.72
653.84	43175.86
653.99	43295.23
654.13	42763.93
654.27	42742.86
654.42	43126.71
654.56	42937.13
654.71	42782.65
654.85	43248.42
655.00	42759.25
655.14	42499.45
655.29	42682.01
655.43	42389.44
655.57	41977.51
655.72	42061.77
655.86	42754.57
656.01	42616.47
656.15	42174.11
656.30	42485.40
656.44	42916.06
656.58	42859.89
656.73	42244.33
656.87	42415.19
657.01	42548.60
657.16	42148.37
657.30	42572.00
657.45	41673.24
657.59	41752.82
657.73	41918.99
657.88	42237.31
658.02	41921.34
658.16	42164.75
658.31	42412.85
658.45	42342.63
658.60	42057.09
658.74	41869.84
658.88	42192.84
659.03	41504.72
659.17	41340.88
659.31	41240.24
659.46	40910.22
659.60	41614.72
659.74	41584.30
659.89	41706.01
660.03	41701.32
660.17	41464.93
660.32	41172.36
660.46	40832.99
660.60	40715.96
660.74	41097.47
660.89	41191.09
661.03	41088.10
661.17	41167.68
661.32	40781.49
661.46	40732.34
661.60	40797.88
661.74	41008.53
661.89	40847.03
662.03	40985.12
662.17	41041.29
662.31	40931.29
662.46	41153.64
662.60	40194.02
662.74	40332.11
662.88	40156.57
663.03	40493.61
663.17	40439.78
663.31	40353.18
663.45	40755.75
663.60	39842.94
663.74	40179.98
663.88	39782.09
664.02	40062.95
664.17	39852.30
664.31	39838.26
664.45	39449.73
664.59	40011.46
664.73	40144.87
664.88	40156.57
665.02	39620.59
665.16	39957.63
665.30	39672.08
665.44	39435.69
665.59	39447.39
665.73	39274.19
665.87	39168.87
666.01	39220.36
666.15	39732.93
666.29	39693.15
666.44	39377.17
666.58	38667.99
666.72	38696.08
666.86	38855.23
667.00	39159.50
667.14	38883.32
667.28	38864.60
667.43	38604.80
667.57	38883.32
667.71	38937.15
667.85	39000.35
667.99	39082.27
668.13	38115.62
668.27	37984.55
668.41	38981.62
668.56	38132.01
668.70	38396.49
668.84	37942.42
668.98	37830.08
669.12	37628.79
669.26	38029.02
669.40	38103.92
669.54	38157.75
669.68	38047.75
669.82	37787.95
669.96	37738.80
670.10	37743.48
670.25	37996.26
670.39	37553.90
670.53	37425.17
670.67	37151.32
670.81	37600.71
670.95	37296.44
671.09	37134.94
671.23	37123.24
671.37	37479.00
671.51	37649.86
671.65	37642.84
671.79	37376.01
671.93	37439.21
672.07	37401.76
672.21	37064.72
672.35	37282.39
672.49	36732.37
672.63	36666.83
672.77	36652.79
672.91	36549.81
673.05	35929.56
673.19	36400.01
673.33	36243.20
673.47	35842.96
673.61	36233.83
673.75	36430.44
673.89	35747.00
674.03	35768.07
674.17	36020.84
674.31	36287.67
674.45	35791.47
674.59	36201.07
674.73	36091.06
674.87	35725.94
675.01	35023.78
675.15	35358.47
675.29	35117.40
675.43	35225.06
675.56	35122.08
675.70	35150.17
675.84	34532.26
675.98	33890.96
676.12	34588.44
676.26	35159.53
676.40	34923.13
676.54	34478.43
676.68	34644.61
676.82	34117.99
676.96	34532.26
677.10	34183.52
677.23	34176.50
677.37	34345.02
677.51	34403.53
677.65	34000.96
677.79	33666.27
677.93	33191.14
678.07	33570.30
678.21	33439.23
678.34	33418.17
678.48	33097.52
678.62	32723.03
678.76	33233.27
678.90	33090.49
679.04	32690.26
679.18	32818.99
679.31	32582.60
679.45	32865.80
679.59	32549.83
679.73	32671.54
679.87	32456.21
680.00	32416.42
680.14	32507.70
680.28	32121.51
680.42	32109.81
680.56	32002.14
680.70	31751.71
680.83	31761.07
680.97	31772.77
681.11	31374.88
681.25	31351.48
681.39	31323.39
681.52	31143.17
681.66	31023.80
681.80	31082.31
681.94	31056.57
682.07	30808.47
682.21	31065.93
682.35	30969.97
682.49	31229.77
682.62	30796.77
682.76	30754.64
682.90	30361.43
683.04	30129.72
683.17	30459.73
683.31	30384.83
683.45	30008.01
683.59	30188.23
683.72	29635.86
683.86	30059.50
684.00	29670.97
684.13	29436.92
684.27	29298.83
684.41	29432.24
684.55	29724.80
684.68	29179.46
684.82	29202.86
684.96	28989.88
685.09	29027.32
685.23	28943.06
685.37	28898.59
685.50	29170.10
685.64	28914.98
685.78	28341.55
685.91	28439.85
686.05	28304.10
686.19	27934.29
686.32	28271.33
686.46	28081.75
686.60	28261.97
686.73	28196.43
686.87	27615.98
687.01	27623.00
687.14	27889.82
687.28	27597.26
687.42	27615.98
687.55	27559.81
687.69	27580.87
687.82	27021.48
687.96	27353.84
688.10	27094.04
688.23	27365.54
688.37	26862.33
688.50	26888.07
688.64	26876.37
688.78	27065.96
688.91	26759.34
689.05	26700.83
689.18	26026.76
689.32	25989.31
689.46	26279.54
689.59	25731.85
689.73	25802.07
689.86	25671.00
690.00	25551.63
690.13	25385.45
690.27	25488.43
690.41	25490.77
690.54	25099.90
690.68	25179.48
690.81	24903.30
690.95	25319.92
691.08	25364.39
691.22	24877.55
691.35	24978.20
691.49	25261.40
691.62	24989.90
691.76	24837.76
691.89	25219.27
692.03	24971.18
692.16	24369.66
692.30	24180.07
692.43	24072.41
692.57	24018.58
692.70	24292.42
692.84	23960.06
692.97	23679.20
693.11	23388.97
693.24	23290.67
693.38	23477.91
693.51	23674.52
693.65	23592.60
693.78	23508.34
693.92	23440.47
694.05	23147.90
694.19	23473.23
694.32	23307.05
694.45	23367.91
694.59	23215.77
694.72	23030.87
694.86	22485.53
694.99	22199.98
695.13	22211.68
695.26	22602.55
695.39	22150.83
695.53	22122.74
695.66	22235.09
695.80	21921.46
695.93	21834.86
696.07	21834.86
696.20	21680.38
696.33	21804.43
696.47	21720.17
696.60	22104.02
696.73	21687.40
696.87	21415.90
697.00	21446.33
697.14	21502.50
697.27	21022.69
697.40	20795.66
697.54	20713.74
697.67	20875.24
697.80	20664.59
697.94	20458.62
698.07	20290.10
698.21	20489.05
698.34	20262.02
698.47	20278.40
698.61	20180.10
698.74	20152.01
698.87	20093.50
699.01	19971.79
699.14	19917.96
699.27	20056.05
699.40	20357.98
699.54	20187.12
699.67	19665.18
699.80	19384.32
699.94	19342.19
700.07	19356.23
700.20	18813.23
700.34	19087.07
700.47	19183.03
700.60	18953.66
700.73	19058.98
700.87	18677.48
701.00	18630.66
701.13	18743.01
701.26	18581.51
701.40	18429.38
701.53	18005.74
701.66	18218.73
701.79	18054.89
701.93	18012.76
702.06	18579.17
702.19	18125.11
702.32	18253.84
702.46	17748.28
702.59	17696.79
702.72	17734.24
702.85	17483.80
702.99	17427.63
703.12	17558.70
703.25	17303.58
703.38	17476.78
703.51	17055.48
703.65	17238.05
703.78	17535.29
703.91	17043.78
704.04	17139.74
704.17	17296.56
704.31	16933.78
704.44	16795.68
704.57	16910.37
704.70	16177.78
704.83	16049.05
704.96	16215.23
705.10	16383.75
705.23	16149.70
>>>>>End Processed Spectral Data<<<<<
