SpectraSuite Data File
++++++++++++++++++++++++++++++++++++
Date: Thu Oct 24 13:21:19 EDT 2013
User: stostad
Dark Spectrum Present: No
Reference Spectrum Present: No
Number of Sampled Component Spectra: 1
Spectrometers: USB2+H05261
Integration Time (usec): 100000 (USB2+H05261)
Spectra Averaged: 1 (USB2+H05261)
Boxcar Smoothing: 0 (USB2+H05261)
Correct for Electrical Dark: No (USB2+H05261)
Strobe/Lamp Enabled: No (USB2+H05261)
Correct for Detector Non-linearity: No (USB2+H05261)
Correct for Stray Light: No (USB2+H05261)
Number of Pixels in Processed Spectrum: 2048
>>>>>Begin Processed Spectral Data<<<<<
365.73	550.03
365.92	550.03
366.12	550.03
366.32	482.15
366.52	393.21
366.72	484.49
366.91	449.38
367.11	454.06
367.31	416.62
367.51	456.40
367.70	470.45
367.90	365.12
368.10	470.45
368.30	491.51
368.49	461.09
368.69	468.11
368.89	503.22
369.09	437.68
369.28	505.56
369.48	470.45
369.68	493.85
369.87	491.51
370.07	486.83
370.27	620.24
370.47	617.90
370.66	770.04
370.86	880.04
371.06	866.00
371.25	896.43
371.45	896.43
371.65	936.21
371.84	826.21
372.04	835.57
372.24	898.77
372.44	833.23
372.63	952.60
372.83	889.40
373.03	912.81
373.22	947.92
373.42	976.00
373.62	945.58
373.81	938.55
374.01	997.07
374.21	990.05
374.40	994.73
374.60	954.94
374.79	1032.18
374.99	999.41
375.19	978.34
375.38	1067.28
375.58	992.39
375.78	1004.09
375.97	1011.11
376.17	1015.79
376.37	1034.52
376.56	1027.50
376.76	1064.94
376.95	961.96
377.15	1062.60
377.35	1027.50
377.54	1090.69
377.74	1067.28
377.93	1018.13
378.13	1086.01
378.33	1086.01
378.52	1055.58
378.72	1097.71
378.91	1095.37
379.11	1114.10
379.31	1055.58
379.50	1076.65
379.70	1090.69
379.89	1137.50
380.09	1071.97
380.28	1036.86
380.48	1050.90
380.68	1095.37
380.87	1100.05
381.07	1107.07
381.26	1109.41
381.46	1116.44
381.65	1114.10
381.85	1116.44
382.04	1165.59
382.24	1165.59
382.43	1130.48
382.63	1177.29
382.83	1151.54
383.02	1130.48
383.22	1207.72
383.41	1125.80
383.61	1191.33
383.80	1224.10
384.00	1226.44
384.19	1247.51
384.39	1181.97
384.58	1226.44
384.78	1266.23
384.97	1200.69
385.17	1249.85
385.36	1193.67
385.56	1252.19
385.75	1219.42
385.95	1172.61
386.14	1275.59
386.34	1198.35
386.53	1231.12
386.72	1252.19
386.92	1256.87
387.11	1331.76
387.31	1254.53
387.50	1327.08
387.70	1259.21
387.89	1352.83
388.09	1357.51
388.28	1217.08
388.48	1439.43
388.67	1423.05
388.86	1277.93
389.06	1324.74
389.25	1238.14
389.45	1385.60
389.64	1394.96
389.84	1399.64
390.03	1359.85
390.22	1380.92
390.42	1420.71
390.61	1383.26
390.81	1359.85
391.00	1427.73
391.19	1425.39
391.39	1357.51
391.58	1392.62
391.78	1427.73
391.97	1460.49
392.16	1371.55
392.36	1462.83
392.55	1486.24
392.75	1500.28
392.94	1444.11
393.13	1460.49
393.33	1458.15
393.52	1526.03
393.71	1500.28
393.91	1469.86
394.10	1526.03
394.29	1519.01
394.49	1486.24
394.68	1551.78
394.88	1614.97
395.07	1570.50
395.26	1509.65
395.46	1572.84
395.65	1558.80
395.84	1547.09
396.04	1598.59
396.23	1689.87
396.42	1624.33
396.62	1675.82
396.81	1668.80
397.00	1547.09
397.19	1746.04
397.39	1598.59
397.58	1713.27
397.77	1694.55
397.97	1769.44
398.16	1769.44
398.35	1825.62
398.55	1657.10
398.74	1722.63
398.93	1795.19
399.12	1732.00
399.32	1715.61
399.51	1717.95
399.70	1797.53
399.90	1795.19
400.09	1816.26
400.28	1907.54
400.47	1844.34
400.67	1909.88
400.86	1944.99
401.05	1839.66
401.24	1746.04
401.44	1944.99
401.63	1947.33
401.82	1879.45
402.01	1844.34
402.21	1937.96
402.40	1912.22
402.59	1989.46
402.78	1977.75
402.97	1984.77
403.17	2003.50
403.36	2040.95
403.55	1994.14
403.74	1996.48
403.93	2078.40
404.13	2054.99
404.32	2157.97
404.51	2211.81
404.70	2113.50
404.89	2162.66
405.09	2188.40
405.28	2263.30
405.47	2167.34
405.66	2139.25
405.85	2244.57
406.05	2200.10
406.24	2246.91
406.43	2188.40
406.62	2270.32
406.81	2300.75
407.00	2216.49
407.20	2303.09
407.39	2148.61
407.58	2361.60
407.77	2286.70
407.96	2335.85
408.15	2312.45
408.34	2396.71
408.54	2401.39
408.73	2312.45
408.92	2406.07
409.11	2480.97
409.30	2445.86
409.49	2504.37
409.68	2717.36
409.87	2551.18
410.07	2537.14
410.26	2567.57
410.45	2455.22
410.64	2480.97
410.83	2581.61
411.02	2670.55
411.21	2731.41
411.40	2635.44
411.59	2663.53
411.78	2663.53
411.98	2684.59
412.17	2637.78
412.36	2796.94
412.55	2801.62
412.74	2850.77
412.93	2871.84
413.12	2888.22
413.31	3063.76
413.50	2958.44
413.69	2864.82
413.88	2813.32
414.07	2928.01
414.26	3009.93
414.45	2937.37
414.64	3082.49
414.83	3073.12
415.02	3028.65
415.22	3145.68
415.41	3229.94
415.60	3166.74
415.79	3159.72
415.98	3206.53
416.17	3283.77
416.36	3218.24
416.55	3190.15
416.74	3391.44
416.93	3337.60
417.12	3281.43
417.31	3442.93
417.50	3323.56
417.69	3386.76
417.88	3468.67
418.07	3438.25
418.26	3487.40
418.45	3566.98
418.64	3559.95
418.83	3555.27
419.02	3583.36
419.21	3674.64
419.39	3559.95
419.58	3604.42
419.77	3494.42
419.96	3693.37
420.15	3782.31
420.34	3705.07
420.53	3691.02
420.72	3641.87
420.91	3796.35
421.10	3845.50
421.29	3756.56
421.48	3625.49
421.67	3887.63
421.86	3817.41
422.05	3971.89
422.24	3749.54
422.43	3864.22
422.61	3754.22
422.80	3967.21
422.99	3967.21
423.18	3882.95
423.37	3892.31
423.56	3901.67
423.75	3967.21
423.94	3873.59
424.13	3754.22
424.32	3658.26
424.50	4070.19
424.69	4028.06
424.88	3990.61
425.07	3964.87
425.26	3932.10
425.45	3932.10
425.64	3946.14
425.83	3978.91
426.01	4037.42
426.20	4058.49
426.39	4030.40
426.58	4100.62
426.77	4084.23
426.96	4042.11
427.15	3868.91
427.33	4112.32
427.52	4035.08
427.71	3985.93
427.90	4170.83
428.09	4177.86
428.28	4290.20
428.46	4269.14
428.65	4177.86
428.84	4358.08
429.03	4290.20
429.22	4168.49
429.40	4327.65
429.59	4383.82
429.78	4201.26
429.97	4201.26
430.16	4344.03
430.34	4381.48
430.53	4344.03
430.72	4449.36
430.91	4484.47
431.10	4334.67
431.28	4535.96
431.47	4592.13
431.66	4486.81
431.85	4489.15
432.03	4580.43
432.22	4624.90
432.41	4681.07
432.60	4463.40
432.79	4690.43
432.97	4681.07
433.16	4711.50
433.35	4578.09
433.54	4903.42
433.72	4688.09
433.91	4781.71
434.10	4833.21
434.28	4706.82
434.47	4816.82
434.66	4833.21
434.85	4748.95
435.03	4943.21
435.22	5200.67
435.41	5331.74
435.59	5284.93
435.78	5064.92
435.97	5139.82
436.16	5088.32
436.34	4807.46
436.53	4999.38
436.72	5191.31
436.90	5039.17
437.09	5069.60
437.28	5060.24
437.46	5203.01
437.65	5184.29
437.84	5327.06
438.02	5104.71
438.21	5238.12
438.40	5074.28
438.58	5310.68
438.77	5399.62
438.96	5247.48
439.14	5369.19
439.33	5497.92
439.52	5572.82
439.70	5638.35
439.89	5631.33
440.08	5638.35
440.26	5636.01
440.45	5493.24
440.63	5778.78
440.82	5921.56
441.01	5813.89
441.19	5816.23
441.38	5853.68
441.57	5870.06
441.75	5818.57
441.94	6125.18
442.12	6010.50
442.31	6057.31
442.50	5959.00
442.68	6052.63
442.87	6113.48
443.05	6155.61
443.24	6267.95
443.43	6242.21
443.61	6256.25
443.80	6307.74
443.98	6188.38
444.17	5926.24
444.35	6164.97
444.54	6342.85
444.73	6368.60
444.91	6282.00
445.10	6338.17
445.28	6256.25
445.47	6417.75
445.65	6319.45
445.84	6354.55
446.02	6363.92
446.21	6352.21
446.39	6427.11
446.58	6516.05
446.77	6296.04
446.95	6181.35
447.14	6450.52
447.32	6525.41
447.51	6434.13
447.69	6403.71
447.88	6345.19
448.06	6291.36
448.25	6492.65
448.43	6321.79
448.62	6389.66
448.80	6504.35
448.99	6389.66
449.17	6656.48
449.36	6448.18
449.54	6551.16
449.73	6771.17
449.91	6820.32
450.10	6644.78
450.28	7009.90
450.46	6803.94
450.65	6820.32
450.83	6906.92
451.02	6761.81
451.20	7096.50
451.39	6876.49
451.57	7042.67
451.76	6836.70
451.94	7014.59
452.13	6906.92
452.31	7040.33
452.49	6951.39
452.68	7045.01
452.86	7115.23
453.05	7016.93
453.23	7183.10
453.42	7009.90
453.60	7094.16
453.78	7052.03
453.97	7276.73
454.15	7140.97
454.34	7197.15
454.52	7325.88
454.70	7173.74
454.89	7342.26
455.07	7400.77
455.26	7548.23
455.44	7606.74
455.62	7538.87
455.81	7468.65
455.99	7503.76
456.17	7531.84
456.36	7520.14
456.54	7545.89
456.73	7637.17
456.91	7840.79
457.09	7719.09
457.28	7882.92
457.46	7700.36
457.64	7850.16
457.83	7878.24
458.01	7784.62
458.19	7763.56
458.38	7896.97
458.56	7985.91
458.74	7953.14
458.93	8053.78
459.11	7983.57
459.29	8051.44
459.48	8119.32
459.66	8084.21
459.84	8056.12
460.03	8056.12
460.21	8217.62
460.39	8126.34
460.57	8126.34
460.76	8196.56
460.94	8299.54
461.12	8208.26
461.31	8325.29
461.49	8219.96
461.67	8203.58
461.85	8446.99
462.04	8470.40
462.22	8781.69
462.40	8767.65
462.59	8554.66
462.77	8613.17
462.95	8807.44
463.13	8739.56
463.32	8365.07
463.50	8545.30
463.68	8702.11
463.86	8622.53
464.05	8622.53
464.23	8652.96
464.41	8744.24
464.59	8697.43
464.78	8854.25
464.96	8706.79
465.14	8716.16
465.32	8788.71
465.50	8933.82
465.69	9029.79
465.87	8882.33
466.05	8847.22
466.23	8887.01
466.41	8879.99
466.60	9097.66
466.78	8961.91
466.96	8912.76
467.14	9015.74
467.32	9043.83
467.51	9193.62
467.69	8980.64
467.87	9107.02
468.05	9233.41
468.23	9221.71
468.41	9151.49
468.60	9228.73
468.78	9341.08
468.96	9214.69
469.14	9399.59
469.32	9481.51
469.50	9219.37
469.69	9334.06
469.87	9738.97
470.05	9514.28
470.23	9554.07
470.41	9738.97
470.59	9624.28
470.77	9635.99
470.95	9762.37
471.14	9816.21
471.32	9914.51
471.50	9767.06
471.68	9731.95
471.86	9834.93
472.04	10092.39
472.22	10225.80
472.40	9853.66
472.58	10113.45
472.77	10249.21
472.95	10427.09
473.13	10628.37
473.31	10223.46
473.49	10370.91
473.67	10211.76
473.85	10279.63
474.03	10558.16
474.21	10611.99
474.39	10448.15
474.57	10661.14
474.75	10913.92
474.93	10698.59
475.12	10736.04
475.30	10946.69
475.48	10824.98
475.66	11225.21
475.84	10991.16
476.02	11243.93
476.20	11176.06
476.38	11173.72
476.56	11667.57
476.74	11578.63
476.92	11459.26
477.10	11536.50
477.28	11683.95
477.46	11597.35
477.64	11749.49
477.82	11822.05
478.00	12255.04
478.18	12152.06
478.36	12233.98
478.54	12418.88
478.72	12486.76
478.90	12351.01
479.08	12872.95
479.26	12961.89
479.44	12807.41
479.62	12894.01
479.80	12776.98
479.98	13090.62
480.16	13167.85
480.34	12938.48
480.52	13221.69
480.70	13497.87
480.88	13135.09
481.06	13434.68
481.24	13619.58
481.41	13879.38
481.59	13769.37
481.77	14015.13
481.95	14307.69
482.13	14284.29
482.31	13996.40
482.49	14640.05
482.67	14398.98
482.85	14214.07
483.03	14808.57
483.21	14918.57
483.39	14965.39
483.57	14944.32
483.74	15150.29
483.92	15424.13
484.10	15009.86
484.28	15311.78
484.46	15775.21
484.64	15946.07
484.82	15737.76
485.00	15999.90
485.18	16182.46
485.35	16362.69
485.53	16435.24
485.71	16432.90
485.89	16802.71
486.07	16697.38
486.25	16863.56
486.43	16844.84
486.61	17097.61
486.78	16968.88
486.96	17373.80
487.14	17504.87
487.32	17661.68
487.50	17603.17
487.68	17858.29
487.85	18157.88
488.03	18380.23
488.21	18387.25
488.39	18401.29
488.57	18527.68
488.75	18604.92
488.92	18764.07
489.10	19349.21
489.28	18930.25
489.46	19241.54
489.64	19438.15
489.81	19459.21
489.99	19625.39
490.17	19761.14
490.35	20095.84
490.53	20152.01
490.70	20065.41
490.88	20049.03
491.06	20580.33
491.24	20573.31
491.41	20744.17
491.59	20978.22
491.77	20912.69
491.95	20931.41
492.13	21333.98
492.30	21432.29
492.48	21034.39
492.66	21336.32
492.84	21362.07
493.01	21678.04
493.19	21930.82
493.37	21898.05
493.54	22148.49
493.72	22424.67
493.90	22232.75
494.08	22686.81
494.25	22691.49
494.43	22995.76
494.61	23073.00
494.79	22913.84
494.96	23161.94
495.14	23143.22
495.32	23506.00
495.49	23616.01
495.67	23623.03
495.85	23644.09
496.02	23662.82
496.20	23803.25
496.38	23821.97
496.55	23962.40
496.73	24765.21
496.91	24556.90
497.09	24739.46
497.26	24755.85
497.44	24847.13
497.62	24833.08
497.79	25048.41
497.97	25160.76
498.14	25450.99
498.32	25661.63
498.50	25348.00
498.67	25874.62
498.85	25776.32
499.03	26064.21
499.20	25975.27
499.38	26382.52
499.56	26539.33
499.73	26148.46
499.91	26396.56
500.08	26815.52
500.26	26197.62
500.44	26480.82
500.61	26780.41
500.79	27276.60
500.97	26738.28
501.14	27550.45
501.32	27374.91
501.49	26934.88
501.67	27395.97
501.84	27489.59
502.02	27655.77
502.20	27630.02
502.37	27667.47
502.55	27894.50
502.72	27906.21
502.90	28095.79
503.07	28285.37
503.25	28126.22
503.43	27864.08
503.60	28376.66
503.78	28360.27
503.95	28301.76
504.13	28411.76
504.30	28538.15
504.48	28589.64
504.65	28692.63
504.83	29226.27
505.01	29282.44
505.18	29373.72
505.36	29214.57
505.53	29347.98
505.71	29401.81
505.88	29256.70
506.06	29563.31
506.23	29720.12
506.41	29811.40
506.58	29661.61
506.76	29467.34
506.93	30251.42
507.11	30232.70
507.28	30384.83
507.46	30267.81
507.63	30670.38
507.81	30546.33
507.98	30260.79
508.16	30630.59
508.33	30899.75
508.50	30864.64
508.68	31489.57
508.85	31037.84
509.03	31269.56
509.20	31028.48
509.38	31360.84
509.55	31445.10
509.73	31737.66
509.90	31978.74
510.08	31578.51
510.25	31681.49
510.42	32158.96
510.60	32149.60
510.77	32048.96
510.95	32250.24
511.12	31931.93
511.30	32081.72
511.47	32371.95
511.64	32304.07
511.82	32765.16
511.99	32418.76
512.17	32732.39
512.34	32889.21
512.51	32996.87
512.69	33048.36
512.86	33118.58
513.04	33472.00
513.21	33191.14
513.38	33338.59
513.56	33249.65
513.73	33151.35
513.90	33525.83
514.08	33661.58
514.25	33895.64
514.43	33855.85
514.60	33631.16
514.77	33656.90
514.95	34127.35
515.12	33729.46
515.29	34068.84
515.47	34450.35
515.64	34525.24
515.81	34359.06
515.99	34244.38
516.16	34787.38
516.33	34466.73
516.51	35143.14
516.68	35016.75
516.85	34824.83
517.03	35117.40
517.20	35250.81
517.37	35206.34
517.54	35037.82
517.72	35091.65
517.89	34937.18
518.06	35419.33
518.24	35405.28
518.41	35381.88
518.58	35372.52
518.75	35201.66
518.93	35821.90
519.10	35667.42
519.27	35784.45
519.45	36112.13
519.62	36180.00
519.79	35967.01
519.96	36196.38
520.14	36257.24
520.31	35910.84
520.48	36350.86
520.65	36070.00
520.83	36678.54
521.00	36503.00
521.17	36538.10
521.34	36755.77
521.52	36493.63
521.69	36746.41
521.86	36879.82
522.03	37020.25
522.20	37174.73
522.38	37574.96
522.55	37652.20
522.72	37851.14
522.89	37275.37
523.07	37680.28
523.24	37242.60
523.41	38096.90
523.58	37488.36
523.75	38000.94
523.92	37614.75
524.10	38326.27
524.27	37970.51
524.44	38146.05
524.61	38033.71
524.78	38267.76
524.96	37883.91
525.13	38375.42
525.30	38225.63
525.47	39014.39
525.64	38717.14
525.81	39058.86
525.98	38927.79
526.16	38600.12
526.33	38880.98
526.50	38880.98
526.67	39023.75
526.84	39185.25
527.01	39051.84
527.18	39571.44
527.36	38981.62
527.53	38768.63
527.70	39526.97
527.87	39395.90
528.04	39536.33
528.21	39365.47
528.38	39779.74
528.55	39526.97
528.72	39536.33
528.89	39428.66
529.07	39555.05
529.24	39688.46
529.41	40205.72
529.58	40006.78
529.75	40191.68
529.92	40304.02
530.09	40100.40
530.26	39756.34
530.43	40294.66
530.60	39674.42
530.77	40486.59
530.94	40645.74
531.11	40690.21
531.28	40500.63
531.46	40385.94
531.63	41034.27
531.80	40765.11
531.97	40952.35
532.14	40575.53
532.31	41308.11
532.48	40968.74
532.65	40966.40
532.82	41031.93
532.99	41109.17
533.16	40751.07
533.33	40989.80
533.50	41855.80
533.67	41137.26
533.84	41078.74
534.01	41581.96
534.18	41673.24
534.35	41741.11
534.52	41624.09
534.69	41666.22
534.86	41631.11
535.03	41556.21
535.20	41680.26
535.37	42003.25
535.54	41521.10
535.71	41684.94
535.88	41806.65
536.05	41963.46
536.22	42344.97
536.38	42043.04
536.55	42244.33
536.72	42164.75
536.89	42515.83
537.06	42742.86
537.23	42483.06
537.40	42560.30
537.57	42600.09
537.74	42787.33
537.91	43243.74
538.08	42401.14
538.25	42396.46
538.42	42993.30
538.59	43419.28
538.75	42651.58
538.92	42923.08
539.09	43428.64
539.26	43009.68
539.43	42707.76
539.60	43126.71
539.77	43241.40
539.94	43374.81
540.11	43632.27
540.28	43592.48
540.44	43225.01
540.61	43590.14
540.78	43438.00
540.95	43669.72
541.12	43461.41
541.29	43353.74
541.46	44025.48
541.62	44287.62
541.79	44170.59
541.96	43688.44
542.13	44114.42
542.30	44135.48
542.47	44446.77
542.63	44362.51
542.80	43952.92
542.97	44959.35
543.14	44996.80
543.31	44406.98
543.48	44954.67
543.64	44699.55
543.81	45076.38
543.98	44882.11
544.15	45188.72
544.32	45312.77
544.48	45212.13
544.65	45113.83
544.82	44994.46
544.99	44795.51
545.16	45205.11
545.32	45074.04
545.49	45785.56
545.66	45490.65
545.83	46106.21
546.00	46122.60
546.16	45909.61
546.33	45834.71
546.50	45677.90
546.67	45572.57
546.83	45331.50
547.00	45291.71
547.17	45022.54
547.34	45544.48
547.50	45333.84
547.67	45764.49
547.84	45806.62
548.00	46190.47
548.17	46239.62
548.34	45961.10
548.51	45984.51
548.67	45773.86
548.84	45851.09
549.01	46000.89
549.18	46230.26
549.34	46129.62
549.51	46012.59
549.68	46426.87
549.84	45970.46
550.01	46054.72
550.18	45790.24
550.34	46136.64
550.51	46380.06
550.68	46471.34
550.84	46525.17
551.01	46775.61
551.18	46321.54
551.34	46010.25
551.51	46319.20
551.68	46169.41
551.84	46143.66
552.01	46113.23
552.18	46375.37
552.34	46623.47
552.51	47402.87
552.68	46841.14
552.84	46649.22
553.01	46777.95
553.18	46995.62
553.34	46663.26
553.51	46733.48
553.67	46902.00
553.84	46983.91
554.01	47199.24
554.17	47026.04
554.34	47419.25
554.51	47217.97
554.67	47304.57
554.84	46909.02
555.00	47021.36
555.17	47124.35
555.33	47077.54
555.50	47044.77
555.67	47524.58
555.83	47409.89
556.00	47449.68
556.16	47599.47
556.33	47365.42
556.50	47327.97
556.66	47351.38
556.83	47112.64
556.99	47566.71
557.16	47866.30
557.32	47861.61
557.49	47810.12
557.65	47543.30
557.82	47665.01
557.98	47571.39
558.15	47870.98
558.32	47880.34
558.48	47611.18
558.65	47812.46
558.81	47784.38
558.98	47515.22
559.14	47796.08
559.31	47824.17
559.47	48102.69
559.64	48226.74
559.80	48179.93
559.97	47964.60
560.13	47892.04
560.30	47957.58
560.46	48161.20
560.63	48282.91
560.79	48266.53
560.96	48636.33
561.12	48261.85
561.29	48191.63
561.45	47924.81
561.61	48163.54
561.78	48367.17
561.94	48329.72
562.11	48772.08
562.27	48690.16
562.44	48481.86
562.60	48622.29
562.77	48512.28
562.93	48128.44
563.10	48638.67
563.26	48456.11
563.42	49013.16
563.59	48736.98
563.75	48217.38
563.92	48713.57
564.08	48793.15
564.24	48481.86
564.41	48486.54
564.57	48547.39
564.74	48762.72
564.90	48655.06
565.07	48409.30
565.23	48933.58
565.39	48964.01
565.56	48828.26
565.72	48694.85
565.88	48734.63
566.05	48736.98
566.21	48109.71
566.38	48624.63
566.54	48072.26
566.70	48673.78
566.87	48767.40
567.03	49031.88
567.19	49247.21
567.36	49324.45
567.52	48844.64
567.68	48994.43
567.85	48783.79
568.01	48959.33
568.17	49057.63
568.34	48896.13
568.50	48956.99
568.66	49340.83
568.83	49125.50
568.99	48816.55
569.15	48856.34
569.32	49001.46
569.48	48589.52
569.64	49109.12
569.81	48781.45
569.97	48912.52
570.13	49109.12
570.30	48891.45
570.46	48931.24
570.62	48905.49
570.78	49301.04
570.95	49322.11
571.11	49076.35
571.27	48903.15
571.43	48942.94
571.60	48928.90
571.76	49008.48
571.92	49254.23
572.09	49291.68
572.25	49661.49
572.41	49109.12
572.57	49268.28
572.74	49839.37
572.90	49214.44
573.06	49111.46
573.22	49427.43
573.38	49521.05
573.55	49310.41
573.71	50040.65
573.87	49312.75
574.03	49130.19
574.20	49289.34
574.36	49830.01
574.52	49347.86
574.68	49448.50
574.84	49413.39
575.01	49418.07
575.17	49462.54
575.33	49333.81
575.49	49780.85
575.65	49523.40
575.82	49434.45
575.98	48830.60
576.14	49584.25
576.30	49741.06
576.46	49411.05
576.62	49289.34
576.79	49008.48
576.95	49062.31
577.11	49734.04
577.27	49397.01
577.43	49394.67
577.59	49546.80
577.75	49478.92
577.92	49095.08
578.08	49825.32
578.24	49642.76
578.40	49794.90
578.56	49507.01
578.72	49492.97
578.88	49757.45
579.04	50263.00
579.21	49516.37
579.37	50092.15
579.53	50078.10
579.69	49736.38
579.85	49731.70
580.01	49504.67
580.17	49539.78
580.33	49839.37
580.49	49701.28
580.65	49469.56
580.82	49736.38
580.98	49963.42
581.14	49432.11
581.30	49804.26
581.46	49139.55
581.62	49556.16
581.78	49474.24
581.94	49663.83
582.10	49680.21
582.26	49944.69
582.42	49759.79
582.58	49551.48
582.74	49389.98
582.90	49645.10
583.06	49748.09
583.22	49785.54
583.38	49778.51
583.54	49172.31
583.70	49591.27
583.86	49972.78
584.02	49436.80
584.18	50361.31
584.34	50218.53
584.50	49900.22
584.66	49762.13
584.82	49453.18
584.98	50136.62
585.14	50248.96
585.30	49954.05
585.46	49755.11
585.62	49518.71
585.78	50377.69
585.94	49947.03
586.10	49743.41
586.26	50092.15
586.42	50164.70
586.58	50082.78
586.74	49902.56
586.90	49617.02
587.06	49734.04
587.22	50134.28
587.38	49790.22
587.54	50279.39
587.70	50653.87
587.86	50347.26
588.02	50127.25
588.18	50293.43
588.34	50368.33
588.49	50174.06
588.65	49731.70
588.81	49799.58
588.97	49968.10
589.13	50082.78
589.29	49642.76
589.45	50642.17
589.61	50670.26
589.77	50600.04
589.93	50272.37
590.08	50443.23
590.24	50337.90
590.40	50394.07
590.56	50534.51
590.72	50281.73
590.88	49954.05
591.04	50192.79
591.20	50284.07
591.35	50548.55
591.51	50817.71
591.67	50590.68
591.83	50721.75
591.99	50183.43
592.15	50319.18
592.31	50199.81
592.46	50480.67
592.62	50110.87
592.78	50487.70
592.94	50237.26
593.10	50272.37
593.26	50887.93
593.41	50693.66
593.57	50340.24
593.73	50621.11
593.89	50658.56
594.05	50586.00
594.20	49851.07
594.36	50546.21
594.52	49996.18
594.68	50426.84
594.84	50475.99
594.99	50717.07
595.15	50546.21
595.31	50656.21
595.47	50913.67
595.62	50459.61
595.78	50504.08
595.94	50075.76
596.10	50326.20
596.25	50138.96
596.41	50286.41
596.57	50426.84
596.73	50607.06
596.88	50616.43
597.04	50831.75
597.20	50351.94
597.36	50632.81
597.51	50756.86
597.67	50763.88
597.83	50197.47
597.99	50941.76
598.14	50724.09
598.30	50300.45
598.46	50295.77
598.61	50618.77
598.77	50614.08
598.93	50705.37
599.09	50630.47
599.24	50740.47
599.40	50972.19
599.56	50803.67
599.71	50873.88
599.87	50988.57
600.03	50960.48
600.18	50616.43
600.34	50663.24
600.50	50511.10
600.65	50763.88
600.81	50986.23
600.97	51114.96
601.12	50742.81
601.28	51021.34
601.44	50857.50
601.59	50525.14
601.75	50681.96
601.91	51159.43
602.06	50583.66
602.22	50639.83
602.37	50756.86
602.53	50831.75
602.69	50866.86
602.84	50883.25
603.00	50513.44
603.16	50937.08
603.31	50749.84
603.47	50637.49
603.62	50534.51
603.78	50426.84
603.94	50483.01
604.09	50490.04
604.25	50333.22
604.40	50609.40
604.56	50623.45
604.71	51042.40
604.87	51047.08
605.03	50887.93
605.18	50600.04
605.34	50820.05
605.49	50597.70
605.65	50270.03
605.80	50473.65
605.96	50937.08
606.12	50628.13
606.27	51131.34
606.43	50761.54
606.58	50976.87
606.74	50939.42
606.89	50752.18
607.05	50595.36
607.20	50459.61
607.36	50382.37
607.51	50623.45
607.67	50600.04
607.82	50574.30
607.98	50600.04
608.13	50684.30
608.29	50321.52
608.44	50279.39
608.60	50674.94
608.75	51077.51
608.91	50630.47
609.06	50532.17
609.22	50454.93
609.37	49996.18
609.53	50475.99
609.68	50426.84
609.84	50263.00
609.99	50639.83
610.15	50988.57
610.30	50684.30
610.46	50464.29
610.61	51241.35
610.76	50969.85
610.92	51262.41
611.07	50899.63
611.23	50576.64
611.38	50866.86
611.54	51091.55
611.69	51105.60
611.84	50958.14
612.00	51182.84
612.15	50782.60
612.31	50897.29
612.46	50623.45
612.62	50314.50
612.77	50169.38
612.92	50511.10
613.08	50564.93
613.23	50733.45
613.39	50475.99
613.54	50401.10
613.69	50380.03
613.85	50459.61
614.00	50487.70
614.15	50635.15
614.31	50241.94
614.46	50625.79
614.62	50691.32
614.77	50251.30
614.92	50206.83
615.08	50061.72
615.23	50169.38
615.38	50440.89
615.54	49724.68
615.69	49640.42
615.84	50213.85
616.00	49998.52
616.15	50089.80
616.30	49851.07
616.46	49635.74
616.61	49708.30
616.76	49844.05
616.92	49593.61
617.07	49698.94
617.22	49240.19
617.37	49301.04
617.53	49261.26
617.68	49818.30
617.83	49413.39
617.99	49769.15
618.14	49965.76
618.29	49970.44
618.45	49495.31
618.60	49535.10
618.75	49336.15
618.90	49345.51
619.06	48865.70
619.21	49408.71
619.36	48746.34
619.51	49495.31
619.67	49020.18
619.82	49219.13
619.97	49411.05
620.12	49764.47
620.28	49069.33
620.43	49701.28
620.58	49455.52
620.73	49577.23
620.89	49481.27
621.04	49048.27
621.19	49151.25
621.34	49467.22
621.49	49116.14
621.65	49191.04
621.80	49588.93
621.95	49382.96
622.10	49024.86
622.25	49209.76
622.41	48786.13
622.56	48830.60
622.71	49076.35
622.86	48804.85
623.01	48397.60
623.16	48673.78
623.32	48552.07
623.47	48898.47
623.62	48889.11
623.77	48603.56
623.92	49272.96
624.07	49270.62
624.23	49284.66
624.38	49322.11
624.53	48884.43
624.68	49031.88
624.83	48786.13
624.98	48994.43
625.13	48491.22
625.29	48690.16
625.44	48535.69
625.59	48573.14
625.74	48566.12
625.89	48575.48
626.04	48421.00
626.19	48612.93
626.34	48807.19
626.49	48488.88
626.65	48240.78
626.80	48687.82
626.95	48336.74
627.10	47971.62
627.25	48430.36
627.40	48175.25
627.55	48112.05
627.70	48350.79
627.85	48236.10
628.00	47885.02
628.15	48189.29
628.30	47870.98
628.45	48172.91
628.60	47927.15
628.76	48107.37
628.91	48119.07
629.06	47964.60
629.21	47739.91
629.36	47749.27
629.51	48020.77
629.66	48076.94
629.81	47936.51
629.96	47576.07
630.11	47934.17
630.26	47798.42
630.41	47812.46
630.56	47873.32
630.71	47452.02
630.86	47910.77
631.01	47847.57
631.16	48002.05
631.31	47878.00
631.46	47173.50
631.61	47718.84
631.76	47435.64
631.91	47709.48
632.06	47299.89
632.21	47026.04
632.36	47430.96
632.51	47009.66
632.66	47767.99
632.81	47173.50
632.96	47496.49
633.10	47030.72
633.25	47246.05
633.40	47320.95
633.55	47482.45
633.70	47082.22
633.85	46735.82
634.00	46838.80
634.15	47203.92
634.30	46686.67
634.45	47070.51
634.60	46965.19
634.75	47203.92
634.90	46780.29
635.05	46735.82
635.19	46586.02
635.34	46714.75
635.49	46810.71
635.64	46909.02
635.79	46747.52
635.94	47000.30
636.09	47159.45
636.24	47107.96
636.39	46707.73
636.53	46780.29
636.68	46749.86
636.83	46658.58
636.98	46866.89
637.13	46284.09
637.28	46660.92
637.43	46597.73
637.57	46440.91
637.72	46277.07
637.87	46438.57
638.02	46562.62
638.17	46815.40
638.32	46141.32
638.46	46211.54
638.61	46089.83
638.76	46122.60
638.91	46541.55
639.06	46281.75
639.20	46600.07
639.35	46277.07
639.50	46600.07
639.65	46358.99
639.80	46246.65
639.94	46274.73
640.09	46279.41
640.24	45696.62
640.39	46075.79
640.54	46071.10
640.68	45904.93
640.83	45968.12
640.98	45771.52
641.13	45373.63
641.27	45883.86
641.42	45418.10
641.57	45186.38
641.72	45771.52
641.86	45188.72
642.01	45237.87
642.16	45464.91
642.31	45371.28
642.45	45504.70
642.60	45214.47
642.75	45581.93
642.90	45614.70
643.04	45275.32
643.19	45574.91
643.34	45605.34
643.48	46108.55
643.63	45773.86
643.78	44828.28
643.93	45200.43
644.07	44994.46
644.22	45385.33
644.37	45141.91
644.51	45617.04
644.66	45289.37
644.81	45673.21
644.95	45595.98
645.10	45532.78
645.25	45586.61
645.39	45528.10
645.54	45081.06
645.69	45312.77
645.83	45074.04
645.98	44758.06
646.13	45146.59
646.27	45071.70
646.42	45280.00
646.57	45090.42
646.71	44961.69
646.86	45036.59
647.00	45043.61
647.15	45331.50
647.30	45319.79
647.44	44729.98
647.59	45109.14
647.74	45038.93
647.88	45148.93
648.03	45010.84
648.17	44554.44
648.32	44126.12
648.47	44858.71
648.61	44669.12
648.76	44418.69
648.90	44755.72
649.05	44189.31
649.20	44814.24
649.34	44432.73
649.49	44842.32
649.63	45057.65
649.78	44968.71
649.92	44488.90
650.07	44659.76
650.21	44659.76
650.36	44292.30
650.51	44371.88
650.65	44418.69
650.80	44631.68
650.94	44545.08
651.09	44023.14
651.23	44065.27
651.38	44346.13
651.52	44123.78
651.67	44669.12
651.81	44280.60
651.96	44488.90
652.10	44116.76
652.25	44210.38
652.39	44006.75
652.54	44168.25
652.68	43718.87
652.83	43838.23
652.97	43927.17
653.12	43999.73
653.26	43746.95
653.41	44411.67
653.55	43648.65
653.70	43948.24
653.84	43779.72
653.99	43910.79
654.13	43662.69
654.27	43358.42
654.42	43913.13
654.56	43665.03
654.71	43739.93
654.85	43735.25
655.00	43957.60
655.14	43302.25
655.29	43126.71
655.43	43519.92
655.57	42925.42
655.72	43243.74
655.86	43550.35
656.01	43510.56
656.15	43367.79
656.30	43002.66
656.44	43704.82
656.58	43590.14
656.73	43831.21
656.87	43330.34
657.01	43681.42
657.16	43805.47
657.30	43152.46
657.45	42895.00
657.59	42396.46
657.73	42614.13
657.88	42555.62
658.02	42553.28
658.16	43084.58
658.31	43606.52
658.45	43105.65
658.60	42625.84
658.74	42843.51
658.88	42298.16
659.03	42803.72
659.17	42529.87
659.31	42359.02
659.46	42340.29
659.60	42560.30
659.74	42382.42
659.89	42232.63
660.03	42454.98
660.17	42256.03
660.32	42256.03
660.46	42092.19
660.60	42134.32
660.74	42277.10
660.89	42050.06
661.03	41764.52
661.17	41851.12
661.32	41752.82
661.46	41759.84
661.60	41771.54
661.74	41062.36
661.89	41928.36
662.03	41727.07
662.17	41453.23
662.31	41514.08
662.46	41521.10
662.60	41366.63
662.74	41305.77
662.88	40746.39
663.03	41261.30
663.17	41628.77
663.31	41371.31
663.45	41261.30
663.60	41064.70
663.74	40886.82
663.88	41268.33
664.02	40748.73
664.17	41179.39
664.31	40467.86
664.45	40404.67
664.59	40500.63
664.73	40898.52
664.88	40917.25
665.02	40755.75
665.16	40563.82
665.30	40680.85
665.44	40442.12
665.59	40032.52
665.73	39906.13
665.87	40144.87
666.01	40100.40
666.15	40308.71
666.29	40282.96
666.44	40399.99
666.58	39491.86
666.72	39517.60
666.86	40271.26
667.00	39945.92
667.14	39543.35
667.28	40037.20
667.43	39536.33
667.57	40203.38
667.71	40032.52
667.85	39908.47
667.99	39878.05
668.13	39150.14
668.27	39367.81
668.41	39917.84
668.56	38892.68
668.70	38916.09
668.84	38586.07
668.98	38911.41
669.12	38763.95
669.26	38780.34
669.40	38675.01
669.54	38869.28
669.68	39063.54
669.82	39131.42
669.96	39005.03
670.10	38841.19
670.25	38864.60
670.39	38333.29
670.53	37989.24
670.67	38288.82
670.81	38520.54
670.95	38000.94
671.09	37523.47
671.23	38143.71
671.37	38202.22
671.51	38541.60
671.65	38541.60
671.79	37785.61
671.93	38272.44
672.07	38239.67
672.21	37890.93
672.35	37837.10
672.49	37282.39
672.63	37876.89
672.77	37649.86
672.91	37085.79
673.05	36903.23
673.19	36961.74
673.33	36671.51
673.47	36811.95
673.61	36676.19
673.75	37057.70
673.89	36659.81
674.03	36687.90
674.17	36898.55
674.31	36835.35
674.45	37067.06
674.59	36673.85
674.73	36905.57
674.87	36699.60
675.01	35901.48
675.15	36149.57
675.29	36142.55
675.43	35887.43
675.56	35964.67
675.70	35810.20
675.84	35543.38
675.98	34689.08
676.12	35747.00
676.26	35662.74
676.40	35529.33
676.54	35431.03
676.68	35381.88
676.82	35192.30
676.96	35033.14
677.10	35168.89
677.23	35058.88
677.37	35222.72
677.51	35180.59
677.65	34895.05
677.79	34265.44
677.93	33949.47
678.07	34239.70
678.21	34178.84
678.34	33811.38
678.48	33883.94
678.62	33530.51
678.76	33514.13
678.90	33677.97
679.04	34038.41
679.18	33799.68
679.31	33046.02
679.45	33570.30
679.59	33773.93
679.73	33411.15
679.87	33301.14
680.00	32975.81
680.14	33057.73
680.28	32842.40
680.42	32360.25
680.56	33432.21
680.70	32109.81
680.83	32165.98
680.97	32624.73
681.11	32402.38
681.25	31859.37
681.39	32308.76
681.52	32442.17
681.66	31927.25
681.80	31594.89
681.94	31807.88
682.07	31826.60
682.21	31374.88
682.35	31779.79
682.49	31964.70
682.62	31447.44
682.76	31159.55
682.90	31541.06
683.04	30930.18
683.17	30768.68
683.31	30895.07
683.45	30930.18
683.59	30618.89
683.72	30436.33
683.86	30480.80
684.00	30429.30
684.13	30340.36
684.27	30010.35
684.41	30068.86
684.55	30176.53
684.68	30246.74
684.82	29890.98
684.96	29659.27
685.09	29778.64
685.23	30167.16
685.37	29560.97
685.50	29748.21
685.64	29359.68
685.78	28823.70
685.91	29340.96
686.05	28575.60
686.19	29013.28
686.32	28814.34
686.46	28933.70
686.60	28800.29
686.73	28926.68
686.87	28624.75
687.01	28753.48
687.14	28395.38
687.28	28063.02
687.42	28460.91
687.55	28128.56
687.69	28175.37
687.82	27999.83
687.96	27718.96
688.10	27819.61
688.23	27742.37
688.37	27583.21
688.50	27503.64
688.64	27358.52
688.78	27484.91
688.91	27477.89
689.05	27534.06
689.18	26904.46
689.32	26345.07
689.46	26579.12
689.59	27009.78
689.73	26731.26
689.86	26426.99
690.00	26401.24
690.13	26214.00
690.27	25958.88
690.41	26022.08
690.54	25687.38
690.68	25872.28
690.81	25956.54
690.95	25823.13
691.08	25659.29
691.22	25326.94
691.35	25305.87
691.49	25671.00
691.62	25633.55
691.76	25593.76
691.89	25844.20
692.03	25715.47
692.16	24802.66
692.30	25034.37
692.43	24662.22
692.57	24723.08
692.70	24716.06
692.84	24723.08
692.97	24259.65
693.11	24299.44
693.24	24020.92
693.38	23950.70
693.51	24444.56
693.65	24353.27
693.78	24161.35
693.92	24304.12
694.05	23941.34
694.19	23229.82
694.32	23957.72
694.45	23971.77
694.59	23459.19
694.72	23531.75
694.86	23192.37
694.99	22871.72
695.13	22761.71
695.26	22590.85
695.39	22607.23
695.53	22558.08
695.66	22902.14
695.80	22616.60
695.93	22085.30
696.07	22288.92
696.20	22419.99
696.33	22307.65
696.47	22139.13
696.60	22171.89
696.73	22195.30
696.87	21949.54
697.00	21979.97
697.14	21579.74
697.27	21504.84
697.40	21504.84
697.54	21366.75
697.67	21097.59
697.80	21348.03
697.94	20723.10
698.07	21060.14
698.21	20779.28
698.34	20938.43
698.47	20741.83
698.61	20664.59
698.74	20664.59
698.87	20863.54
699.01	20648.21
699.14	20723.10
699.27	20135.63
699.40	20886.94
699.54	20343.94
699.67	20177.76
699.80	20142.65
699.94	19702.63
700.07	19695.61
700.20	19428.79
700.34	19393.68
700.47	19484.96
700.60	19765.82
700.73	19400.70
700.87	19136.22
701.00	19421.77
701.13	19012.17
701.26	18869.40
701.40	18916.21
701.53	18806.20
701.66	18700.88
701.79	18668.11
701.93	18827.27
702.06	18911.53
702.19	18803.86
702.32	18651.73
702.46	18253.84
702.59	18188.30
702.72	18169.58
702.85	17970.63
702.99	17886.37
703.12	17944.89
703.25	18045.53
703.38	18090.00
703.51	17851.27
703.65	17767.01
703.78	17769.35
703.91	17692.11
704.04	17614.87
704.17	17572.74
704.31	17511.89
704.44	17399.54
704.57	16929.09
704.70	17036.76
704.83	16868.24
704.96	16924.41
705.10	16912.71
705.23	16791.00
>>>>>End Processed Spectral Data<<<<<
