SpectraSuite Data File
++++++++++++++++++++++++++++++++++++
Date: Thu Oct 24 13:21:12 EDT 2013
User: stostad
Dark Spectrum Present: No
Reference Spectrum Present: No
Number of Sampled Component Spectra: 1
Spectrometers: USB2+H05261
Integration Time (usec): 100000 (USB2+H05261)
Spectra Averaged: 1 (USB2+H05261)
Boxcar Smoothing: 0 (USB2+H05261)
Correct for Electrical Dark: No (USB2+H05261)
Strobe/Lamp Enabled: No (USB2+H05261)
Correct for Detector Non-linearity: No (USB2+H05261)
Correct for Stray Light: No (USB2+H05261)
Number of Pixels in Processed Spectrum: 2048
>>>>>Begin Processed Spectral Data<<<<<
365.73	535.98
365.92	535.98
366.12	535.98
366.32	531.30
366.52	482.15
366.72	510.24
366.91	437.68
367.11	524.28
367.31	517.26
367.51	507.90
367.70	395.55
367.90	461.09
368.10	486.83
368.30	461.09
368.49	397.89
368.69	512.58
368.89	617.90
369.09	503.22
369.28	472.79
369.48	510.24
369.68	456.40
369.87	550.03
370.07	524.28
370.27	528.96
370.47	617.90
370.66	704.50
370.86	713.86
371.06	671.73
371.25	807.48
371.45	720.88
371.65	765.36
371.84	725.57
372.04	788.76
372.24	753.65
372.44	725.57
372.63	746.63
372.83	819.19
373.03	772.38
373.22	826.21
373.42	744.29
373.62	800.46
373.81	795.78
374.01	812.17
374.21	819.19
374.40	786.42
374.60	830.89
374.79	788.76
374.99	826.21
375.19	805.14
375.38	826.21
375.58	777.06
375.78	884.72
375.97	887.06
376.17	854.30
376.37	793.44
376.56	851.96
376.76	760.67
376.95	835.57
377.15	833.23
377.35	826.21
377.54	833.23
377.74	844.93
377.93	800.46
378.13	812.17
378.33	837.91
378.52	856.64
378.72	809.83
378.91	823.87
379.11	889.40
379.31	844.93
379.50	889.40
379.70	770.04
379.89	819.19
380.09	870.68
380.28	882.38
380.48	877.70
380.68	903.45
380.87	863.66
381.07	898.77
381.26	929.19
381.46	929.19
381.65	809.83
381.85	952.60
382.04	791.10
382.24	833.23
382.43	919.83
382.63	858.98
382.83	933.87
383.02	903.45
383.22	933.87
383.41	795.78
383.61	889.40
383.80	964.30
384.00	908.13
384.19	919.83
384.39	877.70
384.58	894.08
384.78	908.13
384.97	896.43
385.17	877.70
385.36	915.15
385.56	950.26
385.75	945.58
385.95	943.24
386.14	912.81
386.34	933.87
386.53	978.34
386.72	959.62
386.92	964.30
387.11	1008.77
387.31	950.26
387.50	929.19
387.70	961.96
387.89	1004.09
388.09	957.28
388.28	940.90
388.48	985.37
388.67	957.28
388.86	1090.69
389.06	943.24
389.25	966.64
389.45	938.55
389.64	894.08
389.84	973.66
390.03	1043.88
390.22	985.37
390.42	947.92
390.61	917.49
390.81	1006.43
391.00	1025.15
391.19	1027.50
391.39	990.05
391.58	1041.54
391.78	1022.81
391.97	1022.81
392.16	997.07
392.36	1088.35
392.55	1057.92
392.75	1034.52
392.94	971.32
393.13	1114.10
393.33	1053.24
393.52	1102.39
393.71	1022.81
393.91	1053.24
394.10	1081.33
394.29	1088.35
394.49	1186.65
394.68	1011.11
394.88	1095.37
395.07	1116.44
395.26	1095.37
395.46	1142.18
395.65	1179.63
395.84	1104.73
396.04	1167.93
396.23	1123.46
396.42	1151.54
396.62	1200.69
396.81	1163.25
397.00	1128.14
397.19	1245.16
397.39	1186.65
397.58	1076.65
397.77	1188.99
397.97	1268.57
398.16	1188.99
398.35	1221.76
398.55	1252.19
398.74	1217.08
398.93	1334.11
399.12	1196.01
399.32	1167.93
399.51	1233.46
399.70	1280.27
399.90	1254.53
400.09	1240.48
400.28	1280.27
400.47	1191.33
400.67	1324.74
400.86	1242.82
401.05	1259.21
401.24	1254.53
401.44	1306.02
401.63	1221.76
401.82	1296.66
402.01	1348.15
402.21	1320.06
402.40	1301.34
402.59	1343.47
402.78	1343.47
402.97	1364.53
403.17	1359.85
403.36	1423.05
403.55	1331.76
403.74	1469.86
403.93	1411.34
404.13	1537.73
404.32	1483.90
404.51	1469.86
404.70	1584.54
404.89	1479.22
405.09	1394.96
405.28	1418.36
405.47	1446.45
405.66	1420.71
405.85	1465.18
406.05	1462.83
406.24	1434.75
406.43	1570.50
406.62	1570.50
406.81	1572.84
407.00	1448.79
407.20	1528.37
407.39	1579.86
407.58	1526.03
407.77	1614.97
407.96	1629.01
408.15	1511.99
408.34	1584.54
408.54	1537.73
408.73	1673.48
408.92	1521.35
409.11	1645.40
409.30	1605.61
409.49	1671.14
409.68	1647.74
409.87	1619.65
410.07	1659.44
410.26	1643.06
410.45	1654.76
410.64	1743.70
410.83	1661.78
411.02	1722.63
411.21	1734.34
411.40	1729.66
411.59	1687.53
411.78	1706.25
411.98	1701.57
412.17	1774.13
412.36	1774.13
412.55	1863.07
412.74	1877.11
412.93	1914.56
413.12	1734.34
413.31	1839.66
413.50	1802.21
413.69	1879.45
413.88	1909.88
414.07	1888.81
414.26	1977.75
414.45	1944.99
414.64	1923.92
414.83	1886.47
415.02	1952.01
415.22	1959.03
415.41	2017.54
415.60	1989.46
415.79	2033.93
415.98	2062.01
416.17	2069.03
416.36	2108.82
416.55	2059.67
416.74	2076.06
416.93	2073.71
417.12	2033.93
417.31	2190.74
417.50	2141.59
417.69	2141.59
417.88	2181.38
418.07	2183.72
418.26	2181.38
418.45	2155.63
418.64	2214.15
418.83	2270.32
419.02	2354.58
419.21	2242.23
419.39	2307.77
419.58	2256.28
419.77	2307.77
419.96	2349.90
420.15	2239.89
420.34	2293.72
420.53	2312.45
420.72	2326.49
420.91	2359.26
421.10	2321.81
421.29	2319.47
421.48	2282.02
421.67	2392.03
421.86	2354.58
422.05	2296.07
422.24	2328.83
422.43	2279.68
422.61	2443.52
422.80	2445.86
422.99	2424.80
423.18	2455.22
423.37	2487.99
423.56	2443.52
423.75	2464.58
423.94	2441.18
424.13	2347.56
424.32	2380.32
424.50	2502.03
424.69	2457.56
424.88	2427.14
425.07	2492.67
425.26	2478.63
425.45	2455.22
425.64	2469.27
425.83	2523.10
426.01	2485.65
426.20	2450.54
426.39	2415.43
426.58	2429.48
426.77	2569.91
426.96	2602.68
427.15	2466.92
427.33	2579.27
427.52	2513.74
427.71	2649.49
427.90	2370.96
428.09	2642.46
428.28	2600.34
428.46	2644.81
428.65	2546.50
428.84	2654.17
429.03	2647.15
429.22	2616.72
429.40	2572.25
429.59	2684.59
429.78	2640.12
429.97	2593.31
430.16	2635.44
430.34	2738.43
430.53	2679.91
430.72	2651.83
430.91	2731.41
431.10	2801.62
431.28	2775.88
431.47	2843.75
431.66	2785.24
431.85	2827.37
432.03	2885.88
432.22	2909.29
432.41	2764.17
432.60	2878.86
432.79	2867.16
432.97	2897.58
433.16	2834.39
433.35	2818.00
433.54	2890.56
433.72	2942.05
433.91	2902.26
434.10	2827.37
434.28	2827.37
434.47	2860.13
434.66	2965.46
434.85	2993.55
435.03	3110.57
435.22	3222.92
435.41	3435.91
435.59	3225.26
435.78	3288.45
435.97	3262.71
436.16	3075.46
436.34	2998.23
436.53	2979.50
436.72	3080.14
436.90	3028.65
437.09	2939.71
437.28	2963.12
437.46	3094.19
437.65	3061.42
437.84	3056.74
438.02	3035.67
438.21	3105.89
438.40	3143.34
438.58	3243.98
438.77	3283.77
438.96	3229.94
439.14	3218.24
439.33	3208.87
439.52	3307.18
439.70	3300.16
439.89	3389.10
440.08	3363.35
440.26	3330.58
440.45	3314.20
440.63	3421.86
440.82	3459.31
441.01	3386.76
441.19	3463.99
441.38	3581.02
441.57	3454.63
441.75	3508.46
441.94	3578.68
442.12	3639.53
442.31	3618.47
442.50	3597.40
442.68	3695.71
442.87	3730.81
443.05	3627.83
443.24	3751.88
443.43	3695.71
443.61	3646.55
443.80	3784.65
443.98	3660.60
444.17	3496.76
444.35	3590.38
444.54	3651.24
444.73	3660.60
444.91	3660.60
445.10	3695.71
445.28	3672.30
445.47	3747.20
445.65	3651.24
445.84	3756.56
446.02	3833.80
446.21	3737.84
446.39	3637.19
446.58	3808.05
446.77	3681.66
446.95	3667.62
447.14	3758.90
447.32	3782.31
447.51	3768.26
447.69	3613.79
447.88	3669.96
448.06	3763.58
448.25	3716.77
448.43	3784.65
448.62	3808.05
448.80	3681.66
448.99	3763.58
449.17	3772.94
449.36	3845.50
449.54	3812.73
449.73	3918.06
449.91	4046.79
450.10	3960.19
450.28	4184.88
450.46	3974.23
450.65	3962.53
450.83	3943.80
451.02	3906.35
451.20	4091.26
451.39	3941.46
451.57	3995.29
451.76	3892.31
451.94	4182.54
452.13	4042.11
452.31	4023.38
452.49	3978.91
452.68	4128.70
452.86	4217.65
453.05	4051.47
453.23	4060.83
453.42	4138.07
453.60	4077.21
453.78	4208.28
453.97	4124.02
454.15	4245.73
454.34	4070.19
454.52	4238.71
454.70	4196.58
454.89	4203.60
455.07	4215.30
455.26	4187.22
455.44	4306.59
455.62	4318.29
455.81	4353.40
455.99	4306.59
456.17	4437.66
456.36	4168.49
456.54	4337.01
456.73	4531.28
456.91	4386.16
457.09	4418.93
457.28	4456.38
457.46	4465.74
457.64	4514.89
457.83	4383.82
458.01	4603.83
458.19	4596.81
458.38	4547.66
458.56	4496.17
458.74	4477.44
458.93	4676.39
459.11	4615.54
459.29	4538.30
459.48	4631.92
459.66	4690.43
459.84	4706.82
460.03	4699.80
460.21	4758.31
460.39	4856.61
460.57	4645.96
460.76	4704.48
460.94	4709.16
461.12	4788.74
461.31	4723.20
461.49	4741.93
461.67	4816.82
461.85	4830.87
462.04	4812.14
462.22	5132.79
462.40	4978.32
462.59	4919.81
462.77	4865.97
462.95	4685.75
463.13	4945.55
463.32	4800.44
463.50	5093.01
463.68	4901.08
463.86	4964.28
464.05	4978.32
464.23	4980.66
464.41	4847.25
464.59	4821.50
464.78	5043.85
464.96	5088.32
465.14	5013.43
465.32	5001.72
465.50	5025.13
465.69	5104.71
465.87	5085.98
466.05	5184.29
466.23	5135.14
466.41	5015.77
466.60	5039.17
466.78	4947.89
466.96	5008.75
467.14	5254.50
467.32	5172.58
467.51	5191.31
467.69	5088.32
467.87	5294.29
468.05	5343.44
468.23	5224.08
468.41	5188.97
468.60	5219.39
468.78	5177.26
468.96	5256.84
469.14	5331.74
469.32	5336.42
469.50	5350.46
469.69	5338.76
469.87	5451.11
470.05	5465.15
470.23	5338.76
470.41	5453.45
470.59	5514.30
470.77	5301.31
470.95	5523.66
471.14	5626.65
471.32	5380.89
471.50	5612.60
471.68	5579.84
471.86	5495.58
472.04	5607.92
472.22	5816.23
472.40	5710.91
472.58	5816.23
472.77	5626.65
472.95	5657.07
473.13	5834.96
473.31	5846.66
473.49	5870.06
473.67	5870.06
473.85	5909.85
474.03	6012.84
474.21	5989.43
474.39	6015.18
474.57	5867.72
474.75	5996.45
474.93	6174.33
475.12	6005.81
475.30	6214.12
475.48	6083.05
475.66	6235.19
475.84	6190.72
476.02	6181.35
476.20	6270.30
476.38	6445.84
476.56	6401.37
476.74	6471.58
476.92	6345.19
477.10	6310.08
477.28	6588.61
477.46	6651.80
477.64	6778.19
477.82	6675.21
478.00	6642.44
478.18	6654.14
478.36	6918.62
478.54	6862.45
478.72	6822.66
478.90	6668.19
479.08	7066.08
479.26	7138.63
479.44	7016.93
479.62	7155.02
479.80	7213.53
479.98	7096.50
480.16	7276.73
480.34	7466.31
480.52	7398.43
480.70	7520.14
480.88	7508.44
481.06	7403.11
481.24	7414.82
481.41	7611.42
481.59	7623.12
481.77	7815.05
481.95	7768.24
482.13	7880.58
482.31	7758.88
482.49	8222.30
482.67	7939.10
482.85	7875.90
483.03	8077.19
483.21	8170.81
483.39	7908.67
483.57	8252.73
483.74	8315.92
483.92	8379.12
484.10	8285.50
484.28	8629.56
484.46	8589.77
484.64	8774.67
484.82	8559.34
485.00	8772.33
485.18	8940.85
485.35	9100.00
485.53	8968.93
485.71	8992.34
485.89	9181.92
486.07	9184.26
486.25	9268.52
486.43	9144.47
486.61	9427.68
486.78	9350.44
486.96	9425.34
487.14	9635.99
487.32	9504.92
487.50	9628.96
487.68	9582.15
487.85	9865.36
488.03	9919.19
488.21	10040.90
488.39	9870.04
488.57	10230.48
488.75	9982.38
488.92	10207.08
489.10	10354.53
489.28	10466.88
489.46	10441.13
489.64	10452.83
489.81	10677.52
489.99	10604.97
490.17	10768.80
490.35	10855.40
490.53	10850.72
490.70	10967.75
490.88	10974.77
491.06	11035.63
491.24	11215.85
491.41	11037.97
491.59	11000.52
491.77	11365.64
491.95	11293.08
492.13	11428.84
492.30	11375.00
492.48	11384.37
492.66	11520.12
492.84	11573.95
493.01	11672.25
493.19	11688.64
493.37	11782.26
493.54	11709.70
493.72	11929.71
493.90	11840.77
494.08	11976.52
494.25	12156.74
494.43	12313.56
494.61	12580.38
494.79	12355.69
494.96	12168.45
495.14	12362.71
495.32	12500.80
495.49	12437.61
495.67	12748.90
495.85	12704.43
496.02	12655.28
496.20	12774.64
496.38	12699.75
496.55	12929.12
496.73	12898.69
496.91	13088.28
497.09	12856.56
497.26	13069.55
497.44	13027.42
497.62	13266.16
497.79	13371.48
497.97	13448.72
498.14	13734.26
498.32	13415.95
498.50	13502.55
498.67	13774.05
498.85	13650.00
499.03	13722.56
499.20	13855.97
499.38	13923.85
499.56	13886.40
499.73	14178.97
499.91	14031.51
500.08	14146.20
500.26	13877.04
500.44	14190.67
500.61	14541.75
500.79	14347.48
500.97	14572.18
501.14	14626.01
501.32	14682.18
501.49	14469.19
501.67	14382.59
501.84	14633.03
502.02	14466.85
502.20	14630.69
502.37	14815.59
502.55	14494.94
502.72	14537.07
502.90	14712.61
503.07	14827.29
503.25	14876.44
503.43	14750.06
503.60	15030.92
503.78	15040.28
503.95	15161.99
504.13	14995.81
504.30	15101.14
504.48	15061.35
504.65	15246.25
504.83	15384.34
505.01	15279.02
505.18	15297.74
505.36	15590.31
505.53	15442.85
505.71	15477.96
505.88	15861.81
506.06	15590.31
506.23	15700.31
506.41	15555.20
506.58	15737.76
506.76	15648.82
506.93	15681.59
507.11	15796.28
507.28	16032.67
507.46	16009.26
507.63	15974.16
507.81	16011.60
507.98	15836.06
508.16	15892.24
508.33	16236.30
508.50	16081.82
508.68	16486.73
508.85	16688.02
509.03	16676.32
509.20	16311.19
509.38	16346.30
509.55	16507.80
509.73	16896.33
509.90	16725.47
510.08	16716.11
510.25	16769.94
510.42	16863.56
510.60	16652.91
510.77	16662.27
510.95	16772.28
511.12	16849.52
511.30	17118.68
511.47	16936.12
511.64	17158.47
511.82	17219.32
511.99	17067.19
512.17	17062.51
512.34	17254.43
512.51	17291.88
512.69	17633.60
512.86	17504.87
513.04	17516.57
513.21	17434.65
513.38	17790.41
513.56	17455.72
513.73	17628.92
513.90	17743.60
514.08	17530.61
514.25	17795.09
514.43	17750.62
514.60	17818.50
514.77	17905.10
514.95	18375.55
515.12	17736.58
515.29	17877.01
515.47	18167.24
515.64	18478.53
515.81	18106.38
515.99	18136.81
516.16	17727.22
516.33	18277.24
516.51	18424.70
516.68	18345.12
516.85	18600.24
517.03	18499.59
517.20	18586.19
517.37	18319.37
517.54	18618.96
517.72	18792.16
517.89	18202.35
518.06	18394.27
518.24	18640.03
518.41	18408.31
518.58	18520.66
518.75	18562.79
518.93	18429.38
519.10	18953.66
519.27	18789.82
519.45	18401.29
519.62	18988.77
519.79	18867.06
519.96	19124.52
520.14	18808.54
520.31	18958.34
520.48	19192.39
520.65	18883.44
520.83	19452.19
521.00	19344.53
521.17	19040.26
521.34	19164.31
521.52	19089.41
521.69	19374.95
521.86	19426.45
522.03	19669.86
522.20	19428.79
522.38	19817.32
522.55	19707.31
522.72	19782.21
522.89	19924.98
523.07	19929.66
523.24	19681.56
523.41	19513.05
523.58	19597.31
523.75	19976.47
523.92	19971.79
524.10	19988.18
524.27	20137.97
524.44	19922.64
524.61	19941.36
524.78	20173.08
524.96	19936.68
525.13	20346.28
525.30	20273.72
525.47	20336.91
525.64	20257.34
525.81	20049.03
525.98	20444.58
526.16	20147.33
526.33	20180.10
526.50	20746.51
526.67	20292.44
526.84	20599.05
527.01	20287.76
527.18	20706.72
527.36	20460.96
527.53	20498.41
527.70	20882.26
527.87	20603.74
528.04	20795.66
528.21	20931.41
528.38	20568.63
528.55	20816.72
528.72	20638.84
528.89	20945.45
529.07	20650.55
529.24	20727.78
529.41	20933.75
529.58	21315.26
529.75	20805.02
529.92	21046.10
530.09	21092.91
530.26	20886.94
530.43	21022.69
530.60	20844.81
530.77	21226.32
530.94	21404.20
531.11	21198.23
531.28	21289.51
531.46	20929.07
531.63	21249.72
531.80	21111.63
531.97	21287.17
532.14	21577.40
532.31	21359.73
532.48	21710.81
532.65	21432.29
532.82	21523.57
532.99	21345.69
533.16	21273.13
533.33	21537.61
533.50	21900.39
533.67	21874.65
533.84	21511.86
534.01	21598.46
534.18	21633.57
534.35	21895.71
534.52	21968.27
534.69	21844.22
534.86	21771.66
535.03	21673.36
535.20	21692.08
535.37	21982.31
535.54	22347.44
535.71	22022.10
535.88	21881.67
536.05	22017.42
536.22	22270.20
536.38	21865.28
536.55	22068.91
536.72	22478.50
536.89	22244.45
537.06	22396.59
537.23	22445.74
537.40	22221.05
537.57	22291.26
537.74	22410.63
537.91	22412.97
538.08	22405.95
538.25	22434.03
538.42	22810.86
538.59	22728.94
538.75	22726.60
538.92	22417.65
539.09	22443.40
539.26	22642.34
539.43	22450.42
539.60	22766.39
539.77	22803.84
539.94	22965.34
540.11	22948.95
540.28	22927.89
540.44	22944.27
540.61	22920.87
540.78	23187.69
540.95	23241.52
541.12	23133.86
541.29	23239.18
541.46	23520.04
541.62	23473.23
541.79	23604.30
541.96	23342.16
542.13	23337.48
542.30	23314.08
542.47	23344.50
542.63	23557.49
542.80	23426.42
542.97	23658.14
543.14	23672.18
543.31	23803.25
543.48	23346.84
543.64	24109.86
543.81	24102.84
543.98	23761.12
544.15	23934.32
544.32	24187.10
544.48	23702.61
544.65	23765.80
544.82	23831.33
544.99	24191.78
545.16	24016.24
545.32	24236.25
545.49	24390.72
545.66	24690.31
545.83	25076.50
546.00	24748.82
546.16	24683.29
546.33	24364.98
546.50	24379.02
546.67	24339.23
546.83	23887.51
547.00	24126.24
547.17	23679.20
547.34	23969.43
547.50	23976.45
547.67	24098.16
547.84	23749.42
548.00	24582.65
548.17	24301.78
548.34	24250.29
548.51	24023.26
548.67	24393.06
548.84	24369.66
549.01	24051.34
549.18	24025.60
549.34	24126.24
549.51	24381.36
549.68	24304.12
549.84	24318.17
550.01	24212.84
550.18	24041.98
550.34	24077.09
550.51	24416.47
550.68	24458.60
550.84	24236.25
551.01	24322.85
551.18	24041.98
551.34	24058.37
551.51	24395.40
551.68	24362.64
551.84	24091.13
552.01	24208.16
552.18	24538.18
552.34	24636.48
552.51	24350.93
552.68	24460.94
552.84	24519.45
553.01	24737.12
553.18	24603.71
553.34	24856.49
553.51	24376.68
553.67	24610.73
553.84	24800.32
554.01	25025.01
554.17	25020.33
554.34	24418.81
554.51	24519.45
554.67	24755.85
554.84	24837.76
555.00	24414.13
555.17	24563.92
555.33	24737.12
555.50	24549.88
555.67	24547.54
555.83	24664.57
556.00	24884.58
556.16	25097.56
556.33	25280.13
556.50	24835.42
556.66	24964.15
556.83	24907.98
556.99	25090.54
557.16	25017.99
557.32	24751.17
557.49	24985.22
557.65	24982.88
557.82	24830.74
557.98	24659.88
558.15	24989.90
558.32	24690.31
558.48	24828.40
558.65	25284.81
558.81	25036.71
558.98	25273.10
559.14	25123.31
559.31	25116.29
559.47	24980.54
559.64	25008.62
559.80	25111.61
559.97	25120.97
560.13	25055.43
560.30	24924.36
560.46	25113.95
560.63	25355.02
560.79	25413.54
560.96	25338.64
561.12	25394.81
561.29	25160.76
561.45	25228.63
561.61	25263.74
561.78	25228.63
561.94	25556.31
562.11	25434.60
562.27	25340.98
562.44	25572.69
562.60	25291.83
562.77	25214.59
562.93	25401.83
563.10	25238.00
563.26	24975.86
563.42	25439.28
563.59	25324.60
563.75	25558.65
563.92	25429.92
564.08	25331.62
564.24	25598.44
564.41	25252.04
564.57	25465.03
564.74	25247.36
564.90	25296.51
565.07	25525.88
565.23	25469.71
565.39	25663.97
565.56	25579.71
565.72	25214.59
565.88	25556.31
566.05	25287.15
566.21	25219.27
566.38	25200.55
566.54	25572.69
566.70	25734.19
566.87	26012.71
567.03	25886.32
567.19	25631.21
567.36	25373.75
567.52	25518.86
567.68	25734.19
567.85	25542.27
568.01	25509.50
568.17	25582.06
568.34	25408.86
568.50	25385.45
568.66	25560.99
568.83	25411.20
568.99	25937.82
569.15	25446.30
569.32	25647.59
569.48	25348.00
569.64	25766.96
569.81	25804.41
569.97	25659.29
570.13	25516.52
570.30	25113.95
570.46	25795.04
570.62	25493.12
570.78	25483.75
570.95	25439.28
571.11	25898.03
571.27	25448.64
571.43	25654.61
571.60	25865.26
571.76	25708.44
571.92	25717.81
572.09	25741.21
572.25	25500.14
572.41	25755.26
572.57	25771.64
572.74	25874.62
572.90	25364.39
573.06	26008.03
573.22	25596.10
573.38	26008.03
573.55	25755.26
573.71	25663.97
573.87	25926.11
574.03	25731.85
574.20	25745.89
574.36	25282.47
574.52	25806.75
574.68	25837.17
574.84	25993.99
575.01	25972.92
575.17	26064.21
575.33	25839.51
575.49	25858.24
575.65	25888.67
575.82	26064.21
575.98	26054.84
576.14	25970.58
576.30	26174.21
576.46	26057.18
576.62	26438.69
576.79	25788.02
576.95	25778.66
577.11	25820.79
577.27	26375.50
577.43	25883.98
577.59	26082.93
577.75	26260.81
577.92	25708.44
578.08	25886.32
578.24	25895.69
578.40	25678.02
578.56	26141.44
578.72	26225.70
578.88	26078.25
579.04	26342.73
579.21	25781.00
579.37	25898.03
579.53	26073.57
579.69	25937.82
579.85	25654.61
580.01	26059.52
580.17	26019.74
580.33	26300.60
580.49	26174.21
580.65	26141.44
580.82	25912.07
580.98	25853.56
581.14	25809.09
581.30	26295.92
581.46	25773.98
581.62	26139.10
581.78	26064.21
581.94	26066.55
582.10	25563.33
582.26	26057.18
582.42	25853.56
582.58	25930.80
582.74	25699.08
582.90	25958.88
583.06	26199.96
583.22	26054.84
583.38	26235.06
583.54	26005.69
583.70	26534.65
583.86	25893.35
584.02	25949.52
584.18	25921.43
584.34	25795.04
584.50	26389.54
584.66	26174.21
584.82	26150.81
584.98	26192.94
585.14	25937.82
585.30	25977.61
585.46	25811.43
585.62	25827.81
585.78	26019.74
585.94	25722.49
586.10	26450.39
586.26	26150.81
586.42	26082.93
586.58	26279.54
586.74	25982.29
586.90	25804.41
587.06	25998.67
587.22	26291.24
587.38	26068.89
587.54	26319.32
587.70	26707.85
587.86	26539.33
588.02	25965.90
588.18	26089.95
588.34	26300.60
588.49	26045.48
588.65	25902.71
588.81	25984.63
588.97	25825.47
589.13	25834.83
589.29	26043.14
589.45	26302.94
589.61	26340.39
589.77	26183.57
589.93	26038.46
590.08	26340.39
590.24	26195.28
590.40	26340.39
590.56	26204.64
590.72	26324.01
590.88	25914.41
591.04	26324.01
591.20	26778.07
591.35	26522.95
591.51	26761.69
591.67	26476.14
591.83	26888.07
591.99	26405.92
592.15	26185.91
592.31	26005.69
592.46	25909.73
592.62	26675.09
592.78	26382.52
592.94	26536.99
593.10	26363.79
593.26	26494.86
593.41	26164.85
593.57	26366.13
593.73	26602.53
593.89	26485.50
594.05	25886.32
594.20	26064.21
594.36	25947.18
594.52	26277.19
594.68	26244.43
594.84	26291.24
594.99	26544.02
595.15	26169.53
595.31	26670.40
595.47	26302.94
595.62	26359.11
595.78	26487.84
595.94	26120.38
596.10	26412.95
596.25	26466.78
596.41	26473.80
596.57	26246.77
596.73	26445.71
596.88	26089.95
597.04	26485.50
597.20	26064.21
597.36	26632.96
597.51	26536.99
597.67	26139.10
597.83	26415.29
597.99	26579.12
598.14	26429.33
598.30	26464.44
598.46	26242.09
598.61	26476.14
598.77	26576.78
598.93	26501.89
599.09	26480.82
599.24	26759.34
599.40	26298.26
599.56	26972.33
599.71	26546.36
599.87	26583.80
600.03	26146.12
600.18	26377.84
600.34	26293.58
600.50	26338.05
600.65	26335.71
600.81	26501.89
600.97	26560.40
601.12	26469.12
601.28	26162.51
601.44	26569.76
601.59	26473.80
601.75	26532.31
601.91	26485.50
602.06	26246.77
602.22	26375.50
602.37	26419.97
602.53	26377.84
602.69	26560.40
602.84	26260.81
603.00	26167.19
603.16	26567.42
603.31	26251.45
603.47	26286.56
603.62	26125.06
603.78	26300.60
603.94	26291.24
604.09	26031.44
604.25	26689.13
604.40	26366.13
604.56	26253.79
604.71	26541.68
604.87	26441.03
605.03	26410.60
605.18	26300.60
605.34	26132.08
605.49	26338.05
605.65	26387.20
605.80	26251.45
605.96	26581.46
606.12	26398.90
606.27	26696.15
606.43	26389.54
606.58	26352.09
606.74	26087.61
606.89	26354.43
607.05	26017.40
607.20	25977.61
607.36	25834.83
607.51	26288.90
607.67	25865.26
607.82	26113.36
607.98	25954.20
608.13	26246.77
608.29	26181.23
608.44	26286.56
608.60	25844.20
608.75	26380.18
608.91	26466.78
609.06	26148.46
609.22	26361.45
609.37	25965.90
609.53	26328.69
609.68	26267.83
609.84	26085.27
609.99	26443.37
610.15	26221.02
610.30	26216.34
610.46	26785.09
610.61	26934.88
610.76	26757.00
610.92	26974.67
611.07	27412.35
611.23	27241.50
611.38	27384.27
611.54	27218.09
611.69	27264.90
611.84	27552.79
612.00	26764.03
612.15	26906.80
612.31	26960.63
612.46	26434.01
612.62	26431.67
612.77	26380.18
612.92	26242.09
613.08	26237.41
613.23	26307.62
613.39	26408.26
613.54	25900.37
613.69	26153.15
613.85	25876.96
614.00	26244.43
614.15	26134.42
614.31	26136.76
614.46	26426.99
614.62	25912.07
614.77	25867.60
614.92	26265.49
615.08	25846.54
615.23	25764.62
615.38	25816.11
615.54	25413.54
615.69	25827.81
615.84	25689.72
616.00	25748.23
616.15	25666.31
616.30	25795.04
616.46	25745.89
616.61	25593.76
616.76	25628.87
616.92	25270.76
617.07	25722.49
617.22	25500.14
617.37	25364.39
617.53	25486.09
617.68	25490.77
617.83	25572.69
617.99	25694.40
618.14	25465.03
618.29	25149.06
618.45	25422.90
618.60	25207.57
618.75	25081.18
618.90	25287.15
619.06	25329.28
619.21	25443.96
619.36	25247.36
619.51	25139.69
619.67	25188.85
619.82	25348.00
619.97	25465.03
620.12	25390.13
620.28	25378.43
620.43	25568.01
620.58	25556.31
620.73	25113.95
620.89	25380.77
621.04	25404.17
621.19	24790.95
621.34	25184.16
621.49	25029.69
621.65	25247.36
621.80	25362.04
621.95	25249.70
622.10	25504.82
622.25	25104.59
622.41	25123.31
622.56	24893.94
622.71	25209.91
622.86	25202.89
623.01	24987.56
623.16	24643.50
623.32	24549.88
623.47	24627.12
623.62	24706.70
623.77	25139.69
623.92	25188.85
624.07	24781.59
624.23	25092.88
624.38	25319.92
624.53	25317.57
624.68	25064.80
624.83	24622.44
624.98	24730.10
625.13	24395.40
625.29	24355.61
625.44	24669.25
625.59	24608.39
625.74	24657.54
625.89	24458.60
626.04	24594.35
626.19	24601.37
626.34	24790.95
626.49	23988.15
626.65	24402.43
626.80	24545.20
626.95	24095.82
627.10	24231.57
627.25	24273.70
627.40	24189.44
627.55	24463.28
627.70	24446.90
627.85	24517.11
628.00	24285.40
628.15	24336.89
628.30	24175.39
628.45	24491.37
628.60	24133.26
628.76	24182.42
628.91	24107.52
629.06	24018.58
629.21	24383.70
629.36	24102.84
629.51	24025.60
629.66	24196.46
629.81	24135.60
629.96	24137.94
630.11	24133.26
630.26	24194.12
630.41	24343.91
630.56	24215.18
630.71	24388.38
630.86	24650.52
631.01	24318.17
631.16	24233.91
631.31	24201.14
631.46	23779.84
631.61	24067.73
631.76	23796.23
631.91	23922.62
632.06	23814.95
632.21	24020.92
632.36	24191.78
632.51	23503.66
632.66	23852.40
632.81	23407.70
632.96	23929.64
633.10	23761.12
633.25	23707.29
633.40	23704.95
633.55	23634.73
633.70	23536.43
633.85	23625.37
634.00	23475.57
634.15	23592.60
634.30	23332.80
634.45	23529.41
634.60	23608.98
634.75	23321.10
634.90	23768.14
635.05	23658.14
635.19	23183.01
635.34	23819.63
635.49	23927.30
635.64	23573.88
635.79	23491.96
635.94	23419.40
636.09	23466.21
636.24	23159.60
636.39	23358.55
636.53	23578.56
636.68	23403.02
636.83	23566.85
636.98	23503.66
637.13	23281.31
637.28	23260.24
637.43	23274.29
637.57	23197.05
637.72	23400.68
637.87	22979.38
638.02	23154.92
638.17	23260.24
638.32	22890.44
638.46	23080.02
638.61	23070.66
638.76	23208.75
638.91	23197.05
639.06	22986.40
639.20	23360.89
639.35	23360.89
639.50	22890.44
639.65	22995.76
639.80	23009.81
639.94	22913.84
640.09	22836.61
640.24	23278.97
640.39	22766.39
640.54	22899.80
640.68	23096.41
640.83	23007.47
640.98	22824.90
641.13	23065.98
641.27	23089.38
641.42	22618.94
641.57	22647.02
641.72	22815.54
641.86	22607.23
642.01	22391.91
642.16	22817.88
642.31	22867.03
642.45	22508.93
642.60	22490.21
642.75	22834.27
642.90	22838.95
643.04	22621.28
643.19	22759.37
643.34	22703.20
643.48	23089.38
643.63	22672.77
643.78	22766.39
643.93	22492.55
644.07	22789.80
644.22	22333.39
644.37	22216.36
644.51	22647.02
644.66	22487.87
644.81	22579.15
644.95	22637.66
645.10	22792.14
645.25	22836.61
645.39	22562.76
645.54	22745.33
645.69	22260.84
645.83	22628.30
645.98	22202.32
646.13	22689.15
646.27	22689.15
646.42	22508.93
646.57	22146.15
646.71	22349.78
646.86	22338.07
647.00	22342.75
647.15	22143.81
647.30	22342.75
647.44	22050.19
647.59	22553.40
647.74	22246.79
647.88	22450.42
648.03	22122.74
648.17	22082.95
648.32	21891.03
648.47	22026.78
648.61	22277.22
648.76	22099.34
648.90	22321.69
649.05	22057.21
649.20	22340.41
649.34	22068.91
649.49	22209.34
649.63	22052.53
649.78	22288.92
649.92	21898.05
650.07	22370.84
650.21	21994.01
650.36	22157.85
650.51	22026.78
650.65	22183.60
650.80	21764.64
650.94	22237.43
651.09	21664.00
651.23	22089.98
651.38	21795.07
651.52	21975.29
651.67	21926.14
651.81	21930.82
651.96	21806.77
652.10	21575.06
652.25	21666.34
652.39	21624.21
652.54	21872.31
652.68	21699.11
652.83	21408.88
652.97	22085.30
653.12	21476.76
653.26	21544.63
653.41	21696.77
653.55	21912.10
653.70	21696.77
653.84	21834.86
653.99	21628.89
654.13	21432.29
654.27	21518.89
654.42	21600.80
654.56	21429.94
654.71	21336.32
654.85	21429.94
655.00	21689.74
655.14	21493.14
655.29	21394.84
655.43	21853.58
655.57	21177.17
655.72	21111.63
655.86	21331.64
656.01	21137.38
656.15	21312.92
656.30	21064.82
656.44	21362.07
656.58	21303.56
656.73	21275.47
656.87	21364.41
657.01	21495.48
657.16	21341.00
657.30	21373.77
657.45	21338.66
657.59	21245.04
657.73	21235.68
657.88	21064.82
658.02	21167.80
658.16	21076.52
658.31	21359.73
658.45	21434.63
658.60	21006.31
658.74	20828.43
658.88	20959.50
659.03	20999.29
659.17	21116.31
659.31	20718.42
659.46	20863.54
659.60	20673.95
659.74	20875.24
659.89	20734.81
660.03	20580.33
660.17	20641.18
660.32	20374.36
660.46	20840.13
660.60	20526.50
660.74	20704.38
660.89	20781.62
661.03	20294.79
661.17	20460.96
661.32	20713.74
661.46	20659.91
661.60	20746.51
661.74	20327.55
661.89	20353.30
662.03	20587.35
662.17	20240.95
662.31	20322.87
662.46	20255.00
662.60	19901.58
662.74	20205.84
662.88	20360.32
663.03	20343.94
663.17	20620.12
663.31	20130.95
663.45	20505.43
663.60	20224.57
663.74	20093.50
663.88	19782.21
664.02	20123.93
664.17	20002.22
664.31	19735.40
664.45	20013.92
664.59	19887.53
664.73	19880.51
664.88	19836.04
665.02	20053.71
665.16	19726.04
665.30	19744.76
665.44	20049.03
665.59	19332.82
665.73	19894.55
665.87	19527.09
666.01	19742.42
666.15	19873.49
666.29	19665.18
666.44	19714.33
666.58	19440.49
666.72	19145.58
666.86	19234.52
667.00	19351.55
667.14	19267.29
667.28	19173.67
667.43	19234.52
667.57	19309.42
667.71	19267.29
667.85	19353.89
667.99	19365.59
668.13	19328.14
668.27	18857.70
668.41	19316.44
668.56	18869.40
668.70	18972.38
668.84	19042.60
668.98	18778.12
669.12	19054.30
669.26	19058.98
669.40	18824.93
669.54	19000.47
669.68	18611.94
669.82	18829.61
669.96	18778.12
670.10	18845.99
670.25	18787.48
670.39	18984.09
670.53	18368.52
670.67	18541.72
670.81	18633.00
670.95	18794.50
671.09	18530.02
671.23	18218.73
671.37	18452.78
671.51	18663.43
671.65	18443.42
671.79	18349.80
671.93	18228.09
672.07	18525.34
672.21	18356.82
672.35	18394.27
672.49	17893.40
672.63	18253.84
672.77	18246.82
672.91	18178.94
673.05	17748.28
673.19	17764.67
673.33	17673.39
673.47	17813.82
673.61	17921.48
673.75	17722.54
673.89	17759.98
674.03	17774.03
674.17	17682.75
674.31	17640.62
674.45	17956.59
674.59	17717.86
674.73	17537.63
674.87	17811.48
675.01	17322.30
675.15	17301.24
675.29	17556.36
675.43	17479.12
675.56	17554.02
675.70	17591.47
675.84	17352.73
675.98	16723.13
676.12	17326.99
676.26	17270.81
676.40	17125.70
676.54	17083.57
676.68	17018.04
676.82	16615.46
676.96	17013.35
677.10	16980.59
677.23	17003.99
677.37	17074.21
677.51	16905.69
677.65	16863.56
677.79	16592.06
677.93	16812.07
678.07	16580.36
678.21	16170.76
678.34	16285.45
678.48	16203.53
678.62	16313.53
678.76	16336.94
678.90	15995.22
679.04	16255.02
679.18	15840.75
679.31	15744.78
679.45	15929.69
679.59	16140.33
679.73	15896.92
679.87	16093.52
680.00	15857.13
680.14	15672.23
680.28	15487.32
680.42	15611.37
680.56	15529.45
680.70	15421.79
680.83	15248.59
680.97	15445.20
681.11	15316.47
681.25	15229.87
681.39	15374.98
681.52	15503.71
681.66	15466.26
681.80	15562.22
681.94	15454.56
682.07	15316.47
682.21	15176.03
682.35	15241.57
682.49	15056.67
682.62	15161.99
682.76	15136.24
682.90	14878.79
683.04	14799.21
683.17	14796.87
683.31	14679.84
683.45	14661.12
683.59	14672.82
683.72	14530.05
683.86	14576.86
684.00	14644.73
684.13	14618.99
684.27	14270.25
684.41	14239.82
684.55	14300.67
684.68	14125.13
684.82	14368.55
684.96	14174.28
685.09	14307.69
685.23	14298.33
685.37	14122.79
685.50	14097.05
685.64	14040.87
685.78	13830.23
685.91	13923.85
686.05	14033.85
686.19	13935.55
686.32	13942.57
686.46	13650.00
686.60	13659.37
686.73	13909.80
686.87	13680.43
687.01	13603.19
687.14	13626.60
687.28	13518.93
687.42	13200.62
687.55	13420.63
687.69	13453.40
687.82	13259.13
687.96	13195.94
688.10	13441.70
688.23	13362.12
688.37	12938.48
688.50	13200.62
688.64	13048.49
688.78	12858.90
688.91	13202.96
689.05	13245.09
689.18	12802.73
689.32	12809.75
689.46	12908.05
689.59	12781.67
689.73	12592.08
689.86	12519.53
690.00	12774.64
690.13	12659.96
690.27	12416.54
690.41	12613.15
690.54	12107.59
690.68	12301.86
690.81	12252.70
690.95	12360.37
691.08	12215.26
691.22	12271.43
691.35	12313.56
691.49	12233.98
691.62	12177.81
691.76	12044.40
691.89	12025.67
692.03	12025.67
692.16	11939.07
692.30	11791.62
692.43	11779.92
692.57	11726.08
692.70	11674.59
692.84	11854.81
692.97	11826.73
693.11	11503.73
693.24	11653.53
693.38	11510.75
693.51	11323.51
693.65	11405.43
693.78	11372.66
693.92	11428.84
694.05	11538.84
694.19	11309.47
694.32	11466.28
694.45	11475.65
694.59	10944.34
694.72	10998.18
694.86	10913.92
694.99	10920.94
695.13	10998.18
695.26	10714.97
695.39	10897.53
695.53	10803.91
695.66	10644.76
695.80	10614.33
695.93	10609.65
696.07	10644.76
696.20	10719.65
696.33	10424.75
696.47	10607.31
696.60	10452.83
696.73	10403.68
696.87	10307.72
697.00	10462.19
697.14	10520.71
697.27	10202.40
697.40	10125.16
697.54	10113.45
697.67	9944.94
697.80	10038.56
697.94	10101.75
698.07	10204.74
698.21	10090.05
698.34	9940.26
698.47	10003.45
698.61	9605.56
698.74	9886.42
698.87	9951.96
699.01	9902.81
699.14	9668.75
699.27	9778.76
699.40	9811.53
699.54	9753.01
699.67	9884.08
699.80	9628.96
699.94	9275.54
700.07	9430.02
700.20	9408.95
700.34	9430.02
700.47	9291.93
700.60	9233.41
700.73	9137.45
700.87	9263.84
701.00	9247.46
701.13	9268.52
701.26	9205.33
701.40	9048.51
701.53	8975.95
701.66	9156.18
701.79	9289.59
701.93	9092.98
702.06	8997.02
702.19	8879.99
702.32	8884.67
702.46	8781.69
702.59	8695.09
702.72	8753.60
702.85	8479.76
702.99	8606.15
703.12	8566.36
703.25	8395.50
703.38	8414.23
703.51	8517.21
703.65	8629.56
703.78	8446.99
703.91	8435.29
704.04	8496.14
704.17	8505.51
704.31	8414.23
704.44	8084.21
704.57	8418.91
704.70	8095.91
704.83	7882.92
704.96	7918.03
705.10	8084.21
705.23	8140.38
>>>>>End Processed Spectral Data<<<<<
