SpectraSuite Data File
++++++++++++++++++++++++++++++++++++
Date: Thu Oct 24 13:21:17 EDT 2013
User: stostad
Dark Spectrum Present: No
Reference Spectrum Present: No
Number of Sampled Component Spectra: 1
Spectrometers: USB2+H05261
Integration Time (usec): 100000 (USB2+H05261)
Spectra Averaged: 1 (USB2+H05261)
Boxcar Smoothing: 0 (USB2+H05261)
Correct for Electrical Dark: No (USB2+H05261)
Strobe/Lamp Enabled: No (USB2+H05261)
Correct for Detector Non-linearity: No (USB2+H05261)
Correct for Stray Light: No (USB2+H05261)
Number of Pixels in Processed Spectrum: 2048
>>>>>Begin Processed Spectral Data<<<<<
365.73	486.83
365.92	486.83
366.12	486.83
366.32	517.26
366.52	482.15
366.72	479.81
366.91	500.87
367.11	456.40
367.31	454.06
367.51	454.06
367.70	451.72
367.90	423.64
368.10	440.02
368.30	451.72
368.49	540.66
368.69	493.85
368.89	526.62
369.09	491.51
369.28	533.64
369.48	545.34
369.68	440.02
369.87	479.81
370.07	463.43
370.27	585.13
370.47	610.88
370.66	795.78
370.86	751.31
371.06	779.40
371.25	784.08
371.45	788.76
371.65	833.23
371.84	830.89
372.04	760.67
372.24	917.49
372.44	903.45
372.63	912.81
372.83	774.72
373.03	884.72
373.22	931.53
373.42	926.85
373.62	915.15
373.81	887.06
374.01	891.74
374.21	915.15
374.40	894.08
374.60	947.92
374.79	938.55
374.99	887.06
375.19	903.45
375.38	954.94
375.58	903.45
375.78	966.64
375.97	1013.45
376.17	983.02
376.37	882.38
376.56	978.34
376.76	1025.15
376.95	884.72
377.15	898.77
377.35	940.90
377.54	964.30
377.74	896.43
377.93	985.37
378.13	985.37
378.33	1004.09
378.52	903.45
378.72	1041.54
378.91	1027.50
379.11	964.30
379.31	980.68
379.50	976.00
379.70	999.41
379.89	1062.60
380.09	978.34
380.28	1013.45
380.48	1039.20
380.68	966.64
380.87	1015.79
381.07	978.34
381.26	1104.73
381.46	1081.33
381.65	1004.09
381.85	1041.54
382.04	1111.75
382.24	1013.45
382.43	1022.81
382.63	1022.81
382.83	1006.43
383.02	1076.65
383.22	1053.24
383.41	1062.60
383.61	1132.82
383.80	1114.10
384.00	1086.01
384.19	1151.54
384.39	1086.01
384.58	1102.39
384.78	1050.90
384.97	1055.58
385.17	1102.39
385.36	1165.59
385.56	1036.86
385.75	1219.42
385.95	1153.88
386.14	1086.01
386.34	1088.35
386.53	1104.73
386.72	1130.48
386.92	1142.18
387.11	1093.03
387.31	1193.67
387.50	1076.65
387.70	1163.25
387.89	1139.84
388.09	1228.78
388.28	1095.37
388.48	1179.63
388.67	1128.14
388.86	1191.33
389.06	1242.82
389.25	1188.99
389.45	1228.78
389.64	1240.48
389.84	1266.23
390.03	1181.97
390.22	1172.61
390.42	1172.61
390.61	1158.57
390.81	1252.19
391.00	1219.42
391.19	1221.76
391.39	1268.57
391.58	1315.38
391.78	1308.36
391.97	1299.00
392.16	1249.85
392.36	1299.00
392.55	1369.21
392.75	1439.43
392.94	1387.94
393.13	1315.38
393.33	1409.00
393.52	1289.64
393.71	1352.83
393.91	1327.08
394.10	1324.74
394.29	1364.53
394.49	1387.94
394.68	1469.86
394.88	1308.36
395.07	1409.00
395.26	1448.79
395.46	1357.51
395.65	1453.47
395.84	1413.68
396.04	1453.47
396.23	1406.66
396.42	1430.07
396.62	1441.77
396.81	1514.33
397.00	1444.11
397.19	1376.24
397.39	1502.62
397.58	1516.67
397.77	1488.58
397.97	1530.71
398.16	1523.69
398.35	1488.58
398.55	1490.92
398.74	1556.46
398.93	1619.65
399.12	1537.73
399.32	1483.90
399.51	1511.99
399.70	1666.46
399.90	1596.25
400.09	1570.50
400.28	1661.78
400.47	1572.84
400.67	1708.59
400.86	1689.87
401.05	1607.95
401.24	1689.87
401.44	1647.74
401.63	1748.38
401.82	1678.16
402.01	1685.19
402.21	1699.23
402.40	1757.74
402.59	1741.36
402.78	1827.96
402.97	1783.49
403.17	1776.47
403.36	1631.35
403.55	1769.44
403.74	1900.52
403.93	1762.42
404.13	1839.66
404.32	1839.66
404.51	1888.81
404.70	1856.04
404.89	1853.70
405.09	1923.92
405.28	1879.45
405.47	1867.75
405.66	1830.30
405.85	1933.28
406.05	1930.94
406.24	1900.52
406.43	1984.77
406.62	2052.65
406.81	2012.86
407.00	2054.99
407.20	2010.52
407.39	2001.16
407.58	2045.63
407.77	2050.31
407.96	2118.18
408.15	2047.97
408.34	2122.87
408.54	2125.21
408.73	2073.71
408.92	2139.25
409.11	2221.17
409.30	2183.72
409.49	2155.63
409.68	2111.16
409.87	2120.53
410.07	2235.21
410.26	2314.79
410.45	2251.60
410.64	2209.47
410.83	2375.64
411.02	2298.41
411.21	2392.03
411.40	2260.96
411.59	2338.20
411.78	2319.47
411.98	2338.20
412.17	2349.90
412.36	2401.39
412.55	2368.62
412.74	2581.61
412.93	2487.99
413.12	2504.37
413.31	2590.97
413.50	2462.24
413.69	2518.42
413.88	2626.08
414.07	2623.74
414.26	2532.46
414.45	2654.17
414.64	2595.65
414.83	2630.76
415.02	2623.74
415.22	2752.47
415.41	2740.77
415.60	2780.56
415.79	2855.45
415.98	2782.90
416.17	2869.50
416.36	2850.77
416.55	2902.26
416.74	2820.35
416.93	2867.16
417.12	2888.22
417.31	2839.07
417.50	2815.66
417.69	3054.40
417.88	2981.84
418.07	3056.74
418.26	3030.99
418.45	2930.35
418.64	3136.32
418.83	3045.04
419.02	3005.25
419.21	3133.98
419.39	3133.98
419.58	3159.72
419.77	3232.28
419.96	3192.49
420.15	3255.69
420.34	3173.77
420.53	3180.79
420.72	3206.53
420.91	3180.79
421.10	3269.73
421.29	3342.28
421.48	3243.98
421.67	3368.03
421.86	3382.07
422.05	3286.11
422.24	3346.97
422.43	3353.99
422.61	3344.63
422.80	3398.46
422.99	3356.33
423.18	3365.69
423.37	3482.72
423.56	3421.86
423.75	3344.63
423.94	3265.05
424.13	3143.34
424.32	3194.83
424.50	3260.37
424.69	3459.31
424.88	3382.07
425.07	3236.96
425.26	3251.00
425.45	3365.69
425.64	3424.20
425.83	3456.97
426.01	3449.95
426.20	3375.05
426.39	3377.39
426.58	3449.95
426.77	3447.61
426.96	3520.17
427.15	3471.01
427.33	3571.66
427.52	3543.57
427.71	3431.23
427.90	3393.78
428.09	3583.36
428.28	3667.62
428.46	3784.65
428.65	3641.87
428.84	3644.21
429.03	3648.90
429.22	3630.17
429.40	3700.39
429.59	3651.24
429.78	3669.96
429.97	3620.81
430.16	3721.45
430.34	3702.73
430.53	3691.02
430.72	3810.39
430.91	3868.91
431.10	3756.56
431.28	3824.44
431.47	3878.27
431.66	3971.89
431.85	3939.12
432.03	3983.59
432.22	3971.89
432.41	4002.32
432.60	3978.91
432.79	4133.39
432.97	4002.32
433.16	4121.68
433.35	3875.93
433.54	4021.04
433.72	4126.36
433.91	4051.47
434.10	4114.66
434.28	4114.66
434.47	4238.71
434.66	4074.87
434.85	4194.24
435.03	4248.07
435.22	4454.04
435.41	4690.43
435.59	4456.38
435.78	4463.40
435.97	4294.88
436.16	4341.69
436.34	4320.63
436.53	4362.76
436.72	4388.50
436.90	4252.75
437.09	4470.42
437.28	4217.65
437.46	4425.95
437.65	4414.25
437.84	4601.49
438.02	4503.19
438.21	4538.30
438.40	4435.32
438.58	4573.41
438.77	4505.53
438.96	4690.43
439.14	4575.75
439.33	4685.75
439.52	4751.29
439.70	4648.30
439.89	4863.63
440.08	4795.76
440.26	4758.31
440.45	4739.58
440.63	4814.48
440.82	4842.57
441.01	5032.15
441.19	4863.63
441.38	4933.85
441.57	5057.90
441.75	5032.15
441.94	5128.11
442.12	5160.88
442.31	5170.24
442.50	5170.24
442.68	5156.20
442.87	5074.28
443.05	5130.45
443.24	5188.97
443.43	5310.68
443.61	5310.68
443.80	5523.66
443.98	5287.27
444.17	5046.20
444.35	5177.26
444.54	5462.81
444.73	5214.71
444.91	5177.26
445.10	5324.72
445.28	5252.16
445.47	5462.81
445.65	5238.12
445.84	5511.96
446.02	5406.64
446.21	5518.98
446.39	5341.10
446.58	5394.93
446.77	5511.96
446.95	5195.99
447.14	5453.45
447.32	5551.75
447.51	5434.72
447.69	5509.62
447.88	5453.45
448.06	5385.57
448.25	5423.02
448.43	5441.75
448.62	5462.81
448.80	5373.87
448.99	5687.50
449.17	5643.03
449.36	5535.37
449.54	5476.85
449.73	5785.80
449.91	5706.23
450.10	5699.20
450.28	5664.10
450.46	5900.49
450.65	5778.78
450.83	5628.99
451.02	5827.93
451.20	5973.05
451.39	5809.21
451.57	5675.80
451.76	5760.06
451.94	5834.96
452.13	5940.28
452.31	5933.26
452.49	5783.46
452.68	5849.00
452.86	5928.58
453.05	6078.37
453.23	6054.97
453.42	5919.21
453.60	6054.97
453.78	6202.42
453.97	5827.93
454.15	5998.79
454.34	6015.18
454.52	6057.31
454.70	6015.18
454.89	6143.91
455.07	6293.70
455.26	6143.91
455.44	6249.23
455.62	6146.25
455.81	6211.78
455.99	6274.98
456.17	6382.64
456.36	6387.32
456.54	6345.19
456.73	6328.81
456.91	6445.84
457.09	6326.47
457.28	6637.76
457.46	6544.14
457.64	6628.40
457.83	6616.69
458.01	6572.22
458.19	6787.55
458.38	6612.01
458.56	6724.36
458.74	6705.63
458.93	6705.63
459.11	6822.66
459.29	6722.02
459.48	6850.75
459.66	6906.92
459.84	6778.19
460.03	6850.75
460.21	7040.33
460.39	6951.39
460.57	6946.71
460.76	7054.37
460.94	7197.15
461.12	7009.90
461.31	7140.97
461.49	7194.81
461.67	6935.01
461.85	7098.84
462.04	7037.99
462.22	7438.22
462.40	7157.36
462.59	7075.44
462.77	7150.34
462.95	7332.90
463.13	7258.00
463.32	7307.15
463.50	7281.41
463.68	7204.17
463.86	7524.82
464.05	7059.06
464.23	7265.02
464.41	7332.90
464.59	7187.79
464.78	7545.89
464.96	7538.87
465.14	7288.43
465.32	7557.59
465.50	7442.90
465.69	7522.48
465.87	7463.97
466.05	7475.67
466.23	7494.40
466.41	7410.14
466.60	7644.19
466.78	7679.30
466.96	7588.02
467.14	7676.96
467.32	7630.15
467.51	7691.00
467.69	7590.36
467.87	7845.48
468.05	7801.01
468.23	7669.94
468.41	7730.79
468.60	7765.90
468.78	7857.18
468.96	7793.98
469.14	7873.56
469.32	8168.47
469.50	7861.86
469.69	8098.25
469.87	8116.98
470.05	8086.55
470.23	8032.72
470.41	8030.38
470.59	8250.39
470.77	8138.04
470.95	8161.45
471.14	8313.58
471.32	7988.25
471.50	8297.20
471.68	8229.32
471.86	8187.19
472.04	8308.90
472.22	8479.76
472.40	8468.06
472.58	8599.13
472.77	8585.08
472.95	8709.13
473.13	8842.54
473.31	8795.73
473.49	8762.97
473.67	8557.00
473.85	8465.72
474.03	8882.33
474.21	9078.94
474.39	9130.43
474.57	8947.87
474.75	9170.22
474.93	9226.39
475.12	8910.42
475.30	9160.86
475.48	9048.51
475.66	9153.84
475.84	9249.80
476.02	9423.00
476.20	9212.35
476.38	9666.41
476.56	9696.84
476.74	9570.45
476.92	9783.44
477.10	9722.59
477.28	9886.42
477.46	9816.21
477.64	9884.08
477.82	9860.68
478.00	10242.18
478.18	10298.36
478.36	10193.03
478.54	10436.45
478.72	10244.52
478.90	10399.00
479.08	10396.66
479.26	10579.22
479.44	10759.44
479.62	10611.99
479.80	10817.96
479.98	11108.18
480.16	11112.86
480.34	11117.54
480.52	11288.40
480.70	11375.00
480.88	11047.33
481.06	11096.48
481.24	11375.00
481.41	11346.92
481.59	11571.61
481.77	11693.32
481.95	11889.92
482.13	12070.14
482.31	11782.26
482.49	12032.69
482.67	11932.05
482.85	12273.77
483.03	12435.27
483.21	12386.12
483.39	12453.99
483.57	12404.84
483.74	12652.94
483.92	12767.62
484.10	12615.49
484.28	12922.10
484.46	13275.52
484.64	13537.66
484.82	13221.69
485.00	13345.73
485.18	13376.16
485.35	13715.54
485.53	13607.87
485.71	13650.00
485.89	14068.96
486.07	13818.52
486.25	14047.90
486.43	14038.53
486.61	14228.12
486.78	14384.93
486.96	14398.98
487.14	14586.22
487.32	14569.83
487.50	14937.30
487.68	14913.89
487.85	14778.14
488.03	15136.24
488.21	15391.36
488.39	15304.76
488.57	15604.35
488.75	15613.71
488.92	15819.68
489.10	15976.50
489.28	15948.41
489.46	16044.37
489.64	15873.51
489.81	16395.45
489.99	16582.70
490.17	16329.92
490.35	16676.32
490.53	16774.62
490.70	16882.28
490.88	16741.85
491.06	17097.61
491.24	17186.55
491.41	17123.36
491.59	17235.70
491.77	17394.86
491.95	17413.59
492.13	17308.26
492.30	17514.23
492.48	17521.25
492.66	17694.45
492.84	17797.43
493.01	18167.24
493.19	18216.39
493.37	18464.49
493.54	18338.10
493.72	18473.85
493.90	18712.58
494.08	18684.50
494.25	18934.93
494.43	18895.14
494.61	18972.38
494.79	19054.30
494.96	19026.21
495.14	19075.37
495.32	19541.13
495.49	19716.67
495.67	19754.12
495.85	19653.48
496.02	19962.43
496.20	19791.57
496.38	19946.05
496.55	19899.23
496.73	20662.25
496.91	20556.93
497.09	20470.33
497.26	20484.37
497.44	20297.13
497.62	20587.35
497.79	21048.44
497.97	20762.89
498.14	20957.16
498.32	21364.41
498.50	21376.11
498.67	21546.97
498.85	21565.70
499.03	21200.57
499.20	21373.77
499.38	21549.31
499.56	21701.45
499.73	21738.90
499.91	21923.80
500.08	21823.16
500.26	21635.91
500.44	22150.83
500.61	22040.82
500.79	22167.21
500.97	22471.48
501.14	22750.01
501.32	22370.84
501.49	22707.88
501.67	22445.74
501.84	22771.07
502.02	23014.49
502.20	22808.52
502.37	23089.38
502.55	23140.88
502.72	23175.98
502.90	23122.15
503.07	23269.61
503.25	23351.52
503.43	23243.86
503.60	23234.50
503.78	23405.36
503.95	23344.50
504.13	23571.54
504.30	23763.46
504.48	24023.26
504.65	24154.33
504.83	23981.13
505.01	24166.03
505.18	24130.92
505.36	24264.33
505.53	24149.65
505.71	24156.67
505.88	24311.14
506.06	24666.91
506.23	24526.47
506.41	24615.41
506.58	24830.74
506.76	24702.01
506.93	24886.92
507.11	24875.21
507.28	24910.32
507.46	25071.82
507.63	25123.31
507.81	25146.72
507.98	25071.82
508.16	25116.29
508.33	25003.94
508.50	25575.03
508.68	25738.87
508.85	25818.45
509.03	25818.45
509.20	25972.92
509.38	25731.85
509.55	25921.43
509.73	26214.00
509.90	26258.47
510.08	26279.54
510.25	26574.44
510.42	26478.48
510.60	26331.03
510.77	26647.00
510.95	26380.18
511.12	26586.15
511.30	26696.15
511.47	26801.47
511.64	26480.82
511.82	26881.05
511.99	26787.43
512.17	27351.50
512.34	27311.71
512.51	27761.09
512.69	27468.53
512.86	27206.39
513.04	27941.32
513.21	27772.80
513.38	27735.35
513.56	27653.43
513.73	27768.12
513.90	27889.82
514.08	27737.69
514.25	28226.86
514.43	28437.51
514.60	28217.50
514.77	28107.49
514.95	28224.52
515.12	28109.83
515.29	28388.36
515.47	28559.22
515.64	28676.24
515.81	28308.78
515.99	28790.93
516.16	28608.37
516.33	28643.48
516.51	28753.48
516.68	28746.46
516.85	29113.92
517.03	29167.76
517.20	29202.86
517.37	29158.39
517.54	28802.63
517.72	29142.01
517.89	28975.83
518.06	29392.45
518.24	29156.05
518.41	29256.70
518.58	29322.23
518.75	29200.52
518.93	29312.87
519.10	29387.77
519.27	29685.01
519.45	29811.40
519.62	30277.17
519.79	29961.20
519.96	30157.80
520.14	29802.04
520.31	29923.75
520.48	30073.54
520.65	30354.41
520.83	30258.45
521.00	30422.28
521.17	30258.45
521.34	30380.15
521.52	30808.47
521.69	30389.52
521.86	30429.30
522.03	30618.89
522.20	31079.97
522.38	30904.43
522.55	30862.30
522.72	30944.22
522.89	30665.70
523.07	31012.10
523.24	30829.54
523.41	31276.58
523.58	31271.90
523.75	31388.92
523.92	31335.09
524.10	31302.32
524.27	31484.89
524.44	31379.56
524.61	31644.04
524.78	31922.57
524.96	31948.31
525.13	31880.44
525.30	31913.20
525.47	31782.13
525.64	32055.98
525.81	31945.97
525.98	32034.91
526.16	31995.12
526.33	32107.47
526.50	32388.33
526.67	32320.46
526.84	32233.86
527.01	32465.57
527.18	32582.60
527.36	32472.59
527.53	32095.77
527.70	32790.91
527.87	32802.61
528.04	32432.80
528.21	32837.72
528.38	32507.70
528.55	33041.34
528.72	32580.26
528.89	32697.28
529.07	32760.48
529.24	33027.30
529.41	33223.90
529.58	33376.04
529.75	33411.15
529.92	33130.28
530.09	33317.53
530.26	33324.55
530.43	33247.31
530.60	33350.29
530.77	33305.82
530.94	33820.74
531.11	33696.69
531.28	33813.72
531.46	33996.28
531.63	33607.75
531.80	33663.93
531.97	33479.02
532.14	33879.25
532.31	33926.07
532.48	33956.49
532.65	34038.41
532.82	33766.91
532.99	33942.45
533.16	33787.97
533.33	34356.72
533.50	34466.73
533.67	34321.62
533.84	33806.70
534.01	34143.74
534.18	34043.09
534.35	34749.93
534.52	34361.40
534.69	34253.74
534.86	34246.72
535.03	34366.09
535.20	34471.41
535.37	34789.72
535.54	34885.68
535.71	34920.79
535.88	35007.39
536.05	34895.05
536.22	34948.88
536.38	34920.79
536.55	35194.64
536.72	35445.07
536.89	35159.53
537.06	35157.19
537.23	35534.01
537.40	35321.02
537.57	35611.25
537.74	35688.49
537.91	35646.36
538.08	35461.46
538.25	35072.93
538.42	35222.72
538.59	35573.80
538.75	35566.78
538.92	35608.91
539.09	35749.34
539.26	35552.74
539.43	36149.57
539.60	36271.28
539.77	36128.51
539.94	36039.57
540.11	35772.75
540.28	36655.13
540.44	36332.14
540.61	36598.96
540.78	36280.64
540.95	36107.44
541.12	35910.84
541.29	36685.56
541.46	36697.26
541.62	36608.32
541.79	36758.11
541.96	36247.88
542.13	36863.44
542.30	36652.79
542.47	36935.99
542.63	36545.12
542.80	37085.79
542.97	37198.13
543.14	37359.63
543.31	36947.70
543.48	37340.91
543.64	37970.51
543.81	37364.31
543.98	37312.82
544.15	37331.54
544.32	37425.17
544.48	37809.01
544.65	37750.50
544.82	37408.78
544.99	37214.52
545.16	37532.83
545.32	37823.06
545.49	38162.43
545.66	38277.12
545.83	38745.23
546.00	38424.57
546.16	38316.91
546.33	38447.98
546.50	37532.83
546.67	38190.52
546.83	37368.99
547.00	37804.33
547.17	37574.96
547.34	38122.65
547.50	38120.31
547.67	38473.73
547.84	38230.31
548.00	38352.02
548.17	38948.85
548.34	38410.53
548.51	38220.95
548.67	38333.29
548.84	38424.57
549.01	37858.17
549.18	38478.41
549.34	38302.87
549.51	38307.55
549.68	38567.35
549.84	38227.97
550.01	38483.09
550.18	38050.09
550.34	38483.09
550.51	38653.95
550.68	38618.84
550.84	38579.05
551.01	38813.10
551.18	38305.21
551.34	38237.33
551.51	38768.63
551.68	38843.53
551.84	38796.72
552.01	38426.92
552.18	38696.08
552.34	38663.31
552.51	39021.41
552.68	38813.10
552.84	39220.36
553.01	39058.86
553.18	39269.51
553.34	38724.16
553.51	38810.76
553.67	39349.09
553.84	39627.61
554.01	39360.79
554.17	39339.72
554.34	38932.47
554.51	39313.98
554.67	39700.17
554.84	39292.91
555.00	39051.84
555.17	39325.68
555.33	39346.75
555.50	39533.99
555.67	39487.18
555.83	39309.30
556.00	39363.13
556.16	39894.43
556.33	39346.75
556.50	39468.45
556.66	39658.04
556.83	39283.55
556.99	39718.89
557.16	39772.72
557.32	40362.54
557.49	40201.04
557.65	39697.83
557.82	39646.33
557.98	39920.18
558.15	39435.69
558.32	39887.41
558.48	39379.51
558.65	39739.96
558.81	39847.62
558.98	39688.46
559.14	40374.24
559.31	39941.24
559.47	39969.33
559.64	39835.92
559.80	40374.24
559.97	40282.96
560.13	39601.86
560.30	39955.29
560.46	40676.17
560.63	40271.26
560.79	40416.37
560.96	39990.39
561.12	40231.47
561.29	40304.02
561.45	39924.86
561.61	40428.07
561.78	40315.73
561.94	40407.01
562.11	40971.08
562.27	40755.75
562.44	40610.64
562.60	40741.71
562.77	40825.96
562.93	40435.10
563.10	40563.82
563.26	40350.84
563.42	40451.48
563.59	40610.64
563.75	40360.20
563.92	40573.19
564.08	40605.95
564.24	40119.12
564.41	40395.31
564.57	40671.49
564.74	40439.78
564.90	40488.93
565.07	40811.92
565.23	41195.77
565.39	40722.98
565.56	40893.84
565.72	40627.02
565.88	40769.79
566.05	40634.04
566.21	40973.42
566.38	40488.93
566.54	40641.06
566.70	41228.54
566.87	41418.12
567.03	40973.42
567.19	41769.20
567.36	41060.02
567.52	40907.88
567.68	40706.60
567.85	41146.62
568.01	40914.90
568.17	40809.58
568.34	40919.59
568.50	41167.68
568.66	41476.63
568.83	40996.82
568.99	40800.22
569.15	41076.40
569.32	41170.02
569.48	40730.00
569.64	41200.45
569.81	40430.41
569.97	40905.54
570.13	41195.77
570.30	41081.08
570.46	40919.59
570.62	40769.79
570.78	40905.54
570.95	40781.49
571.11	41287.05
571.27	40840.01
571.43	40851.71
571.60	41226.20
571.76	41102.15
571.92	41333.86
572.09	41457.91
572.25	40868.09
572.41	41588.98
572.57	41572.60
572.74	42050.06
572.90	41570.25
573.06	41549.19
573.22	41326.84
573.38	41691.96
573.55	41167.68
573.71	41710.69
573.87	41713.03
574.03	41462.59
574.20	41120.87
574.36	41340.88
574.52	41521.10
574.68	41394.71
574.84	41429.82
575.01	41865.16
575.17	41305.77
575.33	41174.70
575.49	41563.23
575.65	41734.09
575.82	41179.39
575.98	41015.55
576.14	41853.46
576.30	41514.08
576.46	41525.78
576.62	40964.06
576.79	41649.83
576.95	41532.81
577.11	41921.34
577.27	41837.08
577.43	42005.59
577.59	41490.68
577.75	41518.76
577.92	41319.82
578.08	41326.84
578.24	41546.85
578.40	41738.77
578.56	41656.85
578.72	41834.74
578.88	42000.91
579.04	42094.53
579.21	41663.88
579.37	41872.18
579.53	42110.92
579.69	41949.42
579.85	41497.70
580.01	42080.49
580.17	42040.70
580.33	41956.44
580.49	41862.82
580.65	41778.56
580.82	42143.69
580.98	41661.54
581.14	41745.80
581.30	41574.94
581.46	41373.65
581.62	41607.70
581.78	41911.97
581.94	41673.24
582.10	41928.36
582.26	41598.34
582.42	41207.47
582.58	41703.67
582.74	41659.20
582.90	41614.72
583.06	41844.10
583.22	41422.80
583.38	41975.17
583.54	41553.87
583.70	41387.69
583.86	41942.40
584.02	41338.54
584.18	41947.08
584.34	42333.27
584.50	42019.64
584.66	41553.87
584.82	41661.54
584.98	42195.18
585.14	41930.70
585.30	41834.74
585.46	41853.46
585.62	41958.78
585.78	42314.55
585.94	41563.23
586.10	42024.32
586.26	41921.34
586.42	41916.65
586.58	42014.96
586.74	41804.31
586.90	41881.55
587.06	41874.52
587.22	42380.08
587.38	41820.69
587.54	42459.66
587.70	42595.41
587.86	42356.67
588.02	42124.96
588.18	42089.85
588.34	42384.76
588.49	42197.52
588.65	41450.89
588.81	41844.10
588.97	42302.84
589.13	41776.22
589.29	42146.03
589.45	42211.56
589.61	42314.55
589.77	42382.42
589.93	42600.09
590.08	42377.74
590.24	42017.30
590.40	42103.90
590.56	42274.76
590.72	42183.48
590.88	41727.07
591.04	42064.11
591.20	42932.45
591.35	42450.30
591.51	42916.06
591.67	42656.26
591.83	42639.88
591.99	42057.09
592.15	42354.33
592.31	42679.67
592.46	42471.36
592.62	42408.17
592.78	42103.90
592.94	42593.07
593.10	42543.92
593.26	42761.59
593.41	42710.10
593.57	42478.38
593.73	42281.78
593.89	42700.73
594.05	42588.39
594.20	41544.51
594.36	42272.42
594.52	42684.35
594.68	42206.88
594.84	42293.48
594.99	42887.98
595.15	42462.00
595.31	42473.70
595.47	42616.47
595.62	42082.83
595.78	42354.33
595.94	41942.40
596.10	42387.10
596.25	42490.09
596.41	42024.32
596.57	42082.83
596.73	42019.64
596.88	42291.14
597.04	42258.37
597.20	42553.28
597.36	42579.03
597.51	42562.64
597.67	42684.35
597.83	42618.81
597.99	42670.31
598.14	42787.33
598.30	42925.42
598.46	42363.70
598.61	42698.39
598.77	42721.80
598.93	42403.49
599.09	42440.93
599.24	42892.66
599.40	42756.91
599.56	42852.87
599.71	42337.95
599.87	42689.03
600.03	42471.36
600.18	42941.81
600.34	42445.62
600.50	42440.93
600.65	42157.73
600.81	42885.64
600.97	43068.20
601.12	42635.20
601.28	42855.21
601.44	42499.45
601.59	42808.40
601.75	42462.00
601.91	42639.88
602.06	42831.80
602.22	42431.57
602.37	42595.41
602.53	42419.87
602.69	42684.35
602.84	42735.84
603.00	42373.06
603.16	42761.59
603.31	42642.22
603.47	42499.45
603.62	42356.67
603.78	42462.00
603.94	42478.38
604.09	42054.75
604.25	42288.80
604.40	43005.00
604.56	42511.15
604.71	42754.57
604.87	42293.48
605.03	42527.53
605.18	42548.60
605.34	42291.14
605.49	41727.07
605.65	42171.77
605.80	42302.84
605.96	42756.91
606.12	42492.43
606.27	43468.43
606.43	42719.46
606.58	42735.84
606.74	42707.76
606.89	42878.61
607.05	42742.86
607.20	42094.53
607.36	42422.21
607.51	42579.03
607.67	42300.50
607.82	42387.10
607.98	42487.74
608.13	42380.08
608.29	42632.86
608.44	42691.37
608.60	42351.99
608.75	42539.24
608.91	42560.30
609.06	42110.92
609.22	42494.77
609.37	42274.76
609.53	42029.00
609.68	42429.23
609.84	42017.30
609.99	42883.30
610.15	42447.96
610.30	42384.76
610.46	42770.95
610.61	42719.46
610.76	43627.59
610.92	43316.29
611.07	43232.04
611.23	43005.00
611.38	43093.94
611.54	42799.04
611.69	42651.58
611.84	43152.46
612.00	43370.13
612.15	42838.83
612.31	42546.26
612.46	42639.88
612.62	42438.59
612.77	42075.81
612.92	42703.07
613.08	42366.04
613.23	41958.78
613.39	42398.80
613.54	41993.89
613.69	42012.62
613.85	42337.95
614.00	42466.68
614.15	42485.40
614.31	41996.23
614.46	42590.73
614.62	42164.75
614.77	42106.24
614.92	41603.02
615.08	41865.16
615.23	41773.88
615.38	42134.32
615.54	42096.88
615.69	41673.24
615.84	41977.51
616.00	42579.03
616.15	41834.74
616.30	41799.63
616.46	41823.03
616.61	41390.03
616.76	41523.44
616.92	41160.66
617.07	41670.90
617.22	41647.49
617.37	41141.94
617.53	41476.63
617.68	41277.69
617.83	41436.84
617.99	41406.42
618.14	41757.50
618.29	41221.52
618.45	41380.67
618.60	41488.34
618.75	40910.22
618.90	41001.50
619.06	40350.84
619.21	40900.86
619.36	41078.74
619.51	40837.67
619.67	40708.94
619.82	41486.00
619.97	41453.23
620.12	40830.65
620.28	40994.48
620.43	41366.63
620.58	41160.66
620.73	40980.44
620.89	41242.58
621.04	40818.94
621.19	40877.46
621.34	40847.03
621.49	40697.24
621.65	40498.29
621.80	40877.46
621.95	41221.52
622.10	41312.80
622.25	40411.69
622.41	40589.57
622.56	40531.06
622.71	40678.51
622.86	40751.07
623.01	40584.89
623.16	40399.99
623.32	41048.32
623.47	40809.58
623.62	40921.93
623.77	40802.56
623.92	40741.71
624.07	41130.23
624.23	40875.12
624.38	40856.39
624.53	40374.24
624.68	40554.46
624.83	40678.51
624.98	40519.35
625.13	39948.26
625.29	40053.59
625.44	40273.60
625.59	39941.24
625.74	39997.41
625.89	40254.87
626.04	40442.12
626.19	40233.81
626.34	39943.58
626.49	40446.80
626.65	40219.77
626.80	40081.67
626.95	39213.34
627.10	39632.29
627.25	40102.74
627.40	39966.99
627.55	40020.82
627.70	39695.49
627.85	39955.29
628.00	40048.91
628.15	39388.88
628.30	39541.01
628.45	39814.85
628.60	39447.39
628.76	39435.69
628.91	39887.41
629.06	39665.06
629.21	39988.05
629.36	39416.96
629.51	39746.98
629.66	39803.15
629.81	39281.21
629.96	39269.51
630.11	39531.65
630.26	39686.12
630.41	39210.99
630.56	39763.36
630.71	39562.08
630.86	39948.26
631.01	39480.16
631.16	39622.93
631.31	39203.97
631.46	38906.73
631.61	39299.94
631.76	39180.57
631.91	39503.56
632.06	38527.56
632.21	39002.69
632.36	39070.56
632.51	38714.80
632.66	39042.48
632.81	39323.34
632.96	39086.95
633.10	38918.43
633.25	38925.45
633.40	38866.94
633.55	38859.91
633.70	38614.16
633.85	38609.48
634.00	38965.24
634.15	38995.67
634.30	38522.88
634.45	38759.27
634.60	38834.17
634.75	38705.44
634.90	38799.06
635.05	38567.35
635.19	38508.83
635.34	38785.02
635.49	38574.37
635.64	38237.33
635.79	38555.64
635.94	38548.62
636.09	38136.69
636.24	38202.22
636.39	38557.99
636.53	38658.63
636.68	38480.75
636.83	38141.37
636.98	38347.34
637.13	38183.50
637.28	38043.07
637.43	38190.52
637.57	38382.45
637.72	37963.49
637.87	38300.53
638.02	38040.73
638.17	37916.68
638.32	38075.84
638.46	37865.19
638.61	38108.60
638.76	37904.98
638.91	38190.52
639.06	38340.32
639.20	38665.65
639.35	38499.47
639.50	38307.55
639.65	37890.93
639.80	38108.60
639.94	37663.90
640.09	37961.15
640.24	37736.46
640.39	37858.17
640.54	37471.98
640.68	37785.61
640.83	37691.99
640.98	37256.65
641.13	37546.87
641.27	37607.73
641.42	37223.88
641.57	37200.47
641.72	37574.96
641.86	37158.34
642.01	37062.38
642.16	37258.99
642.31	37296.44
642.45	37722.41
642.60	37188.77
642.75	37350.27
642.90	37310.48
643.04	37249.63
643.19	37106.85
643.34	38150.73
643.48	37567.94
643.63	37326.86
643.78	36933.65
643.93	37036.64
644.07	37027.28
644.22	36952.38
644.37	36907.91
644.51	37120.90
644.66	37383.04
644.81	37207.50
644.95	37427.51
645.10	37060.04
645.25	37184.09
645.39	37322.18
645.54	37130.26
645.69	37078.77
645.83	37301.12
645.98	36851.73
646.13	36978.12
646.27	37008.55
646.42	37212.18
646.57	36954.72
646.71	37200.47
646.86	36989.83
647.00	36605.98
647.15	36556.83
647.30	36622.36
647.44	36697.26
647.59	36821.31
647.74	37085.79
647.88	36671.51
648.03	36517.04
648.17	36683.22
648.32	36065.31
648.47	36123.83
648.61	36222.13
648.76	36809.61
648.90	36627.04
649.05	36037.23
649.20	36636.41
649.34	36837.69
649.49	36491.29
649.63	36598.96
649.78	36847.05
649.92	36374.27
650.07	36659.81
650.21	36299.37
650.36	36168.30
650.51	36350.86
650.65	36170.64
650.80	36320.43
650.94	36322.77
651.09	36172.98
651.23	36151.91
651.38	36320.43
651.52	36091.06
651.67	36306.39
651.81	36432.78
651.96	36079.36
652.10	36084.04
652.25	36318.09
652.39	35555.08
652.54	35587.85
652.68	35651.04
652.83	35452.09
652.97	35957.65
653.12	35629.98
653.26	36224.47
653.41	36460.87
653.55	36273.62
653.70	36030.21
653.84	36016.16
653.99	35665.08
654.13	35283.58
654.27	35463.80
654.42	35665.08
654.56	35473.16
654.71	35842.96
654.85	35517.63
655.00	35674.45
655.14	35257.83
655.29	35218.04
655.43	35246.13
655.57	35248.47
655.72	35005.05
655.86	35276.55
656.01	35559.76
656.15	35075.27
656.30	35414.65
656.44	35637.00
656.58	35637.00
656.73	35857.01
656.87	35487.20
657.01	35491.88
657.16	35218.04
657.30	35084.63
657.45	35007.39
657.59	34649.29
657.73	34614.18
657.88	35042.50
658.02	34796.74
658.16	35262.51
658.31	35108.04
658.45	35227.40
658.60	35461.46
658.74	34810.79
658.88	34782.70
659.03	34429.28
659.17	34405.88
659.31	34469.07
659.46	34258.42
659.60	34235.02
659.74	34637.59
659.89	33998.62
660.03	34995.69
660.17	34429.28
660.32	34293.53
660.46	34064.16
660.60	33825.42
660.74	34258.42
660.89	34010.32
661.03	33792.65
661.17	34218.63
661.32	34005.64
661.46	33879.25
661.60	33844.15
661.74	33462.64
661.89	33483.70
662.03	33916.70
662.17	33579.67
662.31	33677.97
662.46	33570.30
662.60	33771.59
662.74	33266.03
662.88	33415.83
663.03	33684.99
663.17	33677.97
663.31	33551.58
663.45	33399.44
663.60	33277.74
663.74	33457.96
663.88	32971.13
664.02	33209.86
664.17	32781.54
664.31	32755.80
664.45	32858.78
664.59	32875.16
664.73	32744.09
664.88	33191.14
665.02	32713.67
665.16	32947.72
665.30	32531.11
665.44	32589.62
665.59	32821.33
665.73	32561.53
665.87	32381.31
666.01	32758.14
666.15	32804.95
666.29	32257.26
666.44	32446.85
666.58	32187.05
666.72	31665.11
666.86	32563.87
667.00	32439.82
667.14	32095.77
667.28	32231.52
667.43	31974.06
667.57	32650.47
667.71	32264.28
667.85	31971.72
667.99	32308.76
668.13	31545.74
668.27	31529.36
668.41	32112.15
668.56	31630.00
668.70	31639.36
668.84	31239.13
668.98	31150.19
669.12	31555.10
669.26	31229.77
669.40	31264.88
669.54	31459.14
669.68	31529.36
669.82	31328.07
669.96	31793.84
670.10	31138.49
670.25	31552.76
670.39	30803.79
670.53	30850.60
670.67	30993.37
670.81	30686.76
670.95	30691.44
671.09	30527.61
671.23	30389.52
671.37	30696.13
671.51	30712.51
671.65	30930.18
671.79	30572.08
671.93	30635.27
672.07	31028.48
672.21	30160.14
672.35	30277.17
672.49	30731.23
672.63	30146.10
672.77	30462.07
672.91	30068.86
673.05	29745.87
673.19	29270.74
673.33	29682.67
673.47	29488.41
673.61	29640.54
673.75	29834.81
673.89	29914.39
674.03	29362.02
674.17	29359.68
674.31	29713.10
674.45	29441.60
674.59	29631.18
674.73	29673.31
674.87	29816.08
675.01	28966.47
675.15	28985.19
675.29	29469.69
675.43	29170.10
675.56	28985.19
675.70	28933.70
675.84	28596.67
675.98	28013.87
676.12	28451.55
676.26	28762.84
676.40	28479.64
676.54	28540.49
676.68	28788.59
676.82	28140.26
676.96	28301.76
677.10	28566.24
677.23	28039.62
677.37	28119.20
677.51	28006.85
677.65	27880.46
677.79	27599.60
677.93	27482.57
678.07	27318.73
678.21	27316.39
678.34	27529.38
678.48	26782.75
678.62	27426.40
678.76	27335.12
678.90	26958.29
679.04	27143.19
679.18	26885.73
679.31	26178.89
679.45	26679.77
679.59	27182.98
679.73	26691.47
679.87	26532.31
680.00	26150.81
680.14	26642.32
680.28	26480.82
680.42	26288.90
680.56	26569.76
680.70	26108.68
680.83	25975.27
680.97	25778.66
681.11	25949.52
681.25	25668.66
681.39	26017.40
681.52	25734.19
681.66	25668.66
681.80	25558.65
681.94	25401.83
682.07	25275.45
682.21	25661.63
682.35	25537.59
682.49	25518.86
682.62	25390.13
682.76	25186.50
682.90	25060.12
683.04	25081.18
683.17	25153.74
683.31	25083.52
683.45	24599.03
683.59	25078.84
683.72	24603.71
683.86	24577.97
684.00	24678.61
684.13	24063.05
684.27	24297.10
684.41	24077.09
684.55	24159.01
684.68	24056.03
684.82	23997.51
684.96	23426.42
685.09	23924.96
685.23	23620.69
685.37	23763.46
685.50	23674.52
685.64	23763.46
685.78	23229.82
685.91	23267.27
686.05	23335.14
686.19	23136.20
686.32	22909.16
686.46	22953.63
686.60	22995.76
686.73	23356.21
686.87	22857.67
687.01	22656.39
687.14	22740.64
687.28	22438.72
687.42	22436.38
687.55	22253.81
687.69	22548.72
687.82	22361.48
687.96	22583.83
688.10	22209.34
688.23	22462.12
688.37	22160.19
688.50	22085.30
688.64	22230.41
688.78	22181.26
688.91	21933.16
689.05	21518.89
689.18	21668.68
689.32	21010.99
689.46	21469.73
689.59	21303.56
689.73	21179.51
689.86	21109.29
690.00	21170.15
690.13	21130.36
690.27	20945.45
690.41	21333.98
690.54	20582.67
690.68	20978.22
690.81	20650.55
690.95	20751.19
691.08	20709.06
691.22	20102.86
691.35	20191.80
691.49	20566.29
691.62	20322.87
691.76	20074.77
691.89	20601.40
692.03	20201.16
692.16	20252.66
692.30	19749.44
692.43	19737.74
692.57	19807.95
692.70	19632.41
692.84	19829.02
692.97	19236.86
693.11	19421.77
693.24	19105.79
693.38	19503.68
693.51	19229.84
693.65	19108.13
693.78	19190.05
693.92	19262.61
694.05	19183.03
694.19	19164.31
694.32	19358.57
694.45	19098.77
694.59	18838.97
694.72	18733.65
694.86	18698.54
694.99	18302.99
695.13	18326.39
695.26	18450.44
695.39	17891.06
695.53	18260.86
695.66	18284.26
695.80	17860.63
695.93	17942.55
696.07	17781.05
696.20	17879.35
696.33	17717.86
696.47	17769.35
696.60	17439.33
696.73	17439.33
696.87	17479.12
697.00	17547.00
697.14	17453.37
697.27	17193.58
697.40	17092.93
697.54	17099.95
697.67	16905.69
697.80	16966.54
697.94	16835.47
698.07	16601.42
698.21	16760.58
698.34	16601.42
698.47	16439.92
698.61	16350.98
698.74	16425.88
698.87	16451.63
699.01	16280.77
699.14	16657.59
699.27	16732.49
699.40	16407.16
699.54	16367.37
699.67	16203.53
699.80	16020.97
699.94	15740.10
700.07	15765.85
700.20	15541.16
700.34	15288.38
700.47	15510.73
700.60	15756.49
700.73	15386.68
700.87	15407.75
701.00	15091.77
701.13	15159.65
701.26	15318.81
701.40	15026.24
701.53	15239.23
701.66	15096.46
701.79	14899.85
701.93	15161.99
702.06	15049.64
702.19	14930.28
702.32	14808.57
702.46	14450.47
702.59	14602.60
702.72	14389.61
702.85	14026.83
702.99	14279.61
703.12	14232.80
703.25	14033.85
703.38	13947.25
703.51	13973.00
703.65	14099.39
703.78	13902.78
703.91	13811.50
704.04	13949.59
704.17	13973.00
704.31	13584.47
704.44	13390.20
704.57	13490.85
704.70	13577.45
704.83	13228.71
704.96	13305.95
705.10	13355.10
705.23	13460.42
>>>>>End Processed Spectral Data<<<<<
