SpectraSuite Data File
++++++++++++++++++++++++++++++++++++
Date: Thu Oct 24 13:21:16 EDT 2013
User: stostad
Dark Spectrum Present: No
Reference Spectrum Present: No
Number of Sampled Component Spectra: 1
Spectrometers: USB2+H05261
Integration Time (usec): 100000 (USB2+H05261)
Spectra Averaged: 1 (USB2+H05261)
Boxcar Smoothing: 0 (USB2+H05261)
Correct for Electrical Dark: No (USB2+H05261)
Strobe/Lamp Enabled: No (USB2+H05261)
Correct for Detector Non-linearity: No (USB2+H05261)
Correct for Stray Light: No (USB2+H05261)
Number of Pixels in Processed Spectrum: 2048
>>>>>Begin Processed Spectral Data<<<<<
365.73	610.88
365.92	610.88
366.12	610.88
366.32	425.98
366.52	482.15
366.72	505.56
366.91	486.83
367.11	407.25
367.31	510.24
367.51	444.70
367.70	435.34
367.90	470.45
368.10	449.38
368.30	458.74
368.49	418.96
368.69	468.11
368.89	472.79
369.09	472.79
369.28	547.69
369.48	465.77
369.68	507.90
369.87	528.96
370.07	571.09
370.27	603.86
370.47	531.30
370.66	739.61
370.86	767.70
371.06	741.95
371.25	856.64
371.45	788.76
371.65	830.89
371.84	774.72
372.04	774.72
372.24	802.80
372.44	896.43
372.63	847.27
372.83	856.64
373.03	945.58
373.22	858.98
373.42	898.77
373.62	905.79
373.81	912.81
374.01	966.64
374.21	875.36
374.40	884.72
374.60	877.70
374.79	873.02
374.99	936.21
375.19	919.83
375.38	854.30
375.58	880.04
375.78	915.15
375.97	964.30
376.17	915.15
376.37	968.98
376.56	957.28
376.76	898.77
376.95	971.32
377.15	997.07
377.35	929.19
377.54	931.53
377.74	924.51
377.93	889.40
378.13	877.70
378.33	1015.79
378.52	983.02
378.72	936.21
378.91	973.66
379.11	1013.45
379.31	933.87
379.50	1015.79
379.70	968.98
379.89	1008.77
380.09	1018.13
380.28	889.40
380.48	999.41
380.68	943.24
380.87	987.71
381.07	987.71
381.26	1011.11
381.46	1076.65
381.65	1090.69
381.85	983.02
382.04	1090.69
382.24	1041.54
382.43	1153.88
382.63	1034.52
382.83	1069.62
383.02	1093.03
383.22	1022.81
383.41	1022.81
383.61	1043.88
383.80	1128.14
384.00	1116.44
384.19	1060.26
384.39	1076.65
384.58	1095.37
384.78	1158.57
384.97	1078.99
385.17	1130.48
385.36	1067.28
385.56	1088.35
385.75	1001.75
385.95	1083.67
386.14	1095.37
386.34	1081.33
386.53	1118.78
386.72	1067.28
386.92	1081.33
387.11	1151.54
387.31	1029.84
387.50	1170.27
387.70	1109.41
387.89	1151.54
388.09	1170.27
388.28	1196.01
388.48	1179.63
388.67	1165.59
388.86	1149.20
389.06	1177.29
389.25	1200.69
389.45	1125.80
389.64	1207.72
389.84	1231.12
390.03	1238.14
390.22	1231.12
390.42	1233.46
390.61	1142.18
390.81	1170.27
391.00	1249.85
391.19	1146.86
391.39	1214.74
391.58	1167.93
391.78	1196.01
391.97	1317.72
392.16	1249.85
392.36	1315.38
392.55	1240.48
392.75	1315.38
392.94	1235.80
393.13	1259.21
393.33	1165.59
393.52	1287.29
393.71	1301.34
393.91	1306.02
394.10	1289.64
394.29	1282.61
394.49	1284.95
394.68	1439.43
394.88	1320.06
395.07	1348.15
395.26	1336.45
395.46	1355.17
395.65	1280.27
395.84	1376.24
396.04	1373.89
396.23	1383.26
396.42	1376.24
396.62	1423.05
396.81	1308.36
397.00	1455.81
397.19	1432.41
397.39	1458.15
397.58	1474.54
397.77	1467.52
397.97	1460.49
398.16	1458.15
398.35	1519.01
398.55	1490.92
398.74	1577.52
398.93	1579.86
399.12	1437.09
399.32	1500.28
399.51	1476.88
399.70	1434.75
399.90	1511.99
400.09	1514.33
400.28	1689.87
400.47	1551.78
400.67	1614.97
400.86	1593.90
401.05	1586.88
401.24	1526.03
401.44	1596.25
401.63	1614.97
401.82	1598.59
402.01	1586.88
402.21	1657.10
402.40	1640.72
402.59	1617.31
402.78	1626.67
402.97	1685.19
403.17	1727.32
403.36	1706.25
403.55	1769.44
403.74	1741.36
403.93	1851.36
404.13	1851.36
404.32	1837.32
404.51	1909.88
404.70	1893.49
404.89	1788.17
405.09	1851.36
405.28	1881.79
405.47	1877.11
405.66	1746.04
405.85	1827.96
406.05	1902.86
406.24	1916.90
406.43	1984.77
406.62	1952.01
406.81	2024.56
407.00	1879.45
407.20	1919.24
407.39	1909.88
407.58	1895.83
407.77	1989.46
407.96	1977.75
408.15	1984.77
408.34	1942.64
408.54	1991.80
408.73	2071.37
408.92	2071.37
409.11	2113.50
409.30	2139.25
409.49	2165.00
409.68	2092.44
409.87	2108.82
410.07	2122.87
410.26	2141.59
410.45	2141.59
410.64	2125.21
410.83	2165.00
411.02	2225.85
411.21	2328.83
411.40	2286.70
411.59	2289.04
411.78	2251.60
411.98	2249.25
412.17	2239.89
412.36	2382.67
412.55	2363.94
412.74	2370.96
412.93	2380.32
413.12	2303.09
413.31	2410.75
413.50	2349.90
413.69	2448.20
413.88	2413.09
414.07	2492.67
414.26	2436.50
414.45	2567.57
414.64	2562.89
414.83	2537.14
415.02	2562.89
415.22	2623.74
415.41	2612.04
415.60	2738.43
415.79	2602.68
415.98	2597.99
416.17	2773.53
416.36	2710.34
416.55	2644.81
416.74	2787.58
416.93	2855.45
417.12	2803.96
417.31	2810.98
417.50	2888.22
417.69	2902.26
417.88	2984.18
418.07	2820.35
418.26	2979.50
418.45	2902.26
418.64	3115.25
418.83	2899.92
419.02	2995.89
419.21	3000.57
419.39	2909.29
419.58	3119.93
419.77	3035.67
419.96	3035.67
420.15	3012.27
420.34	3136.32
420.53	3087.17
420.72	3190.15
420.91	3136.32
421.10	3187.81
421.29	3040.36
421.48	3009.93
421.67	3040.36
421.86	3218.24
422.05	3206.53
422.24	3208.87
422.43	3157.38
422.61	3276.75
422.80	3241.64
422.99	3269.73
423.18	3117.59
423.37	3232.28
423.56	3323.56
423.75	3246.32
423.94	3211.22
424.13	3164.40
424.32	3199.51
424.50	3295.47
424.69	3478.04
424.88	3316.54
425.07	3260.37
425.26	3229.94
425.45	3309.52
425.64	3251.00
425.83	3389.10
426.01	3375.05
426.20	3307.18
426.39	3318.88
426.58	3398.46
426.77	3438.25
426.96	3424.20
427.15	3412.50
427.33	3353.99
427.52	3361.01
427.71	3440.59
427.90	3386.76
428.09	3435.91
428.28	3606.77
428.46	3482.72
428.65	3424.20
428.84	3644.21
429.03	3751.88
429.22	3564.64
429.40	3609.11
429.59	3494.42
429.78	3356.33
429.97	3386.76
430.16	3557.61
430.34	3543.57
430.53	3681.66
430.72	3604.42
430.91	3637.19
431.10	3672.30
431.28	3648.90
431.47	3702.73
431.66	3695.71
431.85	3721.45
432.03	3747.20
432.22	3765.92
432.41	3737.84
432.60	3901.67
432.79	3836.14
432.97	3831.46
433.16	4002.32
433.35	3840.82
433.54	3953.16
433.72	4119.34
433.91	3969.55
434.10	3913.38
434.28	3882.95
434.47	3934.44
434.66	4056.15
434.85	3990.61
435.03	4191.90
435.22	4297.22
435.41	4465.74
435.59	4402.55
435.78	4322.97
435.97	4372.12
436.16	4049.13
436.34	4255.09
436.53	4121.68
436.72	4283.18
436.90	4161.47
437.09	4236.37
437.28	4060.83
437.46	4039.76
437.65	4278.50
437.84	4355.74
438.02	4252.75
438.21	4313.61
438.40	4360.42
438.58	4332.33
438.77	4402.55
438.96	4472.76
439.14	4369.78
439.33	4393.19
439.52	4500.85
439.70	4482.13
439.89	4690.43
440.08	4655.33
440.26	4657.67
440.45	4510.21
440.63	4690.43
440.82	4882.36
441.01	4683.41
441.19	4762.99
441.38	4821.50
441.57	4784.06
441.75	4884.70
441.94	4898.74
442.12	5006.41
442.31	4830.87
442.50	4926.83
442.68	5036.83
442.87	5062.58
443.05	4997.04
443.24	5114.07
443.43	5074.28
443.61	5177.26
443.80	5198.33
443.98	4985.34
444.17	4997.04
444.35	5095.35
444.54	5135.14
444.73	5088.32
444.91	5291.95
445.10	5249.82
445.28	5221.74
445.47	5123.43
445.65	5245.14
445.84	5217.05
446.02	5188.97
446.21	5205.35
446.39	5184.29
446.58	5184.29
446.77	5256.84
446.95	5170.24
447.14	5219.39
447.32	5273.23
447.51	5245.14
447.69	5228.76
447.88	5317.70
448.06	5242.80
448.25	5268.55
448.43	5219.39
448.62	5296.63
448.80	5364.51
448.99	5284.93
449.17	5240.46
449.36	5289.61
449.54	5420.68
449.73	5439.40
449.91	5537.71
450.10	5453.45
450.28	5621.97
450.46	5717.93
450.65	5610.26
450.83	5458.13
451.02	5497.92
451.20	5654.73
451.39	5647.71
451.57	5680.48
451.76	5708.57
451.94	5650.05
452.13	5790.49
452.31	5633.67
452.49	5544.73
452.68	5816.23
452.86	5743.67
453.05	5891.13
453.23	5593.88
453.42	5673.46
453.60	5645.37
453.78	5907.51
453.97	5701.54
454.15	5621.97
454.34	5851.34
454.52	5846.66
454.70	5811.55
454.89	5926.24
455.07	6017.52
455.26	6033.90
455.44	5977.73
455.62	5959.00
455.81	6059.65
455.99	6087.73
456.17	6132.20
456.36	6010.50
456.54	6171.99
456.73	6153.27
456.91	6090.07
457.09	6300.72
457.28	6221.14
457.46	6202.42
457.64	6239.87
457.83	6274.98
458.01	6228.17
458.19	6282.00
458.38	6284.34
458.56	6413.07
458.74	6558.18
458.93	6506.69
459.11	6394.34
459.29	6513.71
459.48	6480.94
459.66	6544.14
459.84	6487.96
460.03	6612.01
460.21	6633.08
460.39	6537.12
460.57	6612.01
460.76	6796.92
460.94	6637.76
461.12	6904.58
461.31	6822.66
461.49	6766.49
461.67	6705.63
461.85	6747.76
462.04	6857.77
462.22	7162.04
462.40	6970.12
462.59	6754.79
462.77	6686.91
462.95	6944.37
463.13	6916.28
463.32	6942.03
463.50	7042.67
463.68	7026.29
463.86	6986.50
464.05	6949.05
464.23	6946.71
464.41	7180.76
464.59	7056.72
464.78	7258.00
464.96	7133.95
465.14	7007.56
465.32	7009.90
465.50	7187.79
465.69	7255.66
465.87	7169.06
466.05	7206.51
466.23	7307.15
466.41	7262.68
466.60	7428.86
466.78	7232.26
466.96	7276.73
467.14	7335.24
467.32	7218.21
467.51	7508.44
467.69	7178.42
467.87	7377.37
468.05	7456.95
468.23	7417.16
468.41	7417.16
468.60	7442.90
468.78	7407.80
468.96	7382.05
469.14	7627.81
469.32	7667.60
469.50	7520.14
469.69	7871.22
469.87	7805.69
470.05	7602.06
470.23	7770.58
470.41	7777.60
470.59	7810.37
470.77	7882.92
470.95	7857.18
471.14	8060.80
471.32	7864.20
471.50	7992.93
471.68	7908.67
471.86	7997.61
472.04	8065.49
472.22	8238.69
472.40	8168.47
472.58	8049.10
472.77	8421.25
472.95	8332.31
473.13	8519.55
473.31	8030.38
473.49	8339.33
473.67	8262.09
473.85	8280.82
474.03	8617.85
474.21	8451.67
474.39	8688.07
474.57	8580.40
474.75	8606.15
474.93	8580.40
475.12	8671.68
475.30	8863.61
475.48	8648.28
475.66	8739.56
475.84	8737.22
476.02	8943.19
476.20	8891.70
476.38	9144.47
476.56	9336.40
476.74	9242.78
476.92	9128.09
477.10	9219.37
477.28	9355.12
477.46	9401.93
477.64	9444.06
477.82	9558.75
478.00	9818.55
478.18	9750.67
478.36	9863.02
478.54	9844.29
478.72	10015.15
478.90	10015.15
479.08	10181.33
479.26	10319.42
479.44	10249.21
479.62	10293.68
479.80	10361.55
479.98	10450.49
480.16	10665.82
480.34	10590.92
480.52	10696.25
480.70	10647.10
480.88	10630.71
481.06	10761.78
481.24	10839.02
481.41	10764.12
481.59	11351.60
481.77	11281.38
481.95	11335.21
482.13	11335.21
482.31	11487.35
482.49	11529.48
482.67	11569.27
482.85	11545.86
483.03	11920.35
483.21	11604.38
483.39	11978.86
483.57	11737.79
483.74	11953.12
483.92	12049.08
484.10	11918.01
484.28	12379.09
484.46	12592.08
484.64	12688.04
484.82	12360.37
485.00	12875.29
485.18	12912.74
485.35	13163.17
485.53	13137.43
485.71	13198.28
485.89	13296.58
486.07	13483.83
486.25	13074.23
486.43	13640.64
486.61	13685.11
486.78	13841.93
486.96	13923.85
487.14	13954.27
487.32	13987.04
487.50	14111.09
487.68	14209.39
487.85	14586.22
488.03	14441.11
488.21	14501.96
488.39	14721.97
488.57	14857.72
488.75	14806.23
488.92	15173.69
489.10	15332.85
489.28	15330.51
489.46	15667.55
489.64	15187.74
489.81	15709.68
489.99	15758.83
490.17	15566.90
490.35	15786.91
490.53	16039.69
490.70	15953.09
490.88	15920.32
491.06	16350.98
491.24	15953.09
491.41	16011.60
491.59	16582.70
491.77	16765.26
491.95	16992.29
492.13	16734.83
492.30	16776.96
492.48	16837.81
492.66	16666.95
492.84	16837.81
493.01	17233.36
493.19	17486.14
493.37	17444.01
493.54	17502.53
493.72	17664.02
493.90	17542.32
494.08	17802.11
494.25	17970.63
494.43	18148.51
494.61	17898.08
494.79	18434.06
494.96	18059.57
495.14	18380.23
495.32	18466.83
495.49	18417.68
495.67	18611.94
495.85	18813.23
496.02	18759.39
496.20	18923.23
496.38	18803.86
496.55	18995.79
496.73	19686.25
496.91	19440.49
497.09	19510.71
497.26	19639.44
497.44	19398.36
497.62	19796.25
497.79	19999.88
497.97	20102.86
498.14	20229.25
498.32	20271.38
498.50	20219.89
498.67	20690.34
498.85	20109.88
499.03	20444.58
499.20	20334.57
499.38	20702.04
499.56	20954.82
499.73	20746.51
499.91	20980.56
500.08	20577.99
500.26	20870.56
500.44	21291.85
500.61	21266.11
500.79	21263.77
500.97	21312.92
501.14	21516.54
501.32	21425.26
501.49	21741.24
501.67	21790.39
501.84	21919.12
502.02	21830.18
502.20	21869.97
502.37	21720.17
502.55	22029.12
502.72	21965.93
502.90	22089.98
503.07	22178.92
503.25	22190.62
503.43	22094.66
503.60	22436.38
503.78	22656.39
503.95	21818.47
504.13	22682.13
504.30	22684.47
504.48	22764.05
504.65	22995.76
504.83	23171.30
505.01	23150.24
505.18	23124.49
505.36	23498.98
505.53	22965.34
505.71	23040.23
505.88	23339.82
506.06	23330.46
506.23	23208.75
506.41	23381.95
506.58	23489.62
506.76	23569.19
506.93	23838.36
507.11	24030.28
507.28	24151.99
507.46	23646.43
507.63	24088.79
507.81	24231.57
507.98	23669.84
508.16	24334.55
508.33	24135.60
508.50	24615.41
508.68	24444.56
508.85	24765.21
509.03	24467.96
509.20	24348.59
509.38	24673.93
509.55	24669.25
509.73	25221.61
509.90	25263.74
510.08	25069.48
510.25	25083.52
510.42	25230.98
510.60	25247.36
510.77	25149.06
510.95	25675.68
511.12	25399.49
511.30	25881.64
511.47	25572.69
511.64	25825.47
511.82	25699.08
511.99	25507.16
512.17	25680.36
512.34	25951.86
512.51	26022.08
512.69	26075.91
512.86	26082.93
513.04	26298.26
513.21	26284.22
513.38	26600.19
513.56	26150.81
513.73	26373.16
513.90	26719.56
514.08	26796.79
514.25	26845.94
514.43	26890.41
514.60	26579.12
514.77	26740.62
514.95	26874.03
515.12	26672.74
515.29	27049.57
515.47	27037.87
515.64	27529.38
515.81	26941.91
515.99	27475.55
516.16	27487.25
516.33	27440.44
516.51	27761.09
516.68	27873.44
516.85	27482.57
517.03	27623.00
517.20	27819.61
517.37	27964.72
517.54	28023.23
517.72	27894.50
517.89	27798.54
518.06	28102.81
518.24	28102.81
518.41	28257.29
518.58	28287.71
518.75	27983.44
518.93	28011.53
519.10	28013.87
519.27	27985.79
519.45	28364.95
519.62	28594.32
519.79	28802.63
519.96	28404.74
520.14	28514.75
520.31	28276.01
520.48	28858.81
520.65	28868.17
520.83	29331.59
521.00	28718.37
521.17	29193.50
521.34	28886.89
521.52	29202.86
521.69	28938.38
521.86	29371.38
522.03	29216.91
522.20	29696.72
522.38	29841.83
522.55	29516.50
522.72	29720.12
522.89	29778.64
523.07	29535.22
523.24	29542.24
523.41	29724.80
523.58	29633.52
523.75	30422.28
523.92	29855.87
524.10	30253.76
524.27	30085.25
524.44	30080.56
524.61	30298.23
524.78	30492.50
524.96	30323.98
525.13	30462.07
525.30	30789.75
525.47	30412.92
525.64	30583.78
525.81	30565.06
525.98	30401.22
526.16	30925.50
526.33	30850.60
526.50	30874.01
526.67	30749.96
526.84	31180.62
527.01	31122.10
527.18	30911.46
527.36	31047.21
527.53	31058.91
527.70	31070.61
527.87	31683.83
528.04	31363.18
528.21	31342.11
528.38	31400.63
528.55	31402.97
528.72	31400.63
528.89	31314.03
529.07	31517.65
529.24	31325.73
529.41	31496.59
529.58	31768.09
529.75	31791.50
529.92	31730.64
530.09	31681.49
530.26	31353.82
530.43	31573.83
530.60	31594.89
530.77	31812.56
530.94	32411.74
531.11	31875.76
531.28	31878.10
531.46	32173.00
531.63	32395.35
531.80	32357.91
531.97	32390.67
532.14	32524.08
532.31	32212.79
532.48	32229.18
532.65	32498.34
532.82	32477.27
532.99	32470.25
533.16	32507.70
533.33	32868.14
533.50	32638.77
533.67	32479.61
533.84	32456.21
534.01	32582.60
534.18	33048.36
534.35	33071.77
534.52	33139.65
534.69	33097.52
534.86	32996.87
535.03	33113.90
535.20	33097.52
535.37	33020.28
535.54	33654.56
535.71	33127.94
535.88	33275.40
536.05	33525.83
536.22	33558.60
536.38	33369.02
536.55	33617.11
536.72	33724.78
536.89	33572.64
537.06	33670.95
537.23	34050.11
537.40	33706.05
537.57	33663.93
537.74	33795.00
537.91	34216.29
538.08	34000.96
538.25	33605.41
538.42	34216.29
538.59	34213.95
538.75	33773.93
538.92	34185.86
539.09	34220.97
539.26	33935.43
539.43	34204.59
539.60	34541.63
539.77	34452.69
539.94	34824.83
540.11	34567.37
540.28	34927.81
540.44	34913.77
540.61	34628.23
540.78	34550.99
540.95	34714.83
541.12	34724.19
541.29	34834.19
541.46	35002.71
541.62	34955.90
541.79	35419.33
541.96	34782.70
542.13	34951.22
542.30	35342.09
542.47	35248.47
542.63	35028.46
542.80	35622.95
542.97	35896.80
543.14	35648.70
543.31	35335.07
543.48	35821.90
543.64	35817.22
543.81	35552.74
543.98	36060.63
544.15	35477.84
544.32	36016.16
544.48	36044.25
544.65	35889.77
544.82	36034.89
544.99	36114.47
545.16	35924.88
545.32	35997.44
545.49	36549.81
545.66	36823.65
545.83	36896.20
546.00	36680.88
546.16	36872.80
546.33	36608.32
546.50	36123.83
546.67	36362.56
546.83	35810.20
547.00	36453.84
547.17	35761.05
547.34	36067.66
547.50	36538.10
547.67	36573.21
547.84	36538.10
548.00	36641.09
548.17	36769.82
548.34	36980.46
548.51	36992.17
548.67	36584.91
548.84	36814.29
549.01	36807.26
549.18	36907.91
549.34	36964.08
549.51	36849.39
549.68	36837.69
549.84	37141.96
550.01	36711.30
550.18	36734.71
550.34	36872.80
550.51	36851.73
550.68	36760.45
550.84	36978.12
551.01	37179.41
551.18	36875.14
551.34	36781.52
551.51	36800.24
551.68	36978.12
551.84	36907.91
552.01	37017.91
552.18	36842.37
552.34	36900.89
552.51	37144.30
552.68	36992.17
552.84	37546.87
553.01	37394.74
553.18	37439.21
553.34	37699.01
553.51	37254.31
553.67	37378.36
553.84	37612.41
554.01	37764.54
554.17	37759.86
554.34	37729.44
554.51	37324.52
554.67	37675.60
554.84	37549.21
555.00	37457.93
555.17	37778.59
555.33	37371.33
555.50	37727.10
555.67	37273.03
555.83	37970.51
556.00	37684.97
556.16	38007.96
556.33	37701.35
556.50	37811.35
556.66	38160.09
556.83	37706.03
556.99	37919.02
557.16	38033.71
557.32	38419.89
557.49	38089.88
557.65	38234.99
557.82	38162.43
557.98	38057.11
558.15	37759.86
558.32	38164.78
558.48	37736.46
558.65	37839.44
558.81	38202.22
558.98	38253.72
559.14	38050.09
559.31	37904.98
559.47	38337.98
559.64	38129.67
559.80	38478.41
559.97	38581.39
560.13	37841.78
560.30	38340.32
560.46	38181.16
560.63	38859.91
560.79	38621.18
560.96	38703.10
561.12	38307.55
561.29	38532.24
561.45	38127.33
561.61	38490.11
561.78	38073.49
561.94	38710.12
562.11	38705.44
562.27	38967.58
562.44	38705.44
562.60	38724.16
562.77	38403.51
562.93	38452.66
563.10	39007.37
563.26	38462.02
563.42	38574.37
563.59	38916.09
563.75	38380.10
563.92	39084.61
564.08	38700.76
564.24	39012.05
564.41	38546.28
564.57	38600.12
564.74	38653.95
564.90	39309.30
565.07	39047.16
565.23	38815.44
565.39	39468.45
565.56	39309.30
565.72	38749.91
565.88	38981.62
566.05	39316.32
566.21	38595.43
566.38	38614.16
566.54	38424.57
566.70	39325.68
566.87	39578.46
567.03	38995.67
567.19	39643.99
567.36	39129.08
567.52	39133.76
567.68	39269.51
567.85	39180.57
568.01	39470.79
568.17	39178.23
568.34	39147.80
568.50	39112.69
568.66	39274.19
568.83	39952.94
568.99	39058.86
569.15	39491.86
569.32	39182.91
569.48	38770.97
569.64	39145.46
569.81	39070.56
569.97	38719.48
570.13	39335.04
570.30	39119.71
570.46	39051.84
570.62	39646.33
570.78	38923.11
570.95	38899.70
571.11	39739.96
571.27	39297.59
571.43	38906.73
571.60	38902.04
571.76	39452.07
571.92	39203.97
572.09	39550.37
572.25	39290.57
572.41	39550.37
572.57	39533.99
572.74	40009.12
572.90	39423.98
573.06	39658.04
573.22	39117.37
573.38	39660.38
573.55	39400.58
573.71	39952.94
573.87	39431.01
574.03	39386.54
574.20	39569.10
574.36	39569.10
574.52	39274.19
574.68	39220.36
574.84	40140.19
575.01	39660.38
575.17	39875.71
575.33	39363.13
575.49	39519.95
575.65	39576.12
575.82	40048.91
575.98	39290.57
576.14	39791.45
576.30	40144.87
576.46	39337.38
576.62	39372.49
576.79	39321.00
576.95	39058.86
577.11	39475.48
577.27	40318.07
577.43	39866.34
577.59	39894.43
577.75	39761.02
577.92	39641.65
578.08	39754.00
578.24	39704.85
578.40	40051.25
578.56	39737.62
578.72	39725.91
578.88	39828.90
579.04	39845.28
579.21	39531.65
579.37	39866.34
579.53	39957.63
579.69	39388.88
579.85	40175.30
580.01	40048.91
580.17	40076.99
580.33	39786.77
580.49	39739.96
580.65	40182.32
580.82	39882.73
580.98	40018.48
581.14	39927.20
581.30	39634.63
581.46	39938.90
581.62	39854.64
581.78	39700.17
581.94	40177.64
582.10	39503.56
582.26	40313.39
582.42	39597.18
582.58	39995.07
582.74	39931.88
582.90	39887.41
583.06	39676.76
583.22	39735.27
583.38	39683.78
583.54	39358.45
583.70	39526.97
583.86	40194.02
584.02	39798.47
584.18	40287.64
584.34	39934.22
584.50	40233.81
584.66	39316.32
584.82	39964.65
584.98	40133.17
585.14	39838.26
585.30	40378.92
585.46	39803.15
585.62	40069.97
585.78	40540.42
585.94	39632.29
586.10	40301.68
586.26	40198.70
586.42	40280.62
586.58	39901.45
586.74	40371.90
586.90	39913.16
587.06	40177.64
587.22	40629.36
587.38	39929.54
587.54	40219.77
587.70	41034.27
587.86	40285.30
588.02	40514.67
588.18	40275.94
588.34	39955.29
588.49	39777.40
588.65	39878.05
588.81	40285.30
588.97	40421.05
589.13	40264.24
589.29	40570.85
589.45	40376.58
589.61	40404.67
589.77	40535.74
589.93	39997.41
590.08	40594.25
590.24	40505.31
590.40	40414.03
590.56	39988.05
590.72	40266.58
590.88	39908.47
591.04	40264.24
591.20	40657.45
591.35	40587.23
591.51	41130.23
591.67	40818.94
591.83	40786.18
591.99	40538.08
592.15	40818.94
592.31	40191.68
592.46	40594.25
592.62	40697.24
592.78	40732.34
592.94	40603.61
593.10	40219.77
593.26	40788.52
593.41	40737.02
593.57	40453.82
593.73	40989.80
593.89	41099.81
594.05	40694.89
594.20	40130.83
594.36	40638.72
594.52	40257.21
594.68	40732.34
594.84	40517.01
594.99	40968.74
595.15	40683.19
595.31	40889.16
595.47	40631.70
595.62	40769.79
595.78	40568.51
595.94	40598.93
596.10	40505.31
596.25	40367.22
596.41	40933.63
596.57	40187.00
596.73	40205.72
596.88	40299.34
597.04	40694.89
597.20	40540.42
597.36	40746.39
597.51	40779.15
597.67	40584.89
597.83	40655.11
597.99	41022.57
598.14	40542.76
598.30	40737.02
598.46	40500.63
598.61	40629.36
598.77	40472.54
598.93	40620.00
599.09	40666.81
599.24	40842.35
599.40	40858.73
599.56	40807.24
599.71	41060.02
599.87	40512.33
600.03	40666.81
600.18	40811.92
600.34	40818.94
600.50	40935.97
600.65	40430.41
600.81	41148.96
600.97	40989.80
601.12	40751.07
601.28	40444.46
601.44	41048.32
601.59	40392.97
601.75	40470.20
601.91	40664.47
602.06	40552.12
602.22	40737.02
602.37	40603.61
602.53	40734.68
602.69	40889.16
602.84	40837.67
603.00	41067.04
603.16	40821.28
603.31	40898.52
603.47	40692.55
603.62	40325.09
603.78	40741.71
603.94	40243.17
604.09	40428.07
604.25	40818.94
604.40	40996.82
604.56	40334.45
604.71	40999.16
604.87	40444.46
605.03	40706.60
605.18	40514.67
605.34	40388.28
605.49	40540.42
605.65	40411.69
605.80	40428.07
605.96	40446.80
606.12	40517.01
606.27	41209.81
606.43	40840.01
606.58	41067.04
606.74	40563.82
606.89	40760.43
607.05	40678.51
607.20	40039.54
607.36	40308.71
607.51	40573.19
607.67	40821.28
607.82	40566.16
607.98	40898.52
608.13	40655.11
608.29	40807.24
608.44	40540.42
608.60	40648.08
608.75	40240.83
608.91	40753.41
609.06	40566.16
609.22	40802.56
609.37	39824.22
609.53	40175.30
609.68	40643.40
609.84	40175.30
609.99	40861.07
610.15	40849.37
610.30	40828.30
610.46	41001.50
610.61	40692.55
610.76	41139.60
610.92	41467.27
611.07	41448.55
611.23	41219.17
611.38	41488.34
611.54	41539.83
611.69	41429.82
611.84	41359.61
612.00	41132.57
612.15	41045.97
612.31	40699.58
612.46	40708.94
612.62	40533.40
612.77	40402.33
612.92	40828.30
613.08	40655.11
613.23	39899.11
613.39	40411.69
613.54	40198.70
613.69	40467.86
613.85	40226.79
614.00	40479.57
614.15	40229.13
614.31	40437.44
614.46	40577.87
614.62	40215.08
614.77	39899.11
614.92	40020.82
615.08	39735.27
615.23	39686.12
615.38	40062.95
615.54	39601.86
615.69	39711.87
615.84	39927.20
616.00	40170.61
616.15	39618.25
616.30	40140.19
616.46	40091.04
616.61	39746.98
616.76	39384.19
616.92	39337.38
617.07	39878.05
617.22	39042.48
617.37	39250.78
617.53	39379.51
617.68	39400.58
617.83	39332.70
617.99	39728.25
618.14	40215.08
618.29	39409.94
618.45	39587.82
618.60	39077.58
618.75	39548.03
618.90	38672.67
619.06	38909.07
619.21	39051.84
619.36	39154.82
619.51	38738.21
619.67	38937.15
619.82	39452.07
619.97	38815.44
620.12	39402.92
620.28	39290.57
620.43	39236.74
620.58	39662.72
620.73	39356.11
620.89	38679.69
621.04	39152.48
621.19	38625.86
621.34	39103.33
621.49	39086.95
621.65	38880.98
621.80	39360.79
621.95	38904.38
622.10	39206.31
622.25	38724.16
622.41	38815.44
622.56	39302.28
622.71	38876.30
622.86	38801.40
623.01	38345.00
623.16	38279.46
623.32	38452.66
623.47	38323.93
623.62	39014.39
623.77	38787.36
623.92	38993.32
624.07	39026.09
624.23	39173.55
624.38	39166.52
624.53	38920.77
624.68	38682.03
624.83	38897.36
624.98	38536.92
625.13	38169.46
625.29	38380.10
625.44	38293.50
625.59	38426.92
625.74	38087.54
625.89	38405.85
626.04	38192.86
626.19	38244.35
626.34	38153.07
626.49	38431.60
626.65	38382.45
626.80	38525.22
626.95	38066.47
627.10	37640.50
627.25	37612.41
627.40	37907.32
627.55	37949.45
627.70	37876.89
627.85	38113.28
628.00	38122.65
628.15	37961.15
628.30	37516.45
628.45	37841.78
628.60	37879.23
628.76	38068.81
628.91	37923.70
629.06	37748.16
629.21	37586.66
629.36	37708.37
629.51	37982.21
629.66	37652.20
629.81	37619.43
629.96	37413.46
630.11	37546.87
630.26	37570.28
630.41	37654.54
630.56	37614.75
630.71	38068.81
630.86	37497.72
631.01	37972.85
631.16	37715.39
631.31	37436.87
631.46	37001.53
631.61	37626.45
631.76	37376.01
631.91	37553.90
632.06	37160.69
632.21	37291.76
632.36	37165.37
632.51	37338.57
632.66	37294.10
632.81	37130.26
632.96	37324.52
633.10	37167.71
633.25	37132.60
633.40	37317.50
633.55	37287.07
633.70	36704.28
633.85	36905.57
634.00	36823.65
634.15	36807.26
634.30	37385.38
634.45	37022.59
634.60	37219.20
634.75	37097.49
634.90	36634.06
635.05	36891.52
635.19	36772.16
635.34	36739.39
635.49	36875.14
635.64	37127.92
635.79	36950.04
635.94	36488.95
636.09	36561.51
636.24	36486.61
636.39	36786.20
636.53	36718.32
636.68	36245.54
636.83	36404.69
636.98	36940.68
637.13	36624.70
637.28	36718.32
637.43	36051.27
637.57	35964.67
637.72	36077.02
637.87	35864.03
638.02	36409.37
638.17	36652.79
638.32	35852.33
638.46	36182.34
638.61	36128.51
638.76	36348.52
638.91	36587.25
639.06	36505.34
639.20	36734.71
639.35	36507.68
639.50	36133.19
639.65	36191.70
639.80	36203.41
639.94	36182.34
640.09	35578.48
640.24	35854.67
640.39	36004.46
640.54	35941.27
640.68	36306.39
640.83	36034.89
640.98	35660.40
641.13	35810.20
641.27	36006.80
641.42	35889.77
641.57	35915.52
641.72	35854.67
641.86	35611.25
642.01	35438.05
642.16	35335.07
642.31	35288.26
642.45	36100.42
642.60	35674.45
642.75	35314.00
642.90	36002.12
643.04	35578.48
643.19	35658.06
643.34	36168.30
643.48	35854.67
643.63	35716.58
643.78	35290.60
643.93	35292.94
644.07	35398.26
644.22	35189.95
644.37	35311.66
644.51	35349.11
644.66	35477.84
644.81	35101.01
644.95	35557.42
645.10	35573.80
645.25	35295.28
645.39	35669.76
645.54	35510.61
645.69	35351.45
645.83	35459.12
645.98	35440.39
646.13	35454.44
646.27	35470.82
646.42	35707.21
646.57	35386.56
646.71	35196.98
646.86	35049.52
647.00	35061.22
647.15	35147.82
647.30	35653.38
647.44	34796.74
647.59	35077.61
647.74	34822.49
647.88	35138.46
648.03	35110.38
648.17	34937.18
648.32	34696.10
648.47	35152.51
648.61	34841.21
648.76	35016.75
648.90	34895.05
649.05	35096.33
649.20	34675.04
649.34	35260.17
649.49	35178.25
649.63	34895.05
649.78	35288.26
649.92	34976.97
650.07	34766.32
650.21	34731.21
650.36	34969.94
650.51	34583.76
650.65	34895.05
650.80	35093.99
650.94	34646.95
651.09	34677.38
651.23	34841.21
651.38	34429.28
651.52	34225.65
651.67	34848.24
651.81	34410.56
651.96	34501.84
652.10	34576.73
652.25	34178.84
652.39	34490.13
652.54	34057.14
652.68	33706.05
652.83	34223.31
652.97	34323.96
653.12	33659.24
653.26	34232.68
653.41	34485.45
653.55	34658.65
653.70	34082.88
653.84	34110.97
653.99	33844.15
654.13	33855.85
654.27	33617.11
654.42	33401.79
654.56	33514.13
654.71	33968.19
654.85	33942.45
655.00	34256.08
655.14	33862.87
655.29	33675.63
655.43	33862.87
655.57	33401.79
655.72	33354.97
655.86	33694.35
656.01	33628.82
656.15	33724.78
656.30	33563.28
656.44	33912.02
656.58	33556.26
656.73	33668.61
656.87	33493.07
657.01	33479.02
657.16	33769.25
657.30	33680.31
657.45	33216.88
657.59	33205.18
657.73	33149.01
657.88	33273.06
658.02	33106.88
658.16	33642.86
658.31	33684.99
658.45	33331.57
658.60	33170.07
658.74	33041.34
658.88	33193.48
659.03	32987.51
659.17	32701.96
659.31	32673.88
659.46	32933.68
659.60	32865.80
659.74	32790.91
659.89	32851.76
660.03	33085.81
660.17	32936.02
660.32	32643.45
660.46	32608.34
660.60	32748.78
660.74	32795.59
660.89	31967.04
661.03	32407.06
661.17	32294.71
661.32	32112.15
661.46	32510.04
661.60	32652.81
661.74	32128.53
661.89	32224.50
662.03	32308.76
662.17	32147.26
662.31	31995.12
662.46	32219.81
662.60	31899.16
662.74	31917.89
662.88	31992.78
663.03	32257.26
663.17	31967.04
663.31	31957.67
663.45	31995.12
663.60	31770.43
663.74	31543.40
663.88	31405.31
664.02	31683.83
664.17	31894.48
664.31	31405.31
664.45	31115.08
664.59	31512.97
664.73	31510.63
664.88	31447.44
665.02	30953.58
665.16	31662.77
665.30	31321.05
665.44	31061.25
665.59	30756.98
665.73	30993.37
665.87	30974.65
666.01	30649.32
666.15	30710.17
666.29	30670.38
666.44	31058.91
666.58	30494.84
666.72	30347.39
666.86	30930.18
667.00	30829.54
667.14	30576.76
667.28	30665.70
667.43	30834.22
667.57	30611.87
667.71	30857.62
667.85	30792.09
667.99	30782.73
668.13	30459.73
668.27	30455.05
668.41	30473.78
668.56	30087.59
668.70	30209.29
668.84	29764.59
668.98	29820.77
669.12	29741.19
669.26	29525.86
669.40	29890.98
669.54	30120.35
669.68	29984.60
669.82	29921.41
669.96	29916.73
670.10	29930.77
670.25	29865.24
670.39	29387.77
670.53	29551.60
670.67	29359.68
670.81	29570.33
670.95	29373.72
671.09	29355.00
671.23	29542.24
671.37	29273.08
671.51	29544.58
671.65	29659.27
671.79	29553.94
671.93	29607.78
672.07	29418.19
672.21	28865.83
672.35	29427.56
672.49	29046.05
672.63	28664.54
672.77	28891.57
672.91	28891.57
673.05	28538.15
673.19	28559.22
673.33	28353.25
673.47	28498.36
673.61	28119.20
673.75	28559.22
673.89	28379.00
674.03	28128.56
674.17	28140.26
674.31	28425.81
674.45	28273.67
674.59	28252.61
674.73	28268.99
674.87	28285.37
675.01	27491.93
675.15	27901.53
675.29	28084.09
675.43	27498.95
675.56	28037.28
675.70	27604.28
675.84	27147.87
675.98	26328.69
676.12	27250.86
676.26	27367.88
676.40	27292.99
676.54	27215.75
676.68	27501.29
676.82	26916.16
676.96	27407.67
677.10	27204.05
677.23	26829.56
677.37	27051.91
677.51	26384.86
677.65	26333.37
677.79	25998.67
677.93	26466.78
678.07	26256.13
678.21	26396.56
678.34	26148.46
678.48	26026.76
678.62	26078.25
678.76	25631.21
678.90	25874.62
679.04	25949.52
679.18	25759.94
679.31	25151.40
679.45	25642.91
679.59	25949.52
679.73	25783.34
679.87	25572.69
680.00	24968.84
680.14	25420.56
680.28	25053.09
680.42	24919.68
680.56	25296.51
680.70	24865.85
680.83	24741.80
680.97	24400.08
681.11	24751.17
681.25	24751.17
681.39	24449.24
681.52	24594.35
681.66	24603.71
681.80	24273.70
681.94	24423.49
682.07	24243.27
682.21	24332.21
682.35	24109.86
682.49	24013.90
682.62	24074.75
682.76	24044.32
682.90	23655.79
683.04	23498.98
683.17	23690.90
683.31	23564.51
683.45	23506.00
683.59	23419.40
683.72	23702.61
683.86	23274.29
684.00	23269.61
684.13	22927.89
684.27	22815.54
684.41	22576.81
684.55	22867.03
684.68	22946.61
684.82	22618.94
684.96	22742.99
685.09	22860.01
685.23	22574.47
685.37	22876.40
685.50	22604.89
685.64	22267.86
685.78	22281.90
685.91	22157.85
686.05	22307.65
686.19	21956.57
686.32	22101.68
686.46	21970.61
686.60	21867.63
686.73	21916.78
686.87	22029.12
687.01	22061.89
687.14	21727.19
687.28	21553.99
687.42	21514.20
687.55	21298.88
687.69	21228.66
687.82	21242.70
687.96	21198.23
688.10	21296.53
688.23	21186.53
688.37	21099.93
688.50	21018.01
688.64	20676.29
688.78	20926.73
688.91	20922.05
689.05	20655.23
689.18	20704.38
689.32	20404.79
689.46	20631.82
689.59	20203.50
689.73	20240.95
689.86	19999.88
690.00	20091.16
690.13	20039.67
690.27	19976.47
690.41	20121.59
690.54	19625.39
690.68	19641.78
690.81	19819.66
690.95	19721.35
691.08	19793.91
691.22	19260.27
691.35	19234.52
691.49	19510.71
691.62	19152.60
691.76	19323.46
691.89	19447.51
692.03	19407.72
692.16	19344.53
692.30	19094.09
692.43	18834.29
692.57	18565.13
692.70	18654.07
692.84	18747.69
692.97	18403.63
693.11	18710.24
693.24	18331.08
693.38	18281.92
693.51	18295.97
693.65	18317.03
693.78	18342.78
693.92	18380.23
694.05	18085.32
694.19	17841.90
694.32	18225.75
694.45	18115.75
694.59	18122.77
694.72	17759.98
694.86	17612.53
694.99	17369.12
695.13	17628.92
695.26	17561.04
695.39	17525.93
695.53	17462.74
695.66	17268.47
695.80	17151.45
695.93	16833.13
696.07	16666.95
696.20	17116.34
696.33	17188.89
696.47	16856.54
696.60	16982.93
696.73	16592.06
696.87	16760.58
697.00	16833.13
697.14	16608.44
697.27	16243.32
697.40	16437.58
697.54	16156.72
697.67	16130.97
697.80	15971.82
697.94	16049.05
698.07	15798.62
698.21	15917.98
698.34	16056.08
698.47	15786.91
698.61	15370.30
698.74	15536.48
698.87	15466.26
699.01	15452.22
699.14	15536.48
699.27	15714.36
699.40	15758.83
699.54	15948.41
699.67	15421.79
699.80	15227.53
699.94	15110.50
700.07	14787.50
700.20	14789.85
700.34	14759.42
700.47	14913.89
700.60	14995.81
700.73	14839.00
700.87	14878.79
701.00	14565.15
701.13	14300.67
701.26	14457.49
701.40	14518.34
701.53	14284.29
701.66	14190.67
701.79	14204.71
701.93	14195.35
702.06	14005.77
702.19	14050.24
702.32	14059.60
702.46	13991.72
702.59	13734.26
702.72	13575.11
702.85	13675.75
702.99	13685.11
703.12	13727.24
703.25	13624.26
703.38	13355.10
703.51	13418.29
703.65	13266.16
703.78	13493.19
703.91	13408.93
704.04	13481.49
704.17	13289.56
704.31	13125.72
704.44	13060.19
704.57	12863.58
704.70	12716.13
704.83	12608.47
704.96	12395.48
705.10	12767.62
705.23	12475.06
>>>>>End Processed Spectral Data<<<<<
