SpectraSuite Data File
++++++++++++++++++++++++++++++++++++
Date: Thu Oct 24 13:21:17 EDT 2013
User: stostad
Dark Spectrum Present: No
Reference Spectrum Present: No
Number of Sampled Component Spectra: 1
Spectrometers: USB2+H05261
Integration Time (usec): 100000 (USB2+H05261)
Spectra Averaged: 1 (USB2+H05261)
Boxcar Smoothing: 0 (USB2+H05261)
Correct for Electrical Dark: No (USB2+H05261)
Strobe/Lamp Enabled: No (USB2+H05261)
Correct for Detector Non-linearity: No (USB2+H05261)
Correct for Stray Light: No (USB2+H05261)
Number of Pixels in Processed Spectrum: 2048
>>>>>Begin Processed Spectral Data<<<<<
365.73	521.94
365.92	521.94
366.12	521.94
366.32	503.22
366.52	447.04
366.72	470.45
366.91	433.00
367.11	500.87
367.31	447.04
367.51	440.02
367.70	447.04
367.90	463.43
368.10	463.43
368.30	440.02
368.49	456.40
368.69	433.00
368.89	491.51
369.09	505.56
369.28	482.15
369.48	514.92
369.68	442.36
369.87	503.22
370.07	540.66
370.27	554.71
370.47	596.84
370.66	706.84
370.86	807.48
371.06	779.40
371.25	826.21
371.45	821.53
371.65	863.66
371.84	826.21
372.04	882.38
372.24	847.27
372.44	819.19
372.63	837.91
372.83	880.04
373.03	875.36
373.22	840.25
373.42	877.70
373.62	880.04
373.81	910.47
374.01	915.15
374.21	922.17
374.40	866.00
374.60	950.26
374.79	943.24
374.99	933.87
375.19	837.91
375.38	992.39
375.58	950.26
375.78	959.62
375.97	971.32
376.17	901.11
376.37	976.00
376.56	915.15
376.76	966.64
376.95	1006.43
377.15	1041.54
377.35	929.19
377.54	985.37
377.74	1001.75
377.93	936.21
378.13	990.05
378.33	931.53
378.52	966.64
378.72	954.94
378.91	994.73
379.11	947.92
379.31	994.73
379.50	994.73
379.70	1083.67
379.89	1053.24
380.09	1013.45
380.28	997.07
380.48	1043.88
380.68	1022.81
380.87	1008.77
381.07	999.41
381.26	1055.58
381.46	1046.22
381.65	1055.58
381.85	1064.94
382.04	1039.20
382.24	1008.77
382.43	1053.24
382.63	1060.26
382.83	1071.97
383.02	1029.84
383.22	1081.33
383.41	1064.94
383.61	1071.97
383.80	1130.48
384.00	1022.81
384.19	1064.94
384.39	1013.45
384.58	1135.16
384.78	1132.82
384.97	1100.05
385.17	1074.31
385.36	1102.39
385.56	1125.80
385.75	1135.16
385.95	1114.10
386.14	1123.46
386.34	1123.46
386.53	1111.75
386.72	1076.65
386.92	1034.52
387.11	1153.88
387.31	1132.82
387.50	1088.35
387.70	1118.78
387.89	1172.61
388.09	1224.10
388.28	1172.61
388.48	1149.20
388.67	1179.63
388.86	1172.61
389.06	1118.78
389.25	1184.31
389.45	1263.89
389.64	1193.67
389.84	1238.14
390.03	1315.38
390.22	1266.23
390.42	1268.57
390.61	1231.12
390.81	1270.91
391.00	1252.19
391.19	1282.61
391.39	1224.10
391.58	1313.04
391.78	1334.11
391.97	1343.47
392.16	1198.35
392.36	1334.11
392.55	1390.28
392.75	1327.08
392.94	1273.25
393.13	1364.53
393.33	1352.83
393.52	1399.64
393.71	1399.64
393.91	1399.64
394.10	1327.08
394.29	1355.17
394.49	1338.79
394.68	1430.07
394.88	1371.55
395.07	1420.71
395.26	1406.66
395.46	1411.34
395.65	1451.13
395.84	1474.54
396.04	1474.54
396.23	1331.76
396.42	1490.92
396.62	1392.62
396.81	1434.75
397.00	1413.68
397.19	1495.60
397.39	1465.18
397.58	1493.26
397.77	1526.03
397.97	1460.49
398.16	1493.26
398.35	1575.18
398.55	1479.22
398.74	1603.27
398.93	1535.39
399.12	1579.86
399.32	1416.02
399.51	1568.16
399.70	1582.20
399.90	1483.90
400.09	1502.62
400.28	1610.29
400.47	1619.65
400.67	1605.61
400.86	1636.03
401.05	1629.01
401.24	1764.76
401.44	1734.34
401.63	1692.21
401.82	1654.76
402.01	1703.91
402.21	1678.16
402.40	1694.55
402.59	1743.70
402.78	1654.76
402.97	1715.61
403.17	1764.76
403.36	1785.83
403.55	1816.26
403.74	1778.81
403.93	1788.17
404.13	1909.88
404.32	1823.28
404.51	1839.66
404.70	1900.52
404.89	1797.53
405.09	1886.47
405.28	1806.89
405.47	1905.20
405.66	2005.84
405.85	1968.39
406.05	1935.62
406.24	1937.96
406.43	2026.90
406.62	1987.11
406.81	2038.61
407.00	1952.01
407.20	1980.09
407.39	1994.14
407.58	2036.27
407.77	1996.48
407.96	2052.65
408.15	2118.18
408.34	2031.58
408.54	2050.31
408.73	2204.78
408.92	2113.50
409.11	2026.90
409.30	2146.27
409.49	2101.80
409.68	2176.70
409.87	2214.15
410.07	2305.43
410.26	2232.87
410.45	2160.31
410.64	2246.91
410.83	2211.81
411.02	2342.88
411.21	2408.41
411.40	2286.70
411.59	2286.70
411.78	2326.49
411.98	2373.30
412.17	2469.27
412.36	2429.48
412.55	2403.73
412.74	2555.86
412.93	2480.97
413.12	2518.42
413.31	2525.44
413.50	2457.56
413.69	2527.78
413.88	2602.68
414.07	2605.02
414.26	2523.10
414.45	2745.45
414.64	2682.25
414.83	2476.29
415.02	2771.19
415.22	2841.41
415.41	2754.81
415.60	2712.68
415.79	2757.15
415.98	2750.13
416.17	2785.24
416.36	2878.86
416.55	2780.56
416.74	2939.71
416.93	2843.75
417.12	2895.24
417.31	2953.76
417.50	2906.95
417.69	2979.50
417.88	2967.80
418.07	2958.44
418.26	2963.12
418.45	2864.82
418.64	3063.76
418.83	2963.12
419.02	2953.76
419.21	3049.72
419.39	3105.89
419.58	3045.04
419.77	2967.80
419.96	3157.38
420.15	3133.98
420.34	3215.90
420.53	3070.78
420.72	3211.22
420.91	3328.24
421.10	3316.54
421.29	3243.98
421.48	3159.72
421.67	3384.41
421.86	3227.60
422.05	3274.41
422.24	3300.16
422.43	3468.67
422.61	3365.69
422.80	3377.39
422.99	3398.46
423.18	3335.26
423.37	3372.71
423.56	3389.10
423.75	3403.14
423.94	3248.66
424.13	3091.85
424.32	3201.85
424.50	3391.44
424.69	3393.78
424.88	3438.25
425.07	3515.48
425.26	3393.78
425.45	3417.18
425.64	3269.73
425.83	3318.88
426.01	3419.52
426.20	3342.28
426.39	3503.78
426.58	3417.18
426.77	3569.32
426.96	3501.44
427.15	3389.10
427.33	3489.74
427.52	3552.93
427.71	3597.40
427.90	3576.34
428.09	3672.30
428.28	3566.98
428.46	3716.77
428.65	3658.26
428.84	3707.41
429.03	3742.52
429.22	3545.91
429.40	3550.59
429.59	3735.50
429.78	3637.19
429.97	3566.98
430.16	3667.62
430.34	3810.39
430.53	3761.24
430.72	3742.52
430.91	3772.94
431.10	3702.73
431.28	3779.97
431.47	3882.95
431.66	3803.37
431.85	3700.39
432.03	3833.80
432.22	3981.25
432.41	3985.93
432.60	3995.29
432.79	3925.08
432.97	3948.48
433.16	3943.80
433.35	3918.06
433.54	4011.68
433.72	3955.51
433.91	4070.19
434.10	4236.37
434.28	4086.58
434.47	4184.88
434.66	4140.41
434.85	4152.11
435.03	4313.61
435.22	4355.74
435.41	4500.85
435.59	4550.00
435.78	4503.19
435.97	4418.93
436.16	4388.50
436.34	4365.10
436.53	4259.78
436.72	4489.15
436.90	4243.39
437.09	4337.01
437.28	4276.16
437.46	4278.50
437.65	4348.72
437.84	4367.44
438.02	4278.50
438.21	4276.16
438.40	4432.97
438.58	4517.23
438.77	4550.00
438.96	4456.38
439.14	4601.49
439.33	4713.84
439.52	4706.82
439.70	4741.93
439.89	4889.38
440.08	4744.27
440.26	4823.84
440.45	4954.91
440.63	4774.69
440.82	4800.44
441.01	4887.04
441.19	4898.74
441.38	5020.45
441.57	5081.30
441.75	4978.32
441.94	4971.30
442.12	4975.98
442.31	5167.90
442.50	5025.13
442.68	5027.47
442.87	5128.11
443.05	5228.76
443.24	5224.08
443.43	5144.50
443.61	5291.95
443.80	5509.62
443.98	5205.35
444.17	4943.21
444.35	5296.63
444.54	5210.03
444.73	5282.59
444.91	5228.76
445.10	5289.61
445.28	5504.94
445.47	5343.44
445.65	5231.10
445.84	5282.59
446.02	5444.09
446.21	5305.99
446.39	5263.86
446.58	5427.70
446.77	5310.68
446.95	5392.59
447.14	5472.17
447.32	5530.69
447.51	5266.21
447.69	5392.59
447.88	5418.34
448.06	5343.44
448.25	5467.49
448.43	5362.17
448.62	5593.88
448.80	5383.23
448.99	5495.58
449.17	5734.31
449.36	5617.29
449.54	5528.35
449.73	5664.10
449.91	5650.05
450.10	5621.97
450.28	5914.53
450.46	5767.08
450.65	5680.48
450.83	5870.06
451.02	5844.32
451.20	5891.13
451.39	5851.34
451.57	5706.23
451.76	5797.51
451.94	5851.34
452.13	6036.24
452.31	5813.89
452.49	5788.14
452.68	5820.91
452.86	5996.45
453.05	6033.90
453.23	5959.00
453.42	5921.56
453.60	5980.07
453.78	5916.87
453.97	5905.17
454.15	5930.92
454.34	5935.60
454.52	6099.44
454.70	6038.58
454.89	6043.26
455.07	6019.86
455.26	6167.31
455.44	6188.38
455.62	6211.78
455.81	6176.67
455.99	6340.51
456.17	6384.98
456.36	6289.02
456.54	6576.91
456.73	6523.07
456.91	6541.80
457.09	6626.06
457.28	6623.72
457.46	6506.69
457.64	6682.23
457.83	6504.35
458.01	6370.94
458.19	6656.48
458.38	6422.43
458.56	6815.64
458.74	6438.81
458.93	6640.10
459.11	6693.93
459.29	6614.35
459.48	6747.76
459.66	6583.93
459.84	6691.59
460.03	6810.96
460.21	6768.83
460.39	6731.38
460.57	6925.65
460.76	6944.37
460.94	6839.05
461.12	6867.13
461.31	6825.00
461.49	7070.76
461.67	6956.07
461.85	7023.95
462.04	7040.33
462.22	7424.18
462.40	7185.44
462.59	6993.52
462.77	7255.66
462.95	7178.42
463.13	7283.75
463.32	7269.70
463.50	7272.04
463.68	7243.96
463.86	7239.28
464.05	7124.59
464.23	7293.11
464.41	7145.66
464.59	7414.82
464.78	7564.61
464.96	7316.51
465.14	7337.58
465.32	7307.15
465.50	7403.11
465.69	7592.70
465.87	7470.99
466.05	7623.12
466.23	7461.63
466.41	7527.16
466.60	7702.70
466.78	7417.16
466.96	7616.10
467.14	7765.90
467.32	7662.91
467.51	7791.64
467.69	7648.87
467.87	7470.99
468.05	7896.97
468.23	7573.97
468.41	7632.49
468.60	7793.98
468.78	7808.03
468.96	7859.52
469.14	7822.07
469.32	7896.97
469.50	7829.09
469.69	8028.04
469.87	7990.59
470.05	8004.63
470.23	8128.68
470.41	8271.45
470.59	8180.17
470.77	7992.93
470.95	8184.85
471.14	8318.26
471.32	7915.69
471.50	8159.11
471.68	8245.71
471.86	8292.52
472.04	8470.40
472.22	8491.46
472.40	8224.64
472.58	8549.98
472.77	8397.84
472.95	8547.64
473.13	8772.33
473.31	8594.45
473.49	8540.61
473.67	8713.81
473.85	8669.34
474.03	8772.33
474.21	8795.73
474.39	8795.73
474.57	9085.96
474.75	8840.20
474.93	9109.36
475.12	9034.47
475.30	9261.50
475.48	9146.81
475.66	9291.93
475.84	9121.07
476.02	9191.28
476.20	9341.08
476.38	9511.94
476.56	9706.20
476.74	9589.17
476.92	9504.92
477.10	9596.20
477.28	9795.14
477.46	9792.80
477.64	9830.25
477.82	9926.21
478.00	10078.35
478.18	10033.88
478.36	10375.59
478.54	10183.67
478.72	10347.51
478.90	10373.25
479.08	10338.15
479.26	10595.61
479.44	10609.65
479.62	10700.93
479.80	10759.44
479.98	11014.56
480.16	11180.74
480.34	10677.52
480.52	11185.42
480.70	11274.36
480.88	10956.05
481.06	11094.14
481.24	11248.61
481.41	11349.26
481.59	11398.41
481.77	11555.22
481.95	11829.07
482.13	11786.94
482.31	11894.60
482.49	12039.72
482.67	11934.39
482.85	12131.00
483.03	12395.48
483.21	12203.55
483.39	12468.03
483.57	12138.02
483.74	12428.24
483.92	12601.44
484.10	12379.09
484.28	12638.89
484.46	13062.53
484.64	13149.13
484.82	12765.28
485.00	13231.05
485.18	13373.82
485.35	13481.49
485.53	13654.69
485.71	13591.49
485.89	13642.98
486.07	13818.52
486.25	13736.60
486.43	14106.41
486.61	14017.47
486.78	14274.93
486.96	14281.95
487.14	14806.23
487.32	14506.64
487.50	14633.03
487.68	14714.95
487.85	14853.04
488.03	15115.18
488.21	15279.02
488.39	15096.46
488.57	15346.89
488.75	15250.93
488.92	15599.67
489.10	15499.03
489.28	15793.94
489.46	16018.63
489.64	15971.82
489.81	16163.74
489.99	16180.12
490.17	16210.55
490.35	16535.88
490.53	16580.36
490.70	16582.70
490.88	16556.95
491.06	16973.56
491.24	16863.56
491.41	17343.37
491.59	17116.34
491.77	17310.60
491.95	17329.33
492.13	17202.94
492.30	17479.12
492.48	17657.00
492.66	17642.96
492.84	17752.96
493.01	18230.43
493.19	17881.69
493.37	18134.47
493.54	18345.12
493.72	18317.03
493.90	18057.23
494.08	18511.30
494.25	18752.37
494.43	18789.82
494.61	18710.24
494.79	18888.12
494.96	18642.37
495.14	18956.00
495.32	19344.53
495.49	19239.20
495.67	19470.92
495.85	19765.82
496.02	19660.50
496.20	19688.59
496.38	19836.04
496.55	19871.15
496.73	20198.82
496.91	19810.29
497.09	20306.49
497.26	20472.67
497.44	20140.31
497.62	20456.28
497.79	20753.53
497.97	20711.40
498.14	21207.59
498.32	21003.97
498.50	21172.49
498.67	21460.37
498.85	21151.42
499.03	21254.40
499.20	21458.03
499.38	21448.67
499.56	21598.46
499.73	21532.93
499.91	21561.02
500.08	21586.76
500.26	21411.22
500.44	21996.35
500.61	22015.08
500.79	22073.59
500.97	22274.88
501.14	22434.03
501.32	22427.01
501.49	22539.36
501.67	22361.48
501.84	22951.29
502.02	22850.65
502.20	22384.88
502.37	22836.61
502.55	22913.84
502.72	23190.03
502.90	23040.23
503.07	22778.09
503.25	22981.72
503.43	22843.63
503.60	23309.40
503.78	23246.20
503.95	23281.31
504.13	23342.16
504.30	23648.77
504.48	23754.10
504.65	23721.33
504.83	23592.60
505.01	23796.23
505.18	23777.50
505.36	24357.96
505.53	23852.40
505.71	24126.24
505.88	24402.43
506.06	24175.39
506.23	24266.67
506.41	24615.41
506.58	24423.49
506.76	24474.98
506.93	24678.61
507.11	24964.15
507.28	25013.31
507.46	24865.85
507.63	24870.53
507.81	24971.18
507.98	24730.10
508.16	24992.24
508.33	25064.80
508.50	25102.25
508.68	25544.61
508.85	25757.60
509.03	25876.96
509.20	25338.64
509.38	25694.40
509.55	25879.30
509.73	25982.29
509.90	25933.14
510.08	26340.39
510.25	26118.04
510.42	25816.11
510.60	26129.74
510.77	25998.67
510.95	26487.84
511.12	26431.67
511.30	26389.54
511.47	26717.22
511.64	26513.59
511.82	26934.88
511.99	26703.17
512.17	26529.97
512.34	27033.19
512.51	27185.32
512.69	27005.10
512.86	27283.62
513.04	27484.91
513.21	27536.40
513.38	27325.75
513.56	27344.48
513.73	27543.42
513.90	27686.20
514.08	27641.73
514.25	27857.06
514.43	27955.36
514.60	27697.90
514.77	27714.28
514.95	27946.00
515.12	27623.00
515.29	27438.10
515.47	28268.99
515.64	28491.34
515.81	27871.10
515.99	28477.30
516.16	28479.64
516.33	28535.81
516.51	28386.02
516.68	28786.25
516.85	28751.14
517.03	28868.17
517.20	28837.74
517.37	28877.53
517.54	28687.95
517.72	28828.38
517.89	28861.15
518.06	28849.44
518.24	29237.97
518.41	29172.44
518.58	29277.76
518.75	28950.09
518.93	29446.28
519.10	29198.18
519.27	29364.36
519.45	29687.36
519.62	29355.00
519.79	29427.56
519.96	29837.15
520.14	29914.39
520.31	29556.28
520.48	29727.14
520.65	30242.06
520.83	30384.83
521.00	30298.23
521.17	30033.75
521.34	30253.76
521.52	30347.39
521.69	30288.87
521.86	30792.09
522.03	30621.23
522.20	30600.16
522.38	30597.82
522.55	30902.09
522.72	30431.65
522.89	30848.26
523.07	30888.05
523.24	30546.33
523.41	30878.69
523.58	30792.09
523.75	30862.30
523.92	31159.55
524.10	30979.33
524.27	30955.93
524.44	31435.74
524.61	31274.24
524.78	31138.49
524.96	31175.94
525.13	31693.19
525.30	31484.89
525.47	31810.22
525.64	31740.00
525.81	31861.71
525.98	31931.93
526.16	31686.17
526.33	32123.85
526.50	32205.77
526.67	32346.20
526.84	32055.98
527.01	32334.50
527.18	32362.59
527.36	32238.54
527.53	32156.62
527.70	32290.03
527.87	32187.05
528.04	32329.82
528.21	32636.43
528.38	32577.92
528.55	32816.65
528.72	32563.87
528.89	32900.91
529.07	32395.35
529.24	32563.87
529.41	33001.55
529.58	32334.50
529.75	33170.07
529.92	32809.63
530.09	33195.82
530.26	33060.07
530.43	33268.37
530.60	32987.51
530.77	32917.29
530.94	33565.62
531.11	33333.91
531.28	33628.82
531.46	32875.16
531.63	33406.47
531.80	33406.47
531.97	33682.65
532.14	33483.70
532.31	33647.54
532.48	33834.78
532.65	33804.36
532.82	33429.87
532.99	33764.57
533.16	33654.56
533.33	33963.51
533.50	33818.40
533.67	33989.26
533.84	33888.62
534.01	33874.57
534.18	34143.74
534.35	34251.40
534.52	34000.96
534.69	34459.71
534.86	34122.67
535.03	34490.13
535.20	34356.72
535.37	34759.30
535.54	35016.75
535.71	34382.47
535.88	34644.61
536.05	34761.64
536.22	34665.67
536.38	34689.08
536.55	34724.19
536.72	34899.73
536.89	35136.12
537.06	34897.39
537.23	35367.84
537.40	35335.07
537.57	35061.22
537.74	35019.10
537.91	35412.31
538.08	35054.20
538.25	35213.36
538.42	35463.80
538.59	35379.54
538.75	35391.24
538.92	35311.66
539.09	35779.77
539.26	35189.95
539.43	35199.32
539.60	35826.58
539.77	35534.01
539.94	36177.66
540.11	35798.49
540.28	35964.67
540.44	35887.43
540.61	36095.74
540.78	35739.98
540.95	36304.05
541.12	35957.65
541.29	36264.26
541.46	36339.16
541.62	36467.89
541.79	36510.02
541.96	36084.04
542.13	36114.47
542.30	36542.78
542.47	36584.91
542.63	36598.96
542.80	37141.96
542.97	37373.67
543.14	37099.83
543.31	36758.11
543.48	36662.15
543.64	37544.53
543.81	37343.25
543.98	37095.15
544.15	37413.46
544.32	37516.45
544.48	37584.32
544.65	37167.71
544.82	37174.73
544.99	37308.14
545.16	37586.66
545.32	37310.48
545.49	37801.99
545.66	38431.60
545.83	38703.10
546.00	38387.13
546.16	38122.65
546.33	38096.90
546.50	36957.06
546.67	37780.93
546.83	37649.86
547.00	37467.30
547.17	37160.69
547.34	37425.17
547.50	37816.04
547.67	37600.71
547.84	37319.84
548.00	38452.66
548.17	38321.59
548.34	37820.72
548.51	37790.29
548.67	38176.48
548.84	38356.70
549.01	38047.75
549.18	37993.92
549.34	38490.11
549.51	38384.79
549.68	37853.48
549.84	37965.83
550.01	38370.74
550.18	37640.50
550.34	37890.93
550.51	38321.59
550.68	38040.73
550.84	38169.46
551.01	38087.54
551.18	37951.79
551.34	38424.57
551.51	38717.14
551.68	38628.20
551.84	38492.45
552.01	38520.54
552.18	38464.36
552.34	38574.37
552.51	38529.90
552.68	38770.97
552.84	38625.86
553.01	38471.39
553.18	39042.48
553.34	38756.93
553.51	38447.98
553.67	38902.04
553.84	39351.43
554.01	39370.15
554.17	38934.81
554.34	39168.87
554.51	39007.37
554.67	38953.54
554.84	39124.40
555.00	38880.98
555.17	38480.75
555.33	38785.02
555.50	38696.08
555.67	39110.35
555.83	39210.99
556.00	39213.34
556.16	39761.02
556.33	39613.57
556.50	39339.72
556.66	39482.50
556.83	39026.09
556.99	39573.78
557.16	39503.56
557.32	39541.01
557.49	39775.06
557.65	39491.86
557.82	39398.24
557.98	39627.61
558.15	39234.40
558.32	39653.36
558.48	39515.26
558.65	40137.85
558.81	39906.13
558.98	39974.01
559.14	39662.72
559.31	39622.93
559.47	39777.40
559.64	39386.54
559.80	40072.31
559.97	39885.07
560.13	39541.01
560.30	39576.12
560.46	39653.36
560.63	40149.55
560.79	40147.21
560.96	40123.80
561.12	40069.97
561.29	40053.59
561.45	40189.34
561.61	40205.72
561.78	40041.88
561.94	39938.90
562.11	40179.98
562.27	40254.87
562.44	40568.51
562.60	40041.88
562.77	40325.09
562.93	40039.54
563.10	40137.85
563.26	39941.24
563.42	40114.44
563.59	40486.59
563.75	40081.67
563.92	40261.90
564.08	40416.37
564.24	40573.19
564.41	40037.20
564.57	40346.15
564.74	40112.10
564.90	40399.99
565.07	40446.80
565.23	40465.52
565.39	40610.64
565.56	40730.00
565.72	40540.42
565.88	40634.04
566.05	40690.21
566.21	40692.55
566.38	40140.19
566.54	40722.98
566.70	40194.02
566.87	40830.65
567.03	40741.71
567.19	41179.39
567.36	40832.99
567.52	40662.13
567.68	40245.51
567.85	40732.34
568.01	41113.85
568.17	40823.62
568.34	40683.19
568.50	40692.55
568.66	40701.92
568.83	40994.48
568.99	40519.35
569.15	40715.96
569.32	41008.53
569.48	40748.73
569.64	40451.48
569.81	40409.35
569.97	40299.34
570.13	41050.66
570.30	40481.91
570.46	40781.49
570.62	40374.24
570.78	40840.01
570.95	40257.21
571.11	40687.87
571.27	40954.69
571.43	40807.24
571.60	40650.42
571.76	40643.40
571.92	40847.03
572.09	41244.92
572.25	41233.22
572.41	41001.50
572.57	41446.21
572.74	41116.19
572.90	41282.37
573.06	41202.79
573.22	41221.52
573.38	41170.02
573.55	40615.32
573.71	41322.16
573.87	40964.06
574.03	40671.49
574.20	41034.27
574.36	41069.38
574.52	41427.48
574.68	41078.74
574.84	40952.35
575.01	41179.39
575.17	41242.58
575.33	40776.81
575.49	41062.36
575.65	41514.08
575.82	41387.69
575.98	41432.16
576.14	41720.05
576.30	41242.58
576.46	41265.99
576.62	41443.87
576.79	41254.28
576.95	41022.57
577.11	41357.27
577.27	41415.78
577.43	41551.53
577.59	41684.94
577.75	41411.10
577.92	41027.25
578.08	41476.63
578.24	41731.75
578.40	41535.15
578.56	42089.85
578.72	41450.89
578.88	41708.35
579.04	41301.09
579.21	41170.02
579.37	41706.01
579.53	41647.49
579.69	41141.94
579.85	41294.07
580.01	41443.87
580.17	41249.60
580.33	41600.68
580.49	41523.44
580.65	41605.36
580.82	41359.61
580.98	41340.88
581.14	41331.52
581.30	41106.83
581.46	41235.56
581.62	40907.88
581.78	41703.67
581.94	41123.21
582.10	41244.92
582.26	41244.92
582.42	41296.41
582.58	41202.79
582.74	41326.84
582.90	41551.53
583.06	40961.72
583.22	41280.03
583.38	41268.33
583.54	41092.79
583.70	41226.20
583.86	41607.70
584.02	41399.40
584.18	41902.61
584.34	41371.31
584.50	41727.07
584.66	41160.66
584.82	41373.65
584.98	41731.75
585.14	41462.59
585.30	41003.85
585.46	41603.02
585.62	41799.63
585.78	41265.99
585.94	41731.75
586.10	41706.01
586.26	41521.10
586.42	41717.71
586.58	41661.54
586.74	41605.36
586.90	41486.00
587.06	41408.76
587.22	41713.03
587.38	41628.77
587.54	41921.34
587.70	42473.70
587.86	41574.94
588.02	41483.66
588.18	42007.94
588.34	41553.87
588.49	42195.18
588.65	41558.55
588.81	41518.76
588.97	41876.86
589.13	41631.11
589.29	41677.92
589.45	41523.44
589.61	41970.49
589.77	41911.97
589.93	41771.54
590.08	42143.69
590.24	41909.63
590.40	42050.06
590.56	41989.21
590.72	41673.24
590.88	41853.46
591.04	41677.92
591.20	41846.44
591.35	42150.71
591.51	42150.71
591.67	42754.57
591.83	42429.23
591.99	42134.32
592.15	41787.92
592.31	42188.16
592.46	41867.50
592.62	42258.37
592.78	41823.03
592.94	41963.46
593.10	42146.03
593.26	42298.16
593.41	42363.70
593.57	42085.17
593.73	42316.89
593.89	42466.68
594.05	42094.53
594.20	41549.19
594.36	41652.17
594.52	41717.71
594.68	42113.26
594.84	42045.38
594.99	42300.50
595.15	42204.54
595.31	42862.23
595.47	42604.77
595.62	42665.63
595.78	41867.50
595.94	42167.09
596.10	41797.29
596.25	41759.84
596.41	41961.12
596.57	41654.51
596.73	42239.65
596.88	41675.58
597.04	42380.08
597.20	41839.42
597.36	41977.51
597.51	42223.26
597.67	42164.75
597.83	42036.02
597.99	42410.51
598.14	42291.14
598.30	42696.05
598.46	42043.04
598.61	42141.35
598.77	42148.37
598.93	42637.54
599.09	42440.93
599.24	42684.35
599.40	42389.44
599.56	42672.65
599.71	42557.96
599.87	42562.64
600.03	42241.99
600.18	41801.97
600.34	42263.05
600.50	42527.53
600.65	42232.63
600.81	42586.05
600.97	42155.39
601.12	42752.23
601.28	42403.49
601.44	42553.28
601.59	42515.83
601.75	41895.59
601.91	42457.32
602.06	42241.99
602.22	42080.49
602.37	42019.64
602.53	42204.54
602.69	42532.22
602.84	42618.81
603.00	42218.58
603.16	42169.43
603.31	42543.92
603.47	41797.29
603.62	42164.75
603.78	42649.24
603.94	41762.18
604.09	41986.87
604.25	42080.49
604.40	42527.53
604.56	42066.45
604.71	42422.21
604.87	42127.30
605.03	42258.37
605.18	41944.74
605.34	42190.50
605.49	41918.99
605.65	42054.75
605.80	41729.41
605.96	42328.59
606.12	42319.23
606.27	42974.58
606.43	42394.12
606.58	42272.42
606.74	42164.75
606.89	42415.19
607.05	42270.08
607.20	41497.70
607.36	41865.16
607.51	41867.50
607.67	42363.70
607.82	42230.29
607.98	42349.65
608.13	42014.96
608.29	42202.20
608.44	42052.41
608.60	42316.89
608.75	42356.67
608.91	42462.00
609.06	42127.30
609.22	41825.37
609.37	41626.43
609.53	41612.38
609.68	41783.24
609.84	42153.05
609.99	42340.29
610.15	41935.38
610.30	42190.50
610.46	42206.88
610.61	42745.20
610.76	42717.12
610.92	43089.26
611.07	42660.94
611.23	42445.62
611.38	42696.05
611.54	42909.04
611.69	42700.73
611.84	42864.57
612.00	42541.58
612.15	42733.50
612.31	42581.37
612.46	42494.77
612.62	42101.56
612.77	41780.90
612.92	42349.65
613.08	42110.92
613.23	41738.77
613.39	42066.45
613.54	41872.18
613.69	41893.25
613.85	41909.63
614.00	42110.92
614.15	41996.23
614.31	41577.28
614.46	41830.05
614.62	41591.32
614.77	41722.39
614.92	41727.07
615.08	41453.23
615.23	41221.52
615.38	41263.64
615.54	41109.17
615.69	41163.00
615.84	41361.95
616.00	41476.63
616.15	41113.85
616.30	41567.91
616.46	41640.47
616.61	41565.57
616.76	41256.62
616.92	40727.66
617.07	41099.81
617.22	41057.68
617.37	40996.82
617.53	40842.35
617.68	40947.67
617.83	41092.79
617.99	41097.47
618.14	41256.62
618.29	41273.01
618.45	41228.54
618.60	41221.52
618.75	40671.49
618.90	40453.82
619.06	40580.21
619.21	40685.53
619.36	40458.50
619.51	40666.81
619.67	40655.11
619.82	40720.64
619.97	41233.22
620.12	41111.51
620.28	40638.72
620.43	40889.16
620.58	40603.61
620.73	40591.91
620.89	40449.14
621.04	40830.65
621.19	40540.42
621.34	40697.24
621.49	40421.05
621.65	40348.50
621.80	40528.72
621.95	40694.89
622.10	40444.46
622.25	40423.39
622.41	40493.61
622.56	40179.98
622.71	40133.17
622.86	40348.50
623.01	40287.64
623.16	40088.70
623.32	40285.30
623.47	40435.10
623.62	40931.29
623.77	40313.39
623.92	40524.04
624.07	40109.76
624.23	40662.13
624.38	40863.41
624.53	40582.55
624.68	40226.79
624.83	39838.26
624.98	40140.19
625.13	39613.57
625.29	39737.62
625.44	40175.30
625.59	40053.59
625.74	39763.36
625.89	39533.99
626.04	40058.27
626.19	39372.49
626.34	39761.02
626.49	40086.36
626.65	39611.23
626.80	39957.63
626.95	39435.69
627.10	39555.05
627.25	39772.72
627.40	39714.21
627.55	39395.90
627.70	39515.26
627.85	39412.28
628.00	39393.56
628.15	39533.99
628.30	39536.33
628.45	39566.76
628.60	39187.59
628.76	39290.57
628.91	39374.83
629.06	39213.34
629.21	39274.19
629.36	39063.54
629.51	39222.70
629.66	39398.24
629.81	39225.04
629.96	39295.25
630.11	39056.52
630.26	39391.22
630.41	39323.34
630.56	39372.49
630.71	39428.66
630.86	39218.02
631.01	38969.92
631.16	39175.89
631.31	39056.52
631.46	38508.83
631.61	38749.91
631.76	38883.32
631.91	38728.84
632.06	39098.65
632.21	38831.83
632.36	38469.04
632.51	38885.66
632.66	39302.28
632.81	38511.17
632.96	38457.34
633.10	38918.43
633.25	38829.49
633.40	38373.08
633.55	38391.81
633.70	38370.74
633.85	38433.94
634.00	38452.66
634.15	38586.07
634.30	38487.77
634.45	38340.32
634.60	38852.89
634.75	38485.43
634.90	38684.37
635.05	38188.18
635.19	38225.63
635.34	38258.40
635.49	38263.08
635.64	38146.05
635.79	38150.73
635.94	38281.80
636.09	38132.01
636.24	38253.72
636.39	38586.07
636.53	38487.77
636.68	37883.91
636.83	38417.55
636.98	38459.68
637.13	37879.23
637.28	37935.40
637.43	37710.71
637.57	37900.29
637.72	37404.10
637.87	37776.25
638.02	37823.06
638.17	37757.52
638.32	37298.78
638.46	37233.24
638.61	37708.37
638.76	37706.03
638.91	38249.03
639.06	37895.61
639.20	38312.23
639.35	37832.42
639.50	37509.43
639.65	37766.88
639.80	37659.22
639.94	37111.53
640.09	37266.01
640.24	37361.97
640.39	37514.11
640.54	37212.18
640.68	38064.13
640.83	37345.59
640.98	36868.12
641.13	37212.18
641.27	37160.69
641.42	36828.33
641.57	36882.16
641.72	37195.79
641.86	37046.00
642.01	36603.64
642.16	36807.26
642.31	36921.95
642.45	37731.78
642.60	37120.90
642.75	37085.79
642.90	37046.00
643.04	37165.37
643.19	36954.72
643.34	37371.33
643.48	37589.00
643.63	37041.32
643.78	36605.98
643.93	36790.88
644.07	36849.39
644.22	36683.22
644.37	36528.74
644.51	36776.84
644.66	37046.00
644.81	37102.17
644.95	37212.18
645.10	37195.79
645.25	36837.69
645.39	36919.61
645.54	36538.10
645.69	36493.63
645.83	36928.97
645.98	36762.79
646.13	36575.55
646.27	37083.45
646.42	37027.28
646.57	36627.04
646.71	36568.53
646.86	36353.20
647.00	36547.47
647.15	36730.03
647.30	36652.79
647.44	36720.66
647.59	36811.95
647.74	36357.88
647.88	36158.94
648.03	36713.64
648.17	36009.14
648.32	35892.12
648.47	36102.76
648.61	36067.66
648.76	35922.54
648.90	36587.25
649.05	36301.71
649.20	36273.62
649.34	36009.14
649.49	36318.09
649.63	36685.56
649.78	35875.73
649.92	36011.48
650.07	36322.77
650.21	35725.94
650.36	35882.75
650.51	35805.52
650.65	35880.41
650.80	36116.81
650.94	35732.96
651.09	35761.05
651.23	35503.59
651.38	36051.27
651.52	35730.62
651.67	36226.81
651.81	35917.86
651.96	35871.05
652.10	35742.32
652.25	35573.80
652.39	35386.56
652.54	35538.69
652.68	35377.20
652.83	35028.46
652.97	35424.01
653.12	35775.09
653.26	35676.79
653.41	35981.06
653.55	35637.00
653.70	35264.85
653.84	35852.33
653.99	35014.41
654.13	35337.41
654.27	35384.22
654.42	35283.58
654.56	35150.17
654.71	35012.07
654.85	35768.07
655.00	35325.71
655.14	34925.47
655.29	34974.63
655.43	35140.80
655.57	34911.43
655.72	34941.86
655.86	35297.62
656.01	34602.48
656.15	34890.37
656.30	34916.11
656.44	34855.26
656.58	35002.71
656.73	35140.80
656.87	34808.45
657.01	34930.16
657.16	35030.80
657.30	34773.34
657.45	34911.43
657.59	34604.82
657.73	34316.93
657.88	34609.50
658.02	34878.66
658.16	35023.78
658.31	34792.06
658.45	35049.52
658.60	34888.03
658.74	34281.83
658.88	34735.89
659.03	34279.49
659.17	33921.38
659.31	33998.62
659.46	34646.95
659.60	34045.43
659.74	34239.70
659.89	34391.83
660.03	34010.32
660.17	34277.15
660.32	34232.68
660.46	34010.32
660.60	33490.73
660.74	34120.33
660.89	33919.04
661.03	33851.17
661.17	33844.15
661.32	33453.28
661.46	33549.24
661.60	33483.70
661.74	33596.05
661.89	33439.23
662.03	33738.82
662.17	33273.06
662.31	33464.98
662.46	33464.98
662.60	33460.30
662.74	33539.88
662.88	33333.91
663.03	33486.04
663.17	33521.15
663.31	33017.94
663.45	33472.00
663.60	33069.43
663.74	32879.85
663.88	32898.57
664.02	32783.88
664.17	32797.93
664.31	32659.84
664.45	32851.76
664.59	32493.66
664.73	33003.89
664.88	32896.23
665.02	32638.77
665.16	32851.76
665.30	32774.52
665.44	32666.86
665.59	32177.68
665.73	32364.93
665.87	31725.96
666.01	32177.68
666.15	32156.62
666.29	31908.52
666.44	32121.51
666.58	31697.88
666.72	31903.84
666.86	31835.97
667.00	32540.47
667.14	32048.96
667.28	31784.48
667.43	32168.32
667.57	32203.43
667.71	32013.85
667.85	32025.55
667.99	31768.09
668.13	31807.88
668.27	31442.76
668.41	31821.92
668.56	31435.74
668.70	31321.05
668.84	31250.83
668.98	31019.12
669.12	31082.31
669.26	31079.97
669.40	31222.75
669.54	31290.62
669.68	30937.20
669.82	31154.87
669.96	31098.70
670.10	30773.36
670.25	30862.30
670.39	30948.90
670.53	30312.28
670.67	30747.62
670.81	30775.70
670.95	30670.38
671.09	30012.69
671.23	30515.90
671.37	30661.02
671.51	30848.26
671.65	30871.67
671.79	30845.92
671.93	30600.16
672.07	30417.60
672.21	30438.67
672.35	30270.15
672.49	30553.35
672.63	30059.50
672.77	29991.62
672.91	29926.09
673.05	29813.74
673.19	29497.77
673.33	29301.17
673.47	29432.24
673.61	29291.80
673.75	29116.26
673.89	29788.00
674.03	29355.00
674.17	29090.52
674.31	29858.21
674.45	29366.70
674.59	29429.90
674.73	29827.79
674.87	29504.79
675.01	28744.12
675.15	29074.13
675.29	29249.67
675.43	29095.20
675.56	28823.70
675.70	28538.15
675.84	28479.64
675.98	27325.75
676.12	28268.99
676.26	28694.97
676.40	28229.20
676.54	28449.21
676.68	28491.34
676.82	27571.51
676.96	28194.09
677.10	28095.79
677.23	27913.23
677.37	27833.65
677.51	27536.40
677.65	27683.86
677.79	27414.69
677.93	27480.23
678.07	27255.54
678.21	27227.45
678.34	26834.24
678.48	27204.05
678.62	27332.78
678.76	26759.34
678.90	27136.17
679.04	26806.16
679.18	26637.64
679.31	26071.23
679.45	26429.33
679.59	26810.84
679.73	26799.13
679.87	26338.05
680.00	26272.51
680.14	25986.97
680.28	26134.42
680.42	26015.05
680.56	26263.15
680.70	25729.51
680.83	25778.66
680.97	25596.10
681.11	25811.43
681.25	25383.11
681.39	25593.76
681.52	25795.04
681.66	25369.07
681.80	25446.30
681.94	25050.75
682.07	25563.33
682.21	25294.17
682.35	25252.04
682.49	25120.97
682.62	25247.36
682.76	24882.24
682.90	24828.40
683.04	24687.97
683.17	24601.37
683.31	24051.34
683.45	24573.28
683.59	24369.66
683.72	24603.71
683.86	24414.13
684.00	24425.83
684.13	24142.63
684.27	23765.80
684.41	23812.61
684.55	23814.95
684.68	23988.15
684.82	23534.09
684.96	23405.36
685.09	23594.94
685.23	23522.38
685.37	23597.28
685.50	23793.89
685.64	23604.30
685.78	23051.94
685.91	23073.00
686.05	22998.10
686.19	22792.14
686.32	22930.23
686.46	22958.31
686.60	22897.46
686.73	22965.34
686.87	22710.22
687.01	22941.93
687.14	22274.88
687.28	22256.15
687.42	22565.10
687.55	22167.21
687.69	22389.56
687.82	22008.06
687.96	22228.07
688.10	22022.10
688.23	22148.49
688.37	21919.12
688.50	21813.79
688.64	21795.07
688.78	22019.76
688.91	21486.12
689.05	21680.38
689.18	21422.92
689.32	20926.73
689.46	21205.25
689.59	21191.21
689.73	21128.02
689.86	20966.52
690.00	20753.53
690.13	20938.43
690.27	20847.15
690.41	20762.89
690.54	20638.84
690.68	20737.15
690.81	20692.68
690.95	20711.40
691.08	20404.79
691.22	20339.26
691.35	20159.03
691.49	20233.93
691.62	20376.70
691.76	19871.15
691.89	20322.87
692.03	20095.84
692.16	19908.60
692.30	19688.59
692.43	19501.34
692.57	19627.73
692.70	19798.59
692.84	19552.84
692.97	19585.60
693.11	19014.51
693.24	19192.39
693.38	19154.94
693.51	18960.68
693.65	19110.47
693.78	18981.74
693.92	18956.00
694.05	18995.79
694.19	18644.71
694.32	19262.61
694.45	18768.76
694.59	18876.42
694.72	18359.16
694.86	18064.25
694.99	18253.84
695.13	18082.98
695.26	18040.85
695.39	17970.63
695.53	17947.23
695.66	18087.66
695.80	17848.93
695.93	17905.10
696.07	17603.17
696.20	17851.27
696.33	17771.69
696.47	17703.81
696.60	17642.96
696.73	17436.99
696.87	17425.29
697.00	17252.09
697.14	17139.74
697.27	16931.44
697.40	16877.60
697.54	16922.07
697.67	16489.07
697.80	16498.44
697.94	16748.87
698.07	16622.48
698.21	16566.31
698.34	16676.32
698.47	16423.54
698.61	16126.29
698.74	16154.38
698.87	16243.32
699.01	16203.53
699.14	16011.60
699.27	16287.79
699.40	16526.52
699.54	16243.32
699.67	16358.00
699.80	15737.76
699.94	15805.64
700.07	15618.39
700.20	15524.77
700.34	15426.47
700.47	15543.50
700.60	15569.24
700.73	15679.25
700.87	15433.49
701.00	15463.92
701.13	15279.02
701.26	15133.90
701.40	14939.64
701.53	14775.80
701.66	14698.56
701.79	14679.84
701.93	14618.99
702.06	14913.89
702.19	14712.61
702.32	14869.42
702.46	14356.85
702.59	14293.65
702.72	14291.31
702.85	14167.26
702.99	14050.24
703.12	14171.94
703.25	14075.98
703.38	13804.48
703.51	13930.87
703.65	14087.68
703.78	14045.55
703.91	13790.44
704.04	13905.12
704.17	13692.13
704.31	13605.53
704.44	13619.58
704.57	13547.02
704.70	13266.16
704.83	13153.81
704.96	13172.54
705.10	13343.39
705.23	13156.15
>>>>>End Processed Spectral Data<<<<<
