SpectraSuite Data File
++++++++++++++++++++++++++++++++++++
Date: Thu Oct 24 13:21:16 EDT 2013
User: stostad
Dark Spectrum Present: No
Reference Spectrum Present: No
Number of Sampled Component Spectra: 1
Spectrometers: USB2+H05261
Integration Time (usec): 100000 (USB2+H05261)
Spectra Averaged: 1 (USB2+H05261)
Boxcar Smoothing: 0 (USB2+H05261)
Correct for Electrical Dark: No (USB2+H05261)
Strobe/Lamp Enabled: No (USB2+H05261)
Correct for Detector Non-linearity: No (USB2+H05261)
Correct for Stray Light: No (USB2+H05261)
Number of Pixels in Processed Spectrum: 2048
>>>>>Begin Processed Spectral Data<<<<<
365.73	493.85
365.92	493.85
366.12	493.85
366.32	447.04
366.52	421.30
366.72	580.45
366.91	440.02
367.11	514.92
367.31	500.87
367.51	472.79
367.70	458.74
367.90	454.06
368.10	456.40
368.30	482.15
368.49	482.15
368.69	482.15
368.89	484.49
369.09	512.58
369.28	486.83
369.48	491.51
369.68	468.11
369.87	463.43
370.07	554.71
370.27	528.96
370.47	601.52
370.66	716.20
370.86	807.48
371.06	828.55
371.25	802.80
371.45	795.78
371.65	812.17
371.84	840.25
372.04	819.19
372.24	819.19
372.44	844.93
372.63	866.00
372.83	788.76
373.03	863.66
373.22	812.17
373.42	837.91
373.62	903.45
373.81	828.55
374.01	910.47
374.21	849.61
374.40	901.11
374.60	889.40
374.79	887.06
374.99	973.66
375.19	887.06
375.38	940.90
375.58	882.38
375.78	943.24
375.97	926.85
376.17	976.00
376.37	985.37
376.56	954.94
376.76	915.15
376.95	954.94
377.15	950.26
377.35	1004.09
377.54	964.30
377.74	936.21
377.93	908.13
378.13	863.66
378.33	961.96
378.52	903.45
378.72	1034.52
378.91	978.34
379.11	1011.11
379.31	968.98
379.50	990.05
379.70	1008.77
379.89	992.39
380.09	1001.75
380.28	973.66
380.48	1032.18
380.68	947.92
380.87	971.32
381.07	957.28
381.26	1104.73
381.46	1060.26
381.65	1041.54
381.85	1067.28
382.04	1015.79
382.24	973.66
382.43	966.64
382.63	1095.37
382.83	1050.90
383.02	1013.45
383.22	1032.18
383.41	1032.18
383.61	994.73
383.80	964.30
384.00	1004.09
384.19	1020.47
384.39	1029.84
384.58	1088.35
384.78	1081.33
384.97	1135.16
385.17	1078.99
385.36	1006.43
385.56	1107.07
385.75	1062.60
385.95	1060.26
386.14	1109.41
386.34	990.05
386.53	1125.80
386.72	1107.07
386.92	1137.50
387.11	1036.86
387.31	1142.18
387.50	1111.75
387.70	1142.18
387.89	1086.01
388.09	1139.84
388.28	1198.35
388.48	1163.25
388.67	1151.54
388.86	1137.50
389.06	1170.27
389.25	1181.97
389.45	1149.20
389.64	1067.28
389.84	1212.40
390.03	1240.48
390.22	1233.46
390.42	1205.38
390.61	1170.27
390.81	1207.72
391.00	1196.01
391.19	1247.51
391.39	1200.69
391.58	1203.04
391.78	1191.33
391.97	1252.19
392.16	1252.19
392.36	1277.93
392.55	1270.91
392.75	1242.82
392.94	1355.17
393.13	1221.76
393.33	1299.00
393.52	1240.48
393.71	1224.10
393.91	1210.06
394.10	1233.46
394.29	1303.68
394.49	1345.81
394.68	1357.51
394.88	1341.13
395.07	1296.66
395.26	1247.51
395.46	1322.40
395.65	1306.02
395.84	1268.57
396.04	1411.34
396.23	1416.02
396.42	1352.83
396.62	1493.26
396.81	1385.60
397.00	1348.15
397.19	1380.92
397.39	1397.30
397.58	1390.28
397.77	1427.73
397.97	1406.66
398.16	1416.02
398.35	1462.83
398.55	1444.11
398.74	1439.43
398.93	1528.37
399.12	1460.49
399.32	1458.15
399.51	1469.86
399.70	1476.88
399.90	1474.54
400.09	1547.09
400.28	1528.37
400.47	1636.03
400.67	1544.75
400.86	1535.39
401.05	1495.60
401.24	1575.18
401.44	1586.88
401.63	1563.48
401.82	1610.29
402.01	1516.67
402.21	1603.27
402.40	1636.03
402.59	1575.18
402.78	1593.90
402.97	1755.40
403.17	1643.06
403.36	1659.44
403.55	1657.10
403.74	1746.04
403.93	1722.63
404.13	1724.97
404.32	1739.02
404.51	1710.93
404.70	1809.23
404.89	1741.36
405.09	1783.49
405.28	1785.83
405.47	1795.19
405.66	1764.76
405.85	1783.49
406.05	1813.92
406.24	1753.06
406.43	1849.02
406.62	1778.81
406.81	1870.09
407.00	1895.83
407.20	1881.79
407.39	1823.28
407.58	1860.73
407.77	1952.01
407.96	1867.75
408.15	1952.01
408.34	2010.52
408.54	2005.84
408.73	2003.50
408.92	1998.82
409.11	2015.20
409.30	2085.42
409.49	1984.77
409.68	2033.93
409.87	1959.03
410.07	2118.18
410.26	2050.31
410.45	2064.35
410.64	2097.12
410.83	2076.06
411.02	2193.08
411.21	2216.49
411.40	2207.13
411.59	2270.32
411.78	2216.49
411.98	2181.38
412.17	2179.04
412.36	2237.55
412.55	2340.54
412.74	2387.35
412.93	2289.04
413.12	2202.44
413.31	2368.62
413.50	2366.28
413.69	2403.73
413.88	2359.26
414.07	2392.03
414.26	2417.77
414.45	2434.16
414.64	2441.18
414.83	2480.97
415.02	2523.10
415.22	2490.33
415.41	2567.57
415.60	2532.46
415.79	2633.10
415.98	2532.46
416.17	2689.28
416.36	2530.12
416.55	2590.97
416.74	2616.72
416.93	2759.49
417.12	2581.61
417.31	2717.36
417.50	2815.66
417.69	2806.30
417.88	2780.56
418.07	2710.34
418.26	2888.22
418.45	2806.30
418.64	2906.95
418.83	2796.94
419.02	2918.65
419.21	2895.24
419.39	2885.88
419.58	2913.97
419.77	2970.14
419.96	3002.91
420.15	3009.93
420.34	2956.10
420.53	2869.50
420.72	2963.12
420.91	2956.10
421.10	3101.21
421.29	3030.99
421.48	2991.20
421.67	3133.98
421.86	3002.91
422.05	3094.19
422.24	3112.91
422.43	3145.68
422.61	3054.40
422.80	3234.62
422.99	3063.76
423.18	3059.08
423.37	3243.98
423.56	3124.62
423.75	3087.17
423.94	3030.99
424.13	3009.93
424.32	3035.67
424.50	3229.94
424.69	3192.49
424.88	3213.56
425.07	3056.74
425.26	3136.32
425.45	3173.77
425.64	3126.96
425.83	3183.13
426.01	3239.30
426.20	3342.28
426.39	3164.40
426.58	3204.19
426.77	3162.06
426.96	3344.63
427.15	3300.16
427.33	3300.16
427.52	3297.81
427.71	3377.39
427.90	3337.60
428.09	3258.03
428.28	3337.60
428.46	3346.97
428.65	3361.01
428.84	3370.37
429.03	3468.67
429.22	3361.01
429.40	3445.27
429.59	3461.65
429.78	3286.11
429.97	3180.79
430.16	3468.67
430.34	3482.72
430.53	3630.17
430.72	3613.79
430.91	3543.57
431.10	3428.88
431.28	3550.59
431.47	3658.26
431.66	3632.51
431.85	3452.29
432.03	3719.11
432.22	3705.07
432.41	3674.64
432.60	3611.45
432.79	3723.79
432.97	3630.17
433.16	3660.60
433.35	3723.79
433.54	3728.47
433.72	3744.86
433.91	3847.84
434.10	3756.56
434.28	3786.99
434.47	3861.88
434.66	3852.52
434.85	3868.91
435.03	4191.90
435.22	4327.65
435.41	4301.90
435.59	4196.58
435.78	4173.18
435.97	4121.68
436.16	4084.23
436.34	3955.51
436.53	4039.76
436.72	4042.11
436.90	3936.78
437.09	4107.64
437.28	4025.72
437.46	3920.40
437.65	4063.17
437.84	4194.24
438.02	4056.15
438.21	4152.11
438.40	4142.75
438.58	4278.50
438.77	4255.09
438.96	4248.07
439.14	4400.21
439.33	4299.56
439.52	4306.59
439.70	4367.44
439.89	4454.04
440.08	4353.40
440.26	4236.37
440.45	4404.89
440.63	4432.97
440.82	4676.39
441.01	4524.26
441.19	4580.43
441.38	4592.13
441.57	4545.32
441.75	4669.37
441.94	4800.44
442.12	4683.41
442.31	4751.29
442.50	4629.58
442.68	4795.76
442.87	4807.46
443.05	4823.84
443.24	4868.31
443.43	4809.80
443.61	4823.84
443.80	4980.66
443.98	4723.20
444.17	4723.20
444.35	4931.51
444.54	5109.39
444.73	4952.57
444.91	4978.32
445.10	4980.66
445.28	5025.13
445.47	4915.12
445.65	4957.25
445.84	4952.57
446.02	5057.90
446.21	5067.26
446.39	4933.85
446.58	5046.20
446.77	4945.55
446.95	4933.85
447.14	4926.83
447.32	5146.84
447.51	5107.05
447.69	5060.24
447.88	5053.22
448.06	5186.63
448.25	5032.15
448.43	5078.96
448.62	5057.90
448.80	5001.72
448.99	5095.35
449.17	5090.67
449.36	5254.50
449.54	5046.20
449.73	5217.05
449.91	5338.76
450.10	5165.56
450.28	5313.02
450.46	5430.04
450.65	5261.52
450.83	5266.21
451.02	5373.87
451.20	5418.34
451.39	5373.87
451.57	5336.42
451.76	5203.01
451.94	5198.33
452.13	5537.71
452.31	5320.04
452.49	5336.42
452.68	5317.70
452.86	5390.25
453.05	5416.00
453.23	5523.66
453.42	5444.09
453.60	5448.77
453.78	5748.36
453.97	5500.26
454.15	5628.99
454.34	5467.49
454.52	5687.50
454.70	5724.95
454.89	5614.95
455.07	5593.88
455.26	5547.07
455.44	5895.81
455.62	6036.24
455.81	5783.46
455.99	5825.59
456.17	5928.58
456.36	5874.74
456.54	6045.60
456.73	5867.72
456.91	5984.75
457.09	6076.03
457.28	6083.05
457.46	5942.62
457.64	6150.93
457.83	5863.04
458.01	5959.00
458.19	6230.51
458.38	5984.75
458.56	6052.63
458.74	6162.63
458.93	6059.65
459.11	6101.78
459.29	6211.78
459.48	6249.23
459.66	6169.65
459.84	6319.45
460.03	6384.98
460.21	6176.67
460.39	6300.72
460.57	6342.85
460.76	6462.22
460.94	6384.98
461.12	6413.07
461.31	6321.79
461.49	6361.58
461.67	6377.96
461.85	6487.96
462.04	6464.56
462.22	6970.12
462.40	6656.48
462.59	6630.74
462.77	6579.25
462.95	6656.48
463.13	6670.53
463.32	6738.40
463.50	6799.26
463.68	6581.59
463.86	6745.42
464.05	6609.67
464.23	6747.76
464.41	6932.67
464.59	6609.67
464.78	6810.96
464.96	6738.40
465.14	6874.15
465.32	6813.30
465.50	6832.02
465.69	6970.12
465.87	6841.39
466.05	6923.30
466.23	6895.22
466.41	6661.16
466.60	7082.46
466.78	6974.80
466.96	6984.16
467.14	7084.80
467.32	7061.40
467.51	7140.97
467.69	7009.90
467.87	7049.69
468.05	7328.22
468.23	7091.82
468.41	6906.92
468.60	7045.01
468.78	7232.26
468.96	7215.87
469.14	7302.47
469.32	7363.33
469.50	7131.61
469.69	7403.11
469.87	7534.18
470.05	7454.61
470.23	7440.56
470.41	7468.65
470.59	7447.58
470.77	7569.29
470.95	7447.58
471.14	7630.15
471.32	7360.98
471.50	7538.87
471.68	7555.25
471.86	7627.81
472.04	7681.64
472.22	7815.05
472.40	7611.42
472.58	7782.28
472.77	7833.77
472.95	7967.18
473.13	8112.30
473.31	7815.05
473.49	7941.44
473.67	7962.50
473.85	8098.25
474.03	8187.19
474.21	8163.79
474.39	8315.92
474.57	8280.82
474.75	8304.22
474.93	8201.24
475.12	8374.44
475.30	8463.38
475.48	8442.31
475.66	8573.38
475.84	8542.96
476.02	8629.56
476.20	8540.61
476.38	8690.41
476.56	8936.17
476.74	8830.84
476.92	8865.95
477.10	8781.69
477.28	9107.02
477.46	9114.05
477.64	9149.15
477.82	9177.24
478.00	9160.86
478.18	9273.20
478.36	9179.58
478.54	9373.85
478.72	9329.38
478.90	9762.37
479.08	9666.41
479.26	9724.93
479.44	9748.33
479.62	9818.55
479.80	9921.53
479.98	9900.47
480.16	10162.61
480.34	9802.16
480.52	10169.63
480.70	10052.60
480.88	10274.95
481.06	10298.36
481.24	10274.95
481.41	10480.92
481.59	10656.46
481.77	10626.03
481.95	10801.57
482.13	10663.48
482.31	10733.70
482.49	11147.97
482.67	10977.11
482.85	11169.04
483.03	11353.94
483.21	11358.62
483.39	11286.06
483.57	11485.01
483.74	11309.47
483.92	11716.72
484.10	11623.10
484.28	11676.93
484.46	11908.65
484.64	11957.80
484.82	12121.63
485.00	11983.54
485.18	12322.92
485.35	12411.86
485.53	12241.00
485.71	12751.24
485.89	12760.60
486.07	12744.22
486.25	12741.88
486.43	12975.93
486.61	12840.18
486.78	13179.56
486.96	13186.58
487.14	13399.57
487.32	13294.24
487.50	13558.72
487.68	13343.39
487.85	13675.75
488.03	13942.57
488.21	13834.91
488.39	13774.05
488.57	14317.06
488.75	13970.66
488.92	14328.76
489.10	14403.66
489.28	14321.74
489.46	14607.28
489.64	14506.64
489.81	14927.94
489.99	14860.06
490.17	14787.50
490.35	15124.54
490.53	15194.76
490.70	15389.02
490.88	15363.28
491.06	15365.62
491.24	15571.58
491.41	15426.47
491.59	15665.21
491.77	15908.62
491.95	15927.35
492.13	16091.18
492.30	15936.71
492.48	16067.78
492.66	16224.59
492.84	16065.44
493.01	16283.11
493.19	16212.89
493.37	16709.08
493.54	16521.84
493.72	17020.38
493.90	16793.34
494.08	17116.34
494.25	17097.61
494.43	17252.09
494.61	17165.49
494.79	17177.19
494.96	17282.52
495.14	17242.73
495.32	17570.40
495.49	17612.53
495.67	17818.50
495.85	17862.97
496.02	17994.04
496.20	17900.42
496.38	18431.72
496.55	17982.34
496.73	18745.35
496.91	18235.11
497.09	18534.70
497.26	18689.18
497.44	18553.43
497.62	18703.22
497.79	19075.37
497.97	18934.93
498.14	19243.88
498.32	19257.93
498.50	19101.11
498.67	19150.26
498.85	19557.52
499.03	19051.96
499.20	19651.14
499.38	19386.66
499.56	19936.68
499.73	19618.37
499.91	19894.55
500.08	19814.98
500.26	19606.67
500.44	20074.77
500.61	20360.32
500.79	20116.90
500.97	20603.74
501.14	20526.50
501.32	20437.56
501.49	20458.62
501.67	20727.78
501.84	20875.24
502.02	20861.19
502.20	20858.85
502.37	20971.20
502.55	20570.97
502.72	21146.74
502.90	20975.88
503.07	21132.70
503.25	21071.84
503.43	20893.96
503.60	21385.47
503.78	21252.06
503.95	21460.37
504.13	21432.29
504.30	21638.25
504.48	21439.31
504.65	21862.94
504.83	21891.03
505.01	22162.53
505.18	21584.42
505.36	21841.88
505.53	21977.63
505.71	21937.84
505.88	22272.54
506.06	22427.01
506.23	22150.83
506.41	22424.67
506.58	22178.92
506.76	22448.08
506.93	22668.09
507.11	22391.91
507.28	23084.70
507.46	22883.42
507.63	22831.93
507.81	23129.17
507.98	22717.24
508.16	23190.03
508.33	22895.12
508.50	23051.94
508.68	23365.57
508.85	23370.25
509.03	23442.81
509.20	23414.72
509.38	23761.12
509.55	23447.49
509.73	23726.01
509.90	23711.97
510.08	23658.14
510.25	23906.23
510.42	23875.80
510.60	23901.55
510.77	24217.52
510.95	24177.73
511.12	23976.45
511.30	24056.03
511.47	24226.89
511.64	24219.86
511.82	24404.77
511.99	24482.00
512.17	24402.43
512.34	24402.43
512.51	24753.51
512.69	24512.43
512.86	24725.42
513.04	25172.46
513.21	24964.15
513.38	24795.64
513.56	25160.76
513.73	25118.63
513.90	25188.85
514.08	25436.94
514.25	25308.21
514.43	25319.92
514.60	25303.53
514.77	25207.57
514.95	25352.68
515.12	25696.74
515.29	25443.96
515.47	25771.64
515.64	26001.01
515.81	25993.99
515.99	26033.78
516.16	26129.74
516.33	25933.14
516.51	26298.26
516.68	26225.70
516.85	26169.53
517.03	26443.37
517.20	26363.79
517.37	25926.11
517.54	26408.26
517.72	26544.02
517.89	26431.67
518.06	26654.02
518.24	26665.72
518.41	26885.73
518.58	26658.70
518.75	26579.12
518.93	26801.47
519.10	26567.42
519.27	27204.05
519.45	26885.73
519.62	26843.60
519.79	26747.64
519.96	27047.23
520.14	27098.72
520.31	26780.41
520.48	27377.25
520.65	26937.23
520.83	27838.33
521.00	27770.46
521.17	27590.24
521.34	27658.11
521.52	27747.05
521.69	27655.77
521.86	27674.49
522.03	27543.42
522.20	27779.82
522.38	28006.85
522.55	28119.20
522.72	28212.82
522.89	28020.89
523.07	28041.96
523.24	28011.53
523.41	28173.03
523.58	28357.93
523.75	28306.44
523.92	28280.69
524.10	29069.45
524.27	29057.75
524.44	28596.67
524.61	28364.95
524.78	28753.48
524.96	28687.95
525.13	28329.84
525.30	29144.35
525.47	29022.64
525.64	28903.28
525.81	29132.65
525.98	29275.42
526.16	29043.71
526.33	29134.99
526.50	29139.67
526.67	29041.37
526.84	29289.46
527.01	29535.22
527.18	29263.72
527.36	29237.97
527.53	29759.91
527.70	29476.71
527.87	29500.11
528.04	29663.95
528.21	30017.37
528.38	29713.10
528.55	29984.60
528.72	29731.83
528.89	29593.73
529.07	29413.51
529.24	29806.72
529.41	29888.64
529.58	29872.26
529.75	30202.27
529.92	30281.85
530.09	29905.02
530.26	29979.92
530.43	30064.18
530.60	29841.83
530.77	30188.23
530.94	30518.25
531.11	30211.64
531.28	30328.66
531.46	30778.04
531.63	30794.43
531.80	30665.70
531.97	30415.26
532.14	30925.50
532.31	30838.90
532.48	31246.15
532.65	31236.79
532.82	30834.22
532.99	30920.82
533.16	30752.30
533.33	30632.93
533.50	31023.80
533.67	31056.57
533.84	30864.64
534.01	31168.91
534.18	31292.96
534.35	31454.46
534.52	31077.63
534.69	31515.31
534.86	31070.61
535.03	31023.80
535.20	31494.25
535.37	31775.11
535.54	31899.16
535.71	31524.68
535.88	31761.07
536.05	32196.41
536.22	31948.31
536.38	31931.93
536.55	31648.72
536.72	31761.07
536.89	31784.48
537.06	31910.86
537.23	32587.28
537.40	32194.07
537.57	31976.40
537.74	32119.17
537.91	32486.64
538.08	31896.82
538.25	31810.22
538.42	32177.68
538.59	32542.81
538.75	32140.24
538.92	32879.85
539.09	32449.19
539.26	32393.01
539.43	32067.68
539.60	32601.32
539.77	32498.34
539.94	33069.43
540.11	33366.68
540.28	32833.04
540.44	32875.16
540.61	33076.45
540.78	33111.56
540.95	33064.75
541.12	33317.53
541.29	33024.96
541.46	33614.77
541.62	33333.91
541.79	33638.18
541.96	33336.25
542.13	33191.14
542.30	33853.51
542.47	33383.06
542.63	33589.03
542.80	34127.35
542.97	34368.43
543.14	34157.78
543.31	34038.41
543.48	33890.96
543.64	33975.22
543.81	33928.41
543.98	33689.67
544.15	34017.35
544.32	34204.59
544.48	34836.53
544.65	34141.39
544.82	34181.18
544.99	33811.38
545.16	34525.24
545.32	34136.71
545.49	34869.30
545.66	34993.35
545.83	35328.05
546.00	34775.68
546.16	35084.63
546.33	34689.08
546.50	34204.59
546.67	34466.73
546.83	34216.29
547.00	34593.12
547.17	33984.58
547.34	34106.29
547.50	34455.03
547.67	34763.98
547.84	35157.19
548.00	34958.24
548.17	35051.86
548.34	34660.99
548.51	34967.60
548.67	34691.42
548.84	34635.25
549.01	34892.71
549.18	34728.87
549.34	34904.41
549.51	35262.51
549.68	34918.45
549.84	35054.20
550.01	35098.67
550.18	34653.97
550.34	34686.74
550.51	34581.42
550.68	35086.97
550.84	35173.57
551.01	35068.25
551.18	34562.69
551.34	35030.80
551.51	35295.28
551.68	35274.21
551.84	34967.60
552.01	35037.82
552.18	35321.02
552.34	34969.94
552.51	35529.33
552.68	35173.57
552.84	35161.87
553.01	35793.81
553.18	35267.19
553.34	35594.87
553.51	35475.50
553.67	35344.43
553.84	36009.14
554.01	35838.28
554.17	35644.02
554.34	35658.06
554.51	35648.70
554.67	35732.96
554.84	35189.95
555.00	35314.00
555.17	35484.86
555.33	35622.95
555.50	35543.38
555.67	35653.38
555.83	35981.06
556.00	35725.94
556.16	36336.82
556.33	35721.26
556.50	35889.77
556.66	35798.49
556.83	35344.43
556.99	36198.73
557.16	36126.17
557.32	36430.44
557.49	36247.88
557.65	36154.26
557.82	35894.46
557.98	35992.76
558.15	35852.33
558.32	36388.31
558.48	36477.25
558.65	36620.02
558.81	36341.50
558.98	36341.50
559.14	36390.65
559.31	36065.31
559.47	36407.03
559.64	36360.22
559.80	36570.87
559.97	36151.91
560.13	36086.38
560.30	36142.55
560.46	36456.18
560.63	36477.25
560.79	36774.50
560.96	36589.59
561.12	36470.23
561.29	36371.92
561.45	36624.70
561.61	36495.97
561.78	36395.33
561.94	36222.13
562.11	36914.93
562.27	36940.68
562.44	36865.78
562.60	36758.11
562.77	36404.69
562.93	36655.13
563.10	36877.48
563.26	36390.65
563.42	37050.68
563.59	36844.71
563.75	36584.91
563.92	36985.15
564.08	36751.09
564.24	36598.96
564.41	36790.88
564.57	36715.98
564.74	37029.62
564.90	37282.39
565.07	37022.59
565.23	36917.27
565.39	37053.02
565.56	37151.32
565.72	36989.83
565.88	36975.78
566.05	36891.52
566.21	36708.96
566.38	36802.58
566.54	37022.59
566.70	37053.02
566.87	37368.99
567.03	37202.82
567.19	37914.34
567.36	37504.74
567.52	36793.22
567.68	37048.34
567.85	37216.86
568.01	37113.87
568.17	36641.09
568.34	37036.64
568.50	37680.28
568.66	37338.57
568.83	37261.33
568.99	37345.59
569.15	37186.43
569.32	37488.36
569.48	36886.84
569.64	37258.99
569.81	37153.66
569.97	37046.00
570.13	37261.33
570.30	36964.08
570.46	37364.31
570.62	37069.40
570.78	37125.58
570.95	36978.12
571.11	37598.37
571.27	37144.30
571.43	36767.48
571.60	37212.18
571.76	37074.09
571.92	37488.36
572.09	37053.02
572.25	37467.30
572.41	37539.85
572.57	37406.44
572.74	38073.49
572.90	37441.55
573.06	37626.45
573.22	37312.82
573.38	37427.51
573.55	37076.43
573.71	37560.92
573.87	37287.07
574.03	37277.71
574.20	37579.64
574.36	37642.84
574.52	37495.38
574.68	37305.80
574.84	37479.00
575.01	37708.37
575.17	37801.99
575.33	37296.44
575.49	37347.93
575.65	37902.64
575.82	37596.03
575.98	37809.01
576.14	37930.72
576.30	37493.04
576.46	37364.31
576.62	37750.50
576.79	37500.06
576.95	37881.57
577.11	37715.39
577.27	37860.51
577.43	37368.99
577.59	37560.92
577.75	37673.26
577.92	37647.52
578.08	37251.97
578.24	37649.86
578.40	37993.92
578.56	38132.01
578.72	37968.17
578.88	38508.83
579.04	37933.06
579.21	37640.50
579.37	37516.45
579.53	37687.31
579.69	37427.51
579.85	37631.13
580.01	38160.09
580.17	37621.77
580.33	37638.15
580.49	37893.27
580.65	37652.20
580.82	37727.10
580.98	37715.39
581.14	37813.70
581.30	37919.02
581.46	38024.34
581.62	37514.11
581.78	37876.89
581.94	37598.37
582.10	37771.57
582.26	37879.23
582.42	37820.72
582.58	37965.83
582.74	37406.44
582.90	37764.54
583.06	38150.73
583.22	38153.07
583.38	37624.11
583.54	37942.42
583.70	37560.92
583.86	37722.41
584.02	38101.58
584.18	38113.28
584.34	37993.92
584.50	37811.35
584.66	37762.20
584.82	37801.99
584.98	38010.30
585.14	37848.80
585.30	37940.08
585.46	38106.26
585.62	37539.85
585.78	38616.50
585.94	37776.25
586.10	37965.83
586.26	38307.55
586.42	38277.12
586.58	37893.27
586.74	37897.95
586.90	38242.01
587.06	37750.50
587.22	38157.75
587.38	38190.52
587.54	38504.15
587.70	38637.56
587.86	38555.64
588.02	37982.21
588.18	38174.14
588.34	38017.32
588.49	38216.27
588.65	38066.47
588.81	38117.96
588.97	38202.22
589.13	38155.41
589.29	38476.07
589.45	38356.70
589.61	38429.26
589.77	38398.83
589.93	38321.59
590.08	38284.14
590.24	38265.42
590.40	38501.81
590.56	38363.72
590.72	38298.19
590.88	38136.69
591.04	38288.82
591.20	38506.49
591.35	38429.26
591.51	39091.63
591.67	38473.73
591.83	38719.48
591.99	38436.28
592.15	38251.38
592.31	38265.42
592.46	38230.31
592.62	38541.60
592.78	38501.81
592.94	38040.73
593.10	38342.66
593.26	38525.22
593.41	38841.19
593.57	38639.90
593.73	38595.43
593.89	38775.66
594.05	38401.17
594.20	38202.22
594.36	37998.60
594.52	38071.15
594.68	38040.73
594.84	38349.68
594.99	38831.83
595.15	38447.98
595.31	38740.55
595.47	38796.72
595.62	38213.93
595.78	39054.18
595.94	38117.96
596.10	38515.86
596.25	38136.69
596.41	37895.61
596.57	38408.19
596.73	38817.78
596.88	38532.24
597.04	38440.96
597.20	38609.48
597.36	38803.74
597.51	38913.75
597.67	38593.09
597.83	38464.36
597.99	38960.56
598.14	38770.97
598.30	38714.80
598.46	38260.74
598.61	38684.37
598.77	38281.80
598.93	38506.49
599.09	38141.37
599.24	38890.34
599.40	38705.44
599.56	38628.20
599.71	38653.95
599.87	38763.95
600.03	38679.69
600.18	39014.39
600.34	38422.23
600.50	38323.93
600.65	38579.05
600.81	38642.24
600.97	38909.07
601.12	38953.54
601.28	38700.76
601.44	38724.16
601.59	38602.46
601.75	38401.17
601.91	39042.48
602.06	38150.73
602.22	38888.00
602.37	38745.23
602.53	38735.87
602.69	38944.17
602.84	38614.16
603.00	38227.97
603.16	38958.22
603.31	38522.88
603.47	38323.93
603.62	38569.69
603.78	38342.66
603.94	38330.95
604.09	38373.08
604.25	38319.25
604.40	38590.75
604.56	38604.80
604.71	38342.66
604.87	38939.49
605.03	38312.23
605.18	38066.47
605.34	38389.47
605.49	37897.95
605.65	38766.29
605.80	38230.31
605.96	38749.91
606.12	39021.41
606.27	38850.55
606.43	38501.81
606.58	38614.16
606.74	38466.70
606.89	38616.50
607.05	38181.16
607.20	38183.50
607.36	38256.06
607.51	38422.23
607.67	38064.13
607.82	38665.65
607.98	38628.20
608.13	38768.63
608.29	38593.09
608.44	38663.31
608.60	38593.09
608.75	38981.62
608.91	38216.27
609.06	37993.92
609.22	38443.30
609.37	38284.14
609.53	38431.60
609.68	38356.70
609.84	38586.07
609.99	38146.05
610.15	38527.56
610.30	38712.46
610.46	38724.16
610.61	39089.29
610.76	39103.33
610.92	39419.30
611.07	38916.09
611.23	39030.77
611.38	39009.71
611.54	39321.00
611.69	39274.19
611.84	39246.10
612.00	38892.68
612.15	38815.44
612.31	38785.02
612.46	38513.52
612.62	38492.45
612.77	38143.71
612.92	38419.89
613.08	38251.38
613.23	38312.23
613.39	38136.69
613.54	38216.27
613.69	37736.46
613.85	37900.29
614.00	38265.42
614.15	38679.69
614.31	38115.62
614.46	38352.02
614.62	38300.53
614.77	38113.28
614.92	38031.36
615.08	38061.79
615.23	38052.43
615.38	37708.37
615.54	37397.08
615.69	37439.21
615.84	37764.54
616.00	37963.49
616.15	37649.86
616.30	38029.02
616.46	37476.66
616.61	37046.00
616.76	37642.84
616.92	37010.89
617.07	37460.27
617.22	37244.94
617.37	37006.21
617.53	37450.91
617.68	37617.09
617.83	37266.01
617.99	37476.66
618.14	37457.93
618.29	37191.11
618.45	37083.45
618.60	37198.13
618.75	36758.11
618.90	36753.43
619.06	36631.72
619.21	36851.73
619.36	37413.46
619.51	37031.96
619.67	37413.46
619.82	36797.90
619.97	36807.26
620.12	37043.66
620.28	37270.69
620.43	37209.84
620.58	37614.75
620.73	37219.20
620.89	37237.92
621.04	36919.61
621.19	36598.96
621.34	36676.19
621.49	36552.15
621.65	36631.72
621.80	36863.44
621.95	37123.24
622.10	37200.47
622.25	37581.98
622.41	36886.84
622.56	36535.76
622.71	37024.93
622.86	36762.79
623.01	36369.58
623.16	36299.37
623.32	36512.36
623.47	36842.37
623.62	36947.70
623.77	36767.48
623.92	37156.00
624.07	37184.09
624.23	37031.96
624.38	36837.69
624.53	37134.94
624.68	36552.15
624.83	36746.41
624.98	36362.56
625.13	36018.50
625.29	36088.72
625.44	36397.67
625.59	36755.77
625.74	36142.55
625.89	36559.17
626.04	36135.53
626.19	35964.67
626.34	35749.34
626.49	35887.43
626.65	36107.44
626.80	36170.64
626.95	35676.79
627.10	35885.09
627.25	35730.62
627.40	36053.61
627.55	36041.91
627.70	36088.72
627.85	36182.34
628.00	36032.55
628.15	35887.43
628.30	35959.99
628.45	36247.88
628.60	35714.23
628.76	36030.21
628.91	35674.45
629.06	35412.31
629.21	36107.44
629.36	35810.20
629.51	35651.04
629.66	35749.34
629.81	35515.29
629.96	35672.10
630.11	35683.81
630.26	35828.92
630.41	35796.15
630.56	35651.04
630.71	35821.90
630.86	35894.46
631.01	35522.31
631.16	35601.89
631.31	35517.63
631.46	35243.79
631.61	35756.36
631.76	35309.32
631.91	35229.74
632.06	35267.19
632.21	34852.92
632.36	34838.87
632.51	35189.95
632.66	35480.18
632.81	34841.21
632.96	35342.09
633.10	35669.76
633.25	34862.28
633.40	34597.80
633.55	34995.69
633.70	34892.71
633.85	34572.05
634.00	34946.54
634.15	35068.25
634.30	34607.16
634.45	34663.33
634.60	35086.97
634.75	35168.89
634.90	34668.02
635.05	34944.20
635.19	34958.24
635.34	34932.50
635.49	34728.87
635.64	34787.38
635.79	34918.45
635.94	34682.06
636.09	34366.09
636.24	34815.47
636.39	34239.70
636.53	34862.28
636.68	34714.83
636.83	34590.78
636.98	35030.80
637.13	34424.60
637.28	34251.40
637.43	34637.59
637.57	34981.65
637.72	34249.06
637.87	34609.50
638.02	34459.71
638.17	34302.89
638.32	33951.81
638.46	34143.74
638.61	34333.32
638.76	33895.64
638.91	34349.70
639.06	34384.81
639.20	34614.18
639.35	34555.67
639.50	34286.51
639.65	34548.65
639.80	33839.47
639.94	33790.31
640.09	34185.86
640.24	34033.73
640.39	34312.25
640.54	33762.23
640.68	34113.31
640.83	33886.28
640.98	33696.69
641.13	34045.43
641.27	33940.11
641.42	33631.16
641.57	33944.79
641.72	34225.65
641.86	33701.37
642.01	33270.72
642.16	33530.51
642.31	33654.56
642.45	33991.60
642.60	33467.32
642.75	33462.64
642.90	34185.86
643.04	33537.54
643.19	33284.76
643.34	33624.14
643.48	33809.04
643.63	33612.43
643.78	33500.09
643.93	33619.46
644.07	33354.97
644.22	33230.93
644.37	33488.38
644.51	33347.95
644.66	33228.59
644.81	33448.60
644.95	33649.88
645.10	33542.22
645.25	33230.93
645.39	33233.27
645.54	33408.81
645.69	33350.29
645.83	33612.43
645.98	33158.37
646.13	33495.41
646.27	33703.71
646.42	33542.22
646.57	33469.66
646.71	32877.51
646.86	32783.88
647.00	33174.75
647.15	33537.54
647.30	33284.76
647.44	33266.03
647.59	33167.73
647.74	33130.28
647.88	33141.99
648.03	33090.49
648.17	32503.02
648.32	32603.66
648.47	32809.63
648.61	33247.31
648.76	32980.49
648.90	32758.14
649.05	33109.22
649.20	32622.39
649.34	33034.32
649.49	33319.87
649.63	33024.96
649.78	33385.40
649.92	32936.02
650.07	33298.80
650.21	32975.81
650.36	33024.96
650.51	33137.30
650.65	32594.30
650.80	33003.89
650.94	32818.99
651.09	32400.04
651.23	32357.91
651.38	32397.70
651.52	32748.78
651.67	32666.86
651.81	32367.27
651.96	32622.39
652.10	32119.17
652.25	32084.06
652.39	31974.06
652.54	31880.44
652.68	32187.05
652.83	31889.80
652.97	32500.68
653.12	32226.84
653.26	32453.87
653.41	32797.93
653.55	32411.74
653.70	32299.39
653.84	31910.86
653.99	32229.18
654.13	32119.17
654.27	31892.14
654.42	32177.68
654.56	31868.73
654.71	31850.01
654.85	31824.26
655.00	32393.01
655.14	31826.60
655.29	31754.05
655.43	31866.39
655.57	31934.27
655.72	31274.24
655.86	31803.20
656.01	31426.37
656.15	31288.28
656.30	31632.34
656.44	31772.77
656.58	31625.32
656.73	31819.58
656.87	31564.46
657.01	31660.43
657.16	31850.01
657.30	31496.59
657.45	31693.19
657.59	31040.18
657.73	31473.18
657.88	31381.90
658.02	31330.41
658.16	31527.02
658.31	31428.71
658.45	31414.67
658.60	31126.78
658.74	30953.58
658.88	31084.65
659.03	31124.44
659.17	30801.45
659.31	30953.58
659.46	31248.49
659.60	31187.64
659.74	31545.74
659.89	31075.29
660.03	31037.84
660.17	31019.12
660.32	30689.10
660.46	30630.59
660.60	30679.74
660.74	30448.03
660.89	30623.57
661.03	30422.28
661.17	30682.08
661.32	31068.27
661.46	31103.38
661.60	30771.02
661.74	30162.48
661.89	30415.26
662.03	30326.32
662.17	30228.02
662.31	30277.17
662.46	30443.35
662.60	30490.16
662.74	30359.09
662.88	30338.02
663.03	30288.87
663.17	30288.87
663.31	29933.11
663.45	30073.54
663.60	29933.11
663.74	30213.98
663.88	29975.24
664.02	30089.93
664.17	30036.09
664.31	29673.31
664.45	29366.70
664.59	29752.89
664.73	29347.98
664.88	29825.45
665.02	29336.27
665.16	29488.41
665.30	29841.83
665.44	29668.63
665.59	29003.92
665.73	29305.85
665.87	29055.41
666.01	28980.51
666.15	29425.22
666.29	29083.50
666.44	29460.32
666.58	28774.55
666.72	28404.74
666.86	29280.10
667.00	29371.38
667.14	28828.38
667.28	28601.35
667.43	29113.92
667.57	29088.18
667.71	28989.88
667.85	29256.70
667.99	28734.76
668.13	28781.57
668.27	28854.12
668.41	28868.17
668.56	27976.42
668.70	28556.88
668.84	28147.28
668.98	28037.28
669.12	28023.23
669.26	28290.06
669.40	28219.84
669.54	28451.55
669.68	28093.45
669.82	27885.14
669.96	27798.54
670.10	28018.55
670.25	28393.04
670.39	27920.25
670.53	27875.78
670.67	27564.49
670.81	27992.81
670.95	27798.54
671.09	27718.96
671.23	27356.18
671.37	27796.20
671.51	27861.74
671.65	27725.99
671.79	27887.48
671.93	27470.87
672.07	27484.91
672.21	27412.35
672.35	27248.52
672.49	27300.01
672.63	27440.44
672.77	27232.13
672.91	27182.98
673.05	26815.52
673.19	26808.50
673.33	26485.50
673.47	26288.90
673.61	26536.99
673.75	26864.67
673.89	26567.42
674.03	26792.11
674.17	26611.89
674.31	26614.23
674.45	26735.94
674.59	26586.15
674.73	26611.89
674.87	26677.43
675.01	25942.50
675.15	26115.70
675.29	26429.33
675.43	26190.59
675.56	26178.89
675.70	26010.37
675.84	25500.14
675.98	24713.72
676.12	25460.35
676.26	26162.51
676.40	25605.46
676.54	25362.04
676.68	25598.44
676.82	25261.40
676.96	25350.34
677.10	25429.92
677.23	25289.49
677.37	25282.47
677.51	25069.48
677.65	25177.14
677.79	24786.27
677.93	24779.25
678.07	24491.37
678.21	24421.15
678.34	24570.94
678.48	24538.18
678.62	24514.77
678.76	24638.82
678.90	24437.53
679.04	24676.27
679.18	24161.35
679.31	23983.47
679.45	23889.85
679.59	24280.72
679.73	23997.51
679.87	23936.66
680.00	24020.92
680.14	23417.06
680.28	23723.67
680.42	23754.10
680.56	23573.88
680.70	23618.35
680.83	23150.24
680.97	23653.45
681.11	23428.76
681.25	23271.95
681.39	23138.54
681.52	23037.89
681.66	23559.83
681.80	23108.11
681.94	22434.03
682.07	22724.26
682.21	22611.92
682.35	23026.19
682.49	22829.59
682.62	22647.02
682.76	22445.74
682.90	22696.17
683.04	22398.93
683.17	22115.72
683.31	22387.22
683.45	22036.14
683.59	21989.33
683.72	22211.68
683.86	22134.45
684.00	21991.67
684.13	21394.84
684.27	21247.38
684.41	21579.74
684.55	21387.82
684.68	21659.32
684.82	21378.45
684.96	21673.36
685.09	21153.76
685.23	21575.06
685.37	21530.59
685.50	21088.23
685.64	21317.60
685.78	21018.01
685.91	20926.73
686.05	20753.53
686.19	20592.03
686.32	20587.35
686.46	20531.18
686.60	20847.15
686.73	20666.93
686.87	20460.96
687.01	20472.67
687.14	20329.89
687.28	19948.39
687.42	20355.64
687.55	19875.83
687.69	19955.41
687.82	19711.99
687.96	20205.84
688.10	19459.21
688.23	20086.48
688.37	19845.40
688.50	19646.46
688.64	19719.01
688.78	19814.98
688.91	19623.05
689.05	19648.80
689.18	19255.59
689.32	18977.06
689.46	19281.33
689.59	19185.37
689.73	19033.24
689.86	18820.25
690.00	18946.64
690.13	18932.59
690.27	18590.88
690.41	18637.69
690.54	18539.38
690.68	18534.70
690.81	18717.26
690.95	18663.43
691.08	18661.09
691.22	18539.38
691.35	18024.47
691.49	18370.86
691.62	18230.43
691.76	18221.07
691.89	18001.06
692.03	18026.81
692.16	18181.28
692.30	17982.34
692.43	17994.04
692.57	17652.32
692.70	17359.75
692.84	17621.89
692.97	17551.68
693.11	17500.19
693.24	17495.50
693.38	17525.93
693.51	17172.51
693.65	17125.70
693.78	17282.52
693.92	17142.08
694.05	16783.98
694.19	17121.02
694.32	17041.44
694.45	17064.85
694.59	16781.64
694.72	16648.23
694.86	16362.69
694.99	16130.97
695.13	16320.56
695.26	16201.19
695.39	16416.52
695.53	16460.99
695.66	16170.76
695.80	16226.93
695.93	15969.48
696.07	15917.98
696.20	15950.75
696.33	16189.49
696.47	15779.89
696.60	15627.76
696.73	15651.16
696.87	15545.84
697.00	15513.07
697.14	15475.62
697.27	15410.09
697.40	15337.53
697.54	15016.88
697.67	15101.14
697.80	14965.39
697.94	14965.39
698.07	15159.65
698.21	14754.74
698.34	14878.79
698.47	14920.92
698.61	14607.28
698.74	14640.05
698.87	14792.19
699.01	14895.17
699.14	14583.88
699.27	14506.64
699.40	14693.88
699.54	14661.12
699.67	14604.94
699.80	14513.66
699.94	13994.06
700.07	14127.47
700.20	14008.11
700.34	13729.58
700.47	13940.23
700.60	13998.74
700.73	13958.96
700.87	13668.73
701.00	13837.25
701.13	13570.43
701.26	13266.16
701.40	13600.85
701.53	13500.21
701.66	13350.42
701.79	13270.84
701.93	13355.10
702.06	13399.57
702.19	13121.04
702.32	13015.72
702.46	13029.76
702.59	12875.29
702.72	12933.80
702.85	12732.51
702.99	12849.54
703.12	12798.05
703.25	12587.40
703.38	12472.71
703.51	12788.69
703.65	12547.61
703.78	12837.84
703.91	12575.70
704.04	12746.56
704.17	12589.74
704.31	12353.35
704.44	12159.08
704.57	12238.66
704.70	12191.85
704.83	11744.81
704.96	11845.45
705.10	11864.18
705.23	11892.26
>>>>>End Processed Spectral Data<<<<<
