SpectraSuite Data File
++++++++++++++++++++++++++++++++++++
Date: Thu Oct 24 13:21:15 EDT 2013
User: stostad
Dark Spectrum Present: No
Reference Spectrum Present: No
Number of Sampled Component Spectra: 1
Spectrometers: USB2+H05261
Integration Time (usec): 100000 (USB2+H05261)
Spectra Averaged: 1 (USB2+H05261)
Boxcar Smoothing: 0 (USB2+H05261)
Correct for Electrical Dark: No (USB2+H05261)
Strobe/Lamp Enabled: No (USB2+H05261)
Correct for Detector Non-linearity: No (USB2+H05261)
Correct for Stray Light: No (USB2+H05261)
Number of Pixels in Processed Spectrum: 2048
>>>>>Begin Processed Spectral Data<<<<<
365.73	627.26
365.92	627.26
366.12	627.26
366.32	465.77
366.52	470.45
366.72	526.62
366.91	477.47
367.11	465.77
367.31	498.53
367.51	465.77
367.70	463.43
367.90	484.49
368.10	461.09
368.30	409.59
368.49	425.98
368.69	477.47
368.89	440.02
369.09	470.45
369.28	468.11
369.48	500.87
369.68	477.47
369.87	449.38
370.07	409.59
370.27	552.37
370.47	603.86
370.66	720.88
370.86	821.53
371.06	805.14
371.25	833.23
371.45	770.04
371.65	840.25
371.84	779.40
372.04	847.27
372.24	786.42
372.44	905.79
372.63	840.25
372.83	821.53
373.03	964.30
373.22	849.61
373.42	903.45
373.62	889.40
373.81	882.38
374.01	882.38
374.21	978.34
374.40	901.11
374.60	875.36
374.79	894.08
374.99	898.77
375.19	959.62
375.38	898.77
375.58	947.92
375.78	870.68
375.97	856.64
376.17	858.98
376.37	1046.22
376.56	959.62
376.76	877.70
376.95	1027.50
377.15	931.53
377.35	877.70
377.54	971.32
377.74	987.71
377.93	1018.13
378.13	959.62
378.33	1006.43
378.52	950.26
378.72	929.19
378.91	983.02
379.11	924.51
379.31	1013.45
379.50	961.96
379.70	1001.75
379.89	952.60
380.09	983.02
380.28	910.47
380.48	1001.75
380.68	987.71
380.87	912.81
381.07	929.19
381.26	945.58
381.46	1006.43
381.65	922.17
381.85	952.60
382.04	1050.90
382.24	983.02
382.43	898.77
382.63	1013.45
382.83	976.00
383.02	940.90
383.22	1043.88
383.41	1004.09
383.61	990.05
383.80	1055.58
384.00	1093.03
384.19	1078.99
384.39	1076.65
384.58	1107.07
384.78	990.05
384.97	1001.75
385.17	1107.07
385.36	959.62
385.56	1104.73
385.75	1135.16
385.95	1029.84
386.14	1100.05
386.34	1069.62
386.53	987.71
386.72	1064.94
386.92	1100.05
387.11	1039.20
387.31	1137.50
387.50	1083.67
387.70	1055.58
387.89	1123.46
388.09	1174.95
388.28	1064.94
388.48	1111.75
388.67	1184.31
388.86	1090.69
389.06	1200.69
389.25	1177.29
389.45	1165.59
389.64	1203.04
389.84	1181.97
390.03	1231.12
390.22	1193.67
390.42	1205.38
390.61	1163.25
390.81	1193.67
391.00	1221.76
391.19	1191.33
391.39	1170.27
391.58	1193.67
391.78	1177.29
391.97	1331.76
392.16	1261.55
392.36	1261.55
392.55	1277.93
392.75	1282.61
392.94	1252.19
393.13	1247.51
393.33	1284.95
393.52	1303.68
393.71	1336.45
393.91	1287.29
394.10	1226.44
394.29	1238.14
394.49	1329.42
394.68	1284.95
394.88	1313.04
395.07	1324.74
395.26	1310.70
395.46	1350.49
395.65	1270.91
395.84	1383.26
396.04	1430.07
396.23	1383.26
396.42	1373.89
396.62	1416.02
396.81	1385.60
397.00	1291.98
397.19	1453.47
397.39	1359.85
397.58	1359.85
397.77	1460.49
397.97	1502.62
398.16	1423.05
398.35	1472.20
398.55	1455.81
398.74	1446.45
398.93	1446.45
399.12	1399.64
399.32	1495.60
399.51	1504.96
399.70	1467.52
399.90	1591.56
400.09	1462.83
400.28	1481.56
400.47	1469.86
400.67	1516.67
400.86	1563.48
401.05	1516.67
401.24	1586.88
401.44	1636.03
401.63	1654.76
401.82	1631.35
402.01	1636.03
402.21	1547.09
402.40	1661.78
402.59	1575.18
402.78	1701.57
402.97	1638.38
403.17	1671.14
403.36	1621.99
403.55	1827.96
403.74	1708.59
403.93	1802.21
404.13	1764.76
404.32	1764.76
404.51	1785.83
404.70	1813.92
404.89	1778.81
405.09	1774.13
405.28	1767.10
405.47	1762.42
405.66	1778.81
405.85	1802.21
406.05	1874.77
406.24	1839.66
406.43	1832.64
406.62	1860.73
406.81	1902.86
407.00	1928.60
407.20	1916.90
407.39	1891.15
407.58	1849.02
407.77	1987.11
407.96	1959.03
408.15	1919.24
408.34	1942.64
408.54	1888.81
408.73	1893.49
408.92	2033.93
409.11	1975.41
409.30	2085.42
409.49	2052.65
409.68	2015.20
409.87	2047.97
410.07	2132.23
410.26	2040.95
410.45	2157.97
410.64	2115.84
410.83	2165.00
411.02	2122.87
411.21	2216.49
411.40	2148.61
411.59	2176.70
411.78	2272.66
411.98	2277.34
412.17	2258.62
412.36	2225.85
412.55	2310.11
412.74	2335.85
412.93	2361.60
413.12	2298.41
413.31	2286.70
413.50	2399.05
413.69	2361.60
413.88	2436.50
414.07	2445.86
414.26	2434.16
414.45	2462.24
414.64	2438.84
414.83	2471.61
415.02	2551.18
415.22	2513.74
415.41	2560.55
415.60	2480.97
415.79	2597.99
415.98	2605.02
416.17	2630.76
416.36	2665.87
416.55	2675.23
416.74	2740.77
416.93	2593.31
417.12	2700.98
417.31	2773.53
417.50	2647.15
417.69	2860.13
417.88	2916.31
418.07	2822.69
418.26	2780.56
418.45	2794.60
418.64	2895.24
418.83	2932.69
419.02	2867.16
419.21	2883.54
419.39	2864.82
419.58	2949.08
419.77	2869.50
419.96	3012.27
420.15	2942.05
420.34	2930.35
420.53	3040.36
420.72	2963.12
420.91	3089.51
421.10	3145.68
421.29	2995.89
421.48	3019.29
421.67	3094.19
421.86	3070.78
422.05	3129.30
422.24	3030.99
422.43	3038.02
422.61	3169.09
422.80	3122.27
422.99	3070.78
423.18	3143.34
423.37	3276.75
423.56	3171.43
423.75	3133.98
423.94	3192.49
424.13	3038.02
424.32	3105.89
424.50	3246.32
424.69	3178.45
424.88	3194.83
425.07	3162.06
425.26	3197.17
425.45	3251.00
425.64	3199.51
425.83	3124.62
426.01	3133.98
426.20	3251.00
426.39	3321.22
426.58	3204.19
426.77	3073.12
426.96	3176.11
427.15	3318.88
427.33	3328.24
427.52	3342.28
427.71	3363.35
427.90	3358.67
428.09	3335.26
428.28	3262.71
428.46	3274.41
428.65	3440.59
428.84	3454.63
429.03	3414.84
429.22	3522.51
429.40	3438.25
429.59	3564.64
429.78	3358.67
429.97	3309.52
430.16	3454.63
430.34	3597.40
430.53	3550.59
430.72	3506.12
430.91	3382.07
431.10	3431.23
431.28	3616.13
431.47	3578.68
431.66	3691.02
431.85	3644.21
432.03	3721.45
432.22	3826.78
432.41	3630.17
432.60	3756.56
432.79	3735.50
432.97	3648.90
433.16	3822.09
433.35	3789.33
433.54	3730.81
433.72	3716.77
433.91	3737.84
434.10	3829.12
434.28	3749.54
434.47	3838.48
434.66	3906.35
434.85	3812.73
435.03	4030.40
435.22	4180.20
435.41	4339.35
435.59	4212.96
435.78	4095.94
435.97	4023.38
436.16	3913.38
436.34	3939.12
436.53	4044.45
436.72	4002.32
436.90	3878.27
437.09	4030.40
437.28	3936.78
437.46	4098.28
437.65	4159.13
437.84	4058.49
438.02	4102.96
438.21	4177.86
438.40	3969.55
438.58	4262.12
438.77	4241.05
438.96	4231.69
439.14	4285.52
439.33	4395.53
439.52	4341.69
439.70	4447.02
439.89	4435.32
440.08	4395.53
440.26	4454.04
440.45	4470.42
440.63	4449.36
440.82	4589.79
441.01	4514.89
441.19	4599.15
441.38	4578.09
441.57	4662.35
441.75	4624.90
441.94	4767.67
442.12	4723.20
442.31	4791.08
442.50	4814.48
442.68	4603.83
442.87	4753.63
443.05	4863.63
443.24	4903.42
443.43	4936.19
443.61	4912.78
443.80	5177.26
443.98	4819.16
444.17	4798.10
444.35	4784.06
444.54	4990.02
444.73	4936.19
444.91	5029.81
445.10	4983.00
445.28	5057.90
445.47	4973.64
445.65	4919.81
445.84	5074.28
446.02	5043.85
446.21	5167.90
446.39	5039.17
446.58	5172.58
446.77	5078.96
446.95	4936.19
447.14	5029.81
447.32	5212.37
447.51	5032.15
447.69	5050.88
447.88	4952.57
448.06	5055.56
448.25	5057.90
448.43	5118.75
448.62	5146.84
448.80	5043.85
448.99	5256.84
449.17	5263.86
449.36	5174.92
449.54	5170.24
449.73	5210.03
449.91	5399.62
450.10	5214.71
450.28	5455.79
450.46	5298.97
450.65	5245.14
450.83	5228.76
451.02	5327.06
451.20	5420.68
451.39	5329.40
451.57	5394.93
451.76	5336.42
451.94	5338.76
452.13	5582.18
452.31	5453.45
452.49	5324.72
452.68	5497.92
452.86	5467.49
453.05	5425.36
453.23	5514.30
453.42	5427.70
453.60	5497.92
453.78	5682.82
453.97	5568.13
454.15	5504.94
454.34	5530.69
454.52	5605.58
454.70	5605.58
454.89	5790.49
455.07	5556.43
455.26	5736.65
455.44	5703.89
455.62	5769.42
455.81	5774.10
455.99	5797.51
456.17	5802.19
456.36	5792.83
456.54	5877.09
456.73	5954.32
456.91	6001.13
457.09	6134.54
457.28	6153.27
457.46	6115.82
457.64	6136.88
457.83	6099.44
458.01	6104.12
458.19	6181.35
458.38	6101.78
458.56	6335.83
458.74	6022.20
458.93	6174.33
459.11	6221.14
459.29	6211.78
459.48	6197.74
459.66	6230.51
459.84	6279.66
460.03	6546.48
460.21	6431.79
460.39	6352.21
460.57	6548.82
460.76	6569.88
460.94	6499.67
461.12	6480.94
461.31	6558.18
461.49	6438.81
461.67	6544.14
461.85	6651.80
462.04	6417.75
462.22	7112.89
462.40	6614.35
462.59	6682.23
462.77	6450.52
462.95	6682.23
463.13	6768.83
463.32	6796.92
463.50	6729.04
463.68	6808.62
463.86	6785.21
464.05	6464.56
464.23	6736.06
464.41	6719.68
464.59	6745.42
464.78	7000.54
464.96	6806.28
465.14	6719.68
465.32	6988.84
465.50	6991.18
465.69	7110.55
465.87	6937.35
466.05	6857.77
466.23	7068.42
466.41	7042.67
466.60	7159.70
466.78	6956.07
466.96	7112.89
467.14	6839.05
467.32	7026.29
467.51	7070.76
467.69	7098.84
467.87	7094.16
468.05	7190.13
468.23	7101.19
468.41	7073.10
468.60	7248.64
468.78	7136.29
468.96	7028.63
469.14	7194.81
469.32	7300.13
469.50	7178.42
469.69	7396.09
469.87	7531.84
470.05	7510.78
470.23	7541.21
470.41	7604.40
470.59	7609.08
470.77	7358.64
470.95	7337.58
471.14	7695.68
471.32	7372.69
471.50	7529.50
471.68	7644.19
471.86	7676.96
472.04	7770.58
472.22	7815.05
472.40	7747.17
472.58	7775.26
472.77	8051.44
472.95	7992.93
473.13	8105.28
473.31	7908.67
473.49	8102.93
473.67	7913.35
473.85	8135.70
474.03	8374.44
474.21	8149.75
474.39	8294.86
474.57	8355.71
474.75	8423.59
474.93	8409.54
475.12	8510.19
475.30	8561.68
475.48	8409.54
475.66	8608.49
475.84	8458.70
476.02	8451.67
476.20	8674.03
476.38	8744.24
476.56	8947.87
476.74	9048.51
476.92	8973.61
477.10	8912.76
477.28	9088.30
477.46	9018.08
477.64	8982.98
477.82	9039.15
478.00	9345.76
478.18	9558.75
478.36	9245.12
478.54	9390.23
478.72	9579.81
478.90	9757.69
479.08	9832.59
479.26	10017.49
479.44	9851.31
479.62	9834.93
479.80	10012.81
479.98	9848.97
480.16	10178.99
480.34	9916.85
480.52	10291.34
480.70	10509.01
480.88	10207.08
481.06	10258.57
481.24	10391.98
481.41	10408.36
481.59	10541.77
481.77	10740.72
481.95	10841.36
482.13	10738.38
482.31	10747.74
482.49	11061.37
482.67	11000.52
482.85	11468.62
483.03	11391.39
483.21	11585.65
483.39	11669.91
483.57	11492.03
483.74	11513.10
483.92	11908.65
484.10	11559.91
484.28	11964.82
484.46	12114.61
484.64	12203.55
484.82	11985.88
485.00	12257.39
485.18	12163.76
485.35	12259.73
485.53	12659.96
485.71	12505.48
485.89	12840.18
486.07	12826.14
486.25	12758.26
486.43	12884.65
486.61	13200.62
486.78	13004.02
486.96	13128.06
487.14	13397.23
487.32	13493.19
487.50	13563.40
487.68	13584.47
487.85	13722.56
488.03	13944.91
488.21	14064.28
488.39	14026.83
488.57	14155.56
488.75	14228.12
488.92	14361.53
489.10	14569.83
489.28	14728.99
489.46	14649.41
489.64	14436.42
489.81	15005.17
489.99	15047.30
490.17	15154.97
490.35	15393.70
490.53	15272.00
490.70	15580.95
490.88	15594.99
491.06	15492.01
491.24	15335.19
491.41	15566.90
491.59	15613.71
491.77	15751.81
491.95	16086.50
492.13	16170.76
492.30	16306.51
492.48	16430.56
492.66	16109.91
492.84	16175.44
493.01	16636.53
493.19	16844.84
493.37	16863.56
493.54	16814.41
493.72	16905.69
493.90	16915.05
494.08	17284.86
494.25	17401.88
494.43	17373.80
494.61	17252.09
494.79	17336.35
494.96	17158.47
495.14	17596.15
495.32	17687.43
495.49	17792.75
495.67	17947.23
495.85	17818.50
496.02	18347.46
496.20	18284.26
496.38	18279.58
496.55	18267.88
496.73	18558.11
496.91	18703.22
497.09	18787.48
497.26	18794.50
497.44	18820.25
497.62	18728.97
497.79	19040.26
497.97	18979.40
498.14	19419.42
498.32	19407.72
498.50	19653.48
498.67	19599.65
498.85	19318.78
499.03	19838.38
499.20	19751.78
499.38	19777.53
499.56	20065.41
499.73	20135.63
499.91	20161.37
500.08	20233.93
500.26	19950.73
500.44	20362.66
500.61	20449.26
500.79	20042.01
500.97	20673.95
501.14	20835.45
501.32	20643.52
501.49	20549.90
501.67	20622.46
501.84	20720.76
502.02	20924.39
502.20	21006.31
502.37	21301.22
502.55	20912.69
502.72	20739.49
502.90	21263.77
503.07	21135.04
503.25	21343.35
503.43	20858.85
503.60	21490.80
503.78	21649.96
503.95	21530.59
504.13	21703.79
504.30	21701.45
504.48	21532.93
504.65	22082.95
504.83	21954.22
505.01	22129.77
505.18	22174.24
505.36	22258.49
505.53	22132.11
505.71	22225.73
505.88	22658.73
506.06	22569.79
506.23	22398.93
506.41	22464.46
506.58	22621.28
506.76	22827.24
506.93	23002.78
507.11	22972.36
507.28	23166.62
507.46	23283.65
507.63	23094.07
507.81	23171.30
507.98	23220.45
508.16	22740.64
508.33	23047.26
508.50	23405.36
508.68	23506.00
508.85	23707.29
509.03	23531.75
509.20	23562.17
509.38	23658.14
509.55	23571.54
509.73	23981.13
509.90	23742.39
510.08	24191.78
510.25	24147.31
510.42	23988.15
510.60	24072.41
510.77	24730.10
510.95	24107.52
511.12	24273.70
511.30	24334.55
511.47	24540.52
511.64	24477.32
511.82	24793.29
511.99	24144.97
512.17	24903.30
512.34	24671.59
512.51	24952.45
512.69	25032.03
512.86	25118.63
513.04	25614.82
513.21	24992.24
513.38	25163.10
513.56	25355.02
513.73	25287.15
513.90	25628.87
514.08	25603.12
514.25	25654.61
514.43	25781.00
514.60	25525.88
514.77	25458.01
514.95	25806.75
515.12	25827.81
515.29	25781.00
515.47	26057.18
515.64	26040.80
515.81	25806.75
515.99	26281.88
516.16	25900.37
516.33	26228.04
516.51	26642.32
516.68	26504.23
516.85	26703.17
517.03	26658.70
517.20	26539.33
517.37	26768.71
517.54	26890.41
517.72	26569.76
517.89	26712.53
518.06	27012.12
518.24	27173.62
518.41	26759.34
518.58	26647.00
518.75	26939.57
518.93	26972.33
519.10	26780.41
519.27	27206.39
519.45	27180.64
519.62	27285.97
519.79	27372.57
519.96	27360.86
520.14	27426.40
520.31	27271.92
520.48	27662.79
520.65	27590.24
520.83	27850.03
521.00	28037.28
521.17	27845.35
521.34	28074.73
521.52	27885.14
521.69	27843.01
521.86	27597.26
522.03	28198.77
522.20	28086.43
522.38	28133.24
522.55	28458.57
522.72	28044.30
522.89	28208.14
523.07	28491.34
523.24	28379.00
523.41	28739.44
523.58	28217.50
523.75	28701.99
523.92	28552.20
524.10	28816.68
524.27	29020.30
524.44	28620.07
524.61	28943.06
524.78	28973.49
524.96	29027.32
525.13	29008.60
525.30	29336.27
525.47	29429.90
525.64	29198.18
525.81	29631.18
525.98	29329.25
526.16	29153.71
526.33	29125.63
526.50	29390.11
526.67	29247.33
526.84	29766.93
527.01	29294.14
527.18	30012.69
527.36	29923.75
527.53	29937.79
527.70	29954.18
527.87	29970.56
528.04	29731.83
528.21	30265.47
528.38	30216.32
528.55	29886.30
528.72	29881.62
528.89	30483.14
529.07	30209.29
529.24	29963.54
529.41	30209.29
529.58	30377.81
529.75	30258.45
529.92	30668.04
530.09	30459.73
530.26	30113.33
530.43	30181.21
530.60	29879.28
530.77	30277.17
530.94	30754.64
531.11	30941.88
531.28	30955.93
531.46	30998.06
531.63	31136.15
531.80	30651.66
531.97	30768.68
532.14	30855.28
532.31	30705.49
532.48	31285.94
532.65	31374.88
532.82	31021.46
532.99	30848.26
533.16	30991.03
533.33	31178.28
533.50	31498.93
533.67	31150.19
533.84	31070.61
534.01	31253.17
534.18	31215.72
534.35	32051.30
534.52	31590.21
534.69	31641.70
534.86	31414.67
535.03	31332.75
535.20	31985.76
535.37	31763.41
535.54	31721.28
535.71	31922.57
535.88	31901.50
536.05	32231.52
536.22	31997.46
536.38	31908.52
536.55	32142.58
536.72	32629.41
536.89	32184.71
537.06	32222.16
537.23	32416.42
537.40	32554.51
537.57	32467.91
537.74	32215.13
537.91	32158.96
538.08	32259.60
538.25	32184.71
538.42	32598.98
538.59	32664.52
538.75	32587.28
538.92	32741.75
539.09	32596.64
539.26	32430.46
539.43	32524.08
539.60	32706.65
539.77	32938.36
539.94	33546.90
540.11	33174.75
540.28	33022.62
540.44	33574.98
540.61	32966.45
540.78	33282.42
540.95	33420.51
541.12	33495.41
541.29	33469.66
541.46	34026.71
541.62	33865.21
541.79	34328.64
541.96	33507.11
542.13	33830.10
542.30	33895.64
542.47	33806.70
542.63	33818.40
542.80	34338.00
542.97	34513.54
543.14	34602.48
543.31	34031.39
543.48	34242.04
543.64	34621.20
543.81	34183.52
543.98	34672.70
544.15	34885.68
544.32	34476.09
544.48	34604.82
544.65	34235.02
544.82	35016.75
544.99	34473.75
545.16	34778.02
545.32	34604.82
545.49	35124.42
545.66	35557.42
545.83	35798.49
546.00	35962.33
546.16	35119.74
546.33	35178.25
546.50	34602.48
546.67	34916.11
546.83	34155.44
547.00	34721.85
547.17	34735.89
547.34	35117.40
547.50	35009.73
547.67	34958.24
547.84	34756.96
548.00	35292.94
548.17	35150.17
548.34	34934.84
548.51	35496.56
548.67	35316.34
548.84	35604.23
549.01	35260.17
549.18	35175.91
549.34	35222.72
549.51	35260.17
549.68	35739.98
549.84	35395.92
550.01	35491.88
550.18	34712.49
550.34	35000.37
550.51	35342.09
550.68	35363.15
550.84	35260.17
551.01	35424.01
551.18	35112.72
551.34	35133.78
551.51	35351.45
551.68	35260.17
551.84	35204.00
552.01	35466.14
552.18	35669.76
552.34	35381.88
552.51	35573.80
552.68	35641.68
552.84	35990.42
553.01	36290.01
553.18	35894.46
553.34	36013.82
553.51	35711.89
553.67	35910.84
553.84	36009.14
554.01	36187.02
554.17	35868.71
554.34	35959.99
554.51	35849.99
554.67	36257.24
554.84	35981.06
555.00	35831.26
555.17	35838.28
555.33	35793.81
555.50	35906.16
555.67	36065.31
555.83	36311.07
556.00	35955.31
556.16	36561.51
556.33	36425.76
556.50	36189.36
556.66	36439.80
556.83	36109.78
556.99	36694.92
557.16	36512.36
557.32	36142.55
557.49	36151.91
557.65	36158.94
557.82	36357.88
557.98	36739.39
558.15	36418.74
558.32	36486.61
558.48	36465.55
558.65	36739.39
558.81	36891.52
558.98	36589.59
559.14	36610.66
559.31	36484.27
559.47	36786.20
559.64	36329.80
559.80	36701.94
559.97	36573.21
560.13	36409.37
560.30	36442.14
560.46	36973.44
560.63	36767.48
560.79	36821.31
560.96	37280.05
561.12	36727.69
561.29	37230.90
561.45	37088.13
561.61	37172.39
561.78	36725.35
561.94	36760.45
562.11	37132.60
562.27	37139.62
562.44	37294.10
562.60	37060.04
562.77	36617.68
562.93	36865.78
563.10	37153.66
563.26	36835.35
563.42	37364.31
563.59	37378.36
563.75	36882.16
563.92	37434.53
564.08	36931.31
564.24	37319.84
564.41	37104.51
564.57	37378.36
564.74	36919.61
564.90	37326.86
565.07	37469.64
565.23	37483.68
565.39	37301.12
565.56	37773.91
565.72	37188.77
565.88	37413.46
566.05	37165.37
566.21	37336.23
566.38	37144.30
566.54	36945.36
566.70	37591.34
566.87	37521.13
567.03	37146.64
567.19	37886.25
567.36	37708.37
567.52	37542.19
567.68	37645.18
567.85	37205.16
568.01	37607.73
568.17	37542.19
568.34	37420.48
568.50	37633.47
568.66	37729.44
568.83	37701.35
568.99	37687.31
569.15	37668.58
569.32	37476.66
569.48	37425.17
569.64	37319.84
569.81	37670.92
569.97	37385.38
570.13	37755.18
570.30	37357.29
570.46	37909.66
570.62	37385.38
570.78	37844.12
570.95	37294.10
571.11	37947.11
571.27	37799.65
571.43	37549.21
571.60	37570.28
571.76	37771.57
571.92	37696.67
572.09	37581.98
572.25	38082.86
572.41	37837.10
572.57	38036.05
572.74	37979.87
572.90	37773.91
573.06	38029.02
573.22	37448.57
573.38	38019.66
573.55	37572.62
573.71	38117.96
573.87	37937.74
574.03	37385.38
574.20	37872.21
574.36	37982.21
574.52	38005.62
574.68	38059.45
574.84	38092.22
575.01	37886.25
575.17	38038.39
575.33	37841.78
575.49	37942.42
575.65	37949.45
575.82	38239.67
575.98	37858.17
576.14	38230.31
576.30	38445.64
576.46	38239.67
576.62	37963.49
576.79	38394.15
576.95	37610.07
577.11	37902.64
577.27	38272.44
577.43	38089.88
577.59	38106.26
577.75	38043.07
577.92	37794.97
578.08	37713.05
578.24	37619.43
578.40	38548.62
578.56	38534.58
578.72	38438.62
578.88	38398.83
579.04	38417.55
579.21	38244.35
579.37	38274.78
579.53	38412.87
579.69	38052.43
579.85	38122.65
580.01	38487.77
580.17	38295.85
580.33	38251.38
580.49	38265.42
580.65	38387.13
580.82	38389.47
580.98	38108.60
581.14	37958.81
581.30	38361.38
581.46	37820.72
581.62	38106.26
581.78	38026.68
581.94	38323.93
582.10	38068.81
582.26	37546.87
582.42	38459.68
582.58	37975.19
582.74	37844.12
582.90	38373.08
583.06	38164.78
583.22	38359.04
583.38	37872.21
583.54	38373.08
583.70	38190.52
583.86	38244.35
584.02	38094.56
584.18	38567.35
584.34	38670.33
584.50	38323.93
584.66	37904.98
584.82	38270.10
584.98	38115.62
585.14	37975.19
585.30	38775.66
585.46	38607.14
585.62	38396.49
585.78	38242.01
585.94	38508.83
586.10	38174.14
586.26	38698.42
586.42	38340.32
586.58	38719.48
586.74	38234.99
586.90	38447.98
587.06	38263.08
587.22	38614.16
587.38	38476.07
587.54	38651.61
587.70	38831.83
587.86	39058.86
588.02	38419.89
588.18	38251.38
588.34	38490.11
588.49	38536.92
588.65	38192.86
588.81	38230.31
588.97	38515.86
589.13	38504.15
589.29	38705.44
589.45	38242.01
589.61	38557.99
589.77	38953.54
589.93	38375.42
590.08	38705.44
590.24	38583.73
590.40	38880.98
590.56	39253.12
590.72	38412.87
590.88	38618.84
591.04	38562.67
591.20	38724.16
591.35	38927.79
591.51	39395.90
591.67	38918.43
591.83	39395.90
591.99	38946.51
592.15	38586.07
592.31	38712.46
592.46	38480.75
592.62	38813.10
592.78	39098.65
592.94	39044.82
593.10	38773.31
593.26	39033.11
593.41	39030.77
593.57	39119.71
593.73	38550.96
593.89	39262.49
594.05	38504.15
594.20	38541.60
594.36	38775.66
594.52	38696.08
594.68	38679.69
594.84	38808.42
594.99	38878.64
595.15	38766.29
595.31	38969.92
595.47	38930.13
595.62	38476.07
595.78	38951.20
595.94	38553.30
596.10	38667.99
596.25	38780.34
596.41	38843.53
596.57	38529.90
596.73	38785.02
596.88	38387.13
597.04	38824.81
597.20	38724.16
597.36	38827.15
597.51	38761.61
597.67	38850.55
597.83	39084.61
597.99	39234.40
598.14	39220.36
598.30	39009.71
598.46	38604.80
598.61	39416.96
598.77	39129.08
598.93	38794.38
599.09	38838.85
599.24	39157.16
599.40	38916.09
599.56	38785.02
599.71	38962.90
599.87	39220.36
600.03	39400.58
600.18	38932.47
600.34	39157.16
600.50	38986.30
600.65	38972.26
600.81	39192.27
600.97	39208.65
601.12	39199.29
601.28	38897.36
601.44	39028.43
601.59	39281.21
601.75	38993.32
601.91	38913.75
602.06	38576.71
602.22	39196.95
602.37	39194.61
602.53	39051.84
602.69	39201.63
602.84	39056.52
603.00	39093.97
603.16	38541.60
603.31	38679.69
603.47	38705.44
603.62	38747.57
603.78	38906.73
603.94	38625.86
604.09	38672.67
604.25	38960.56
604.40	38998.01
604.56	39463.77
604.71	38707.78
604.87	38904.38
605.03	38553.30
605.18	38946.51
605.34	38485.43
605.49	38464.36
605.65	38635.22
605.80	38410.53
605.96	38859.91
606.12	39096.31
606.27	39213.34
606.43	38836.51
606.58	39433.35
606.74	39267.17
606.89	39063.54
607.05	39063.54
607.20	38398.83
607.36	38525.22
607.51	38878.64
607.67	38499.47
607.82	39014.39
607.98	38904.38
608.13	39213.34
608.29	38871.62
608.44	38923.11
608.60	38888.00
608.75	39091.63
608.91	39210.99
609.06	38951.20
609.22	38902.04
609.37	38625.86
609.53	38546.28
609.68	38778.00
609.84	38014.98
609.99	38696.08
610.15	38822.47
610.30	38972.26
610.46	39346.75
610.61	39234.40
610.76	39639.31
610.92	39915.50
611.07	39775.06
611.23	39559.73
611.38	39730.59
611.54	39571.44
611.69	39679.10
611.84	39541.01
612.00	39665.06
612.15	39213.34
612.31	39253.12
612.46	38813.10
612.62	38684.37
612.77	38700.76
612.92	38920.77
613.08	38703.10
613.23	38382.45
613.39	38447.98
613.54	38504.15
613.69	38628.20
613.85	38628.20
614.00	38974.60
614.15	39054.18
614.31	38628.20
614.46	39103.33
614.62	38595.43
614.77	38265.42
614.92	38249.03
615.08	38068.81
615.23	37907.32
615.38	38162.43
615.54	37528.15
615.69	38031.36
615.84	38464.36
616.00	38632.88
616.15	37869.87
616.30	38497.13
616.46	37970.51
616.61	37617.09
616.76	37741.14
616.92	37464.96
617.07	38251.38
617.22	37907.32
617.37	37282.39
617.53	37830.08
617.68	37624.11
617.83	37909.66
617.99	37853.48
618.14	37806.67
618.29	37942.42
618.45	37642.84
618.60	37794.97
618.75	37799.65
618.90	37338.57
619.06	37310.48
619.21	37284.73
619.36	37429.85
619.51	37151.32
619.67	37408.78
619.82	37387.72
619.97	37432.19
620.12	37432.19
620.28	37549.21
620.43	37656.88
620.58	37729.44
620.73	37443.89
620.89	37593.68
621.04	37280.05
621.19	37406.44
621.34	37432.19
621.49	36985.15
621.65	37319.84
621.80	37724.75
621.95	37340.91
622.10	37511.77
622.25	37633.47
622.41	37373.67
622.56	37198.13
622.71	37170.05
622.86	36924.29
623.01	37083.45
623.16	37118.56
623.32	37090.47
623.47	36723.01
623.62	37020.25
623.77	36655.13
623.92	37008.55
624.07	37191.11
624.23	37347.93
624.38	37181.75
624.53	36877.48
624.68	36919.61
624.83	36737.05
624.98	36868.12
625.13	36498.31
625.29	36933.65
625.44	36636.41
625.59	36641.09
625.74	36725.35
625.89	37034.30
626.04	36694.92
626.19	36690.24
626.34	36615.34
626.49	36580.23
626.65	36481.93
626.80	36825.99
626.95	36453.84
627.10	35644.02
627.25	36514.70
627.40	36144.89
627.55	36285.33
627.70	36814.29
627.85	36292.35
628.00	36486.61
628.15	36362.56
628.30	36327.45
628.45	36374.27
628.60	36144.89
628.76	36273.62
628.91	36109.78
629.06	36048.93
629.21	36306.39
629.36	35971.69
629.51	35931.90
629.66	35899.14
629.81	35875.73
629.96	36093.40
630.11	35917.86
630.26	36044.25
630.41	36142.55
630.56	35908.50
630.71	35857.01
630.86	36093.40
631.01	35672.10
631.16	35875.73
631.31	35868.71
631.46	35501.25
631.61	35824.24
631.76	35711.89
631.91	35885.09
632.06	35770.41
632.21	35625.29
632.36	35761.05
632.51	35306.98
632.66	35735.30
632.81	35204.00
632.96	35990.42
633.10	34967.60
633.25	35463.80
633.40	35395.92
633.55	35494.22
633.70	35035.48
633.85	35227.40
634.00	35555.08
634.15	35508.27
634.30	35449.75
634.45	35379.54
634.60	35873.39
634.75	35412.31
634.90	35271.87
635.05	35218.04
635.19	35421.67
635.34	35440.39
635.49	34981.65
635.64	34895.05
635.79	35075.27
635.94	34885.68
636.09	34850.58
636.24	35335.07
636.39	34927.81
636.53	35323.36
636.68	34595.46
636.83	35021.44
636.98	35236.77
637.13	35070.59
637.28	34843.56
637.43	34621.20
637.57	34803.77
637.72	34866.96
637.87	34457.37
638.02	34721.85
638.17	34944.20
638.32	34218.63
638.46	34080.54
638.61	34515.88
638.76	34637.59
638.91	34644.61
639.06	34923.13
639.20	35016.75
639.35	34927.81
639.50	34106.29
639.65	34548.65
639.80	34293.53
639.94	34197.57
640.09	34253.74
640.24	34162.46
640.39	34593.12
640.54	34253.74
640.68	34167.14
640.83	34354.38
640.98	34410.56
641.13	34108.63
641.27	34665.67
641.42	33900.32
641.57	34218.63
641.72	34501.84
641.86	33799.68
642.01	33666.27
642.16	34000.96
642.31	33986.92
642.45	34555.67
642.60	34031.39
642.75	34253.74
642.90	34302.89
643.04	34139.05
643.19	33984.58
643.34	34246.72
643.48	34335.66
643.63	33996.28
643.78	33518.81
643.93	33729.46
644.07	33862.87
644.22	33724.78
644.37	33771.59
644.51	33897.98
644.66	33752.87
644.81	33280.08
644.95	33799.68
645.10	34134.37
645.25	33790.31
645.39	33890.96
645.54	33642.86
645.69	33713.08
645.83	33979.90
645.98	33605.41
646.13	33780.95
646.27	33834.78
646.42	33820.74
646.57	33450.94
646.71	33364.34
646.86	33780.95
647.00	33422.85
647.15	33303.48
647.30	33670.95
647.44	33219.22
647.59	32999.21
647.74	33106.88
647.88	33979.90
648.03	33546.90
648.17	33221.56
648.32	33156.03
648.47	33340.93
648.61	33273.06
648.76	33216.88
648.90	33282.42
649.05	33165.39
649.20	33071.77
649.34	33441.57
649.49	33443.91
649.63	33497.75
649.78	33420.51
649.92	33642.86
650.07	33670.95
650.21	33055.39
650.36	32620.05
650.51	32741.75
650.65	32872.82
650.80	33420.51
650.94	32980.49
651.09	32818.99
651.23	32493.66
651.38	33296.46
651.52	32933.68
651.67	32968.79
651.81	33069.43
651.96	33097.52
652.10	33207.52
652.25	32781.54
652.39	32446.85
652.54	32479.61
652.68	32126.19
652.83	32704.31
652.97	32919.63
653.12	32364.93
653.26	32603.66
653.41	33015.60
653.55	32400.04
653.70	32467.91
653.84	32575.58
653.99	32254.92
654.13	32734.73
654.27	32072.36
654.42	32208.11
654.56	32442.17
654.71	32116.83
654.85	32524.08
655.00	32018.53
655.14	32432.80
655.29	31948.31
655.43	32524.08
655.57	32058.32
655.72	31538.72
655.86	32201.09
656.01	32100.45
656.15	32070.02
656.30	32231.52
656.44	32259.60
656.58	32156.62
656.73	31999.80
656.87	32044.27
657.01	31983.42
657.16	32098.11
657.30	32465.57
657.45	31580.85
657.59	31468.50
657.73	31571.49
657.88	31826.60
658.02	31508.29
658.16	31840.65
658.31	31910.86
658.45	31786.82
658.60	31529.36
658.74	31541.06
658.88	31812.56
659.03	31864.05
659.17	31337.43
659.31	31335.09
659.46	31545.74
659.60	31480.21
659.74	31651.06
659.89	31260.20
660.03	31620.64
660.17	31316.37
660.32	31288.28
660.46	31112.74
660.60	31068.27
660.74	31208.70
660.89	31236.79
661.03	30820.17
661.17	30651.66
661.32	30852.94
661.46	31234.45
661.60	30883.37
661.74	30792.09
661.89	30572.08
662.03	30331.00
662.17	30497.18
662.31	30565.06
662.46	31033.16
662.60	30408.24
662.74	30588.46
662.88	30466.75
663.03	30398.88
663.17	30775.70
663.31	30405.90
663.45	30515.90
663.60	30375.47
663.74	30331.00
663.88	30190.57
664.02	30153.12
664.17	30118.01
664.31	30005.67
664.45	29696.72
664.59	30253.76
664.73	29876.94
664.88	29675.65
665.02	29350.32
665.16	30611.87
665.30	29577.35
665.44	29853.53
665.59	29720.12
665.73	29589.05
665.87	29560.97
666.01	29544.58
666.15	29429.90
666.29	29479.05
666.44	29610.12
666.58	29205.20
666.72	28854.12
666.86	29509.47
667.00	29462.66
667.14	29411.17
667.28	29207.55
667.43	29720.12
667.57	29338.62
667.71	29156.05
667.85	29362.02
667.99	28889.23
668.13	29504.79
668.27	28957.11
668.41	28971.15
668.56	28814.34
668.70	28582.62
668.84	28477.30
668.98	28437.51
669.12	28591.98
669.26	28631.77
669.40	28121.54
669.54	28751.14
669.68	28318.14
669.82	28189.41
669.96	28683.27
670.10	28135.58
670.25	28533.47
670.39	28238.56
670.53	28121.54
670.67	28053.66
670.81	28224.52
670.95	28018.55
671.09	28088.77
671.23	27749.39
671.37	28151.96
671.51	28044.30
671.65	28194.09
671.79	27817.27
671.93	28100.47
672.07	28018.55
672.21	27733.01
672.35	27866.42
672.49	27494.27
672.63	27733.01
672.77	27040.21
672.91	27545.76
673.05	27346.82
673.19	26981.70
673.33	26918.50
673.47	26738.28
673.61	27005.10
673.75	26647.00
673.89	26925.52
674.03	26850.63
674.17	26946.59
674.31	27232.13
674.45	27250.86
674.59	26764.03
674.73	27250.86
674.87	26499.55
675.01	26604.87
675.15	26518.27
675.29	26742.96
675.43	26609.55
675.56	26281.88
675.70	26469.12
675.84	26096.97
675.98	25205.23
676.12	26082.93
676.26	25982.29
676.40	26139.10
676.54	25881.64
676.68	25954.20
676.82	25448.64
676.96	25652.27
677.10	26085.27
677.23	25666.31
677.37	25539.93
677.51	25195.87
677.65	25352.68
677.79	25266.08
677.93	24938.41
678.07	24877.55
678.21	24542.86
678.34	24807.34
678.48	24587.33
678.62	24854.15
678.76	24538.18
678.90	24606.05
679.04	24744.14
679.18	24252.63
679.31	23999.85
679.45	24245.61
679.59	24250.29
679.73	24589.67
679.87	24039.64
680.00	24283.06
680.14	23939.00
680.28	24013.90
680.42	23562.17
680.56	23821.97
680.70	23527.06
680.83	23314.08
680.97	23461.53
681.11	23651.11
681.25	23758.78
681.39	23190.03
681.52	23875.80
681.66	23473.23
681.80	22909.16
681.94	23246.20
682.07	23082.36
682.21	22845.97
682.35	23646.43
682.49	23077.68
682.62	23110.45
682.76	22441.06
682.90	22642.34
683.04	22457.44
683.17	22361.48
683.31	22593.19
683.45	22450.42
683.59	22349.78
683.72	22539.36
683.86	22527.66
684.00	22136.79
684.13	22071.25
684.27	21876.99
684.41	21834.86
684.55	21956.57
684.68	21748.26
684.82	21776.34
684.96	21715.49
685.09	21511.86
685.23	21699.11
685.37	21727.19
685.50	21816.13
685.64	21399.52
685.78	21097.59
685.91	21198.23
686.05	21249.72
686.19	20664.59
686.32	21041.42
686.46	20737.15
686.60	20982.90
686.73	21041.42
686.87	20669.27
687.01	20992.26
687.14	20496.07
687.28	20486.71
687.42	20163.72
687.55	20313.51
687.69	20528.84
687.82	20140.31
687.96	20093.50
688.10	19943.70
688.23	19992.86
688.37	20098.18
688.50	19810.29
688.64	19882.85
688.78	19948.39
688.91	19829.02
689.05	19686.25
689.18	19384.32
689.32	19262.61
689.46	19480.28
689.59	19374.95
689.73	19269.63
689.86	19112.81
690.00	18918.55
690.13	19281.33
690.27	19080.05
690.41	19150.26
690.54	18586.19
690.68	18534.70
690.81	18920.89
690.95	18380.23
691.08	18508.96
691.22	18412.99
691.35	18263.20
691.49	18518.32
691.62	18279.58
691.76	18380.23
691.89	18710.24
692.03	18429.38
692.16	18256.18
692.30	18134.47
692.43	18178.94
692.57	18080.64
692.70	17984.68
692.84	17919.14
692.97	17921.48
693.11	17706.15
693.24	17638.28
693.38	17397.20
693.51	17472.10
693.65	17633.60
693.78	17380.82
693.92	17294.22
694.05	17376.14
694.19	17373.80
694.32	17319.96
694.45	17266.13
694.59	17219.32
694.72	16861.22
694.86	16631.85
694.99	16524.18
695.13	16688.02
695.26	16407.16
695.39	16486.73
695.53	16425.88
695.66	16278.43
695.80	16250.34
695.93	16210.55
696.07	16411.84
696.20	16514.82
696.33	16278.43
696.47	16070.12
696.60	16093.52
696.73	15737.76
696.87	15960.11
697.00	15658.18
697.14	15606.69
697.27	15480.30
697.40	15480.30
697.54	15262.63
697.67	15398.38
697.80	15349.23
697.94	15180.71
698.07	15374.98
698.21	15040.28
698.34	15061.35
698.47	14883.47
698.61	14764.10
698.74	15028.58
698.87	15147.95
699.01	14918.57
699.14	14916.23
699.27	14916.23
699.40	14963.04
699.54	14892.83
699.67	14684.52
699.80	14724.31
699.94	14298.33
700.07	14157.90
700.20	14150.88
700.34	13813.84
700.47	14115.77
700.60	14136.84
700.73	14061.94
700.87	14115.77
701.00	13710.86
701.13	13900.44
701.26	13544.68
701.40	13877.04
701.53	13558.72
701.66	13500.21
701.79	13296.58
701.93	13741.29
702.06	13650.00
702.19	13404.25
702.32	13600.85
702.46	13270.84
702.59	13095.30
702.72	13186.58
702.85	13097.64
702.99	12856.56
703.12	12767.62
703.25	12945.50
703.38	12954.87
703.51	12952.52
703.65	12688.04
703.78	12872.95
703.91	12858.90
704.04	12795.71
704.17	12690.38
704.31	12692.73
704.44	12311.22
704.57	12456.33
704.70	12189.51
704.83	12079.50
704.96	12051.42
705.10	11913.33
705.23	12238.66
>>>>>End Processed Spectral Data<<<<<
